File: Bakgrunnsmateriale/MATLAB/FTIR/ftir_data/subBb/Mapping_121/C-4040-8_t65.asc
PE IR       SPECTRUM    SPECTRUM    ASCII       PEDS        1.60
  -1
C-BD3E~1.ASC
17/03/27
19:46:50.00
17/03/27
19:47:16.00
tln
$C-4040-8_t0065$<tbV0>[-10.4,0.0,8.0,0.0,27,1,0]
27.028
64

2002,4.07
MIRTGS : RIGHTBACK : INTERNAL 2
MIR : ON : INTERNAL 2
OPTKBR

0.200000
8
8.000000
FILLER
RATIO
SPECTRUM
UNLOCKED 256

DOUBLE
64
COMBINED
1
0
0

0.002000
RATIO

1
0
TRUE
51149
0
LEFT NOT FITTED RIGHT NOT FITTED 0
NONE
NONE
15600
12
4.427000
51148
TRUE
1 0 8 72 0 0 0 0

15798

#HDR
-1
-1
#GR
µM
%T
2.38419e-05
0.0
2.000000
0.002000
12515
8
90.8445
37.8932
#DATA
2.000000	 64.7607
2.018000	 64.3704
2.036000	 64.9801
2.054000	 65.2659
2.072000	 64.7342
2.090000	 64.8524
2.108000	 64.6626
2.126000	 64.7391
2.144000	 64.7554
2.162000	 64.7683
2.180000	 64.6491
2.198000	 64.3639
2.216000	 65.4977
2.234000	 65.2805
2.252000	 65.1474
2.270000	 64.9006
2.288000	 68.2216
2.306000	 65.9942
2.324000	 64.9069
2.342000	 65.2599
2.360000	 64.7404
2.378000	 64.6402
2.396000	 65.1341
2.414000	 65.257
2.432000	 64.5381
2.450000	 65.1458
2.468000	 65.1697
2.486000	 64.9063
2.504000	 64.9572
2.522000	 64.8964
2.540000	 64.913
2.558000	 64.8649
2.576000	 64.9503
2.594000	 65.01
2.612000	 64.8063
2.630000	 65.1342
2.648000	 65.135
2.666000	 65.0092
2.684000	 65.2619
2.702000	 64.8144
2.720000	 65.2431
2.738000	 65.1118
2.756000	 64.7711
2.774000	 64.7371
2.792000	 64.9845
2.810000	 64.9234
2.828000	 64.9343
2.846000	 65.0189
2.864000	 64.9218
2.882000	 65.1342
2.900000	 65.2744
2.918000	 65.1225
2.936000	 65.0786
2.954000	 65.4029
2.972000	 65.2981
2.990000	 64.93
3.008000	 65.2342
3.026000	 65.1511
3.044000	 65.034
3.062000	 65.1238
3.080000	 65.2014
3.098000	 65.195
3.116000	 65.1141
3.134000	 64.994
3.152000	 65.3024
3.170000	 65.3231
3.188000	 65.119
3.206000	 64.8652
3.224000	 65.3575
3.242000	 65.0272
3.260000	 65.1498
3.278000	 65.2641
3.296000	 65.2243
3.314000	 65.2228
3.332000	 64.8377
3.350000	 65.0524
3.368000	 65.2969
3.386000	 65.0503
3.404000	 65.122
3.422000	 64.8052
3.440000	 64.9266
3.458000	 65.1031
3.476000	 65.0863
3.494000	 65.0976
3.512000	 64.9737
3.530000	 65.0675
3.548000	 65.2503
3.566000	 65.2683
3.584000	 65.0173
3.602000	 65.118
3.620000	 65.0349
3.638000	 65.1161
3.656000	 65.0862
3.674000	 65.211
3.692000	 65.1688
3.710000	 64.9694
3.728000	 65.1811
3.746000	 65.3012
3.764000	 65.1522
3.782000	 65.1178
3.800000	 65.1624
3.818000	 65.2457
3.836000	 65.2712
3.854000	 65.2144
3.872000	 65.1683
3.890000	 65.128
3.908000	 65.1777
3.926000	 65.1922
3.944000	 65.1056
3.962000	 65.1384
3.980000	 65.2551
3.998000	 64.8996
4.016000	 65.0995
4.034000	 65.209
4.052000	 65.1273
4.070000	 65.1862
4.088000	 65.2363
4.106000	 65.0868
4.124000	 65.3004
4.141999	 65.1012
4.160000	 65.1047
4.178000	 65.1709
4.196000	 65.162
4.214000	 65.1101
4.232000	 65.1576
4.250000	 65.222
4.268000	 65.1357
4.286000	 65.2699
4.304000	 65.3679
4.322000	 65.1743
4.340000	 65.2791
4.358000	 65.242
4.375999	 65.2091
4.394000	 65.1601
4.412000	 65.1347
4.430000	 65.289
4.448000	 65.3571
4.466000	 65.2526
4.484000	 65.2953
4.502000	 65.1941
4.520000	 65.2567
4.538000	 65.1913
4.556000	 65.0909
4.574000	 65.0468
4.592000	 65.1795
4.609999	 65.2081
4.628000	 65.273
4.646000	 65.3063
4.664000	 65.336
4.682000	 65.2287
4.700000	 65.1597
4.718000	 65.2869
4.736000	 65.1546
4.754000	 65.1279
4.772000	 65.1347
4.790000	 65.2723
4.808000	 65.3714
4.826000	 65.1637
4.843999	 65.2629
4.862000	 65.0509
4.880000	 65.1275
4.898000	 65.1077
4.916000	 65.2418
4.934000	 65.3484
4.952000	 65.1211
4.970000	 65.086
4.988000	 65.1505
5.006000	 65.2259
5.024000	 65.3119
5.042000	 65.2774
5.060000	 65.2887
5.077999	 65.3381
5.096000	 65.1747
5.114000	 65.173
5.132000	 65.1962
5.150000	 65.1851
5.168000	 65.2031
5.186000	 65.2224
5.204000	 65.2192
5.222000	 65.2801
5.240000	 65.2058
5.258000	 65.2066
5.276000	 65.2498
5.294000	 65.2974
5.312000	 65.2455
5.330000	 65.1843
5.348000	 65.0574
5.366000	 65.0722
5.384000	 65.1331
5.402000	 65.2347
5.420000	 65.3252
5.438000	 65.3238
5.456000	 65.2881
5.474000	 65.1625
5.492000	 65.178
5.510000	 65.3176
5.528000	 65.2745
5.546000	 65.167
5.564000	 65.1214
5.582000	 65.1532
5.600000	 65.1087
5.618000	 65.124
5.636000	 65.1673
5.654000	 65.2084
5.672000	 65.1463
5.690000	 65.0896
5.708000	 65.1359
5.726000	 65.0417
5.744000	 64.8927
5.762000	 64.8916
5.780000	 65.0083
5.798000	 65.1173
5.816000	 65.141
5.834000	 64.9696
5.852000	 64.8974
5.870000	 65.1441
5.888000	 65.3234
5.906000	 65.2644
5.923999	 65.138
5.942000	 65.2323
5.960000	 65.2456
5.978000	 65.1872
5.996000	 65.2324
6.014000	 65.1846
6.032000	 65.0131
6.050000	 65.0459
6.068000	 65.0852
6.086000	 65.0469
6.104000	 65.0164
6.122000	 65.0207
6.140000	 65.0526
6.158000	 65.0639
6.176000	 65.1331
6.194000	 65.1092
6.212000	 64.962
6.230000	 64.9303
6.248000	 65.0171
6.266000	 65.0269
6.284000	 64.9396
6.302000	 64.9677
6.320000	 64.9716
6.338000	 64.9927
6.356000	 65.0781
6.374000	 65.0799
6.392000	 65.0046
6.410000	 64.8717
6.428000	 64.8621
6.446000	 64.8825
6.464000	 64.8579
6.482000	 64.8734
6.500000	 64.9084
6.518000	 64.9295
6.536000	 64.9065
6.554000	 64.8815
6.572000	 64.9598
6.590000	 65.0734
6.608000	 65.1006
6.626000	 65.1257
6.644000	 65.1916
6.662000	 65.226
6.680000	 65.1795
6.698000	 65.0882
6.716000	 65.0767
6.734000	 65.1146
6.752000	 65.1017
6.770000	 65.0205
6.788000	 64.9434
6.806000	 64.979
6.824000	 65.0498
6.842000	 64.9974
6.860000	 64.8109
6.878000	 64.7004
6.896000	 64.8469
6.914000	 65.0173
6.932000	 65.0074
6.950000	 64.9174
6.968000	 64.885
6.986000	 64.9799
7.004000	 65.1138
7.022000	 65.1615
7.040000	 65.1272
7.058000	 65.0637
7.076000	 65.0082
7.094000	 64.9842
7.112000	 65.0204
7.130000	 65.0894
7.148000	 65.0973
7.166000	 65.0559
7.184000	 65.0562
7.202000	 65.0944
7.220000	 65.1183
7.238000	 65.1102
7.256000	 65.0745
7.274000	 65.0357
7.292000	 65.019
7.310000	 65.0122
7.328000	 65.0119
7.346000	 65.0508
7.364000	 65.123
7.382000	 65.1627
7.400000	 65.1277
7.418000	 65.0486
7.436000	 64.9813
7.454000	 64.9526
7.472000	 64.9501
7.490000	 64.9638
7.508000	 65.0101
7.526000	 65.064
7.544000	 65.0496
7.562000	 64.9643
7.580000	 64.8923
7.598000	 64.8836
7.616000	 64.9327
7.634000	 65.0148
7.652000	 65.0811
7.670000	 65.0929
7.688000	 65.062
7.706000	 65.0148
7.724000	 64.9687
7.742000	 64.9509
7.760000	 64.982
7.778000	 65.0276
7.796000	 65.0226
7.814000	 64.9635
7.832000	 64.9131
7.850000	 64.9094
7.868000	 64.9393
7.886000	 64.9871
7.904000	 65.0346
7.922000	 65.0453
7.940000	 65.0099
7.958000	 64.9717
7.976000	 64.9701
7.994000	 64.9892
8.012000	 64.9888
8.030000	 64.9611
8.048000	 64.9243
8.065999	 64.8834
8.084000	 64.8301
8.102000	 64.7745
8.120000	 64.7478
8.138000	 64.7665
8.155999	 64.8131
8.173999	 64.8504
8.192000	 64.8594
8.210000	 64.8613
8.228000	 64.8865
8.246000	 64.9338
8.263999	 64.9849
8.282000	 65.038
8.300000	 65.0924
8.318000	 65.1162
8.336000	 65.0718
8.353999	 64.9695
8.372000	 64.8621
8.390000	 64.7903
8.408000	 64.748
8.426000	 64.712
8.443999	 64.6939
8.462000	 64.7233
8.480000	 64.7912
8.498000	 64.8501
8.516000	 64.8683
8.533999	 64.8595
8.552000	 64.8605
8.570000	 64.8928
8.588000	 64.9494
8.606000	 65.0026
8.624000	 65.0259
8.641999	 65.0113
8.660000	 64.9754
8.678000	 64.9464
8.696000	 64.9415
8.714000	 64.9456
8.731999	 64.9154
8.750000	 64.8225
8.768000	 64.6945
8.786000	 64.6047
8.804000	 64.6101
8.821999	 64.6974
8.840000	 64.7968
8.858000	 64.8415
8.876000	 64.8178
8.894000	 64.7635
8.911999	 64.7278
8.930000	 64.7323
8.948000	 64.7631
8.966000	 64.7846
8.984000	 64.7652
9.001999	 64.6902
9.020000	 64.567
9.038000	 64.433
9.056000	 64.3514
9.074000	 64.3685
9.092000	 64.4599
9.109999	 64.5429
9.128000	 64.5604
9.146000	 64.5543
9.164000	 64.6276
9.182000	 64.8234
9.199999	 65.0628
9.218000	 65.2122
9.236000	 65.2023
9.254000	 65.0748
9.272000	 64.9246
9.289999	 64.8158
9.308000	 64.7533
9.326000	 64.7155
9.344000	 64.6922
9.362000	 64.6915
9.379999	 64.7241
9.398000	 64.7839
9.416000	 64.8445
9.434000	 64.8764
9.452000	 64.8693
9.469999	 64.8417
9.488000	 64.8237
9.506000	 64.8273
9.524000	 64.8372
9.542000	 64.8295
9.560000	 64.8012
9.577999	 64.7721
9.596000	 64.7651
9.614000	 64.7867
9.632000	 64.8288
9.650000	 64.8766
9.667999	 64.9111
9.686000	 64.9094
9.704000	 64.8545
9.722000	 64.7477
9.740000	 64.6148
9.757999	 64.4903
9.776000	 64.3926
9.794000	 64.3178
9.812000	 64.2607
9.830000	 64.2446
9.847999	 64.3161
9.866000	 64.4986
9.884000	 64.7484
9.902000	 64.9633
9.920000	 65.05
9.937999	 64.9985
9.956000	 64.8944
9.974000	 64.8477
9.992000	 64.9077
10.01	65.0297
10.028	65.1153
10.046	65.0957
10.064	64.9775
10.082	64.8237
10.1	64.6967
10.118	64.6176
10.136	64.5685
10.154	64.5272
10.172	64.4898
10.19	64.4642
10.208	64.4499
10.226	64.4317
10.244	64.3878
10.262	64.311
10.28	64.2168
10.298	64.1345
10.316	64.0933
10.334	64.1103
10.352	64.1893
10.37	64.3231
10.388	64.4956
10.406	64.6838
10.424	64.8605
10.442	65.0027
10.46	65.0964
10.478	65.1368
10.496	65.1281
10.514	65.0788
10.532	65.0021
10.55	64.9104
10.568	64.8147
10.586	64.7241
10.604	64.646
10.622	64.5881
10.64	64.5603
10.658	64.5708
10.676	64.6214
10.694	64.7018
10.712	64.7901
10.73	64.8628
10.748	64.9022
10.766	64.9059
10.784	64.8841
10.802	64.8554
10.82	64.837
10.838	64.8387
10.856	64.8585
10.874	64.8848
10.892	64.9017
10.91	64.8937
10.928	64.8548
10.946	64.7902
10.964	64.7161
10.982	64.6534
11	64.6165
11.018	64.6086
11.036	64.6209
11.054	64.6378
11.072	64.6451
11.09	64.6338
11.108	64.6019
11.126	64.5524
11.144	64.4924
11.162	64.4312
11.18	64.3783
11.198	64.3436
11.216	64.3347
11.234	64.3544
11.252	64.3996
11.27	64.4627
11.288	64.5321
11.306	64.5963
11.324	64.6448
11.342	64.6699
11.36	64.6691
11.378	64.6449
11.396	64.6047
11.414	64.5594
11.432	64.5189
11.45	64.4885
11.468	64.4673
11.486	64.4506
11.504	64.4329
11.522	64.413
11.54	64.3941
11.558	64.3835
11.576	64.387
11.594	64.4049
11.612	64.4308
11.63	64.4544
11.648	64.4678
11.666	64.4688
11.684	64.463
11.702	64.4591
11.72	64.4641
11.738	64.477
11.756	64.4878
11.774	64.4821
11.792	64.4484
11.81	64.3857
11.828	64.3056
11.846	64.2287
11.864	64.1764
11.882	64.1613
11.9	64.1834
11.918	64.2293
11.936	64.2782
11.954	64.3102
11.972	64.3121
11.99	64.2828
12.008	64.232
12.026	64.1763
12.044	64.1338
12.062	64.1182
12.08	64.1349
12.098	64.1816
12.116	64.2493
12.134	64.3262
12.152	64.4001
12.17	64.4625
12.188	64.5093
12.206	64.5397
12.224	64.5556
12.242	64.5594
12.26	64.5533
12.278	64.5386
12.296	64.5157
12.314	64.4861
12.332	64.4526
12.35	64.4188
12.368	64.389
12.386	64.3672
12.404	64.3566
12.422	64.3579
12.44	64.3699
12.458	64.3889
12.476	64.4099
12.494	64.4263
12.512	64.4312
12.53	64.4182
12.548	64.382
12.566	64.32
12.584	64.2331
12.602	64.1263
12.62	64.0086
12.638	63.8917
12.656	63.7891
12.674	63.7123
12.692	63.6702
12.71	63.6671
12.728	63.7035
12.746	63.774
12.764	63.8702
12.782	63.9813
12.8	64.096
12.818	64.2044
12.836	64.2985
12.854	64.3732
12.872	64.4265
12.89	64.4588
12.908	64.4727
12.926	64.4712
12.944	64.4576
12.962	64.4347
12.98	64.4054
12.998	64.3726
13.016	64.3403
13.034	64.3129
13.052	64.2952
13.07	64.2909
13.088	64.3007
13.106	64.3213
13.124	64.3451
13.142	64.3622
13.16	64.3625
13.178	64.3398
13.196	64.2931
13.214	64.229
13.232	64.1605
13.25	64.1033
13.268	64.0719
13.286	64.075
13.304	64.1126
13.322	64.1744
13.34	64.2427
13.358	64.2963
13.376	64.3169
13.394	64.2934
13.412	64.2251
13.43	64.1226
13.448	64.0049
13.466	63.8945
13.484	63.812
13.502	63.7716
13.52	63.777
13.538	63.8225
13.556	63.8934
13.574	63.971
13.592	64.0362
13.61	64.0744
13.628	64.0777
13.646	64.0456
13.664	63.9841
13.682	63.9028
13.7	63.8131
13.718	63.724
13.736	63.6417
13.754	63.5689
13.772	63.5051
13.79	63.4482
13.808	63.396
13.826	63.3477
13.844	63.3046
13.862	63.2694
13.88	63.2455
13.898	63.2363
13.916	63.2433
13.934	63.2666
13.952	63.3041
13.97	63.3516
13.988	63.4033
14.006	63.4535
14.024	63.4975
14.042	63.5317
14.06	63.5548
14.078	63.5672
14.096	63.571
14.114	63.5693
14.132	63.5658
14.15	63.5643
14.168	63.5678
14.186	63.5786
14.204	63.598
14.222	63.6263
14.24	63.6631
14.258	63.7071
14.276	63.7568
14.294	63.8102
14.312	63.8647
14.33	63.918
14.348	63.9669
14.366	64.0093
14.384	64.0417
14.402	64.0615
14.42	64.0657
14.438	64.0522
14.456	64.0197
14.474	63.9675
14.492	63.8964
14.51	63.8085
14.528	63.7075
14.546	63.5978
14.564	63.4844
14.582	63.3724
14.6	63.2667
14.618	63.1722
14.636	63.0935
14.654	63.0346
14.672	62.9983
14.69	62.9864
14.708	62.9995
14.726	63.0367
14.744	63.0954
14.762	63.1705
14.78	63.2556
14.798	63.3438
14.816	63.4274
14.834	63.499
14.852	63.5518
14.87	63.5819
14.888	63.5878
14.906	63.5699
14.924	63.531
14.942	63.4767
14.96	63.4138
14.978	63.3493
14.996	63.2898
15.014	63.241
15.032	63.2077
15.05	63.1917
15.068	63.1935
15.086	63.2121
15.104	63.2452
15.122	63.2891
15.14	63.3393
15.158	63.3916
15.176	63.4416
15.194	63.4848
15.212	63.5172
15.23	63.536
15.248	63.539
15.266	63.5248
15.284	63.4933
15.302	63.4457
15.32	63.3839
15.338	63.3101
15.356	63.2279
15.374	63.1413
15.392	63.0547
15.41	62.9723
15.428	62.8987
15.446	62.8387
15.464	62.7955
15.482	62.7717
15.5	62.7686
15.518	62.7859
15.536	62.8212
15.554	62.871
15.572	62.9303
15.59	62.9922
15.608	63.0506
15.626	63.1005
15.644	63.1367
15.662	63.1559
15.68	63.1576
15.698	63.1424
15.716	63.1127
15.734	63.0736
15.752	63.0298
15.77	62.9862
15.788	62.9489
15.806	62.9213
15.824	62.9057
15.842	62.9034
15.86	62.9134
15.878	62.9337
15.896	62.9622
15.914	62.9953
15.932	63.0298
15.95	63.0638
15.968	63.0948
15.986	63.1218
16.004	63.1445
16.022	63.1633
16.04	63.1789
16.058	63.1923
16.076	63.2043
16.094	63.2161
16.112	63.2281
16.13	63.2406
16.148	63.2539
16.166	63.2673
16.184	63.2804
16.202	63.2923
16.22	63.3016
16.238	63.3078
16.256	63.3099
16.274	63.3076
16.292	63.3011
16.31	63.2907
16.328	63.2778
16.346	63.2636
16.364	63.2492
16.382	63.2366
16.4	63.2271
16.418	63.2215
16.436	63.2205
16.454	63.2233
16.472	63.2294
16.49	63.2368
16.508	63.2433
16.526	63.2474
16.544	63.2458
16.562	63.237
16.58	63.2197
16.598	63.1925
16.616	63.1559
16.634	63.1102
16.652	63.0576
16.67	63.0003
16.688	62.9405
16.706	62.8822
16.724	62.8271
16.742	62.7779
16.76	62.7366
16.778	62.7036
16.796	62.6798
16.814	62.6642
16.832	62.6563
16.85	62.654
16.868	62.6557
16.886	62.66
16.904	62.6643
16.922	62.6675
16.94	62.6682
16.958	62.6652
16.976	62.6583
16.994	62.647
17.012	62.6313
17.03	62.6116
17.048	62.5881
17.066	62.5613
17.084	62.5315
17.102	62.4992
17.12	62.4647
17.138	62.4281
17.156	62.3899
17.174	62.35
17.192	62.3089
17.21	62.2669
17.228	62.2246
17.246	62.1828
17.264	62.1419
17.282	62.1036
17.3	62.0685
17.318	62.0381
17.336	62.0136
17.354	61.9956
17.372	61.9857
17.39	61.984
17.408	61.9912
17.426	62.007
17.444	62.0313
17.462	62.0627
17.48	62.1005
17.498	62.143
17.516	62.1886
17.534	62.2362
17.552	62.283
17.57	62.3283
17.588	62.3701
17.606	62.4077
17.624	62.44
17.642	62.4669
17.66	62.4884
17.678	62.5052
17.696	62.5176
17.714	62.5273
17.732	62.5353
17.75	62.5428
17.768	62.5513
17.786	62.5614
17.804	62.5745
17.822	62.5906
17.84	62.61
17.858	62.6323
17.876	62.6572
17.894	62.6832
17.912	62.7098
17.93	62.7349
17.948	62.7583
17.966	62.7779
17.984	62.7934
18.002	62.8034
18.02	62.808
18.038	62.8067
18.056	62.8002
18.074	62.7888
18.092	62.7741
18.11	62.7564
18.128	62.7376
18.146	62.7183
18.164	62.7002
18.182	62.6834
18.2	62.6688
18.218	62.6559
18.236	62.6448
18.254	62.6343
18.272	62.6239
18.29	62.6115
18.308	62.5967
18.326	62.5769
18.344	62.552
18.362	62.5201
18.38	62.4814
18.398	62.4351
18.416	62.3821
18.434	62.3228
18.452	62.2592
18.47	62.192
18.488	62.1242
18.506	62.0566
18.524	61.9925
18.542	61.9324
18.56	61.879
18.578	61.8324
18.596	61.794
18.614	61.7639
18.632	61.7417
18.65	61.7272
18.668	61.7191
18.686	61.717
18.704	61.7187
18.722	61.724
18.74	61.7311
18.758	61.7398
18.776	61.7492
18.794	61.7595
18.812	61.7705
18.83	61.7825
18.848	61.7963
18.866	61.8119
18.884	61.8301
18.902	61.8509
18.92	61.8745
18.938	61.9002
18.956	61.9275
18.974	61.955
18.992	61.9811
19.01	62.0043
19.028	62.0223
19.046	62.0336
19.064	62.0355
19.082	62.0275
19.1	62.0072
19.118	61.9749
19.136	61.9295
19.154	61.8722
19.172	61.8036
19.19	61.725
19.208	61.6396
19.226	61.5483
19.244	61.4558
19.262	61.3626
19.28	61.2744
19.298	61.1911
19.316	61.1181
19.334	61.0549
19.352	61.0054
19.37	60.9693
19.388	60.948
19.406	60.9415
19.424	60.9487
19.442	60.9699
19.46	61.002
19.478	61.0451
19.496	61.0954
19.514	61.1524
19.532	61.2128
19.55	61.275
19.568	61.3372
19.586	61.3969
19.604	61.4539
19.622	61.5055
19.64	61.5522
19.658	61.5925
19.676	61.6267
19.694	61.6544
19.712	61.6757
19.73	61.6912
19.748	61.701
19.766	61.7059
19.784	61.7059
19.802	61.7017
19.82	61.6936
19.838	61.6819
19.856	61.6669
19.874	61.6487
19.892	61.6279
19.91	61.6043
19.928	61.5787
19.946	61.551
19.964	61.522
19.982	61.4919
20	61.4615
20.018	61.4313
20.036	61.4018
20.054	61.3738
20.072	61.3474
20.09	61.3234
20.108	61.3018
20.126	61.2829
20.144	61.2668
20.162	61.2532
20.18	61.2421
20.198	61.233
20.216	61.2251
20.234	61.2183
20.252	61.2109
20.27	61.2032
20.288	61.1935
20.306	61.1817
20.324	61.1669
20.342	61.1483
20.36	61.1261
20.378	61.0996
20.396	61.0689
20.414	61.0346
20.432	60.9963
20.45	60.9554
20.468	60.9122
20.486	60.8673
20.504	60.8226
20.522	60.7777
20.54	60.7349
20.558	60.6937
20.576	60.6556
20.594	60.6211
20.612	60.5905
20.63	60.5646
20.648	60.5432
20.666	60.5263
20.684	60.514
20.702	60.5056
20.72	60.5009
20.738	60.4994
20.756	60.4994
20.774	60.5014
20.792	60.5032
20.81	60.5047
20.828	60.5048
20.846	60.5017
20.864	60.496
20.882	60.4856
20.9	60.4708
20.918	60.4509
20.936	60.4254
20.954	60.3946
20.972	60.3585
20.99	60.3168
21.008	60.2711
21.026	60.2215
21.044	60.1688
21.062	60.1153
21.08	60.0603
21.098	60.0072
21.116	59.9564
21.134	59.9091
21.152	59.8686
21.17	59.8338
21.188	59.8078
21.206	59.7913
21.224	59.7845
21.242	59.7892
21.26	59.8049
21.278	59.8313
21.296	59.8689
21.314	59.9163
21.332	59.9715
21.35	60.0353
21.368	60.1036
21.386	60.1759
21.404	60.2508
21.422	60.3239
21.44	60.3967
21.458	60.4645
21.476	60.5255
21.494	60.5799
21.512	60.6241
21.53	60.6584
21.548	60.6824
21.566	60.6949
21.584	60.6965
21.602	60.689
21.62	60.6714
21.638	60.6462
21.656	60.6166
21.674	60.5811
21.692	60.545
21.71	60.5091
21.728	60.4739
21.746	60.4442
21.764	60.4189
21.782	60.3999
21.8	60.3891
21.818	60.3858
21.836	60.3903
21.854	60.4035
21.872	60.424
21.89	60.45
21.908	60.4826
21.926	60.5181
21.944	60.5545
21.962	60.5927
21.98	60.6275
21.998	60.6591
22.016	60.6865
22.034	60.706
22.052	60.7185
22.07	60.7232
22.088	60.7188
22.106	60.7057
22.124	60.6854
22.142	60.6572
22.16	60.6224
22.178	60.5847
22.196	60.5426
22.214	60.4993
22.232	60.4589
22.25	60.4194
22.268	60.3851
22.286	60.3586
22.304	60.3386
22.322	60.3284
22.34	60.3292
22.358	60.34
22.376	60.3611
22.394	60.3935
22.412	60.4349
22.43	60.4828
22.448	60.5392
22.466	60.5988
22.484	60.6581
22.502	60.7195
22.52	60.7752
22.538	60.8226
22.556	60.8633
22.574	60.8894
22.592	60.9004
22.61	60.8963
22.628	60.8719
22.646	60.8278
22.664	60.7634
22.682	60.676
22.7	60.5654
22.718	60.4332
22.736	60.2797
22.754	60.1037
22.772	59.9096
22.79	59.7003
22.808	59.4731
22.826	59.2363
22.844	58.994
22.862	58.7431
22.88	58.4936
22.898	58.2493
22.916	58.0073
22.934	57.7787
22.952	57.5659
22.97	57.3671
22.988	57.1919
23.006	57.0418
23.024	56.9154
23.042	56.8191
23.06	56.7539
23.078	56.7184
23.096	56.7143
23.114	56.7429
23.132	56.8023
23.15	56.8894
23.168	57.0062
23.186	57.1499
23.204	57.3132
23.222	57.4984
23.24	57.7025
23.258	57.916
23.276	58.1411
23.294	58.3752
23.312	58.6085
23.33	58.8423
23.348	59.0753
23.366	59.2989
23.384	59.5136
23.402	59.7193
23.42	59.9105
23.438	60.0869
23.456	60.249
23.474	60.3942
23.492	60.5216
23.51	60.6321
23.528	60.7255
23.546	60.8014
23.564	60.8601
23.582	60.9024
23.6	60.9285
23.618	60.9382
23.636	60.9323
23.654	60.9112
23.672	60.8747
23.69	60.8233
23.708	60.7577
23.726	60.6775
23.744	60.5833
23.762	60.4758
23.78	60.3539
23.798	60.2198
23.816	60.0754
23.834	59.9184
23.852	59.7523
23.87	59.5816
23.888	59.4036
23.906	59.2211
23.924	59.0414
23.942	58.8629
23.96	58.6862
23.978	58.5207
23.996	58.368
24.014	58.2248
24.032	58.1028
24.05	58.0082
24.068	57.9343
24.086	57.8913
24.104	57.8887
24.122	57.9204
24.14	57.9913
24.158	58.1095
24.176	58.2739
24.194	58.4835
24.212	58.7409
24.23	59.0483
24.248	59.4036
24.266	59.8028
24.284	60.2453
24.302	60.7341
24.32	61.2587
24.338	61.81
24.356	62.397
24.374	63.0085
24.392	63.6281
24.41	64.2617
24.428	64.9065
24.446	65.5427
24.464	66.1648
24.482	66.7823
24.5	67.3748
24.518	67.9256
24.536	68.4472
24.554	68.9295
24.572	69.3567
24.59	69.7301
24.608	70.0525
24.626	70.3182
24.644	70.5231
24.662	70.6696
24.68	70.7618
24.698	70.8027
24.716	70.7861
24.734	70.7209
24.752	70.6201
24.77	70.4814
24.788	70.3034
24.806	70.1029
24.824	69.8908
24.842	69.6555
24.86	69.4099
24.878	69.1701
24.896	68.9316
24.914	68.6944
24.932	68.4701
24.95	68.2651
24.968	68.0732
24.986	67.8987
25.004	67.7465
25.022	67.6173
25.04	67.5083
25.058	67.4173
25.076	67.3447
25.094	67.2923
25.112	67.2535
25.13	67.2215
25.148	67.2016
25.166	67.1902
25.184	67.1787
25.202	67.1632
25.22	67.149
25.238	67.1302
25.256	67.1007
25.274	67.0613
25.292	67.0135
25.31	66.956
25.328	66.8871
25.346	66.8061
25.364	66.7175
25.382	66.6261
25.4	66.5268
25.418	66.422
25.436	66.3236
25.454	66.2396
25.472	66.1587
25.49	66.0924
25.508	66.0568
25.526	66.0527
25.544	66.0727
25.562	66.1324
25.58	66.2464
25.598	66.4064
25.616	66.6144
25.634	66.8812
25.652	67.2133
25.67	67.6032
25.688	68.0555
25.706	68.5759
25.724	69.1678
25.742	69.8273
25.76	70.5503
25.778	71.3335
25.796	72.1836
25.814	73.0941
25.832	74.053
25.85	75.055
25.868	76.1145
25.886	77.2115
25.904	78.3223
25.922	79.447
25.94	80.5994
25.958	81.748
25.976	82.8618
25.994	83.9602
26.012	85.0401
26.03	86.063
26.048	86.9963
26.066	87.8725
26.084	88.6735
26.102	89.3609
26.12	89.9113
26.138	90.3564
26.156	90.6733
26.174	90.8315
26.192	90.8208
26.21	90.6622
26.228	90.3383
26.246	89.8303
26.264	89.1326
26.282	88.256
26.3	87.204
26.318	85.9798
26.336	84.5694
26.354	82.9831
26.372	81.2481
26.39	79.3879
26.408	77.3691
26.426	75.2138
26.444	72.9716
26.462	70.6809
26.48	68.2895
26.498	65.8334
26.516	63.376
26.534	60.9604
26.552	58.5248
26.57	56.1132
26.588	53.7912
26.606	51.5974
26.624	49.4719
26.642	47.458
26.66	45.6131
26.678	43.9694
26.696	42.4812
26.714	41.1737
26.732	40.08
26.75	39.2205
26.768	38.5734
26.786	38.139
26.804	37.9202
26.822	37.9257
26.84	38.1609
26.858	38.5994
26.876	39.2127
26.894	39.9967
26.912	40.9841
26.93	42.1266
26.948	43.3708
26.966	44.7671
26.984	46.4725
27.002	48.1697
27.02	49.51
27.028	49.8614