File: Bakgrunnsmateriale/MATLAB/FTIR/ftir_data/subBb/Mapping_121/C-4040-8_t28_cm-1.asc
PE IR       SPECTRUM    SPECTRUM    ASCII       PEDS        1.60
  -1
C-9A65~1.ASC
17/03/27
16:47:54.00
17/03/27
16:47:54.00
tln
$C-4040-8_t0028$<tbV0>[0.0,-7.8,8.0,0.0,27,1,0]
370
64

2002,4.07
MIRTGS : RIGHTBACK : INTERNAL 2
MIR : ON : INTERNAL 2
OPTKBR

0.200000
8
8.000000
FILLER
RATIO
SPECTRUM
UNLOCKED 256

DOUBLE
64
COMBINED
1
0
0

1.000000
RATIO

1
0
TRUE
51149
0
LEFT NOT FITTED RIGHT NOT FITTED 0
NONE
NONE
15600
12
4.427000
51148
TRUE
1 0 8 72 0 0 0 0

15798

#HDR
-1
-1
#GR
CM-1
%T
2.38419e-05
0.0
5000
-1.000000
4631
8
68.9335
22.8392
#DATA
5000	63.6191
4996	63.5178
4992	63.6143
4988	63.7083
4984	63.5829
4980	63.4862
4976	63.5395
4972	63.4954
4968	63.4886
4964	63.7281
4960	63.9021
4956	63.8666
4952	63.7856
4948	63.6873
4944	63.7889
4940	64.0946
4936	64.0574
4932	63.7036
4928	63.6496
4924	63.7842
4920	63.7556
4916	63.6843
4912	63.6992
4908	63.7135
4904	63.7412
4900	64.1082
4896	64.4329
4892	64.1751
4888	63.8406
4884	63.8551
4880	63.9917
4876	63.9443
4872	63.6988
4868	63.7731
4864	64.1819
4860	64.014
4856	63.504
4852	63.494
4848	63.6018
4844	63.3803
4840	63.1611
4836	63.2661
4832	63.6016
4828	63.9526
4824	64.1489
4820	64.0642
4816	63.7785
4812	63.6138
4808	63.6693
4804	63.7222
4800	63.7033
4796	63.6146
4792	63.5448
4788	63.6777
4784	63.7894
4780	63.6225
4776	63.3871
4772	63.3456
4768	63.5074
4764	63.675
4760	63.7449
4756	63.8687
4752	63.9388
4748	63.8294
4744	63.7257
4740	63.542
4736	63.2738
4732	63.204
4728	63.2826
4724	63.4378
4720	63.6863
4716	63.7769
4712	63.675
4708	63.6777
4704	63.7143
4700	63.6013
4696	63.585
4692	63.6908
4688	63.7758
4684	63.8786
4680	63.9122
4676	63.7954
4672	63.6557
4668	63.8065
4664	64.2073
4660	64.2988
4656	64.0137
4652	63.6668
4648	63.5066
4644	63.6119
4640	63.7455
4636	63.8553
4632	63.9039
4628	63.9126
4624	63.8948
4620	63.8431
4616	63.9511
4612	64.084
4608	64.0214
4604	63.9646
4600	63.95
4596	63.8917
4592	63.9084
4588	63.8229
4584	63.5339
4580	63.455
4576	63.7691
4572	63.9325
4568	63.7686
4564	63.7699
4560	63.7548
4556	63.5196
4552	63.445
4548	63.5142
4544	63.5887
4540	63.5036
4536	63.3429
4532	63.4676
4528	63.5798
4524	63.7164
4520	64.2136
4516	64.3931
4512	64.0129
4508	63.7697
4504	63.8049
4500	63.7571
4496	63.6263
4492	63.4813
4488	63.3139
4484	63.4611
4480	63.7257
4476	63.5834
4472	63.2067
4468	62.9342
4464	62.9464
4460	63.2414
4456	63.6118
4452	63.8238
4448	63.702
4444	63.4438
4440	63.5201
4436	63.633
4432	63.4443
4428	63.4357
4424	63.6736
4420	63.5515
4416	63.2517
4412	63.0321
4408	62.7592
4404	62.8938
4400	63.1115
4396	63.2916
4392	63.2102
4388	63.19
4384	62.2139
4380	60.6029
4376	62.4567
4372	65.802
4368	65.2969
4364	63.3215
4360	65.7457
4356	68.9096
4352	67.2171
4348	64.3728
4344	63.7401
4340	63.9496
4336	64.0068
4332	64.0075
4328	63.89
4324	63.6199
4320	63.4621
4316	63.4508
4312	63.2972
4308	63.165
4304	63.4655
4300	63.9076
4296	63.8681
4292	63.5494
4288	63.5583
4284	63.7501
4280	63.7967
4276	63.7369
4272	63.5901
4268	63.5705
4264	63.7297
4260	63.7043
4256	63.3873
4252	62.985
4248	62.8313
4244	62.9256
4240	63.0752
4236	63.2462
4232	63.3776
4228	63.4505
4224	63.4472
4220	63.3796
4216	63.2776
4212	63.2271
4208	63.3292
4204	63.4008
4200	63.127
4196	62.7962
4192	62.9309
4188	63.2141
4184	63.2236
4180	63.2098
4176	63.3912
4172	63.4437
4168	63.305
4164	63.3549
4160	63.4019
4156	63.2625
4152	63.2745
4148	63.3837
4144	63.3548
4140	63.2931
4136	63.3567
4132	63.4003
4128	63.2046
4124	63.0687
4120	63.2085
4116	63.2626
4112	62.975
4108	62.7733
4104	62.9575
4100	63.1434
4096	63.2611
4092	63.4016
4088	63.3475
4084	63.2307
4080	63.2441
4076	63.2557
4072	63.2155
4068	63.2013
4064	63.2622
4060	63.2916
4056	63.1958
4052	63.1159
4048	63.1112
4044	63.0666
4040	62.9589
4036	62.9135
4032	62.9943
4028	63.1006
4024	63.2054
4020	63.3543
4016	63.4409
4012	63.2736
4008	63.0015
4004	62.9032
4000	62.8745
3996	62.8543
3992	62.9241
3988	62.9223
3984	62.8964
3980	62.9983
3976	63.0221
3972	63.04
3968	63.161
3964	63.181
3960	63.092
3956	62.943
3952	62.8046
3948	62.7767
3944	62.8782
3940	63.0393
3936	63.1213
3932	63.1021
3928	63.0235
3924	62.9733
3920	62.9567
3916	62.8927
3912	62.9009
3908	63.0623
3904	63.1599
3900	63.0346
3896	62.9234
3892	62.9979
3888	63.041
3884	62.9701
3880	62.9373
3876	62.9441
3872	62.8646
3868	62.7841
3864	62.8131
3860	62.856
3856	62.8409
3852	62.728
3848	62.6369
3844	62.6881
3840	62.7527
3836	62.6897
3832	62.5277
3828	62.4422
3824	62.554
3820	62.765
3816	62.8747
3812	62.8778
3808	62.8471
3804	62.8088
3800	62.7771
3796	62.754
3792	62.7353
3788	62.6209
3784	62.5094
3780	62.5635
3776	62.5825
3772	62.4589
3768	62.4355
3764	62.5428
3760	62.6209
3756	62.6667
3752	62.7016
3748	62.7459
3744	62.7732
3740	62.6919
3736	62.5607
3732	62.5785
3728	62.7107
3724	62.7368
3720	62.6169
3716	62.5633
3712	62.6164
3708	62.6237
3704	62.6168
3700	62.6409
3696	62.6566
3692	62.6468
3688	62.5777
3684	62.4529
3680	62.4192
3676	62.5013
3672	62.5395
3668	62.4674
3664	62.3478
3660	62.2883
3656	62.3056
3652	62.4024
3648	62.5695
3644	62.5897
3640	62.4194
3636	62.2869
3632	62.2693
3628	62.3397
3624	62.4387
3620	62.4437
3616	62.3944
3612	62.3677
3608	62.3113
3604	62.2551
3600	62.2605
3596	62.3401
3592	62.4082
3588	62.4099
3584	62.3542
3580	62.2188
3576	62.1583
3572	62.2079
3568	62.2162
3564	62.1542
3560	62.1299
3556	62.2087
3552	62.2628
3548	62.2371
3544	62.2119
3540	62.2198
3536	62.21
3532	62.2091
3528	62.2266
3524	62.1731
3520	62.141
3516	62.2467
3512	62.2746
3508	62.0877
3504	61.9641
3500	62.0521
3496	62.1211
3492	62.046
3488	61.979
3484	62.0661
3480	62.1058
3476	62.0144
3472	62.0426
3468	62.1023
3464	62.0432
3460	61.9738
3456	61.9593
3452	61.9603
3448	61.9353
3444	61.949
3440	61.9856
3436	61.9426
3432	61.8963
3428	61.8667
3424	61.7684
3420	61.7383
3416	61.8254
3412	61.9152
3408	61.9393
3404	61.837
3400	61.7225
3396	61.6699
3392	61.6127
3388	61.5972
3384	61.5911
3380	61.5261
3376	61.559
3372	61.6797
3368	61.6097
3364	61.4021
3360	61.389
3356	61.5783
3352	61.6353
3348	61.4999
3344	61.4044
3340	61.3499
3336	61.2415
3332	61.1162
3328	61.0808
3324	61.1988
3320	61.3259
3316	61.3399
3312	61.333
3308	61.392
3304	61.4218
3300	61.4139
3296	61.4238
3292	61.4284
3288	61.424
3284	61.3282
3280	61.2221
3276	61.2266
3272	61.2033
3268	61.1397
3264	61.1314
3260	61.1204
3256	61.0555
3252	61.0886
3248	61.1919
3244	61.1789
3240	61.147
3236	61.1509
3232	61.078
3228	60.9726
3224	60.9174
3220	60.8418
3216	60.7818
3212	60.8363
3208	60.8823
3204	60.8372
3200	60.8291
3196	60.8217
3192	60.7518
3188	60.7228
3184	60.7966
3180	60.9359
3176	60.9464
3172	60.8509
3168	60.8334
3164	60.7984
3160	60.703
3156	60.6426
3152	60.6678
3148	60.7156
3144	60.6883
3140	60.638
3136	60.594
3132	60.6019
3128	60.6635
3124	60.6645
3120	60.6282
3116	60.6532
3112	60.709
3108	60.7165
3104	60.6266
3100	60.4417
3096	60.3544
3092	60.4149
3088	60.4219
3084	60.3808
3080	60.4232
3076	60.4485
3072	60.4168
3068	60.379
3064	60.2956
3060	60.2468
3056	60.2873
3052	60.2924
3048	60.1791
3044	60.0873
3040	60.1341
3036	60.2741
3032	60.3519
3028	60.2327
3024	60.0721
3020	60.0614
3016	60.1185
3012	60.1374
3008	60.1057
3004	59.9975
3000	59.9057
2996	59.9478
2992	60.0186
2988	60.0149
2984	59.9832
2980	59.936
2976	59.9481
2972	60.0705
2968	60.0882
2964	59.9083
2960	59.7549
2956	59.7031
2952	59.6419
2948	59.5911
2944	59.5631
2940	59.5002
2936	59.4586
2932	59.4208
2928	59.3421
2924	59.2963
2920	59.2717
2916	59.2641
2912	59.2834
2908	59.3078
2904	59.3735
2900	59.4896
2896	59.5768
2892	59.5436
2888	59.4434
2884	59.3873
2880	59.36
2876	59.3528
2872	59.3881
2868	59.3713
2864	59.2533
2860	59.1868
2856	59.1748
2852	59.1057
2848	59.0905
2844	59.1792
2840	59.23
2836	59.2091
2832	59.2196
2828	59.2249
2824	59.1471
2820	59.0794
2816	59.1042
2812	59.2018
2808	59.2352
2804	59.1504
2800	59.0413
2796	58.9837
2792	59.0236
2788	59.0351
2784	58.9786
2780	58.9414
2776	58.9041
2772	58.8616
2768	58.8429
2764	58.822
2760	58.7823
2756	58.7511
2752	58.7711
2748	58.8147
2744	58.8075
2740	58.7228
2736	58.6034
2732	58.5345
2728	58.5396
2724	58.624
2720	58.7227
2716	58.6682
2712	58.5248
2708	58.4656
2704	58.4599
2700	58.4658
2696	58.4747
2692	58.4186
2688	58.3101
2684	58.245
2680	58.2495
2676	58.267
2672	58.2836
2668	58.2835
2664	58.2615
2660	58.2476
2656	58.2227
2652	58.1765
2648	58.0727
2644	57.9628
2640	57.976
2636	58.0521
2632	58.0414
2628	57.9576
2624	57.9104
2620	57.911
2616	57.9046
2612	57.8899
2608	57.8723
2604	57.8151
2600	57.7633
2596	57.7695
2592	57.7791
2588	57.7595
2584	57.7545
2580	57.7592
2576	57.7451
2572	57.7288
2568	57.689
2564	57.6312
2560	57.5786
2556	57.5468
2552	57.54
2548	57.5171
2544	57.4649
2540	57.4102
2536	57.3791
2532	57.3609
2528	57.3509
2524	57.3686
2520	57.3546
2516	57.2585
2512	57.1828
2508	57.1586
2504	57.1041
2500	57.0274
2496	56.9571
2492	56.9347
2488	56.9989
2484	57.0396
2480	57.0032
2476	56.9664
2472	56.9742
2468	57.0092
2464	56.9391
2460	56.7776
2456	56.7454
2452	56.8243
2448	56.8264
2444	56.7766
2440	56.7301
2436	56.6736
2432	56.6404
2428	56.5477
2424	56.5233
2420	56.8047
2416	56.9668
2412	56.7315
2408	56.5074
2404	56.4369
2400	56.4336
2396	56.4655
2392	56.4353
2388	56.3498
2384	56.2744
2380	56.2513
2376	56.3126
2372	56.3473
2368	56.2633
2364	56.1975
2360	56.2129
2356	56.1853
2352	56.0833
2348	56.0182
2344	56.0381
2340	56.074
2336	56.0547
2332	55.9768
2328	55.9203
2324	55.9105
2320	55.9074
2316	55.8989
2312	55.8608
2308	55.8245
2304	55.7953
2300	55.7421
2296	55.6981
2292	55.6731
2288	55.7026
2284	55.7401
2280	55.6813
2276	55.5962
2272	55.5299
2268	55.4723
2264	55.444
2260	55.4118
2256	55.4198
2252	55.5013
2248	55.5023
2244	55.3673
2240	55.2459
2236	55.2362
2232	55.2879
2228	55.2379
2224	55.099
2220	55.0538
2216	55.0799
2212	55.0904
2208	55.0879
2204	55.0694
2200	55.0271
2196	54.9715
2192	54.9179
2188	54.8764
2184	54.8572
2180	54.8635
2176	54.8725
2172	54.8566
2168	54.8127
2164	54.7394
2160	54.6192
2156	54.5142
2152	54.5416
2148	54.6361
2144	54.6469
2140	54.5927
2136	54.5493
2132	54.5171
2128	54.4876
2124	54.4685
2120	54.4598
2116	54.4657
2112	54.4549
2108	54.3932
2104	54.2995
2100	54.1744
2096	54.0733
2092	54.0812
2088	54.1651
2084	54.2486
2080	54.1865
2076	53.9762
2072	53.8598
2068	53.9
2064	53.9784
2060	54.0228
2056	53.9567
2052	53.8258
2048	53.7348
2044	53.7027
2040	53.657
2036	53.5799
2032	53.5793
2028	53.5743
2024	53.5138
2020	53.4876
2016	53.4627
2012	53.4364
2008	53.4136
2004	53.375
2000	53.3795
1996	53.4186
1992	53.3867
1988	53.2713
1984	53.2056
1980	53.1712
1976	53.0816
1972	53.0082
1968	52.9862
1964	52.9911
1960	53.0073
1956	52.9855
1952	52.8961
1948	52.8246
1944	52.8585
1940	52.9254
1936	52.9241
1932	52.8812
1928	52.8114
1924	52.6952
1920	52.6027
1916	52.578
1912	52.5555
1908	52.4991
1904	52.4381
1900	52.4196
1896	52.4587
1892	52.4397
1888	52.3331
1884	52.2673
1880	52.2764
1876	52.2936
1872	52.2523
1868	52.1861
1864	52.1882
1860	52.2191
1856	52.1631
1852	52.0549
1848	51.9805
1844	51.9664
1840	51.9836
1836	51.9571
1832	51.9149
1828	51.9153
1824	51.9449
1820	51.9264
1816	51.8121
1812	51.7052
1808	51.6505
1804	51.6274
1800	51.6286
1796	51.5802
1792	51.4964
1788	51.4333
1784	51.3575
1780	51.3032
1776	51.3063
1772	51.3253
1768	51.3451
1764	51.3234
1760	51.2196
1756	51.1137
1752	51.0705
1748	51.0524
1744	51.0303
1740	50.9717
1736	50.8882
1732	50.824
1728	50.7438
1724	50.6141
1720	50.5032
1716	50.5081
1712	50.5987
1708	50.682
1704	50.7119
1700	50.7031
1696	50.6737
1692	50.6274
1688	50.5619
1684	50.4794
1680	50.4475
1676	50.5041
1672	50.5442
1668	50.4727
1664	50.3549
1660	50.2817
1656	50.2776
1652	50.2949
1648	50.2731
1644	50.1955
1640	50.1106
1636	50.0885
1632	50.08
1628	50.0305
1624	49.9945
1620	49.9734
1616	49.9377
1612	49.9079
1608	49.8768
1604	49.8333
1600	49.785
1596	49.7504
1592	49.724
1588	49.6752
1584	49.6198
1580	49.5736
1576	49.5092
1572	49.4786
1568	49.4961
1564	49.4769
1560	49.4529
1556	49.4648
1552	49.3856
1548	49.1815
1544	49.0268
1540	49.0222
1536	49.1058
1532	49.1641
1528	49.1161
1524	48.9871
1520	48.9064
1516	48.9188
1512	48.9606
1508	48.9959
1504	48.9959
1500	48.9507
1496	48.8996
1492	48.8289
1488	48.7465
1484	48.7078
1480	48.6835
1476	48.6652
1472	48.6528
1468	48.6091
1464	48.5551
1460	48.5427
1456	48.5162
1452	48.4281
1448	48.4028
1444	48.3606
1440	48.2476
1436	48.3033
1432	48.3831
1428	48.2599
1424	48.1339
1420	48.0716
1416	47.9843
1412	47.9235
1408	47.8718
1404	47.8208
1400	47.8391
1396	47.8503
1392	47.7874
1388	47.7102
1384	47.652
1380	47.6527
1376	47.7038
1372	47.6811
1368	47.5919
1364	47.5461
1360	47.5351
1356	47.4919
1352	47.3775
1348	47.2753
1344	47.2726
1340	47.298
1336	47.2898
1332	47.2245
1328	47.1298
1324	47.0728
1320	47.0562
1316	47.0592
1312	47.0646
1308	47.0345
1304	46.9335
1300	46.8271
1296	46.7921
1292	46.7708
1288	46.7044
1284	46.6557
1280	46.6544
1276	46.5916
1272	46.4676
1268	46.435
1264	46.5179
1260	46.5963
1256	46.5931
1252	46.6048
1248	46.6467
1244	46.5701
1240	46.3794
1236	46.2705
1232	46.2993
1228	46.2823
1224	46.2199
1220	46.213
1216	46.1712
1212	46.1095
1208	46.0766
1204	45.9868
1200	45.9229
1196	45.9472
1192	45.9326
1188	45.8146
1184	45.6751
1180	45.6496
1176	45.6945
1172	45.6065
1168	45.4511
1164	45.4408
1160	45.4949
1156	45.5027
1152	45.4428
1148	45.2952
1144	45.225
1140	45.3235
1136	45.3621
1132	45.2374
1128	45.1538
1124	45.067
1120	44.9454
1116	44.9826
1112	45.0333
1108	45.0246
1104	45.0838
1100	45.1272
1096	45.0482
1092	44.8725
1088	44.8632
1084	45.0664
1080	45.0154
1076	44.5289
1072	44.0666
1068	43.8915
1064	43.9839
1060	44.2738
1056	44.4564
1052	44.6203
1048	44.9337
1044	44.9498
1040	44.6185
1036	44.4175
1032	44.3323
1028	44.0673
1024	43.8877
1020	44.1957
1016	44.5389
1012	44.2646
1008	43.8097
1004	43.7798
1000	43.844
996	 43.714
992	 43.6691
988	 43.8341
984	 43.8663
980	 43.6159
976	 43.4197
972	 43.42
968	 43.4158
964	 43.2705
960	 43.0902
956	 43.1066
952	 43.2447
948	 43.2464
944	 43.1604
940	 43.0681
936	 43.0316
932	 43.0394
928	 42.9731
924	 42.9158
920	 42.9436
916	 42.9461
912	 42.7924
908	 42.6165
904	 42.6185
900	 42.6541
896	 42.6356
892	 42.6364
888	 42.5773
884	 42.462
880	 42.3935
876	 42.4081
872	 42.391
868	 42.316
864	 42.2815
860	 42.102
856	 41.8782
852	 41.9182
848	 42.0003
844	 41.8931
840	 41.7476
836	 41.7543
832	 41.8134
828	 41.7397
824	 41.62
820	 41.5429
816	 41.4949
812	 41.5042
808	 41.506
804	 41.4268
800	 41.2976
796	 41.1678
792	 41.0161
788	 40.8351
784	 40.7123
780	 40.6028
776	 40.4807
772	 40.3942
768	 40.3476
764	 40.4162
760	 40.4492
756	 40.2303
752	 39.9605
748	 39.938
744	 39.9828
740	 39.8754
736	 39.8274
732	 39.901
728	 39.8687
724	 39.716
720	 39.6404
716	 39.678
712	 39.6251
708	 39.4447
704	 39.3115
700	 39.1342
696	 38.8626
692	 38.6907
688	 38.5874
684	 38.4253
680	 38.2624
676	 38.1496
672	 38.1871
668	 38.4013
664	 38.4943
660	 38.2828
656	 38.0171
652	 37.8983
648	 37.8151
644	 37.6806
640	 37.611
636	 37.6113
632	 37.4858
628	 37.3389
624	 37.3434
620	 37.3815
616	 37.451
612	 37.5255
608	 37.4779
604	 37.4563
600	 37.3555
596	 36.9346
592	 36.5101
588	 36.3738
584	 36.4259
580	 36.6214
576	 36.795
572	 36.6513
568	 36.3687
564	 36.0363
560	 35.4259
556	 34.828
552	 34.7015
548	 34.8673
544	 35.0436
540	 35.2502
536	 35.3097
532	 35.0334
528	 34.7343
524	 34.5952
520	 34.5057
516	 34.3679
512	 33.9769
508	 33.5274
504	 33.3184
500	 32.9623
496	 32.3718
492	 32.1013
488	 31.8203
484	 31.4188
480	 31.3288
476	 31.1437
472	 31.0084
468	 31.4232
464	 32.0425
460	 32.1315
456	 31.6844
452	 31.2145
448	 31.0465
444	 31.1131
440	 30.5073
436	 29.9221
432	 30.3989
428	 30.3483
424	 28.7759
420	 26.9634
416	 26.5658
412	 26.9448
408	 27.2024
404	 25.1269
400	 22.8998
396	 31.3108
392	 49.6618
388	 49.729
384	 33.6291
380	 34.7621
376	 47.8309
372	 45.3182
370	 38.9755