File: Bakgrunnsmateriale/MATLAB/FTIR/ftir_data/subBb/Mapping_121/C-4040-8_t22.asc
PE IR       SPECTRUM    SPECTRUM    ASCII       PEDS        1.60
  -1
C-AD22~1.ASC
17/03/27
16:13:04.00
17/03/27
16:13:30.00
tln
$C-4040-8_t0022$<tbV0>[-13.0,-10.4,8.0,0.0,27,1,0]
27.028
64

2002,4.07
MIRTGS : RIGHTBACK : INTERNAL 2
MIR : ON : INTERNAL 2
OPTKBR

0.200000
8
8.000000
FILLER
RATIO
SPECTRUM
UNLOCKED 256

DOUBLE
64
COMBINED
1
0
0

0.002000
RATIO

1
0
TRUE
51149
0
LEFT NOT FITTED RIGHT NOT FITTED 0
NONE
NONE
15600
12
4.427000
51148
TRUE
1 0 8 72 0 0 0 0

15798

#HDR
-1
-1
#GR
µM
%T
2.38419e-05
0.0
2.000000
0.002000
12515
8
100.757
44.6678
#DATA
2.000000	 64.3334
2.018000	 64.0312
2.036000	 65.3091
2.054000	 65.0029
2.072000	 64.7978
2.090000	 65.2072
2.108000	 65.3968
2.126000	 65.145
2.144000	 64.7518
2.162000	 65.0906
2.180000	 64.7371
2.198000	 64.5117
2.216000	 65.1765
2.234000	 65.5357
2.252000	 69.0148
2.270000	 64.8505
2.288000	 56.3298
2.306000	 65.8
2.324000	 64.747
2.342000	 64.7912
2.360000	 65.3414
2.378000	 65.1538
2.396000	 64.4665
2.414000	 64.9325
2.432000	 64.8073
2.450000	 65.4124
2.468000	 65.0881
2.486000	 65.5113
2.504000	 65.2219
2.522000	 65.2433
2.540000	 65.0913
2.558000	 65.2614
2.576000	 65.1762
2.594000	 65.7341
2.612000	 65.0989
2.630000	 65.5514
2.648000	 65.084
2.666000	 65.7727
2.684000	 65.3383
2.702000	 65.4621
2.720000	 65.7385
2.738000	 65.4154
2.756000	 65.5334
2.774000	 65.216
2.792000	 65.2706
2.810000	 65.1468
2.828000	 65.1883
2.846000	 65.1197
2.864000	 65.2615
2.882000	 65.4011
2.900000	 65.374
2.918000	 65.0441
2.936000	 65.2425
2.954000	 65.3084
2.972000	 65.1987
2.990000	 65.1921
3.008000	 65.1988
3.026000	 65.1679
3.044000	 65.2584
3.062000	 65.1654
3.080000	 65.2877
3.098000	 65.2771
3.116000	 65.2095
3.134000	 65.0999
3.152000	 65.1691
3.170000	 65.2308
3.188000	 65.2348
3.206000	 65.4191
3.224000	 65.1446
3.242000	 65.3432
3.260000	 65.326
3.278000	 65.2649
3.296000	 65.3741
3.314000	 65.385
3.332000	 65.2618
3.350000	 65.2121
3.368000	 65.0897
3.386000	 65.1111
3.404000	 65.2531
3.422000	 64.9879
3.440000	 64.9263
3.458000	 65.2291
3.476000	 65.15
3.494000	 65.1869
3.512000	 65.1783
3.530000	 65.3195
3.548000	 65.39
3.566000	 65.4893
3.584000	 65.2693
3.602000	 65.2941
3.620000	 65.3487
3.638000	 65.408
3.656000	 65.4069
3.674000	 65.4527
3.692000	 65.2424
3.710000	 65.4191
3.728000	 65.281
3.746000	 65.3517
3.764000	 65.1782
3.782000	 65.3542
3.800000	 65.2627
3.818000	 65.34
3.836000	 65.2266
3.854000	 65.2929
3.872000	 65.2365
3.890000	 65.2824
3.908000	 65.3018
3.926000	 65.4235
3.944000	 65.2037
3.962000	 65.3887
3.980000	 65.3821
3.998000	 65.1372
4.016000	 65.3689
4.034000	 65.2266
4.052000	 65.2729
4.070000	 65.3131
4.088000	 65.3923
4.106000	 65.4744
4.124000	 65.4328
4.141999	 65.1688
4.160000	 65.032
4.178000	 65.407
4.196000	 65.3522
4.214000	 65.395
4.232000	 65.497
4.250000	 65.5039
4.268000	 65.3828
4.286000	 65.5398
4.304000	 65.4734
4.322000	 65.4986
4.340000	 65.4863
4.358000	 65.3539
4.375999	 65.3084
4.394000	 65.3839
4.412000	 65.4036
4.430000	 65.3916
4.448000	 65.4291
4.466000	 65.411
4.484000	 65.3769
4.502000	 65.3739
4.520000	 65.3205
4.538000	 65.3407
4.556000	 65.4533
4.574000	 65.4073
4.592000	 65.4686
4.609999	 65.4179
4.628000	 65.4449
4.646000	 65.3666
4.664000	 65.3887
4.682000	 65.4779
4.700000	 65.3514
4.718000	 65.5384
4.736000	 65.451
4.754000	 65.3503
4.772000	 65.3247
4.790000	 65.4407
4.808000	 65.3803
4.826000	 65.2033
4.843999	 65.3257
4.862000	 65.3648
4.880000	 65.404
4.898000	 65.3521
4.916000	 65.3735
4.934000	 65.384
4.952000	 65.2933
4.970000	 65.4584
4.988000	 65.4266
5.006000	 65.5287
5.024000	 65.5567
5.042000	 65.3873
5.060000	 65.3376
5.077999	 65.4213
5.096000	 65.3964
5.114000	 65.3034
5.132000	 65.3374
5.150000	 65.4019
5.168000	 65.4185
5.186000	 65.3418
5.204000	 65.4575
5.222000	 65.4248
5.240000	 65.4342
5.258000	 65.3384
5.276000	 65.3587
5.294000	 65.4679
5.312000	 65.3773
5.330000	 65.3453
5.348000	 65.3493
5.366000	 65.4403
5.384000	 65.384
5.402000	 65.3232
5.420000	 65.4411
5.438000	 65.3599
5.456000	 65.4416
5.474000	 65.4909
5.492000	 65.3703
5.510000	 65.4895
5.528000	 65.452
5.546000	 65.3559
5.564000	 65.3657
5.582000	 65.4707
5.600000	 65.4766
5.618000	 65.4398
5.636000	 65.5336
5.654000	 65.6222
5.672000	 65.5622
5.690000	 65.4951
5.708000	 65.4401
5.726000	 65.4034
5.744000	 65.4112
5.762000	 65.5178
5.780000	 65.4857
5.798000	 65.3276
5.816000	 65.4269
5.834000	 65.4611
5.852000	 65.3938
5.870000	 65.6245
5.888000	 65.7422
5.906000	 65.5773
5.923999	 65.6242
5.942000	 65.7513
5.960000	 65.6634
5.978000	 65.6156
5.996000	 65.4977
6.014000	 65.4208
6.032000	 65.7227
6.050000	 66.0376
6.068000	 65.8103
6.086000	 65.5205
6.104000	 65.5297
6.122000	 65.5058
6.140000	 65.3569
6.158000	 65.4543
6.176000	 65.5774
6.194000	 65.4758
6.212000	 65.3354
6.230000	 65.3546
6.248000	 65.3108
6.266000	 65.2581
6.284000	 65.2414
6.302000	 65.2766
6.320000	 65.3558
6.338000	 65.4621
6.356000	 65.4226
6.374000	 65.328
6.392000	 65.4904
6.410000	 65.7829
6.428000	 65.6764
6.446000	 65.4376
6.464000	 65.4877
6.482000	 65.7624
6.500000	 65.8173
6.518000	 65.5961
6.536000	 65.5202
6.554000	 65.6509
6.572000	 65.7768
6.590000	 65.6777
6.608000	 65.6117
6.626000	 65.7819
6.644000	 65.8098
6.662000	 65.6349
6.680000	 65.5335
6.698000	 65.4972
6.716000	 65.4216
6.734000	 65.2914
6.752000	 65.2511
6.770000	 65.3728
6.788000	 65.4664
6.806000	 65.3868
6.824000	 65.2958
6.842000	 65.3826
6.860000	 65.4717
6.878000	 65.3425
6.896000	 65.2613
6.914000	 65.338
6.932000	 65.3534
6.950000	 65.4111
6.968000	 65.4889
6.986000	 65.3816
7.004000	 65.2375
7.022000	 65.2554
7.040000	 65.3222
7.058000	 65.27
7.076000	 65.144
7.094000	 65.0706
7.112000	 65.0851
7.130000	 65.1519
7.148000	 65.2146
7.166000	 65.2518
7.184000	 65.271
7.202000	 65.2544
7.220000	 65.1997
7.238000	 65.1509
7.256000	 65.1381
7.274000	 65.1446
7.292000	 65.1514
7.310000	 65.1722
7.328000	 65.1864
7.346000	 65.1498
7.364000	 65.1103
7.382000	 65.1246
7.400000	 65.1401
7.418000	 65.1192
7.436000	 65.108
7.454000	 65.13
7.472000	 65.1641
7.490000	 65.1992
7.508000	 65.2273
7.526000	 65.2294
7.544000	 65.2091
7.562000	 65.2066
7.580000	 65.2257
7.598000	 65.2028
7.616000	 65.1138
7.634000	 65.0329
7.652000	 65.0472
7.670000	 65.1417
7.688000	 65.2163
7.706000	 65.2115
7.724000	 65.1665
7.742000	 65.1444
7.760000	 65.1337
7.778000	 65.0853
7.796000	 65.0227
7.814000	 65.008
7.832000	 65.0352
7.850000	 65.0541
7.868000	 65.0583
7.886000	 65.0651
7.904000	 65.0596
7.922000	 65.0415
7.940000	 65.0539
7.958000	 65.098
7.976000	 65.1174
7.994000	 65.0917
8.012000	 65.0582
8.030000	 65.0378
8.048000	 65.0193
8.065999	 65.005
8.084000	 65.0134
8.102000	 65.0483
8.120000	 65.0861
8.138000	 65.0982
8.155999	 65.0862
8.173999	 65.0805
8.192000	 65.0945
8.210000	 65.1032
8.228000	 65.0873
8.246000	 65.066
8.263999	 65.0681
8.282000	 65.0965
8.300000	 65.1253
8.318000	 65.1233
8.336000	 65.0875
8.353999	 65.0501
8.372000	 65.0418
8.390000	 65.0534
8.408000	 65.0583
8.426000	 65.0522
8.443999	 65.045
8.462000	 65.0317
8.480000	 65.0015
8.498000	 64.9652
8.516000	 64.9558
8.533999	 64.9978
8.552000	 65.0838
8.570000	 65.1709
8.588000	 65.2061
8.606000	 65.1663
8.624000	 65.0811
8.641999	 65.0087
8.660000	 64.9909
8.678000	 65.0279
8.696000	 65.0812
8.714000	 65.1024
8.731999	 65.0679
8.750000	 65.0009
8.768000	 64.9492
8.786000	 64.9383
8.804000	 64.9541
8.821999	 64.9725
8.840000	 64.9903
8.858000	 65.0181
8.876000	 65.0572
8.894000	 65.0968
8.911999	 65.1264
8.930000	 65.1379
8.948000	 65.1225
8.966000	 65.0822
8.984000	 65.0385
9.001999	 65.0191
9.020000	 65.0368
9.038000	 65.0832
9.056000	 65.1412
9.074000	 65.1941
9.092000	 65.2218
9.109999	 65.2065
9.128000	 65.1484
9.146000	 65.0712
9.164000	 65.0067
9.182000	 64.9726
9.199999	 64.9629
9.218000	 64.9563
9.236000	 64.9333
9.254000	 64.8913
9.272000	 64.8478
9.289999	 64.8284
9.308000	 64.8434
9.326000	 64.8769
9.344000	 64.8995
9.362000	 64.8966
9.379999	 64.8751
9.398000	 64.8471
9.416000	 64.8104
9.434000	 64.7501
9.452000	 64.6623
9.469999	 64.576
9.488000	 64.5405
9.506000	 64.5839
9.524000	 64.6859
9.542000	 64.7987
9.560000	 64.8932
9.577999	 64.9779
9.596000	 65.0734
9.614000	 65.1798
9.632000	 65.2736
9.650000	 65.3341
9.667999	 65.3643
9.686000	 65.3796
9.704000	 65.3877
9.722000	 65.3824
9.740000	 65.359
9.757999	 65.3269
9.776000	 65.3031
9.794000	 65.292
9.812000	 65.2768
9.830000	 65.2331
9.847999	 65.1486
9.866000	 65.0327
9.884000	 64.9109
9.902000	 64.8157
9.920000	 64.7802
9.937999	 64.8235
9.956000	 64.9308
9.974000	 65.0492
9.992000	 65.112
10.01	65.0802
10.028	64.9763
10.046	64.8733
10.064	64.8419
10.082	64.9016
10.1	65.0097
10.118	65.0949
10.136	65.1144
10.154	65.0775
10.172	65.0296
10.19	65.0143
10.208	65.0406
10.226	65.0838
10.244	65.107
10.262	65.083
10.28	65.0056
10.298	64.8899
10.316	64.7645
10.334	64.6608
10.352	64.6028
10.37	64.5985
10.388	64.6346
10.406	64.6844
10.424	64.7187
10.442	64.7197
10.46	64.6886
10.478	64.6425
10.496	64.6054
10.514	64.598
10.532	64.6302
10.55	64.6929
10.568	64.7625
10.586	64.8096
10.604	64.8162
10.622	64.7819
10.64	64.7247
10.658	64.6704
10.676	64.6423
10.694	64.6503
10.712	64.6903
10.73	64.7472
10.748	64.8013
10.766	64.834
10.784	64.8333
10.802	64.8008
10.82	64.7514
10.838	64.711
10.856	64.7001
10.874	64.7243
10.892	64.7714
10.91	64.8187
10.928	64.8458
10.946	64.8419
10.964	64.8082
10.982	64.7534
11	64.6882
11.018	64.6229
11.036	64.5658
11.054	64.5253
11.072	64.5079
11.09	64.5161
11.108	64.5458
11.126	64.5887
11.144	64.6358
11.162	64.6795
11.18	64.7143
11.198	64.7343
11.216	64.733
11.234	64.7057
11.252	64.6538
11.27	64.5862
11.288	64.5188
11.306	64.4671
11.324	64.4416
11.342	64.4438
11.36	64.4671
11.378	64.5023
11.396	64.5433
11.414	64.588
11.432	64.6353
11.45	64.6816
11.468	64.7184
11.486	64.736
11.504	64.7272
11.522	64.6922
11.54	64.6391
11.558	64.5816
11.576	64.5347
11.594	64.5089
11.612	64.5077
11.63	64.527
11.648	64.5577
11.666	64.5886
11.684	64.6103
11.702	64.6189
11.72	64.6156
11.738	64.6067
11.756	64.6005
11.774	64.6044
11.792	64.6219
11.81	64.6503
11.828	64.6817
11.846	64.7055
11.864	64.712
11.882	64.6954
11.9	64.6548
11.918	64.594
11.936	64.5195
11.954	64.4383
11.972	64.3567
11.99	64.2797
12.008	64.2107
12.026	64.1523
12.044	64.1077
12.062	64.0803
12.08	64.0734
12.098	64.0886
12.116	64.1257
12.134	64.1812
12.152	64.2486
12.17	64.3199
12.188	64.3861
12.206	64.4396
12.224	64.4746
12.242	64.4883
12.26	64.4806
12.278	64.4547
12.296	64.4166
12.314	64.3742
12.332	64.3355
12.35	64.3072
12.368	64.2936
12.386	64.2956
12.404	64.3105
12.422	64.3328
12.44	64.3566
12.458	64.3769
12.476	64.3901
12.494	64.3954
12.512	64.3936
12.53	64.3869
12.548	64.3777
12.566	64.3679
12.584	64.3593
12.602	64.353
12.62	64.3503
12.638	64.3515
12.656	64.3562
12.674	64.3626
12.692	64.3682
12.71	64.3701
12.728	64.3664
12.746	64.3562
12.764	64.3414
12.782	64.3256
12.8	64.3131
12.818	64.3078
12.836	64.3116
12.854	64.3232
12.872	64.339
12.89	64.3537
12.908	64.3615
12.926	64.3582
12.944	64.3428
12.962	64.3176
12.98	64.2885
12.998	64.2625
13.016	64.2466
13.034	64.2468
13.052	64.2665
13.07	64.3057
13.088	64.3609
13.106	64.4255
13.124	64.491
13.142	64.5479
13.16	64.5873
13.178	64.602
13.196	64.5874
13.214	64.5434
13.232	64.4737
13.25	64.3864
13.268	64.2925
13.286	64.205
13.304	64.1367
13.322	64.0974
13.34	64.0923
13.358	64.1196
13.376	64.1708
13.394	64.2311
13.412	64.2833
13.43	64.3105
13.448	64.3001
13.466	64.2462
13.484	64.1516
13.502	64.027
13.52	63.8891
13.538	63.7568
13.556	63.6475
13.574	63.5739
13.592	63.5419
13.61	63.5501
13.628	63.5902
13.646	63.6502
13.664	63.7168
13.682	63.7775
13.7	63.8237
13.718	63.8505
13.736	63.8582
13.754	63.8499
13.772	63.8317
13.79	63.8107
13.808	63.7934
13.826	63.7855
13.844	63.79
13.862	63.807
13.88	63.8338
13.898	63.8659
13.916	63.8975
13.934	63.9223
13.952	63.935
13.97	63.9317
13.988	63.9107
14.006	63.8724
14.024	63.8193
14.042	63.7549
14.06	63.6838
14.078	63.6105
14.096	63.5394
14.114	63.4741
14.132	63.4181
14.15	63.374
14.168	63.3436
14.186	63.3281
14.204	63.3279
14.222	63.3429
14.24	63.3714
14.258	63.4113
14.276	63.459
14.294	63.5105
14.312	63.562
14.33	63.6098
14.348	63.6514
14.366	63.6852
14.384	63.7107
14.402	63.7284
14.42	63.7396
14.438	63.7456
14.456	63.7477
14.474	63.7468
14.492	63.7429
14.51	63.7358
14.528	63.7247
14.546	63.709
14.564	63.6879
14.582	63.6612
14.6	63.6291
14.618	63.5925
14.636	63.553
14.654	63.5126
14.672	63.4734
14.69	63.4377
14.708	63.4071
14.726	63.3829
14.744	63.3655
14.762	63.3549
14.78	63.3501
14.798	63.3496
14.816	63.3513
14.834	63.353
14.852	63.3521
14.87	63.3476
14.888	63.3387
14.906	63.326
14.924	63.3112
14.942	63.2966
14.96	63.2856
14.978	63.2811
14.996	63.2856
15.014	63.3011
15.032	63.328
15.05	63.3657
15.068	63.4124
15.086	63.4657
15.104	63.5229
15.122	63.5799
15.14	63.6335
15.158	63.6809
15.176	63.7195
15.194	63.7473
15.212	63.763
15.23	63.7666
15.248	63.7584
15.266	63.7397
15.284	63.7126
15.302	63.6801
15.32	63.6454
15.338	63.6117
15.356	63.5825
15.374	63.5613
15.392	63.5498
15.41	63.549
15.428	63.559
15.446	63.5781
15.464	63.6035
15.482	63.6323
15.5	63.661
15.518	63.6857
15.536	63.7039
15.554	63.7141
15.572	63.7154
15.59	63.7082
15.608	63.6938
15.626	63.6738
15.644	63.6501
15.662	63.6244
15.68	63.5976
15.698	63.5702
15.716	63.5423
15.734	63.5132
15.752	63.4824
15.77	63.4493
15.788	63.4137
15.806	63.3764
15.824	63.338
15.842	63.3002
15.86	63.2651
15.878	63.234
15.896	63.2081
15.914	63.1886
15.932	63.1748
15.95	63.1659
15.968	63.1605
15.986	63.1562
16.004	63.1518
16.022	63.1457
16.04	63.1371
16.058	63.1265
16.076	63.1144
16.094	63.1027
16.112	63.0938
16.13	63.0891
16.148	63.0907
16.166	63.0997
16.184	63.116
16.202	63.1392
16.22	63.1669
16.238	63.1967
16.256	63.2259
16.274	63.2502
16.292	63.2671
16.31	63.2743
16.328	63.2696
16.346	63.2528
16.364	63.2241
16.382	63.1853
16.4	63.1393
16.418	63.0882
16.436	63.0366
16.454	62.9876
16.472	62.9437
16.49	62.9084
16.508	62.883
16.526	62.8684
16.544	62.8651
16.562	62.8726
16.58	62.89
16.598	62.9156
16.616	62.9479
16.634	62.9855
16.652	63.0261
16.67	63.0686
16.688	63.1116
16.706	63.1533
16.724	63.1928
16.742	63.229
16.76	63.2603
16.778	63.2859
16.796	63.3048
16.814	63.3162
16.832	63.3198
16.85	63.3153
16.868	63.3032
16.886	63.284
16.904	63.2591
16.922	63.2295
16.94	63.1966
16.958	63.1623
16.976	63.1275
16.994	63.0941
17.012	63.0628
17.03	63.0342
17.048	63.009
17.066	62.9868
17.084	62.9675
17.102	62.9502
17.12	62.9343
17.138	62.9182
17.156	62.901
17.174	62.8818
17.192	62.8593
17.21	62.8331
17.228	62.8025
17.246	62.7682
17.264	62.7305
17.282	62.6911
17.3	62.651
17.318	62.6127
17.336	62.5784
17.354	62.5494
17.372	62.5284
17.39	62.5157
17.408	62.5127
17.426	62.5186
17.444	62.5334
17.462	62.5545
17.48	62.5811
17.498	62.6101
17.516	62.6395
17.534	62.6673
17.552	62.6905
17.57	62.7084
17.588	62.719
17.606	62.7228
17.624	62.7193
17.642	62.7103
17.66	62.6963
17.678	62.6799
17.696	62.662
17.714	62.6451
17.732	62.6302
17.75	62.619
17.768	62.6122
17.786	62.6102
17.804	62.6126
17.822	62.619
17.84	62.6281
17.858	62.6387
17.876	62.6494
17.894	62.6584
17.912	62.6648
17.93	62.6671
17.948	62.6652
17.966	62.6587
17.984	62.6478
18.002	62.6332
18.02	62.6162
18.038	62.5975
18.056	62.5793
18.074	62.5623
18.092	62.5489
18.11	62.5396
18.128	62.5363
18.146	62.5392
18.164	62.5493
18.182	62.5663
18.2	62.5902
18.218	62.6197
18.236	62.6546
18.254	62.6922
18.272	62.732
18.29	62.7707
18.308	62.8081
18.326	62.8404
18.344	62.8674
18.362	62.8859
18.38	62.8956
18.398	62.8944
18.416	62.8822
18.434	62.8579
18.452	62.8219
18.47	62.7741
18.488	62.7158
18.506	62.647
18.524	62.5702
18.542	62.4857
18.56	62.3969
18.578	62.3039
18.596	62.2107
18.614	62.1177
18.632	62.0291
18.65	61.9452
18.668	61.8697
18.686	61.803
18.704	61.7481
18.722	61.7048
18.74	61.6746
18.758	61.6573
18.776	61.6528
18.794	61.6601
18.812	61.6779
18.83	61.7047
18.848	61.738
18.866	61.7762
18.884	61.8159
18.902	61.8556
18.92	61.8917
18.938	61.9232
18.956	61.9471
18.974	61.9631
18.992	61.9693
19.01	61.9663
19.028	61.9535
19.046	61.9324
19.064	61.9039
19.082	61.8697
19.1	61.8322
19.118	61.7926
19.136	61.7541
19.154	61.7175
19.172	61.686
19.19	61.6598
19.208	61.6412
19.226	61.6299
19.244	61.6269
19.262	61.6319
19.28	61.6439
19.298	61.6627
19.316	61.6864
19.334	61.715
19.352	61.7454
19.37	61.7779
19.388	61.8099
19.406	61.8414
19.424	61.8702
19.442	61.8965
19.46	61.9188
19.478	61.9369
19.496	61.9503
19.514	61.9588
19.532	61.9621
19.55	61.96
19.568	61.9529
19.586	61.9408
19.604	61.9239
19.622	61.9022
19.64	61.8758
19.658	61.8458
19.676	61.8121
19.694	61.7763
19.712	61.738
19.73	61.7001
19.748	61.6621
19.766	61.6274
19.784	61.596
19.802	61.5705
19.82	61.5524
19.838	61.5427
19.856	61.5439
19.874	61.5556
19.892	61.5796
19.91	61.6156
19.928	61.6634
19.946	61.7232
19.964	61.7921
19.982	61.8705
20	61.9541
20.018	62.0416
20.036	62.1305
20.054	62.2162
20.072	62.2988
20.09	62.3723
20.108	62.4378
20.126	62.4907
20.144	62.5309
20.162	62.5573
20.18	62.5685
20.198	62.5658
20.216	62.549
20.234	62.5188
20.252	62.4782
20.27	62.4266
20.288	62.3689
20.306	62.3046
20.324	62.2377
20.342	62.1706
20.36	62.1041
20.378	62.0423
20.396	61.9844
20.414	61.9342
20.432	61.8916
20.45	61.8579
20.468	61.8343
20.486	61.8205
20.504	61.8171
20.522	61.824
20.54	61.8406
20.558	61.8674
20.576	61.9029
20.594	61.947
20.612	61.9988
20.63	62.0569
20.648	62.1216
20.666	62.1901
20.684	62.2628
20.702	62.3378
20.72	62.4141
20.738	62.4911
20.756	62.566
20.774	62.6393
20.792	62.7077
20.81	62.7711
20.828	62.8277
20.846	62.8745
20.864	62.9122
20.882	62.937
20.9	62.9495
20.918	62.9475
20.936	62.9294
20.954	62.8957
20.972	62.8449
20.99	62.7771
21.008	62.6929
21.026	62.5916
21.044	62.4744
21.062	62.3429
21.08	62.1965
21.098	62.0391
21.116	61.8707
21.134	61.6935
21.152	61.5121
21.17	61.325
21.188	61.139
21.206	60.9541
21.224	60.7731
21.242	60.602
21.26	60.4387
21.278	60.2895
21.296	60.1551
21.314	60.0365
21.332	59.938
21.35	59.8583
21.368	59.7997
21.386	59.7632
21.404	59.7482
21.422	59.7549
21.44	59.7838
21.458	59.8322
21.476	59.8999
21.494	59.986
21.512	60.0858
21.53	60.2008
21.548	60.3265
21.566	60.4596
21.584	60.6011
21.602	60.7439
21.62	60.889
21.638	61.0331
21.656	61.1712
21.674	61.3051
21.692	61.4295
21.71	61.5432
21.728	61.6459
21.746	61.7329
21.764	61.8055
21.782	61.8617
21.8	61.8996
21.818	61.9201
21.836	61.9221
21.854	61.9049
21.872	61.8695
21.89	61.8167
21.908	61.746
21.926	61.6596
21.944	61.5585
21.962	61.4425
21.98	61.3166
21.998	61.1802
22.016	61.0355
22.034	60.8888
22.052	60.7372
22.07	60.5867
22.088	60.4418
22.106	60.3
22.124	60.1693
22.142	60.0506
22.16	59.9441
22.178	59.8563
22.196	59.7858
22.214	59.7346
22.232	59.7064
22.25	59.7
22.268	59.7153
22.286	59.7532
22.304	59.8131
22.322	59.8912
22.34	59.9886
22.358	60.103
22.376	60.2266
22.394	60.3627
22.412	60.5052
22.43	60.6457
22.448	60.7885
22.466	60.9251
22.484	61.0488
22.502	61.1634
22.52	61.2608
22.538	61.3372
22.556	61.395
22.574	61.4288
22.592	61.4371
22.61	61.4215
22.628	61.3815
22.646	61.3156
22.664	61.2267
22.682	61.1181
22.7	60.9874
22.718	60.8398
22.736	60.6813
22.754	60.5079
22.772	60.3275
22.79	60.1465
22.808	59.9608
22.826	59.7789
22.844	59.606
22.862	59.4388
22.88	59.2837
22.898	59.1441
22.916	59.0177
22.934	58.9079
22.952	58.8162
22.97	58.7413
22.988	58.6838
23.006	58.6445
23.024	58.6224
23.042	58.615
23.06	58.6231
23.078	58.6455
23.096	58.6775
23.114	58.7199
23.132	58.7718
23.15	58.8282
23.168	58.8902
23.186	58.9567
23.204	59.0225
23.222	59.088
23.24	59.1531
23.258	59.2156
23.276	59.2746
23.294	59.3314
23.312	59.3868
23.33	59.4398
23.348	59.4916
23.366	59.5453
23.384	59.6004
23.402	59.6572
23.42	59.7184
23.438	59.7836
23.456	59.8529
23.474	59.9288
23.492	60.0115
23.51	60.1005
23.528	60.197
23.546	60.3019
23.564	60.4143
23.582	60.5329
23.6	60.6578
23.618	60.7893
23.636	60.9239
23.654	61.0607
23.672	61.2014
23.69	61.3399
23.708	61.4728
23.726	61.6037
23.744	61.7258
23.762	61.8332
23.78	61.9303
23.798	62.0118
23.816	62.0711
23.834	62.1111
23.852	62.1298
23.87	62.1226
23.888	62.0903
23.906	62.033
23.924	61.9488
23.942	61.8364
23.96	61.6975
23.978	61.5339
23.996	61.3445
24.014	61.1294
24.032	60.8958
24.05	60.6472
24.068	60.3788
24.086	60.1011
24.104	59.824
24.122	59.5399
24.14	59.257
24.158	58.9872
24.176	58.7254
24.194	58.475
24.212	58.2481
24.23	58.0465
24.248	57.8668
24.266	57.7169
24.284	57.6015
24.302	57.5162
24.32	57.4651
24.338	57.452
24.356	57.4737
24.374	57.5332
24.392	57.6351
24.41	57.7797
24.428	57.9656
24.446	58.1927
24.464	58.4612
24.482	58.7706
24.5	59.121
24.518	59.5133
24.536	59.9506
24.554	60.4254
24.572	60.9287
24.59	61.4684
24.608	62.0383
24.626	62.619
24.644	63.2051
24.662	63.8083
24.68	64.402
24.698	64.9629
24.716	65.5119
24.734	66.0296
24.752	66.4824
24.77	66.8716
24.788	67.2047
24.806	67.4534
24.824	67.5981
24.842	67.6554
24.86	67.6142
24.878	67.4587
24.896	67.1876
24.914	66.8075
24.932	66.3208
24.95	65.7236
24.968	65.0111
24.986	64.2066
25.004	63.3333
25.022	62.3722
25.04	61.3376
25.058	60.2655
25.076	59.1682
25.094	58.0241
25.112	56.8678
25.13	55.7341
25.148	54.6027
25.166	53.4834
25.184	52.4088
25.202	51.3945
25.22	50.4215
25.238	49.5062
25.256	48.6662
25.274	47.8936
25.292	47.1896
25.31	46.5674
25.328	46.0342
25.346	45.5812
25.364	45.215
25.382	44.9436
25.4	44.7644
25.418	44.6762
25.436	44.6851
25.454	44.7955
25.472	45.0028
25.49	45.3091
25.508	45.7181
25.526	46.2312
25.544	46.846
25.562	47.5613
25.58	48.3763
25.598	49.295
25.616	50.3123
25.634	51.4187
25.652	52.6121
25.67	53.9038
25.688	55.2728
25.706	56.6955
25.724	58.1792
25.742	59.7301
25.76	61.3117
25.778	62.8913
25.796	64.4989
25.814	66.1173
25.832	67.7023
25.85	69.2274
25.868	70.7294
25.886	72.1758
25.904	73.5242
25.922	74.7679
25.94	75.931
25.958	76.98
25.976	77.8809
25.994	78.6419
26.012	79.2703
26.03	79.7506
26.048	80.068
26.066	80.2237
26.084	80.2276
26.102	80.0886
26.12	79.8082
26.138	79.3708
26.156	78.8033
26.174	78.1375
26.192	77.3757
26.21	76.4938
26.228	75.5376
26.246	74.5551
26.264	73.5355
26.282	72.462
26.3	71.3876
26.318	70.3639
26.336	69.3663
26.354	68.3919
26.372	67.4839
26.39	66.6817
26.408	65.9586
26.426	65.3194
26.444	64.793
26.462	64.4041
26.48	64.1387
26.498	63.9942
26.516	63.9756
26.534	64.088
26.552	64.3324
26.57	64.7007
26.588	65.1843
26.606	65.7784
26.624	66.4921
26.642	67.3155
26.66	68.2366
26.678	69.2506
26.696	70.3701
26.714	71.5801
26.732	72.8633
26.75	74.2103
26.768	75.6334
26.786	77.1258
26.804	78.6789
26.822	80.2927
26.84	81.9781
26.858	83.7165
26.876	85.487
26.894	87.2853
26.912	89.1344
26.93	91.004
26.948	92.8608
26.966	94.7613
26.984	96.8414
27.002	98.8089
27.02	100.344
27.028	100.757