File: Bakgrunnsmateriale/MATLAB/FTIR/ftir_data/subBb/Mapping_121/C-4040-8_t53_cm-1.asc
PE IR       SPECTRUM    SPECTRUM    ASCII       PEDS        1.60
  -1
C-1CE1~1.ASC
17/03/27
18:50:50.00
17/03/27
18:50:50.00
tln
$C-4040-8_t0053$<tbV0>[-7.8,-2.6,8.0,0.0,27,1,0]
370
64

2002,4.07
MIRTGS : RIGHTBACK : INTERNAL 2
MIR : ON : INTERNAL 2
OPTKBR

0.200000
8
8.000000
FILLER
RATIO
SPECTRUM
UNLOCKED 256

DOUBLE
64
COMBINED
1
0
0

1.000000
RATIO

1
0
TRUE
51149
0
LEFT NOT FITTED RIGHT NOT FITTED 0
NONE
NONE
15600
12
4.427000
51148
TRUE
1 0 8 72 0 0 0 0

15798

#HDR
-1
-1
#GR
CM-1
%T
2.38419e-05
0.0
5000
-1.000000
4631
8
70.8936
19.9691
#DATA
5000	64.8052
4996	64.8444
4992	64.6892
4988	65.0979
4984	65.679
4980	65.5145
4976	64.9774
4972	64.8888
4968	65.2951
4964	66.0284
4960	66.574
4956	66.0825
4952	65.3661
4948	65.2398
4944	65.2566
4940	65.2042
4936	64.9214
4932	64.7277
4928	64.9894
4924	65.3447
4920	65.4641
4916	65.3312
4912	65.1173
4908	65.1423
4904	65.2845
4900	64.9089
4896	64.6729
4892	65.1555
4888	65.2956
4884	64.791
4880	64.1832
4876	63.9962
4872	64.4024
4868	64.7516
4864	64.6995
4860	64.5165
4856	64.507
4852	64.7357
4848	64.8906
4844	64.8892
4840	65.0211
4836	65.2404
4832	65.2402
4828	65.0833
4824	65.1375
4820	65.2556
4816	65.0693
4812	64.9101
4808	65.0547
4804	65.235
4800	65.2441
4796	65.0453
4792	64.8049
4788	64.7839
4784	64.8944
4780	64.9304
4776	64.9836
4772	65.1231
4768	65.1888
4764	64.9476
4760	64.636
4756	64.7132
4752	64.9497
4748	64.9506
4744	64.7842
4740	64.6447
4736	64.6
4732	64.6303
4728	64.6208
4724	64.5523
4720	64.6562
4716	64.8689
4712	64.9345
4708	64.799
4704	64.5724
4700	64.489
4696	64.5762
4692	64.7257
4688	64.8501
4684	64.8289
4680	64.7656
4676	64.8071
4672	64.7702
4668	64.5126
4664	64.3076
4660	64.3625
4656	64.4928
4652	64.4818
4648	64.51
4644	64.7461
4640	64.8798
4636	64.9063
4632	65.0466
4628	65.0669
4624	64.7455
4620	64.372
4616	64.3037
4612	64.4984
4608	64.73
4604	64.7463
4600	64.6667
4596	64.7918
4592	64.9412
4588	65.0805
4584	65.2852
4580	65.214
4576	64.985
4572	64.9254
4568	64.9885
4564	65.1031
4560	65.0807
4556	64.853
4552	64.6194
4548	64.4007
4544	64.0896
4540	64.1291
4536	64.6245
4532	64.7823
4528	64.6331
4524	64.6628
4520	64.7887
4516	65.1353
4512	65.5289
4508	65.411
4504	65.0272
4500	65.0052
4496	65.2034
4492	65.326
4488	65.5126
4484	65.6072
4480	65.5943
4476	65.6162
4472	65.5596
4468	65.4886
4464	65.5662
4460	65.6162
4456	65.4964
4452	65.5143
4448	65.6778
4444	65.7409
4440	65.6289
4436	65.5715
4432	65.8016
4428	66.095
4424	66.3087
4420	66.4406
4416	66.43
4412	66.3796
4408	66.484
4404	66.7033
4400	66.4832
4396	66.1025
4392	66.0423
4388	65.7969
4384	65.4296
4380	65.7412
4376	65.982
4372	66.4275
4368	67.3354
4364	64.0876
4360	57.2312
4356	54.4139
4352	52.4477
4348	46.3673
4344	50.1839
4340	60.9359
4336	65.5939
4332	67.5233
4328	67.1548
4324	66.2275
4320	66.5665
4316	66.661
4312	66.3616
4308	65.9919
4304	65.7449
4300	65.5727
4296	65.7262
4292	65.8969
4288	65.7884
4284	65.778
4280	66.038
4276	66.3457
4272	66.4488
4268	66.3771
4264	66.3211
4260	66.3187
4256	66.1828
4252	65.7403
4248	65.4226
4244	65.3747
4240	65.2526
4236	65.2742
4232	65.4713
4228	65.5616
4224	65.6119
4220	65.5633
4216	65.3895
4212	65.2968
4208	65.3763
4204	65.4741
4200	65.4553
4196	65.3227
4192	65.3353
4188	65.3309
4184	64.6825
4180	64.0873
4176	64.4787
4172	65.1732
4168	65.473
4164	65.5404
4160	65.5142
4156	65.2627
4152	65.0025
4148	65.0864
4144	65.1706
4140	65.075
4136	65.0675
4132	64.9923
4128	64.8355
4124	64.9195
4120	65.0149
4116	64.8798
4112	64.8549
4108	65.0796
4104	65.2297
4100	65.1652
4096	65.0924
4092	65.1146
4088	65.2158
4084	65.3302
4080	65.3553
4076	65.2726
4072	65.1567
4068	65.0355
4064	64.9456
4060	64.8965
4056	64.7783
4052	64.6991
4048	64.8449
4044	65.0025
4040	64.9456
4036	64.9226
4032	65.0415
4028	65.1353
4024	65.2174
4020	65.3299
4016	65.3564
4012	65.2046
4008	64.9979
4004	64.8747
4000	64.8761
3996	64.9659
3992	65.033
3988	64.998
3984	64.9003
3980	64.8356
3976	64.7722
3972	64.7426
3968	64.8288
3964	64.8316
3960	64.7742
3956	64.9315
3952	65.1718
3948	65.2637
3944	65.2707
3940	65.245
3936	65.1178
3932	64.9897
3928	64.9564
3924	64.9532
3920	64.982
3916	65.0965
3912	65.1892
3908	65.074
3904	64.924
3900	65.0246
3896	65.2285
3892	65.2529
3888	65.1251
3884	65.056
3880	65.193
3876	65.389
3872	65.3754
3868	65.2322
3864	65.1134
3860	65.0779
3856	65.1954
3852	65.3104
3848	65.2431
3844	65.0934
3840	65.0997
3836	65.2347
3832	65.3159
3828	65.4161
3824	65.5028
3820	65.3735
3816	65.3212
3812	65.4749
3808	65.4837
3804	65.3962
3800	65.3398
3796	65.2646
3792	65.1661
3788	65.1621
3784	65.2973
3780	65.4572
3776	65.5282
3772	65.4472
3768	65.3127
3764	65.2588
3760	65.2747
3756	65.2397
3752	65.2083
3748	65.2275
3744	65.2409
3740	65.202
3736	65.0637
3732	65.0575
3728	65.2451
3724	65.3851
3720	65.3876
3716	65.3243
3712	65.3317
3708	65.3286
3704	65.1734
3700	65.0254
3696	65.0967
3692	65.2658
3688	65.3288
3684	65.345
3680	65.3652
3676	65.3245
3672	65.2361
3668	65.1821
3664	65.1109
3660	65.0708
3656	65.1898
3652	65.2725
3648	65.2445
3644	65.2274
3640	65.2428
3636	65.2601
3632	65.1381
3628	64.9325
3624	64.911
3620	65.0476
3616	65.1062
3612	65.089
3608	65.0848
3604	65.0512
3600	65.0505
3596	65.1154
3592	65.1237
3588	65.0614
3584	65.0715
3580	65.1678
3576	65.146
3572	65.0321
3568	64.9744
3564	64.9228
3560	64.9077
3556	65.0102
3552	65.0887
3548	65.0029
3544	64.8812
3540	64.847
3536	64.8854
3532	64.9425
3528	64.9728
3524	65.0322
3520	65.0817
3516	65.109
3512	65.1839
3508	65.3199
3504	65.4195
3500	65.368
3496	65.2997
3492	65.2607
3488	65.2323
3484	65.2832
3480	65.406
3476	65.5534
3472	65.5936
3468	65.4763
3464	65.3355
3460	65.2777
3456	65.2505
3452	65.1895
3448	65.1139
3444	65.0829
3440	65.1589
3436	65.2368
3432	65.2634
3428	65.3666
3424	65.4675
3420	65.4229
3416	65.3347
3412	65.2769
3408	65.2167
3404	65.227
3400	65.2841
3396	65.2941
3392	65.3033
3388	65.3496
3384	65.409
3380	65.4575
3376	65.4226
3372	65.3309
3368	65.3838
3364	65.4953
3360	65.3939
3356	65.2312
3352	65.187
3348	65.1729
3344	65.165
3340	65.1956
3336	65.2427
3332	65.2507
3328	65.2335
3324	65.3337
3320	65.4512
3316	65.3758
3312	65.2838
3308	65.2644
3304	65.2158
3300	65.1676
3296	65.2345
3292	65.3565
3288	65.3574
3284	65.3043
3280	65.2418
3276	65.1758
3272	65.2004
3268	65.2602
3264	65.31
3260	65.4332
3256	65.5182
3252	65.3527
3248	65.0702
3244	64.9436
3240	65.0078
3236	65.2217
3232	65.379
3228	65.2936
3224	65.1692
3220	65.2035
3216	65.3072
3212	65.3167
3208	65.1855
3204	65.0462
3200	65.134
3196	65.3109
3192	65.2997
3188	65.2346
3184	65.222
3180	65.159
3176	65.0592
3172	65.0155
3168	65.0437
3164	65.0254
3160	64.9351
3156	64.9989
3152	65.2588
3148	65.4093
3144	65.2072
3140	64.9496
3136	64.9834
3132	65.1377
3128	65.2392
3124	65.1817
3120	65.0461
3116	65.0671
3112	65.0771
3108	65.0947
3104	65.2812
3100	65.3744
3096	65.3058
3092	65.3139
3088	65.3463
3084	65.2311
3080	65.1766
3076	65.271
3072	65.2938
3068	65.1784
3064	65.0789
3060	65.1055
3056	65.2279
3052	65.3457
3048	65.3369
3044	65.3066
3040	65.3333
3036	65.3093
3032	65.2461
3028	65.2458
3024	65.2941
3020	65.3445
3016	65.4132
3012	65.4861
3008	65.4206
3004	65.2143
3000	65.185
2996	65.3184
2992	65.2825
2988	65.1399
2984	65.1256
2980	65.1707
2976	65.1924
2972	65.2815
2968	65.3797
2964	65.3696
2960	65.3182
2956	65.292
2952	65.3222
2948	65.4005
2944	65.4335
2940	65.345
2936	65.1583
2932	64.9795
2928	64.9567
2924	65.0161
2920	64.9279
2916	64.8643
2912	64.9908
2908	65.0819
2904	65.0563
2900	65.0588
2896	65.1284
2892	65.1963
2888	65.2299
2884	65.2152
2880	65.2068
2876	65.2624
2872	65.2959
2868	65.2402
2864	65.1105
2860	65.0174
2856	65.066
2852	65.1497
2848	65.1864
2844	65.2327
2840	65.2297
2836	65.1284
2832	65.0879
2828	65.1746
2824	65.261
2820	65.3465
2816	65.3986
2812	65.3492
2808	65.3275
2804	65.3407
2800	65.3047
2796	65.2625
2792	65.2934
2788	65.3774
2784	65.3966
2780	65.3128
2776	65.222
2772	65.1886
2768	65.218
2764	65.2742
2760	65.2575
2756	65.2311
2752	65.2767
2748	65.2894
2744	65.2946
2740	65.3576
2736	65.3961
2732	65.3848
2728	65.3213
2724	65.233
2720	65.161
2716	65.1774
2712	65.305
2708	65.353
2704	65.2785
2700	65.2481
2696	65.264
2692	65.2436
2688	65.2336
2684	65.257
2680	65.3218
2676	65.4132
2672	65.4094
2668	65.2897
2664	65.2331
2660	65.3089
2656	65.3483
2652	65.2895
2648	65.233
2644	65.2686
2640	65.3634
2636	65.3862
2632	65.348
2628	65.3641
2624	65.4283
2620	65.4466
2616	65.4496
2612	65.4974
2608	65.5102
2604	65.4925
2600	65.4631
2596	65.3894
2592	65.3128
2588	65.2472
2584	65.2327
2580	65.2659
2576	65.2777
2572	65.3038
2568	65.3527
2564	65.3761
2560	65.3695
2556	65.3642
2552	65.4389
2548	65.4934
2544	65.4344
2540	65.3991
2536	65.379
2532	65.2874
2528	65.1973
2524	65.1957
2520	65.2094
2516	65.1601
2512	65.1464
2508	65.1246
2504	65.0019
2500	64.9694
2496	65.08
2492	65.155
2488	65.2253
2484	65.3372
2480	65.3616
2476	65.3473
2472	65.3493
2468	65.2752
2464	65.289
2460	65.4683
2456	65.5491
2452	65.4954
2448	65.483
2444	65.557
2440	65.6116
2436	65.5789
2432	65.6151
2428	65.7785
2424	65.8566
2420	65.7058
2416	65.4613
2412	65.4389
2408	65.6764
2404	65.7732
2400	65.5662
2396	65.388
2392	65.4208
2388	65.4564
2384	65.3984
2380	65.3416
2376	65.2838
2372	65.2451
2368	65.2375
2364	65.2617
2360	65.3255
2356	65.3342
2352	65.2824
2348	65.2781
2344	65.3713
2340	65.4621
2336	65.4531
2332	65.3982
2328	65.392
2324	65.4185
2320	65.4095
2316	65.3892
2312	65.3877
2308	65.4042
2304	65.4369
2300	65.4665
2296	65.47
2292	65.4356
2288	65.3927
2284	65.3782
2280	65.353
2276	65.333
2272	65.3903
2268	65.4426
2264	65.3999
2260	65.3535
2256	65.404
2252	65.4744
2248	65.4835
2244	65.431
2240	65.3845
2236	65.4165
2232	65.4817
2228	65.4992
2224	65.408
2220	65.3252
2216	65.35
2212	65.3379
2208	65.2446
2204	65.2228
2200	65.2736
2196	65.2757
2192	65.2835
2188	65.3161
2184	65.3262
2180	65.3843
2176	65.4674
2172	65.475
2168	65.467
2164	65.5281
2160	65.6266
2156	65.7333
2152	65.8384
2148	65.8587
2144	65.7117
2140	65.5123
2136	65.4354
2132	65.4013
2128	65.327
2124	65.3214
2120	65.3739
2116	65.4118
2112	65.4025
2108	65.3399
2104	65.3389
2100	65.3896
2096	65.4065
2092	65.3544
2088	65.2104
2084	65.1127
2080	65.0822
2076	65.0743
2072	65.0772
2068	65.0185
2064	65.0855
2060	65.2384
2056	65.166
2052	65.1192
2048	65.289
2044	65.3563
2040	65.2859
2036	65.2524
2032	65.288
2028	65.3829
2024	65.421
2020	65.3538
2016	65.2946
2012	65.3431
2008	65.4226
2004	65.4252
2000	65.3415
1996	65.2517
1992	65.2887
1988	65.3678
1984	65.3582
1980	65.2889
1976	65.2232
1972	65.2111
1968	65.1835
1964	65.1058
1960	65.1332
1956	65.3355
1952	65.4633
1948	65.4111
1944	65.3836
1940	65.4418
1936	65.5035
1932	65.4838
1928	65.3945
1924	65.3224
1920	65.2849
1916	65.2779
1912	65.3053
1908	65.3061
1904	65.305
1900	65.3444
1896	65.3683
1892	65.3931
1888	65.3785
1884	65.3459
1880	65.375
1876	65.3647
1872	65.3059
1868	65.2914
1864	65.2857
1860	65.2231
1856	65.132
1852	65.1435
1848	65.2638
1844	65.3606
1840	65.4132
1836	65.4561
1832	65.4908
1828	65.4415
1824	65.289
1820	65.2215
1816	65.2558
1812	65.2668
1808	65.2946
1804	65.32
1800	65.2808
1796	65.2274
1792	65.2325
1788	65.2394
1784	65.2183
1780	65.2426
1776	65.2941
1772	65.334
1768	65.3294
1764	65.2981
1760	65.2787
1756	65.2578
1752	65.2892
1748	65.324
1744	65.2467
1740	65.1783
1736	65.1514
1732	65.0732
1728	65.0778
1724	65.1649
1720	65.1081
1716	65.007
1712	65.0862
1708	65.2357
1704	65.3192
1700	65.3377
1696	65.304
1692	65.2471
1688	65.2048
1684	65.2258
1680	65.2716
1676	65.2675
1672	65.2726
1668	65.3609
1664	65.415
1660	65.2885
1656	65.1515
1652	65.1469
1648	65.1557
1644	65.154
1640	65.1833
1636	65.1744
1632	65.1158
1628	65.118
1624	65.1617
1620	65.1388
1616	65.0888
1612	65.0836
1608	65.1002
1604	65.1276
1600	65.1835
1596	65.2157
1592	65.1907
1588	65.2024
1584	65.2791
1580	65.382
1576	65.4571
1572	65.3669
1568	65.1853
1564	65.1457
1560	65.2077
1556	65.2174
1552	65.1894
1548	65.2067
1544	65.3019
1540	65.3131
1536	65.2082
1532	65.1702
1528	65.1775
1524	65.1747
1520	65.1929
1516	65.1702
1512	65.0825
1508	65.0196
1504	65.1118
1500	65.2772
1496	65.2831
1492	65.1816
1488	65.1733
1484	65.2444
1480	65.3029
1476	65.2939
1472	65.2095
1468	65.1425
1464	65.1043
1460	64.9036
1456	64.6334
1452	64.6895
1448	64.9138
1444	64.9521
1440	64.9941
1436	65.1753
1432	65.2639
1428	65.1778
1424	65.1201
1420	65.1338
1416	65.1407
1412	65.1417
1408	65.1289
1404	65.1688
1400	65.2536
1396	65.2258
1392	65.127
1388	65.069
1384	65.03
1380	65.0266
1376	65.0641
1372	65.0733
1368	65.0605
1364	65.0447
1360	65.0476
1356	65.1211
1352	65.1687
1348	65.1552
1344	65.1958
1340	65.2417
1336	65.1973
1332	65.1243
1328	65.1315
1324	65.1143
1320	65.0007
1316	65.0134
1312	65.0991
1308	65.0504
1304	65.003
1300	65.0051
1296	64.9842
1292	64.977
1288	65.0269
1284	65.0969
1280	65.0957
1276	65.0671
1272	65.0827
1268	65.1062
1264	65.0615
1260	64.9888
1256	64.9787
1252	65.0477
1248	65.136
1244	65.11
1240	64.9715
1236	64.8819
1232	64.9397
1228	65.0255
1224	65.0138
1220	64.9625
1216	65.0393
1212	65.2709
1208	65.3649
1204	65.2497
1200	65.1868
1196	65.1814
1192	65.1238
1188	64.9946
1184	64.9427
1180	65.0622
1176	64.9929
1172	64.8042
1168	64.833
1164	64.8446
1160	64.6721
1156	64.6389
1152	64.8924
1148	65.1705
1144	65.2063
1140	64.994
1136	64.8579
1132	64.9837
1128	65.1292
1124	65.0441
1120	64.9405
1116	64.8773
1112	64.5688
1108	64.3701
1104	64.6822
1100	65.0424
1096	64.8144
1092	64.4451
1088	64.6864
1084	64.9884
1080	64.9152
1076	64.8493
1072	64.8446
1068	64.8657
1064	64.9392
1060	64.9459
1056	64.963
1052	65.0032
1048	64.7202
1044	64.4252
1040	64.5885
1036	64.8195
1032	64.8496
1028	64.7159
1024	64.5514
1020	64.6923
1016	64.9486
1012	64.9885
1008	64.8524
1004	64.6637
1000	64.6521
996	 64.7206
992	 64.7682
988	 64.861
984	 64.9817
980	 65.0161
976	 64.8215
972	 64.5595
968	 64.435
964	 64.5175
960	 64.5823
956	 64.5768
952	 64.7382
948	 64.8402
944	 64.7346
940	 64.6779
936	 64.7279
932	 64.7494
928	 64.7054
924	 64.6359
920	 64.5476
916	 64.4533
912	 64.3635
908	 64.4453
904	 64.5708
900	 64.4554
896	 64.379
892	 64.4949
888	 64.6227
884	 64.5729
880	 64.3971
876	 64.3713
872	 64.5388
868	 64.7231
864	 64.6808
860	 64.5203
856	 64.4748
852	 64.4915
848	 64.5318
844	 64.5478
840	 64.5191
836	 64.4613
832	 64.3216
828	 64.2823
824	 64.386
820	 64.2541
816	 64.0655
812	 64.2478
808	 64.5696
804	 64.613
800	 64.4143
796	 64.2711
792	 64.1619
788	 63.938
784	 63.813
780	 63.9701
776	 64.1325
772	 64.1555
768	 64.2908
764	 64.4788
760	 64.2443
756	 63.7845
752	 63.886
748	 64.2595
744	 64.2205
740	 64.0493
736	 63.9033
732	 63.7277
728	 63.694
724	 63.7081
720	 63.7609
716	 63.9024
712	 63.8356
708	 63.5267
704	 63.4404
700	 63.7166
696	 63.9839
692	 63.9821
688	 63.7576
684	 63.4634
680	 63.3203
676	 63.3285
672	 63.052
668	 62.5537
664	 62.5679
660	 63.044
656	 63.2808
652	 63.186
648	 62.9929
644	 62.8284
640	 62.9298
636	 63.0177
632	 62.821
628	 62.8691
624	 63.0593
620	 63.098
616	 63.1555
612	 63.1616
608	 63.2171
604	 63.3069
600	 62.8953
596	 62.2294
592	 62.1786
588	 62.4329
584	 62.5255
580	 62.4982
576	 62.1971
572	 62.0788
568	 62.3894
564	 62.5049
560	 62.3252
556	 62.214
552	 62.2978
548	 62.5969
544	 62.7278
540	 62.4803
536	 62.3383
532	 62.1123
528	 61.4372
524	 60.715
520	 60.061
516	 59.686
512	 60.3037
508	 61.3496
504	 61.5477
500	 61.2397
496	 61.2946
492	 61.3469
488	 60.9107
484	 60.801
480	 61.2352
476	 61.1074
472	 60.5261
468	 60.7823
464	 61.3174
460	 60.7699
456	 59.766
452	 58.563
448	 57.5775
444	 57.9462
440	 58.4524
436	 58.4806
432	 58.5359
428	 58.5457
424	 58.9654
420	 59.7673
416	 61.0435
412	 62.4291
408	 61.9817
404	 57.9248
400	 54.6327
396	 60.7976
392	 70.0264
388	 69.5893
384	 68.5842
380	 69.3337
376	 43.4431
372	 19.9691
370	 30.8473