File: Bakgrunnsmateriale/MATLAB/FTIR/ftir_data/subBb/Mapping_121/C-4040-8_t09.asc
PE IR       SPECTRUM    SPECTRUM    ASCII       PEDS        1.60
  -1
C-C52E~1.ASC
17/03/27
15:12:29.00
17/03/27
15:12:55.00
tln
$C-4040-8_t0009$<tbV0>[-7.8,-13.0,8.0,0.0,27,1,0]
27.028
64

2002,4.07
MIRTGS : RIGHTBACK : INTERNAL 2
MIR : ON : INTERNAL 2
OPTKBR

0.200000
8
8.000000
FILLER
RATIO
SPECTRUM
UNLOCKED 256

DOUBLE
64
COMBINED
1
0
0

0.002000
RATIO

1
0
TRUE
51149
0
LEFT NOT FITTED RIGHT NOT FITTED 0
NONE
NONE
15600
12
4.427000
51148
TRUE
1 0 8 72 0 0 0 0

15798

#HDR
-1
-1
#GR
µM
%T
2.38419e-05
0.0
2.000000
0.002000
12515
8
80.4992
22.2231
#DATA
2.000000	 63.9547
2.018000	 63.449
2.036000	 65.1468
2.054000	 64.2337
2.072000	 64.1079
2.090000	 64.6762
2.108000	 64.4919
2.126000	 64.5134
2.144000	 64.1827
2.162000	 64.48
2.180000	 63.8769
2.198000	 63.818
2.216000	 63.8417
2.234000	 63.8763
2.252000	 67.3053
2.270000	 62.4478
2.288000	 65.3752
2.306000	 63.9558
2.324000	 63.262
2.342000	 63.9184
2.360000	 63.874
2.378000	 64.0557
2.396000	 63.602
2.414000	 63.9535
2.432000	 64.0877
2.450000	 64.0881
2.468000	 64.2043
2.486000	 64.3128
2.504000	 64.1605
2.522000	 64.1465
2.540000	 63.7956
2.558000	 63.9352
2.576000	 64.0845
2.594000	 64.4482
2.612000	 63.3937
2.630000	 64.2069
2.648000	 63.7519
2.666000	 63.98
2.684000	 63.936
2.702000	 63.5765
2.720000	 64.0182
2.738000	 63.9184
2.756000	 63.9321
2.774000	 63.604
2.792000	 63.6454
2.810000	 63.6525
2.828000	 63.1311
2.846000	 63.1136
2.864000	 63.3876
2.882000	 63.1641
2.900000	 63.1861
2.918000	 63.11
2.936000	 62.943
2.954000	 63.0041
2.972000	 63.1287
2.990000	 62.9765
3.008000	 62.8541
3.026000	 62.8842
3.044000	 62.6668
3.062000	 62.6687
3.080000	 62.8126
3.098000	 62.6447
3.116000	 62.7832
3.134000	 62.3485
3.152000	 62.4763
3.170000	 62.5262
3.188000	 62.4046
3.206000	 62.5629
3.224000	 62.3286
3.242000	 62.3369
3.260000	 62.291
3.278000	 62.3523
3.296000	 62.1452
3.314000	 62.0097
3.332000	 62.0616
3.350000	 61.8907
3.368000	 61.8
3.386000	 61.5984
3.404000	 61.6905
3.422000	 61.4153
3.440000	 61.4542
3.458000	 61.4741
3.476000	 61.4626
3.494000	 61.5416
3.512000	 61.3286
3.530000	 61.3704
3.548000	 61.3691
3.566000	 61.3306
3.584000	 61.1576
3.602000	 61.1956
3.620000	 61.0878
3.638000	 61.1059
3.656000	 61.1106
3.674000	 61.0198
3.692000	 60.8566
3.710000	 60.907
3.728000	 60.8974
3.746000	 60.7852
3.764000	 60.6072
3.782000	 60.6132
3.800000	 60.5944
3.818000	 60.5359
3.836000	 60.4814
3.854000	 60.3237
3.872000	 60.466
3.890000	 60.2931
3.908000	 60.2247
3.926000	 60.229
3.944000	 60.1667
3.962000	 60.275
3.980000	 60.147
3.998000	 60.143
4.016000	 59.8439
4.034000	 59.8241
4.052000	 59.9195
4.070000	 59.8262
4.088000	 59.8737
4.106000	 59.8486
4.124000	 59.4757
4.141999	 59.5232
4.160000	 59.4418
4.178000	 59.5866
4.196000	 59.4537
4.214000	 59.4339
4.232000	 59.5222
4.250000	 59.2672
4.268000	 59.2347
4.286000	 59.2242
4.304000	 59.2083
4.322000	 58.9744
4.340000	 59.1748
4.358000	 58.9691
4.375999	 58.9917
4.394000	 58.9635
4.412000	 59.0085
4.430000	 58.8368
4.448000	 58.7982
4.466000	 58.7005
4.484000	 58.6427
4.502000	 58.4674
4.520000	 58.5076
4.538000	 58.4847
4.556000	 58.422
4.574000	 58.377
4.592000	 58.3582
4.609999	 58.3462
4.628000	 58.18
4.646000	 58.1915
4.664000	 58.3487
4.682000	 58.2724
4.700000	 58.0779
4.718000	 58.1011
4.736000	 58.0102
4.754000	 58.0084
4.772000	 57.8848
4.790000	 57.9889
4.808000	 58.1559
4.826000	 57.9389
4.843999	 57.7571
4.862000	 57.5798
4.880000	 57.5522
4.898000	 57.6985
4.916000	 57.5853
4.934000	 57.546
4.952000	 57.38
4.970000	 57.4717
4.988000	 57.507
5.006000	 57.456
5.024000	 57.3589
5.042000	 57.2183
5.060000	 57.1899
5.077999	 57.1735
5.096000	 57.1286
5.114000	 57.1388
5.132000	 57.0692
5.150000	 57.0245
5.168000	 56.9359
5.186000	 56.8987
5.204000	 56.9144
5.222000	 56.8759
5.240000	 56.7796
5.258000	 56.7968
5.276000	 56.7814
5.294000	 56.6996
5.312000	 56.6269
5.330000	 56.6485
5.348000	 56.5414
5.366000	 56.3939
5.384000	 56.4592
5.402000	 56.4758
5.420000	 56.4821
5.438000	 56.364
5.456000	 56.3063
5.474000	 56.3283
5.492000	 56.2772
5.510000	 56.2972
5.528000	 56.2467
5.546000	 56.1387
5.564000	 56.1863
5.582000	 56.2
5.600000	 56.139
5.618000	 56.1278
5.636000	 56.1397
5.654000	 56.0027
5.672000	 55.935
5.690000	 56.0101
5.708000	 55.9116
5.726000	 55.6982
5.744000	 55.6301
5.762000	 55.717
5.780000	 55.6691
5.798000	 55.5821
5.816000	 55.7808
5.834000	 55.8252
5.852000	 55.647
5.870000	 55.7146
5.888000	 55.8118
5.906000	 55.6754
5.923999	 55.7003
5.942000	 55.7093
5.960000	 55.4828
5.978000	 55.4364
5.996000	 55.3373
6.014000	 55.1922
6.032000	 55.4212
6.050000	 55.6952
6.068000	 55.4884
6.086000	 55.1911
6.104000	 55.1178
6.122000	 55.1241
6.140000	 55.0588
6.158000	 55.0555
6.176000	 55.1294
6.194000	 55.1116
6.212000	 54.9753
6.230000	 54.9125
6.248000	 54.7871
6.266000	 54.6579
6.284000	 54.6143
6.302000	 54.5934
6.320000	 54.6104
6.338000	 54.6813
6.356000	 54.7114
6.374000	 54.7145
6.392000	 54.7751
6.410000	 54.8848
6.428000	 54.7623
6.446000	 54.5429
6.464000	 54.5584
6.482000	 54.7062
6.500000	 54.6712
6.518000	 54.505
6.536000	 54.4445
6.554000	 54.4975
6.572000	 54.5661
6.590000	 54.4927
6.608000	 54.4318
6.626000	 54.5836
6.644000	 54.6306
6.662000	 54.4738
6.680000	 54.3532
6.698000	 54.2814
6.716000	 54.2038
6.734000	 54.0884
6.752000	 54.0252
6.770000	 54.0803
6.788000	 54.1056
6.806000	 53.9932
6.824000	 53.8878
6.842000	 53.9631
6.860000	 54.0799
6.878000	 54.0254
6.896000	 53.9617
6.914000	 53.9912
6.932000	 53.9459
6.950000	 53.8578
6.968000	 53.7984
6.986000	 53.6977
7.004000	 53.582
7.022000	 53.579
7.040000	 53.646
7.058000	 53.6379
7.076000	 53.573
7.094000	 53.4902
7.112000	 53.3886
7.130000	 53.3484
7.148000	 53.3934
7.166000	 53.4619
7.184000	 53.5021
7.202000	 53.4576
7.220000	 53.3387
7.238000	 53.2418
7.256000	 53.2101
7.274000	 53.1952
7.292000	 53.1502
7.310000	 53.0793
7.328000	 53.021
7.346000	 53.0039
7.364000	 53.0275
7.382000	 53.0723
7.400000	 53.0969
7.418000	 53.0729
7.436000	 53.0305
7.454000	 52.9967
7.472000	 52.9469
7.490000	 52.8734
7.508000	 52.8169
7.526000	 52.8089
7.544000	 52.8454
7.562000	 52.9014
7.580000	 52.9336
7.598000	 52.9029
7.616000	 52.8174
7.634000	 52.723
7.652000	 52.654
7.670000	 52.6156
7.688000	 52.5944
7.706000	 52.5793
7.724000	 52.5824
7.742000	 52.6133
7.760000	 52.6367
7.778000	 52.6018
7.796000	 52.5079
7.814000	 52.4022
7.832000	 52.3294
7.850000	 52.3131
7.868000	 52.3537
7.886000	 52.4159
7.904000	 52.4494
7.922000	 52.4485
7.940000	 52.4468
7.958000	 52.448
7.976000	 52.4309
7.994000	 52.3976
8.012000	 52.3583
8.030000	 52.3016
8.048000	 52.2283
8.065999	 52.1785
8.084000	 52.1858
8.102000	 52.2291
8.120000	 52.2588
8.138000	 52.2546
8.155999	 52.2322
8.173999	 52.2021
8.192000	 52.1487
8.210000	 52.0606
8.228000	 51.9619
8.246000	 51.8971
8.263999	 51.8878
8.282000	 51.9129
8.300000	 51.9326
8.318000	 51.9263
8.336000	 51.9069
8.353999	 51.898
8.372000	 51.9049
8.390000	 51.9075
8.408000	 51.8838
8.426000	 51.8354
8.443999	 51.788
8.462000	 51.7698
8.480000	 51.7879
8.498000	 51.8224
8.516000	 51.8456
8.533999	 51.8426
8.552000	 51.8179
8.570000	 51.7826
8.588000	 51.7454
8.606000	 51.7146
8.624000	 51.6973
8.641999	 51.6918
8.660000	 51.6876
8.678000	 51.6758
8.696000	 51.6555
8.714000	 51.632
8.731999	 51.6117
8.750000	 51.5946
8.768000	 51.5679
8.786000	 51.5126
8.804000	 51.4291
8.821999	 51.3486
8.840000	 51.3098
8.858000	 51.3239
8.876000	 51.3699
8.894000	 51.4191
8.911999	 51.4539
8.930000	 51.4672
8.948000	 51.4564
8.966000	 51.4268
8.984000	 51.391
9.001999	 51.3591
9.020000	 51.3317
9.038000	 51.3035
9.056000	 51.2717
9.074000	 51.2423
9.092000	 51.2272
9.109999	 51.234
9.128000	 51.2542
9.146000	 51.2632
9.164000	 51.2352
9.182000	 51.1627
9.199999	 51.0615
9.218000	 50.9572
9.236000	 50.8709
9.254000	 50.8155
9.272000	 50.7975
9.289999	 50.8154
9.308000	 50.8548
9.326000	 50.8896
9.344000	 50.8957
9.362000	 50.8701
9.379999	 50.8382
9.398000	 50.8358
9.416000	 50.8813
9.434000	 50.9595
9.452000	 51.0352
9.469999	 51.082
9.488000	 51.0981
9.506000	 51.0937
9.524000	 51.069
9.542000	 51.0163
9.560000	 50.9384
9.577999	 50.8581
9.596000	 50.8008
9.614000	 50.7736
9.632000	 50.7619
9.650000	 50.7486
9.667999	 50.7319
9.686000	 50.7237
9.704000	 50.7346
9.722000	 50.7626
9.740000	 50.7954
9.757999	 50.82
9.776000	 50.8279
9.794000	 50.8144
9.812000	 50.7791
9.830000	 50.7285
9.847999	 50.6768
9.866000	 50.6386
9.884000	 50.6186
9.902000	 50.6089
9.920000	 50.5967
9.937999	 50.5768
9.956000	 50.5559
9.974000	 50.5441
9.992000	 50.544
10.01	50.5476
10.028	50.5437
10.046	50.5272
10.064	50.5013
10.082	50.471
10.1	50.4376
10.118	50.3986
10.136	50.3531
10.154	50.3062
10.172	50.2662
10.19	50.2378
10.208	50.2196
10.226	50.2065
10.244	50.1932
10.262	50.1783
10.28	50.1629
10.298	50.1505
10.316	50.1473
10.334	50.1586
10.352	50.1844
10.37	50.2151
10.388	50.2325
10.406	50.2216
10.424	50.1812
10.442	50.1294
10.46	50.0911
10.478	50.0815
10.496	50.093
10.514	50.1024
10.532	50.0865
10.55	50.0406
10.568	49.9796
10.586	49.9265
10.604	49.8933
10.622	49.8745
10.64	49.85
10.658	49.804
10.676	49.7382
10.694	49.6701
10.712	49.6215
10.73	49.6009
10.748	49.5981
10.766	49.5903
10.784	49.5594
10.802	49.5033
10.82	49.4354
10.838	49.3789
10.856	49.35
10.874	49.3566
10.892	49.4012
10.91	49.4875
10.928	49.6189
10.946	49.7895
10.964	49.9731
10.982	50.1243
11	50.1952
11.018	50.1547
11.036	50.0067
11.054	49.7885
11.072	49.554
11.09	49.3592
11.108	49.2389
11.126	49.2088
11.144	49.2667
11.162	49.3992
11.18	49.5853
11.198	49.7948
11.216	49.9902
11.234	50.1331
11.252	50.1939
11.27	50.1645
11.288	50.0601
11.306	49.9132
11.324	49.7637
11.342	49.6428
11.36	49.562
11.378	49.5114
11.396	49.4673
11.414	49.4035
11.432	49.3052
11.45	49.1756
11.468	49.0342
11.486	48.9061
11.504	48.8129
11.522	48.7657
11.54	48.7615
11.558	48.7875
11.576	48.8281
11.594	48.8719
11.612	48.9113
11.63	48.9446
11.648	48.9724
11.666	48.9936
11.684	49.0051
11.702	49.0034
11.72	48.9865
11.738	48.9561
11.756	48.9182
11.774	48.8825
11.792	48.8584
11.81	48.8527
11.828	48.8678
11.846	48.9017
11.864	48.9491
11.882	49.0034
11.9	49.057
11.918	49.103
11.936	49.1345
11.954	49.1452
11.972	49.1295
11.99	49.085
12.008	49.0146
12.026	48.9253
12.044	48.8282
12.062	48.7352
12.08	48.6548
12.098	48.5908
12.116	48.5422
12.134	48.5048
12.152	48.474
12.17	48.4475
12.188	48.4256
12.206	48.4099
12.224	48.4013
12.242	48.3988
12.26	48.3989
12.278	48.3971
12.296	48.391
12.314	48.3817
12.332	48.3738
12.35	48.3741
12.368	48.388
12.386	48.4169
12.404	48.4566
12.422	48.4982
12.44	48.5316
12.458	48.5484
12.476	48.5452
12.494	48.5244
12.512	48.4937
12.53	48.462
12.548	48.4369
12.566	48.4224
12.584	48.4182
12.602	48.4205
12.62	48.4243
12.638	48.4251
12.656	48.4202
12.674	48.4085
12.692	48.3898
12.71	48.3645
12.728	48.3325
12.746	48.2937
12.764	48.2488
12.782	48.1999
12.8	48.1515
12.818	48.1087
12.836	48.0771
12.854	48.0609
12.872	48.0613
12.89	48.0766
12.908	48.1019
12.926	48.1307
12.944	48.1567
12.962	48.1746
12.98	48.1816
12.998	48.1771
13.016	48.1622
13.034	48.1392
13.052	48.1104
13.07	48.0778
13.088	48.0424
13.106	48.0043
13.124	47.9631
13.142	47.9185
13.16	47.8703
13.178	47.819
13.196	47.7657
13.214	47.7122
13.232	47.661
13.25	47.6154
13.268	47.5792
13.286	47.5562
13.304	47.5501
13.322	47.5635
13.34	47.5973
13.358	47.6497
13.376	47.7163
13.394	47.7899
13.412	47.8619
13.43	47.9232
13.448	47.9656
13.466	47.9837
13.484	47.9749
13.502	47.9406
13.52	47.8854
13.538	47.8157
13.556	47.7389
13.574	47.6619
13.592	47.5904
13.61	47.5277
13.628	47.4759
13.646	47.4354
13.664	47.4063
13.682	47.3878
13.7	47.3799
13.718	47.382
13.736	47.3938
13.754	47.414
13.772	47.4412
13.79	47.4731
13.808	47.5071
13.826	47.5405
13.844	47.5707
13.862	47.5953
13.88	47.6128
13.898	47.6219
13.916	47.6219
13.934	47.6127
13.952	47.5941
13.97	47.5663
13.988	47.5297
14.006	47.4851
14.024	47.4334
14.042	47.3761
14.06	47.3147
14.078	47.2508
14.096	47.1862
14.114	47.1221
14.132	47.0599
14.15	47.0004
14.168	46.9439
14.186	46.8905
14.204	46.8405
14.222	46.7938
14.24	46.7504
14.258	46.7101
14.276	46.6726
14.294	46.6377
14.312	46.6051
14.33	46.5742
14.348	46.545
14.366	46.5172
14.384	46.4914
14.402	46.4688
14.42	46.451
14.438	46.4396
14.456	46.4359
14.474	46.4407
14.492	46.454
14.51	46.4741
14.528	46.4983
14.546	46.5229
14.564	46.5445
14.582	46.5598
14.6	46.5665
14.618	46.5636
14.636	46.5516
14.654	46.5325
14.672	46.5093
14.69	46.4854
14.708	46.4641
14.726	46.4483
14.744	46.4398
14.762	46.4394
14.78	46.4468
14.798	46.4607
14.816	46.4795
14.834	46.5006
14.852	46.5221
14.87	46.5419
14.888	46.5588
14.906	46.5717
14.924	46.5799
14.942	46.5828
14.96	46.5802
14.978	46.5722
14.996	46.5588
15.014	46.5401
15.032	46.5166
15.05	46.4885
15.068	46.4561
15.086	46.4197
15.104	46.3797
15.122	46.3366
15.14	46.2912
15.158	46.2446
15.176	46.1978
15.194	46.1522
15.212	46.1096
15.23	46.0714
15.248	46.039
15.266	46.0138
15.284	45.9966
15.302	45.9879
15.32	45.9876
15.338	45.9955
15.356	46.0111
15.374	46.0333
15.392	46.0611
15.41	46.093
15.428	46.1274
15.446	46.1622
15.464	46.1954
15.482	46.2248
15.5	46.2484
15.518	46.2635
15.536	46.2686
15.554	46.2623
15.572	46.2439
15.59	46.2138
15.608	46.1738
15.626	46.1262
15.644	46.0743
15.662	46.023
15.68	45.9757
15.698	45.9359
15.716	45.9069
15.734	45.8898
15.752	45.8845
15.77	45.89
15.788	45.9031
15.806	45.9204
15.824	45.9385
15.842	45.9533
15.86	45.9611
15.878	45.9601
15.896	45.9487
15.914	45.9264
15.932	45.8944
15.95	45.854
15.968	45.8077
15.986	45.7588
16.004	45.7097
16.022	45.663
16.04	45.6216
16.058	45.5869
16.076	45.56
16.094	45.5417
16.112	45.5314
16.13	45.5285
16.148	45.5319
16.166	45.5394
16.184	45.5496
16.202	45.5607
16.22	45.5707
16.238	45.5782
16.256	45.5818
16.274	45.5806
16.292	45.5745
16.31	45.5634
16.328	45.548
16.346	45.529
16.364	45.5072
16.382	45.4837
16.4	45.4591
16.418	45.4339
16.436	45.4084
16.454	45.3825
16.472	45.356
16.49	45.3285
16.508	45.2999
16.526	45.2699
16.544	45.2387
16.562	45.207
16.58	45.1752
16.598	45.1448
16.616	45.1168
16.634	45.0921
16.652	45.072
16.67	45.0571
16.688	45.0478
16.706	45.0437
16.724	45.0444
16.742	45.049
16.76	45.0558
16.778	45.0639
16.796	45.0716
16.814	45.0772
16.832	45.0801
16.85	45.0787
16.868	45.073
16.886	45.063
16.904	45.0489
16.922	45.0311
16.94	45.0102
16.958	44.9868
16.976	44.9612
16.994	44.9338
17.012	44.9047
17.03	44.874
17.048	44.8413
17.066	44.8065
17.084	44.7692
17.102	44.7292
17.12	44.6866
17.138	44.6412
17.156	44.5938
17.174	44.5447
17.192	44.4951
17.21	44.4454
17.228	44.3969
17.246	44.3505
17.264	44.3069
17.282	44.2674
17.3	44.2321
17.318	44.2019
17.336	44.1767
17.354	44.1567
17.372	44.1415
17.39	44.1308
17.408	44.1245
17.426	44.1217
17.444	44.1223
17.462	44.1257
17.48	44.1319
17.498	44.1407
17.516	44.1524
17.534	44.1672
17.552	44.1854
17.57	44.2071
17.588	44.2328
17.606	44.2624
17.624	44.296
17.642	44.3331
17.66	44.3737
17.678	44.4164
17.696	44.4608
17.714	44.5051
17.732	44.5483
17.75	44.5894
17.768	44.6264
17.786	44.6587
17.804	44.6847
17.822	44.7039
17.84	44.7151
17.858	44.7181
17.876	44.7123
17.894	44.6977
17.912	44.6741
17.93	44.642
17.948	44.6017
17.966	44.554
17.984	44.4994
18.002	44.4393
18.02	44.3745
18.038	44.3062
18.056	44.2362
18.074	44.1651
18.092	44.0955
18.11	44.0277
18.128	43.964
18.146	43.905
18.164	43.8523
18.182	43.8064
18.2	43.7681
18.218	43.7372
18.236	43.7141
18.254	43.6977
18.272	43.6877
18.29	43.6822
18.308	43.6808
18.326	43.6811
18.344	43.6824
18.362	43.682
18.38	43.6791
18.398	43.6715
18.416	43.6586
18.434	43.6388
18.452	43.6119
18.47	43.5775
18.488	43.5359
18.506	43.487
18.524	43.4322
18.542	43.3718
18.56	43.3081
18.578	43.2412
18.596	43.174
18.614	43.1067
18.632	43.0423
18.65	42.9807
18.668	42.9244
18.686	42.8735
18.704	42.8293
18.722	42.7917
18.74	42.7611
18.758	42.7372
18.776	42.7197
18.794	42.7079
18.812	42.7006
18.83	42.697
18.848	42.6954
18.866	42.695
18.884	42.6937
18.902	42.6906
18.92	42.6838
18.938	42.6727
18.956	42.6557
18.974	42.6325
18.992	42.6022
19.01	42.5654
19.028	42.5219
19.046	42.4729
19.064	42.4196
19.082	42.3633
19.1	42.3064
19.118	42.2502
19.136	42.1978
19.154	42.1501
19.172	42.1107
19.19	42.0799
19.208	42.0608
19.226	42.0534
19.244	42.0595
19.262	42.0786
19.28	42.1111
19.298	42.1566
19.316	42.2136
19.334	42.2818
19.352	42.3583
19.37	42.4433
19.388	42.5327
19.406	42.6269
19.424	42.7219
19.442	42.8175
19.46	42.9104
19.478	43.0001
19.496	43.0841
19.514	43.1616
19.532	43.2312
19.55	43.2918
19.568	43.3432
19.586	43.3842
19.604	43.415
19.622	43.4348
19.64	43.444
19.658	43.4428
19.676	43.4314
19.694	43.4112
19.712	43.382
19.73	43.3464
19.748	43.3041
19.766	43.2583
19.784	43.2092
19.802	43.1595
19.82	43.1105
19.838	43.0634
19.856	43.021
19.874	42.9832
19.892	42.9522
19.91	42.9276
19.928	42.9106
19.946	42.9012
19.964	42.898
19.982	42.9014
20	42.9089
20.018	42.9198
20.036	42.9323
20.054	42.9437
20.072	42.9539
20.09	42.959
20.108	42.9596
20.126	42.9527
20.144	42.9382
20.162	42.9152
20.18	42.8828
20.198	42.8418
20.216	42.7922
20.234	42.7344
20.252	42.6707
20.27	42.6007
20.288	42.5276
20.306	42.4511
20.324	42.374
20.342	42.2979
20.36	42.2233
20.378	42.1531
20.396	42.0868
20.414	42.0273
20.432	41.9743
20.45	41.9291
20.468	41.8923
20.486	41.8639
20.504	41.8447
20.522	41.8346
20.54	41.8338
20.558	41.8422
20.576	41.8596
20.594	41.8859
20.612	41.9208
20.63	41.9637
20.648	42.0145
20.666	42.0717
20.684	42.1356
20.702	42.2046
20.72	42.2779
20.738	42.3549
20.756	42.4328
20.774	42.5124
20.792	42.5898
20.81	42.6649
20.828	42.7358
20.846	42.7992
20.864	42.8559
20.882	42.9017
20.9	42.9369
20.918	42.9596
20.936	42.9679
20.954	42.9624
20.972	42.9415
20.99	42.9055
21.008	42.8547
21.026	42.7889
21.044	42.7091
21.062	42.6171
21.08	42.5122
21.098	42.3982
21.116	42.275
21.134	42.1446
21.152	42.0107
21.17	41.8722
21.188	41.7338
21.206	41.5958
21.224	41.4597
21.242	41.3291
21.26	41.203
21.278	41.0841
21.296	40.9732
21.314	40.8704
21.332	40.7771
21.35	40.6932
21.368	40.6186
21.386	40.5537
21.404	40.498
21.422	40.4511
21.44	40.4132
21.458	40.3828
21.476	40.3594
21.494	40.3428
21.512	40.3313
21.53	40.3253
21.548	40.3237
21.566	40.3257
21.584	40.3315
21.602	40.3402
21.62	40.352
21.638	40.3665
21.656	40.3829
21.674	40.4016
21.692	40.422
21.71	40.4442
21.728	40.4678
21.746	40.4922
21.764	40.5177
21.782	40.5435
21.8	40.5692
21.818	40.5951
21.836	40.6196
21.854	40.6427
21.872	40.664
21.89	40.6825
21.908	40.6986
21.926	40.7113
21.944	40.72
21.962	40.7251
21.98	40.7264
21.998	40.7237
22.016	40.7176
22.034	40.7091
22.052	40.6975
22.07	40.6845
22.088	40.6714
22.106	40.6575
22.124	40.6456
22.142	40.636
22.16	40.629
22.178	40.6273
22.196	40.6302
22.214	40.6389
22.232	40.6551
22.25	40.6783
22.268	40.7085
22.286	40.7462
22.304	40.7912
22.322	40.8414
22.34	40.8974
22.358	40.9579
22.376	41.0194
22.394	41.0832
22.412	41.1466
22.43	41.2055
22.448	41.2621
22.466	41.3123
22.484	41.3532
22.502	41.3865
22.52	41.4085
22.538	41.4176
22.556	41.4148
22.574	41.3983
22.592	41.3672
22.61	41.3225
22.628	41.2644
22.646	41.192
22.664	41.107
22.682	41.0114
22.7	40.904
22.718	40.7873
22.736	40.6641
22.754	40.5328
22.772	40.3965
22.79	40.2579
22.808	40.1156
22.826	39.9723
22.844	39.8302
22.862	39.6881
22.88	39.5478
22.898	39.4104
22.916	39.2753
22.934	39.1433
22.952	39.0147
22.97	38.8892
22.988	38.7671
23.006	38.6485
23.024	38.5331
23.042	38.4211
23.06	38.3124
23.078	38.207
23.096	38.1047
23.114	38.0052
23.132	37.9088
23.15	37.8165
23.168	37.7277
23.186	37.643
23.204	37.5635
23.222	37.4886
23.24	37.4191
23.258	37.3573
23.276	37.3028
23.294	37.256
23.312	37.2191
23.33	37.1916
23.348	37.1741
23.366	37.1688
23.384	37.176
23.402	37.1952
23.42	37.2274
23.438	37.2728
23.456	37.3309
23.474	37.4022
23.492	37.4869
23.51	37.5847
23.528	37.6944
23.546	37.8161
23.564	37.9497
23.582	38.0934
23.6	38.2467
23.618	38.4102
23.636	38.581
23.654	38.7579
23.672	38.9422
23.69	39.1305
23.708	39.321
23.726	39.5154
23.744	39.7105
23.762	39.9034
23.78	40.0966
23.798	40.2867
23.816	40.47
23.834	40.6489
23.852	40.8208
23.87	40.9815
23.888	41.1328
23.906	41.2733
23.924	41.3982
23.942	41.5081
23.96	41.6033
23.978	41.6795
23.996	41.7354
24.014	41.7728
24.032	41.789
24.05	41.7824
24.068	41.7541
24.086	41.704
24.104	41.6317
24.122	41.5367
24.14	41.4206
24.158	41.2852
24.176	41.1285
24.194	40.9528
24.212	40.7629
24.23	40.5584
24.248	40.3388
24.266	40.1104
24.284	39.8762
24.302	39.6321
24.32	39.3857
24.338	39.1435
24.356	38.8994
24.374	38.6603
24.392	38.4366
24.41	38.2254
24.428	38.0273
24.446	37.8524
24.464	37.7042
24.482	37.578
24.5	37.4808
24.518	37.4189
24.536	37.3888
24.554	37.3915
24.572	37.4297
24.59	37.5048
24.608	37.6144
24.626	37.7551
24.644	37.9269
24.662	38.1319
24.68	38.3619
24.698	38.6097
24.716	38.8827
24.734	39.1731
24.752	39.468
24.77	39.7688
24.788	40.0775
24.806	40.3812
24.824	40.671
24.842	40.9557
24.86	41.2268
24.878	41.4736
24.896	41.6987
24.914	41.9026
24.932	42.0792
24.95	42.2245
24.968	42.341
24.986	42.4302
25.004	42.4925
25.022	42.5261
25.04	42.5333
25.058	42.5186
25.076	42.4835
25.094	42.4254
25.112	42.3489
25.13	42.2586
25.148	42.1514
25.166	42.0293
25.184	41.898
25.202	41.7597
25.22	41.611
25.238	41.4565
25.256	41.301
25.274	41.1429
25.292	40.9822
25.31	40.8218
25.328	40.6636
25.346	40.506
25.364	40.3496
25.382	40.1949
25.4	40.0416
25.418	39.8898
25.436	39.7406
25.454	39.5946
25.472	39.4504
25.49	39.3096
25.508	39.1744
25.526	39.0436
25.544	38.9163
25.562	38.798
25.58	38.6938
25.598	38.5992
25.616	38.5166
25.634	38.4528
25.652	38.4109
25.67	38.3853
25.688	38.3823
25.706	38.409
25.724	38.4664
25.742	38.5513
25.76	38.6665
25.778	38.8154
25.796	39.0018
25.814	39.2195
25.832	39.4597
25.85	39.7186
25.868	40.0073
25.886	40.3102
25.904	40.6089
25.922	40.9042
25.94	41.2066
25.958	41.4906
25.976	41.7302
25.994	41.9379
26.012	42.1141
26.03	42.2342
26.048	42.2768
26.066	42.2574
26.084	42.1716
26.102	42.005
26.12	41.7471
26.138	41.4053
26.156	40.9815
26.174	40.4762
26.192	39.8835
26.21	39.2005
26.228	38.4475
26.246	37.6454
26.264	36.786
26.282	35.8631
26.3	34.9084
26.318	33.9526
26.336	32.9791
26.354	31.9878
26.372	31.0085
26.39	30.0681
26.408	29.1454
26.426	28.2469
26.444	27.3983
26.462	26.6215
26.48	25.9035
26.498	25.2434
26.516	24.6467
26.534	24.1181
26.552	23.6537
26.57	23.2535
26.588	22.9189
26.606	22.6507
26.624	22.448
26.642	22.3102
26.66	22.2368
26.678	22.2264
26.696	22.2777
26.714	22.3936
26.732	22.5776
26.75	22.8286
26.768	23.1406
26.786	23.5237
26.804	23.9897
26.822	24.5428
26.84	25.1723
26.858	25.8873
26.876	26.6978
26.894	27.6094
26.912	28.6138
26.93	29.714
26.948	30.9135
26.966	32.2993
26.984	33.9938
27.002	35.6787
27.02	37.0089
27.028	37.3578