File: Bakgrunnsmateriale/MATLAB/FTIR/ftir_data/subBb/Mapping_121/C-4040-8_t52.asc
PE IR       SPECTRUM    SPECTRUM    ASCII       PEDS        1.60
  -1
C-A932~1.ASC
17/03/27
18:46:13.00
17/03/27
18:46:39.00
tln
$C-4040-8_t0052$<tbV0>[-5.2,-2.6,8.0,0.0,27,1,0]
27.028
64

2002,4.07
MIRTGS : RIGHTBACK : INTERNAL 2
MIR : ON : INTERNAL 2
OPTKBR

0.200000
8
8.000000
FILLER
RATIO
SPECTRUM
UNLOCKED 256

DOUBLE
64
COMBINED
1
0
0

0.002000
RATIO

1
0
TRUE
51149
0
LEFT NOT FITTED RIGHT NOT FITTED 0
NONE
NONE
15600
12
4.427000
51148
TRUE
1 0 8 72 0 0 0 0

15798

#HDR
-1
-1
#GR
µM
%T
2.38419e-05
0.0
2.000000
0.002000
12515
8
114.346
43.5126
#DATA
2.000000	 64.9157
2.018000	 64.6103
2.036000	 64.6977
2.054000	 64.3626
2.072000	 65.2432
2.090000	 64.939
2.108000	 64.5368
2.126000	 64.5256
2.144000	 64.6036
2.162000	 64.9551
2.180000	 65.0204
2.198000	 64.5533
2.216000	 64.6284
2.234000	 65.2047
2.252000	 65.1432
2.270000	 65.8752
2.288000	 66.9822
2.306000	 59.4969
2.324000	 65.4399
2.342000	 65.6193
2.360000	 64.7928
2.378000	 65.2313
2.396000	 64.8976
2.414000	 65.038
2.432000	 64.9079
2.450000	 65.0995
2.468000	 65.0979
2.486000	 64.9839
2.504000	 65.1041
2.522000	 64.7562
2.540000	 65.3721
2.558000	 65.136
2.576000	 65.1511
2.594000	 65.0553
2.612000	 65.1476
2.630000	 65.1573
2.648000	 65.4004
2.666000	 65.1206
2.684000	 65.3129
2.702000	 64.9995
2.720000	 65.1668
2.738000	 65.1783
2.756000	 65.0169
2.774000	 65.2036
2.792000	 65.1595
2.810000	 65.1906
2.828000	 65.0237
2.846000	 65.0062
2.864000	 65.0414
2.882000	 65.5731
2.900000	 65.269
2.918000	 65.3472
2.936000	 65.4102
2.954000	 65.4196
2.972000	 65.1381
2.990000	 65.2642
3.008000	 65.2082
3.026000	 65.3012
3.044000	 64.999
3.062000	 65.1987
3.080000	 65.2052
3.098000	 65.3798
3.116000	 65.0891
3.134000	 65.3033
3.152000	 65.5769
3.170000	 65.2956
3.188000	 65.5107
3.206000	 65.1702
3.224000	 65.3229
3.242000	 65.3941
3.260000	 65.2643
3.278000	 65.2362
3.296000	 65.1463
3.314000	 65.2755
3.332000	 65.2884
3.350000	 65.1465
3.368000	 65.3783
3.386000	 65.1276
3.404000	 65.2388
3.422000	 64.9224
3.440000	 65.1692
3.458000	 65.036
3.476000	 65.2245
3.494000	 65.1997
3.512000	 65.0422
3.530000	 65.1496
3.548000	 65.2796
3.566000	 65.1484
3.584000	 65.1975
3.602000	 65.3196
3.620000	 65.4031
3.638000	 65.1576
3.656000	 65.2495
3.674000	 65.0854
3.692000	 65.1662
3.710000	 65.2365
3.728000	 65.3018
3.746000	 65.1769
3.764000	 65.32
3.782000	 65.3319
3.800000	 65.2816
3.818000	 65.3972
3.836000	 65.3902
3.854000	 65.3757
3.872000	 65.227
3.890000	 65.2749
3.908000	 65.3782
3.926000	 65.5412
3.944000	 65.388
3.962000	 65.3224
3.980000	 65.1564
3.998000	 65.1258
4.016000	 65.1726
4.034000	 65.3067
4.052000	 65.2239
4.070000	 65.4331
4.088000	 65.3898
4.106000	 65.2541
4.124000	 65.594
4.141999	 65.5068
4.160000	 65.3727
4.178000	 65.3833
4.196000	 65.3242
4.214000	 65.2774
4.232000	 65.3983
4.250000	 65.3003
4.268000	 65.2942
4.286000	 65.3549
4.304000	 65.2709
4.322000	 65.2676
4.340000	 65.3363
4.358000	 65.3388
4.375999	 65.3295
4.394000	 65.256
4.412000	 65.2729
4.430000	 65.2598
4.448000	 65.4729
4.466000	 65.3871
4.484000	 65.3882
4.502000	 65.2137
4.520000	 65.3143
4.538000	 65.2131
4.556000	 65.1718
4.574000	 65.3413
4.592000	 65.477
4.609999	 65.3229
4.628000	 65.2451
4.646000	 64.9883
4.664000	 65.3072
4.682000	 65.2361
4.700000	 65.2692
4.718000	 65.3428
4.736000	 65.3659
4.754000	 65.3963
4.772000	 65.3637
4.790000	 65.3486
4.808000	 65.3916
4.826000	 65.1891
4.843999	 65.022
4.862000	 65.3258
4.880000	 65.4268
4.898000	 65.3107
4.916000	 65.3518
4.934000	 65.2343
4.952000	 65.1992
4.970000	 65.304
4.988000	 65.3784
5.006000	 65.3547
5.024000	 65.2989
5.042000	 65.3461
5.060000	 65.3525
5.077999	 65.3038
5.096000	 65.1977
5.114000	 65.2249
5.132000	 65.307
5.150000	 65.3341
5.168000	 65.4236
5.186000	 65.3422
5.204000	 65.2822
5.222000	 65.3277
5.240000	 65.3564
5.258000	 65.2195
5.276000	 65.2916
5.294000	 65.3661
5.312000	 65.3971
5.330000	 65.37
5.348000	 65.2161
5.366000	 65.269
5.384000	 65.2186
5.402000	 65.2904
5.420000	 65.416
5.438000	 65.3782
5.456000	 65.372
5.474000	 65.3387
5.492000	 65.3104
5.510000	 65.4436
5.528000	 65.3579
5.546000	 65.2525
5.564000	 65.1589
5.582000	 65.2274
5.600000	 65.2269
5.618000	 65.2708
5.636000	 65.316
5.654000	 65.289
5.672000	 65.1691
5.690000	 65.1364
5.708000	 65.1224
5.726000	 65.139
5.744000	 65.1494
5.762000	 64.9766
5.780000	 64.9296
5.798000	 65.0801
5.816000	 65.1432
5.834000	 65.0004
5.852000	 65.0283
5.870000	 65.2389
5.888000	 65.3659
5.906000	 65.2833
5.923999	 65.1701
5.942000	 65.2062
5.960000	 65.3464
5.978000	 65.2818
5.996000	 65.2831
6.014000	 65.2513
6.032000	 65.1778
6.050000	 65.2544
6.068000	 65.2683
6.086000	 65.1852
6.104000	 65.1764
6.122000	 65.1627
6.140000	 65.1507
6.158000	 65.185
6.176000	 65.2596
6.194000	 65.2484
6.212000	 65.176
6.230000	 65.1488
6.248000	 65.2066
6.266000	 65.2031
6.284000	 65.1577
6.302000	 65.1721
6.320000	 65.2793
6.338000	 65.4091
6.356000	 65.3861
6.374000	 65.2539
6.392000	 65.1007
6.410000	 65.0348
6.428000	 65.1419
6.446000	 65.2546
6.464000	 65.3074
6.482000	 65.2668
6.500000	 65.1613
6.518000	 65.1113
6.536000	 65.0881
6.554000	 65.0678
6.572000	 65.0761
6.590000	 65.1408
6.608000	 65.1617
6.626000	 65.1715
6.644000	 65.2221
6.662000	 65.2494
6.680000	 65.2427
6.698000	 65.2226
6.716000	 65.1727
6.734000	 65.1315
6.752000	 65.1777
6.770000	 65.1965
6.788000	 65.1355
6.806000	 65.1607
6.824000	 65.2096
6.842000	 65.14
6.860000	 65.0318
6.878000	 64.9479
6.896000	 64.9204
6.914000	 65.0089
6.932000	 65.1396
6.950000	 65.1724
6.968000	 65.1329
6.986000	 65.1366
7.004000	 65.1363
7.022000	 65.0962
7.040000	 65.0714
7.058000	 65.0693
7.076000	 65.0864
7.094000	 65.1024
7.112000	 65.1381
7.130000	 65.22
7.148000	 65.251
7.166000	 65.1876
7.184000	 65.1252
7.202000	 65.1164
7.220000	 65.1199
7.238000	 65.1182
7.256000	 65.1739
7.274000	 65.2538
7.292000	 65.2586
7.310000	 65.2043
7.328000	 65.1507
7.346000	 65.1255
7.364000	 65.1396
7.382000	 65.1596
7.400000	 65.1701
7.418000	 65.1674
7.436000	 65.1148
7.454000	 65.046
7.472000	 65.0346
7.490000	 65.043
7.508000	 65.0357
7.526000	 65.0719
7.544000	 65.1385
7.562000	 65.1343
7.580000	 65.0677
7.598000	 65.0356
7.616000	 65.051
7.634000	 65.0649
7.652000	 65.0634
7.670000	 65.0641
7.688000	 65.0824
7.706000	 65.1061
7.724000	 65.0924
7.742000	 65.0371
7.760000	 65.0181
7.778000	 65.086
7.796000	 65.1537
7.814000	 65.1038
7.832000	 64.9769
7.850000	 64.9154
7.868000	 64.9556
7.886000	 65.017
7.904000	 65.0408
7.922000	 65.0343
7.940000	 65.0282
7.958000	 65.0505
7.976000	 65.1005
7.994000	 65.1516
8.012000	 65.1922
8.030000	 65.2212
8.048000	 65.2187
8.065999	 65.1798
8.084000	 65.138
8.102000	 65.1071
8.120000	 65.0545
8.138000	 64.9766
8.155999	 64.9216
8.173999	 64.9041
8.192000	 64.8846
8.210000	 64.8612
8.228000	 64.8912
8.246000	 64.9836
8.263999	 65.063
8.282000	 65.0784
8.300000	 65.0735
8.318000	 65.1062
8.336000	 65.1706
8.353999	 65.2243
8.372000	 65.2449
8.390000	 65.228
8.408000	 65.1599
8.426000	 65.0395
8.443999	 64.9216
8.462000	 64.8846
8.480000	 64.9434
8.498000	 65.036
8.516000	 65.1041
8.533999	 65.1505
8.552000	 65.2055
8.570000	 65.2614
8.588000	 65.2783
8.606000	 65.2445
8.624000	 65.195
8.641999	 65.1712
8.660000	 65.1908
8.678000	 65.2529
8.696000	 65.3411
8.714000	 65.4107
8.731999	 65.4
8.750000	 65.2806
8.768000	 65.0891
8.786000	 64.9031
8.804000	 64.7945
8.821999	 64.7909
8.840000	 64.8548
8.858000	 64.9047
8.876000	 64.8784
8.894000	 64.7846
8.911999	 64.6909
8.930000	 64.665
8.948000	 64.7248
8.966000	 64.8392
8.984000	 64.9523
9.001999	 65.0177
9.020000	 65.0289
9.038000	 65.0297
9.056000	 65.0753
9.074000	 65.1709
9.092000	 65.2462
9.109999	 65.2087
9.128000	 65.0295
9.146000	 64.7838
9.164000	 64.6044
9.182000	 64.5867
9.199999	 64.7252
9.218000	 64.9263
9.236000	 65.0792
9.254000	 65.1292
9.272000	 65.0949
9.289999	 65.0313
9.308000	 64.9801
9.326000	 64.952
9.344000	 64.9391
9.362000	 64.9373
9.379999	 64.948
9.398000	 64.9643
9.416000	 64.9641
9.434000	 64.9233
9.452000	 64.8382
9.469999	 64.7367
9.488000	 64.6599
9.506000	 64.6306
9.524000	 64.6373
9.542000	 64.6535
9.560000	 64.6728
9.577999	 64.7159
9.596000	 64.8057
9.614000	 64.9341
9.632000	 65.0574
9.650000	 65.125
9.667999	 65.1119
9.686000	 65.0288
9.704000	 64.9086
9.722000	 64.7814
9.740000	 64.6624
9.757999	 64.5524
9.776000	 64.4484
9.794000	 64.3567
9.812000	 64.2988
9.830000	 64.307
9.847999	 64.3998
9.866000	 64.5541
9.884000	 64.7016
9.902000	 64.7678
9.920000	 64.7283
9.937999	 64.6335
9.956000	 64.5714
9.974000	 64.5986
9.992000	 64.7008
10.01	64.8102
10.028	64.862
10.046	64.8449
10.064	64.7969
10.082	64.7662
10.1	64.7752
10.118	64.8115
10.136	64.8481
10.154	64.8656
10.172	64.8615
10.19	64.8448
10.208	64.824
10.226	64.8023
10.244	64.7781
10.262	64.7483
10.28	64.7127
10.298	64.6747
10.316	64.641
10.334	64.6195
10.352	64.6151
10.37	64.6261
10.388	64.6454
10.406	64.6642
10.424	64.6745
10.442	64.6704
10.46	64.6499
10.478	64.613
10.496	64.5638
10.514	64.5113
10.532	64.4708
10.55	64.4585
10.568	64.4852
10.586	64.5484
10.604	64.6322
10.622	64.7118
10.64	64.7669
10.658	64.7902
10.676	64.7903
10.694	64.7831
10.712	64.7816
10.73	64.7856
10.748	64.7844
10.766	64.7653
10.784	64.7246
10.802	64.6721
10.82	64.6241
10.838	64.5959
10.856	64.5915
10.874	64.6044
10.892	64.6223
10.91	64.6332
10.928	64.6327
10.946	64.625
10.964	64.619
10.982	64.622
11	64.6346
11.018	64.6482
11.036	64.6502
11.054	64.6295
11.072	64.5836
11.09	64.52
11.108	64.4526
11.126	64.3971
11.144	64.3631
11.162	64.3527
11.18	64.3618
11.198	64.384
11.216	64.4146
11.234	64.4509
11.252	64.4905
11.27	64.5296
11.288	64.5612
11.306	64.5776
11.324	64.5724
11.342	64.544
11.36	64.4977
11.378	64.4448
11.396	64.3981
11.414	64.3693
11.432	64.3652
11.45	64.3855
11.468	64.4242
11.486	64.4729
11.504	64.5231
11.522	64.5686
11.54	64.6062
11.558	64.6345
11.576	64.6517
11.594	64.6556
11.612	64.643
11.63	64.6133
11.648	64.5703
11.666	64.5237
11.684	64.487
11.702	64.4731
11.72	64.4899
11.738	64.5359
11.756	64.5998
11.774	64.664
11.792	64.7098
11.81	64.7255
11.828	64.7085
11.846	64.6655
11.864	64.6088
11.882	64.5509
11.9	64.5016
11.918	64.4645
11.936	64.4376
11.954	64.416
11.972	64.3944
11.99	64.3705
12.008	64.347
12.026	64.3309
12.044	64.3311
12.062	64.3536
12.08	64.3989
12.098	64.46
12.116	64.5234
12.134	64.5734
12.152	64.597
12.17	64.5891
12.188	64.5544
12.206	64.5056
12.224	64.4584
12.242	64.4259
12.26	64.4135
12.278	64.4186
12.296	64.4318
12.314	64.442
12.332	64.4399
12.35	64.4215
12.368	64.3878
12.386	64.3446
12.404	64.2997
12.422	64.2607
12.44	64.2332
12.458	64.2193
12.476	64.2174
12.494	64.2226
12.512	64.2278
12.53	64.2251
12.548	64.2075
12.566	64.1712
12.584	64.1177
12.602	64.0542
12.62	63.9922
12.638	63.9445
12.656	63.922
12.674	63.9295
12.692	63.9635
12.71	64.0141
12.728	64.0664
12.746	64.1053
12.764	64.1194
12.782	64.1044
12.8	64.0642
12.818	64.0097
12.836	63.9565
12.854	63.92
12.872	63.9113
12.89	63.9357
12.908	63.9906
12.926	64.0671
12.944	64.1522
12.962	64.2318
12.98	64.2933
12.998	64.3288
13.016	64.3352
13.034	64.3144
13.052	64.2713
13.07	64.2125
13.088	64.144
13.106	64.0701
13.124	63.9937
13.142	63.9176
13.16	63.8454
13.178	63.7826
13.196	63.7363
13.214	63.7138
13.232	63.7202
13.25	63.7563
13.268	63.8168
13.286	63.8909
13.304	63.9641
13.322	64.0212
13.34	64.0499
13.358	64.0443
13.376	64.0065
13.394	63.9459
13.412	63.877
13.43	63.8154
13.448	63.7737
13.466	63.7587
13.484	63.7706
13.502	63.8037
13.52	63.8489
13.538	63.8961
13.556	63.9371
13.574	63.9674
13.592	63.9865
13.61	63.9968
13.628	64.0022
13.646	64.0064
13.664	64.0113
13.682	64.0172
13.7	64.0218
13.718	64.0215
13.736	64.012
13.754	63.9909
13.772	63.9574
13.79	63.9126
13.808	63.86
13.826	63.8045
13.844	63.7513
13.862	63.7054
13.88	63.6707
13.898	63.6489
13.916	63.64
13.934	63.642
13.952	63.6513
13.97	63.6633
13.988	63.673
14.006	63.6759
14.024	63.6689
14.042	63.6507
14.06	63.6224
14.078	63.587
14.096	63.549
14.114	63.5138
14.132	63.4868
14.15	63.4724
14.168	63.4742
14.186	63.4935
14.204	63.5294
14.222	63.5788
14.24	63.637
14.258	63.6988
14.276	63.7587
14.294	63.8119
14.312	63.8551
14.33	63.8868
14.348	63.9067
14.366	63.9165
14.384	63.9184
14.402	63.9145
14.42	63.9062
14.438	63.8943
14.456	63.8787
14.474	63.8579
14.492	63.8302
14.51	63.7936
14.528	63.7478
14.546	63.6935
14.564	63.6328
14.582	63.5692
14.6	63.5068
14.618	63.4505
14.636	63.4044
14.654	63.371
14.672	63.3508
14.69	63.3424
14.708	63.3426
14.726	63.3468
14.744	63.3492
14.762	63.3447
14.78	63.3294
14.798	63.3011
14.816	63.2593
14.834	63.2059
14.852	63.1442
14.87	63.079
14.888	63.0152
14.906	62.9577
14.924	62.9112
14.942	62.8788
14.96	62.8622
14.978	62.862
14.996	62.8779
15.014	62.9087
15.032	62.9523
15.05	63.0064
15.068	63.0686
15.086	63.1365
15.104	63.2075
15.122	63.2789
15.14	63.3479
15.158	63.4116
15.176	63.4673
15.194	63.5124
15.212	63.5445
15.23	63.5624
15.248	63.5657
15.266	63.5543
15.284	63.5298
15.302	63.4946
15.32	63.451
15.338	63.4014
15.356	63.3478
15.374	63.2926
15.392	63.2366
15.41	63.1805
15.428	63.1246
15.446	63.0686
15.464	63.0124
15.482	62.9563
15.5	62.9005
15.518	62.8457
15.536	62.7929
15.554	62.7434
15.572	62.6983
15.59	62.6594
15.608	62.6274
15.626	62.6032
15.644	62.5875
15.662	62.5802
15.68	62.5814
15.698	62.5912
15.716	62.6094
15.734	62.6358
15.752	62.6699
15.77	62.7114
15.788	62.7592
15.806	62.8125
15.824	62.87
15.842	62.9297
15.86	62.989
15.878	63.0458
15.896	63.0978
15.914	63.1428
15.932	63.1792
15.95	63.206
15.968	63.2224
15.986	63.229
16.004	63.2267
16.022	63.2167
16.04	63.2014
16.058	63.1829
16.076	63.163
16.094	63.1446
16.112	63.1297
16.13	63.12
16.148	63.1175
16.166	63.1233
16.184	63.1377
16.202	63.1613
16.22	63.193
16.238	63.2316
16.256	63.2761
16.274	63.3234
16.292	63.3708
16.31	63.4159
16.328	63.4544
16.346	63.4837
16.364	63.5016
16.382	63.505
16.4	63.4932
16.418	63.4653
16.436	63.4217
16.454	63.3641
16.472	63.294
16.49	63.2146
16.508	63.129
16.526	63.0394
16.544	62.9497
16.562	62.8618
16.58	62.7773
16.598	62.6982
16.616	62.6247
16.634	62.5572
16.652	62.495
16.67	62.4374
16.688	62.384
16.706	62.3334
16.724	62.2855
16.742	62.2399
16.76	62.1965
16.778	62.1553
16.796	62.1171
16.814	62.0822
16.832	62.0508
16.85	62.024
16.868	62.0016
16.886	61.9838
16.904	61.9707
16.922	61.9621
16.94	61.9574
16.958	61.9563
16.976	61.9585
16.994	61.9635
17.012	61.9709
17.03	61.9805
17.048	61.9921
17.066	62.0054
17.084	62.0202
17.102	62.036
17.12	62.0525
17.138	62.0691
17.156	62.0853
17.174	62.1008
17.192	62.1145
17.21	62.1261
17.228	62.1349
17.246	62.1403
17.264	62.1422
17.282	62.1403
17.3	62.1348
17.318	62.1257
17.336	62.1137
17.354	62.0989
17.372	62.0819
17.39	62.0631
17.408	62.0429
17.426	62.022
17.444	62.0005
17.462	61.9795
17.48	61.9593
17.498	61.9405
17.516	61.9238
17.534	61.9097
17.552	61.8993
17.57	61.8932
17.588	61.8925
17.606	61.8975
17.624	61.9087
17.642	61.926
17.66	61.9493
17.678	61.9778
17.696	62.0111
17.714	62.0474
17.732	62.0856
17.75	62.1243
17.768	62.1612
17.786	62.1955
17.804	62.225
17.822	62.2493
17.84	62.2665
17.858	62.2767
17.876	62.279
17.894	62.2735
17.912	62.2602
17.93	62.2396
17.948	62.2121
17.966	62.1784
17.984	62.1387
18.002	62.094
18.02	62.0445
18.038	61.9906
18.056	61.9328
18.074	61.8712
18.092	61.8067
18.11	61.7395
18.128	61.6709
18.146	61.6012
18.164	61.5321
18.182	61.4645
18.2	61.3997
18.218	61.3393
18.236	61.2842
18.254	61.2367
18.272	61.1972
18.29	61.1673
18.308	61.1472
18.326	61.1377
18.344	61.1387
18.362	61.15
18.38	61.1712
18.398	61.2016
18.416	61.24
18.434	61.2853
18.452	61.3361
18.47	61.3913
18.488	61.4487
18.506	61.5076
18.524	61.5657
18.542	61.6227
18.56	61.6764
18.578	61.7265
18.596	61.7719
18.614	61.8122
18.632	61.8466
18.65	61.8752
18.668	61.8978
18.686	61.9148
18.704	61.9267
18.722	61.9339
18.74	61.9377
18.758	61.9383
18.776	61.9375
18.794	61.9355
18.812	61.9335
18.83	61.9318
18.848	61.9314
18.866	61.932
18.884	61.9336
18.902	61.9353
18.92	61.9366
18.938	61.9362
18.956	61.9324
18.974	61.9239
18.992	61.9088
19.01	61.8861
19.028	61.854
19.046	61.8124
19.064	61.7602
19.082	61.6982
19.1	61.6264
19.118	61.5461
19.136	61.4592
19.154	61.3669
19.172	61.2723
19.19	61.1766
19.208	61.0836
19.226	60.9939
19.244	60.911
19.262	60.8348
19.28	60.7684
19.298	60.7113
19.316	60.6647
19.334	60.6285
19.352	60.6025
19.37	60.5869
19.388	60.58
19.406	60.582
19.424	60.5913
19.442	60.608
19.46	60.6308
19.478	60.6596
19.496	60.6938
19.514	60.7332
19.532	60.7777
19.55	60.8269
19.568	60.8807
19.586	60.9394
19.604	61.0024
19.622	61.0695
19.64	61.1404
19.658	61.2141
19.676	61.2906
19.694	61.3675
19.712	61.4451
19.73	61.5202
19.748	61.5932
19.766	61.6611
19.784	61.7236
19.802	61.7788
19.82	61.8255
19.838	61.8633
19.856	61.8908
19.874	61.9084
19.892	61.9151
19.91	61.9112
19.928	61.8974
19.946	61.8733
19.964	61.8407
19.982	61.7992
20	61.7507
20.018	61.6958
20.036	61.6353
20.054	61.5708
20.072	61.502
20.09	61.4306
20.108	61.3565
20.126	61.2809
20.144	61.2037
20.162	61.1258
20.18	61.0472
20.198	60.9684
20.216	60.8899
20.234	60.8115
20.252	60.7339
20.27	60.6571
20.288	60.5818
20.306	60.508
20.324	60.4363
20.342	60.3671
20.36	60.3007
20.378	60.2381
20.396	60.1791
20.414	60.1251
20.432	60.0759
20.45	60.032
20.468	59.9937
20.486	59.9609
20.504	59.9339
20.522	59.9126
20.54	59.8965
20.558	59.8857
20.576	59.8794
20.594	59.8774
20.612	59.8791
20.63	59.8831
20.648	59.8897
20.666	59.8971
20.684	59.9054
20.702	59.9133
20.72	59.9199
20.738	59.9254
20.756	59.9282
20.774	59.9288
20.792	59.926
20.81	59.9195
20.828	59.9096
20.846	59.896
20.864	59.8789
20.882	59.8592
20.9	59.8364
20.918	59.8121
20.936	59.7869
20.954	59.761
20.972	59.7364
20.99	59.7126
21.008	59.6917
21.026	59.6743
21.044	59.6608
21.062	59.6532
21.08	59.6509
21.098	59.6553
21.116	59.6669
21.134	59.6857
21.152	59.7123
21.17	59.7465
21.188	59.7877
21.206	59.8362
21.224	59.8909
21.242	59.9502
21.26	60.0146
21.278	60.0814
21.296	60.1505
21.314	60.2206
21.332	60.2887
21.35	60.356
21.368	60.4183
21.386	60.4752
21.404	60.5255
21.422	60.5653
21.44	60.5956
21.458	60.6137
21.476	60.6181
21.494	60.6093
21.512	60.5852
21.53	60.546
21.548	60.4917
21.566	60.4218
21.584	60.3366
21.602	60.238
21.62	60.1251
21.638	60.0005
21.656	59.8671
21.674	59.7235
21.692	59.5753
21.71	59.423
21.728	59.2679
21.746	59.1159
21.764	58.9654
21.782	58.8204
21.8	58.6843
21.818	58.5556
21.836	58.4389
21.854	58.3346
21.872	58.2428
21.89	58.1653
21.908	58.1018
21.926	58.0518
21.944	58.0156
21.962	57.9929
21.98	57.9806
21.998	57.9796
22.016	57.9876
22.034	58.0004
22.052	58.0196
22.07	58.0412
22.088	58.062
22.106	58.0837
22.124	58.1014
22.142	58.1141
22.16	58.1222
22.178	58.1232
22.196	58.117
22.214	58.1039
22.232	58.0833
22.25	58.055
22.268	58.0214
22.286	57.9833
22.304	57.9404
22.322	57.8973
22.34	57.8536
22.358	57.8107
22.376	57.7746
22.394	57.7435
22.412	57.7203
22.43	57.7101
22.448	57.7108
22.466	57.7256
22.484	57.7575
22.502	57.8052
22.52	57.87
22.538	57.9532
22.556	58.054
22.574	58.1716
22.592	58.3067
22.61	58.4582
22.628	58.623
22.646	58.8025
22.664	58.9939
22.682	59.1923
22.7	59.4001
22.718	59.613
22.736	59.8257
22.754	60.041
22.772	60.2541
22.79	60.4608
22.808	60.6634
22.826	60.8579
22.844	61.0411
22.862	61.2151
22.88	61.3774
22.898	61.5269
22.916	61.6644
22.934	61.7895
22.952	61.9014
22.97	62.0007
22.988	62.089
23.006	62.1663
23.024	62.2326
23.042	62.2895
23.06	62.337
23.078	62.3752
23.096	62.4051
23.114	62.4272
23.132	62.4409
23.15	62.4457
23.168	62.4415
23.186	62.4284
23.204	62.4056
23.222	62.374
23.24	62.3328
23.258	62.2799
23.276	62.2163
23.294	62.1411
23.312	62.0511
23.33	61.9465
23.348	61.8275
23.366	61.6925
23.384	61.5403
23.402	61.3727
23.42	61.1926
23.438	60.9989
23.456	60.793
23.474	60.5801
23.492	60.3601
23.51	60.133
23.528	59.9049
23.546	59.6759
23.564	59.4453
23.582	59.2215
23.6	59.0064
23.618	58.7973
23.636	58.6037
23.654	58.4301
23.672	58.2723
23.69	58.1369
23.708	58.0286
23.726	57.9442
23.744	57.886
23.762	57.8564
23.78	57.8547
23.798	57.8798
23.816	57.9315
23.834	58.0112
23.852	58.1158
23.87	58.2418
23.888	58.3906
23.906	58.5606
23.924	58.7477
23.942	58.9522
23.96	59.174
23.978	59.4094
23.996	59.6572
24.014	59.9185
24.032	60.1912
24.05	60.4738
24.068	60.7677
24.086	61.0709
24.104	61.382
24.122	61.7026
24.14	62.0303
24.158	62.3623
24.176	62.7007
24.194	63.0433
24.212	63.3851
24.23	63.7272
24.248	64.0699
24.266	64.4037
24.284	64.724
24.302	65.0365
24.32	65.3315
24.338	65.6
24.356	65.848
24.374	66.0706
24.392	66.2592
24.41	66.4144
24.428	66.5376
24.446	66.6251
24.464	66.6745
24.482	66.6878
24.5	66.666
24.518	66.609
24.536	66.5136
24.554	66.387
24.572	66.2378
24.59	66.0606
24.608	65.8591
24.626	65.6479
24.644	65.431
24.662	65.1998
24.68	64.9739
24.698	64.771
24.716	64.5794
24.734	64.4071
24.752	64.2705
24.77	64.1669
24.788	64.0937
24.806	64.0699
24.824	64.1076
24.842	64.1942
24.86	64.342
24.878	64.5671
24.896	64.863
24.914	65.2311
24.932	65.686
24.95	66.2347
24.968	66.8675
24.986	67.5954
25.004	68.4304
25.022	69.3703
25.04	70.412
25.058	71.557
25.076	72.8094
25.094	74.1696
25.112	75.6239
25.13	77.1598
25.148	78.7915
25.166	80.5064
25.184	82.2769
25.202	84.0954
25.22	85.9804
25.238	87.8974
25.256	89.8109
25.274	91.7433
25.292	93.6838
25.31	95.5913
25.328	97.4446
25.346	99.2729
25.364	101.045
25.382	102.722
25.4	104.315
25.418	105.827
25.436	107.232
25.454	108.508
25.472	109.671
25.49	110.716
25.508	111.629
25.526	112.406
25.544	113.055
25.562	113.573
25.58	113.959
25.598	114.21
25.616	114.331
25.634	114.333
25.652	114.217
25.67	113.976
25.688	113.623
25.706	113.178
25.724	112.635
25.742	111.992
25.76	111.268
25.778	110.483
25.796	109.62
25.814	108.688
25.832	107.717
25.85	106.725
25.868	105.687
25.886	104.625
25.904	103.563
25.922	102.505
25.94	101.437
25.958	100.381
25.976	99.3624
25.994	98.3754
26.012	97.4152
26.03	96.4926
26.048	95.6175
26.066	94.7859
26.084	93.9958
26.102	93.2484
26.12	92.547
26.138	91.8968
26.156	91.2841
26.174	90.6934
26.192	90.1255
26.21	89.5933
26.228	89.0684
26.246	88.5211
26.264	87.9582
26.282	87.3904
26.3	86.7848
26.318	86.1096
26.336	85.3833
26.354	84.6057
26.372	83.7443
26.39	82.769
26.408	81.6926
26.426	80.5194
26.444	79.2405
26.462	77.8473
26.48	76.3388
26.498	74.7239
26.516	73.0121
26.534	71.2049
26.552	69.2757
26.57	67.2614
26.588	65.2088
26.606	63.1396
26.624	60.9975
26.642	58.8426
26.66	56.7495
26.678	54.7503
26.696	52.7702
26.714	50.8828
26.732	49.1762
26.75	47.687
26.768	46.3365
26.786	45.1933
26.804	44.3376
26.822	43.8072
26.84	43.5386
26.858	43.5693
26.876	43.9448
26.894	44.6944
26.912	45.7907
26.93	47.225
26.948	48.9915
26.966	51.267
26.984	54.3211
27.002	57.4727
27.02	59.9819
27.028	60.6282