File: Bakgrunnsmateriale/MATLAB/FTIR/ftir_data/subBb/Mapping_121/C-4040-8_t41_cm-1.asc
PE IR       SPECTRUM    SPECTRUM    ASCII       PEDS        1.60
  -1
C-9BE4~1.ASC
17/03/27
17:48:30.00
17/03/27
17:48:30.00
tln
$C-4040-8_t0041$<tbV0>[-5.2,-5.2,8.0,0.0,27,1,0]
370
64

2002,4.07
MIRTGS : RIGHTBACK : INTERNAL 2
MIR : ON : INTERNAL 2
OPTKBR

0.200000
8
8.000000
FILLER
RATIO
SPECTRUM
UNLOCKED 256

DOUBLE
64
COMBINED
1
0
0

1.000000
RATIO

1
0
TRUE
51149
0
LEFT NOT FITTED RIGHT NOT FITTED 0
NONE
NONE
15600
12
4.427000
51148
TRUE
1 0 8 72 0 0 0 0

15798

#HDR
-1
-1
#GR
CM-1
%T
2.38419e-05
0.0
5000
-1.000000
4631
8
79.0084
16.2824
#DATA
5000	63.6328
4996	63.5112
4992	63.6684
4988	63.604
4984	63.3846
4980	63.4085
4976	63.4688
4972	63.5282
4968	63.7909
4964	64.2104
4960	64.506
4956	64.4522
4952	64.1668
4948	63.6536
4944	63.1778
4940	63.2545
4936	63.4201
4932	63.1373
4928	62.9211
4924	63.0865
4920	63.4906
4916	63.6454
4912	63.3677
4908	63.3001
4904	63.5592
4900	63.9496
4896	64.076
4892	63.8157
4888	63.6544
4884	63.3668
4880	63.189
4876	63.5707
4872	63.7099
4868	63.5985
4864	63.855
4860	64.0292
4856	63.7778
4852	63.506
4848	63.6336
4844	63.7198
4840	63.4151
4836	63.2418
4832	63.3426
4828	63.5607
4824	63.7295
4820	63.7533
4816	63.7445
4812	63.6738
4808	63.5083
4804	63.3734
4800	63.3625
4796	63.4206
4792	63.4938
4788	63.6248
4784	63.647
4780	63.4569
4776	63.4046
4772	63.5609
4768	63.7783
4764	63.9813
4760	63.9882
4756	63.8633
4752	63.9252
4748	64.1572
4744	64.1734
4740	63.9963
4736	63.8785
4732	63.7912
4728	63.7114
4724	63.703
4720	63.7065
4716	63.7269
4712	63.7347
4708	63.5888
4704	63.473
4700	63.5931
4696	63.7447
4692	63.6779
4688	63.5862
4684	63.646
4680	63.6475
4676	63.4506
4672	63.3404
4668	63.5537
4664	63.7254
4660	63.7766
4656	63.899
4652	63.8148
4648	63.6602
4644	63.7331
4640	63.9094
4636	64.0272
4632	63.9901
4628	63.8573
4624	63.7656
4620	63.7789
4616	63.7306
4612	63.6758
4608	63.6639
4604	63.6622
4600	63.7417
4596	63.7803
4592	63.8229
4588	63.8525
4584	63.7371
4580	63.6056
4576	63.7165
4572	63.7372
4568	63.3613
4564	63.1025
4560	63.0977
4556	63.0879
4552	63.1368
4548	63.2899
4544	63.3047
4540	63.2043
4536	63.0807
4532	62.8878
4528	62.9126
4524	63.1485
4520	63.3197
4516	63.3574
4512	63.3134
4508	63.237
4504	63.194
4500	63.2026
4496	63.1633
4492	63.0068
4488	62.8025
4484	62.7754
4480	62.9611
4476	62.9471
4472	62.6452
4468	62.5106
4464	62.6065
4460	62.7944
4456	62.9246
4452	62.7219
4448	62.5198
4444	62.6384
4440	62.7892
4436	62.7019
4432	62.4381
4428	62.2524
4424	62.3564
4420	62.488
4416	62.3389
4412	62.1235
4408	62.2182
4404	62.4317
4400	62.4687
4396	62.7707
4392	62.9024
4388	63.3383
4384	62.8617
4380	61.5917
4376	63.1664
4372	64.2563
4368	61.9003
4364	61.3496
4360	67.9719
4356	77.2375
4352	77.6004
4348	68.9994
4344	64.5819
4340	66.5578
4336	66.1959
4332	63.8715
4328	62.8071
4324	62.5342
4320	62.4057
4316	62.5132
4312	62.767
4308	62.6215
4304	62.5834
4300	62.6943
4296	62.5498
4292	62.3833
4288	62.2475
4284	62.155
4280	62.3116
4276	62.5215
4272	62.4879
4268	62.3114
4264	62.3236
4260	62.4342
4256	62.3445
4252	62.3475
4248	62.5216
4244	62.5129
4240	62.5009
4236	62.5349
4232	62.511
4228	62.4906
4224	62.397
4220	62.4231
4216	62.6349
4212	62.7623
4208	62.8138
4204	62.9892
4200	62.8904
4196	62.5189
4192	62.552
4188	62.6352
4184	62.4578
4180	62.4702
4176	62.6136
4172	62.6366
4168	62.8082
4164	63.0658
4160	62.903
4156	62.5734
4152	62.5654
4148	62.8203
4144	63.0482
4140	63.0896
4136	62.9871
4132	62.7747
4128	62.7144
4124	62.8907
4120	62.9038
4116	62.8345
4112	62.8397
4108	62.7956
4104	62.7448
4100	62.7437
4096	62.791
4092	62.7593
4088	62.681
4084	62.8005
4080	62.9483
4076	62.8775
4072	62.7349
4068	62.7271
4064	62.8388
4060	62.8379
4056	62.7333
4052	62.7105
4048	62.735
4044	62.7421
4040	62.8031
4036	62.8861
4032	62.8379
4028	62.6872
4024	62.6334
4020	62.7233
4016	62.8113
4012	62.8002
4008	62.6762
4004	62.6304
4000	62.7209
3996	62.7355
3992	62.6885
3988	62.6123
3984	62.5545
3980	62.6928
3976	62.8009
3972	62.6891
3968	62.6118
3964	62.5896
3960	62.475
3956	62.352
3952	62.3455
3948	62.3831
3944	62.4245
3940	62.5228
3936	62.5327
3932	62.4295
3928	62.3606
3924	62.2911
3920	62.2165
3916	62.233
3912	62.307
3908	62.3845
3904	62.4756
3900	62.5184
3896	62.4958
3892	62.4785
3888	62.4676
3884	62.5133
3880	62.6196
3876	62.5778
3872	62.3128
3868	62.049
3864	61.9372
3860	61.9962
3856	62.1698
3852	62.2477
3848	62.1431
3844	61.9971
3840	61.9889
3836	62.0438
3832	61.9781
3828	61.9346
3824	61.9819
3820	61.9536
3816	61.9772
3812	62.1083
3808	62.0826
3804	61.9426
3800	61.8816
3796	61.8609
3792	61.8683
3788	61.8341
3784	61.7203
3780	61.7141
3776	61.8526
3772	61.974
3768	61.9837
3764	61.9288
3760	61.9335
3756	61.9604
3752	61.8538
3748	61.728
3744	61.7382
3740	61.7375
3736	61.6717
3732	61.6765
3728	61.7646
3724	61.8447
3720	61.7964
3716	61.7061
3712	61.6661
3708	61.6374
3704	61.6956
3700	61.7759
3696	61.7012
3692	61.6039
3688	61.6309
3684	61.6427
3680	61.6307
3676	61.6263
3672	61.5991
3668	61.5923
3664	61.5786
3660	61.6003
3656	61.6613
3652	61.6595
3648	61.5758
3644	61.458
3640	61.4016
3636	61.3971
3632	61.396
3628	61.4225
3624	61.4769
3620	61.5202
3616	61.4765
3612	61.3924
3608	61.3648
3604	61.2985
3600	61.1803
3596	61.181
3592	61.289
3588	61.3283
3584	61.2974
3580	61.2992
3576	61.3578
3572	61.405
3568	61.356
3564	61.2678
3560	61.2506
3556	61.3045
3552	61.2677
3548	61.1307
3544	61.07
3540	61.0901
3536	61.0791
3532	61.0606
3528	61.0812
3524	61.0801
3520	61.0576
3516	61.0538
3512	61.0301
3508	60.9457
3504	60.9077
3500	60.9411
3496	60.8653
3492	60.7485
3488	60.7505
3484	60.8418
3480	60.8762
3476	60.7691
3472	60.6712
3468	60.7161
3464	60.7684
3460	60.748
3456	60.7718
3452	60.8086
3448	60.752
3444	60.653
3440	60.5917
3436	60.5267
3432	60.5131
3428	60.5657
3424	60.5072
3420	60.3781
3416	60.3274
3412	60.3547
3408	60.3493
3404	60.264
3400	60.2465
3396	60.3158
3392	60.2876
3388	60.1571
3384	60.0995
3380	60.1423
3376	60.1831
3372	60.2279
3368	60.295
3364	60.2645
3360	60.1348
3356	60.1183
3352	60.145
3348	60.0713
3344	60.0313
3340	60.0175
3336	60.0084
3332	59.9883
3328	59.904
3324	59.9442
3320	60.0887
3316	60.0982
3312	59.946
3308	59.8449
3304	59.838
3300	59.8298
3296	59.8403
3292	59.8486
3288	59.8669
3284	59.8407
3280	59.7311
3276	59.6691
3272	59.6345
3268	59.5535
3264	59.5361
3260	59.5833
3256	59.6034
3252	59.6022
3248	59.5423
3244	59.499
3240	59.5644
3236	59.5425
3232	59.3824
3228	59.377
3224	59.4597
3220	59.3677
3216	59.2445
3212	59.2237
3208	59.1979
3204	59.1116
3200	59.0963
3196	59.1511
3192	59.1793
3188	59.2458
3184	59.3687
3180	59.468
3176	59.3988
3172	59.1651
3168	58.9474
3164	58.8696
3160	58.883
3156	58.8335
3152	58.788
3148	58.8147
3144	58.7705
3140	58.7571
3136	58.8579
3132	58.8173
3128	58.6666
3124	58.6984
3120	58.8922
3116	59.0297
3112	59.0688
3108	59.0157
3104	58.8736
3100	58.75
3096	58.7156
3092	58.7098
3088	58.6791
3084	58.6418
3080	58.6274
3076	58.6095
3072	58.5598
3068	58.4808
3064	58.4121
3060	58.3818
3056	58.3787
3052	58.3754
3048	58.3121
3044	58.2341
3040	58.2341
3036	58.3217
3032	58.3559
3028	58.2738
3024	58.203
3020	58.1334
3016	58.0501
3012	58.0171
3008	58.0068
3004	58.0227
3000	57.9795
2996	57.8351
2992	57.7775
2988	57.8165
2984	57.7914
2980	57.7804
2976	57.8737
2972	57.8569
2968	57.6777
2964	57.5763
2960	57.5461
2956	57.4723
2952	57.4463
2948	57.4553
2944	57.4122
2940	57.3803
2936	57.3697
2932	57.3223
2928	57.2346
2924	57.1187
2920	57.0798
2916	57.1328
2912	57.1377
2908	57.1474
2904	57.2221
2900	57.2765
2896	57.2491
2892	57.1467
2888	57.0647
2884	56.9987
2880	56.9055
2876	56.9447
2872	57.0584
2868	57.0311
2864	56.873
2860	56.694
2856	56.6311
2852	56.638
2848	56.6379
2844	56.7157
2840	56.8177
2836	56.7816
2832	56.6801
2828	56.677
2824	56.6949
2820	56.6963
2816	56.7178
2812	56.6703
2808	56.5933
2804	56.6121
2800	56.5921
2796	56.4577
2792	56.4186
2788	56.457
2784	56.3985
2780	56.2937
2776	56.2474
2772	56.2327
2768	56.2379
2764	56.2629
2760	56.2508
2756	56.204
2752	56.1601
2748	56.1345
2744	56.1651
2740	56.1546
2736	56.0039
2732	55.8609
2728	55.8501
2724	55.8628
2720	55.8564
2716	55.8706
2712	55.8419
2708	55.776
2704	55.7045
2700	55.6879
2696	55.7396
2692	55.6969
2688	55.5707
2684	55.5176
2680	55.5186
2676	55.497
2672	55.4677
2668	55.4182
2664	55.3375
2660	55.2873
2656	55.3105
2652	55.3246
2648	55.2088
2644	55.0838
2640	55.0925
2636	55.1445
2632	55.1225
2628	55.0246
2624	54.9632
2620	54.9928
2616	55.0815
2612	55.1262
2608	55.0159
2604	54.8473
2600	54.7592
2596	54.7524
2592	54.7661
2588	54.7084
2584	54.6355
2580	54.6391
2576	54.6273
2572	54.5958
2568	54.5328
2564	54.4078
2560	54.3079
2556	54.2951
2552	54.3316
2548	54.3494
2544	54.3193
2540	54.2565
2536	54.2311
2532	54.2121
2528	54.1211
2524	54.0711
2520	54.0307
2516	53.9772
2512	53.953
2508	53.8832
2504	53.8563
2500	53.8649
2496	53.8255
2492	53.7586
2488	53.7247
2484	53.7667
2480	53.7754
2476	53.6818
2472	53.5604
2468	53.5504
2464	53.594
2460	53.5193
2456	53.4427
2452	53.4043
2448	53.3286
2444	53.2593
2440	53.2026
2436	53.2396
2432	53.2774
2428	53.1308
2424	53.024
2420	53.1359
2416	53.1307
2412	52.9381
2408	52.8769
2404	52.8824
2400	52.8515
2396	52.8347
2392	52.8232
2388	52.7654
2384	52.6687
2380	52.6089
2376	52.5789
2372	52.5876
2368	52.6026
2364	52.5536
2360	52.4556
2356	52.3834
2352	52.3814
2348	52.3871
2344	52.3577
2340	52.2921
2336	52.2257
2332	52.2007
2328	52.1602
2324	52.0972
2320	52.0696
2316	52.0542
2312	52.0293
2308	52.0123
2304	51.9148
2300	51.7957
2296	51.7897
2292	51.7815
2288	51.7557
2284	51.7298
2280	51.6363
2276	51.5666
2272	51.5493
2268	51.5128
2264	51.4729
2260	51.4503
2256	51.4319
2252	51.4131
2248	51.3636
2244	51.2937
2240	51.25
2236	51.2277
2232	51.2156
2228	51.1411
2224	51
2220	50.9186
2216	50.8973
2212	50.8993
2208	50.9281
2204	50.9464
2200	50.9107
2196	50.8304
2192	50.7494
2188	50.7015
2184	50.6628
2180	50.6319
2176	50.624
2172	50.5569
2168	50.4651
2164	50.4277
2160	50.3974
2156	50.3402
2152	50.2512
2148	50.1436
2144	50.1123
2140	50.1528
2136	50.1378
2132	50.096
2128	50.0551
2124	49.9913
2120	49.9369
2116	49.8974
2112	49.8924
2108	49.9039
2104	49.8524
2100	49.7218
2096	49.6398
2092	49.6749
2088	49.756
2084	49.8109
2080	49.7188
2076	49.5638
2072	49.5266
2068	49.5299
2064	49.4897
2060	49.4517
2056	49.4004
2052	49.2814
2048	49.1554
2044	49.0992
2040	49.0977
2036	49.0904
2032	49.0436
2028	48.991
2024	48.9288
2020	48.871
2016	48.8491
2012	48.8037
2008	48.7436
2004	48.7082
2000	48.7126
1996	48.7561
1992	48.6992
1988	48.5651
1984	48.4936
1980	48.4383
1976	48.3967
1972	48.3431
1968	48.2445
1964	48.2105
1960	48.2298
1956	48.1901
1952	48.1116
1948	48.0667
1944	48.042
1940	47.9891
1936	47.9252
1932	47.8935
1928	47.881
1924	47.8223
1920	47.7171
1916	47.6456
1912	47.5944
1908	47.5298
1904	47.4687
1900	47.3983
1896	47.3516
1892	47.3258
1888	47.2823
1884	47.2767
1880	47.3039
1876	47.296
1872	47.2063
1868	47.0795
1864	47.0226
1860	46.9872
1856	46.9499
1852	46.9174
1848	46.8623
1844	46.8345
1840	46.784
1836	46.7077
1832	46.6952
1828	46.689
1824	46.6516
1820	46.6287
1816	46.6274
1812	46.5858
1808	46.4351
1804	46.3388
1800	46.3842
1796	46.398
1792	46.3425
1788	46.2801
1784	46.2125
1780	46.1276
1776	46.0446
1772	45.9887
1768	45.9491
1764	45.903
1760	45.848
1756	45.804
1752	45.7522
1748	45.6636
1744	45.5994
1740	45.5115
1736	45.3937
1732	45.3611
1728	45.3252
1724	45.266
1720	45.2394
1716	45.2597
1712	45.3698
1708	45.4216
1704	45.3169
1700	45.2353
1696	45.1947
1692	45.0973
1688	45.0406
1684	45.0151
1680	44.9408
1676	44.8874
1672	44.8422
1668	44.7466
1664	44.6495
1660	44.5793
1656	44.5264
1652	44.5232
1648	44.5578
1644	44.5172
1640	44.3953
1636	44.3117
1632	44.2922
1628	44.2855
1624	44.2466
1620	44.1979
1616	44.1789
1612	44.1704
1608	44.1598
1604	44.0949
1600	43.9744
1596	43.9066
1592	43.88
1588	43.7949
1584	43.6736
1580	43.5714
1576	43.4861
1572	43.4673
1568	43.4809
1564	43.4126
1560	43.3575
1556	43.416
1552	43.4714
1548	43.4514
1544	43.3424
1540	43.2159
1536	43.1841
1532	43.148
1528	43.0241
1524	42.9035
1520	42.8926
1516	42.9356
1512	42.9287
1508	42.9035
1504	42.8596
1500	42.8236
1496	42.8091
1492	42.7237
1488	42.6046
1484	42.5552
1480	42.5835
1476	42.5938
1472	42.5052
1468	42.3893
1464	42.3155
1460	42.2609
1456	42.211
1452	42.187
1448	42.2604
1444	42.2846
1440	42.1081
1436	41.9815
1432	42.0063
1428	41.9824
1424	41.9088
1420	41.8731
1416	41.8184
1412	41.7379
1408	41.6874
1404	41.6746
1400	41.6206
1396	41.4923
1392	41.4332
1388	41.414
1384	41.2858
1380	41.162
1376	41.1719
1372	41.1831
1368	41.1136
1364	41.0552
1360	41.0631
1356	41.0678
1352	40.9469
1348	40.8078
1344	40.8083
1340	40.85
1336	40.8218
1332	40.731
1328	40.6509
1324	40.6177
1320	40.6105
1316	40.6047
1312	40.5195
1308	40.384
1304	40.3176
1300	40.3301
1296	40.3697
1292	40.3323
1288	40.2034
1284	40.124
1280	40.1374
1276	40.1333
1272	40.0351
1268	39.9375
1264	39.9392
1260	39.9529
1256	39.8342
1252	39.6471
1248	39.5811
1244	39.6174
1240	39.6302
1236	39.5932
1232	39.5247
1228	39.4866
1224	39.4365
1220	39.3605
1216	39.3321
1212	39.3081
1208	39.2316
1204	39.1032
1200	39.082
1196	39.1785
1192	39.0995
1188	38.8339
1184	38.7223
1180	38.9076
1176	39.0707
1172	38.9737
1168	38.812
1164	38.8125
1160	38.7738
1156	38.6512
1152	38.7017
1148	38.588
1144	38.3105
1140	38.4372
1136	38.7424
1132	38.6168
1128	38.1198
1124	37.7846
1120	37.7871
1116	37.9049
1112	37.9682
1108	37.9422
1104	37.9456
1100	38.012
1096	38.0691
1092	38.0142
1088	37.8697
1084	37.7912
1080	37.7038
1076	37.5532
1072	37.4428
1068	37.3605
1064	37.2747
1060	37.2339
1056	37.1902
1052	37.1834
1048	37.269
1044	37.3153
1040	37.3082
1036	37.2336
1032	37.106
1028	36.9954
1024	36.9887
1020	37.1065
1016	37.0366
1012	36.7755
1008	36.5358
1004	36.3404
1000	36.3075
996	 36.342
992	 36.3554
988	 36.4393
984	 36.4706
980	 36.366
976	 36.2034
972	 36.0613
968	 35.9448
964	 35.8626
960	 35.8577
956	 35.8545
952	 35.8187
948	 35.7544
944	 35.6703
940	 35.5847
936	 35.5478
932	 35.5757
928	 35.5026
924	 35.3876
920	 35.4376
916	 35.4991
912	 35.3802
908	 35.199
904	 35.0755
900	 34.9583
896	 34.9732
892	 35.1449
888	 35.0971
884	 34.8246
880	 34.6847
876	 34.6591
872	 34.5496
868	 34.4115
864	 34.4238
860	 34.4724
856	 34.3284
852	 34.1713
848	 34.1446
844	 34.0889
840	 34.0355
836	 34.0899
832	 34.0468
828	 33.8545
824	 33.8114
820	 33.7984
816	 33.6526
812	 33.5312
808	 33.4333
804	 33.383
800	 33.3892
796	 33.3683
792	 33.3015
788	 33.2155
784	 33.1315
780	 33.0519
776	 32.8434
772	 32.5294
768	 32.3612
764	 32.3974
760	 32.6067
756	 32.6316
752	 32.3008
748	 32.0702
744	 32.0086
740	 32.0081
736	 31.9915
732	 31.7627
728	 31.5146
724	 31.4216
720	 31.3596
716	 31.3091
712	 31.3839
708	 31.5373
704	 31.496
700	 31.1452
696	 30.8428
692	 30.7938
688	 30.7737
684	 30.6438
680	 30.4394
676	 30.3262
672	 30.2706
668	 30.0702
664	 29.8672
660	 29.8126
656	 29.7201
652	 29.5962
648	 29.687
644	 29.6919
640	 29.2784
636	 28.9687
632	 28.984
628	 29.0434
624	 29.0762
620	 28.9006
616	 28.5002
612	 28.3054
608	 28.4612
604	 28.6514
600	 28.6077
596	 28.2699
592	 27.9479
588	 27.8621
584	 27.7322
580	 27.4848
576	 27.4455
572	 27.6018
568	 27.3825
564	 26.8336
560	 26.6843
556	 26.8061
552	 26.6839
548	 26.5267
544	 26.5446
540	 26.3946
536	 26.1188
532	 25.9716
528	 25.674
524	 25.4989
520	 25.6875
516	 25.448
512	 24.8574
508	 24.5737
504	 24.5091
500	 24.5782
496	 24.6251
492	 24.4399
488	 24.2656
484	 24.2151
480	 23.958
476	 23.4023
472	 22.8624
468	 22.7327
464	 22.9159
460	 22.9803
456	 22.9093
452	 22.5422
448	 21.997
444	 22.0019
440	 21.8961
436	 21.209
432	 20.2899
428	 18.7757
424	 18.5693
420	 19.914
416	 19.477
412	 18.0868
408	 18.3655
404	 17.3721
400	 16.485
396	 21.111
392	 25.8173
388	 30.4637
384	 32.6923
380	 32.2768
376	 45.8916
372	 56.7335
370	 62.3085