File: Bakgrunnsmateriale/MATLAB/FTIR/ftir_data/subBb/Mapping_121/C-4040-8_t07.asc
PE IR       SPECTRUM    SPECTRUM    ASCII       PEDS        1.60
  -1
C-B526~1.ASC
17/03/27
15:03:15.00
17/03/27
15:03:42.00
tln
$C-4040-8_t0007$<tbV0>[-2.6,-13.0,8.0,0.0,27,1,0]
27.028
64

2002,4.07
MIRTGS : RIGHTBACK : INTERNAL 2
MIR : ON : INTERNAL 2
OPTKBR

0.200000
8
8.000000
FILLER
RATIO
SPECTRUM
UNLOCKED 256

DOUBLE
64
COMBINED
1
0
0

0.002000
RATIO

1
0
TRUE
51149
0
LEFT NOT FITTED RIGHT NOT FITTED 0
NONE
NONE
15600
12
4.427000
51148
TRUE
1 0 8 72 0 0 0 0

15798

#HDR
-1
-1
#GR
µM
%T
2.38419e-05
0.0
2.000000
0.002000
12515
8
70.5944
15.7247
#DATA
2.000000	 64.2411
2.018000	 63.6797
2.036000	 64.9673
2.054000	 64.0685
2.072000	 64.2007
2.090000	 64.1535
2.108000	 64.0276
2.126000	 63.7114
2.144000	 63.9313
2.162000	 64.0219
2.180000	 64.2944
2.198000	 63.9106
2.216000	 64.9968
2.234000	 64.8061
2.252000	 67.8285
2.270000	 59.8964
2.288000	 66.3735
2.306000	 64.4582
2.324000	 64.1602
2.342000	 63.8975
2.360000	 63.9899
2.378000	 63.742
2.396000	 63.2553
2.414000	 63.7382
2.432000	 63.5391
2.450000	 63.846
2.468000	 63.7621
2.486000	 63.92
2.504000	 64.0329
2.522000	 63.929
2.540000	 63.7111
2.558000	 63.7942
2.576000	 63.8339
2.594000	 64.2893
2.612000	 63.7377
2.630000	 64.1109
2.648000	 63.6114
2.666000	 64.0034
2.684000	 63.8429
2.702000	 63.5465
2.720000	 63.8104
2.738000	 63.6233
2.756000	 63.5435
2.774000	 63.1895
2.792000	 63.3198
2.810000	 63.3305
2.828000	 63.2378
2.846000	 63.025
2.864000	 63.1968
2.882000	 63.4914
2.900000	 63.294
2.918000	 63.0525
2.936000	 63.0861
2.954000	 62.9457
2.972000	 63.0254
2.990000	 62.6988
3.008000	 62.9166
3.026000	 62.8266
3.044000	 62.8215
3.062000	 62.5818
3.080000	 62.3826
3.098000	 62.647
3.116000	 62.6493
3.134000	 62.2755
3.152000	 62.2438
3.170000	 62.4384
3.188000	 62.3266
3.206000	 62.4645
3.224000	 62.3004
3.242000	 62.2086
3.260000	 62.2317
3.278000	 62.2143
3.296000	 62.0859
3.314000	 62.3672
3.332000	 61.9914
3.350000	 61.9632
3.368000	 61.9222
3.386000	 61.7227
3.404000	 61.7335
3.422000	 61.4932
3.440000	 61.5779
3.458000	 61.5951
3.476000	 61.687
3.494000	 61.5896
3.512000	 61.4873
3.530000	 61.4807
3.548000	 61.7378
3.566000	 61.557
3.584000	 61.3846
3.602000	 61.2613
3.620000	 61.3211
3.638000	 61.337
3.656000	 61.3318
3.674000	 61.1947
3.692000	 61.1105
3.710000	 61.0194
3.728000	 61.0525
3.746000	 61.034
3.764000	 60.9056
3.782000	 60.8852
3.800000	 60.8045
3.818000	 60.7212
3.836000	 60.7812
3.854000	 60.6849
3.872000	 60.5637
3.890000	 60.4757
3.908000	 60.5247
3.926000	 60.5868
3.944000	 60.4997
3.962000	 60.5351
3.980000	 60.4109
3.998000	 60.2993
4.016000	 60.2545
4.034000	 60.3432
4.052000	 60.3117
4.070000	 60.1016
4.088000	 60.2949
4.106000	 60.1892
4.124000	 59.8726
4.141999	 60.08
4.160000	 59.9425
4.178000	 59.9696
4.196000	 59.8551
4.214000	 59.8437
4.232000	 59.9361
4.250000	 59.8294
4.268000	 59.6062
4.286000	 59.7239
4.304000	 59.6276
4.322000	 59.5957
4.340000	 59.5583
4.358000	 59.4414
4.375999	 59.4247
4.394000	 59.4006
4.412000	 59.3838
4.430000	 59.3939
4.448000	 59.2701
4.466000	 59.2394
4.484000	 59.271
4.502000	 59.1591
4.520000	 59.1365
4.538000	 59.0492
4.556000	 59.149
4.574000	 59.0918
4.592000	 59.0693
4.609999	 58.9433
4.628000	 59.0977
4.646000	 58.921
4.664000	 58.8525
4.682000	 58.8487
4.700000	 58.693
4.718000	 58.7287
4.736000	 58.7925
4.754000	 58.6324
4.772000	 58.5829
4.790000	 58.7248
4.808000	 58.7433
4.826000	 58.4689
4.843999	 58.2941
4.862000	 58.2771
4.880000	 58.313
4.898000	 58.4476
4.916000	 58.3587
4.934000	 58.2238
4.952000	 58.2636
4.970000	 58.3316
4.988000	 58.1992
5.006000	 58.1433
5.024000	 58.1429
5.042000	 58.0666
5.060000	 57.9686
5.077999	 57.9756
5.096000	 58.0328
5.114000	 57.948
5.132000	 57.9046
5.150000	 57.893
5.168000	 57.8935
5.186000	 57.9336
5.204000	 57.8877
5.222000	 57.8309
5.240000	 57.7616
5.258000	 57.7116
5.276000	 57.7639
5.294000	 57.6103
5.312000	 57.5708
5.330000	 57.6297
5.348000	 57.5458
5.366000	 57.4872
5.384000	 57.406
5.402000	 57.4457
5.420000	 57.4583
5.438000	 57.3002
5.456000	 57.3354
5.474000	 57.4512
5.492000	 57.3102
5.510000	 57.2584
5.528000	 57.2328
5.546000	 57.2466
5.564000	 57.292
5.582000	 57.2739
5.600000	 57.1665
5.618000	 57.0723
5.636000	 57.0981
5.654000	 57.1307
5.672000	 57.0558
5.690000	 57.1083
5.708000	 57.1324
5.726000	 56.9155
5.744000	 56.7898
5.762000	 56.8874
5.780000	 56.8185
5.798000	 56.6655
5.816000	 56.9384
5.834000	 57.0561
5.852000	 56.7653
5.870000	 56.9224
5.888000	 57.051
5.906000	 56.816
5.923999	 56.7856
5.942000	 56.8167
5.960000	 56.6745
5.978000	 56.6496
5.996000	 56.5557
6.014000	 56.5036
6.032000	 56.7056
6.050000	 56.9665
6.068000	 56.8297
6.086000	 56.5961
6.104000	 56.4642
6.122000	 56.4089
6.140000	 56.3606
6.158000	 56.3925
6.176000	 56.4666
6.194000	 56.3833
6.212000	 56.1774
6.230000	 56.0705
6.248000	 56.0318
6.266000	 56.0942
6.284000	 56.1336
6.302000	 56.0752
6.320000	 56.0205
6.338000	 56.0243
6.356000	 55.9866
6.374000	 55.9104
6.392000	 55.9724
6.410000	 56.18
6.428000	 56.2081
6.446000	 56.0685
6.464000	 56.0249
6.482000	 56.0802
6.500000	 56.0086
6.518000	 55.8491
6.536000	 55.8124
6.554000	 55.8929
6.572000	 55.9381
6.590000	 55.8342
6.608000	 55.7562
6.626000	 55.9226
6.644000	 56.0755
6.662000	 55.9957
6.680000	 55.7976
6.698000	 55.5928
6.716000	 55.4893
6.734000	 55.4778
6.752000	 55.5095
6.770000	 55.5421
6.788000	 55.4956
6.806000	 55.3608
6.824000	 55.2603
6.842000	 55.2982
6.860000	 55.3836
6.878000	 55.3581
6.896000	 55.2659
6.914000	 55.1451
6.932000	 54.9959
6.950000	 54.9647
6.968000	 55.0443
6.986000	 55.0752
7.004000	 55.0668
7.022000	 55.103
7.040000	 55.106
7.058000	 54.9972
7.076000	 54.8815
7.094000	 54.8795
7.112000	 54.9614
7.130000	 54.9921
7.148000	 54.9232
7.166000	 54.868
7.184000	 54.8862
7.202000	 54.8882
7.220000	 54.8153
7.238000	 54.7245
7.256000	 54.6853
7.274000	 54.6969
7.292000	 54.6952
7.310000	 54.6597
7.328000	 54.6387
7.346000	 54.6336
7.364000	 54.6016
7.382000	 54.5392
7.400000	 54.4843
7.418000	 54.4949
7.436000	 54.5658
7.454000	 54.6174
7.472000	 54.6212
7.490000	 54.612
7.508000	 54.5922
7.526000	 54.5498
7.544000	 54.4943
7.562000	 54.4387
7.580000	 54.3827
7.598000	 54.3304
7.616000	 54.3008
7.634000	 54.2901
7.652000	 54.2731
7.670000	 54.245
7.688000	 54.2197
7.706000	 54.2022
7.724000	 54.1877
7.742000	 54.18
7.760000	 54.1852
7.778000	 54.187
7.796000	 54.1537
7.814000	 54.0739
7.832000	 53.9823
7.850000	 53.932
7.868000	 53.9448
7.886000	 54.0017
7.904000	 54.0544
7.922000	 54.0607
7.940000	 54.0287
7.958000	 53.9979
7.976000	 53.9765
7.994000	 53.943
8.012000	 53.8974
8.030000	 53.8572
8.048000	 53.8253
8.065999	 53.8054
8.084000	 53.8166
8.102000	 53.8648
8.120000	 53.9161
8.138000	 53.9309
8.155999	 53.9074
8.173999	 53.8737
8.192000	 53.8437
8.210000	 53.806
8.228000	 53.757
8.246000	 53.7146
8.263999	 53.6931
8.282000	 53.6934
8.300000	 53.7151
8.318000	 53.7536
8.336000	 53.7846
8.353999	 53.7847
8.372000	 53.7623
8.390000	 53.7424
8.408000	 53.727
8.426000	 53.6956
8.443999	 53.6401
8.462000	 53.5738
8.480000	 53.5083
8.498000	 53.4466
8.516000	 53.395
8.533999	 53.3663
8.552000	 53.37
8.570000	 53.4099
8.588000	 53.483
8.606000	 53.5653
8.624000	 53.6098
8.641999	 53.5807
8.660000	 53.4951
8.678000	 53.4108
8.696000	 53.3646
8.714000	 53.3398
8.731999	 53.2979
8.750000	 53.2229
8.768000	 53.1331
8.786000	 53.0622
8.804000	 53.0334
8.821999	 53.0467
8.840000	 53.0869
8.858000	 53.1348
8.876000	 53.1747
8.894000	 53.1959
8.911999	 53.1968
8.930000	 53.184
8.948000	 53.1727
8.966000	 53.1783
8.984000	 53.2011
9.001999	 53.2231
9.020000	 53.2261
9.038000	 53.2127
9.056000	 53.1974
9.074000	 53.1823
9.092000	 53.1523
9.109999	 53.1009
9.128000	 53.0457
9.146000	 53.0073
9.164000	 52.9784
9.182000	 52.9311
9.199999	 52.8557
9.218000	 52.7804
9.236000	 52.7444
9.254000	 52.7556
9.272000	 52.7868
9.289999	 52.8076
9.308000	 52.8114
9.326000	 52.8072
9.344000	 52.7993
9.362000	 52.7837
9.379999	 52.7626
9.398000	 52.7472
9.416000	 52.7437
9.434000	 52.7426
9.452000	 52.7291
9.469999	 52.7002
9.488000	 52.6654
9.506000	 52.6322
9.524000	 52.5996
9.542000	 52.5711
9.560000	 52.5628
9.577999	 52.5887
9.596000	 52.6334
9.614000	 52.6523
9.632000	 52.6081
9.650000	 52.5102
9.667999	 52.4138
9.686000	 52.3782
9.704000	 52.424
9.722000	 52.5284
9.740000	 52.6513
9.757999	 52.7595
9.776000	 52.8307
9.794000	 52.8494
9.812000	 52.811
9.830000	 52.7317
9.847999	 52.6457
9.866000	 52.5842
9.884000	 52.5528
9.902000	 52.5338
9.920000	 52.5091
9.937999	 52.4803
9.956000	 52.464
9.974000	 52.4701
9.992000	 52.4882
10.01	52.4941
10.028	52.4682
10.046	52.4118
10.064	52.3475
10.082	52.3018
10.1	52.2899
10.118	52.3083
10.136	52.3395
10.154	52.3635
10.172	52.366
10.19	52.3418
10.208	52.2949
10.226	52.2345
10.244	52.1737
10.262	52.1275
10.28	52.1063
10.298	52.108
10.316	52.1165
10.334	52.1107
10.352	52.0794
10.37	52.0287
10.388	51.9779
10.406	51.9455
10.424	51.9382
10.442	51.9483
10.46	51.9634
10.478	51.9747
10.496	51.981
10.514	51.9843
10.532	51.9836
10.55	51.9757
10.568	51.9592
10.586	51.9374
10.604	51.9172
10.622	51.9061
10.64	51.9067
10.658	51.9169
10.676	51.9312
10.694	51.9438
10.712	51.9496
10.73	51.9453
10.748	51.9287
10.766	51.8964
10.784	51.8455
10.802	51.775
10.82	51.6883
10.838	51.5953
10.856	51.5123
10.874	51.4587
10.892	51.4488
10.91	51.4875
10.928	51.5631
10.946	51.6502
10.964	51.7185
10.982	51.7416
11	51.7106
11.018	51.6363
11.036	51.5458
11.054	51.4746
11.072	51.4503
11.09	51.486
11.108	51.5754
11.126	51.6932
11.144	51.8044
11.162	51.871
11.18	51.8652
11.198	51.774
11.216	51.6039
11.234	51.3782
11.252	51.133
11.27	50.9042
11.288	50.7225
11.306	50.603
11.324	50.5459
11.342	50.5384
11.36	50.5611
11.378	50.5952
11.396	50.6299
11.414	50.6631
11.432	50.7008
11.45	50.7514
11.468	50.8195
11.486	50.9006
11.504	50.9808
11.522	51.0407
11.54	51.0659
11.558	51.0518
11.576	51.0098
11.594	50.9622
11.612	50.9362
11.63	50.9506
11.648	51.0075
11.666	51.0922
11.684	51.1766
11.702	51.2332
11.72	51.244
11.738	51.2088
11.756	51.1425
11.774	51.0683
11.792	51.006
11.81	50.9637
11.828	50.9375
11.846	50.915
11.864	50.8842
11.882	50.8401
11.9	50.7869
11.918	50.7346
11.936	50.694
11.954	50.6718
11.972	50.6679
11.99	50.6752
12.008	50.6837
12.026	50.6833
12.044	50.666
12.062	50.6262
12.08	50.5618
12.098	50.4742
12.116	50.3704
12.134	50.2638
12.152	50.1728
12.17	50.1151
12.188	50.104
12.206	50.143
12.224	50.2241
12.242	50.3299
12.26	50.4397
12.278	50.5337
12.296	50.5969
12.314	50.6225
12.332	50.6122
12.35	50.5729
12.368	50.5149
12.386	50.4493
12.404	50.3846
12.422	50.3254
12.44	50.2736
12.458	50.2289
12.476	50.1909
12.494	50.1601
12.512	50.1382
12.53	50.129
12.548	50.1363
12.566	50.163
12.584	50.2098
12.602	50.2742
12.62	50.3503
12.638	50.4303
12.656	50.5063
12.674	50.5717
12.692	50.623
12.71	50.6598
12.728	50.6844
12.746	50.7006
12.764	50.7126
12.782	50.7237
12.8	50.7352
12.818	50.7458
12.836	50.7519
12.854	50.7482
12.872	50.7307
12.89	50.6965
12.908	50.6457
12.926	50.5815
12.944	50.5099
12.962	50.4378
12.98	50.3715
12.998	50.315
13.016	50.2692
13.034	50.2328
13.052	50.2028
13.07	50.1757
13.088	50.1495
13.106	50.1242
13.124	50.1009
13.142	50.0818
13.16	50.0683
13.178	50.0614
13.196	50.0596
13.214	50.0609
13.232	50.0638
13.25	50.0676
13.268	50.0734
13.286	50.0837
13.304	50.1013
13.322	50.128
13.34	50.1634
13.358	50.2039
13.376	50.2436
13.394	50.2748
13.412	50.2897
13.43	50.2818
13.448	50.2475
13.466	50.1867
13.484	50.1032
13.502	50.0032
13.52	49.8949
13.538	49.787
13.556	49.6878
13.574	49.604
13.592	49.5404
13.61	49.5
13.628	49.483
13.646	49.488
13.664	49.5117
13.682	49.5485
13.7	49.5923
13.718	49.6359
13.736	49.6728
13.754	49.6967
13.772	49.7036
13.79	49.6912
13.808	49.6598
13.826	49.6119
13.844	49.5522
13.862	49.4868
13.88	49.4227
13.898	49.3668
13.916	49.3249
13.934	49.3007
13.952	49.2959
13.97	49.3097
13.988	49.3389
14.006	49.3786
14.024	49.423
14.042	49.4656
14.06	49.5008
14.078	49.524
14.096	49.5319
14.114	49.5231
14.132	49.498
14.15	49.4587
14.168	49.4086
14.186	49.3518
14.204	49.2933
14.222	49.2379
14.24	49.1898
14.258	49.1521
14.276	49.1266
14.294	49.1133
14.312	49.1113
14.33	49.1182
14.348	49.1311
14.366	49.1466
14.384	49.1619
14.402	49.1754
14.42	49.1863
14.438	49.1951
14.456	49.2024
14.474	49.2091
14.492	49.2156
14.51	49.2218
14.528	49.2263
14.546	49.2274
14.564	49.2231
14.582	49.2113
14.6	49.191
14.618	49.1618
14.636	49.1246
14.654	49.0806
14.672	49.0314
14.69	48.979
14.708	48.9247
14.726	48.8697
14.744	48.8149
14.762	48.7606
14.78	48.7072
14.798	48.6553
14.816	48.6059
14.834	48.5601
14.852	48.5197
14.87	48.4864
14.888	48.4614
14.906	48.4453
14.924	48.438
14.942	48.438
14.96	48.4428
14.978	48.4496
14.996	48.4555
15.014	48.4577
15.032	48.4543
15.05	48.4448
15.068	48.4303
15.086	48.4128
15.104	48.3951
15.122	48.3811
15.14	48.3742
15.158	48.3772
15.176	48.3918
15.194	48.4185
15.212	48.4562
15.23	48.5021
15.248	48.5531
15.266	48.6054
15.284	48.6545
15.302	48.6967
15.32	48.7297
15.338	48.7516
15.356	48.7615
15.374	48.7601
15.392	48.7486
15.41	48.7283
15.428	48.7007
15.446	48.6677
15.464	48.6304
15.482	48.59
15.5	48.5473
15.518	48.5035
15.536	48.4596
15.554	48.4169
15.572	48.3773
15.59	48.343
15.608	48.3163
15.626	48.2989
15.644	48.2923
15.662	48.2971
15.68	48.3125
15.698	48.3372
15.716	48.3687
15.734	48.4031
15.752	48.4368
15.77	48.466
15.788	48.4863
15.806	48.4957
15.824	48.4929
15.842	48.4773
15.86	48.4504
15.878	48.4144
15.896	48.3715
15.914	48.3257
15.932	48.2798
15.95	48.236
15.968	48.1967
15.986	48.1627
16.004	48.1339
16.022	48.11
16.04	48.0895
16.058	48.0715
16.076	48.0548
16.094	48.0385
16.112	48.0228
16.13	48.0078
16.148	47.9943
16.166	47.9839
16.184	47.9775
16.202	47.9764
16.22	47.9814
16.238	47.9923
16.256	48.0088
16.274	48.0288
16.292	48.0497
16.31	48.0692
16.328	48.0827
16.346	48.0869
16.364	48.0793
16.382	48.0562
16.4	48.0166
16.418	47.9596
16.436	47.8854
16.454	47.7963
16.472	47.6941
16.49	47.583
16.508	47.4673
16.526	47.3501
16.544	47.2375
16.562	47.1329
16.58	47.0396
16.598	46.962
16.616	46.902
16.634	46.8614
16.652	46.8413
16.67	46.8414
16.688	46.8614
16.706	46.8987
16.724	46.9515
16.742	47.0174
16.76	47.0912
16.778	47.1706
16.796	47.2511
16.814	47.3287
16.832	47.4011
16.85	47.4646
16.868	47.5179
16.886	47.5596
16.904	47.5895
16.922	47.6081
16.94	47.6164
16.958	47.6166
16.976	47.6099
16.994	47.5993
17.012	47.5864
17.03	47.5723
17.048	47.5588
17.066	47.5458
17.084	47.5335
17.102	47.5212
17.12	47.5084
17.138	47.4936
17.156	47.4761
17.174	47.4552
17.192	47.4302
17.21	47.4015
17.228	47.3694
17.246	47.3353
17.264	47.2999
17.282	47.2656
17.3	47.2333
17.318	47.205
17.336	47.1815
17.354	47.1637
17.372	47.1516
17.39	47.1447
17.408	47.142
17.426	47.1417
17.444	47.143
17.462	47.1429
17.48	47.1407
17.498	47.1338
17.516	47.1216
17.534	47.1031
17.552	47.0782
17.57	47.047
17.588	47.0109
17.606	46.9709
17.624	46.9287
17.642	46.8865
17.66	46.8455
17.678	46.8082
17.696	46.775
17.714	46.7479
17.732	46.727
17.75	46.713
17.768	46.7052
17.786	46.7035
17.804	46.7065
17.822	46.7136
17.84	46.7229
17.858	46.7333
17.876	46.7436
17.894	46.752
17.912	46.7581
17.93	46.7603
17.948	46.7584
17.966	46.7516
17.984	46.7401
18.002	46.7238
18.02	46.7033
18.038	46.6788
18.056	46.6511
18.074	46.6205
18.092	46.5881
18.11	46.5541
18.128	46.5197
18.146	46.485
18.164	46.4507
18.182	46.4172
18.2	46.3846
18.218	46.3534
18.236	46.3236
18.254	46.2955
18.272	46.269
18.29	46.2443
18.308	46.2214
18.326	46.2004
18.344	46.1811
18.362	46.1634
18.38	46.1473
18.398	46.1324
18.416	46.1187
18.434	46.1059
18.452	46.0937
18.47	46.0823
18.488	46.0713
18.506	46.0608
18.524	46.051
18.542	46.0419
18.56	46.0341
18.578	46.0276
18.596	46.0233
18.614	46.0214
18.632	46.023
18.65	46.0281
18.668	46.0375
18.686	46.0511
18.704	46.0694
18.722	46.0919
18.74	46.118
18.758	46.1471
18.776	46.1773
18.794	46.2078
18.812	46.236
18.83	46.2608
18.848	46.2794
18.866	46.2909
18.884	46.2927
18.902	46.2843
18.92	46.2638
18.938	46.2315
18.956	46.1867
18.974	46.1304
18.992	46.0634
19.01	45.9872
19.028	45.9036
19.046	45.8145
19.064	45.7225
19.082	45.6292
19.1	45.5378
19.118	45.4491
19.136	45.3663
19.154	45.2897
19.172	45.2217
19.19	45.1621
19.208	45.1123
19.226	45.0718
19.244	45.0411
19.262	45.0197
19.28	45.007
19.298	45.0029
19.316	45.0061
19.334	45.0166
19.352	45.0329
19.37	45.055
19.388	45.0812
19.406	45.1117
19.424	45.1449
19.442	45.1808
19.46	45.2174
19.478	45.2549
19.496	45.2914
19.514	45.3267
19.532	45.359
19.55	45.3876
19.568	45.4114
19.586	45.4292
19.604	45.4408
19.622	45.445
19.64	45.4421
19.658	45.4318
19.676	45.4142
19.694	45.3903
19.712	45.36
19.73	45.3257
19.748	45.2869
19.766	45.247
19.784	45.206
19.802	45.1665
19.82	45.1299
19.838	45.097
19.856	45.0703
19.874	45.0494
19.892	45.0363
19.91	45.0307
19.928	45.0331
19.946	45.0435
19.964	45.061
19.982	45.0856
20	45.1159
20.018	45.151
20.036	45.1902
20.054	45.2315
20.072	45.275
20.09	45.3183
20.108	45.3618
20.126	45.4037
20.144	45.4439
20.162	45.482
20.18	45.5175
20.198	45.5505
20.216	45.5807
20.234	45.6082
20.252	45.633
20.27	45.6552
20.288	45.6749
20.306	45.6921
20.324	45.707
20.342	45.7195
20.36	45.7296
20.378	45.7373
20.396	45.7427
20.414	45.7453
20.432	45.7451
20.45	45.7421
20.468	45.7365
20.486	45.7281
20.504	45.7165
20.522	45.7018
20.54	45.6839
20.558	45.6629
20.576	45.6383
20.594	45.61
20.612	45.578
20.63	45.5418
20.648	45.5016
20.666	45.4569
20.684	45.4078
20.702	45.3544
20.72	45.2967
20.738	45.2349
20.756	45.1693
20.774	45.0999
20.792	45.0277
20.81	44.9527
20.828	44.8757
20.846	44.7976
20.864	44.7185
20.882	44.6402
20.9	44.5626
20.918	44.487
20.936	44.4145
20.954	44.345
20.972	44.2803
20.99	44.2201
21.008	44.1655
21.026	44.1168
21.044	44.0741
21.062	44.0378
21.08	44.0079
21.098	43.9841
21.116	43.9667
21.134	43.9554
21.152	43.9495
21.17	43.9492
21.188	43.9538
21.206	43.9632
21.224	43.9772
21.242	43.995
21.26	44.0168
21.278	44.0418
21.296	44.0699
21.314	44.1006
21.332	44.133
21.35	44.1674
21.368	44.2023
21.386	44.2376
21.404	44.2728
21.422	44.3063
21.44	44.3387
21.458	44.3681
21.476	44.394
21.494	44.4163
21.512	44.4333
21.53	44.4452
21.548	44.4515
21.566	44.4515
21.584	44.4455
21.602	44.4334
21.62	44.4149
21.638	44.3909
21.656	44.3623
21.674	44.3287
21.692	44.292
21.71	44.2522
21.728	44.2099
21.746	44.1677
21.764	44.125
21.782	44.0831
21.8	44.0433
21.818	44.005
21.836	43.9693
21.854	43.9365
21.872	43.9062
21.89	43.8781
21.908	43.8525
21.926	43.8279
21.944	43.8032
21.962	43.779
21.98	43.7527
21.998	43.7244
22.016	43.6936
22.034	43.6585
22.052	43.6194
22.07	43.5763
22.088	43.5286
22.106	43.4765
22.124	43.4218
22.142	43.3641
22.16	43.3042
22.178	43.2458
22.196	43.1873
22.214	43.1317
22.232	43.0827
22.25	43.0387
22.268	43.0028
22.286	42.9772
22.304	42.9607
22.322	42.9547
22.34	42.9604
22.358	42.9764
22.376	43.0012
22.394	43.0363
22.412	43.0786
22.43	43.1245
22.448	43.1762
22.466	43.2287
22.484	43.2783
22.502	43.3271
22.52	43.3696
22.538	43.4032
22.556	43.4295
22.574	43.4447
22.592	43.4479
22.61	43.4401
22.628	43.4211
22.646	43.3897
22.664	43.3481
22.682	43.2992
22.7	43.2411
22.718	43.1776
22.736	43.1131
22.754	43.0449
22.772	42.978
22.79	42.917
22.808	42.8591
22.826	42.8087
22.844	42.7687
22.862	42.7375
22.88	42.7164
22.898	42.707
22.916	42.7084
22.934	42.7185
22.952	42.7376
22.97	42.7655
22.988	42.7965
23.006	42.8307
23.024	42.8678
23.042	42.9009
23.06	42.9298
23.078	42.9545
23.096	42.9691
23.114	42.9735
23.132	42.968
23.15	42.9498
23.168	42.9181
23.186	42.874
23.204	42.8177
23.222	42.7476
23.24	42.6658
23.258	42.5768
23.276	42.4782
23.294	42.3729
23.312	42.2682
23.33	42.162
23.348	42.0566
23.366	41.9603
23.384	41.8723
23.402	41.7932
23.42	41.7297
23.438	41.6821
23.456	41.6497
23.474	41.6363
23.492	41.6432
23.51	41.6689
23.528	41.7132
23.546	41.7771
23.564	41.8598
23.582	41.9574
23.6	42.0693
23.618	42.1965
23.636	42.3326
23.654	42.4749
23.672	42.6264
23.69	42.7799
23.708	42.9308
23.726	43.083
23.744	43.2308
23.762	43.3687
23.78	43.5002
23.798	43.6221
23.816	43.7306
23.834	43.8268
23.852	43.9107
23.87	43.9814
23.888	44.0383
23.906	44.0826
23.924	44.1155
23.942	44.1363
23.96	44.1457
23.978	44.1467
23.996	44.1396
24.014	44.1234
24.032	44.1033
24.05	44.0821
24.068	44.0567
24.086	44.0322
24.104	44.0133
24.122	43.9969
24.14	43.9859
24.158	43.9845
24.176	43.992
24.194	44.0082
24.212	44.0352
24.23	44.0734
24.248	44.1221
24.266	44.1825
24.284	44.2559
24.302	44.3419
24.32	44.4387
24.338	44.5449
24.356	44.6624
24.374	44.7884
24.392	44.9193
24.41	45.0575
24.428	45.2012
24.446	45.3432
24.464	45.4817
24.482	45.6202
24.5	45.7503
24.518	45.8655
24.536	45.972
24.554	46.063
24.572	46.1289
24.59	46.1721
24.608	46.1925
24.626	46.1823
24.644	46.1379
24.662	46.0636
24.68	45.9548
24.698	45.8071
24.716	45.6229
24.734	45.4015
24.752	45.1404
24.77	44.8379
24.788	44.4959
24.806	44.1177
24.824	43.7047
24.842	43.2525
24.86	42.7698
24.878	42.2663
24.896	41.7362
24.914	41.1829
24.932	40.6206
24.95	40.0555
24.968	39.4781
24.986	38.9025
25.004	38.3436
25.022	37.793
25.04	37.2549
25.058	36.7434
25.076	36.2649
25.094	35.811
25.112	35.3905
25.13	35.0122
25.148	34.6724
25.166	34.3715
25.184	34.1142
25.202	33.9033
25.22	33.7363
25.238	33.6128
25.256	33.5326
25.274	33.4976
25.292	33.5054
25.31	33.5517
25.328	33.6347
25.346	33.758
25.364	33.9155
25.382	34.1002
25.4	34.3141
25.418	34.5574
25.436	34.8238
25.454	35.1084
25.472	35.4153
25.49	35.7417
25.508	36.0831
25.526	36.4371
25.544	36.8058
25.562	37.1907
25.58	37.5928
25.598	38.0087
25.616	38.4416
25.634	38.8971
25.652	39.3782
25.67	39.8796
25.688	40.4072
25.706	40.9682
25.724	41.5626
25.742	42.1875
25.76	42.8474
25.778	43.5463
25.796	44.2838
25.814	45.0579
25.832	45.8677
25.85	46.7139
25.868	47.6002
25.886	48.5186
25.904	49.4599
25.922	50.4259
25.94	51.4217
25.958	52.431
25.976	53.4375
25.994	54.4532
26.012	55.4749
26.03	56.4795
26.048	57.4472
26.066	58.396
26.084	59.3169
26.102	60.1895
26.12	61.0021
26.138	61.7728
26.156	62.4863
26.174	63.1224
26.192	63.6743
26.21	64.1552
26.228	64.5548
26.246	64.8617
26.264	65.077
26.282	65.2057
26.3	65.2399
26.318	65.1716
26.336	65.0039
26.354	64.7387
26.372	64.3715
26.39	63.8985
26.408	63.3209
26.426	62.6406
26.444	61.8583
26.462	60.9743
26.48	59.9866
26.498	58.8985
26.516	57.7146
26.534	56.4366
26.552	55.0561
26.57	53.5844
26.588	52.0359
26.606	50.4175
26.624	48.7122
26.642	46.9388
26.66	45.1205
26.678	43.2657
26.696	41.3485
26.714	39.3992
26.732	37.4533
26.75	35.5229
26.768	33.5732
26.786	31.642
26.804	29.7724
26.822	27.9797
26.84	26.2237
26.858	24.544
26.876	22.9856
26.894	21.5665
26.912	20.2464
26.93	19.059
26.948	18.0434
26.966	17.2334
26.984	16.6172
27.002	16.1602
27.02	15.828
27.028	15.7247