File: Bakgrunnsmateriale/MATLAB/FTIR/ftir_data/subBb/Mapping_121/C-4040-8_t54_cm-1.asc
PE IR       SPECTRUM    SPECTRUM    ASCII       PEDS        1.60
  -1
C-1C6F~1.ASC
17/03/27
18:55:27.00
17/03/27
18:55:27.00
tln
$C-4040-8_t0054$<tbV0>[-10.4,-2.6,8.0,0.0,27,1,0]
370
64

2002,4.07
MIRTGS : RIGHTBACK : INTERNAL 2
MIR : ON : INTERNAL 2
OPTKBR

0.200000
8
8.000000
FILLER
RATIO
SPECTRUM
UNLOCKED 256

DOUBLE
64
COMBINED
1
0
0

1.000000
RATIO

1
0
TRUE
51149
0
LEFT NOT FITTED RIGHT NOT FITTED 0
NONE
NONE
15600
12
4.427000
51148
TRUE
1 0 8 72 0 0 0 0

15798

#HDR
-1
-1
#GR
CM-1
%T
2.38419e-05
0.0
5000
-1.000000
4631
8
101.718
31.8779
#DATA
5000	64.5466
4996	64.467
4992	64.7661
4988	65.361
4984	65.4102
4980	64.9066
4976	64.9513
4972	65.3551
4968	64.9791
4964	64.3411
4960	64.3668
4956	64.7674
4952	65.0636
4948	65.1443
4944	65.2298
4940	65.3658
4936	65.0232
4932	64.4457
4928	64.426
4924	64.6326
4920	64.7296
4916	64.8613
4912	64.836
4908	64.8272
4904	64.9485
4900	64.8069
4896	64.6842
4892	64.9016
4888	64.9352
4884	64.748
4880	64.5459
4876	64.2234
4872	64.3309
4868	64.6463
4864	64.4993
4860	64.3858
4856	64.5381
4852	64.815
4848	65.0917
4844	65.1406
4840	65.171
4836	65.3343
4832	65.2313
4828	64.9312
4824	64.8512
4820	64.8094
4816	64.6673
4812	64.5794
4808	64.6218
4804	64.6798
4800	64.6037
4796	64.478
4792	64.485
4788	64.6842
4784	65.0362
4780	65.2406
4776	64.9722
4772	64.5918
4768	64.5669
4764	64.5957
4760	64.4205
4756	64.4217
4752	64.5213
4748	64.5124
4744	64.6133
4740	64.6249
4736	64.5066
4732	64.4731
4728	64.5714
4724	64.816
4720	64.9688
4716	64.9246
4712	64.8955
4708	64.9186
4704	64.8859
4700	64.9384
4696	65.2014
4692	65.3655
4688	65.3398
4684	65.3165
4680	65.2484
4676	65.1005
4672	64.9171
4668	64.8672
4664	64.9571
4660	64.8854
4656	64.6916
4652	64.6055
4648	64.7576
4644	65.1061
4640	65.3952
4636	65.3639
4632	65.0303
4628	64.8089
4624	64.7713
4620	64.693
4616	64.7275
4612	64.8535
4608	64.7278
4604	64.6327
4600	64.8029
4596	64.8472
4592	64.7568
4588	64.8891
4584	65.2168
4580	65.2879
4576	65.1166
4572	65.0809
4568	65.0593
4564	64.9446
4560	64.8334
4556	64.7326
4552	64.82
4548	65.0187
4544	64.8532
4540	64.5033
4536	64.5249
4532	64.6511
4528	64.4553
4524	64.2666
4520	64.4408
4516	64.7335
4512	64.8514
4508	64.8814
4504	64.8275
4500	64.6658
4496	64.6682
4492	64.7656
4488	64.7929
4484	64.8549
4480	64.9308
4476	64.9435
4472	64.9192
4468	64.8724
4464	64.7847
4460	64.7121
4456	64.8299
4452	64.9935
4448	64.8045
4444	64.6136
4440	64.6732
4436	64.6213
4432	64.6456
4428	64.8152
4424	64.7558
4420	64.7319
4416	64.974
4412	65.2996
4408	65.3366
4404	64.8989
4400	64.4648
4396	64.2469
4392	64.0831
4388	64.2157
4384	64.3345
4380	64.4161
4376	64.6252
4372	65.1228
4368	65.5426
4364	61.2202
4360	56.0359
4356	62.2554
4352	76.196
4348	75.5208
4344	68.7598
4340	68.8155
4336	65.7351
4332	64.205
4328	65.3771
4324	64.9703
4320	65.1558
4316	65.3885
4312	65.1514
4308	64.8194
4304	64.7795
4300	64.8382
4296	64.8402
4292	64.6929
4288	64.4784
4284	64.5874
4280	64.8194
4276	64.8869
4272	64.9004
4268	64.9646
4264	64.8246
4260	64.4708
4256	64.3449
4252	64.2012
4248	63.9273
4244	63.9394
4240	64.1219
4236	64.4547
4232	64.7774
4228	64.7253
4224	64.6741
4220	64.8158
4216	64.7888
4212	64.577
4208	64.545
4204	64.7705
4200	64.8891
4196	64.7944
4192	64.7263
4188	64.342
4184	63.7278
4180	63.9171
4176	64.6489
4172	64.8096
4168	64.5268
4164	64.6932
4160	65.1199
4156	65.0653
4152	64.8879
4148	65.0195
4144	65.2843
4140	65.4125
4136	65.3024
4132	65.1296
4128	65.0225
4124	64.9861
4120	64.9896
4116	64.9519
4112	64.9049
4108	64.9184
4104	64.9565
4100	65.0353
4096	65.085
4092	65.1003
4088	65.2629
4084	65.346
4080	65.2262
4076	65.2299
4072	65.2961
4068	65.175
4064	65.0094
4060	64.9943
4056	65.0759
4052	65.1514
4048	65.1334
4044	65.0875
4040	65.1003
4036	65.1113
4032	65.1065
4028	65.0277
4024	64.9158
4020	65.0354
4016	65.2818
4012	65.3227
4008	65.2262
4004	65.1515
4000	65.1709
3996	65.2056
3992	65.2271
3988	65.2488
3984	65.1145
3980	64.9364
3976	64.9435
3972	65.1572
3968	65.3099
3964	65.1864
3960	65.0597
3956	65.1178
3952	65.1363
3948	65.0781
3944	65.0967
3940	65.0557
3936	64.8805
3932	64.8054
3928	64.7855
3924	64.7403
3920	64.8217
3916	64.9574
3912	65.0927
3908	65.0918
3904	64.8743
3900	64.812
3896	64.952
3892	65.0126
3888	65.0274
3884	65.0272
3880	65.0623
3876	65.2915
3872	65.4535
3868	65.3325
3864	65.0497
3860	64.7857
3856	64.7598
3852	64.837
3848	64.8926
3844	65.0297
3840	65.047
3836	64.8574
3832	64.6627
3828	64.5467
3824	64.7053
3820	65.0525
3816	65.1036
3812	64.9996
3808	65.1061
3804	65.2007
3800	65.0934
3796	65.0696
3792	65.1242
3788	65.0712
3784	65.1217
3780	65.2612
3776	65.2123
3772	65.054
3768	65.0409
3764	65.1515
3760	65.2048
3756	65.2188
3752	65.2551
3748	65.1942
3744	65.1389
3740	65.1533
3736	65.1506
3732	65.2466
3728	65.2517
3724	65.0348
3720	64.9414
3716	65.007
3712	65.0773
3708	65.1445
3704	65.1244
3700	65.1243
3696	65.2093
3692	65.1843
3688	65.1423
3684	65.1858
3680	65.1417
3676	65.0969
3672	65.1105
3668	65.0694
3664	65.069
3660	65.1339
3656	65.1904
3652	65.186
3648	65.0952
3644	65.0726
3640	65.135
3636	65.1296
3632	65.1166
3628	65.1415
3624	65.1611
3620	65.1569
3616	65.1288
3612	65.1657
3608	65.2159
3604	65.1508
3600	65.0674
3596	64.9997
3592	64.9541
3588	65.0363
3584	65.1373
3580	65.1951
3576	65.2438
3572	65.1629
3568	64.9765
3564	64.8786
3560	64.8438
3556	64.8503
3552	64.9384
3548	65.0019
3544	65.0395
3540	65.0993
3536	65.123
3532	65.123
3528	65.1761
3524	65.1917
3520	65.1409
3516	65.1024
3512	65.1051
3508	65.2113
3504	65.2958
3500	65.2033
3496	65.0529
3492	64.9742
3488	65.0646
3484	65.311
3480	65.3883
3476	65.1777
3472	65.0166
3468	65.0966
3464	65.2388
3460	65.3121
3456	65.3307
3452	65.2817
3448	65.1623
3444	65.0462
3440	65.0424
3436	65.1524
3432	65.2656
3428	65.3417
3424	65.3501
3420	65.2429
3416	65.1921
3412	65.2738
3408	65.2511
3404	65.079
3400	65.0181
3396	65.0781
3392	65.1551
3388	65.3176
3384	65.4051
3380	65.3515
3376	65.2661
3372	65.1665
3368	65.1339
3364	65.2233
3360	65.2962
3356	65.216
3352	65.1303
3348	65.1494
3344	65.2128
3340	65.2463
3336	65.2068
3332	65.1956
3328	65.2582
3324	65.3179
3320	65.3585
3316	65.3102
3312	65.1591
3308	65.0611
3304	65.007
3300	64.9602
3296	65.0162
3292	65.0759
3288	65.0613
3284	65.0559
3280	65.0192
3276	64.9814
3272	65.0202
3268	65.1184
3264	65.2515
3260	65.3637
3256	65.4216
3252	65.3798
3248	65.2683
3244	65.1572
3240	65.1124
3236	65.2235
3232	65.3856
3228	65.3513
3224	65.1152
3220	65.0337
3216	65.2368
3212	65.4115
3208	65.3696
3204	65.2328
3200	65.2364
3196	65.2931
3192	65.2023
3188	65.1146
3184	65.0669
3180	65.1295
3176	65.3184
3172	65.3195
3168	65.1553
3164	65.042
3160	65.0427
3156	65.1359
3152	65.2105
3148	65.1822
3144	65.0571
3140	65.0004
3136	65.1432
3132	65.2979
3128	65.1796
3124	64.905
3120	64.8553
3116	64.9524
3112	65.0477
3108	65.2239
3104	65.2985
3100	65.2625
3096	65.3073
3092	65.4123
3088	65.4427
3084	65.3116
3080	65.1722
3076	65.1501
3072	65.1974
3068	65.2264
3064	65.1779
3060	65.1715
3056	65.2737
3052	65.3312
3048	65.2468
3044	65.0602
3040	64.9005
3036	64.8842
3032	64.9578
3028	65.0542
3024	65.1541
3020	65.1945
3016	65.1854
3012	65.1684
3008	65.0747
3004	64.9545
3000	64.9756
2996	65.1124
2992	65.1816
2988	65.1641
2984	65.1884
2980	65.1763
2976	65.0804
2972	65.0612
2968	65.1254
2964	65.1538
2960	65.1365
2956	65.1235
2952	65.1075
2948	65.0919
2944	65.109
2940	65.1047
2936	65.0156
2932	64.8962
2928	64.8355
2924	64.7851
2920	64.7061
2916	64.7332
2912	64.9267
2908	65.1207
2904	65.1061
2900	64.9949
2896	64.9545
2892	64.9796
2888	65.0635
2884	65.1138
2880	65.1213
2876	65.1607
2872	65.1839
2868	65.1316
2864	65.0362
2860	64.9806
2856	64.9878
2852	64.9862
2848	65.0288
2844	65.1443
2840	65.1827
2836	65.1379
2832	65.1144
2828	65.1166
2824	65.1364
2820	65.1878
2816	65.1816
2812	65.1171
2808	65.1502
2804	65.2428
2800	65.2249
2796	65.0851
2792	64.9737
2788	64.9794
2784	65.0181
2780	65.093
2776	65.2182
2772	65.2573
2768	65.2558
2764	65.3347
2760	65.3269
2756	65.2184
2752	65.2041
2748	65.2206
2744	65.2194
2740	65.2425
2736	65.2592
2732	65.2463
2728	65.1979
2724	65.1648
2720	65.1395
2716	65.1179
2712	65.1618
2708	65.2311
2704	65.2671
2700	65.2363
2696	65.1736
2692	65.1488
2688	65.1567
2684	65.1724
2680	65.1497
2676	65.1618
2672	65.2857
2668	65.3519
2664	65.3206
2660	65.3127
2656	65.2992
2652	65.2926
2648	65.2875
2644	65.2464
2640	65.2315
2636	65.2408
2632	65.2395
2628	65.2411
2624	65.2704
2620	65.3049
2616	65.3554
2612	65.4141
2608	65.3903
2604	65.3305
2600	65.3116
2596	65.317
2592	65.3226
2588	65.3261
2584	65.3453
2580	65.3498
2576	65.3192
2572	65.266
2568	65.1928
2564	65.1578
2560	65.2498
2556	65.3875
2552	65.4009
2548	65.2914
2544	65.2049
2540	65.2234
2536	65.198
2532	65.0578
2528	65.003
2524	65.1426
2520	65.3273
2516	65.396
2512	65.3405
2508	65.2678
2504	65.2459
2500	65.1326
2496	64.9783
2492	65.0099
2488	65.2054
2484	65.4302
2480	65.4766
2476	65.3205
2472	65.1763
2468	65.1016
2464	65.094
2460	65.1818
2456	65.2105
2452	65.1324
2448	65.1132
2444	65.0975
2440	65.032
2436	65.1772
2432	65.4994
2428	65.6255
2424	65.462
2420	65.2427
2416	65.0963
2412	64.9383
2408	64.9187
2404	65.1483
2400	65.3322
2396	65.316
2392	65.2222
2388	65.1569
2384	65.1838
2380	65.2373
2376	65.2168
2372	65.2167
2368	65.2841
2364	65.3236
2360	65.298
2356	65.221
2352	65.1933
2348	65.2384
2344	65.2791
2340	65.2907
2336	65.293
2332	65.312
2328	65.2907
2324	65.2169
2320	65.1235
2316	65.0954
2312	65.1994
2308	65.3231
2304	65.3973
2300	65.4059
2296	65.3455
2292	65.3245
2288	65.3726
2284	65.3583
2280	65.263
2276	65.2313
2272	65.2862
2268	65.3185
2264	65.3059
2260	65.3032
2256	65.362
2252	65.4246
2248	65.4037
2244	65.3577
2240	65.3574
2236	65.378
2232	65.395
2228	65.4266
2224	65.3949
2220	65.2925
2216	65.2588
2212	65.2699
2208	65.2659
2204	65.2797
2200	65.275
2196	65.2848
2192	65.342
2188	65.3374
2184	65.286
2180	65.2466
2176	65.2145
2172	65.2013
2168	65.2168
2164	65.3068
2160	65.3916
2156	65.3747
2152	65.3713
2148	65.3272
2144	65.1758
2140	65.1721
2136	65.3032
2132	65.3062
2128	65.2414
2124	65.2392
2120	65.2153
2116	65.1596
2112	65.1538
2108	65.1854
2104	65.2511
2100	65.3319
2096	65.3309
2092	65.244
2088	65.1465
2084	65.1267
2080	65.214
2076	65.3474
2072	65.3702
2068	65.1361
2064	64.9517
2060	65.1168
2056	65.3412
2052	65.3821
2048	65.3523
2044	65.3028
2040	65.2138
2036	65.1708
2032	65.1964
2028	65.246
2024	65.2648
2020	65.165
2016	65.0836
2012	65.1744
2008	65.2553
2004	65.28
2000	65.3067
1996	65.272
1992	65.2559
1988	65.261
1984	65.2304
1980	65.2294
1976	65.2354
1972	65.2378
1968	65.2273
1964	65.2078
1960	65.2241
1956	65.2231
1952	65.2271
1948	65.278
1944	65.2848
1940	65.2492
1936	65.3047
1932	65.4011
1928	65.4122
1924	65.4058
1920	65.4121
1916	65.4042
1912	65.4113
1908	65.3479
1904	65.2255
1900	65.2213
1896	65.3146
1892	65.3699
1888	65.3522
1884	65.2967
1880	65.2544
1876	65.2359
1872	65.2195
1868	65.2224
1864	65.2713
1860	65.3214
1856	65.3063
1852	65.3044
1848	65.3539
1844	65.3332
1840	65.2529
1836	65.2351
1832	65.3134
1828	65.3867
1824	65.3894
1820	65.3644
1816	65.2697
1812	65.1633
1808	65.213
1804	65.3294
1800	65.3259
1796	65.2228
1792	65.1675
1788	65.1651
1784	65.1251
1780	65.1453
1776	65.2447
1772	65.2829
1768	65.2722
1764	65.2572
1760	65.2587
1756	65.294
1752	65.2772
1748	65.2104
1744	65.1571
1740	65.1003
1736	65.0732
1732	65.0611
1728	65.0142
1724	65.0056
1720	65.0385
1716	65.0488
1712	65.1153
1708	65.2761
1704	65.3661
1700	65.3417
1696	65.3038
1692	65.2302
1688	65.2115
1684	65.3029
1680	65.2974
1676	65.1986
1672	65.2022
1668	65.3082
1664	65.3214
1660	65.1891
1656	65.104
1652	65.1209
1648	65.1321
1644	65.1386
1640	65.1184
1636	65.0464
1632	65.06
1628	65.157
1624	65.1898
1620	65.1816
1616	65.1591
1612	65.0668
1608	65.0008
1604	65.0291
1600	65.0142
1596	64.947
1592	64.938
1588	64.9907
1584	65.0423
1580	65.0908
1576	65.1171
1572	65.0973
1568	65.0617
1564	64.9683
1560	64.8796
1556	64.9472
1552	65.0139
1548	64.9443
1544	64.9407
1540	65.0301
1536	65.0058
1532	64.9267
1528	64.9399
1524	64.9843
1520	65.0113
1516	65.0356
1512	65.0508
1508	65.0847
1504	65.1231
1500	65.113
1496	65.0663
1492	65.0399
1488	65.0876
1484	65.1069
1480	65.0292
1476	64.9656
1472	64.9741
1468	65.017
1464	65.039
1460	64.9472
1456	64.7235
1452	64.7189
1448	64.9881
1444	65.0965
1440	65.0513
1436	64.9594
1432	64.8391
1428	64.8557
1424	64.983
1420	65.0367
1416	65.0351
1412	65.0691
1408	65.0433
1404	65.0362
1400	65.1229
1396	65.1817
1392	65.2135
1388	65.2277
1384	65.1984
1380	65.1406
1376	65.0906
1372	65.011
1368	64.9404
1364	64.9475
1360	64.9959
1356	65.0682
1352	65.0697
1348	65.015
1344	65.0667
1340	65.136
1336	65.0764
1332	65.0207
1328	65.0852
1324	65.1493
1320	65.1288
1316	65.1064
1312	65.1822
1308	65.2679
1304	65.2475
1300	65.178
1296	65.0836
1292	65.0231
1288	65.0789
1284	65.1438
1280	65.1355
1276	65.1131
1272	65.0363
1268	64.9459
1264	64.9657
1260	65.0056
1256	65.0322
1252	65.0131
1248	64.9836
1244	65.0738
1240	65.0834
1236	64.9455
1232	64.9261
1228	65.0557
1224	65.1989
1220	65.3128
1216	65.2641
1212	65.1403
1208	65.1693
1204	65.1873
1200	65.0394
1196	64.8121
1192	64.8277
1188	65.0004
1184	64.8841
1180	64.7237
1176	64.841
1172	65.0735
1168	65.1647
1164	65.0218
1160	64.9488
1156	65.1835
1152	65.4242
1148	65.4676
1144	65.1964
1140	64.6379
1136	64.476
1132	64.8355
1128	65.0527
1124	65.0755
1120	65.1172
1116	65.0384
1112	64.8689
1108	64.7508
1104	64.7675
1100	64.8254
1096	64.6195
1092	64.4054
1088	64.6479
1084	64.8921
1080	64.7264
1076	64.5845
1072	64.682
1068	64.7799
1064	64.8425
1060	64.9455
1056	64.9709
1052	64.9246
1048	64.8273
1044	64.7143
1040	64.7282
1036	64.7391
1032	64.6567
1028	64.5636
1024	64.5066
1020	64.5021
1016	64.4825
1012	64.4783
1008	64.5283
1004	64.6317
1000	64.8459
996	 64.8953
992	 64.779
988	 64.8001
984	 64.8168
980	 64.7371
976	 64.6431
972	 64.6107
968	 64.6671
964	 64.6252
960	 64.4773
956	 64.4721
952	 64.5844
948	 64.6724
944	 64.6572
940	 64.5516
936	 64.5636
932	 64.7136
928	 64.7897
924	 64.7292
920	 64.6656
916	 64.6735
912	 64.6334
908	 64.6096
904	 64.6353
900	 64.5032
896	 64.3016
892	 64.2282
888	 64.3034
884	 64.435
880	 64.5404
876	 64.5725
872	 64.5176
868	 64.479
864	 64.4885
860	 64.5324
856	 64.571
852	 64.5355
848	 64.5136
844	 64.5543
840	 64.5674
836	 64.4773
832	 64.2943
828	 64.2693
824	 64.4192
820	 64.3939
816	 64.3349
812	 64.5067
808	 64.5961
804	 64.4763
800	 64.406
796	 64.2531
792	 63.9856
788	 63.9684
784	 64.1504
780	 64.2226
776	 64.2452
772	 64.2528
768	 64.1643
764	 64.0305
760	 63.8897
756	 63.9128
752	 64.2139
748	 64.4298
744	 64.1829
740	 63.9405
736	 63.939
732	 63.7561
728	 63.546
724	 63.4962
720	 63.5099
716	 63.6576
712	 63.7588
708	 63.7984
704	 63.9719
700	 63.9772
696	 63.6448
692	 63.3891
688	 63.4067
684	 63.3363
680	 63.1199
676	 63.0039
672	 62.9983
668	 63.0349
664	 63.0144
660	 63.1262
656	 63.3727
652	 63.3135
648	 63.016
644	 62.7026
640	 62.5386
636	 62.7656
632	 63.0544
628	 63.0127
624	 62.934
620	 63.0269
616	 63.2455
612	 63.3653
608	 63.1296
604	 62.8896
600	 62.8176
596	 62.7464
592	 62.6778
588	 62.398
584	 62.028
580	 62.0948
576	 62.1206
572	 61.7474
568	 61.6175
564	 61.7549
560	 61.9106
556	 62.2355
552	 62.445
548	 62.3278
544	 62.1509
540	 61.931
536	 61.8481
532	 61.9125
528	 62.0713
524	 62.3795
520	 61.9939
516	 61.2333
512	 61.4058
508	 61.9649
504	 61.9325
500	 61.5714
496	 61.2249
492	 61.3402
488	 61.7214
484	 61.2973
480	 60.6246
476	 60.5531
472	 60.7002
468	 60.8018
464	 60.4562
460	 59.75
456	 59.5647
452	 58.7958
448	 56.9957
444	 57.0974
440	 58.8362
436	 59.1615
432	 58.1962
428	 57.9839
424	 59.9237
420	 63.2188
416	 63.3645
412	 62.4377
408	 66.5038
404	 67.6412
400	 64.383
396	 77.1521
392	 91.6585
388	 76.8647
384	 55.5055
380	 79.6663
376	 100.331
372	 56.6193
370	 31.8779