File: Bakgrunnsmateriale/MATLAB/FTIR/ftir_data/subBb/Mapping_121/C-4040-8_t42_cm-1.asc
PE IR       SPECTRUM    SPECTRUM    ASCII       PEDS        1.60
  -1
C-9B64~1.ASC
17/03/27
17:53:07.00
17/03/27
17:53:07.00
tln
$C-4040-8_t0042$<tbV0>[-7.8,-5.2,8.0,0.0,27,1,0]
370
64

2002,4.07
MIRTGS : RIGHTBACK : INTERNAL 2
MIR : ON : INTERNAL 2
OPTKBR

0.200000
8
8.000000
FILLER
RATIO
SPECTRUM
UNLOCKED 256

DOUBLE
64
COMBINED
1
0
0

1.000000
RATIO

1
0
TRUE
51149
0
LEFT NOT FITTED RIGHT NOT FITTED 0
NONE
NONE
15600
12
4.427000
51148
TRUE
1 0 8 72 0 0 0 0

15798

#HDR
-1
-1
#GR
CM-1
%T
2.38419e-05
0.0
5000
-1.000000
4631
8
115.776
43.9062
#DATA
5000	64.7132
4996	64.6823
4992	64.7834
4988	64.6291
4984	64.1689
4980	63.899
4976	64.0554
4972	64.4842
4968	64.831
4964	64.5743
4960	64.1158
4956	64.1786
4952	64.4926
4948	64.5309
4944	64.3834
4940	64.6813
4936	65.0901
4932	64.9723
4928	64.8284
4924	64.9032
4920	64.9045
4916	64.7093
4912	64.505
4908	64.5652
4904	64.7032
4900	64.8056
4896	64.7849
4892	64.5782
4888	64.6145
4884	64.8554
4880	64.9677
4876	64.8772
4872	64.7037
4868	64.7828
4864	64.8705
4860	64.6394
4856	64.5138
4852	64.5051
4848	64.4543
4844	64.5543
4840	64.5719
4836	64.5731
4832	64.7086
4828	64.7413
4824	64.7815
4820	64.7988
4816	64.6432
4812	64.4931
4808	64.3614
4804	64.2759
4800	64.3518
4796	64.4539
4792	64.5269
4788	64.6683
4784	64.8153
4780	64.7483
4776	64.4823
4772	64.3613
4768	64.5999
4764	64.9271
4760	64.9225
4756	64.6812
4752	64.6033
4748	64.7751
4744	64.9417
4740	64.9585
4736	64.8789
4732	64.6958
4728	64.4831
4724	64.4134
4720	64.5076
4716	64.7259
4712	64.8628
4708	64.8244
4704	64.8033
4700	64.7931
4696	64.7383
4692	64.6548
4688	64.5932
4684	64.5441
4680	64.4457
4676	64.4376
4672	64.4418
4668	64.3994
4664	64.5982
4660	65.0406
4656	65.2251
4652	64.8653
4648	64.5923
4644	64.7476
4640	64.9145
4636	64.9107
4632	64.8729
4628	64.7261
4624	64.5396
4620	64.5642
4616	64.5656
4612	64.7105
4608	64.976
4604	64.9167
4600	64.7753
4596	64.6372
4592	64.4502
4588	64.3961
4584	64.4726
4580	64.6056
4576	64.7112
4572	64.6395
4568	64.4728
4564	64.5048
4560	64.6576
4556	64.7504
4552	64.9305
4548	65.0556
4544	64.788
4540	64.4714
4536	64.5897
4532	64.7194
4528	64.4163
4524	64.2773
4520	64.6183
4516	64.7979
4512	64.7017
4508	64.5118
4504	64.3029
4500	64.3636
4496	64.5962
4492	64.6912
4488	64.6761
4484	64.5481
4480	64.4331
4476	64.4603
4472	64.3809
4468	64.2733
4464	64.3156
4460	64.5217
4456	64.6702
4452	64.3623
4448	64.0194
4444	64.1276
4440	64.4385
4436	64.5673
4432	64.4951
4428	64.3755
4424	64.1767
4420	64.1025
4416	64.1285
4412	64.0507
4408	64.1329
4404	64.3124
4400	64.3852
4396	64.8225
4392	65.0582
4388	65.5893
4384	65.059
4380	63.3724
4376	64.7299
4372	65.9925
4368	63.9513
4364	63.0471
4360	63.8393
4356	65.2459
4352	72.0925
4348	74.866
4344	66.5145
4340	61.5726
4336	61.9785
4332	62.4041
4328	63.6581
4324	64.5302
4320	64.6205
4316	64.6528
4312	64.7051
4308	64.4532
4304	64.4305
4300	64.6282
4296	64.5427
4292	64.5982
4288	64.8112
4284	64.58
4280	64.2289
4276	64.2778
4272	64.3937
4268	64.2872
4264	64.1814
4260	64.1952
4256	64.2601
4252	64.3505
4248	64.4543
4244	64.5232
4240	64.4985
4236	64.4904
4232	64.4882
4228	64.4164
4224	64.3962
4220	64.4359
4216	64.4069
4212	64.2897
4208	64.2996
4204	64.521
4200	64.6301
4196	64.3383
4192	64.0566
4188	64.1538
4184	64.4955
4180	64.8623
4176	64.9061
4172	64.679
4168	64.5223
4164	64.5966
4160	64.7695
4156	64.6235
4152	64.3628
4148	64.4328
4144	64.4725
4140	64.2477
4136	64.1616
4132	64.2309
4128	64.2328
4124	64.2634
4120	64.3663
4116	64.5089
4112	64.4236
4108	64.1101
4104	64.1039
4100	64.3559
4096	64.5675
4092	64.7012
4088	64.634
4084	64.5021
4080	64.4496
4076	64.4738
4072	64.5466
4068	64.4879
4064	64.3373
4060	64.3045
4056	64.3538
4052	64.363
4048	64.3685
4044	64.426
4040	64.4231
4036	64.3161
4032	64.3257
4028	64.4313
4024	64.4032
4020	64.352
4016	64.4274
4012	64.5007
4008	64.4589
4004	64.4023
4000	64.4148
3996	64.4012
3992	64.3048
3988	64.2162
3984	64.2862
3980	64.4399
3976	64.4675
3972	64.4027
3968	64.361
3964	64.3011
3960	64.1614
3956	63.9922
3952	63.8978
3948	63.973
3944	64.2129
3940	64.4122
3936	64.328
3932	64.1367
3928	64.1747
3924	64.2941
3920	64.2481
3916	64.1787
3912	64.1629
3908	64.1731
3904	64.2904
3900	64.3317
3896	64.2207
3892	64.2237
3888	64.3586
3884	64.4935
3880	64.6309
3876	64.634
3872	64.3979
3868	64.1927
3864	64.2245
3860	64.3963
3856	64.55
3852	64.5524
3848	64.4687
3844	64.5153
3840	64.606
3836	64.4932
3832	64.2333
3828	64.185
3824	64.435
3820	64.6112
3816	64.5385
3812	64.3358
3808	64.1697
3804	64.2241
3800	64.3702
3796	64.2755
3792	64.0826
3788	64.1066
3784	64.299
3780	64.4525
3776	64.409
3772	64.2725
3768	64.2762
3764	64.3603
3760	64.3606
3756	64.3711
3752	64.4386
3748	64.4139
3744	64.296
3740	64.2469
3736	64.2575
3732	64.2791
3728	64.3853
3724	64.4628
3720	64.4169
3716	64.4044
3712	64.4687
3708	64.4737
3704	64.3913
3700	64.3498
3696	64.3614
3692	64.2911
3688	64.2051
3684	64.1973
3680	64.1752
3676	64.114
3672	64.0893
3668	64.1148
3664	64.1347
3660	64.1598
3656	64.2269
3652	64.2767
3648	64.3055
3644	64.3267
3640	64.2246
3636	64.1195
3632	64.2184
3628	64.3152
3624	64.2484
3620	64.1842
3616	64.1885
3612	64.1817
3608	64.1463
3604	64.1165
3600	64.1283
3596	64.1497
3592	64.164
3588	64.2469
3584	64.3488
3580	64.3532
3576	64.3182
3572	64.273
3568	64.1703
3564	64.0357
3560	63.9783
3556	64.0797
3552	64.1124
3548	64.0004
3544	63.9549
3540	63.9814
3536	64.0177
3532	64.0836
3528	64.214
3524	64.3106
3520	64.2454
3516	64.179
3512	64.1938
3508	64.1532
3504	64.1031
3500	64.1457
3496	64.1824
3492	64.1658
3488	64.1502
3484	64.125
3480	64.0773
3476	64.001
3472	63.8458
3468	63.7519
3464	63.8546
3460	63.9545
3456	64.0054
3452	64.0396
3448	64.0049
3444	64.0267
3440	64.0677
3436	64.0388
3432	64.0669
3428	64.0672
3424	63.8945
3420	63.7246
3416	63.6942
3412	63.785
3408	63.8909
3404	63.8776
3400	63.8096
3396	63.8224
3392	63.866
3388	63.8497
3384	63.8167
3380	63.7353
3376	63.6394
3372	63.6943
3368	63.7923
3364	63.7692
3360	63.7916
3356	63.9467
3352	63.934
3348	63.7445
3344	63.744
3340	63.8854
3336	63.8826
3332	63.7444
3328	63.6554
3324	63.6968
3320	63.7804
3316	63.8111
3312	63.7535
3308	63.712
3304	63.7201
3300	63.7136
3296	63.7187
3292	63.7594
3288	63.8199
3284	63.7831
3280	63.6667
3276	63.6435
3272	63.6482
3268	63.5972
3264	63.6073
3260	63.6709
3256	63.6553
3252	63.6475
3248	63.7037
3244	63.7099
3240	63.703
3236	63.7315
3232	63.7572
3228	63.7588
3224	63.7045
3220	63.6282
3216	63.5118
3212	63.3373
3208	63.3185
3204	63.5302
3200	63.7228
3196	63.7335
3192	63.7652
3188	63.8672
3184	63.7763
3180	63.5582
3176	63.3894
3172	63.3569
3168	63.5365
3164	63.7432
3160	63.7105
3156	63.5091
3152	63.4446
3148	63.4624
3144	63.3532
3140	63.3096
3136	63.437
3132	63.3895
3128	63.2114
3124	63.2976
3120	63.5346
3116	63.7238
3112	63.7823
3108	63.6525
3104	63.5223
3100	63.4896
3096	63.5193
3092	63.5396
3088	63.4615
3084	63.3452
3080	63.3183
3076	63.3531
3072	63.4039
3068	63.4721
3064	63.459
3060	63.3739
3056	63.3365
3052	63.3371
3048	63.3503
3044	63.4013
3040	63.4486
3036	63.4311
3032	63.3494
3028	63.2877
3024	63.2689
3020	63.2863
3016	63.3147
3012	63.3158
3008	63.3067
3004	63.2744
3000	63.2624
2996	63.3059
2992	63.3695
2988	63.3359
2984	63.1893
2980	63.1396
2976	63.2113
2972	63.3035
2968	63.3595
2964	63.2492
2960	63.0391
2956	62.945
2952	63.0077
2948	63.1033
2944	63.1202
2940	63.0555
2936	62.9821
2932	62.9234
2928	62.8397
2924	62.7568
2920	62.7736
2916	62.886
2912	62.9601
2908	62.9443
2904	62.879
2900	62.8855
2896	63.0378
2892	63.1421
2888	63.0822
2884	62.9189
2880	62.7804
2876	62.8597
2872	62.9983
2868	62.9928
2864	62.9399
2860	62.8953
2856	62.831
2852	62.7546
2848	62.7834
2844	62.9532
2840	63.0865
2836	63.072
2832	62.9757
2828	62.8685
2824	62.8119
2820	62.8861
2816	62.9695
2812	62.9782
2808	63.0037
2804	62.9692
2800	62.8904
2796	62.8891
2792	62.9358
2788	62.9784
2784	63.0145
2780	62.9971
2776	62.8998
2772	62.8139
2768	62.7997
2764	62.7891
2760	62.708
2756	62.6446
2752	62.6982
2748	62.8092
2744	62.8665
2740	62.7851
2736	62.675
2732	62.6896
2728	62.7767
2724	62.8127
2720	62.7857
2716	62.74
2712	62.711
2708	62.7251
2704	62.7215
2700	62.6576
2696	62.6207
2692	62.6378
2688	62.6312
2684	62.6277
2680	62.6739
2676	62.7044
2672	62.7044
2668	62.6949
2664	62.6529
2660	62.5547
2656	62.4757
2652	62.5235
2648	62.5625
2644	62.4888
2640	62.4609
2636	62.5408
2632	62.579
2628	62.4971
2624	62.4319
2620	62.4453
2616	62.4135
2612	62.3466
2608	62.3748
2604	62.4665
2600	62.4912
2596	62.4454
2592	62.4079
2588	62.4087
2584	62.4212
2580	62.3823
2576	62.3543
2572	62.4102
2568	62.4261
2564	62.3918
2560	62.3547
2556	62.3112
2552	62.3264
2548	62.3912
2544	62.4053
2540	62.3656
2536	62.3364
2532	62.3402
2528	62.326
2524	62.3158
2520	62.3157
2516	62.2616
2512	62.13
2508	61.9745
2504	61.991
2500	62.1238
2496	62.0886
2492	61.962
2488	62.0054
2484	62.1741
2480	62.2729
2476	62.2673
2472	62.2018
2468	62.1439
2464	62.132
2460	62.1035
2456	62.0482
2452	61.9884
2448	61.9345
2444	61.9306
2440	61.8894
2436	61.7939
2432	61.8306
2428	61.9349
2424	61.9861
2420	62.0256
2416	62.0654
2412	62.0794
2408	62.0237
2404	62.0031
2400	62.0469
2396	62.0319
2392	61.9977
2388	61.9392
2384	61.8246
2380	61.7636
2376	61.7763
2372	61.8414
2368	61.9019
2364	61.8884
2360	61.8188
2356	61.772
2352	61.8248
2348	61.8945
2344	61.8814
2340	61.8181
2336	61.736
2332	61.6358
2328	61.5757
2324	61.6151
2320	61.6828
2316	61.6911
2312	61.6778
2308	61.6815
2304	61.6638
2300	61.6055
2296	61.5511
2292	61.5236
2288	61.5408
2284	61.5727
2280	61.5427
2276	61.4893
2272	61.4779
2268	61.5107
2264	61.5092
2260	61.4651
2256	61.4534
2252	61.4424
2248	61.3631
2244	61.2893
2240	61.3166
2236	61.4112
2232	61.4968
2228	61.457
2224	61.3358
2220	61.3129
2216	61.3665
2212	61.4217
2208	61.4551
2204	61.4431
2200	61.429
2196	61.4491
2192	61.4638
2188	61.4258
2184	61.4057
2180	61.449
2176	61.4182
2172	61.3168
2168	61.3289
2164	61.4338
2160	61.4201
2156	61.1997
2152	60.9936
2148	61.0033
2144	61.0934
2140	61.1855
2136	61.298
2132	61.322
2128	61.2325
2124	61.1218
2120	61.0647
2116	61.0684
2112	61.0928
2108	61.1099
2104	61.112
2100	61.0716
2096	61.0146
2092	61.0234
2088	61.0682
2084	61.0709
2080	61.0448
2076	61.0231
2072	60.938
2068	60.8314
2064	60.867
2060	60.9649
2056	60.9185
2052	60.7842
2048	60.7559
2044	60.8298
2040	60.8366
2036	60.7391
2032	60.7123
2028	60.7599
2024	60.7774
2020	60.8192
2016	60.8909
2012	60.9205
2008	60.8613
2004	60.7585
2000	60.7257
1996	60.7727
1992	60.8046
1988	60.7806
1984	60.7392
1980	60.7052
1976	60.7
1972	60.6879
1968	60.6278
1964	60.6036
1960	60.6485
1956	60.7013
1952	60.6909
1948	60.5801
1944	60.4916
1940	60.5342
1936	60.5994
1932	60.5925
1928	60.5471
1924	60.5224
1920	60.5136
1916	60.4904
1912	60.4782
1908	60.4384
1904	60.3763
1900	60.3344
1896	60.2856
1892	60.2553
1888	60.2849
1884	60.3375
1880	60.3238
1876	60.2607
1872	60.2411
1868	60.2865
1864	60.351
1860	60.3423
1856	60.2828
1852	60.2714
1848	60.2617
1844	60.2548
1840	60.2946
1836	60.2898
1832	60.231
1828	60.2013
1824	60.1692
1820	60.1166
1816	60.1131
1812	60.1204
1808	60.0679
1804	59.9954
1800	59.9779
1796	60.0008
1792	60.0043
1788	59.9823
1784	59.9222
1780	59.8866
1776	59.9141
1772	59.9257
1768	59.8929
1764	59.8004
1760	59.693
1756	59.6695
1752	59.7532
1748	59.872
1744	59.8898
1740	59.8059
1736	59.7301
1732	59.6811
1728	59.6469
1724	59.5853
1720	59.4846
1716	59.4603
1712	59.5658
1708	59.6818
1704	59.7293
1700	59.715
1696	59.6638
1692	59.6543
1688	59.6606
1684	59.6506
1680	59.654
1676	59.6553
1672	59.658
1668	59.6482
1664	59.6083
1660	59.5785
1656	59.4967
1652	59.344
1648	59.3377
1644	59.4794
1640	59.5621
1636	59.5123
1632	59.4267
1628	59.4185
1624	59.3947
1620	59.3029
1616	59.2968
1612	59.3716
1608	59.3666
1604	59.273
1600	59.1837
1596	59.1582
1592	59.1906
1588	59.2645
1584	59.3642
1580	59.4084
1576	59.3271
1572	59.1866
1568	59.0828
1564	59.1012
1560	59.2074
1556	59.1828
1552	59.0566
1548	58.992
1544	58.9853
1540	58.9856
1536	58.963
1532	58.9558
1528	58.9864
1524	59.0081
1520	58.9679
1516	58.9063
1512	58.8957
1508	58.8805
1504	58.859
1500	58.8858
1496	58.9399
1492	58.972
1488	58.9602
1484	58.9211
1480	58.8639
1476	58.8096
1472	58.7581
1468	58.7483
1464	58.7857
1460	58.8057
1456	58.7637
1452	58.6755
1448	58.6845
1444	58.7458
1440	58.6853
1436	58.5804
1432	58.5148
1428	58.46
1424	58.4959
1420	58.6298
1416	58.7032
1412	58.658
1408	58.5648
1404	58.512
1400	58.4977
1396	58.4804
1392	58.4801
1388	58.4842
1384	58.4768
1380	58.5045
1376	58.5367
1372	58.4964
1368	58.4157
1364	58.3983
1360	58.4673
1356	58.4816
1352	58.4146
1348	58.3197
1344	58.2155
1340	58.2086
1336	58.2336
1332	58.1507
1328	58.0979
1324	58.1376
1320	58.1049
1316	58.0387
1312	58.0235
1308	58.0427
1304	58.1231
1300	58.1859
1296	58.1879
1292	58.1595
1288	58.0543
1284	57.9672
1280	58.0141
1276	58.0779
1272	58.0646
1268	58.0511
1264	58.0456
1260	58.0315
1256	58.0183
1252	57.9967
1248	57.9998
1244	57.9669
1240	57.8548
1236	57.8262
1232	57.8917
1228	57.8672
1224	57.8019
1220	57.8066
1216	57.8053
1212	57.7722
1208	57.7051
1204	57.5763
1200	57.5744
1196	57.7424
1192	57.7217
1188	57.5256
1184	57.5442
1180	57.6362
1176	57.4487
1172	57.2785
1168	57.4232
1164	57.605
1160	57.5861
1156	57.5083
1152	57.5319
1148	57.5432
1144	57.4893
1140	57.4634
1136	57.4856
1132	57.5505
1128	57.5023
1124	57.3084
1120	57.2588
1116	57.3668
1112	57.298
1108	57.0857
1104	57.0365
1100	57.0957
1096	57.1962
1092	57.3932
1088	57.5228
1084	57.5141
1080	57.5588
1076	57.5215
1072	57.2468
1068	57.0579
1064	57.0132
1060	56.9403
1056	56.9081
1052	56.9518
1048	57.0308
1044	57.0301
1040	56.9067
1036	56.921
1032	57.0692
1028	57.0543
1024	56.9407
1020	56.8838
1016	56.8743
1012	56.961
1008	56.9832
1004	56.8123
1000	56.6349
996	 56.5026
992	 56.5076
988	 56.7079
984	 56.7323
980	 56.5306
976	 56.4469
972	 56.4054
968	 56.3078
964	 56.3448
960	 56.4903
956	 56.5846
952	 56.549
948	 56.4136
944	 56.3183
940	 56.2075
936	 56.1355
932	 56.2242
928	 56.2258
924	 56.1844
920	 56.2891
916	 56.3896
912	 56.3663
908	 56.2767
904	 56.2407
900	 56.1932
896	 56.1378
892	 56.1562
888	 56.1446
884	 56.1174
880	 56.1517
876	 56.126
872	 55.9264
868	 55.7353
864	 55.7936
860	 55.9378
856	 55.9524
852	 55.9448
848	 55.9282
844	 55.739
840	 55.5329
836	 55.6006
832	 55.699
828	 55.6215
824	 55.6919
820	 55.7534
816	 55.5085
812	 55.3344
808	 55.4687
804	 55.6386
800	 55.5702
796	 55.4376
792	 55.4171
788	 55.3318
784	 55.109
780	 54.9865
776	 54.9874
772	 54.8904
768	 54.7776
764	 54.9042
760	 55.0721
756	 54.8844
752	 54.5235
748	 54.4476
744	 54.6971
740	 54.7152
736	 54.3666
732	 54.2857
728	 54.4468
724	 54.3721
720	 54.2225
716	 54.2038
712	 54.2344
708	 54.4421
704	 54.6774
700	 54.549
696	 54.1768
692	 53.93
688	 53.9362
684	 54.0444
680	 54.0693
676	 54.0144
672	 54.0791
668	 54.1969
664	 54.0654
660	 53.8841
656	 53.8291
652	 53.7102
648	 53.5726
644	 53.4107
640	 53.2264
636	 53.2997
632	 53.5892
628	 53.7751
624	 53.7526
620	 53.5784
616	 53.3255
612	 53.1511
608	 53.185
604	 53.279
600	 53.1507
596	 52.8461
592	 52.7461
588	 52.7906
584	 52.7229
580	 52.5178
576	 52.1091
572	 51.8943
568	 52.0902
564	 52.2653
560	 52.3186
556	 52.4022
552	 52.5928
548	 52.6507
544	 52.5044
540	 52.346
536	 52.0884
532	 51.7318
528	 51.6827
524	 52.067
520	 52.2831
516	 51.9729
512	 51.4734
508	 51.3054
504	 51.3219
500	 50.8529
496	 50.1188
492	 50.1532
488	 50.9373
484	 51.2038
480	 50.6595
476	 50.1443
472	 50.0238
468	 50.6
464	 51.7201
460	 51.5133
456	 49.7191
452	 48.4244
448	 48.3422
444	 48.8552
440	 48.3156
436	 47.5246
432	 49.1465
428	 50.774
424	 49.0165
420	 45.5586
416	 45.664
412	 49.6743
408	 50.8258
404	 48.3483
400	 52.6756
396	 74.9395
392	 109.171
388	 107.685
384	 70.6141
380	 46.1623
376	 50.3423
372	 72.8433
370	 81.1591