File: Bakgrunnsmateriale/MATLAB/FTIR/ftir_data/subBb/Mapping_121/C-4040-8_t75_cm-1.asc
PE IR       SPECTRUM    SPECTRUM    ASCII       PEDS        1.60
  -1
C-1DEE~1.ASC
17/03/27
20:39:43.00
17/03/27
20:39:43.00
tln
$C-4040-8_t0075$<tbV0>[-7.8,2.6,8.0,0.0,27,1,0]
370
64

2002,4.07
MIRTGS : RIGHTBACK : INTERNAL 2
MIR : ON : INTERNAL 2
OPTKBR

0.200000
8
8.000000
FILLER
RATIO
SPECTRUM
UNLOCKED 256

DOUBLE
64
COMBINED
1
0
0

1.000000
RATIO

1
0
TRUE
51149
0
LEFT NOT FITTED RIGHT NOT FITTED 0
NONE
NONE
15600
12
4.427000
51148
TRUE
1 0 8 72 0 0 0 0

15798

#HDR
-1
-1
#GR
CM-1
%T
2.38419e-05
0.0
5000
-1.000000
4631
8
79.8965
29.4175
#DATA
5000	65.2743
4996	64.8691
4992	64.4204
4988	64.275
4984	64.5983
4980	64.9845
4976	65.1013
4972	64.9054
4968	64.5141
4964	64.4865
4960	65.2494
4956	66.0989
4952	66.2722
4948	65.8086
4944	65.146
4940	64.7899
4936	64.6171
4932	64.5293
4928	64.5838
4924	64.6075
4920	64.5544
4916	64.6023
4912	64.9589
4908	65.2928
4904	65.243
4900	64.9973
4896	64.8514
4892	64.8463
4888	64.7645
4884	65.0781
4880	65.7801
4876	65.9855
4872	65.6437
4868	65.047
4864	64.7711
4860	64.9962
4856	65.1083
4852	64.9125
4848	64.8443
4844	64.9358
4840	64.9865
4836	65.148
4832	65.1937
4828	65.0189
4824	64.9979
4820	65.0547
4816	64.9845
4812	65.0962
4808	65.3659
4804	65.321
4800	64.9576
4796	64.5887
4792	64.35
4788	64.3896
4784	64.7337
4780	64.966
4776	64.8689
4772	64.7852
4768	64.8633
4764	64.9113
4760	64.8429
4756	64.6742
4752	64.5185
4748	64.4783
4744	64.547
4740	64.7869
4736	65.0806
4732	65.206
4728	65.254
4724	65.2494
4720	65.2426
4716	65.1931
4712	65.0699
4708	65.1513
4704	65.0974
4700	64.864
4696	65.0698
4692	65.355
4688	65.219
4684	64.9679
4680	64.9515
4676	65.1149
4672	65.2728
4668	65.4027
4664	65.3931
4660	65.3212
4656	65.3537
4652	65.3888
4648	65.1847
4644	64.8187
4640	64.7427
4636	64.9502
4632	65.1099
4628	65.0741
4624	64.9817
4620	64.9302
4616	64.9076
4612	65.0604
4608	65.2894
4604	65.272
4600	65.065
4596	64.9332
4592	64.8609
4588	64.7
4584	64.6177
4580	64.8515
4576	65.1071
4572	65.1182
4568	64.9928
4564	64.839
4560	64.7954
4556	64.8433
4552	64.987
4548	65.1984
4544	65.1476
4540	64.9009
4536	64.7629
4532	64.9902
4528	65.3667
4524	65.2146
4520	64.8818
4516	64.8003
4512	64.8086
4508	64.8015
4504	64.7
4500	64.6406
4496	64.7736
4492	65.0691
4488	65.2358
4484	65.1654
4480	64.9678
4476	64.7174
4472	64.6865
4468	64.939
4464	65.0602
4460	64.8809
4456	64.717
4452	64.7737
4448	64.8776
4444	64.9857
4440	65.0997
4436	64.8719
4432	64.4639
4428	64.344
4424	64.3284
4420	64.2497
4416	64.0085
4412	63.8718
4408	63.742
4404	63.7092
4400	64.3071
4396	64.7375
4392	63.4648
4388	62.9026
4384	74.4578
4380	78.567
4376	68.3291
4372	66.8761
4368	66.6417
4364	64.941
4360	64.1555
4356	64.3389
4352	64.9449
4348	65.3531
4344	65.6303
4340	65.5942
4336	65.243
4332	64.9367
4328	65.0109
4324	65.3191
4320	65.3299
4316	65.1038
4312	64.968
4308	64.9103
4304	64.9093
4300	65.0649
4296	65.1248
4292	64.9063
4288	64.8208
4284	64.9333
4280	65.0432
4276	65.0849
4272	64.9959
4268	64.8446
4264	64.7654
4260	64.8674
4256	65.0684
4252	65.1946
4248	65.222
4244	65.1687
4240	65.0249
4236	64.8937
4232	64.8738
4228	64.9454
4224	64.9607
4220	64.8477
4216	64.8095
4212	64.9508
4208	65.1386
4204	65.1867
4200	64.9156
4196	64.4216
4192	64.2229
4188	64.4741
4184	64.8338
4180	64.9594
4176	64.8809
4172	64.9116
4168	64.9601
4164	65.0509
4160	65.2478
4156	65.3333
4152	65.2861
4148	65.2165
4144	65.1593
4140	65.0021
4136	64.7718
4132	64.669
4128	64.712
4124	64.8458
4120	64.9556
4116	64.9924
4112	65.1062
4108	65.2408
4104	65.2069
4100	65.082
4096	65.075
4092	65.1117
4088	65.1182
4084	65.1593
4080	65.129
4076	64.9987
4072	64.9355
4068	64.9766
4064	64.9993
4060	65.0436
4056	65.0956
4052	64.9934
4048	64.8853
4044	64.9869
4040	65.1953
4036	65.2731
4032	65.2175
4028	65.178
4024	65.1083
4020	65.0573
4016	65.1854
4012	65.2965
4008	65.1661
4004	64.9701
4000	64.9445
3996	64.9571
3992	64.9265
3988	65.0217
3984	65.1394
3980	65.2366
3976	65.298
3972	65.2052
3968	65.1503
3964	65.1616
3960	65.1287
3956	65.1045
3952	65.0306
3948	64.9725
3944	65.0003
3940	64.9467
3936	64.905
3932	65.0074
3928	65.0166
3924	64.9192
3920	64.9624
3916	65.0549
3912	65.099
3908	65.1546
3904	65.2323
3900	65.28
3896	65.1139
3892	65.0096
3888	65.2111
3884	65.2324
3880	64.9463
3876	64.8026
3872	64.9382
3868	65.1393
3864	65.1834
3860	64.9921
3856	64.8198
3852	64.8875
3848	65.0173
3844	65.0811
3840	64.9751
3836	64.8483
3832	65.0251
3828	65.1651
3824	65.1515
3820	65.3599
3816	65.5239
3812	65.31
3808	65.0615
3804	65.0451
3800	65.1139
3796	65.0408
3792	64.858
3788	64.8383
3784	65.0273
3780	65.1234
3776	64.9986
3772	64.9616
3768	65.1031
3764	65.2212
3760	65.2593
3756	65.2397
3752	65.2152
3748	65.2378
3744	65.2301
3740	65.1407
3736	64.9768
3732	64.815
3728	64.8615
3724	65.0369
3720	65.0656
3716	65.0045
3712	65.0259
3708	65.064
3704	65.088
3700	65.0878
3696	65.0016
3692	64.9289
3688	64.9273
3684	65.033
3680	65.1341
3676	65.0522
3672	64.9802
3668	65.0666
3664	65.2801
3660	65.449
3656	65.3691
3652	65.1883
3648	65.1303
3644	65.1681
3640	65.1619
3636	65.0845
3632	65.0135
3628	65.0432
3624	65.1659
3620	65.3173
3616	65.4594
3612	65.4616
3608	65.2914
3604	65.143
3600	65.1411
3596	65.2211
3592	65.2044
3588	65.107
3584	65.1369
3580	65.2513
3576	65.3465
3572	65.3589
3568	65.2344
3564	65.0954
3560	65.0676
3556	65.0843
3552	65.0444
3548	64.9801
3544	64.9798
3540	65.0742
3536	65.1694
3532	65.2051
3528	65.2224
3524	65.2066
3520	65.242
3516	65.3845
3512	65.3556
3508	65.1772
3504	65.1859
3500	65.3026
3496	65.3208
3492	65.2649
3488	65.2019
3484	65.2327
3480	65.402
3476	65.5299
3472	65.3291
3468	64.9938
3464	65.0148
3460	65.2296
3456	65.2438
3452	65.098
3448	65.0078
3444	65.1352
3440	65.3281
3436	65.3592
3432	65.206
3428	64.9426
3424	64.862
3420	65.0458
3416	65.2766
3412	65.3332
3408	65.2259
3404	65.186
3400	65.1883
3396	65.1267
3392	65.0799
3388	65.1209
3384	65.1346
3380	65.0714
3376	65.0392
3372	64.9838
3368	64.9418
3364	65.0684
3360	65.2006
3356	65.0996
3352	64.9198
3348	64.9177
3344	65.03
3340	65.1166
3336	65.1405
3332	65.1213
3328	65.1063
3324	65.1268
3320	65.1566
3316	65.0783
3312	64.98
3308	65.0308
3304	65.1039
3300	65.1265
3296	65.1725
3292	65.1964
3288	65.1214
3284	65.027
3280	65.0609
3276	65.1283
3272	65.0905
3268	65.0892
3264	65.1139
3260	64.9835
3256	64.8883
3252	64.9934
3248	65.1009
3244	65.1115
3240	65.1036
3236	65.155
3232	65.205
3228	65.1895
3224	65.1391
3220	65.0624
3216	65.0627
3212	65.1192
3208	65.1241
3204	65.1417
3200	65.1897
3196	65.2404
3192	65.2982
3188	65.3079
3184	65.2818
3180	65.2481
3176	65.1999
3172	65.184
3168	65.1744
3164	65.188
3160	65.2145
3156	65.1693
3152	65.1193
3148	65.1723
3144	65.334
3140	65.3938
3136	65.3088
3132	65.2833
3128	65.1958
3124	64.975
3120	64.8481
3116	64.9128
3112	65.1112
3108	65.2982
3104	65.3278
3100	65.2399
3096	65.1969
3092	65.1982
3088	65.1053
3084	64.9577
3080	64.9047
3076	64.9755
3072	65.1055
3068	65.2103
3064	65.2159
3060	65.1576
3056	65.106
3052	65.0643
3048	65.0103
3044	64.974
3040	64.9994
3036	65.0849
3032	65.2082
3028	65.2318
3024	65.2092
3020	65.2015
3016	65.1274
3012	65.055
3008	64.9891
3004	64.9179
3000	64.9209
2996	65.0327
2992	65.1102
2988	65.0426
2984	64.9919
2980	65.0387
2976	64.9741
2972	64.7937
2968	64.7856
2964	64.9371
2960	65.0131
2956	64.9882
2952	64.929
2948	64.9228
2944	65.0113
2940	65.0708
2936	64.9988
2932	64.8168
2928	64.6588
2924	64.6114
2920	64.5804
2916	64.6535
2912	64.8904
2908	65.062
2904	65.097
2900	65.098
2896	65.0641
2892	65.024
2888	65.0146
2884	64.964
2880	64.8937
2876	64.8707
2872	64.9674
2868	65.1723
2864	65.2882
2860	65.2032
2856	64.9634
2852	64.8045
2848	64.8487
2844	64.9546
2840	65.0159
2836	64.9749
2832	64.8934
2828	64.9054
2824	65.0095
2820	65.1409
2816	65.2519
2812	65.2377
2808	65.1409
2804	65.1545
2800	65.2289
2796	65.2113
2792	65.1806
2788	65.1994
2784	65.2069
2780	65.2401
2776	65.3311
2772	65.377
2768	65.3036
2764	65.2022
2760	65.187
2756	65.2217
2752	65.2444
2748	65.2769
2744	65.2526
2740	65.1414
2736	65.0777
2732	65.0794
2728	65.0694
2724	65.0418
2720	65.0928
2716	65.1962
2712	65.1858
2708	65.1598
2704	65.2324
2700	65.2796
2696	65.2499
2692	65.2053
2688	65.1894
2684	65.1987
2680	65.1993
2676	65.1721
2672	65.1294
2668	65.1275
2664	65.1404
2660	65.121
2656	65.1095
2652	65.0831
2648	65.0524
2644	65.0707
2640	65.1335
2636	65.1889
2632	65.1862
2628	65.1652
2624	65.1449
2620	65.1159
2616	65.1304
2612	65.1291
2608	65.0581
2604	65.0426
2600	65.1037
2596	65.1561
2592	65.1839
2588	65.1622
2584	65.1229
2580	65.1537
2576	65.1922
2572	65.1922
2568	65.2095
2564	65.249
2560	65.2607
2556	65.2296
2552	65.2154
2548	65.2256
2544	65.2319
2540	65.2587
2536	65.3007
2532	65.277
2528	65.1775
2524	65.1359
2520	65.2209
2516	65.3673
2512	65.4351
2508	65.3802
2504	65.3415
2500	65.3396
2496	65.2948
2492	65.2182
2488	65.1848
2484	65.2133
2480	65.2546
2476	65.2937
2472	65.3022
2468	65.2616
2464	65.1771
2460	65.092
2456	65.1056
2452	65.2093
2448	65.2694
2444	65.3116
2440	65.3558
2436	65.2673
2432	65.0225
2428	64.7618
2424	64.789
2420	64.9696
2416	64.8973
2412	64.8159
2408	64.9178
2404	65.0271
2400	65.1198
2396	65.1797
2392	65.2149
2388	65.2417
2384	65.2349
2380	65.2303
2376	65.2195
2372	65.1935
2368	65.168
2364	65.1193
2360	65.0975
2356	65.138
2352	65.1607
2348	65.1577
2344	65.1984
2340	65.2889
2336	65.3439
2332	65.3231
2328	65.2769
2324	65.2465
2320	65.2412
2316	65.256
2312	65.2994
2308	65.3166
2304	65.3024
2300	65.3126
2296	65.2802
2292	65.2007
2288	65.1851
2284	65.2127
2280	65.2069
2276	65.1764
2272	65.1245
2268	65.111
2264	65.1402
2260	65.1408
2256	65.2079
2252	65.2928
2248	65.2623
2244	65.235
2240	65.2323
2236	65.2206
2232	65.2925
2228	65.3889
2224	65.3801
2220	65.3081
2216	65.2333
2212	65.1624
2208	65.1169
2204	65.0837
2200	65.1168
2196	65.2106
2192	65.2495
2188	65.2412
2184	65.2315
2180	65.2261
2176	65.2031
2172	65.1519
2168	65.1271
2164	65.1569
2160	65.2444
2156	65.3518
2152	65.3171
2148	65.1652
2144	65.041
2140	65.004
2136	65.0846
2132	65.1576
2128	65.15
2124	65.1448
2120	65.2009
2116	65.2484
2112	65.2534
2108	65.2659
2104	65.289
2100	65.3044
2096	65.2726
2092	65.2342
2088	65.2261
2084	65.2325
2080	65.3031
2076	65.3687
2072	65.4061
2068	65.3611
2064	65.1588
2060	65.0953
2056	65.1814
2052	65.2137
2048	65.2203
2044	65.2618
2040	65.3126
2036	65.2649
2032	65.2297
2028	65.2865
2024	65.2972
2020	65.2667
2016	65.3147
2012	65.3705
2008	65.3044
2004	65.1883
2000	65.1145
1996	65.0718
1992	65.0733
1988	65.0978
1984	65.1051
1980	65.1183
1976	65.1432
1972	65.209
1968	65.2585
1964	65.2111
1960	65.16
1956	65.169
1952	65.2111
1948	65.2182
1944	65.1591
1940	65.1277
1936	65.1791
1932	65.225
1928	65.2507
1924	65.2833
1920	65.2631
1916	65.2306
1912	65.2006
1908	65.1557
1904	65.1574
1900	65.1735
1896	65.203
1892	65.2455
1888	65.2165
1884	65.1505
1880	65.1142
1876	65.0996
1872	65.0596
1868	65.0109
1864	65.0371
1860	65.1053
1856	65.1183
1852	65.0785
1848	65.073
1844	65.1428
1840	65.2199
1836	65.239
1832	65.2289
1828	65.2171
1824	65.2101
1820	65.2417
1816	65.2553
1812	65.172
1808	65.0694
1804	65.0256
1800	65.0513
1796	65.1224
1792	65.1439
1788	65.1475
1784	65.188
1780	65.1408
1776	65.0468
1772	65.0261
1768	65.0773
1764	65.2221
1760	65.3414
1756	65.3172
1752	65.1901
1748	65.0446
1744	64.9915
1740	65.0277
1736	65.0813
1732	65.0868
1728	65.0594
1724	65.1282
1720	65.259
1716	65.3099
1712	65.1834
1708	65.0028
1704	64.9993
1700	65.0814
1696	65.1578
1692	65.2209
1688	65.2207
1684	65.1899
1680	65.1552
1676	65.1495
1672	65.1463
1668	65.1123
1664	65.0881
1660	65.0916
1656	65.1068
1652	65.1241
1648	65.1145
1644	65.1005
1640	65.1045
1636	65.137
1632	65.1756
1628	65.1285
1624	65.0608
1620	65.0388
1616	64.9932
1612	64.9279
1608	64.9624
1604	65.0726
1600	65.0648
1596	64.9968
1592	65.0115
1588	65.0509
1584	65.0303
1580	64.9665
1576	64.945
1572	64.9846
1568	65.0219
1564	64.9844
1560	64.8978
1556	64.8161
1552	64.8044
1548	64.874
1544	64.9387
1540	65.0149
1536	65.0697
1532	65.0367
1528	65.0176
1524	65.096
1520	65.1387
1516	65.0458
1512	64.9539
1508	64.9641
1504	65.021
1500	65.0214
1496	64.9851
1492	65.0385
1488	65.0372
1484	64.9425
1480	64.9716
1476	65.0405
1472	65.0223
1468	64.9722
1464	64.9231
1460	64.9618
1456	64.9915
1452	64.8572
1448	64.7818
1444	64.8942
1440	65.0409
1436	65.0773
1432	65.0541
1428	65.1088
1424	65.1104
1420	65.0082
1416	64.9467
1412	64.8971
1408	64.8397
1404	64.8623
1400	64.9151
1396	64.9198
1392	64.9363
1388	64.96
1384	65.0031
1380	65.0823
1376	65.1138
1372	65.0872
1368	65.0729
1364	65.1215
1360	65.1649
1356	65.081
1352	64.926
1348	64.8754
1344	64.939
1340	65.012
1336	65.0302
1332	65.016
1328	65.0262
1324	65.0569
1320	65.0533
1316	65.0297
1312	64.9745
1308	64.8317
1304	64.7852
1300	64.9009
1296	64.9934
1292	65.0088
1288	64.9922
1284	65.0008
1280	65.0277
1276	65.0092
1272	64.9417
1268	64.9364
1264	65.0495
1260	65.1069
1256	64.9948
1252	64.8578
1248	64.8143
1244	64.7977
1240	64.7852
1236	64.8414
1232	64.9235
1228	64.9618
1224	64.9511
1220	64.8793
1216	64.8089
1212	64.8303
1208	64.8677
1204	64.8341
1200	64.7392
1196	64.687
1192	64.7382
1188	64.7964
1184	64.8491
1180	64.8903
1176	64.8148
1172	64.7287
1168	64.7441
1164	64.7429
1160	64.7128
1156	64.7749
1152	64.7799
1148	64.6095
1144	64.4758
1140	64.4856
1136	64.5849
1132	64.6877
1128	64.6939
1124	64.6569
1120	64.6844
1116	64.7557
1112	64.7445
1108	64.6939
1104	64.7297
1100	64.6939
1096	64.5987
1092	64.6305
1088	64.6193
1084	64.5206
1080	64.4975
1076	64.5118
1072	64.5758
1068	64.5962
1064	64.4969
1060	64.5392
1056	64.6827
1052	64.6534
1048	64.6476
1044	64.8445
1040	64.869
1036	64.6086
1032	64.4105
1028	64.4163
1024	64.4887
1020	64.5302
1016	64.5207
1012	64.4929
1008	64.5773
1004	64.6922
1000	64.6691
996	 64.681
992	 64.7336
988	 64.5929
984	 64.3748
980	 64.3201
976	 64.386
972	 64.5882
968	 64.7403
964	 64.5722
960	 64.5524
956	 64.7579
952	 64.8925
948	 64.9922
944	 64.9772
940	 64.7341
936	 64.3257
932	 64.219
928	 64.4474
924	 64.4735
920	 64.229
916	 64.0622
912	 64.0914
908	 64.1118
904	 64.1515
900	 64.3332
896	 64.591
892	 64.7318
888	 64.6211
884	 64.5217
880	 64.5067
876	 64.4195
872	 64.4737
868	 64.5745
864	 64.512
860	 64.3753
856	 64.2562
852	 64.3702
848	 64.4866
844	 64.4088
840	 64.4941
836	 64.6076
832	 64.5842
828	 64.6355
824	 64.6121
820	 64.3955
816	 64.3264
812	 64.3609
808	 64.2421
804	 64.1709
800	 64.1843
796	 64.0473
792	 63.9941
788	 64.2215
784	 64.491
780	 64.5962
776	 64.4452
772	 64.2303
768	 64.1187
764	 64.0638
760	 64.0092
756	 63.9871
752	 63.984
748	 63.9093
744	 63.8533
740	 63.7232
736	 63.576
732	 63.5524
728	 63.5271
724	 63.5833
720	 63.5775
716	 63.3622
712	 63.2579
708	 63.3659
704	 63.4027
700	 63.3148
696	 63.3128
692	 63.3446
688	 63.2726
684	 63.2469
680	 63.3435
676	 63.2667
672	 63.0447
668	 63.0008
664	 62.8924
660	 62.6184
656	 62.5894
652	 62.7973
648	 62.9658
644	 62.9961
640	 62.8515
636	 62.6575
632	 62.5519
628	 62.664
624	 62.7525
620	 62.5643
616	 62.4372
612	 62.5096
608	 62.7199
604	 62.8352
600	 62.6574
596	 62.3931
592	 62.3771
588	 62.66
584	 62.8824
580	 62.9654
576	 62.9523
572	 62.8991
568	 62.8652
564	 62.6021
560	 62.2578
556	 62.2155
552	 62.1946
548	 61.9973
544	 61.9727
540	 62.0993
536	 62.1046
532	 62.0371
528	 61.8516
524	 61.47
520	 61.4524
516	 61.7749
512	 61.5557
508	 61.1406
504	 60.9703
500	 60.7583
496	 60.9965
492	 61.5914
488	 61.8881
484	 62.118
480	 61.8689
476	 61.1749
472	 60.4551
468	 59.6816
464	 59.9289
460	 60.8228
456	 60.4027
452	 59.0488
448	 58.2458
444	 58.5754
440	 59.986
436	 60.5394
432	 60.1194
428	 59.69
424	 57.0576
420	 54.8274
416	 55.6478
412	 57.0325
408	 57.6011
404	 56.7591
400	 57.0775
396	 56.4769
392	 48.5595
388	 37.4013
384	 30.1485
380	 31.0889
376	 41.9069
372	 56.0667
370	 58.7693