File: Bakgrunnsmateriale/MATLAB/FTIR/ftir_data/subBb/Mapping_121/C-4040-8_t97.asc
PE IR       SPECTRUM    SPECTRUM    ASCII       PEDS        1.60
  -1
C-B946~1.ASC
17/03/27
22:28:20.00
17/03/27
22:28:46.00
tln
$C-4040-8_t0097$<tbV0>[-7.8,7.8,8.0,0.0,27,1,0]
27.028
64

2002,4.07
MIRTGS : RIGHTBACK : INTERNAL 2
MIR : ON : INTERNAL 2
OPTKBR

0.200000
8
8.000000
FILLER
RATIO
SPECTRUM
UNLOCKED 256

DOUBLE
64
COMBINED
1
0
0

0.002000
RATIO

1
0
TRUE
51149
0
LEFT NOT FITTED RIGHT NOT FITTED 0
NONE
NONE
15600
12
4.427000
51148
TRUE
1 0 8 72 0 0 0 0

15798

#HDR
-1
-1
#GR
µM
%T
2.38419e-05
0.0
2.000000
0.002000
12515
8
201.219
27.3949
#DATA
2.000000	 65.2413
2.018000	 65.2819
2.036000	 65.1422
2.054000	 66.0727
2.072000	 65.2075
2.090000	 65.2536
2.108000	 64.6547
2.126000	 64.9967
2.144000	 65.1595
2.162000	 65.2821
2.180000	 65.4315
2.198000	 65.8675
2.216000	 65.5681
2.234000	 65.745
2.252000	 65.4255
2.270000	 66.343
2.288000	 66.1523
2.306000	 65.4753
2.324000	 65.0865
2.342000	 65.6769
2.360000	 65.287
2.378000	 64.705
2.396000	 65.4916
2.414000	 65.4691
2.432000	 65.2448
2.450000	 64.9263
2.468000	 65.1147
2.486000	 65.5842
2.504000	 65.0838
2.522000	 65.3439
2.540000	 65.1357
2.558000	 65.7161
2.576000	 65.1881
2.594000	 65.2612
2.612000	 64.9366
2.630000	 65.1074
2.648000	 65.2454
2.666000	 65.1848
2.684000	 65.3469
2.702000	 65.2269
2.720000	 64.9778
2.738000	 65.2233
2.756000	 65.1095
2.774000	 65.0857
2.792000	 65.2859
2.810000	 65.1936
2.828000	 65.1359
2.846000	 65.2634
2.864000	 65.1974
2.882000	 65.3682
2.900000	 65.1055
2.918000	 65.4175
2.936000	 65.4204
2.954000	 65.1951
2.972000	 65.352
2.990000	 65.4465
3.008000	 65.1786
3.026000	 65.0361
3.044000	 65.05
3.062000	 65.2186
3.080000	 65.2702
3.098000	 65.0656
3.116000	 65.3269
3.134000	 65.0597
3.152000	 65.1783
3.170000	 65.3432
3.188000	 65.0886
3.206000	 65.2195
3.224000	 65.5858
3.242000	 65.0876
3.260000	 65.3051
3.278000	 65.1269
3.296000	 65.2902
3.314000	 65.3264
3.332000	 65.2298
3.350000	 65.3163
3.368000	 65.128
3.386000	 65.149
3.404000	 65.2065
3.422000	 64.8362
3.440000	 65.1533
3.458000	 65.2399
3.476000	 65.1769
3.494000	 65.3309
3.512000	 65.211
3.530000	 65.3742
3.548000	 65.4235
3.566000	 65.2836
3.584000	 65.3999
3.602000	 65.2779
3.620000	 65.1681
3.638000	 65.4554
3.656000	 65.2373
3.674000	 65.37
3.692000	 65.2959
3.710000	 65.3465
3.728000	 65.3203
3.746000	 65.438
3.764000	 65.4772
3.782000	 65.2448
3.800000	 65.2209
3.818000	 65.2703
3.836000	 65.3523
3.854000	 65.1862
3.872000	 65.3259
3.890000	 65.3639
3.908000	 65.2899
3.926000	 65.4657
3.944000	 65.2434
3.962000	 65.3707
3.980000	 65.2521
3.998000	 65.2745
4.016000	 65.5395
4.034000	 65.4888
4.052000	 65.3276
4.070000	 65.4529
4.088000	 65.3629
4.106000	 65.2359
4.124000	 65.536
4.141999	 65.2824
4.160000	 65.3133
4.178000	 65.3386
4.196000	 65.222
4.214000	 65.2424
4.232000	 65.3973
4.250000	 65.2864
4.268000	 65.3784
4.286000	 65.3501
4.304000	 65.369
4.322000	 65.3282
4.340000	 65.2383
4.358000	 65.2731
4.375999	 65.35
4.394000	 65.3741
4.412000	 65.3687
4.430000	 65.3545
4.448000	 65.3771
4.466000	 65.2087
4.484000	 65.3295
4.502000	 65.3342
4.520000	 65.3031
4.538000	 65.3007
4.556000	 65.3499
4.574000	 65.2524
4.592000	 65.3141
4.609999	 65.4567
4.628000	 65.4666
4.646000	 65.2596
4.664000	 65.231
4.682000	 65.4431
4.700000	 65.3918
4.718000	 65.3466
4.736000	 65.4874
4.754000	 65.3136
4.772000	 65.3265
4.790000	 65.4494
4.808000	 65.4458
4.826000	 65.4867
4.843999	 65.5562
4.862000	 65.0549
4.880000	 65.4028
4.898000	 65.4883
4.916000	 65.2923
4.934000	 65.2881
4.952000	 65.4688
4.970000	 65.4681
4.988000	 65.3664
5.006000	 65.3291
5.024000	 65.5255
5.042000	 65.5155
5.060000	 65.3736
5.077999	 65.431
5.096000	 65.38
5.114000	 65.2809
5.132000	 65.2501
5.150000	 65.2673
5.168000	 65.3853
5.186000	 65.3473
5.204000	 65.342
5.222000	 65.3065
5.240000	 65.2036
5.258000	 65.2665
5.276000	 65.3414
5.294000	 65.3332
5.312000	 65.2943
5.330000	 65.3472
5.348000	 65.3785
5.366000	 65.3321
5.384000	 65.3324
5.402000	 65.2843
5.420000	 65.3223
5.438000	 65.4192
5.456000	 65.4675
5.474000	 65.4445
5.492000	 65.439
5.510000	 65.3821
5.528000	 65.3015
5.546000	 65.3784
5.564000	 65.3634
5.582000	 65.3142
5.600000	 65.3163
5.618000	 65.2838
5.636000	 65.3274
5.654000	 65.3073
5.672000	 65.2563
5.690000	 65.1776
5.708000	 65.1424
5.726000	 65.2196
5.744000	 65.1027
5.762000	 64.9499
5.780000	 65.0017
5.798000	 65.1458
5.816000	 65.1689
5.834000	 65.1732
5.852000	 65.3347
5.870000	 65.3174
5.888000	 65.1675
5.906000	 65.2106
5.923999	 65.2986
5.942000	 65.3211
5.960000	 65.2523
5.978000	 65.1754
5.996000	 65.2143
6.014000	 65.2494
6.032000	 65.2296
6.050000	 65.1645
6.068000	 65.2801
6.086000	 65.362
6.104000	 65.2458
6.122000	 65.1325
6.140000	 65.0981
6.158000	 65.1654
6.176000	 65.2942
6.194000	 65.209
6.212000	 65.0593
6.230000	 65.1329
6.248000	 65.2199
6.266000	 65.1676
6.284000	 65.1153
6.302000	 65.1271
6.320000	 65.1319
6.338000	 65.1343
6.356000	 65.0729
6.374000	 65.0365
6.392000	 65.0293
6.410000	 64.9662
6.428000	 65.0057
6.446000	 65.2057
6.464000	 65.2925
6.482000	 65.223
6.500000	 65.2097
6.518000	 65.2337
6.536000	 65.1764
6.554000	 65.1279
6.572000	 65.1863
6.590000	 65.2098
6.608000	 65.1864
6.626000	 65.2692
6.644000	 65.3632
6.662000	 65.3666
6.680000	 65.3501
6.698000	 65.2305
6.716000	 65.0431
6.734000	 65.0114
6.752000	 65.0922
6.770000	 65.1229
6.788000	 65.1056
6.806000	 65.1114
6.824000	 65.1229
6.842000	 65.133
6.860000	 65.111
6.878000	 65.0164
6.896000	 64.9891
6.914000	 65.1513
6.932000	 65.3137
6.950000	 65.2739
6.968000	 65.1109
6.986000	 65.0091
7.004000	 65.0269
7.022000	 65.0902
7.040000	 65.1085
7.058000	 65.0999
7.076000	 65.1475
7.094000	 65.2317
7.112000	 65.2305
7.130000	 65.1009
7.148000	 64.9759
7.166000	 64.9818
7.184000	 65.0589
7.202000	 65.1279
7.220000	 65.1947
7.238000	 65.2129
7.256000	 65.1605
7.274000	 65.104
7.292000	 65.0712
7.310000	 65.0452
7.328000	 65.0141
7.346000	 64.9854
7.364000	 64.9808
7.382000	 65.0162
7.400000	 65.114
7.418000	 65.2253
7.436000	 65.2297
7.454000	 65.1105
7.472000	 64.9711
7.490000	 64.892
7.508000	 64.8985
7.526000	 64.9737
7.544000	 65.0657
7.562000	 65.1035
7.580000	 65.0288
7.598000	 64.8704
7.616000	 64.7548
7.634000	 64.7712
7.652000	 64.8895
7.670000	 65.0302
7.688000	 65.14
7.706000	 65.1962
7.724000	 65.1916
7.742000	 65.1374
7.760000	 65.0592
7.778000	 64.9911
7.796000	 64.9646
7.814000	 64.9811
7.832000	 64.9981
7.850000	 64.9713
7.868000	 64.9067
7.886000	 64.8494
7.904000	 64.8414
7.922000	 64.894
7.940000	 64.9712
7.958000	 65.0108
7.976000	 64.9896
7.994000	 64.9483
8.012000	 64.9421
8.030000	 64.9893
8.048000	 65.0591
8.065999	 65.0891
8.084000	 65.0381
8.102000	 64.9294
8.120000	 64.8267
8.138000	 64.7793
8.155999	 64.8095
8.173999	 64.9084
8.192000	 65.0151
8.210000	 65.0489
8.228000	 64.9944
8.246000	 64.9203
8.263999	 64.8906
8.282000	 64.9053
8.300000	 64.933
8.318000	 64.9602
8.336000	 64.989
8.353999	 65.01
8.372000	 65.0102
8.390000	 64.9981
8.408000	 64.99
8.426000	 64.9872
8.443999	 64.9883
8.462000	 65.0016
8.480000	 65.0236
8.498000	 65.0293
8.516000	 65.0035
8.533999	 64.9619
8.552000	 64.9244
8.570000	 64.8953
8.588000	 64.8825
8.606000	 64.9044
8.624000	 64.9516
8.641999	 64.9731
8.660000	 64.9311
8.678000	 64.8556
8.696000	 64.8099
8.714000	 64.8176
8.731999	 64.8469
8.750000	 64.8581
8.768000	 64.841
8.786000	 64.8064
8.804000	 64.7661
8.821999	 64.7344
8.840000	 64.7349
8.858000	 64.7842
8.876000	 64.8672
8.894000	 64.9392
8.911999	 64.9618
8.930000	 64.9366
8.948000	 64.8999
8.966000	 64.8863
8.984000	 64.8984
9.001999	 64.9103
9.020000	 64.8947
9.038000	 64.8461
9.056000	 64.7842
9.074000	 64.7427
9.092000	 64.7495
9.109999	 64.8099
9.128000	 64.8969
9.146000	 64.9606
9.164000	 64.9562
9.182000	 64.8774
9.199999	 64.763
9.218000	 64.6713
9.236000	 64.6434
9.254000	 64.6804
9.272000	 64.7477
9.289999	 64.8006
9.308000	 64.8143
9.326000	 64.7967
9.344000	 64.7711
9.362000	 64.7504
9.379999	 64.7259
9.398000	 64.684
9.416000	 64.63
9.434000	 64.5886
9.452000	 64.5831
9.469999	 64.6134
9.488000	 64.6594
9.506000	 64.6996
9.524000	 64.7252
9.542000	 64.7393
9.560000	 64.747
9.577999	 64.7525
9.596000	 64.7627
9.614000	 64.7875
9.632000	 64.8317
9.650000	 64.8872
9.667999	 64.9358
9.686000	 64.964
9.704000	 64.9763
9.722000	 64.9928
9.740000	 65.0284
9.757999	 65.0706
9.776000	 65.0796
9.794000	 65.0145
9.812000	 64.8685
9.830000	 64.6805
9.847999	 64.5117
9.866000	 64.4085
9.884000	 64.3808
9.902000	 64.4076
9.920000	 64.4608
9.937999	 64.5238
9.956000	 64.5935
9.974000	 64.6667
9.992000	 64.7342
10.01	64.784
10.028	64.8112
10.046	64.8213
10.064	64.8222
10.082	64.8152
10.1	64.7932
10.118	64.7513
10.136	64.6982
10.154	64.6535
10.172	64.6327
10.19	64.6301
10.208	64.6214
10.226	64.5845
10.244	64.5183
10.262	64.4475
10.28	64.4026
10.298	64.3984
10.316	64.4261
10.334	64.4656
10.352	64.5042
10.37	64.5426
10.388	64.5842
10.406	64.623
10.424	64.641
10.442	64.6232
10.46	64.5708
10.478	64.504
10.496	64.4505
10.514	64.4268
10.532	64.432
10.55	64.4535
10.568	64.4777
10.586	64.4999
10.604	64.5232
10.622	64.55
10.64	64.5777
10.658	64.6017
10.676	64.6231
10.694	64.6521
10.712	64.7049
10.73	64.7956
10.748	64.9273
10.766	65.0927
10.784	65.28
10.802	65.4743
10.82	65.6572
10.838	65.8008
10.856	65.8698
10.874	65.8275
10.892	65.6595
10.91	65.3859
10.928	65.0634
10.946	64.7679
10.964	64.5591
10.982	64.4595
11	64.4445
11.018	64.4583
11.036	64.4497
11.054	64.3952
11.072	64.3094
11.09	64.2364
11.108	64.2186
11.126	64.2777
11.144	64.4023
11.162	64.5531
11.18	64.6864
11.198	64.7695
11.216	64.7939
11.234	64.7741
11.252	64.7387
11.27	64.7139
11.288	64.7163
11.306	64.7481
11.324	64.7966
11.342	64.8405
11.36	64.8608
11.378	64.8443
11.396	64.7904
11.414	64.7107
11.432	64.6243
11.45	64.55
11.468	64.5013
11.486	64.4812
11.504	64.4836
11.522	64.4966
11.54	64.5092
11.558	64.5138
11.576	64.5091
11.594	64.4981
11.612	64.4851
11.63	64.4728
11.648	64.4614
11.666	64.4488
11.684	64.4314
11.702	64.4067
11.72	64.3742
11.738	64.3364
11.756	64.2974
11.774	64.2628
11.792	64.2379
11.81	64.2258
11.828	64.2264
11.846	64.2358
11.864	64.2471
11.882	64.2533
11.9	64.2489
11.918	64.2329
11.936	64.2096
11.954	64.1879
11.972	64.1782
11.99	64.188
12.008	64.2191
12.026	64.2666
12.044	64.3201
12.062	64.3682
12.08	64.4029
12.098	64.4219
12.116	64.4281
12.134	64.4273
12.152	64.4253
12.17	64.4245
12.188	64.4245
12.206	64.422
12.224	64.4133
12.242	64.3962
12.26	64.3711
12.278	64.3404
12.296	64.3077
12.314	64.2755
12.332	64.2447
12.35	64.2139
12.368	64.1804
12.386	64.1419
12.404	64.0976
12.422	64.0496
12.44	64.002
12.458	63.9611
12.476	63.9332
12.494	63.9228
12.512	63.9306
12.53	63.953
12.548	63.9822
12.566	64.008
12.584	64.0206
12.602	64.0133
12.62	63.9836
12.638	63.9338
12.656	63.8702
12.674	63.8008
12.692	63.7337
12.71	63.6759
12.728	63.6325
12.746	63.6064
12.764	63.5989
12.782	63.6097
12.8	63.6367
12.818	63.6763
12.836	63.723
12.854	63.7706
12.872	63.8123
12.89	63.8436
12.908	63.8614
12.926	63.8666
12.944	63.8624
12.962	63.8537
12.98	63.8446
12.998	63.837
13.016	63.8298
13.034	63.8197
13.052	63.8026
13.07	63.7748
13.088	63.7361
13.106	63.6899
13.124	63.6429
13.142	63.6031
13.16	63.5769
13.178	63.5673
13.196	63.5727
13.214	63.5875
13.232	63.6037
13.25	63.6141
13.268	63.6143
13.286	63.6046
13.304	63.5897
13.322	63.5774
13.34	63.576
13.358	63.5911
13.376	63.6241
13.394	63.6707
13.412	63.7218
13.43	63.7652
13.448	63.7888
13.466	63.7829
13.484	63.7427
13.502	63.6692
13.52	63.5692
13.538	63.4538
13.556	63.3367
13.574	63.2317
13.592	63.1505
13.61	63.1018
13.628	63.0888
13.646	63.1099
13.664	63.1588
13.682	63.2255
13.7	63.2986
13.718	63.3663
13.736	63.4194
13.754	63.4509
13.772	63.4585
13.79	63.4436
13.808	63.4111
13.826	63.3678
13.844	63.3213
13.862	63.2784
13.88	63.2439
13.898	63.2204
13.916	63.2077
13.934	63.2035
13.952	63.2041
13.97	63.2056
13.988	63.205
14.006	63.2006
14.024	63.1929
14.042	63.1841
14.06	63.1781
14.078	63.1789
14.096	63.1901
14.114	63.2145
14.132	63.2526
14.15	63.3028
14.168	63.3611
14.186	63.4216
14.204	63.4779
14.222	63.5231
14.24	63.5516
14.258	63.5596
14.276	63.5456
14.294	63.5104
14.312	63.4576
14.33	63.3925
14.348	63.3216
14.366	63.2515
14.384	63.1883
14.402	63.1362
14.42	63.0977
14.438	63.0735
14.456	63.0628
14.474	63.0639
14.492	63.0748
14.51	63.0933
14.528	63.1179
14.546	63.1471
14.564	63.1803
14.582	63.2164
14.6	63.2545
14.618	63.293
14.636	63.3303
14.654	63.3648
14.672	63.3952
14.69	63.4201
14.708	63.439
14.726	63.4519
14.744	63.4587
14.762	63.4602
14.78	63.4563
14.798	63.4466
14.816	63.4301
14.834	63.4054
14.852	63.3705
14.87	63.3246
14.888	63.2676
14.906	63.201
14.924	63.1272
14.942	63.051
14.96	62.9775
14.978	62.9115
14.996	62.8566
15.014	62.8152
15.032	62.7879
15.05	62.7725
15.068	62.7657
15.086	62.7632
15.104	62.7606
15.122	62.7534
15.14	62.7394
15.158	62.7177
15.176	62.6888
15.194	62.6542
15.212	62.6174
15.23	62.5812
15.248	62.5482
15.266	62.5206
15.284	62.4997
15.302	62.4856
15.32	62.4779
15.338	62.4761
15.356	62.4794
15.374	62.4875
15.392	62.5005
15.41	62.5187
15.428	62.5427
15.446	62.573
15.464	62.6094
15.482	62.6511
15.5	62.697
15.518	62.7442
15.536	62.7903
15.554	62.8324
15.572	62.8681
15.59	62.8948
15.608	62.9115
15.626	62.9175
15.644	62.9132
15.662	62.9004
15.68	62.881
15.698	62.857
15.716	62.8308
15.734	62.8041
15.752	62.7783
15.77	62.7543
15.788	62.7325
15.806	62.7127
15.824	62.6947
15.842	62.6781
15.86	62.6627
15.878	62.6487
15.896	62.6362
15.914	62.6261
15.932	62.619
15.95	62.6154
15.968	62.6157
15.986	62.6195
16.004	62.6264
16.022	62.6354
16.04	62.6447
16.058	62.6527
16.076	62.6578
16.094	62.6582
16.112	62.653
16.13	62.6418
16.148	62.6244
16.166	62.602
16.184	62.576
16.202	62.5483
16.22	62.5218
16.238	62.4985
16.256	62.4803
16.274	62.4695
16.292	62.4667
16.31	62.4728
16.328	62.4875
16.346	62.5101
16.364	62.5398
16.382	62.5742
16.4	62.6114
16.418	62.6496
16.436	62.686
16.454	62.7187
16.472	62.7462
16.49	62.7663
16.508	62.7779
16.526	62.7801
16.544	62.7721
16.562	62.7539
16.58	62.7256
16.598	62.6878
16.616	62.6414
16.634	62.5871
16.652	62.5269
16.67	62.4624
16.688	62.395
16.706	62.3276
16.724	62.2617
16.742	62.1991
16.76	62.1422
16.778	62.0917
16.796	62.0488
16.814	62.0132
16.832	61.9847
16.85	61.9618
16.868	61.9427
16.886	61.9258
16.904	61.9084
16.922	61.8894
16.94	61.8665
16.958	61.8396
16.976	61.8086
16.994	61.7741
17.012	61.7386
17.03	61.7035
17.048	61.6729
17.066	61.6492
17.084	61.6357
17.102	61.6356
17.12	61.65
17.138	61.6813
17.156	61.7286
17.174	61.7922
17.192	61.8692
17.21	61.9579
17.228	62.0543
17.246	62.1544
17.264	62.2556
17.282	62.3522
17.3	62.4425
17.318	62.5224
17.336	62.59
17.354	62.6438
17.372	62.6827
17.39	62.7072
17.408	62.7175
17.426	62.7153
17.444	62.7014
17.462	62.6786
17.48	62.648
17.498	62.6126
17.516	62.574
17.534	62.5338
17.552	62.4949
17.57	62.4579
17.588	62.425
17.606	62.3967
17.624	62.3742
17.642	62.3577
17.66	62.3475
17.678	62.3436
17.696	62.3456
17.714	62.3532
17.732	62.3656
17.75	62.3823
17.768	62.402
17.786	62.4245
17.804	62.4483
17.822	62.4731
17.84	62.4978
17.858	62.522
17.876	62.545
17.894	62.5664
17.912	62.5859
17.93	62.603
17.948	62.6178
17.966	62.6299
17.984	62.6392
18.002	62.6454
18.02	62.6481
18.038	62.6471
18.056	62.6421
18.074	62.6329
18.092	62.6189
18.11	62.6001
18.128	62.5757
18.146	62.5457
18.164	62.5098
18.182	62.4679
18.2	62.4197
18.218	62.3658
18.236	62.3061
18.254	62.2417
18.272	62.1726
18.29	62.1002
18.308	62.0248
18.326	61.9481
18.344	61.8704
18.362	61.7939
18.38	61.7193
18.398	61.6486
18.416	61.5825
18.434	61.5226
18.452	61.4695
18.47	61.4242
18.488	61.3868
18.506	61.3578
18.524	61.3366
18.542	61.3234
18.56	61.3164
18.578	61.3154
18.596	61.3184
18.614	61.3252
18.632	61.3333
18.65	61.3426
18.668	61.3515
18.686	61.3599
18.704	61.3665
18.722	61.3717
18.74	61.3755
18.758	61.3784
18.776	61.3813
18.794	61.3849
18.812	61.391
18.83	61.4002
18.848	61.4141
18.866	61.4331
18.884	61.4587
18.902	61.4908
18.92	61.5298
18.938	61.5753
18.956	61.627
18.974	61.6836
18.992	61.7441
19.01	61.8068
19.028	61.87
19.046	61.9321
19.064	61.9904
19.082	62.0442
19.1	62.0907
19.118	62.1296
19.136	62.159
19.154	62.1786
19.172	62.1872
19.19	62.185
19.208	62.1715
19.226	62.1473
19.244	62.1131
19.262	62.0694
19.28	62.0183
19.298	61.96
19.316	61.8975
19.334	61.8307
19.352	61.7629
19.37	61.6939
19.388	61.6274
19.406	61.5631
19.424	61.5035
19.442	61.4486
19.46	61.3999
19.478	61.3576
19.496	61.3218
19.514	61.2925
19.532	61.2688
19.55	61.2503
19.568	61.2358
19.586	61.2239
19.604	61.2138
19.622	61.2035
19.64	61.1929
19.658	61.1797
19.676	61.1641
19.694	61.1443
19.712	61.1203
19.73	61.092
19.748	61.0592
19.766	61.0233
19.784	60.9841
19.802	60.9436
19.82	60.9027
19.838	60.8627
19.856	60.8254
19.874	60.7912
19.892	60.7627
19.91	60.7397
19.928	60.7241
19.946	60.7158
19.964	60.7156
19.982	60.7236
20	60.7392
20.018	60.7624
20.036	60.7927
20.054	60.8293
20.072	60.8721
20.09	60.9198
20.108	60.9726
20.126	61.0293
20.144	61.0901
20.162	61.1542
20.18	61.2214
20.198	61.2914
20.216	61.3638
20.234	61.4386
20.252	61.5145
20.27	61.592
20.288	61.6692
20.306	61.7465
20.324	61.8219
20.342	61.8944
20.36	61.9632
20.378	62.0255
20.396	62.0818
20.414	62.1281
20.432	62.1648
20.45	62.1895
20.468	62.2015
20.486	62.2002
20.504	62.1838
20.522	62.1528
20.54	62.1069
20.558	62.0459
20.576	61.9707
20.594	61.8812
20.612	61.7786
20.63	61.6654
20.648	61.5411
20.666	61.4092
20.684	61.2693
20.702	61.1241
20.72	60.9753
20.738	60.823
20.756	60.6705
20.774	60.5171
20.792	60.3651
20.81	60.215
20.828	60.0676
20.846	59.9244
20.864	59.7853
20.882	59.6524
20.9	59.5255
20.918	59.406
20.936	59.295
20.954	59.1924
20.972	59.1001
20.99	59.0178
21.008	58.9464
21.026	58.8864
21.044	58.8377
21.062	58.8006
21.08	58.7751
21.098	58.7597
21.116	58.7548
21.134	58.7588
21.152	58.7695
21.17	58.7875
21.188	58.8091
21.206	58.8341
21.224	58.8613
21.242	58.8873
21.26	58.9133
21.278	58.9367
21.296	58.9567
21.314	58.9737
21.332	58.9865
21.35	58.9955
21.368	59.0012
21.386	59.0033
21.404	59.0027
21.422	59.0014
21.44	58.9986
21.458	58.9968
21.476	58.9968
21.494	58.9989
21.512	59.006
21.53	59.0175
21.548	59.0349
21.566	59.0596
21.584	59.0911
21.602	59.1304
21.62	59.1777
21.638	59.2326
21.656	59.2952
21.674	59.3656
21.692	59.4419
21.71	59.5241
21.728	59.6114
21.746	59.7012
21.764	59.7946
21.782	59.8887
21.8	59.9812
21.818	60.0729
21.836	60.16
21.854	60.2428
21.872	60.3198
21.89	60.3878
21.908	60.4478
21.926	60.4977
21.944	60.5361
21.962	60.5636
21.98	60.5785
21.998	60.5804
22.016	60.5696
22.034	60.5459
22.052	60.509
22.07	60.4598
22.088	60.3987
22.106	60.3253
22.124	60.2419
22.142	60.1485
22.16	60.0456
22.178	59.9359
22.196	59.8185
22.214	59.6955
22.232	59.5694
22.25	59.4391
22.268	59.3073
22.286	59.1754
22.304	59.0426
22.322	58.9119
22.34	58.7833
22.358	58.6572
22.376	58.5356
22.394	58.418
22.412	58.3052
22.43	58.1988
22.448	58.0979
22.466	58.004
22.484	57.9183
22.502	57.84
22.52	57.7712
22.538	57.7127
22.556	57.664
22.574	57.6274
22.592	57.6031
22.61	57.5911
22.628	57.5936
22.646	57.6102
22.664	57.6412
22.682	57.6875
22.7	57.7492
22.718	57.8257
22.736	57.9169
22.754	58.0236
22.772	58.1433
22.79	58.2746
22.808	58.4189
22.826	58.5722
22.844	58.7326
22.862	58.9017
22.88	59.0743
22.898	59.2483
22.916	59.4253
22.934	59.5995
22.952	59.7692
22.97	59.9357
22.988	60.0945
23.006	60.2451
23.024	60.3879
23.042	60.5197
23.06	60.6403
23.078	60.7499
23.096	60.8456
23.114	60.9274
23.132	60.9955
23.15	61.0483
23.168	61.0854
23.186	61.1076
23.204	61.1156
23.222	61.109
23.24	61.0884
23.258	61.0555
23.276	61.0096
23.294	60.9516
23.312	60.8835
23.33	60.8049
23.348	60.7164
23.366	60.6204
23.384	60.5166
23.402	60.4053
23.42	60.2888
23.438	60.1669
23.456	60.0398
23.474	59.9102
23.492	59.7777
23.51	59.6427
23.528	59.5092
23.546	59.3784
23.564	59.249
23.582	59.1244
23.6	59.0057
23.618	58.8919
23.636	58.7844
23.654	58.6844
23.672	58.591
23.69	58.5044
23.708	58.4249
23.726	58.3525
23.744	58.2864
23.762	58.2264
23.78	58.1733
23.798	58.1249
23.816	58.0787
23.834	58.0368
23.852	57.9963
23.87	57.9531
23.888	57.9083
23.906	57.8613
23.924	57.8095
23.942	57.7523
23.96	57.6906
23.978	57.624
23.996	57.5521
24.014	57.4751
24.032	57.3939
24.05	57.3088
24.068	57.219
24.086	57.1268
24.104	57.0343
24.122	56.9403
24.14	56.8456
24.158	56.7514
24.176	56.657
24.194	56.5631
24.212	56.471
24.23	56.3808
24.248	56.2922
24.266	56.2074
24.284	56.1271
24.302	56.0495
24.32	55.9793
24.338	55.9206
24.356	55.8714
24.374	55.8327
24.392	55.8066
24.41	55.7913
24.428	55.7882
24.446	55.8019
24.464	55.8323
24.482	55.8768
24.5	55.9461
24.518	56.0486
24.536	56.1763
24.554	56.3375
24.572	56.5443
24.59	56.795
24.608	57.0882
24.626	57.4299
24.644	57.8241
24.662	58.2676
24.68	58.7593
24.698	59.2984
24.716	59.8851
24.734	60.5189
24.752	61.1985
24.77	61.9292
24.788	62.7079
24.806	63.5196
24.824	64.3568
24.842	65.2335
24.86	66.1269
24.878	67.0102
24.896	67.8993
24.914	68.7859
24.932	69.6326
24.95	70.4241
24.968	71.1858
24.986	71.879
25.004	72.4628
25.022	72.9564
25.04	73.3536
25.058	73.623
25.076	73.7477
25.094	73.7445
25.112	73.6074
25.13	73.3288
25.148	72.9037
25.166	72.3427
25.184	71.6595
25.202	70.8541
25.22	69.915
25.238	68.8764
25.256	67.7726
25.274	66.5836
25.292	65.3187
25.31	64.0159
25.328	62.6953
25.346	61.3311
25.364	59.9502
25.382	58.5844
25.4	57.2327
25.418	55.8865
25.436	54.5555
25.454	53.2492
25.472	51.9686
25.49	50.7026
25.508	49.4392
25.526	48.1759
25.544	46.9182
25.562	45.6596
25.58	44.3935
25.598	43.118
25.616	41.8382
25.634	40.56
25.652	39.2817
25.67	37.9914
25.688	36.7151
25.706	35.4821
25.724	34.2818
25.742	33.1064
25.76	32.0035
25.778	31.0166
25.796	30.1187
25.814	29.3174
25.832	28.646
25.85	28.1255
25.868	27.7293
25.886	27.477
25.904	27.395
25.922	27.5005
25.94	27.7792
25.958	28.2137
25.976	28.7877
25.994	29.5095
26.012	30.3776
26.03	31.3732
26.048	32.4793
26.066	33.7001
26.084	35.0399
26.102	36.4998
26.12	38.0755
26.138	39.7559
26.156	41.5632
26.174	43.5229
26.192	45.626
26.21	47.8464
26.228	50.2529
26.246	52.9171
26.264	55.8298
26.282	58.9618
26.3	62.3733
26.318	66.1233
26.336	70.2018
26.354	74.59
26.372	79.3007
26.39	84.3478
26.408	89.7576
26.426	95.4933
26.444	101.5
26.462	107.742
26.48	114.318
26.498	121.131
26.516	128.034
26.534	134.932
26.552	141.982
26.57	149.056
26.588	155.973
26.606	162.647
26.624	169.29
26.642	175.685
26.66	181.557
26.678	186.806
26.696	191.733
26.714	196.005
26.732	199.229
26.75	200.958
26.768	201.163
26.786	200.598
26.804	200.047
26.822	200
26.84	200
26.858	200
26.876	200
26.894	200.048
26.912	200.206
26.93	200.3
26.948	200.144
26.966	199.528
26.984	198.43
27.002	197.2
27.02	196.203
27.028	195.956