File: Bakgrunnsmateriale/MATLAB/FTIR/ftir_data/subBb/Mapping_121/C-4040-8_t116.asc
PE IR       SPECTRUM    SPECTRUM    ASCII       PEDS        1.60
  -1
C-84D8~1.ASC
17/03/28
00:17:19.00
17/03/28
00:17:45.00
tln
$C-4040-8_t0116$<tbV0>[0.0,13.0,8.0,0.0,27,1,0]
27.028
64

2002,4.07
MIRTGS : RIGHTBACK : INTERNAL 2
MIR : ON : INTERNAL 2
OPTKBR

0.200000
8
8.000000
FILLER
RATIO
SPECTRUM
UNLOCKED 256

DOUBLE
64
COMBINED
1
0
0

0.002000
RATIO

1
0
TRUE
51149
0
LEFT NOT FITTED RIGHT NOT FITTED 0
NONE
NONE
15600
12
4.427000
51148
TRUE
1 0 8 72 0 0 0 0

15798

#HDR
-1
-1
#GR
µM
%T
2.38419e-05
0.0
2.000000
0.002000
12515
8
88.4333
32.643
#DATA
2.000000	 64.556
2.018000	 64.7744
2.036000	 64.9808
2.054000	 64.4594
2.072000	 64.9551
2.090000	 64.943
2.108000	 65.2624
2.126000	 64.9873
2.144000	 64.9303
2.162000	 64.9184
2.180000	 64.7448
2.198000	 65.1177
2.216000	 64.8027
2.234000	 64.7336
2.252000	 64.9021
2.270000	 70.8952
2.288000	 67.2826
2.306000	 65.1629
2.324000	 64.7664
2.342000	 65.0346
2.360000	 64.7037
2.378000	 65.2203
2.396000	 65.0913
2.414000	 64.9739
2.432000	 64.7224
2.450000	 64.841
2.468000	 65.0788
2.486000	 65.2241
2.504000	 64.9894
2.522000	 64.9774
2.540000	 65.0112
2.558000	 65.0699
2.576000	 65.1186
2.594000	 64.9219
2.612000	 64.677
2.630000	 64.8764
2.648000	 65.1825
2.666000	 65.2427
2.684000	 65.0555
2.702000	 65.0198
2.720000	 65.1123
2.738000	 65.1952
2.756000	 65.2035
2.774000	 65.1889
2.792000	 64.9853
2.810000	 65.2258
2.828000	 65.0917
2.846000	 64.959
2.864000	 65.0114
2.882000	 65.0933
2.900000	 64.9987
2.918000	 65.0498
2.936000	 65.1372
2.954000	 65.1566
2.972000	 65.1768
2.990000	 65.1751
3.008000	 65.0112
3.026000	 64.8939
3.044000	 65.0735
3.062000	 65.1141
3.080000	 64.9913
3.098000	 64.9934
3.116000	 64.9637
3.134000	 65.0241
3.152000	 65.206
3.170000	 65.1078
3.188000	 64.799
3.206000	 65.2204
3.224000	 65.2405
3.242000	 65.1138
3.260000	 65.1345
3.278000	 65.0948
3.296000	 65.2045
3.314000	 65.2248
3.332000	 65.332
3.350000	 65.1502
3.368000	 64.9044
3.386000	 65.0346
3.404000	 64.8931
3.422000	 64.7779
3.440000	 65.0029
3.458000	 64.9492
3.476000	 65.0284
3.494000	 65.0268
3.512000	 65.1665
3.530000	 65.0187
3.548000	 65.0813
3.566000	 65.1428
3.584000	 65.1351
3.602000	 64.9758
3.620000	 65.2344
3.638000	 65.1141
3.656000	 65.1371
3.674000	 65.057
3.692000	 65.1829
3.710000	 65.3001
3.728000	 65.0818
3.746000	 65.258
3.764000	 65.1897
3.782000	 65.1289
3.800000	 65.0804
3.818000	 65.1283
3.836000	 65.1542
3.854000	 65.0998
3.872000	 65.1001
3.890000	 65.1489
3.908000	 65.2209
3.926000	 65.2529
3.944000	 65.3013
3.962000	 65.2355
3.980000	 65.1692
3.998000	 65.0433
4.016000	 64.9831
4.034000	 65.2224
4.052000	 65.0988
4.070000	 65.1746
4.088000	 65.1559
4.106000	 65.2387
4.124000	 64.9856
4.141999	 65.5356
4.160000	 65.0998
4.178000	 65.3032
4.196000	 65.2247
4.214000	 65.1257
4.232000	 65.1862
4.250000	 65.1508
4.268000	 65.2581
4.286000	 65.2326
4.304000	 65.0854
4.322000	 65.1443
4.340000	 65.249
4.358000	 65.1647
4.375999	 65.1003
4.394000	 65.1576
4.412000	 65.3353
4.430000	 65.1646
4.448000	 65.3
4.466000	 65.1845
4.484000	 65.081
4.502000	 65.1782
4.520000	 65.3158
4.538000	 65.359
4.556000	 65.2863
4.574000	 65.206
4.592000	 65.2563
4.609999	 65.2918
4.628000	 65.2377
4.646000	 65.368
4.664000	 65.3757
4.682000	 65.3305
4.700000	 65.2618
4.718000	 65.2337
4.736000	 65.2024
4.754000	 65.2735
4.772000	 65.2615
4.790000	 65.2449
4.808000	 64.9785
4.826000	 65.3861
4.843999	 65.5573
4.862000	 65.034
4.880000	 65.0956
4.898000	 65.2571
4.916000	 65.3614
4.934000	 65.2554
4.952000	 65.2522
4.970000	 65.2381
4.988000	 65.2464
5.006000	 65.0725
5.024000	 65.0943
5.042000	 65.2782
5.060000	 65.2264
5.077999	 65.132
5.096000	 65.2178
5.114000	 65.3053
5.132000	 65.2192
5.150000	 65.1441
5.168000	 65.0869
5.186000	 65.0168
5.204000	 65.1859
5.222000	 65.3044
5.240000	 65.3652
5.258000	 65.2784
5.276000	 65.1844
5.294000	 65.2231
5.312000	 65.3113
5.330000	 65.3721
5.348000	 65.2199
5.366000	 65.094
5.384000	 65.0975
5.402000	 65.1894
5.420000	 65.1756
5.438000	 65.0622
5.456000	 65.1481
5.474000	 65.1751
5.492000	 65.1422
5.510000	 65.1384
5.528000	 65.0157
5.546000	 65.0625
5.564000	 65.1598
5.582000	 65.121
5.600000	 65.0845
5.618000	 65.1244
5.636000	 65.1582
5.654000	 65.1145
5.672000	 65.064
5.690000	 65.147
5.708000	 65.2362
5.726000	 65.0841
5.744000	 64.9167
5.762000	 64.8204
5.780000	 64.8617
5.798000	 65.1131
5.816000	 65.2198
5.834000	 65.2604
5.852000	 65.2022
5.870000	 65.1097
5.888000	 65.1043
5.906000	 65.1573
5.923999	 65.069
5.942000	 65.033
5.960000	 65.11
5.978000	 65.1563
5.996000	 65.0444
6.014000	 64.9881
6.032000	 65.0381
6.050000	 65.1448
6.068000	 65.195
6.086000	 65.083
6.104000	 64.9859
6.122000	 65.0657
6.140000	 65.0919
6.158000	 65.0274
6.176000	 65.0698
6.194000	 65.0868
6.212000	 65.041
6.230000	 64.9788
6.248000	 65.0011
6.266000	 65.0489
6.284000	 65.0243
6.302000	 65.0611
6.320000	 64.9909
6.338000	 64.8522
6.356000	 64.8723
6.374000	 64.9383
6.392000	 64.8505
6.410000	 64.7492
6.428000	 64.8081
6.446000	 64.8997
6.464000	 64.9646
6.482000	 64.9492
6.500000	 65.0324
6.518000	 65.2095
6.536000	 65.1564
6.554000	 64.9964
6.572000	 64.9348
6.590000	 64.9201
6.608000	 64.9839
6.626000	 65.1022
6.644000	 65.1368
6.662000	 65.107
6.680000	 65.1532
6.698000	 65.2518
6.716000	 65.2364
6.734000	 65.1823
6.752000	 65.145
6.770000	 65.0632
6.788000	 65.0025
6.806000	 65.0202
6.824000	 65.0499
6.842000	 65.0883
6.860000	 65.1232
6.878000	 65.0289
6.896000	 64.8557
6.914000	 64.8293
6.932000	 64.9392
6.950000	 65.0099
6.968000	 64.9805
6.986000	 64.8966
7.004000	 64.8301
7.022000	 64.8305
7.040000	 64.874
7.058000	 64.9109
7.076000	 64.8793
7.094000	 64.7988
7.112000	 64.8176
7.130000	 64.9116
7.148000	 64.9089
7.166000	 64.8726
7.184000	 64.9152
7.202000	 64.9256
7.220000	 64.8619
7.238000	 64.8495
7.256000	 64.9102
7.274000	 64.9586
7.292000	 64.9483
7.310000	 64.8954
7.328000	 64.8615
7.346000	 64.8703
7.364000	 64.8841
7.382000	 64.904
7.400000	 64.9496
7.418000	 64.9873
7.436000	 64.9838
7.454000	 64.9294
7.472000	 64.8392
7.490000	 64.7983
7.508000	 64.8445
7.526000	 64.8652
7.544000	 64.808
7.562000	 64.8106
7.580000	 64.9424
7.598000	 65.0684
7.616000	 65.0749
7.634000	 65.0007
7.652000	 64.9292
7.670000	 64.8985
7.688000	 64.8846
7.706000	 64.8163
7.724000	 64.6731
7.742000	 64.5458
7.760000	 64.5313
7.778000	 64.6176
7.796000	 64.7298
7.814000	 64.8305
7.832000	 64.9099
7.850000	 64.9476
7.868000	 64.9284
7.886000	 64.8571
7.904000	 64.7539
7.922000	 64.6626
7.940000	 64.6331
7.958000	 64.6669
7.976000	 64.7249
7.994000	 64.7767
8.012000	 64.8069
8.030000	 64.8038
8.048000	 64.7716
8.065999	 64.7336
8.084000	 64.7132
8.102000	 64.7245
8.120000	 64.7709
8.138000	 64.837
8.155999	 64.8966
8.173999	 64.9296
8.192000	 64.9344
8.210000	 64.9264
8.228000	 64.9205
8.246000	 64.9155
8.263999	 64.8999
8.282000	 64.8679
8.300000	 64.8258
8.318000	 64.7889
8.336000	 64.7739
8.353999	 64.7791
8.372000	 64.7861
8.390000	 64.8
8.408000	 64.8525
8.426000	 64.9457
8.443999	 65.022
8.462000	 65.0152
8.480000	 64.924
8.498000	 64.8063
8.516000	 64.7173
8.533999	 64.6718
8.552000	 64.6535
8.570000	 64.6451
8.588000	 64.6387
8.606000	 64.6272
8.624000	 64.6042
8.641999	 64.579
8.660000	 64.5799
8.678000	 64.629
8.696000	 64.7156
8.714000	 64.8004
8.731999	 64.8453
8.750000	 64.831
8.768000	 64.7702
8.786000	 64.7085
8.804000	 64.6993
8.821999	 64.7552
8.840000	 64.8296
8.858000	 64.8615
8.876000	 64.8338
8.894000	 64.7806
8.911999	 64.7458
8.930000	 64.7528
8.948000	 64.8012
8.966000	 64.8683
8.984000	 64.9148
9.001999	 64.9132
9.020000	 64.8867
9.038000	 64.8971
9.056000	 64.9739
9.074000	 65.0656
9.092000	 65.0819
9.109999	 64.986
9.128000	 64.8341
9.146000	 64.7261
9.164000	 64.7208
9.182000	 64.8044
9.199999	 64.9176
9.218000	 65.0005
9.236000	 65.0207
9.254000	 64.9824
9.272000	 64.918
9.289999	 64.87
9.308000	 64.8658
9.326000	 64.9012
9.344000	 64.9439
9.362000	 64.9518
9.379999	 64.8983
9.398000	 64.789
9.416000	 64.6612
9.434000	 64.5633
9.452000	 64.5256
9.469999	 64.5467
9.488000	 64.604
9.506000	 64.6708
9.524000	 64.7281
9.542000	 64.7627
9.560000	 64.7668
9.577999	 64.7418
9.596000	 64.7017
9.614000	 64.668
9.632000	 64.6539
9.650000	 64.6528
9.667999	 64.6432
9.686000	 64.6074
9.704000	 64.548
9.722000	 64.4877
9.740000	 64.4556
9.757999	 64.4718
9.776000	 64.5389
9.794000	 64.6419
9.812000	 64.7516
9.830000	 64.8327
9.847999	 64.8571
9.866000	 64.8192
9.884000	 64.7416
9.902000	 64.6618
9.920000	 64.6075
9.937999	 64.5809
9.956000	 64.5649
9.974000	 64.5447
9.992000	 64.5236
10.01	64.5189
10.028	64.5447
10.046	64.5979
10.064	64.6586
10.082	64.7036
10.1	64.719
10.118	64.7042
10.136	64.6699
10.154	64.6319
10.172	64.6043
10.19	64.5926
10.208	64.5912
10.226	64.5865
10.244	64.5663
10.262	64.5303
10.28	64.4928
10.298	64.4746
10.316	64.4894
10.334	64.5311
10.352	64.5765
10.37	64.5979
10.388	64.5799
10.406	64.5282
10.424	64.4664
10.442	64.4217
10.46	64.4086
10.478	64.4247
10.496	64.4536
10.514	64.4783
10.532	64.488
10.55	64.4809
10.568	64.4599
10.586	64.4305
10.604	64.4008
10.622	64.3825
10.64	64.3885
10.658	64.4275
10.676	64.4968
10.694	64.5813
10.712	64.6572
10.73	64.7032
10.748	64.708
10.766	64.6741
10.784	64.614
10.802	64.5441
10.82	64.4765
10.838	64.4186
10.856	64.3738
10.874	64.3426
10.892	64.3225
10.91	64.31
10.928	64.3009
10.946	64.2949
10.964	64.2991
10.982	64.3251
11	64.3815
11.018	64.4665
11.036	64.5635
11.054	64.645
11.072	64.6863
11.09	64.6775
11.108	64.6277
11.126	64.5593
11.144	64.4908
11.162	64.4281
11.18	64.3628
11.198	64.2802
11.216	64.1728
11.234	64.0477
11.252	63.926
11.27	63.8328
11.288	63.7897
11.306	63.8046
11.324	63.8697
11.342	63.9644
11.36	64.0644
11.378	64.1458
11.396	64.1938
11.414	64.2028
11.432	64.1784
11.45	64.1337
11.468	64.0852
11.486	64.0451
11.504	64.0186
11.522	64.0015
11.54	63.9827
11.558	63.9492
11.576	63.8904
11.594	63.8041
11.612	63.6993
11.63	63.5974
11.648	63.525
11.666	63.5072
11.684	63.5562
11.702	63.6648
11.72	63.8068
11.738	63.9458
11.756	64.0509
11.774	64.1052
11.792	64.1139
11.81	64.0986
11.828	64.0866
11.846	64.0988
11.864	64.1407
11.882	64.2027
11.9	64.2664
11.918	64.3151
11.936	64.3416
11.954	64.3484
11.972	64.343
11.99	64.3307
12.008	64.3082
12.026	64.2639
12.044	64.184
12.062	64.0612
12.08	63.9017
12.098	63.7261
12.116	63.5638
12.134	63.4431
12.152	63.3812
12.17	63.3802
12.188	63.4286
12.206	63.5054
12.224	63.589
12.242	63.664
12.26	63.7217
12.278	63.7604
12.296	63.782
12.314	63.7901
12.332	63.7882
12.35	63.7802
12.368	63.7707
12.386	63.7657
12.404	63.7709
12.422	63.7902
12.44	63.8235
12.458	63.8678
12.476	63.918
12.494	63.9695
12.512	64.0202
12.53	64.071
12.548	64.1247
12.566	64.1838
12.584	64.2473
12.602	64.3097
12.62	64.3619
12.638	64.3939
12.656	64.3984
12.674	64.3739
12.692	64.3258
12.71	64.2656
12.728	64.2079
12.746	64.1654
12.764	64.1467
12.782	64.1544
12.8	64.1846
12.818	64.2283
12.836	64.2735
12.854	64.308
12.872	64.3223
12.89	64.3109
12.908	64.2731
12.926	64.2129
12.944	64.1377
12.962	64.0561
12.98	63.9761
12.998	63.9035
13.016	63.842
13.034	63.793
13.052	63.7558
13.07	63.7279
13.088	63.7064
13.106	63.6876
13.124	63.6672
13.142	63.6408
13.16	63.6046
13.178	63.5564
13.196	63.4958
13.214	63.4259
13.232	63.353
13.25	63.2861
13.268	63.2356
13.286	63.2105
13.304	63.217
13.322	63.2565
13.34	63.3259
13.358	63.4182
13.376	63.5246
13.394	63.6362
13.412	63.7452
13.43	63.8454
13.448	63.9327
13.466	64.0037
13.484	64.0549
13.502	64.0829
13.52	64.0838
13.538	64.0548
13.556	63.995
13.574	63.9062
13.592	63.7933
13.61	63.6654
13.628	63.5336
13.646	63.4099
13.664	63.3048
13.682	63.2261
13.7	63.1774
13.718	63.1573
13.736	63.1609
13.754	63.1804
13.772	63.2078
13.79	63.2365
13.808	63.2625
13.826	63.2844
13.844	63.3036
13.862	63.3223
13.88	63.3428
13.898	63.3658
13.916	63.3903
13.934	63.4132
13.952	63.4305
13.97	63.4374
13.988	63.4302
14.006	63.4075
14.024	63.3704
14.042	63.3226
14.06	63.2694
14.078	63.2167
14.096	63.1703
14.114	63.1347
14.132	63.1124
14.15	63.1044
14.168	63.11
14.186	63.1271
14.204	63.1534
14.222	63.186
14.24	63.2213
14.258	63.2559
14.276	63.2863
14.294	63.3099
14.312	63.3248
14.33	63.3295
14.348	63.3244
14.366	63.3112
14.384	63.2927
14.402	63.273
14.42	63.2551
14.438	63.2418
14.456	63.2342
14.474	63.2313
14.492	63.2304
14.51	63.2272
14.528	63.2165
14.546	63.1939
14.564	63.1565
14.582	63.1033
14.6	63.0356
14.618	62.9569
14.636	62.8728
14.654	62.7897
14.672	62.7131
14.69	62.6475
14.708	62.5963
14.726	62.5613
14.744	62.5431
14.762	62.5407
14.78	62.5528
14.798	62.5777
14.816	62.6137
14.834	62.659
14.852	62.7113
14.87	62.7683
14.888	62.8273
14.906	62.8851
14.924	62.9386
14.942	62.9837
14.96	63.017
14.978	63.0359
14.996	63.0387
15.014	63.0247
15.032	62.9952
15.05	62.9531
15.068	62.9021
15.086	62.8462
15.104	62.7899
15.122	62.738
15.14	62.6935
15.158	62.6578
15.176	62.6316
15.194	62.6139
15.212	62.6025
15.23	62.5945
15.248	62.5871
15.266	62.5774
15.284	62.5629
15.302	62.5423
15.32	62.515
15.338	62.481
15.356	62.4413
15.374	62.3974
15.392	62.351
15.41	62.3036
15.428	62.2569
15.446	62.2129
15.464	62.173
15.482	62.1384
15.5	62.1104
15.518	62.0906
15.536	62.0803
15.554	62.0803
15.572	62.0916
15.59	62.1145
15.608	62.1484
15.626	62.1925
15.644	62.2452
15.662	62.3036
15.68	62.3651
15.698	62.4266
15.716	62.4847
15.734	62.5362
15.752	62.5793
15.77	62.6123
15.788	62.6345
15.806	62.6464
15.824	62.6491
15.842	62.6443
15.86	62.6348
15.878	62.6228
15.896	62.6103
15.914	62.5995
15.932	62.5917
15.95	62.5876
15.968	62.5872
15.986	62.5896
16.004	62.5932
16.022	62.5963
16.04	62.5963
16.058	62.5911
16.076	62.5791
16.094	62.5583
16.112	62.5285
16.13	62.4896
16.148	62.442
16.166	62.3881
16.184	62.33
16.202	62.2702
16.22	62.2132
16.238	62.1617
16.256	62.1187
16.274	62.0878
16.292	62.071
16.31	62.0695
16.328	62.0844
16.346	62.1143
16.364	62.1583
16.382	62.2129
16.4	62.2742
16.418	62.339
16.436	62.4012
16.454	62.4564
16.472	62.5012
16.49	62.5306
16.508	62.5432
16.526	62.5375
16.544	62.5139
16.562	62.4747
16.58	62.4218
16.598	62.3606
16.616	62.2956
16.634	62.2305
16.652	62.1722
16.67	62.1235
16.688	62.0875
16.706	62.0669
16.724	62.0615
16.742	62.0712
16.76	62.0932
16.778	62.1255
16.796	62.1637
16.814	62.2035
16.832	62.2423
16.85	62.2749
16.868	62.2992
16.886	62.3128
16.904	62.3142
16.922	62.3032
16.94	62.2798
16.958	62.2457
16.976	62.2019
16.994	62.1508
17.012	62.0944
17.03	62.0342
17.048	61.9728
17.066	61.9115
17.084	61.8518
17.102	61.7954
17.12	61.7429
17.138	61.6958
17.156	61.6548
17.174	61.6205
17.192	61.5941
17.21	61.5758
17.228	61.5668
17.246	61.5672
17.264	61.5775
17.282	61.5978
17.3	61.6276
17.318	61.6663
17.336	61.7123
17.354	61.7648
17.372	61.8208
17.39	61.8788
17.408	61.9357
17.426	61.989
17.444	62.037
17.462	62.0766
17.48	62.1069
17.498	62.1259
17.516	62.1333
17.534	62.1285
17.552	62.1124
17.57	62.0853
17.588	62.0492
17.606	62.0052
17.624	61.9554
17.642	61.9021
17.66	61.8461
17.678	61.7901
17.696	61.7347
17.714	61.6816
17.732	61.6309
17.75	61.5834
17.768	61.5392
17.786	61.4985
17.804	61.4606
17.822	61.4258
17.84	61.3937
17.858	61.3648
17.876	61.3393
17.894	61.3181
17.912	61.3015
17.93	61.2909
17.948	61.2864
17.966	61.2891
17.984	61.2989
18.002	61.3161
18.02	61.34
18.038	61.3702
18.056	61.4049
18.074	61.4437
18.092	61.4841
18.11	61.5258
18.128	61.5664
18.146	61.6059
18.164	61.6429
18.182	61.6779
18.2	61.7104
18.218	61.7414
18.236	61.7714
18.254	61.8016
18.272	61.8326
18.29	61.8658
18.308	61.9012
18.326	61.9393
18.344	61.9797
18.362	62.0217
18.38	62.0645
18.398	62.1062
18.416	62.1452
18.434	62.1795
18.452	62.2068
18.47	62.2255
18.488	62.2339
18.506	62.2313
18.524	62.2168
18.542	62.1901
18.56	62.1524
18.578	62.1037
18.596	62.0462
18.614	61.9804
18.632	61.9093
18.65	61.8334
18.668	61.7559
18.686	61.6769
18.704	61.5992
18.722	61.5227
18.74	61.4493
18.758	61.3787
18.776	61.3118
18.794	61.2485
18.812	61.1888
18.83	61.1329
18.848	61.0809
18.866	61.0328
18.884	60.9886
18.902	60.9487
18.92	60.9131
18.938	60.882
18.956	60.8557
18.974	60.8339
18.992	60.8169
19.01	60.8042
19.028	60.7955
19.046	60.7903
19.064	60.7877
19.082	60.7872
19.1	60.7875
19.118	60.7881
19.136	60.7875
19.154	60.7856
19.172	60.7811
19.19	60.7742
19.208	60.7641
19.226	60.7509
19.244	60.7348
19.262	60.7159
19.28	60.6945
19.298	60.6706
19.316	60.6447
19.334	60.6168
19.352	60.5868
19.37	60.5548
19.388	60.5197
19.406	60.4817
19.424	60.4392
19.442	60.3923
19.46	60.3395
19.478	60.2807
19.496	60.2155
19.514	60.1435
19.532	60.0654
19.55	59.981
19.568	59.8921
19.586	59.7997
19.604	59.7052
19.622	59.6118
19.64	59.5199
19.658	59.4342
19.676	59.3544
19.694	59.2854
19.712	59.2268
19.73	59.1819
19.748	59.151
19.766	59.1345
19.784	59.133
19.802	59.1451
19.82	59.1706
19.838	59.2074
19.856	59.2533
19.874	59.3073
19.892	59.3649
19.91	59.4265
19.928	59.4865
19.946	59.5454
19.964	59.5994
19.982	59.6479
20	59.6899
20.018	59.7241
20.036	59.751
20.054	59.7703
20.072	59.7825
20.09	59.7888
20.108	59.7892
20.126	59.7861
20.144	59.7794
20.162	59.7711
20.18	59.762
20.198	59.7526
20.216	59.7443
20.234	59.7368
20.252	59.7305
20.27	59.7253
20.288	59.7207
20.306	59.717
20.324	59.7128
20.342	59.7077
20.36	59.7011
20.378	59.6916
20.396	59.6794
20.414	59.6626
20.432	59.6415
20.45	59.6152
20.468	59.5832
20.486	59.5459
20.504	59.503
20.522	59.4548
20.54	59.4022
20.558	59.3449
20.576	59.2849
20.594	59.2226
20.612	59.1589
20.63	59.0958
20.648	59.0329
20.666	58.9732
20.684	58.9166
20.702	58.8649
20.72	58.8195
20.738	58.7804
20.756	58.75
20.774	58.7278
20.792	58.715
20.81	58.7119
20.828	58.7183
20.846	58.7347
20.864	58.7608
20.882	58.7959
20.9	58.8403
20.918	58.8926
20.936	58.9522
20.954	59.0187
20.972	59.0897
20.99	59.1657
21.008	59.2444
21.026	59.325
21.044	59.407
21.062	59.488
21.08	59.5687
21.098	59.6472
21.116	59.723
21.134	59.7959
21.152	59.8648
21.17	59.93
21.188	59.991
21.206	60.0479
21.224	60.1007
21.242	60.1496
21.26	60.1946
21.278	60.2365
21.296	60.2755
21.314	60.3119
21.332	60.3466
21.35	60.3795
21.368	60.4112
21.386	60.442
21.404	60.4718
21.422	60.5008
21.44	60.5288
21.458	60.5559
21.476	60.5822
21.494	60.6074
21.512	60.6308
21.53	60.6527
21.548	60.6723
21.566	60.6894
21.584	60.7039
21.602	60.7144
21.62	60.7212
21.638	60.7236
21.656	60.7212
21.674	60.7142
21.692	60.7015
21.71	60.683
21.728	60.6587
21.746	60.6281
21.764	60.5916
21.782	60.5487
21.8	60.4993
21.818	60.4434
21.836	60.3815
21.854	60.3133
21.872	60.2391
21.89	60.1594
21.908	60.0738
21.926	59.9832
21.944	59.8883
21.962	59.7887
21.98	59.6859
21.998	59.5795
22.016	59.4702
22.034	59.3593
22.052	59.2462
22.07	59.1321
22.088	59.0178
22.106	58.9027
22.124	58.7884
22.142	58.675
22.16	58.5625
22.178	58.4521
22.196	58.3436
22.214	58.2373
22.232	58.1336
22.25	58.0324
22.268	57.9343
22.286	57.8396
22.304	57.7481
22.322	57.661
22.34	57.5782
22.358	57.4999
22.376	57.4275
22.394	57.3605
22.412	57.2997
22.43	57.2462
22.448	57.1992
22.466	57.1607
22.484	57.1322
22.502	57.1128
22.52	57.1052
22.538	57.1104
22.556	57.1278
22.574	57.1601
22.592	57.2077
22.61	57.2702
22.628	57.3492
22.646	57.4451
22.664	57.5567
22.682	57.6828
22.7	57.8247
22.718	57.9794
22.736	58.1435
22.754	58.3192
22.772	58.5018
22.79	58.6879
22.808	58.8799
22.826	59.0719
22.844	59.2605
22.862	59.4485
22.88	59.628
22.898	59.7963
22.916	59.9554
22.934	60.0985
22.952	60.2233
22.97	60.3317
22.988	60.4207
23.006	60.4892
23.024	60.5384
23.042	60.5684
23.06	60.5785
23.078	60.5696
23.096	60.5444
23.114	60.5019
23.132	60.4433
23.15	60.3728
23.168	60.2893
23.186	60.1941
23.204	60.0925
23.222	59.9837
23.24	59.8686
23.258	59.7516
23.276	59.6321
23.294	59.5106
23.312	59.3911
23.33	59.2735
23.348	59.1575
23.366	59.045
23.384	58.9364
23.402	58.831
23.42	58.728
23.438	58.6276
23.456	58.5296
23.474	58.4329
23.492	58.3366
23.51	58.2415
23.528	58.149
23.546	58.0595
23.564	57.9727
23.582	57.8886
23.6	57.8077
23.618	57.7299
23.636	57.6542
23.654	57.5806
23.672	57.5095
23.69	57.439
23.708	57.3679
23.726	57.2975
23.744	57.2252
23.762	57.1492
23.78	57.0712
23.798	56.9885
23.816	56.8979
23.834	56.801
23.852	56.6966
23.87	56.5821
23.888	56.4581
23.906	56.3246
23.924	56.1801
23.942	56.0235
23.96	55.8561
23.978	55.6801
23.996	55.4941
24.014	55.298
24.032	55.1004
24.05	54.905
24.068	54.7056
24.086	54.5161
24.104	54.3486
24.122	54.1927
24.14	54.0605
24.158	53.9691
24.176	53.9108
24.194	53.8909
24.212	53.9278
24.23	54.0233
24.248	54.1727
24.266	54.3894
24.284	54.6815
24.302	55.0419
24.32	55.4758
24.338	55.9885
24.356	56.5795
24.374	57.2453
24.392	57.9831
24.41	58.7977
24.428	59.6841
24.446	60.6293
24.464	61.6315
24.482	62.6969
24.5	63.8041
24.518	64.9367
24.536	66.1114
24.554	67.3083
24.572	68.4997
24.59	69.694
24.608	70.8891
24.626	72.0589
24.644	73.1941
24.662	74.3088
24.68	75.3794
24.698	76.3837
24.716	77.3345
24.734	78.2254
24.752	79.0411
24.77	79.7832
24.788	80.455
24.806	81.0418
24.824	81.5339
24.842	81.9412
24.86	82.2556
24.878	82.4665
24.896	82.5794
24.914	82.5929
24.932	82.4955
24.95	82.2817
24.968	81.9591
24.986	81.5206
25.004	80.9584
25.022	80.2753
25.04	79.4722
25.058	78.5459
25.076	77.4931
25.094	76.3155
25.112	75.0191
25.13	73.6091
25.148	72.0755
25.166	70.4293
25.184	68.6908
25.202	66.864
25.22	64.9339
25.238	62.9346
25.256	60.9001
25.274	58.8047
25.292	56.6636
25.31	54.5254
25.328	52.4132
25.346	50.2902
25.364	48.2027
25.382	46.2043
25.4	44.2755
25.418	42.4147
25.436	40.6752
25.454	39.0962
25.472	37.6386
25.49	36.33
25.508	35.2132
25.526	34.2948
25.544	33.5534
25.562	33.019
25.58	32.7201
25.598	32.6454
25.616	32.7921
25.634	33.1696
25.652	33.7868
25.67	34.641
25.688	35.7207
25.706	37.0145
25.724	38.5329
25.742	40.2752
25.76	42.2046
25.778	44.2891
25.796	46.5675
25.814	49.0107
25.832	51.5554
25.85	54.1664
25.868	56.9026
25.886	59.7005
25.904	62.4805
25.922	65.2384
25.94	68.0192
25.958	70.7347
25.976	73.2963
25.994	75.7429
26.012	78.0786
26.03	80.2262
26.048	82.119
26.066	83.8065
26.084	85.2735
26.102	86.4736
26.12	87.3731
26.138	87.9987
26.156	88.3511
26.174	88.4256
26.192	88.209
26.21	87.7003
26.228	86.9354
26.246	85.9513
26.264	84.7279
26.282	83.2571
26.3	81.608
26.318	79.8481
26.336	77.9301
26.354	75.8627
26.372	73.7312
26.39	71.6129
26.408	69.4429
26.426	67.2451
26.444	65.1002
26.462	63.0749
26.48	61.1074
26.498	59.2228
26.516	57.4786
26.534	55.9177
26.552	54.4991
26.57	53.2362
26.588	52.1561
26.606	51.279
26.624	50.5903
26.642	50.0851
26.66	49.7617
26.678	49.6243
26.696	49.6825
26.714	49.912
26.732	50.2862
26.75	50.7962
26.768	51.4681
26.786	52.2707
26.804	53.1689
26.822	54.1506
26.84	55.2485
26.858	56.4273
26.876	57.6473
26.894	58.8922
26.912	60.1962
26.93	61.53
26.948	62.859
26.966	64.218
26.984	65.712
27.002	67.1285
27.02	68.2342
27.028	68.5313