File: Bakgrunnsmateriale/MATLAB/FTIR/ftir_data/subBb/Mapping_121/C-4040-8_t22_cm-1.asc
PE IR       SPECTRUM    SPECTRUM    ASCII       PEDS        1.60
  -1
C-9A64~1.ASC
17/03/27
16:13:04.00
17/03/27
16:13:04.00
tln
$C-4040-8_t0022$<tbV0>[-13.0,-10.4,8.0,0.0,27,1,0]
370
64

2002,4.07
MIRTGS : RIGHTBACK : INTERNAL 2
MIR : ON : INTERNAL 2
OPTKBR

0.200000
8
8.000000
FILLER
RATIO
SPECTRUM
UNLOCKED 256

DOUBLE
64
COMBINED
1
0
0

1.000000
RATIO

1
0
TRUE
51149
0
LEFT NOT FITTED RIGHT NOT FITTED 0
NONE
NONE
15600
12
4.427000
51148
TRUE
1 0 8 72 0 0 0 0

15798

#HDR
-1
-1
#GR
CM-1
%T
2.38419e-05
0.0
5000
-1.000000
4631
8
100.757
44.7296
#DATA
5000	64.3334
4996	64.3414
4992	65.1021
4988	65.8886
4984	65.8259
4980	65.2
4976	64.4251
4972	64.2334
4968	64.7513
4964	64.3167
4960	63.5035
4956	63.9148
4952	64.4849
4948	64.2178
4944	63.4748
4940	63.5638
4936	64.6617
4932	65.2168
4928	64.7681
4924	64.3458
4920	64.5087
4916	64.8662
4912	65.2666
4908	65.6102
4904	65.6918
4900	65.4934
4896	65.2816
4892	65.4379
4888	65.489
4884	65.2445
4880	65.1428
4876	64.9551
4872	64.7717
4868	65.0679
4864	65.478
4860	65.3956
4856	65.0486
4852	64.986
4848	65.202
4844	65.5277
4840	65.7924
4836	65.6967
4832	65.2284
4828	64.859
4824	64.7726
4820	64.8203
4816	64.9899
4812	65.0463
4808	64.8093
4804	64.5371
4800	64.5176
4796	64.6496
4792	64.832
4788	65.0858
4784	65.2126
4780	65.1649
4776	65.1216
4772	65.0764
4768	64.9545
4764	64.7158
4760	64.5867
4756	64.8971
4752	65.3488
4748	65.5545
4744	65.4101
4740	65.0081
4736	64.6603
4732	64.6048
4728	64.7533
4724	64.797
4720	64.7917
4716	64.8316
4712	64.8677
4708	65.0142
4704	65.1456
4700	64.9977
4696	64.8281
4692	65.0361
4688	65.2372
4684	65.1227
4680	65.0437
4676	65.0269
4672	64.9231
4668	64.8086
4664	64.7529
4660	64.9294
4656	65.2059
4652	65.0885
4648	64.8142
4644	64.8598
4640	65.0655
4636	65.1874
4632	65.1657
4628	65.1002
4624	65.1067
4620	65.2616
4616	65.3992
4612	65.2629
4608	65.1152
4604	65.1093
4600	65.1213
4596	65.1619
4592	65.0252
4588	64.7707
4584	64.7261
4580	64.9561
4576	65.1875
4572	65.0549
4568	64.8363
4564	64.8874
4560	65.1215
4556	65.1669
4552	64.7305
4548	64.4951
4544	64.7575
4540	64.8375
4536	64.5786
4532	64.3794
4528	64.7413
4524	65.3716
4520	65.5986
4516	65.4374
4512	65.1309
4508	65.0572
4504	65.2553
4500	65.2241
4496	64.9714
4492	64.6937
4488	64.5741
4484	64.6054
4480	65.084
4476	65.5456
4472	65.4768
4468	65.6159
4464	65.8965
4460	66.2782
4456	67.069
4452	69.35
4448	71.8654
4444	71.626
4440	68.5175
4436	64.4937
4432	62.9864
4428	63.685
4424	63.959
4420	63.9365
4416	63.8817
4412	63.9557
4408	64.5276
4404	64.9007
4400	64.55
4396	63.5828
4392	62.5267
4388	62.5932
4384	64.8204
4380	66.5322
4376	62.7638
4372	56.8554
4368	58.5826
4364	65.5082
4360	68.2275
4356	67.1363
4352	66.1367
4348	65.8245
4344	65.5824
4340	65.5181
4336	65.8375
4332	65.8
4328	65.4454
4324	65.4247
4320	65.3433
4316	64.9712
4312	64.7939
4308	64.7845
4304	64.7509
4300	64.7824
4296	64.9544
4292	65.048
4288	64.8947
4284	64.801
4280	64.8397
4276	64.8803
4272	64.8751
4268	64.6785
4264	64.5441
4260	64.7897
4256	65.0731
4252	65.0841
4248	65.0391
4244	65.1125
4240	65.2655
4236	65.3518
4232	65.2822
4228	65.1677
4224	65.1172
4220	65.1812
4216	65.2184
4212	65.1716
4208	65.1754
4204	65.1255
4200	65.0442
4196	64.9958
4192	64.615
4188	64.1857
4184	64.2618
4180	64.4459
4176	64.4437
4172	64.5279
4168	64.7981
4164	65.0026
4160	64.9856
4156	64.8872
4152	64.7897
4148	64.7754
4144	64.9021
4140	64.9176
4136	64.8491
4132	64.9245
4128	65.0219
4124	65.1331
4120	65.218
4116	65.0701
4112	64.8148
4108	64.7478
4104	64.8428
4100	64.8025
4096	64.7387
4092	64.9471
4088	65.1915
4084	65.3232
4080	65.4588
4076	65.3534
4072	65.0424
4068	64.9489
4064	65.0906
4060	65.2369
4056	65.2153
4052	65.0915
4048	65.0478
4044	65.1035
4040	65.2419
4036	65.4163
4032	65.5229
4028	65.564
4024	65.5432
4020	65.4484
4016	65.4071
4012	65.3794
4008	65.3251
4004	65.3264
4000	65.2959
3996	65.2356
3992	65.218
3988	65.1493
3984	64.916
3980	64.6606
3976	64.5937
3972	64.7225
3968	65.0167
3964	65.3022
3960	65.3193
3956	65.1685
3952	65.0797
3948	65.112
3944	65.1542
3940	65.1157
3936	65.0875
3932	65.0807
3928	65.1503
3924	65.2727
3920	65.2896
3916	65.261
3912	65.246
3908	65.2865
3904	65.4085
3900	65.4401
3896	65.3804
3892	65.3931
3888	65.3556
3884	65.2235
3880	65.1547
3876	65.1757
3872	65.2426
3868	65.2761
3864	65.2896
3860	65.4062
3856	65.6799
3852	65.758
3848	65.5161
3844	65.4097
3840	65.4844
3836	65.4231
3832	65.2124
3828	65.0945
3824	65.1561
3820	65.3002
3816	65.3111
3812	65.2619
3808	65.3775
3804	65.5259
3800	65.5336
3796	65.3868
3792	65.2678
3788	65.246
3784	65.195
3780	65.106
3776	65.0897
3772	65.2209
3768	65.3674
3764	65.3807
3760	65.3557
3756	65.5132
3752	65.7363
3748	65.8164
3744	65.7902
3740	65.7734
3736	65.8241
3732	65.692
3728	65.426
3724	65.3038
3720	65.3186
3716	65.4975
3712	65.6262
3708	65.5138
3704	65.4588
3700	65.4503
3696	65.3878
3692	65.4725
3688	65.5025
3684	65.4166
3680	65.5271
3676	65.7596
3672	65.7569
3668	65.4941
3664	65.3164
3660	65.2971
3656	65.3072
3652	65.4277
3648	65.5174
3644	65.3584
3640	65.1903
3636	65.2592
3632	65.4794
3628	65.5241
3624	65.3899
3620	65.369
3616	65.3914
3612	65.3353
3608	65.2529
3604	65.21
3600	65.1927
3596	65.2544
3592	65.4354
3588	65.4851
3584	65.3345
3580	65.2611
3576	65.271
3572	65.1819
3568	65.1258
3564	65.1814
3560	65.1716
3556	65.0966
3552	65.1102
3548	65.2051
3544	65.2304
3540	65.1662
3536	65.19
3532	65.3351
3528	65.3885
3524	65.2459
3520	65.0805
3516	65.0851
3512	65.1216
3508	65.057
3504	65.0912
3500	65.2025
3496	65.2292
3492	65.2561
3488	65.3239
3484	65.4052
3480	65.4667
3476	65.4138
3472	65.361
3468	65.4558
3464	65.5202
3460	65.4827
3456	65.4326
3452	65.3847
3448	65.3739
3444	65.339
3440	65.2283
3436	65.1829
3432	65.2127
3428	65.0998
3424	64.889
3420	64.9158
3416	65.1655
3412	65.2909
3408	65.2526
3404	65.2497
3400	65.2282
3396	65.1174
3392	65.1096
3388	65.2376
3384	65.3249
3380	65.3341
3376	65.31
3372	65.252
3368	65.2147
3364	65.1927
3360	65.167
3356	65.2208
3352	65.2751
3348	65.2462
3344	65.187
3340	65.2031
3336	65.2736
3332	65.2454
3328	65.1856
3324	65.2008
3320	65.1652
3316	65.0821
3312	65.0675
3308	65.1233
3304	65.1719
3300	65.1593
3296	65.1684
3292	65.2377
3288	65.2632
3284	65.2619
3280	65.3091
3276	65.3477
3272	65.3166
3268	65.2278
3264	65.1101
3260	65.0172
3256	65.0108
3252	65.1099
3248	65.2569
3244	65.3056
3240	65.2803
3236	65.3424
3232	65.387
3228	65.2808
3224	65.1946
3220	65.2125
3216	65.2269
3212	65.2215
3208	65.1992
3204	65.1552
3200	65.1146
3196	65.0563
3192	65.0671
3188	65.2024
3184	65.291
3180	65.3002
3176	65.2553
3172	65.1567
3168	65.1305
3164	65.1371
3160	65.1636
3156	65.224
3152	65.2233
3148	65.2168
3144	65.2018
3140	65.1981
3136	65.2411
3132	65.2052
3128	65.1432
3124	65.2538
3120	65.4039
3116	65.4387
3112	65.421
3108	65.3039
3104	65.1797
3100	65.1226
3096	65.0827
3092	65.1492
3088	65.2882
3084	65.3458
3080	65.3705
3076	65.4052
3072	65.3702
3068	65.329
3064	65.3042
3060	65.2869
3056	65.2909
3052	65.2697
3048	65.2746
3044	65.3129
3040	65.347
3036	65.3813
3032	65.3432
3028	65.2818
3024	65.3339
3020	65.3982
3016	65.366
3012	65.3363
3008	65.3127
3004	65.2492
3000	65.292
2996	65.4173
2992	65.4187
2988	65.3073
2984	65.1795
2980	65.0869
2976	65.057
2972	65.0817
2968	65.0834
2964	65.0496
2960	65.083
2956	65.1248
2952	65.0986
2948	65.0928
2944	65.1651
2940	65.2454
2936	65.2332
2932	65.1291
2928	65.0281
2924	64.985
2920	65.0085
2916	65.0285
2912	64.9492
2908	64.9105
2904	65.0118
2900	65.1114
2896	65.1653
2892	65.2272
2888	65.2522
2884	65.2576
2880	65.2262
2876	65.1313
2872	65.1238
2868	65.1913
2864	65.2063
2860	65.1555
2856	65.1209
2852	65.1548
2848	65.1742
2844	65.2514
2840	65.399
2836	65.4037
2832	65.2969
2828	65.2392
2824	65.2841
2820	65.3777
2816	65.3742
2812	65.3691
2808	65.4657
2804	65.4853
2800	65.3491
2796	65.194
2792	65.2046
2788	65.3536
2784	65.4106
2780	65.3497
2776	65.2916
2772	65.2691
2768	65.3058
2764	65.354
2760	65.3149
2756	65.2922
2752	65.3717
2748	65.4058
2744	65.3662
2740	65.3588
2736	65.3955
2732	65.4673
2728	65.5277
2724	65.5033
2720	65.3959
2716	65.266
2712	65.2138
2708	65.2491
2704	65.2875
2700	65.3384
2696	65.4135
2692	65.3935
2688	65.3076
2684	65.2829
2680	65.2798
2676	65.3126
2672	65.3546
2668	65.3415
2664	65.2808
2660	65.1788
2656	65.1959
2652	65.3308
2648	65.3792
2644	65.3534
2640	65.3166
2636	65.262
2632	65.2569
2628	65.3505
2624	65.4238
2620	65.3629
2616	65.2584
2612	65.2006
2608	65.2106
2604	65.2744
2600	65.2952
2596	65.2888
2592	65.2996
2588	65.2701
2584	65.238
2580	65.2405
2576	65.2462
2572	65.2703
2568	65.3013
2564	65.2957
2560	65.2927
2556	65.3429
2552	65.409
2548	65.4293
2544	65.3715
2540	65.2632
2536	65.2034
2532	65.2459
2528	65.3256
2524	65.3884
2520	65.4149
2516	65.4209
2512	65.367
2508	65.2152
2504	65.1348
2500	65.1413
2496	65.192
2492	65.3328
2488	65.3437
2484	65.2057
2480	65.2027
2476	65.2833
2472	65.2773
2468	65.2721
2464	65.3448
2460	65.3774
2456	65.285
2452	65.2468
2448	65.3496
2444	65.4175
2440	65.4374
2436	65.4709
2432	65.4895
2428	65.4965
2424	65.4004
2420	65.2203
2416	65.1586
2412	65.1736
2408	65.0913
2404	65.0302
2400	65.1832
2396	65.3702
2392	65.406
2388	65.3809
2384	65.3554
2380	65.3555
2376	65.382
2372	65.4001
2368	65.4412
2364	65.4898
2360	65.5072
2356	65.5139
2352	65.4957
2348	65.4369
2344	65.384
2340	65.4224
2336	65.5182
2332	65.5318
2328	65.4751
2324	65.4675
2320	65.5224
2316	65.5322
2312	65.467
2308	65.4415
2304	65.488
2300	65.4879
2296	65.3925
2292	65.2951
2288	65.2738
2284	65.3297
2280	65.3868
2276	65.3848
2272	65.3664
2268	65.3884
2264	65.4225
2260	65.409
2256	65.389
2252	65.408
2248	65.4296
2244	65.4261
2240	65.4133
2236	65.4026
2232	65.3864
2228	65.3668
2224	65.3638
2220	65.377
2216	65.3592
2212	65.3174
2208	65.3156
2204	65.3392
2200	65.3574
2196	65.4283
2192	65.4889
2188	65.4344
2184	65.4008
2180	65.447
2176	65.4742
2172	65.4529
2168	65.4051
2164	65.4078
2160	65.4504
2156	65.4255
2152	65.362
2148	65.3512
2144	65.39
2140	65.4701
2136	65.4807
2132	65.377
2128	65.3481
2124	65.4127
2120	65.5236
2116	65.6056
2112	65.4766
2108	65.3309
2104	65.3455
2100	65.3575
2096	65.3279
2092	65.3258
2088	65.4299
2084	65.5068
2080	65.386
2076	65.2489
2072	65.2027
2068	65.2185
2064	65.3399
2060	65.4083
2056	65.3543
2052	65.3642
2048	65.4125
2044	65.3851
2040	65.3371
2036	65.3514
2032	65.3962
2028	65.3969
2024	65.3396
2020	65.292
2016	65.3533
2012	65.4597
2008	65.4677
2004	65.4208
2000	65.4629
1996	65.5683
1992	65.5851
1988	65.4924
1984	65.3986
1980	65.3467
1976	65.3389
1972	65.3833
1968	65.4335
1964	65.4241
1960	65.3485
1956	65.3032
1952	65.3234
1948	65.3383
1944	65.3636
1940	65.4324
1936	65.4357
1932	65.3576
1928	65.3445
1924	65.4187
1920	65.4663
1916	65.4348
1912	65.4183
1908	65.4338
1904	65.3824
1900	65.3132
1896	65.3444
1892	65.4412
1888	65.4621
1884	65.3995
1880	65.3537
1876	65.3452
1872	65.3444
1868	65.3647
1864	65.4334
1860	65.448
1856	65.3446
1852	65.3098
1848	65.4003
1844	65.4389
1840	65.3769
1836	65.3592
1832	65.4683
1828	65.5128
1824	65.4106
1820	65.3772
1816	65.4673
1812	65.5013
1808	65.4315
1804	65.365
1800	65.3435
1796	65.3872
1792	65.4638
1788	65.4858
1784	65.4659
1780	65.4398
1776	65.483
1772	65.6008
1768	65.6156
1764	65.5685
1760	65.537
1756	65.4699
1752	65.4403
1748	65.4195
1744	65.3884
1740	65.4276
1736	65.5099
1732	65.526
1728	65.4151
1724	65.3227
1720	65.4065
1716	65.4875
1712	65.4097
1708	65.4128
1704	65.6023
1700	65.7458
1696	65.677
1692	65.5546
1688	65.626
1684	65.7474
1680	65.7062
1676	65.6413
1672	65.6048
1668	65.5045
1664	65.4147
1660	65.5391
1656	65.8885
1652	66.0325
1648	65.8111
1644	65.5528
1640	65.4999
1636	65.5538
1632	65.4502
1628	65.3549
1624	65.4509
1620	65.5689
1616	65.5334
1612	65.38
1608	65.3355
1604	65.3533
1600	65.3029
1596	65.2588
1592	65.241
1588	65.2627
1584	65.3188
1580	65.4157
1576	65.4695
1572	65.3857
1568	65.3328
1564	65.524
1560	65.7848
1556	65.6959
1552	65.4587
1548	65.448
1544	65.6809
1540	65.8463
1536	65.6926
1532	65.5248
1528	65.5645
1524	65.7243
1520	65.7631
1516	65.627
1512	65.6518
1508	65.8219
1504	65.7687
1500	65.5963
1496	65.5233
1492	65.485
1488	65.3916
1484	65.2655
1480	65.2714
1476	65.4132
1472	65.4585
1468	65.3443
1464	65.3067
1460	65.4397
1456	65.4337
1452	65.2736
1448	65.3022
1444	65.3545
1440	65.3808
1436	65.4835
1432	65.4082
1428	65.2426
1424	65.2575
1420	65.3235
1416	65.2421
1412	65.109
1408	65.0674
1404	65.1214
1400	65.1995
1396	65.2474
1392	65.271
1388	65.2482
1384	65.1821
1380	65.1406
1376	65.142
1372	65.1495
1368	65.1721
1364	65.1835
1360	65.1298
1356	65.1138
1352	65.1403
1348	65.1187
1344	65.1109
1340	65.1462
1336	65.1896
1332	65.2268
1328	65.2256
1324	65.2034
1320	65.2222
1316	65.2001
1312	65.0808
1308	65.0288
1304	65.1345
1300	65.2223
1296	65.1864
1292	65.1454
1288	65.127
1284	65.047
1280	65.007
1276	65.0428
1272	65.0569
1268	65.0652
1264	65.0516
1260	65.0478
1256	65.106
1252	65.1047
1248	65.057
1244	65.0293
1240	65.0055
1236	65.0238
1232	65.0808
1228	65.096
1224	65.0799
1220	65.0987
1216	65.0928
1212	65.0635
1208	65.0892
1204	65.129
1200	65.0939
1196	65.0428
1192	65.0529
1188	65.0557
1184	65.0441
1180	65.0124
1176	64.9579
1172	64.992
1168	65.1339
1164	65.2045
1160	65.0975
1156	64.9924
1152	65.0356
1148	65.1027
1144	65.0345
1140	64.9433
1136	64.9528
1132	64.9837
1128	65.0329
1124	65.1023
1120	65.1379
1116	65.0961
1112	65.0246
1108	65.0482
1104	65.1475
1100	65.2213
1096	65.1637
1092	65.0269
1088	64.9657
1084	64.9498
1080	64.8776
1076	64.8288
1072	64.881
1068	64.8955
1064	64.8463
1060	64.7502
1056	64.5772
1052	64.5826
1048	64.7986
1044	64.9806
1040	65.1878
1036	65.3399
1032	65.3821
1028	65.377
1024	65.315
1020	65.2858
1016	65.1785
1012	64.9274
1008	64.7804
1004	64.9596
1000	65.1098
996	 64.9017
992	 64.8947
988	 65.1043
984	 65.0527
980	 65.0322
976	 65.107
972	 64.9569
968	 64.6775
964	 64.6029
960	 64.7081
956	 64.6881
952	 64.5973
948	 64.6872
944	 64.8177
940	 64.7303
936	 64.6412
932	 64.7459
928	 64.8381
924	 64.7448
920	 64.7155
916	 64.8327
912	 64.8058
908	 64.6397
904	 64.5145
900	 64.5525
896	 64.6766
892	 64.7359
888	 64.6201
884	 64.4551
880	 64.4735
876	 64.5919
872	 64.7182
868	 64.6953
864	 64.5388
860	 64.524
856	 64.6088
852	 64.6072
848	 64.6225
844	 64.7074
840	 64.6405
836	 64.403
832	 64.1728
828	 64.073
824	 64.1879
820	 64.4091
816	 64.4848
812	 64.3713
808	 64.2926
804	 64.3538
800	 64.3955
796	 64.3696
792	 64.3502
788	 64.3678
784	 64.3492
780	 64.3078
776	 64.3513
772	 64.3306
768	 64.2449
764	 64.3643
760	 64.584
756	 64.493
752	 64.157
748	 64.1489
744	 64.3095
740	 63.939
736	 63.5466
732	 63.7068
728	 63.8582
724	 63.7906
720	 63.8493
716	 63.9338
712	 63.7437
708	 63.4407
704	 63.3282
700	 63.4866
696	 63.6881
692	 63.7474
688	 63.7193
684	 63.5885
680	 63.4103
676	 63.3495
672	 63.3427
668	 63.2821
664	 63.3913
660	 63.6648
656	 63.7612
652	 63.6127
648	 63.5626
644	 63.6968
640	 63.675
636	 63.5307
632	 63.3406
628	 63.1805
624	 63.1442
620	 63.0891
616	 63.1897
612	 63.2599
608	 63.0051
604	 62.8691
600	 63.0607
596	 63.2865
592	 63.2765
588	 63.0715
584	 62.9313
580	 62.7774
576	 62.5401
572	 62.585
568	 62.7228
564	 62.6313
560	 62.6382
556	 62.6467
552	 62.5378
548	 62.6798
544	 62.8961
540	 62.5943
536	 61.9161
532	 61.6623
528	 61.9253
524	 61.8659
520	 61.6283
516	 61.7955
512	 61.962
508	 61.7944
504	 61.5422
500	 61.9541
496	 62.5565
492	 62.2333
488	 61.8183
484	 62.1714
480	 62.8424
476	 62.6908
472	 61.1549
468	 59.801
464	 60.3531
460	 61.7016
456	 61.6395
452	 60.17
448	 59.8885
444	 61.2725
440	 60.7598
436	 58.8981
432	 58.8223
428	 59.5406
424	 60.5525
420	 62.0523
416	 60.8089
412	 57.676
408	 59.3291
404	 66.4932
400	 63.5332
396	 48.8222
392	 45.7754
388	 62.4697
384	 79.9754
380	 70.4859
376	 65.4256
372	 86.0531
370	 100.757