File: Bakgrunnsmateriale/MATLAB/FTIR/ftir_data/subBb/Mapping_121/C-4040-8_t98_cm-1.asc
PE IR       SPECTRUM    SPECTRUM    ASCII       PEDS        1.60
  -1
C-1E65~1.ASC
17/03/27
22:32:57.00
17/03/27
22:32:57.00
tln
$C-4040-8_t0098$<tbV0>[-10.4,7.8,8.0,0.0,27,1,0]
370
64

2002,4.07
MIRTGS : RIGHTBACK : INTERNAL 2
MIR : ON : INTERNAL 2
OPTKBR

0.200000
8
8.000000
FILLER
RATIO
SPECTRUM
UNLOCKED 256

DOUBLE
64
COMBINED
1
0
0

1.000000
RATIO

1
0
TRUE
51149
0
LEFT NOT FITTED RIGHT NOT FITTED 0
NONE
NONE
15600
12
4.427000
51148
TRUE
1 0 8 72 0 0 0 0

15798

#HDR
-1
-1
#GR
CM-1
%T
2.38419e-05
0.0
5000
-1.000000
4631
8
176.239
47.841
#DATA
5000	65.0917
4996	64.6996
4992	64.4117
4988	64.5441
4984	64.851
4980	64.8851
4976	64.713
4972	64.7171
4968	64.8722
4964	64.9431
4960	65.0709
4956	65.1604
4952	64.9093
4948	64.7305
4944	64.6945
4940	64.521
4936	64.4676
4932	64.4986
4928	64.3406
4924	64.3546
4920	64.739
4916	65.1119
4912	65.1352
4908	64.8492
4904	64.6998
4900	64.8859
4896	65.1182
4892	65.2049
4888	65.4725
4884	66.009
4880	66.2569
4876	66.0732
4872	65.7653
4868	65.5452
4864	65.2959
4860	64.9338
4856	64.8544
4852	65.1415
4848	65.3591
4844	65.15
4840	64.7644
4836	64.661
4832	64.7511
4828	64.737
4824	64.5954
4820	64.5736
4816	64.638
4812	64.5632
4808	64.5388
4804	64.7187
4800	64.9268
4796	65.0261
4792	65.0954
4788	65.2744
4784	65.4587
4780	65.4282
4776	65.2813
4772	65.2709
4768	65.3162
4764	65.2711
4760	65.2964
4756	65.277
4752	65.1469
4748	65.1955
4744	65.1644
4740	64.9592
4736	65.0435
4732	65.2579
4728	65.2351
4724	65.1825
4720	65.1227
4716	65.1844
4712	65.4992
4708	65.6204
4704	65.431
4700	65.209
4696	65.237
4692	65.423
4688	65.3217
4684	65.0361
4680	64.8274
4676	64.6819
4672	64.8591
4668	65.2067
4664	65.3477
4660	65.3679
4656	65.4308
4652	65.6984
4648	65.8993
4644	65.7446
4640	65.4406
4636	65.18
4632	65.1731
4628	65.417
4624	65.4495
4620	65.2466
4616	65.0328
4612	64.6886
4608	64.482
4604	64.605
4600	64.7813
4596	65.0042
4592	65.2707
4588	65.4915
4584	65.6128
4580	65.5419
4576	65.2587
4572	64.9158
4568	64.7552
4564	64.783
4560	64.8167
4556	64.7551
4552	64.6787
4548	64.6685
4544	64.4313
4540	63.8502
4536	63.4449
4532	63.6272
4528	64.1425
4524	64.4754
4520	64.4436
4516	64.1936
4512	64.0751
4508	64.1018
4504	64.093
4500	64.0166
4496	63.8146
4492	63.6188
4488	63.4573
4484	63.3206
4480	63.3601
4476	63.4327
4472	63.4132
4468	63.521
4464	63.6627
4460	63.6534
4456	63.7138
4452	63.9835
4448	64.2945
4444	64.1534
4440	63.6839
4436	63.4381
4432	63.6532
4428	63.7703
4424	63.4228
4420	62.8366
4416	62.6104
4412	62.8802
4408	62.9679
4404	62.8296
4400	62.9832
4396	65.1343
4392	73.5603
4388	111.664
4384	128.3
4380	87.0683
4376	63.5282
4372	62.4411
4368	63.7159
4364	63.5176
4360	63.5786
4356	63.8883
4352	63.7118
4348	63.4942
4344	63.367
4340	63.1134
4336	63.0113
4332	63.0795
4328	63.4854
4324	64.2615
4320	64.4019
4316	63.7597
4312	63.3116
4308	63.3599
4304	63.6318
4300	63.8096
4296	63.9362
4292	64.1333
4288	64.0948
4284	63.854
4280	63.7982
4276	64.0377
4272	64.1822
4268	64.0181
4264	64.0278
4260	64.1973
4256	64.1083
4252	63.9184
4248	63.9069
4244	64.0972
4240	64.3026
4236	64.4203
4232	64.4677
4228	64.4607
4224	64.4834
4220	64.493
4216	64.4414
4212	64.4099
4208	64.5101
4204	64.5451
4200	64.331
4196	64.3198
4192	64.6852
4188	65.0743
4184	65.2794
4180	65.0917
4176	64.641
4172	64.5478
4168	64.9163
4164	65.379
4160	65.5629
4156	65.3669
4152	65.1182
4148	64.9565
4144	64.9517
4140	65.2165
4136	65.4385
4132	65.2972
4128	65.1001
4124	65.1038
4120	65.0776
4116	65.0967
4112	65.2397
4108	65.3206
4104	65.2966
4100	65.3327
4096	65.4915
4092	65.5174
4088	65.4805
4084	65.486
4080	65.3411
4076	65.2023
4072	65.2391
4068	65.1803
4064	64.9354
4060	64.8195
4056	64.9052
4052	65.063
4048	65.1792
4044	65.2208
4040	65.3301
4036	65.4258
4032	65.355
4028	65.2748
4024	65.337
4020	65.366
4016	65.1912
4012	65.0911
4008	65.2896
4004	65.3862
4000	65.184
3996	65.1166
3992	65.2823
3988	65.3651
3984	65.2536
3980	65.0815
3976	64.9481
3972	64.8377
3968	64.8525
3964	65.0146
3960	65.098
3956	65.0762
3952	65.1444
3948	65.1516
3944	64.9837
3940	64.8914
3936	64.859
3932	64.8509
3928	64.8943
3924	64.8837
3920	64.9433
3916	65.1453
3912	65.3033
3908	65.2803
3904	65.0784
3900	64.9551
3896	65.064
3892	65.1106
3888	64.9373
3884	64.7118
3880	64.6139
3876	64.6783
3872	64.729
3868	64.8176
3864	65.0363
3860	65.151
3856	65.0841
3852	64.9812
3848	65.0639
3844	65.293
3840	65.344
3836	65.2261
3832	65.01
3828	64.6238
3824	64.4342
3820	64.6708
3816	64.901
3812	64.8872
3808	64.7888
3804	64.8284
3800	64.9282
3796	64.8987
3792	64.9335
3788	65.1048
3784	65.1737
3780	65.0865
3776	65.0631
3772	65.1337
3768	65.1556
3764	65.1119
3760	65.0893
3756	65.1485
3752	65.1795
3748	65.1637
3744	65.169
3740	65.1294
3736	65.0687
3732	65.1242
3728	65.2512
3724	65.3053
3720	65.3007
3716	65.2463
3712	65.1072
3708	65.0414
3704	65.1565
3700	65.2764
3696	65.3522
3692	65.4737
3688	65.5308
3684	65.3734
3680	65.1319
3676	65.1109
3672	65.2642
3668	65.3199
3664	65.2569
3660	65.1733
3656	65.0726
3652	64.9625
3648	64.99
3644	65.202
3640	65.346
3636	65.2606
3632	65.0972
3628	65.0781
3624	65.249
3620	65.3691
3616	65.2662
3612	65.0863
3608	65.0254
3604	65.1057
3600	65.205
3596	65.2875
3592	65.3888
3588	65.3824
3584	65.284
3580	65.2603
3576	65.2953
3572	65.3894
3568	65.4643
3564	65.4027
3560	65.3679
3556	65.3998
3552	65.3239
3548	65.1397
3544	64.995
3540	64.9771
3536	65.1162
3532	65.3165
3528	65.4018
3524	65.3793
3520	65.2382
3516	65.1101
3512	65.203
3508	65.3444
3504	65.3542
3500	65.3191
3496	65.384
3492	65.3777
3488	65.1487
3484	64.9165
3480	64.8479
3476	65.0201
3472	65.3741
3468	65.6044
3464	65.6941
3460	65.7335
3456	65.5238
3452	65.0993
3448	64.7431
3444	64.6815
3440	64.8576
3436	64.9561
3432	64.9604
3428	64.973
3424	64.9764
3420	65.0348
3416	65.1174
3412	65.1828
3408	65.2539
3404	65.2304
3400	65.1361
3396	65.1106
3392	65.0558
3388	64.9532
3384	64.9593
3380	64.9784
3376	64.9097
3372	64.8925
3368	64.9424
3364	64.9839
3360	65.0075
3356	65.0209
3352	65.1072
3348	65.1838
3344	65.0957
3340	64.9836
3336	65.0027
3332	65.0333
3328	65.032
3324	65.026
3320	64.9624
3316	64.9327
3312	64.9534
3308	64.9557
3304	64.9773
3300	64.9946
3296	65.0126
3292	65.0449
3288	64.9973
3284	64.9181
3280	64.923
3276	64.9866
3272	65.0494
3268	65.1142
3264	65.1885
3260	65.2411
3256	65.2596
3252	65.2196
3248	65.1563
3244	65.1207
3240	65.0614
3236	65.0393
3232	65.0925
3228	65.1378
3224	65.2058
3220	65.2909
3216	65.3353
3212	65.4062
3208	65.4558
3204	65.3148
3200	65.1285
3196	65.165
3192	65.3222
3188	65.2999
3184	65.1504
3180	65.1518
3176	65.2531
3172	65.2491
3168	65.164
3164	65.1627
3160	65.2763
3156	65.3108
3152	65.1778
3148	65.0212
3144	65.0119
3140	65.1063
3136	65.1882
3132	65.324
3128	65.3407
3124	65.14
3120	65.0009
3116	64.9274
3112	64.9072
3108	65.1118
3104	65.3968
3100	65.4235
3096	65.2073
3092	65.0565
3088	65.0898
3084	65.15
3080	65.1609
3076	65.2058
3072	65.2252
3068	65.1133
3064	64.9797
3060	64.94
3056	64.9328
3052	64.9719
3048	65.1161
3044	65.198
3040	65.1553
3036	65.1655
3032	65.2506
3028	65.304
3024	65.26
3020	65.1812
3016	65.205
3012	65.2765
3008	65.2719
3004	65.2352
3000	65.2243
2996	65.2152
2992	65.2095
2988	65.1763
2984	65.0724
2980	65.0422
2976	65.1314
2972	65.1933
2968	65.2393
2964	65.231
2960	65.1468
2956	65.122
2952	65.1075
2948	65.057
2944	65.0132
2940	64.9535
2936	64.9478
2932	64.9454
2928	64.7753
2924	64.554
2920	64.5314
2916	64.7087
2912	64.9095
2908	65.0693
2904	65.0958
2900	64.9856
2896	64.9426
2892	64.9748
2888	64.986
2884	64.9766
2880	64.9681
2876	64.9366
2872	64.8303
2868	64.7371
2864	64.8355
2860	65.0217
2856	65.053
2852	64.9916
2848	64.976
2844	65.0071
2840	65.0626
2836	65.1065
2832	65.0799
2828	65.0448
2824	65.0909
2820	65.1512
2816	65.1683
2812	65.1744
2808	65.181
2804	65.1976
2800	65.2357
2796	65.2797
2792	65.2976
2788	65.248
2784	65.1889
2780	65.1669
2776	65.1539
2772	65.1633
2768	65.1747
2764	65.1866
2760	65.2529
2756	65.3215
2752	65.2793
2748	65.1621
2744	65.1171
2740	65.1869
2736	65.2689
2732	65.2706
2728	65.2147
2724	65.1541
2720	65.1071
2716	65.1093
2712	65.171
2708	65.2308
2704	65.2321
2700	65.2605
2696	65.3267
2692	65.2595
2688	65.1355
2684	65.1417
2680	65.2217
2676	65.2799
2672	65.3682
2668	65.5148
2664	65.5425
2660	65.3912
2656	65.264
2652	65.1982
2648	65.1416
2644	65.1177
2640	65.0474
2636	65.0103
2632	65.1278
2628	65.2072
2624	65.2025
2620	65.2447
2616	65.2603
2612	65.2245
2608	65.1955
2604	65.1432
2600	65.1013
2596	65.1129
2592	65.1486
2588	65.2297
2584	65.3147
2580	65.3039
2576	65.2518
2572	65.1956
2568	65.1393
2564	65.1496
2560	65.1779
2556	65.2185
2552	65.2484
2548	65.2296
2544	65.2205
2540	65.1931
2536	65.1608
2532	65.1136
2528	65.0391
2524	64.9924
2520	65.0094
2516	65.1352
2512	65.2302
2508	65.1953
2504	65.1129
2500	65.0592
2496	65.096
2492	65.1869
2488	65.2682
2484	65.3163
2480	65.3384
2476	65.3437
2472	65.2915
2468	65.17
2464	65.146
2460	65.2663
2456	65.3151
2452	65.276
2448	65.2037
2444	65.079
2440	64.9784
2436	64.8476
2432	64.6065
2428	64.3975
2424	64.4549
2420	64.7121
2416	64.8545
2412	64.934
2408	65.0698
2404	65.2128
2400	65.3348
2396	65.3193
2392	65.235
2388	65.1794
2384	65.1671
2380	65.256
2376	65.2907
2372	65.1844
2368	65.1048
2364	65.1458
2360	65.2456
2356	65.3033
2352	65.253
2348	65.1717
2344	65.1817
2340	65.2512
2336	65.2739
2332	65.2287
2328	65.2112
2324	65.2705
2320	65.3428
2316	65.3059
2312	65.1667
2308	65.0985
2304	65.1585
2300	65.2371
2296	65.2575
2292	65.2515
2288	65.2333
2284	65.2136
2280	65.2373
2276	65.2729
2272	65.2741
2268	65.2567
2264	65.2369
2260	65.237
2256	65.2332
2252	65.2013
2248	65.2015
2244	65.2017
2240	65.1739
2236	65.1796
2232	65.1791
2228	65.1441
2224	65.1932
2220	65.314
2216	65.3055
2212	65.218
2208	65.2395
2204	65.289
2200	65.239
2196	65.1808
2192	65.1961
2188	65.2217
2184	65.2235
2180	65.1995
2176	65.1613
2172	65.1788
2168	65.2797
2164	65.3529
2160	65.3537
2156	65.4655
2152	65.5613
2148	65.4969
2144	65.4444
2140	65.3642
2136	65.3407
2132	65.3801
2128	65.2743
2124	65.1497
2120	65.1513
2116	65.2757
2112	65.4568
2108	65.4821
2104	65.3155
2100	65.1414
2096	65.0874
2092	65.061
2088	64.9922
2084	64.9945
2080	64.9918
2076	65.034
2072	65.2306
2068	65.2922
2064	65.1794
2060	65.0207
2056	64.8998
2052	65.0896
2048	65.3393
2044	65.2902
2040	65.1809
2036	65.1761
2032	65.2303
2028	65.3144
2024	65.3211
2020	65.2539
2016	65.2321
2012	65.253
2008	65.2776
2004	65.284
2000	65.2811
1996	65.2698
1992	65.2302
1988	65.2142
1984	65.2344
1980	65.2379
1976	65.2669
1972	65.363
1968	65.4081
1964	65.358
1960	65.2706
1956	65.2047
1952	65.2076
1948	65.2272
1944	65.2326
1940	65.2761
1936	65.3339
1932	65.3204
1928	65.31
1924	65.3304
1920	65.287
1916	65.1904
1912	65.1016
1908	65.0513
1904	65.0774
1900	65.2058
1896	65.3136
1892	65.3265
1888	65.3241
1884	65.3134
1880	65.2639
1876	65.2055
1872	65.1677
1868	65.1648
1864	65.2229
1860	65.2844
1856	65.2956
1852	65.3016
1848	65.3219
1844	65.3544
1840	65.3868
1836	65.4199
1832	65.4285
1828	65.3723
1824	65.2633
1820	65.1941
1816	65.219
1812	65.2218
1808	65.2268
1804	65.2865
1800	65.2749
1796	65.2256
1792	65.2222
1788	65.245
1784	65.2906
1780	65.2743
1776	65.2013
1772	65.2221
1768	65.2821
1764	65.2915
1760	65.2715
1756	65.2014
1752	65.1318
1748	65.1115
1744	65.1062
1740	65.0573
1736	64.9653
1732	64.9662
1728	65.0155
1724	64.9439
1720	64.8794
1716	64.9561
1712	65.0845
1708	65.2105
1704	65.2216
1700	65.1352
1696	65.1239
1692	65.1519
1688	65.1379
1684	65.0733
1680	65.0519
1676	65.1432
1672	65.2452
1668	65.2764
1664	65.271
1660	65.2679
1656	65.2233
1652	65.1718
1648	65.1618
1644	65.1178
1640	65.0235
1636	64.9476
1632	64.946
1628	64.9905
1624	65.0497
1620	65.1234
1616	65.1515
1612	65.1448
1608	65.1329
1604	65.1153
1600	65.12
1596	65.1226
1592	65.123
1588	65.0954
1584	65.0926
1580	65.1421
1576	65.1047
1572	65.0228
1568	65.0073
1564	64.957
1560	64.8607
1556	64.8995
1552	65.0179
1548	65.0757
1544	65.0685
1540	65.03
1536	65.0187
1532	65.0432
1528	65.0738
1524	65.1089
1520	65.1736
1516	65.1807
1512	65.092
1508	65.08
1504	65.1541
1500	65.178
1496	65.1274
1492	65.0163
1488	64.9364
1484	64.9412
1480	64.9617
1476	64.9672
1472	64.9798
1468	65.0082
1464	65.1246
1460	65.2176
1456	65.0542
1452	64.8434
1448	64.8657
1444	64.9499
1440	64.8976
1436	64.8661
1432	64.8921
1428	64.8948
1424	64.9676
1420	65.0152
1416	64.9772
1412	64.9425
1408	64.9156
1404	64.9166
1400	64.9599
1396	64.9738
1392	64.917
1388	64.8858
1384	64.9162
1380	64.9505
1376	64.9728
1372	64.9629
1368	64.9391
1364	64.9433
1360	64.9533
1356	64.9486
1352	64.9508
1348	64.9732
1344	64.9723
1340	64.8966
1336	64.8608
1332	64.9495
1328	65.0475
1324	65.079
1320	65.0068
1316	64.8154
1312	64.6997
1308	64.7835
1304	64.9309
1300	65.0599
1296	65.1787
1292	65.2001
1288	65.0537
1284	64.8985
1280	64.886
1276	64.9341
1272	64.9111
1268	64.888
1264	64.9771
1260	65.0152
1256	64.9594
1252	64.9348
1248	64.882
1244	64.7948
1240	64.7471
1236	64.7666
1232	64.8189
1228	64.8555
1224	64.8665
1220	64.8559
1216	64.8888
1212	64.9324
1208	64.901
1204	64.8915
1200	64.9505
1196	64.9743
1192	64.9043
1188	64.838
1184	64.8741
1180	64.94
1176	64.9164
1172	64.8491
1168	64.7915
1164	64.7091
1160	64.6631
1156	64.6549
1152	64.6091
1148	64.6122
1144	64.7619
1140	64.9402
1136	64.902
1132	64.7081
1128	64.6111
1124	64.6456
1120	64.7898
1116	64.9485
1112	65.0404
1108	64.9781
1104	64.667
1100	64.4045
1096	64.4285
1092	64.5345
1088	64.545
1084	64.5468
1080	64.6022
1076	64.6924
1072	64.7331
1068	64.7153
1064	64.6469
1060	64.5421
1056	64.5731
1052	64.6965
1048	64.8176
1044	64.9411
1040	64.9352
1036	64.8064
1032	64.7315
1028	64.7048
1024	64.619
1020	64.4431
1016	64.1855
1012	64.0229
1008	64.1431
1004	64.3274
1000	64.3249
996	 64.3154
992	 64.4404
988	 64.5959
984	 64.6934
980	 64.747
976	 64.783
972	 64.8251
968	 64.8804
964	 64.8597
960	 64.7604
956	 64.7003
952	 64.7719
948	 64.8655
944	 64.8313
940	 64.5952
936	 64.2356
932	 64.254
928	 64.656
924	 64.8649
920	 64.8332
916	 64.4865
912	 64.1662
908	 64.5342
904	 64.6969
900	 64.2263
896	 64.2468
892	 64.6022
888	 64.546
884	 64.2956
880	 64.1169
876	 64.0673
872	 64.1303
868	 64.2296
864	 64.3089
860	 64.4162
856	 64.6063
852	 64.6727
848	 64.5115
844	 64.4292
840	 64.4264
836	 64.3709
832	 64.4825
828	 64.4805
824	 64.0386
820	 63.8522
816	 64.2073
812	 64.3883
808	 64.1563
804	 63.8303
800	 63.7326
796	 63.9302
792	 64.0516
788	 63.9695
784	 63.915
780	 63.9831
776	 64.0736
772	 64.1332
768	 64.1727
764	 64.0312
760	 63.8262
756	 63.8062
752	 63.8558
748	 63.9138
744	 63.7141
740	 63.0821
736	 62.583
732	 62.5357
728	 62.7064
724	 63.0554
720	 63.4126
716	 63.4328
712	 63.3693
708	 63.3798
704	 63.4123
700	 63.57
696	 63.7102
692	 63.7455
688	 63.6996
684	 63.5289
680	 63.3231
676	 63.1557
672	 62.9201
668	 62.6614
664	 62.5041
660	 62.4629
656	 62.5897
652	 62.7795
648	 62.7656
644	 62.7668
640	 63.105
636	 63.2758
632	 63.0553
628	 62.8781
624	 62.8553
620	 62.8312
616	 62.7798
612	 62.9018
608	 63.0704
604	 62.8287
600	 62.4445
596	 62.4505
592	 62.5093
588	 62.0741
584	 61.661
580	 61.855
576	 62.1447
572	 62.2028
568	 62.1215
564	 62.0966
560	 62.3794
556	 62.7454
552	 62.901
548	 62.834
544	 62.3563
540	 61.8457
536	 61.7279
532	 61.4222
528	 61.1134
524	 61.1019
520	 60.968
516	 61.1093
512	 61.4019
508	 61.2783
504	 60.9668
500	 60.7157
496	 60.6498
492	 60.5737
488	 60.7032
484	 61.0021
480	 60.6739
476	 60.3716
472	 60.5952
468	 60.7533
464	 60.7515
460	 60.1693
456	 58.9844
452	 58.162
448	 58.4202
444	 58.8045
440	 58.0285
436	 56.1087
432	 53.8985
428	 53.8304
424	 55.6494
420	 56.0324
416	 55.5364
412	 57.0948
408	 61.5562
404	 73.1679
400	 91.3191
396	 80.3159
392	 51.5873
388	 51.0855
384	 71.6938
380	 102.773
376	 163.896
372	 158.046
370	 125.585