File: Bakgrunnsmateriale/MATLAB/FTIR/ftir_data/subBb/Mapping_121/C-4040-8_t03.asc
PE IR       SPECTRUM    SPECTRUM    ASCII       PEDS        1.60
  -1
C-A526~1.ASC
17/03/27
14:44:48.00
17/03/27
14:45:14.00
tln
$C-4040-8_t0003$<tbV0>[7.8,-13.0,8.0,0.0,27,1,0]
27.028
64

2002,4.07
MIRTGS : RIGHTBACK : INTERNAL 2
MIR : ON : INTERNAL 2
OPTKBR

0.200000
8
8.000000
FILLER
RATIO
SPECTRUM
UNLOCKED 256

DOUBLE
64
COMBINED
1
0
0

0.002000
RATIO

1
0
TRUE
51149
0
LEFT NOT FITTED RIGHT NOT FITTED 0
NONE
NONE
15600
12
4.427000
51148
TRUE
1 0 8 72 0 0 0 0

15798

#HDR
-1
-1
#GR
µM
%T
2.38419e-05
0.0
2.000000
0.002000
12515
8
67.5978
12.5334
#DATA
2.000000	 62.3075
2.018000	 62.419
2.036000	 63.5028
2.054000	 63.025
2.072000	 62.8658
2.090000	 63.2763
2.108000	 63.0527
2.126000	 62.7492
2.144000	 62.5199
2.162000	 62.7731
2.180000	 63.112
2.198000	 62.9893
2.216000	 63.0972
2.234000	 62.6915
2.252000	 64.0177
2.270000	 61.0253
2.288000	 63.057
2.306000	 62.4783
2.324000	 62.1477
2.342000	 62.3929
2.360000	 61.9121
2.378000	 62.0152
2.396000	 61.3348
2.414000	 61.6404
2.432000	 61.9821
2.450000	 61.6688
2.468000	 61.6443
2.486000	 61.8566
2.504000	 61.7369
2.522000	 61.5577
2.540000	 61.2123
2.558000	 61.4056
2.576000	 61.0038
2.594000	 61.4816
2.612000	 60.7615
2.630000	 61.2314
2.648000	 60.4063
2.666000	 60.8601
2.684000	 60.3769
2.702000	 60.4308
2.720000	 60.4428
2.738000	 60.2469
2.756000	 60.1213
2.774000	 59.6942
2.792000	 59.7489
2.810000	 59.768
2.828000	 59.4857
2.846000	 59.2481
2.864000	 59.0921
2.882000	 59.0578
2.900000	 59.1377
2.918000	 58.681
2.936000	 58.8087
2.954000	 58.4256
2.972000	 58.3004
2.990000	 58.1649
3.008000	 58.0484
3.026000	 57.8321
3.044000	 57.6303
3.062000	 57.6128
3.080000	 57.5732
3.098000	 57.3261
3.116000	 57.2852
3.134000	 56.9404
3.152000	 56.8648
3.170000	 56.8912
3.188000	 56.465
3.206000	 56.6287
3.224000	 56.3626
3.242000	 56.377
3.260000	 55.9374
3.278000	 55.9646
3.296000	 55.6786
3.314000	 55.7768
3.332000	 55.511
3.350000	 55.308
3.368000	 55.0367
3.386000	 54.8709
3.404000	 55.0183
3.422000	 54.5618
3.440000	 54.4347
3.458000	 54.5204
3.476000	 54.2398
3.494000	 54.2597
3.512000	 54.0386
3.530000	 53.9154
3.548000	 53.774
3.566000	 53.6085
3.584000	 53.4275
3.602000	 53.3487
3.620000	 53.2198
3.638000	 53.1654
3.656000	 52.8725
3.674000	 52.7398
3.692000	 52.5649
3.710000	 52.5633
3.728000	 52.4392
3.746000	 52.2668
3.764000	 52.0575
3.782000	 52.045
3.800000	 51.921
3.818000	 51.7107
3.836000	 51.5031
3.854000	 51.3013
3.872000	 51.1612
3.890000	 51.1125
3.908000	 50.9456
3.926000	 50.9229
3.944000	 50.8848
3.962000	 50.6418
3.980000	 50.4917
3.998000	 50.4494
4.016000	 50.1732
4.034000	 50.1559
4.052000	 50.0131
4.070000	 49.7894
4.088000	 49.745
4.106000	 49.831
4.124000	 49.2908
4.141999	 49.4191
4.160000	 49.1614
4.178000	 48.9904
4.196000	 48.8805
4.214000	 48.859
4.232000	 48.6578
4.250000	 48.5268
4.268000	 48.3723
4.286000	 48.4223
4.304000	 48.1351
4.322000	 48.0787
4.340000	 48.0237
4.358000	 47.8436
4.375999	 47.657
4.394000	 47.6504
4.412000	 47.4825
4.430000	 47.3752
4.448000	 47.2531
4.466000	 47.048
4.484000	 46.8727
4.502000	 46.9712
4.520000	 46.7651
4.538000	 46.6616
4.556000	 46.5405
4.574000	 46.4535
4.592000	 46.3943
4.609999	 46.2047
4.628000	 46.1549
4.646000	 45.9865
4.664000	 45.8345
4.682000	 45.6608
4.700000	 45.5998
4.718000	 45.5456
4.736000	 45.5211
4.754000	 45.3918
4.772000	 45.1844
4.790000	 45.2315
4.808000	 45.0369
4.826000	 44.8666
4.843999	 44.9044
4.862000	 44.6807
4.880000	 44.6593
4.898000	 44.4612
4.916000	 44.4962
4.934000	 44.3836
4.952000	 44.1842
4.970000	 44.1432
4.988000	 44.0895
5.006000	 43.9631
5.024000	 43.8908
5.042000	 43.7357
5.060000	 43.6402
5.077999	 43.6511
5.096000	 43.4284
5.114000	 43.2801
5.132000	 43.2044
5.150000	 43.1402
5.168000	 43.0556
5.186000	 42.9365
5.204000	 42.8772
5.222000	 42.819
5.240000	 42.7631
5.258000	 42.6072
5.276000	 42.5783
5.294000	 42.5402
5.312000	 42.4189
5.330000	 42.3527
5.348000	 42.2746
5.366000	 42.1393
5.384000	 42.0659
5.402000	 41.9992
5.420000	 41.9214
5.438000	 41.8741
5.456000	 41.7877
5.474000	 41.6783
5.492000	 41.5799
5.510000	 41.5086
5.528000	 41.4419
5.546000	 41.4245
5.564000	 41.2807
5.582000	 41.2285
5.600000	 41.1741
5.618000	 41.1086
5.636000	 41.0536
5.654000	 40.9952
5.672000	 40.9359
5.690000	 40.8648
5.708000	 40.8175
5.726000	 40.7087
5.744000	 40.5312
5.762000	 40.4901
5.780000	 40.3478
5.798000	 40.2601
5.816000	 40.3769
5.834000	 40.289
5.852000	 40.0607
5.870000	 40.0766
5.888000	 40.0981
5.906000	 39.8383
5.923999	 39.8405
5.942000	 39.886
5.960000	 39.7226
5.978000	 39.6917
5.996000	 39.5524
6.014000	 39.4294
6.032000	 39.5133
6.050000	 39.6178
6.068000	 39.459
6.086000	 39.2871
6.104000	 39.226
6.122000	 39.1446
6.140000	 39.0435
6.158000	 38.9934
6.176000	 38.9704
6.194000	 38.8984
6.212000	 38.7562
6.230000	 38.6723
6.248000	 38.5645
6.266000	 38.4964
6.284000	 38.4437
6.302000	 38.3345
6.320000	 38.2392
6.338000	 38.2193
6.356000	 38.1955
6.374000	 38.0886
6.392000	 38.1104
6.410000	 38.1956
6.428000	 38.1206
6.446000	 38.0364
6.464000	 38.0732
6.482000	 38.1612
6.500000	 38.0633
6.518000	 37.8153
6.536000	 37.7282
6.554000	 37.783
6.572000	 37.7259
6.590000	 37.5504
6.608000	 37.4652
6.626000	 37.4728
6.644000	 37.429
6.662000	 37.3399
6.680000	 37.1812
6.698000	 36.9934
6.716000	 36.9343
6.734000	 36.9386
6.752000	 36.931
6.770000	 36.9126
6.788000	 36.8911
6.806000	 36.8665
6.824000	 36.8489
6.842000	 36.7931
6.860000	 36.6352
6.878000	 36.4837
6.896000	 36.4575
6.914000	 36.4401
6.932000	 36.3411
6.950000	 36.2884
6.968000	 36.3617
6.986000	 36.4316
7.004000	 36.3807
7.022000	 36.2771
7.040000	 36.2214
7.058000	 36.1727
7.076000	 36.0909
7.094000	 36.0277
7.112000	 35.9894
7.130000	 35.9372
7.148000	 35.8694
7.166000	 35.8175
7.184000	 35.8017
7.202000	 35.773
7.220000	 35.6876
7.238000	 35.5993
7.256000	 35.5589
7.274000	 35.5483
7.292000	 35.5384
7.310000	 35.5195
7.328000	 35.496
7.346000	 35.4571
7.364000	 35.3701
7.382000	 35.2496
7.400000	 35.1668
7.418000	 35.1562
7.436000	 35.1711
7.454000	 35.1465
7.472000	 35.0673
7.490000	 34.9809
7.508000	 34.9486
7.526000	 34.9714
7.544000	 34.9794
7.562000	 34.9364
7.580000	 34.8842
7.598000	 34.8493
7.616000	 34.7988
7.634000	 34.708
7.652000	 34.5992
7.670000	 34.5109
7.688000	 34.4641
7.706000	 34.455
7.724000	 34.4671
7.742000	 34.468
7.760000	 34.4261
7.778000	 34.3473
7.796000	 34.2638
7.814000	 34.1921
7.832000	 34.1375
7.850000	 34.1176
7.868000	 34.1411
7.886000	 34.1845
7.904000	 34.2017
7.922000	 34.1693
7.940000	 34.1074
7.958000	 34.0419
7.976000	 33.9754
7.994000	 33.8993
8.012000	 33.8066
8.030000	 33.7
8.048000	 33.6095
8.065999	 33.5728
8.084000	 33.5876
8.102000	 33.6151
8.120000	 33.6247
8.138000	 33.6095
8.155999	 33.5769
8.173999	 33.5426
8.192000	 33.5161
8.210000	 33.4853
8.228000	 33.4309
8.246000	 33.3537
8.263999	 33.2781
8.282000	 33.2341
8.300000	 33.2343
8.318000	 33.2561
8.336000	 33.2564
8.353999	 33.2155
8.372000	 33.1585
8.390000	 33.1192
8.408000	 33.1026
8.426000	 33.0888
8.443999	 33.0577
8.462000	 32.9972
8.480000	 32.9025
8.498000	 32.7827
8.516000	 32.6691
8.533999	 32.6022
8.552000	 32.5998
8.570000	 32.6407
8.588000	 32.6809
8.606000	 32.6834
8.624000	 32.6404
8.641999	 32.572
8.660000	 32.508
8.678000	 32.4651
8.696000	 32.4366
8.714000	 32.4041
8.731999	 32.3619
8.750000	 32.326
8.768000	 32.3141
8.786000	 32.3192
8.804000	 32.3102
8.821999	 32.264
8.840000	 32.1915
8.858000	 32.1269
8.876000	 32.0907
8.894000	 32.0736
8.911999	 32.0568
8.930000	 32.0355
8.948000	 32.0124
8.966000	 31.9764
8.984000	 31.911
9.001999	 31.8252
9.020000	 31.7558
9.038000	 31.7305
9.056000	 31.7338
9.074000	 31.7229
9.092000	 31.675
9.109999	 31.6088
9.128000	 31.5624
9.146000	 31.5562
9.164000	 31.5776
9.182000	 31.5927
9.199999	 31.5722
9.218000	 31.5109
9.236000	 31.4269
9.254000	 31.3431
9.272000	 31.2733
9.289999	 31.2211
9.308000	 31.1866
9.326000	 31.1684
9.344000	 31.1594
9.362000	 31.148
9.379999	 31.1302
9.398000	 31.1134
9.416000	 31.1055
9.434000	 31.1038
9.452000	 31.0974
9.469999	 31.0801
9.488000	 31.0579
9.506000	 31.0406
9.524000	 31.0305
9.542000	 31.0218
9.560000	 31.0086
9.577999	 30.9899
9.596000	 30.9654
9.614000	 30.931
9.632000	 30.8823
9.650000	 30.8223
9.667999	 30.7637
9.686000	 30.7245
9.704000	 30.7167
9.722000	 30.7368
9.740000	 30.7645
9.757999	 30.7708
9.776000	 30.7331
9.794000	 30.6495
9.812000	 30.5422
9.830000	 30.4464
9.847999	 30.3914
9.866000	 30.3861
9.884000	 30.4171
9.902000	 30.4561
9.920000	 30.4731
9.937999	 30.4484
9.956000	 30.3811
9.974000	 30.286
9.992000	 30.1875
10.01	30.109
10.028	30.0634
10.046	30.0493
10.064	30.0531
10.082	30.0571
10.1	30.0489
10.118	30.0283
10.136	30.0068
10.154	29.9984
10.172	30.0077
10.19	30.0221
10.208	30.0188
10.226	29.9799
10.244	29.9055
10.262	29.8173
10.28	29.7447
10.298	29.7063
10.316	29.7008
10.334	29.7099
10.352	29.713
10.37	29.6969
10.388	29.6603
10.406	29.609
10.424	29.5538
10.442	29.5086
10.46	29.4878
10.478	29.5013
10.496	29.5461
10.514	29.6045
10.532	29.6485
10.55	29.6571
10.568	29.6265
10.586	29.5715
10.604	29.5126
10.622	29.4645
10.64	29.4279
10.658	29.3947
10.676	29.3567
10.694	29.3129
10.712	29.2689
10.73	29.2313
10.748	29.2018
10.766	29.1753
10.784	29.1438
10.802	29.1014
10.82	29.0474
10.838	28.9856
10.856	28.922
10.874	28.8615
10.892	28.8069
10.91	28.7595
10.928	28.7195
10.946	28.688
10.964	28.6668
10.982	28.6577
11	28.6597
11.018	28.669
11.036	28.6792
11.054	28.6828
11.072	28.6742
11.09	28.6518
11.108	28.6197
11.126	28.5851
11.144	28.5552
11.162	28.5336
11.18	28.5184
11.198	28.5024
11.216	28.4774
11.234	28.4375
11.252	28.3836
11.27	28.3233
11.288	28.2692
11.306	28.2324
11.324	28.2172
11.342	28.2178
11.36	28.2215
11.378	28.2144
11.396	28.1891
11.414	28.1473
11.432	28.0988
11.45	28.0544
11.468	28.0209
11.486	27.9983
11.504	27.981
11.522	27.9629
11.54	27.9416
11.558	27.9201
11.576	27.9044
11.594	27.8985
11.612	27.9014
11.63	27.9066
11.648	27.9056
11.666	27.8915
11.684	27.862
11.702	27.8196
11.72	27.7706
11.738	27.7213
11.756	27.6753
11.774	27.6336
11.792	27.5956
11.81	27.5601
11.828	27.527
11.846	27.4975
11.864	27.4728
11.882	27.4533
11.9	27.4374
11.918	27.4221
11.936	27.404
11.954	27.3803
11.972	27.3501
11.99	27.3152
12.008	27.2799
12.026	27.251
12.044	27.2354
12.062	27.239
12.08	27.2642
12.098	27.3088
12.116	27.3657
12.134	27.4235
12.152	27.4693
12.17	27.492
12.188	27.4844
12.206	27.4458
12.224	27.381
12.242	27.299
12.26	27.2098
12.278	27.1232
12.296	27.0465
12.314	26.9838
12.332	26.9364
12.35	26.9025
12.368	26.8788
12.386	26.8605
12.404	26.8431
12.422	26.8234
12.44	26.7991
12.458	26.7696
12.476	26.7353
12.494	26.6974
12.512	26.6576
12.53	26.6179
12.548	26.5799
12.566	26.545
12.584	26.5144
12.602	26.4886
12.62	26.4671
12.638	26.4494
12.656	26.4353
12.674	26.4249
12.692	26.4187
12.71	26.4175
12.728	26.4221
12.746	26.4324
12.764	26.4467
12.782	26.4618
12.8	26.4732
12.818	26.4764
12.836	26.4672
12.854	26.444
12.872	26.4077
12.89	26.3621
12.908	26.3123
12.926	26.2638
12.944	26.2213
12.962	26.1868
12.98	26.1588
12.998	26.1334
13.016	26.1046
13.034	26.0663
13.052	26.0141
13.07	25.9456
13.088	25.862
13.106	25.7667
13.124	25.6653
13.142	25.5637
13.16	25.4672
13.178	25.3797
13.196	25.3033
13.214	25.2389
13.232	25.1863
13.25	25.1462
13.268	25.1191
13.286	25.1075
13.304	25.1143
13.322	25.1428
13.34	25.195
13.358	25.2708
13.376	25.3673
13.394	25.478
13.412	25.5935
13.43	25.7029
13.448	25.7951
13.466	25.8609
13.484	25.894
13.502	25.8925
13.52	25.8591
13.538	25.8003
13.556	25.7256
13.574	25.6453
13.592	25.5691
13.61	25.5049
13.628	25.4573
13.646	25.4272
13.664	25.4118
13.682	25.4068
13.7	25.4064
13.718	25.4049
13.736	25.3984
13.754	25.3844
13.772	25.3628
13.79	25.3351
13.808	25.3032
13.826	25.2689
13.844	25.2324
13.862	25.1933
13.88	25.1493
13.898	25.0973
13.916	25.0335
13.934	24.955
13.952	24.8604
13.97	24.7503
13.988	24.6275
14.006	24.4974
14.024	24.3675
14.042	24.2462
14.06	24.1417
14.078	24.0608
14.096	24.0083
14.114	23.9859
14.132	23.9926
14.15	24.0243
14.168	24.0742
14.186	24.1339
14.204	24.195
14.222	24.2489
14.24	24.2883
14.258	24.3073
14.276	24.3029
14.294	24.2736
14.312	24.2196
14.33	24.142
14.348	24.0429
14.366	23.9253
14.384	23.7925
14.402	23.6488
14.42	23.4988
14.438	23.3476
14.456	23.2006
14.474	23.0628
14.492	22.9391
14.51	22.8335
14.528	22.7487
14.546	22.6859
14.564	22.645
14.582	22.6249
14.6	22.6234
14.618	22.6379
14.636	22.665
14.654	22.7016
14.672	22.7447
14.69	22.7921
14.708	22.8424
14.726	22.8941
14.744	22.9478
14.762	23.0041
14.78	23.0643
14.798	23.1297
14.816	23.2019
14.834	23.281
14.852	23.3665
14.87	23.4553
14.888	23.5429
14.906	23.6237
14.924	23.6904
14.942	23.7348
14.96	23.7503
14.978	23.7328
14.996	23.6811
15.014	23.5967
15.032	23.4862
15.05	23.3594
15.068	23.2272
15.086	23.101
15.104	22.9918
15.122	22.9103
15.14	22.8614
15.158	22.8464
15.176	22.8635
15.194	22.9078
15.212	22.9701
15.23	23.0409
15.248	23.1111
15.266	23.1723
15.284	23.2164
15.302	23.2396
15.32	23.2411
15.338	23.2217
15.356	23.1848
15.374	23.136
15.392	23.0801
15.41	23.0219
15.428	22.9658
15.446	22.9145
15.464	22.8688
15.482	22.8286
15.5	22.7923
15.518	22.7572
15.536	22.7207
15.554	22.6802
15.572	22.6335
15.59	22.5788
15.608	22.5164
15.626	22.4469
15.644	22.3719
15.662	22.2936
15.68	22.2146
15.698	22.1378
15.716	22.0666
15.734	22.0042
15.752	21.9529
15.77	21.9145
15.788	21.8905
15.806	21.8809
15.824	21.8852
15.842	21.9022
15.86	21.9292
15.878	21.9633
15.896	22.0011
15.914	22.0379
15.932	22.0698
15.95	22.0938
15.968	22.1073
15.986	22.1089
16.004	22.0994
16.022	22.0799
16.04	22.0546
16.058	22.0276
16.076	22.0025
16.094	21.9853
16.112	21.9795
16.13	21.9871
16.148	22.0102
16.166	22.047
16.184	22.0948
16.202	22.1504
16.22	22.2058
16.238	22.2558
16.256	22.2948
16.274	22.3149
16.292	22.3124
16.31	22.2842
16.328	22.228
16.346	22.1455
16.364	22.0382
16.382	21.9115
16.4	21.7713
16.418	21.6224
16.436	21.474
16.454	21.3322
16.472	21.202
16.49	21.0901
16.508	20.9992
16.526	20.9316
16.544	20.8884
16.562	20.8683
16.58	20.8705
16.598	20.8913
16.616	20.9279
16.634	20.9775
16.652	21.0352
16.67	21.0988
16.688	21.1653
16.706	21.2314
16.724	21.2956
16.742	21.3559
16.76	21.4104
16.778	21.4582
16.796	21.4976
16.814	21.5278
16.832	21.5482
16.85	21.5574
16.868	21.5554
16.886	21.5418
16.904	21.5164
16.922	21.4798
16.94	21.4324
16.958	21.3759
16.976	21.311
16.994	21.2402
17.012	21.1659
17.03	21.0894
17.048	21.0144
17.066	20.9426
17.084	20.876
17.102	20.8166
17.12	20.7652
17.138	20.7227
17.156	20.6886
17.174	20.6629
17.192	20.6437
17.21	20.6303
17.228	20.6203
17.246	20.6122
17.264	20.6046
17.282	20.5957
17.3	20.5854
17.318	20.5729
17.336	20.5591
17.354	20.5445
17.372	20.5309
17.39	20.519
17.408	20.5109
17.426	20.5076
17.444	20.5102
17.462	20.5193
17.48	20.5348
17.498	20.5564
17.516	20.5826
17.534	20.6126
17.552	20.6434
17.57	20.6742
17.588	20.7015
17.606	20.7245
17.624	20.741
17.642	20.7502
17.66	20.7514
17.678	20.7448
17.696	20.7305
17.714	20.7094
17.732	20.6829
17.75	20.6522
17.768	20.619
17.786	20.584
17.804	20.549
17.822	20.5141
17.84	20.48
17.858	20.4465
17.876	20.4136
17.894	20.3805
17.912	20.3469
17.93	20.3118
17.948	20.275
17.966	20.2359
17.984	20.1946
18.002	20.1512
18.02	20.1065
18.038	20.061
18.056	20.0165
18.074	19.9734
18.092	19.9339
18.11	19.8982
18.128	19.8679
18.146	19.8431
18.164	19.8244
18.182	19.8113
18.2	19.8034
18.218	19.7992
18.236	19.7981
18.254	19.7976
18.272	19.797
18.29	19.7936
18.308	19.7869
18.326	19.7748
18.344	19.7571
18.362	19.7329
18.38	19.7026
18.398	19.6665
18.416	19.6257
18.434	19.581
18.452	19.5341
18.47	19.4862
18.488	19.4393
18.506	19.3944
18.524	19.3533
18.542	19.3164
18.56	19.2847
18.578	19.2582
18.596	19.2364
18.614	19.2194
18.632	19.2059
18.65	19.1956
18.668	19.1865
18.686	19.1784
18.704	19.1695
18.722	19.1594
18.74	19.1467
18.758	19.1313
18.776	19.1122
18.794	19.0897
18.812	19.0635
18.83	19.0341
18.848	19.0019
18.866	18.9675
18.884	18.9318
18.902	18.8951
18.92	18.8583
18.938	18.8219
18.956	18.7867
18.974	18.753
18.992	18.7215
19.01	18.6924
19.028	18.6663
19.046	18.6433
19.064	18.6236
19.082	18.6073
19.1	18.5947
19.118	18.5856
19.136	18.58
19.154	18.5779
19.172	18.5793
19.19	18.5838
19.208	18.591
19.226	18.6007
19.244	18.6121
19.262	18.6248
19.28	18.6373
19.298	18.6494
19.316	18.6593
19.334	18.6669
19.352	18.6699
19.37	18.6683
19.388	18.6599
19.406	18.6447
19.424	18.6211
19.442	18.589
19.46	18.5476
19.478	18.4967
19.496	18.437
19.514	18.3681
19.532	18.2916
19.55	18.2077
19.568	18.1184
19.586	18.0253
19.604	17.9297
19.622	17.8343
19.64	17.7397
19.658	17.6502
19.676	17.5653
19.694	17.4895
19.712	17.4223
19.73	17.3672
19.748	17.3243
19.766	17.2951
19.784	17.2804
19.802	17.2799
19.82	17.2941
19.838	17.3221
19.856	17.3629
19.874	17.4158
19.892	17.478
19.91	17.5498
19.928	17.6266
19.946	17.7092
19.964	17.7927
19.982	17.8769
20	17.9584
20.018	18.0351
20.036	18.106
20.054	18.1677
20.072	18.2207
20.09	18.2621
20.108	18.2922
20.126	18.3098
20.144	18.3147
20.162	18.3072
20.18	18.287
20.198	18.255
20.216	18.212
20.234	18.1582
20.252	18.0958
20.27	18.0244
20.288	17.9467
20.306	17.8627
20.324	17.7744
20.342	17.6828
20.36	17.5885
20.378	17.4939
20.396	17.3987
20.414	17.3054
20.432	17.2136
20.45	17.1252
20.468	17.0408
20.486	16.9608
20.504	16.8868
20.522	16.8184
20.54	16.7572
20.558	16.7029
20.576	16.6564
20.594	16.6182
20.612	16.5881
20.63	16.5667
20.648	16.5538
20.666	16.5493
20.684	16.5536
20.702	16.5658
20.72	16.586
20.738	16.6138
20.756	16.6479
20.774	16.6887
20.792	16.7342
20.81	16.7846
20.828	16.8383
20.846	16.8934
20.864	16.9504
20.882	17.0055
20.9	17.0595
20.918	17.1096
20.936	17.154
20.954	17.1928
20.972	17.2228
20.99	17.2447
21.008	17.2562
21.026	17.2565
21.044	17.2457
21.062	17.2221
21.08	17.1861
21.098	17.1379
21.116	17.0772
21.134	17.0049
21.152	16.9225
21.17	16.8295
21.188	16.7291
21.206	16.6213
21.224	16.5077
21.242	16.3918
21.26	16.2723
21.278	16.1534
21.296	16.0353
21.314	15.919
21.332	15.8074
21.35	15.6995
21.368	15.5976
21.386	15.5023
21.404	15.4134
21.422	15.3321
21.44	15.2583
21.458	15.1914
21.476	15.1317
21.494	15.0787
21.512	15.0313
21.53	14.9899
21.548	14.9532
21.566	14.9203
21.584	14.8914
21.602	14.8651
21.62	14.8416
21.638	14.8202
21.656	14.8002
21.674	14.7817
21.692	14.7647
21.71	14.749
21.728	14.7347
21.746	14.7218
21.764	14.7103
21.782	14.7006
21.8	14.6932
21.818	14.6879
21.836	14.685
21.854	14.6846
21.872	14.6867
21.89	14.6917
21.908	14.6996
21.926	14.7099
21.944	14.7222
21.962	14.7368
21.98	14.753
21.998	14.771
22.016	14.7903
22.034	14.8102
22.052	14.8308
22.07	14.852
22.088	14.8737
22.106	14.8959
22.124	14.9195
22.142	14.9441
22.16	14.9702
22.178	14.9994
22.196	15.0311
22.214	15.0665
22.232	15.1072
22.25	15.1525
22.268	15.2037
22.286	15.2617
22.304	15.326
22.322	15.3968
22.34	15.4748
22.358	15.559
22.376	15.6479
22.394	15.7425
22.412	15.8405
22.43	15.9388
22.448	16.0394
22.466	16.1378
22.484	16.2309
22.502	16.3206
22.52	16.4014
22.538	16.4712
22.556	16.5312
22.574	16.576
22.592	16.605
22.61	16.6184
22.628	16.6131
22.646	16.5888
22.664	16.5461
22.682	16.4845
22.7	16.4032
22.718	16.3045
22.736	16.1901
22.754	16.0584
22.772	15.914
22.79	15.7604
22.808	15.5951
22.826	15.4248
22.844	15.2534
22.862	15.0782
22.88	14.9058
22.898	14.7392
22.916	14.5763
22.934	14.4228
22.952	14.2802
22.97	14.1473
22.988	14.0287
23.006	13.9254
23.024	13.8365
23.042	13.7639
23.06	13.7086
23.078	13.6693
23.096	13.6447
23.114	13.6358
23.132	13.6413
23.15	13.6578
23.168	13.686
23.186	13.7249
23.204	13.7706
23.222	13.8241
23.24	13.8842
23.258	13.9467
23.276	14.0122
23.294	14.0801
23.312	14.1459
23.33	14.2104
23.348	14.273
23.366	14.3305
23.384	14.3834
23.402	14.4313
23.42	14.471
23.438	14.5021
23.456	14.5253
23.474	14.5396
23.492	14.5443
23.51	14.5401
23.528	14.5284
23.546	14.5086
23.564	14.4811
23.582	14.4487
23.6	14.4118
23.618	14.3698
23.636	14.3262
23.654	14.2828
23.672	14.238
23.69	14.1948
23.708	14.1551
23.726	14.1175
23.744	14.0835
23.762	14.0543
23.78	14.0297
23.798	14.0091
23.816	13.9921
23.834	13.9797
23.852	13.9702
23.87	13.9617
23.888	13.9557
23.906	13.9505
23.924	13.9424
23.942	13.932
23.96	13.9191
23.978	13.9
23.996	13.873
24.014	13.8397
24.032	13.7987
24.05	13.7485
24.068	13.6894
24.086	13.6233
24.104	13.5517
24.122	13.473
24.14	13.3893
24.158	13.303
24.176	13.2118
24.194	13.118
24.212	13.0271
24.23	12.9394
24.248	12.8536
24.266	12.7748
24.284	12.7052
24.302	12.6414
24.32	12.5901
24.338	12.5572
24.356	12.537
24.374	12.5358
24.392	12.563
24.41	12.6153
24.428	12.6939
24.446	12.8086
24.464	12.9623
24.482	13.1502
24.5	13.3814
24.518	13.664
24.536	13.9935
24.554	14.3713
24.572	14.801
24.59	15.2847
24.608	15.819
24.626	16.3991
24.644	17.0256
24.662	17.7017
24.68	18.4132
24.698	19.1481
24.716	19.9198
24.734	20.7134
24.752	21.5047
24.77	22.2972
24.788	23.0946
24.806	23.869
24.824	24.602
24.842	25.3124
24.86	25.9816
24.878	26.5861
24.896	27.133
24.914	27.6223
24.932	28.0366
24.95	28.3659
24.968	28.6193
24.986	28.7932
25.004	28.8829
25.022	28.8869
25.04	28.8095
25.058	28.6559
25.076	28.426
25.094	28.1163
25.112	27.739
25.13	27.3061
25.148	26.8074
25.166	26.2508
25.184	25.6547
25.202	25.026
25.22	24.353
25.238	23.6535
25.256	22.9455
25.274	22.2174
25.292	21.475
25.31	20.7403
25.328	20.0242
25.346	19.3109
25.364	18.6185
25.382	17.9683
25.4	17.3519
25.418	16.7691
25.436	16.2419
25.454	15.7863
25.472	15.3852
25.49	15.0518
25.508	14.8057
25.526	14.6507
25.544	14.5767
25.562	14.596
25.58	14.7202
25.598	14.9459
25.616	15.2704
25.634	15.6954
25.652	16.2242
25.67	16.8591
25.688	17.5889
25.706	18.4016
25.724	19.3032
25.742	20.2957
25.76	21.3545
25.778	22.458
25.796	23.6281
25.814	24.8506
25.832	26.0919
25.85	27.3324
25.868	28.6011
25.886	29.87
25.904	31.1035
25.922	32.2964
25.94	33.4687
25.958	34.5904
25.976	35.6313
25.994	36.6014
26.012	37.5048
26.03	38.3216
26.048	39.0343
26.066	39.6525
26.084	40.1768
26.102	40.6018
26.12	40.9223
26.138	41.1384
26.156	41.2581
26.174	41.2894
26.192	41.231
26.21	41.0762
26.228	40.8435
26.246	40.5523
26.264	40.1977
26.282	39.7734
26.3	39.3027
26.318	38.8085
26.336	38.2782
26.354	37.7123
26.372	37.1331
26.39	36.5613
26.408	35.9836
26.426	35.4024
26.444	34.8321
26.462	34.2849
26.48	33.7509
26.498	33.2329
26.516	32.7392
26.534	32.2764
26.552	31.8422
26.57	31.433
26.588	31.046
26.606	30.6808
26.624	30.3435
26.642	30.025
26.66	29.7144
26.678	29.4072
26.696	29.1141
26.714	28.8242
26.732	28.5248
26.75	28.2097
26.768	27.89
26.786	27.5572
26.804	27.2015
26.822	26.8169
26.84	26.4095
26.858	25.9793
26.876	25.5257
26.894	25.0456
26.912	24.5365
26.93	24.0076
26.948	23.4683
26.966	22.8978
26.984	22.2504
27.002	21.6272
27.02	21.1391
27.028	21.0089