File: Bakgrunnsmateriale/MATLAB/FTIR/ftir_data/subBb/Mapping_121/C-4040-8_e122.asc
PE IR       SPECTRUM    SPECTRUM    ASCII       PEDS        1.60
  -1
C-4040~2.ASC
17/03/27
14:29:38.00
17/03/27
14:30:05.00
tln
$C-4040-8_e0122$<ebV0>[-23.3,12.1,10.0,0.0,27,1,0]
27.028
64

2002,4.07
MIRTGS : RIGHTBACK : INTERNAL 2
MIR : ON : INTERNAL 2
OPTKBR

0.200000
8
8.000000
FILLER
SINGLE
SPECTRUM
UNLOCKED 256

DOUBLE

COMBINED
1
0
0

0.002000
BACKG

1
0
TRUE
51149
0
LEFT NOT FITTED RIGHT NOT FITTED 0
NONE
NONE
15600
12
4.427000
51148
TRUE
1 0 8 72 0 0 0 0

15798

#HDR
-1
-1
#GR
µM
EGY
2.38419e-05
0.0
2.000000
0.002000
12515
8
2.455816
0.009918
#DATA
2.000000	 0.768876
2.018000	 0.796614
2.036000	 0.795611
2.054000	 0.821912
2.072000	 0.848283
2.090000	 0.872224
2.108000	 0.893424
2.126000	 0.904400
2.144000	 0.911807
2.162000	 0.920861
2.180000	 0.944712
2.198000	 0.973775
2.216000	 0.992754
2.234000	 0.998896
2.252000	 0.952015
2.270000	 1.019929
2.288000	 1.040457
2.306000	 1.070374
2.324000	 1.114613
2.342000	 1.146395
2.360000	 1.174315
2.378000	 1.189056
2.396000	 1.215212
2.414000	 1.227170
2.432000	 1.248985
2.450000	 1.284549
2.468000	 1.326915
2.486000	 1.360438
2.504000	 1.388469
2.522000	 1.407391
2.540000	 1.418036
2.558000	 1.422557
2.576000	 1.435104
2.594000	 1.432532
2.612000	 1.484351
2.630000	 1.498452
2.648000	 1.546028
2.666000	 1.530256
2.684000	 1.564954
2.702000	 1.572714
2.720000	 1.553627
2.738000	 1.559805
2.756000	 1.566633
2.774000	 1.588862
2.792000	 1.599024
2.810000	 1.613443
2.828000	 1.621065
2.846000	 1.629379
2.864000	 1.618911
2.882000	 1.605464
2.900000	 1.591911
2.918000	 1.584719
2.936000	 1.592594
2.954000	 1.606015
2.972000	 1.625630
2.990000	 1.656364
3.008000	 1.686573
3.026000	 1.714840
3.044000	 1.741740
3.062000	 1.762506
3.080000	 1.776593
3.098000	 1.785435
3.116000	 1.785829
3.134000	 1.795716
3.152000	 1.802101
3.170000	 1.806230
3.188000	 1.825662
3.206000	 1.841179
3.224000	 1.872301
3.242000	 1.907402
3.260000	 1.930129
3.278000	 1.956766
3.296000	 1.976446
3.314000	 1.957215
3.332000	 2.021460
3.350000	 2.025499
3.368000	 1.966853
3.386000	 1.922022
3.404000	 1.825422
3.422000	 1.779086
3.440000	 1.933847
3.458000	 1.984324
3.476000	 2.003579
3.494000	 1.906508
3.512000	 2.009586
3.530000	 2.099136
3.548000	 2.139037
3.566000	 2.171694
3.584000	 2.196556
3.602000	 2.224596
3.620000	 2.240383
3.638000	 2.247721
3.656000	 2.253210
3.674000	 2.253207
3.692000	 2.248505
3.710000	 2.237852
3.728000	 2.234322
3.746000	 2.225797
3.764000	 2.219228
3.782000	 2.216670
3.800000	 2.215281
3.818000	 2.219196
3.836000	 2.225121
3.854000	 2.227319
3.872000	 2.240693
3.890000	 2.260791
3.908000	 2.275726
3.926000	 2.289038
3.944000	 2.304180
3.962000	 2.311698
3.980000	 2.320077
3.998000	 2.326512
4.016000	 2.326144
4.034000	 2.324167
4.052000	 2.312634
4.070000	 2.304197
4.088000	 2.290563
4.106000	 2.279266
4.124000	 2.272299
4.141999	 2.267015
4.160000	 2.260026
4.178000	 2.249531
4.196000	 2.244397
4.214000	 2.235769
4.232000	 2.229305
4.250000	 2.250058
4.268000	 2.264514
4.286000	 2.270427
4.304000	 2.292812
4.322000	 2.312545
4.340000	 2.328038
4.358000	 2.345349
4.375999	 2.357834
4.394000	 2.364967
4.412000	 2.370880
4.430000	 2.376719
4.448000	 2.379188
4.466000	 2.381724
4.484000	 2.378583
4.502000	 2.375392
4.520000	 2.368263
4.538000	 2.361049
4.556000	 2.353936
4.574000	 2.349196
4.592000	 2.341387
4.609999	 2.336345
4.628000	 2.332228
4.646000	 2.333262
4.664000	 2.333802
4.682000	 2.331976
4.700000	 2.334057
4.718000	 2.334200
4.736000	 2.336553
4.754000	 2.338455
4.772000	 2.336912
4.790000	 2.334882
4.808000	 2.341910
4.826000	 2.360637
4.843999	 2.374761
4.862000	 2.390714
4.880000	 2.406659
4.898000	 2.418101
4.916000	 2.429586
4.934000	 2.439646
4.952000	 2.448101
4.970000	 2.451028
4.988000	 2.454013
5.006000	 2.454823
5.024000	 2.453698
5.042000	 2.450882
5.060000	 2.446324
5.077999	 2.437781
5.096000	 2.431188
5.114000	 2.427489
5.132000	 2.420937
5.150000	 2.413747
5.168000	 2.410304
5.186000	 2.403864
5.204000	 2.393218
5.222000	 2.385620
5.240000	 2.379966
5.258000	 2.375063
5.276000	 2.368156
5.294000	 2.367705
5.312000	 2.372692
5.330000	 2.376047
5.348000	 2.375946
5.366000	 2.381672
5.384000	 2.387950
5.402000	 2.391168
5.420000	 2.389180
5.438000	 2.401552
5.456000	 2.405598
5.474000	 2.406126
5.492000	 2.416179
5.510000	 2.422129
5.528000	 2.426642
5.546000	 2.427632
5.564000	 2.423246
5.582000	 2.419282
5.600000	 2.422670
5.618000	 2.420296
5.636000	 2.406931
5.654000	 2.403242
5.672000	 2.404029
5.690000	 2.393725
5.708000	 2.377062
5.726000	 2.362144
5.744000	 2.340839
5.762000	 2.312023
5.780000	 2.311389
5.798000	 2.315382
5.816000	 2.292598
5.834000	 2.286435
5.852000	 2.287829
5.870000	 2.256486
5.888000	 2.231699
5.906000	 2.244270
5.923999	 2.236779
5.942000	 2.222270
5.960000	 2.227167
5.978000	 2.216353
5.996000	 2.210049
6.014000	 2.205298
6.032000	 2.175531
6.050000	 2.137685
6.068000	 2.139647
6.086000	 2.150291
6.104000	 2.138896
6.122000	 2.126714
6.140000	 2.121078
6.158000	 2.096628
6.176000	 2.057946
6.194000	 2.013773
6.212000	 1.976509
6.230000	 1.967617
6.248000	 1.988526
6.266000	 2.007691
6.284000	 2.013278
6.302000	 2.008572
6.320000	 1.995675
6.338000	 1.977998
6.356000	 1.971374
6.374000	 1.968994
6.392000	 1.944913
6.410000	 1.910229
6.428000	 1.915460
6.446000	 1.942723
6.464000	 1.945083
6.482000	 1.940210
6.500000	 1.977534
6.518000	 2.044502
6.536000	 2.087950
6.554000	 2.097234
6.572000	 2.092505
6.590000	 2.090209
6.608000	 2.081732
6.626000	 2.054845
6.644000	 2.002329
6.662000	 1.883931
6.680000	 1.725174
6.698000	 1.668172
6.716000	 1.753274
6.734000	 1.873335
6.752000	 1.945588
6.770000	 1.965794
6.788000	 1.964492
6.806000	 1.958795
6.824000	 1.940084
6.842000	 1.894195
6.860000	 1.823738
6.878000	 1.764964
6.896000	 1.759536
6.914000	 1.800824
6.932000	 1.840766
6.950000	 1.855046
6.968000	 1.859721
6.986000	 1.866140
7.004000	 1.868389
7.022000	 1.861517
7.040000	 1.849814
7.058000	 1.839739
7.076000	 1.823091
7.094000	 1.787105
7.112000	 1.743576
7.130000	 1.722126
7.148000	 1.734115
7.166000	 1.762359
7.184000	 1.781776
7.202000	 1.783181
7.220000	 1.780417
7.238000	 1.788035
7.256000	 1.800556
7.274000	 1.808249
7.292000	 1.812155
7.310000	 1.814488
7.328000	 1.814560
7.346000	 1.814206
7.364000	 1.814558
7.382000	 1.813903
7.400000	 1.811856
7.418000	 1.809984
7.436000	 1.809292
7.454000	 1.811067
7.472000	 1.817271
7.490000	 1.827024
7.508000	 1.836226
7.526000	 1.842036
7.544000	 1.845174
7.562000	 1.847292
7.580000	 1.849173
7.598000	 1.851361
7.616000	 1.853547
7.634000	 1.854565
7.652000	 1.853962
7.670000	 1.852909
7.688000	 1.852655
7.706000	 1.852975
7.724000	 1.853100
7.742000	 1.852531
7.760000	 1.851474
7.778000	 1.850587
7.796000	 1.849435
7.814000	 1.846069
7.832000	 1.837920
7.850000	 1.822147
7.868000	 1.796223
7.886000	 1.761730
7.904000	 1.728789
7.922000	 1.712478
7.940000	 1.720802
7.958000	 1.747768
7.976000	 1.779289
7.994000	 1.804172
8.012000	 1.819443
8.030000	 1.827680
8.048000	 1.832141
8.065999	 1.833956
8.084000	 1.832805
8.102000	 1.829166
8.120000	 1.824583
8.138000	 1.820169
8.155999	 1.815249
8.173999	 1.808313
8.192000	 1.798788
8.210000	 1.787072
8.228000	 1.774154
8.246000	 1.761491
8.263999	 1.750935
8.282000	 1.744011
8.300000	 1.740891
8.318000	 1.740533
8.336000	 1.741240
8.353999	 1.741557
8.372000	 1.740144
8.390000	 1.736855
8.408000	 1.732091
8.426000	 1.726472
8.443999	 1.720185
8.462000	 1.713513
8.480000	 1.706578
8.498000	 1.699331
8.516000	 1.691280
8.533999	 1.681786
8.552000	 1.670566
8.570000	 1.658018
8.588000	 1.645172
8.606000	 1.633388
8.624000	 1.623942
8.641999	 1.617310
8.660000	 1.612824
8.678000	 1.609157
8.696000	 1.605288
8.714000	 1.600964
8.731999	 1.596358
8.750000	 1.591361
8.768000	 1.585631
8.786000	 1.578939
8.804000	 1.571311
8.821999	 1.562566
8.840000	 1.552639
8.858000	 1.541715
8.876000	 1.530396
8.894000	 1.519036
8.911999	 1.507542
8.930000	 1.495588
8.948000	 1.483356
8.966000	 1.471263
8.984000	 1.459982
9.001999	 1.449941
9.020000	 1.441428
9.038000	 1.434715
9.056000	 1.429974
9.074000	 1.427170
9.092000	 1.425859
9.109999	 1.425299
9.128000	 1.424861
9.146000	 1.424296
9.164000	 1.424063
9.182000	 1.424672
9.199999	 1.426110
9.218000	 1.427609
9.236000	 1.428562
9.254000	 1.428775
9.272000	 1.428847
9.289999	 1.429504
9.308000	 1.430895
9.326000	 1.432705
9.344000	 1.434472
9.362000	 1.435831
9.379999	 1.436273
9.398000	 1.434841
9.416000	 1.429528
9.434000	 1.417507
9.452000	 1.396436
9.469999	 1.366985
9.488000	 1.334723
9.506000	 1.308883
9.524000	 1.297637
9.542000	 1.303540
9.560000	 1.321970
9.577999	 1.344324
9.596000	 1.363087
9.614000	 1.374923
9.632000	 1.380523
9.650000	 1.382053
9.667999	 1.381066
9.686000	 1.378136
9.704000	 1.373552
9.722000	 1.368153
9.740000	 1.362877
9.757999	 1.358856
9.776000	 1.356765
9.794000	 1.356749
9.812000	 1.358739
9.830000	 1.362212
9.847999	 1.366343
9.866000	 1.370537
9.884000	 1.374568
9.902000	 1.378526
9.920000	 1.382748
9.937999	 1.387026
9.956000	 1.390900
9.974000	 1.393762
9.992000	 1.395347
10.01	1.395964
10.028	1.395930
10.046	1.395432
10.064	1.394358
10.082	1.392477
10.1	1.389791
10.118	1.386549
10.136	1.383247
10.154	1.380110
10.172	1.377270
10.19	1.374659
10.208	1.372000
10.226	1.369081
10.244	1.365715
10.262	1.361847
10.28	1.357347
10.298	1.352269
10.316	1.346647
10.334	1.340727
10.352	1.334679
10.37	1.328626
10.388	1.322609
10.406	1.316681
10.424	1.310826
10.442	1.305176
10.46	1.299694
10.478	1.294435
10.496	1.289367
10.514	1.284456
10.532	1.279698
10.55	1.275204
10.568	1.271005
10.586	1.267293
10.604	1.264028
10.622	1.261200
10.64	1.258579
10.658	1.255926
10.676	1.252973
10.694	1.249661
10.712	1.246038
10.73	1.242247
10.748	1.238570
10.766	1.235057
10.784	1.231739
10.802	1.228543
10.82	1.225376
10.838	1.222002
10.856	1.218344
10.874	1.214171
10.892	1.209443
10.91	1.204096
10.928	1.198323
10.946	1.192287
10.964	1.186331
10.982	1.180676
11	1.175530
11.018	1.171020
11.036	1.167099
11.054	1.163828
11.072	1.161069
11.09	1.158767
11.108	1.156758
11.126	1.154842
11.144	1.152779
11.162	1.150239
11.18	1.147008
11.198	1.142819
11.216	1.137476
11.234	1.130901
11.252	1.122962
11.27	1.113595
11.288	1.102780
11.306	1.090751
11.324	1.077959
11.342	1.065105
11.36	1.053026
11.378	1.042781
11.396	1.035138
11.414	1.030754
11.432	1.029819
11.45	1.032286
11.468	1.037637
11.486	1.045132
11.504	1.053872
11.522	1.062944
11.54	1.071478
11.558	1.078810
11.576	1.084603
11.594	1.088695
11.612	1.091144
11.63	1.092240
11.648	1.092267
11.666	1.091515
11.684	1.090267
11.702	1.088697
11.72	1.086989
11.738	1.085239
11.756	1.083472
11.774	1.081755
11.792	1.080032
11.81	1.078218
11.828	1.076158
11.846	1.073700
11.864	1.070620
11.882	1.066639
11.9	1.061401
11.918	1.054497
11.936	1.045331
11.954	1.033446
11.972	1.018426
11.99	1.000093
12.008	0.978656
12.026	0.954774
12.044	0.929677
12.062	0.905056
12.08	0.882813
12.098	0.864773
12.116	0.852460
12.134	0.846745
12.152	0.847636
12.17	0.854361
12.188	0.865589
12.206	0.879520
12.224	0.894311
12.242	0.908466
12.26	0.920900
12.278	0.931027
12.296	0.938614
12.314	0.943869
12.332	0.947092
12.35	0.948741
12.368	0.949162
12.386	0.948862
12.404	0.948102
12.422	0.947113
12.44	0.946179
12.458	0.945466
12.476	0.945097
12.494	0.945118
12.512	0.945619
12.53	0.946643
12.548	0.948087
12.566	0.949984
12.584	0.952227
12.602	0.954729
12.62	0.957430
12.638	0.960219
12.656	0.962993
12.674	0.965652
12.692	0.968096
12.71	0.970258
12.728	0.972103
12.746	0.973641
12.764	0.974814
12.782	0.975670
12.8	0.976163
12.818	0.976345
12.836	0.976241
12.854	0.975906
12.872	0.975403
12.89	0.974760
12.908	0.973999
12.926	0.973219
12.944	0.972411
12.962	0.971604
12.98	0.970796
12.998	0.970033
13.016	0.969264
13.034	0.968480
13.052	0.967678
13.07	0.966854
13.088	0.965956
13.106	0.965007
13.124	0.964009
13.142	0.962960
13.16	0.961837
13.178	0.960667
13.196	0.959445
13.214	0.958162
13.232	0.956876
13.25	0.955547
13.268	0.954195
13.286	0.952765
13.304	0.951205
13.322	0.949593
13.34	0.947892
13.358	0.946060
13.376	0.944180
13.394	0.942262
13.412	0.940405
13.43	0.938679
13.448	0.937129
13.466	0.935751
13.484	0.934531
13.502	0.933370
13.52	0.932162
13.538	0.930855
13.556	0.929290
13.574	0.927401
13.592	0.925134
13.61	0.922545
13.628	0.919680
13.646	0.916604
13.664	0.913460
13.682	0.910270
13.7	0.907163
13.718	0.904131
13.736	0.901263
13.754	0.898511
13.772	0.895851
13.79	0.893311
13.808	0.890788
13.826	0.888274
13.844	0.885737
13.862	0.883132
13.88	0.880446
13.898	0.877710
13.916	0.874918
13.934	0.872078
13.952	0.869251
13.97	0.866442
13.988	0.863705
14.006	0.861013
14.024	0.858369
14.042	0.855753
14.06	0.853143
14.078	0.850563
14.096	0.847953
14.114	0.845290
14.132	0.842560
14.15	0.839719
14.168	0.836717
14.186	0.833531
14.204	0.830183
14.222	0.826571
14.24	0.822765
14.258	0.818698
14.276	0.814373
14.294	0.809788
14.312	0.804953
14.33	0.799877
14.348	0.794501
14.366	0.788911
14.384	0.783019
14.402	0.776887
14.42	0.770620
14.438	0.764310
14.456	0.758094
14.474	0.752172
14.492	0.746703
14.51	0.741874
14.528	0.737835
14.546	0.734697
14.564	0.732490
14.582	0.731187
14.6	0.730712
14.618	0.730853
14.636	0.731489
14.654	0.732387
14.672	0.733311
14.69	0.734109
14.708	0.734688
14.726	0.734924
14.744	0.734738
14.762	0.734205
14.78	0.733304
14.798	0.732076
14.816	0.730627
14.834	0.728975
14.852	0.727126
14.87	0.725159
14.888	0.723151
14.906	0.721124
14.924	0.719015
14.942	0.716933
14.96	0.714872
14.978	0.712830
14.996	0.710816
15.014	0.708856
15.032	0.706927
15.05	0.705060
15.068	0.703255
15.086	0.701483
15.104	0.699693
15.122	0.697891
15.14	0.696094
15.158	0.694290
15.176	0.692449
15.194	0.690513
15.212	0.688561
15.23	0.686540
15.248	0.684454
15.266	0.682350
15.284	0.680173
15.302	0.677955
15.32	0.675701
15.338	0.673410
15.356	0.671078
15.374	0.668752
15.392	0.666423
15.41	0.664088
15.428	0.661776
15.446	0.659491
15.464	0.657263
15.482	0.655117
15.5	0.653074
15.518	0.651132
15.536	0.649272
15.554	0.647477
15.572	0.645738
15.59	0.644051
15.608	0.642367
15.626	0.640654
15.644	0.638924
15.662	0.637135
15.68	0.635284
15.698	0.633374
15.716	0.631414
15.734	0.629439
15.752	0.627463
15.77	0.625492
15.788	0.623554
15.806	0.621634
15.824	0.619739
15.842	0.617918
15.86	0.616153
15.878	0.614430
15.896	0.612732
15.914	0.611052
15.932	0.609368
15.95	0.607680
15.968	0.606032
15.986	0.604365
16.004	0.602681
16.022	0.600990
16.04	0.599297
16.058	0.597576
16.076	0.595806
16.094	0.593962
16.112	0.592005
16.13	0.589923
16.148	0.587725
16.166	0.585377
16.184	0.582871
16.202	0.580206
16.22	0.577313
16.238	0.574237
16.256	0.571036
16.274	0.567670
16.292	0.564162
16.31	0.560533
16.328	0.556831
16.346	0.553099
16.364	0.549373
16.382	0.545717
16.4	0.542180
16.418	0.538800
16.436	0.535620
16.454	0.532718
16.472	0.530140
16.49	0.527889
16.508	0.525994
16.526	0.524472
16.544	0.523310
16.562	0.522477
16.58	0.521950
16.598	0.521702
16.616	0.521661
16.634	0.521764
16.652	0.521929
16.67	0.522122
16.688	0.522305
16.706	0.522402
16.724	0.522391
16.742	0.522237
16.76	0.521926
16.778	0.521460
16.796	0.520858
16.814	0.520141
16.832	0.519324
16.85	0.518428
16.868	0.517484
16.886	0.516521
16.904	0.515525
16.922	0.514518
16.94	0.513543
16.958	0.512579
16.976	0.511627
16.994	0.510697
17.012	0.509788
17.03	0.508900
17.048	0.508022
17.066	0.507156
17.084	0.506311
17.102	0.505494
17.12	0.504706
17.138	0.503948
17.156	0.503213
17.174	0.502494
17.192	0.501810
17.21	0.501166
17.228	0.500582
17.246	0.500042
17.264	0.499538
17.282	0.499053
17.3	0.498583
17.318	0.498125
17.336	0.497665
17.354	0.497193
17.372	0.496725
17.39	0.496255
17.408	0.495764
17.426	0.495263
17.444	0.494755
17.462	0.494241
17.48	0.493719
17.498	0.493190
17.516	0.492653
17.534	0.492110
17.552	0.491561
17.57	0.491006
17.588	0.490414
17.606	0.489794
17.624	0.489159
17.642	0.488478
17.66	0.487736
17.678	0.486950
17.696	0.486118
17.714	0.485226
17.732	0.484292
17.75	0.483335
17.768	0.482340
17.786	0.481303
17.804	0.480269
17.822	0.479241
17.84	0.478230
17.858	0.477244
17.876	0.476291
17.894	0.475376
17.912	0.474504
17.93	0.473656
17.948	0.472831
17.966	0.472038
17.984	0.471277
18.002	0.470554
18.02	0.469843
18.038	0.469123
18.056	0.468385
18.074	0.467624
18.092	0.466846
18.11	0.466049
18.128	0.465196
18.146	0.464296
18.164	0.463368
18.182	0.462402
18.2	0.461397
18.218	0.460346
18.236	0.459241
18.254	0.458112
18.272	0.456964
18.29	0.455821
18.308	0.454683
18.326	0.453519
18.344	0.452338
18.362	0.451200
18.38	0.450088
18.398	0.448974
18.416	0.447881
18.434	0.446843
18.452	0.445837
18.47	0.444844
18.488	0.443883
18.506	0.442961
18.524	0.442069
18.542	0.441209
18.56	0.440352
18.578	0.439493
18.596	0.438639
18.614	0.437789
18.632	0.436906
18.65	0.435991
18.668	0.435033
18.686	0.434031
18.704	0.432964
18.722	0.431835
18.74	0.430642
18.758	0.429392
18.776	0.428104
18.794	0.426777
18.812	0.425420
18.83	0.424043
18.848	0.422661
18.866	0.421287
18.884	0.419943
18.902	0.418633
18.92	0.417365
18.938	0.416154
18.956	0.415025
18.974	0.413969
18.992	0.412989
19.01	0.412079
19.028	0.411241
19.046	0.410459
19.064	0.409710
19.082	0.408990
19.1	0.408285
19.118	0.407580
19.136	0.406839
19.154	0.406068
19.172	0.405258
19.19	0.404405
19.208	0.403493
19.226	0.402525
19.244	0.401503
19.262	0.400426
19.28	0.399295
19.298	0.398110
19.316	0.396868
19.334	0.395572
19.352	0.394259
19.37	0.392929
19.388	0.391592
19.406	0.390247
19.424	0.388892
19.442	0.387525
19.46	0.386168
19.478	0.384828
19.496	0.383504
19.514	0.382197
19.532	0.380916
19.55	0.379666
19.568	0.378445
19.586	0.377254
19.604	0.376089
19.622	0.374939
19.64	0.373807
19.658	0.372697
19.676	0.371605
19.694	0.370496
19.712	0.369374
19.73	0.368224
19.748	0.367052
19.766	0.365822
19.784	0.364524
19.802	0.363157
19.82	0.361723
19.838	0.360204
19.856	0.358572
19.874	0.356840
19.892	0.355025
19.91	0.353124
19.928	0.351147
19.946	0.349090
19.964	0.346985
19.982	0.344828
20	0.342655
20.018	0.340480
20.036	0.338320
20.054	0.336208
20.072	0.334142
20.09	0.332154
20.108	0.330239
20.126	0.328427
20.144	0.326724
20.162	0.325117
20.18	0.323600
20.198	0.322172
20.216	0.320834
20.234	0.319581
20.252	0.318382
20.27	0.317243
20.288	0.316135
20.306	0.315063
20.324	0.313997
20.342	0.312922
20.36	0.311833
20.378	0.310698
20.396	0.309524
20.414	0.308304
20.432	0.307044
20.45	0.305716
20.468	0.304295
20.486	0.302805
20.504	0.301267
20.522	0.299675
20.54	0.298029
20.558	0.296327
20.576	0.294579
20.594	0.292778
20.612	0.290943
20.63	0.289107
20.648	0.287263
20.666	0.285413
20.684	0.283553
20.702	0.281698
20.72	0.279857
20.738	0.278028
20.756	0.276232
20.774	0.274464
20.792	0.272728
20.81	0.271017
20.828	0.269347
20.846	0.267740
20.864	0.266191
20.882	0.264697
20.9	0.263257
20.918	0.261875
20.936	0.260551
20.954	0.259286
20.972	0.258089
20.99	0.256960
21.008	0.255894
21.026	0.254887
21.044	0.253942
21.062	0.253059
21.08	0.252240
21.098	0.251467
21.116	0.250737
21.134	0.250049
21.152	0.249398
21.17	0.248788
21.188	0.248189
21.206	0.247602
21.224	0.247014
21.242	0.246396
21.26	0.245755
21.278	0.245089
21.296	0.244404
21.314	0.243687
21.332	0.242920
21.35	0.242108
21.368	0.241231
21.386	0.240275
21.404	0.239252
21.422	0.238176
21.44	0.237044
21.458	0.235855
21.476	0.234607
21.494	0.233304
21.512	0.231958
21.53	0.230567
21.548	0.229135
21.566	0.227659
21.584	0.226142
21.602	0.224604
21.62	0.223043
21.638	0.221465
21.656	0.219877
21.674	0.218279
21.692	0.216672
21.71	0.215056
21.728	0.213434
21.746	0.211811
21.764	0.210187
21.782	0.208566
21.8	0.206950
21.818	0.205338
21.836	0.203749
21.854	0.202188
21.872	0.200649
21.89	0.199133
21.908	0.197637
21.926	0.196168
21.944	0.194729
21.962	0.193319
21.98	0.191944
21.998	0.190605
22.016	0.189302
22.034	0.188039
22.052	0.186819
22.07	0.185629
22.088	0.184459
22.106	0.183314
22.124	0.182192
22.142	0.181103
22.16	0.180035
22.178	0.178965
22.196	0.177893
22.214	0.176822
22.232	0.175755
22.25	0.174691
22.268	0.173623
22.286	0.172545
22.304	0.171459
22.322	0.170362
22.34	0.169251
22.358	0.168130
22.376	0.167009
22.394	0.165886
22.412	0.164764
22.43	0.163652
22.448	0.162546
22.466	0.161453
22.484	0.160378
22.502	0.159317
22.52	0.158284
22.538	0.157289
22.556	0.156326
22.574	0.155392
22.592	0.154483
22.61	0.153602
22.628	0.152757
22.646	0.151952
22.664	0.151177
22.682	0.150417
22.7	0.149673
22.718	0.148948
22.736	0.148244
22.754	0.147566
22.772	0.146894
22.79	0.146209
22.808	0.145520
22.826	0.144822
22.844	0.144114
22.862	0.143398
22.88	0.142664
22.898	0.141904
22.916	0.141125
22.934	0.140319
22.952	0.139482
22.97	0.138619
22.988	0.137735
23.006	0.136832
23.024	0.135908
23.042	0.134964
23.06	0.134002
23.078	0.133018
23.096	0.132009
23.114	0.130968
23.132	0.129903
23.15	0.128825
23.168	0.127733
23.186	0.126627
23.204	0.125513
23.222	0.124395
23.24	0.123266
23.258	0.122120
23.276	0.120952
23.294	0.119769
23.312	0.118577
23.33	0.117380
23.348	0.116175
23.366	0.114957
23.384	0.113727
23.402	0.112485
23.42	0.111238
23.438	0.109985
23.456	0.108726
23.474	0.107467
23.492	0.106208
23.51	0.104949
23.528	0.103691
23.546	0.102434
23.564	0.101178
23.582	0.099930
23.6	0.098693
23.618	0.097464
23.636	0.096250
23.654	0.095056
23.672	0.093877
23.69	0.092717
23.708	0.091576
23.726	0.090454
23.744	0.089351
23.762	0.088271
23.78	0.087212
23.798	0.086174
23.816	0.085157
23.834	0.084160
23.852	0.083184
23.87	0.082229
23.888	0.081296
23.906	0.080383
23.924	0.079485
23.942	0.078598
23.96	0.077727
23.978	0.076877
23.996	0.076054
24.014	0.075255
24.032	0.074473
24.05	0.073703
24.068	0.072948
24.086	0.072208
24.104	0.071482
24.122	0.070770
24.14	0.070074
24.158	0.069395
24.176	0.068735
24.194	0.068091
24.212	0.067461
24.23	0.066848
24.248	0.066249
24.266	0.065660
24.284	0.065076
24.302	0.064502
24.32	0.063932
24.338	0.063361
24.356	0.062794
24.374	0.062225
24.392	0.061645
24.41	0.061052
24.428	0.060449
24.446	0.059834
24.464	0.059207
24.482	0.058571
24.5	0.057918
24.518	0.057244
24.536	0.056551
24.554	0.055840
24.572	0.055113
24.59	0.054371
24.608	0.053613
24.626	0.052840
24.644	0.052047
24.662	0.051232
24.68	0.050413
24.698	0.049603
24.716	0.048796
24.734	0.047993
24.752	0.047203
24.77	0.046422
24.788	0.045650
24.806	0.044901
24.824	0.044185
24.842	0.043492
24.86	0.042832
24.878	0.042217
24.896	0.041647
24.914	0.041118
24.932	0.040629
24.95	0.040177
24.968	0.039764
24.986	0.039389
25.004	0.039053
25.022	0.038759
25.04	0.038503
25.058	0.038274
25.076	0.038068
25.094	0.037891
25.112	0.037734
25.13	0.037587
25.148	0.037463
25.166	0.037350
25.184	0.037230
25.202	0.037092
25.22	0.036947
25.238	0.036788
25.256	0.036608
25.274	0.036411
25.292	0.036195
25.31	0.035953
25.328	0.035679
25.346	0.035381
25.364	0.035051
25.382	0.034686
25.4	0.034283
25.418	0.033845
25.436	0.033373
25.454	0.032866
25.472	0.032322
25.49	0.031746
25.508	0.031141
25.526	0.030507
25.544	0.029841
25.562	0.029154
25.58	0.028456
25.598	0.027740
25.616	0.027009
25.634	0.026273
25.652	0.025540
25.67	0.024801
25.688	0.024062
25.706	0.023331
25.724	0.022605
25.742	0.021882
25.76	0.021174
25.778	0.020491
25.796	0.019827
25.814	0.019183
25.832	0.018567
25.85	0.017982
25.868	0.017424
25.886	0.016895
25.904	0.016403
25.922	0.015949
25.94	0.015533
25.958	0.015148
25.976	0.014791
25.994	0.014462
26.012	0.014161
26.03	0.013891
26.048	0.013652
26.066	0.013449
26.084	0.013275
26.102	0.013124
26.12	0.012991
26.138	0.012881
26.156	0.012792
26.174	0.012721
26.192	0.012668
26.21	0.012636
26.228	0.012619
26.246	0.012612
26.264	0.012617
26.282	0.012637
26.3	0.012662
26.318	0.012686
26.336	0.012709
26.354	0.012735
26.372	0.012760
26.39	0.012785
26.408	0.012812
26.426	0.012838
26.444	0.012862
26.462	0.012881
26.48	0.012899
26.498	0.012912
26.516	0.012921
26.534	0.012921
26.552	0.012916
26.57	0.012904
26.588	0.012885
26.606	0.012857
26.624	0.012822
26.642	0.012779
26.66	0.012728
26.678	0.012670
26.696	0.012606
26.714	0.012534
26.732	0.012451
26.75	0.012356
26.768	0.012249
26.786	0.012132
26.804	0.012008
26.822	0.011878
26.84	0.011741
26.858	0.011597
26.876	0.011446
26.894	0.011287
26.912	0.011120
26.93	0.010946
26.948	0.010767
26.966	0.010573
26.984	0.010350
27.002	0.010133
27.02	0.009963
27.028	0.009918