File: Bakgrunnsmateriale/MATLAB/FTIR/ftir_data/subBb/Mapping_121/C-4040-8_t114_cm-1.asc
PE IR       SPECTRUM    SPECTRUM    ASCII       PEDS        1.60
  -1
C-4909~1.ASC
17/03/27
23:53:38.00
17/03/27
23:53:38.00
tln
$C-4040-8_t0114$<tbV0>[5.2,13.0,8.0,0.0,27,1,0]
370
64

2002,4.07
MIRTGS : RIGHTBACK : INTERNAL 2
MIR : ON : INTERNAL 2
OPTKBR

0.200000
8
8.000000
FILLER
RATIO
SPECTRUM
UNLOCKED 256

DOUBLE
64
COMBINED
1
0
0

1.000000
RATIO

1
0
TRUE
51149
0
LEFT NOT FITTED RIGHT NOT FITTED 0
NONE
NONE
15600
12
4.427000
51148
TRUE
1 0 8 72 0 0 0 0

15798

#HDR
-1
-1
#GR
CM-1
%T
2.38419e-05
0.0
5000
-1.000000
4631
8
96.9612
39.1434
#DATA
5000	64.6216
4996	64.4887
4992	64.3229
4988	64.4821
4984	64.8519
4980	64.9838
4976	65.005
4972	65.3154
4968	65.4916
4964	65.4549
4960	65.5622
4956	65.6335
4952	65.4668
4948	65.1032
4944	65.0399
4940	65.369
4936	65.3762
4932	65.1713
4928	65.3267
4924	65.4478
4920	65.2346
4916	65.1103
4912	65.0773
4908	64.8095
4904	64.7953
4900	65.6867
4896	66.4492
4892	65.9259
4888	65.1071
4884	64.7259
4880	64.549
4876	64.5471
4872	64.5396
4868	64.6983
4864	65.0171
4860	65.0833
4856	65.1202
4852	65.1829
4848	65.0268
4844	64.9974
4840	65.1506
4836	65.0429
4832	64.6662
4828	64.5169
4824	64.6699
4820	64.7649
4816	64.8041
4812	64.9286
4808	65.0828
4804	65.1096
4800	65.0825
4796	65.2198
4792	65.3451
4788	65.0807
4784	64.6977
4780	64.6374
4776	64.6777
4772	64.8183
4768	65.0952
4764	65.111
4760	64.8165
4756	64.5014
4752	64.3869
4748	64.5341
4744	64.794
4740	65.0342
4736	65.1042
4732	64.7975
4728	64.5259
4724	64.5063
4720	64.4936
4716	64.5017
4712	64.3935
4708	64.3183
4704	64.4975
4700	64.6488
4696	64.6269
4692	64.5849
4688	64.5655
4684	64.5276
4680	64.5405
4676	64.5278
4672	64.4916
4668	64.62
4664	64.8576
4660	64.9912
4656	64.8996
4652	64.8459
4648	64.9899
4644	65.0783
4640	65.0138
4636	64.836
4632	64.6719
4628	64.7879
4624	65.1247
4620	65.2713
4616	65.1386
4612	65.0467
4608	65.1249
4604	65.2374
4600	65.318
4596	65.3313
4592	65.3141
4588	65.2991
4584	65.3292
4580	65.5466
4576	65.7472
4572	65.7917
4568	65.7536
4564	65.6746
4560	65.6254
4556	65.5883
4552	65.4665
4548	65.4884
4544	65.8239
4540	66.0331
4536	66.0588
4532	65.9167
4528	65.4236
4524	65.2774
4520	65.781
4516	66.0855
4512	66.0341
4508	65.936
4504	65.8021
4500	65.7904
4496	66.0623
4492	66.3569
4488	66.1853
4484	65.9453
4480	66.203
4476	66.3986
4472	66.4286
4468	66.7284
4464	66.8291
4460	66.6008
4456	66.4411
4452	66.2579
4448	66.2764
4444	66.3312
4440	66.3825
4436	66.9212
4432	67.4619
4428	67.4131
4424	67.0072
4420	66.821
4416	67.1921
4412	67.782
4408	64.7109
4404	55.5158
4400	43.9597
4396	39.1434
4392	45.289
4388	54.9019
4384	61.9205
4380	66.3049
4376	67.9574
4372	67.96
4368	67.7977
4364	67.4625
4360	66.8739
4356	66.4679
4352	66.616
4348	66.6486
4344	66.4623
4340	66.2842
4336	66.1907
4332	66.217
4328	66.1288
4324	65.9343
4320	65.8622
4316	65.8646
4312	65.9549
4308	66.1853
4304	66.3463
4300	66.1491
4296	65.6938
4292	65.5087
4288	65.7525
4284	65.8832
4280	65.8068
4276	65.9131
4272	65.9467
4268	65.6915
4264	65.6123
4260	65.6382
4256	65.4393
4252	65.3193
4248	65.4163
4244	65.5315
4240	65.4854
4236	65.1769
4232	64.9224
4228	65.0383
4224	65.1763
4220	65.2595
4216	65.5062
4212	65.6502
4208	65.5684
4204	65.4058
4200	65.3625
4196	65.5005
4192	65.4639
4188	65.0981
4184	64.8765
4180	65.1014
4176	65.4036
4172	65.2809
4168	64.864
4164	64.7161
4160	64.9311
4156	65.0365
4152	64.874
4148	64.8836
4144	65.0515
4140	64.9392
4136	64.7747
4132	64.8785
4128	65.0709
4124	65.1395
4120	65.0611
4116	64.9734
4112	64.8102
4108	64.5001
4104	64.3522
4100	64.4897
4096	64.6718
4092	64.7997
4088	64.8742
4084	64.8627
4080	64.8694
4076	64.9685
4072	64.9982
4068	64.8711
4064	64.7586
4060	64.7464
4056	64.7941
4052	64.9041
4048	64.9377
4044	64.848
4040	64.8041
4036	64.8177
4032	64.8089
4028	64.739
4024	64.7637
4020	64.9536
4016	65.0292
4012	64.9235
4008	64.8455
4004	64.912
4000	65.0946
3996	65.2187
3992	65.1462
3988	65.0402
3984	65.0104
3980	65.0232
3976	65.055
3972	64.9724
3968	64.9207
3964	65.0168
3960	65.0803
3956	65.1127
3952	65.1561
3948	65.1812
3944	65.1354
3940	65.0179
3936	64.9626
3932	65.0122
3928	65.1556
3924	65.3718
3920	65.478
3916	65.3249
3912	65.0452
3908	64.9888
3904	65.1529
3900	65.1235
3896	65.034
3892	65.2759
3888	65.5897
3884	65.5956
3880	65.3649
3876	65.2127
3872	65.2641
3868	65.3873
3864	65.4689
3860	65.4067
3856	65.1955
3852	65.0614
3848	65.2126
3844	65.3797
3840	65.2603
3836	65.2556
3832	65.4344
3828	65.3535
3824	65.1925
3820	65.1855
3816	65.2332
3812	65.2818
3808	65.2653
3804	65.2646
3800	65.315
3796	65.282
3792	65.2401
3788	65.3233
3784	65.3718
3780	65.2565
3776	65.1255
3772	65.0604
3768	65.077
3764	65.162
3760	65.2193
3756	65.2002
3752	65.1344
3748	65.1658
3744	65.304
3740	65.3574
3736	65.3337
3732	65.3322
3728	65.2503
3724	65.093
3720	65.025
3716	65.0359
3712	65.1732
3708	65.337
3704	65.2806
3700	65.2094
3696	65.3184
3692	65.3912
3688	65.3019
3684	65.2038
3680	65.1556
3676	65.19
3672	65.2543
3668	65.221
3664	65.1711
3660	65.1256
3656	65.1262
3652	65.1714
3648	65.1654
3644	65.2257
3640	65.3534
3636	65.3935
3632	65.3702
3628	65.3066
3624	65.229
3620	65.2117
3616	65.0987
3612	64.9498
3608	65.0725
3604	65.2264
3600	65.1733
3596	65.1195
3592	65.1246
3588	65.1027
3584	65.0854
3580	65.1543
3576	65.2014
3572	65.1252
3568	64.9826
3564	64.8963
3560	65.0394
3556	65.429
3552	65.7414
3548	65.6379
3544	65.3715
3540	65.2373
3536	65.2252
3532	65.2555
3528	65.2084
3524	65.1577
3520	65.1204
3516	65.0529
3512	65.0183
3508	65.0441
3504	65.1143
3500	65.2178
3496	65.2586
3492	65.1945
3488	65.1418
3484	65.1267
3480	65.2153
3476	65.2898
3472	65.1765
3468	65.1859
3464	65.3458
3460	65.2444
3456	65.0239
3452	64.9981
3448	65.0963
3444	65.1527
3440	65.0611
3436	64.9939
3432	65.0476
3428	65.0789
3424	65.0888
3420	65.1013
3416	65.1088
3412	65.1566
3408	65.1809
3404	65.1558
3400	65.1647
3396	65.1755
3392	65.1537
3388	65.132
3384	65.1083
3380	65.1534
3376	65.2229
3372	65.1905
3368	65.1937
3364	65.2543
3360	65.2194
3356	65.1755
3352	65.2056
3348	65.2334
3344	65.1777
3340	65.0745
3336	65.036
3332	65.0147
3328	64.9624
3324	64.9847
3320	65.1169
3316	65.2319
3312	65.2017
3308	65.0977
3304	65.0938
3300	65.1868
3296	65.1916
3292	65.1118
3288	65.12
3284	65.1109
3280	64.9882
3276	64.9027
3272	64.9379
3268	65.0702
3264	65.257
3260	65.4545
3256	65.4924
3252	65.3364
3248	65.2006
3244	65.0829
3240	65.0168
3236	65.1033
3232	65.203
3228	65.2402
3224	65.2085
3220	65.1736
3216	65.2092
3212	65.2066
3208	65.1324
3204	65.0792
3200	65.0614
3196	65.053
3192	65.0952
3188	65.1248
3184	65.0726
3180	65.0722
3176	65.1157
3172	65.071
3168	64.9771
3164	65.0038
3160	65.1773
3156	65.2215
3152	65.1085
3148	65.0823
3144	65.1022
3140	65.1693
3136	65.3297
3132	65.4482
3128	65.4997
3124	65.4227
3120	65.388
3116	65.5469
3112	65.5811
3108	65.5174
3104	65.4514
3100	65.2635
3096	65.1487
3092	65.2126
3088	65.3095
3084	65.4119
3080	65.4359
3076	65.317
3072	65.2108
3068	65.1664
3064	65.141
3060	65.1447
3056	65.16
3052	65.1785
3048	65.188
3044	65.1607
3040	65.1623
3036	65.297
3032	65.3784
3028	65.2169
3024	65.1049
3020	65.1928
3016	65.2437
3012	65.2065
3008	65.1861
3004	65.2094
3000	65.2319
2996	65.2446
2992	65.2727
2988	65.2074
2984	65.041
2980	64.952
2976	65.0182
2972	65.1803
2968	65.2915
2964	65.2308
2960	65.0526
2956	64.9884
2952	65.0946
2948	65.1271
2944	65.0524
2940	65.0019
2936	64.9498
2932	64.8829
2928	64.846
2924	64.8662
2920	64.9358
2916	64.933
2912	64.854
2908	64.8787
2904	64.97
2900	65.0363
2896	65.1197
2892	65.1707
2888	65.1595
2884	65.1401
2880	65.1318
2876	65.0932
2872	64.98
2868	64.8636
2864	64.8505
2860	64.8404
2856	64.811
2852	64.9342
2848	65.0804
2844	65.1034
2840	65.1507
2836	65.2519
2832	65.3095
2828	65.3226
2824	65.2511
2820	65.0848
2816	65.0273
2812	65.1347
2808	65.2016
2804	65.2413
2800	65.2853
2796	65.172
2792	65.0534
2788	65.1405
2784	65.2421
2780	65.1801
2776	65.1082
2772	65.1626
2768	65.2564
2764	65.3067
2760	65.2813
2756	65.224
2752	65.1894
2748	65.155
2744	65.1373
2740	65.1225
2736	65.1463
2732	65.2195
2728	65.1904
2724	65.1205
2720	65.1623
2716	65.2109
2712	65.1983
2708	65.2053
2704	65.2826
2700	65.3753
2696	65.3919
2692	65.3373
2688	65.2776
2684	65.2405
2680	65.2249
2676	65.2314
2672	65.1813
2668	65.1114
2664	65.1121
2660	65.1204
2656	65.1623
2652	65.2177
2648	65.2093
2644	65.2351
2640	65.2953
2636	65.2448
2632	65.1372
2628	65.0686
2624	65.0404
2620	65.097
2616	65.1957
2612	65.2614
2608	65.2822
2604	65.2706
2600	65.228
2596	65.207
2592	65.1996
2588	65.1199
2584	65.1323
2580	65.269
2576	65.2608
2572	65.1465
2568	65.1587
2564	65.2653
2560	65.3203
2556	65.3324
2552	65.3507
2548	65.3092
2544	65.2645
2540	65.3229
2536	65.3527
2532	65.2529
2528	65.1925
2524	65.2449
2520	65.2555
2516	65.2179
2512	65.2738
2508	65.3282
2504	65.2327
2500	65.1191
2496	65.0289
2492	64.9664
2488	65.0516
2484	65.201
2480	65.2574
2476	65.2379
2472	65.2479
2468	65.3276
2464	65.4209
2460	65.4154
2456	65.2951
2452	65.2454
2448	65.3101
2444	65.306
2440	65.2544
2436	65.376
2432	65.447
2428	65.1567
2424	64.834
2420	64.869
2416	65.2004
2412	65.4916
2408	65.5738
2404	65.4864
2400	65.2846
2396	65.1328
2392	65.1407
2388	65.2048
2384	65.2216
2380	65.2121
2376	65.1608
2372	65.1323
2368	65.2507
2364	65.3565
2360	65.2628
2356	65.1359
2352	65.1761
2348	65.2801
2344	65.3042
2340	65.3099
2336	65.3296
2332	65.3242
2328	65.3237
2324	65.298
2320	65.2919
2316	65.3233
2312	65.265
2308	65.2017
2304	65.2688
2300	65.3865
2296	65.4171
2292	65.3481
2288	65.2713
2284	65.2369
2280	65.2383
2276	65.2415
2272	65.2366
2268	65.2869
2264	65.335
2260	65.2921
2256	65.2682
2252	65.2923
2248	65.2983
2244	65.299
2240	65.2641
2236	65.2172
2232	65.2109
2228	65.2026
2224	65.2213
2220	65.29
2216	65.3517
2212	65.3797
2208	65.385
2204	65.3926
2200	65.371
2196	65.3393
2192	65.3441
2188	65.3452
2184	65.3502
2180	65.4087
2176	65.4586
2172	65.4021
2168	65.308
2164	65.2872
2160	65.246
2156	65.1778
2152	65.234
2148	65.2982
2144	65.2278
2140	65.1273
2136	65.1055
2132	65.1768
2128	65.3019
2124	65.3944
2120	65.429
2116	65.4205
2112	65.4152
2108	65.4308
2104	65.4235
2100	65.4049
2096	65.3825
2092	65.3663
2088	65.3338
2084	65.1626
2080	64.9771
2076	65.0559
2072	65.3472
2068	65.5674
2064	65.5083
2060	65.2499
2056	65.0324
2052	65.009
2048	65.15
2044	65.2829
2040	65.3302
2036	65.3362
2032	65.3686
2028	65.4096
2024	65.3787
2020	65.3041
2016	65.2824
2012	65.3253
2008	65.3239
2004	65.22
2000	65.116
1996	65.0851
1992	65.1139
1988	65.1516
1984	65.2062
1980	65.2982
1976	65.3177
1972	65.2079
1968	65.1097
1964	65.16
1960	65.2413
1956	65.2253
1952	65.2029
1948	65.2351
1944	65.2657
1940	65.2628
1936	65.2731
1932	65.2648
1928	65.2238
1924	65.2301
1920	65.285
1916	65.3618
1912	65.4019
1908	65.3693
1904	65.2858
1900	65.2079
1896	65.2275
1892	65.3064
1888	65.3417
1884	65.3122
1880	65.2242
1876	65.1106
1872	65.0547
1868	65.1266
1864	65.2348
1860	65.2735
1856	65.3032
1852	65.3568
1848	65.3383
1844	65.2473
1840	65.2069
1836	65.252
1832	65.3017
1828	65.2616
1824	65.2087
1820	65.2105
1816	65.1841
1812	65.1526
1808	65.1276
1804	65.1126
1800	65.222
1796	65.3068
1792	65.2004
1788	65.139
1784	65.2028
1780	65.2192
1776	65.218
1772	65.2309
1768	65.1811
1764	65.1119
1760	65.0869
1756	65.1116
1752	65.1622
1748	65.153
1744	65.0494
1740	64.9239
1736	64.838
1732	64.8207
1728	64.8883
1724	64.9605
1720	65.0095
1716	65.1679
1712	65.3098
1708	65.239
1704	65.1251
1700	65.1507
1696	65.2356
1692	65.2422
1688	65.1721
1684	65.1375
1680	65.2183
1676	65.296
1672	65.2249
1668	65.1131
1664	65.1093
1660	65.1433
1656	65.1166
1652	65.0896
1648	65.0948
1644	65.1005
1640	65.1511
1636	65.1692
1632	65.1112
1628	65.1479
1624	65.2431
1620	65.2424
1616	65.1671
1612	65.0899
1608	64.997
1604	64.9353
1600	64.9948
1596	65.0955
1592	65.1318
1588	65.1252
1584	65.1219
1580	65.1201
1576	65.0826
1572	65.0431
1568	65.0301
1564	65.0712
1560	65.1426
1556	65.1086
1552	65.0717
1548	65.116
1544	65.1452
1540	65.1989
1536	65.2856
1532	65.3169
1528	65.239
1524	65.123
1520	65.043
1516	65.0075
1512	65.0229
1508	65.0715
1504	65.1563
1500	65.2254
1496	65.1963
1492	65.1127
1488	65.0965
1484	65.1432
1480	65.1929
1476	65.202
1472	65.1474
1468	65.0945
1464	65.023
1460	65.001
1456	65.1771
1452	65.2041
1448	64.9662
1444	64.8526
1440	64.8457
1436	64.8764
1432	65.0014
1428	65.063
1424	65.0444
1420	65.0244
1416	64.9295
1412	64.8906
1408	65.0284
1404	65.0718
1400	65.0052
1396	65.049
1392	65.0854
1388	65.032
1384	64.9543
1380	64.8901
1376	64.8412
1372	64.7988
1368	64.8595
1364	65.0046
1360	65.0692
1356	65.0645
1352	65.0844
1348	65.0618
1344	64.9799
1340	64.9823
1336	65.0214
1332	65.0258
1328	65.0403
1324	65.0609
1320	65.114
1316	65.1459
1312	65.0609
1308	64.967
1304	64.9646
1300	64.9401
1296	64.8557
1292	64.7925
1288	64.8148
1284	64.9188
1280	64.9856
1276	64.9464
1272	64.8651
1268	64.8649
1264	64.9246
1260	64.9521
1256	64.9663
1252	65.0136
1248	65.012
1244	64.9018
1240	64.8478
1236	64.8929
1232	64.8968
1228	64.8311
1224	64.8665
1220	65.0315
1216	65.0813
1212	64.9658
1208	64.8704
1204	64.8173
1200	64.7669
1196	64.8219
1192	64.938
1188	65.058
1184	65.1541
1180	65.0571
1176	64.8554
1172	64.7851
1168	64.8778
1164	64.9971
1160	64.9364
1156	64.771
1152	64.7198
1148	64.7277
1144	64.8
1140	65.0604
1136	65.1899
1132	65.0131
1128	64.8736
1124	64.8328
1120	64.8164
1116	64.8348
1112	64.8484
1108	64.8781
1104	64.8976
1100	64.7885
1096	64.6501
1092	64.6925
1088	64.8262
1084	64.9551
1080	65.0028
1076	64.9922
1072	65.0293
1068	64.9838
1064	64.8206
1060	64.6484
1056	64.6112
1052	64.7547
1048	64.8071
1044	64.7238
1040	64.7544
1036	64.8333
1032	64.8081
1028	64.7389
1024	64.7289
1020	64.6285
1016	64.478
1012	64.6367
1008	64.7737
1004	64.6048
1000	64.5369
996	 64.6259
992	 64.7343
988	 64.7439
984	 64.5901
980	 64.4733
976	 64.5075
972	 64.5924
968	 64.6141
964	 64.6254
960	 64.637
956	 64.6244
952	 64.6554
948	 64.6939
944	 64.6464
940	 64.5139
936	 64.5331
932	 64.7487
928	 64.826
924	 64.7301
920	 64.7094
916	 64.807
912	 64.8938
908	 64.9045
904	 64.8229
900	 64.712
896	 64.6718
892	 64.5193
888	 64.3271
884	 64.5091
880	 64.8746
876	 64.9
872	 64.5731
868	 64.2818
864	 64.1701
860	 64.0523
856	 63.9845
852	 64.1042
848	 64.3243
844	 64.561
840	 64.4982
836	 63.8848
832	 63.2473
828	 63.2452
824	 63.8085
820	 64.3207
816	 64.2551
812	 63.7507
808	 63.4495
804	 63.6665
800	 64.0559
796	 64.1978
792	 64.0817
788	 64.1563
784	 64.5406
780	 64.6261
776	 64.3138
772	 64.1662
768	 64.1771
764	 63.9067
760	 63.6405
756	 63.7762
752	 64.1121
748	 64.2781
744	 64.1212
740	 64.0295
736	 63.9988
732	 63.7533
728	 63.6775
724	 63.9354
720	 64.0609
716	 63.783
712	 63.4105
708	 63.3668
704	 63.5797
700	 63.6327
696	 63.4776
692	 63.5138
688	 63.7251
684	 63.6068
680	 63.359
676	 63.291
672	 63.371
668	 63.5688
664	 63.5164
660	 63.1885
656	 63.0733
652	 63.2267
648	 63.1676
644	 62.8926
640	 62.9893
636	 63.3939
632	 63.5219
628	 63.4231
624	 63.3044
620	 63.1579
616	 63.0718
612	 62.9506
608	 62.8175
604	 62.922
600	 62.9961
596	 62.9737
592	 63.0294
588	 63.0328
584	 62.7941
580	 62.276
576	 62.0029
572	 62.0717
568	 62.1863
564	 62.2759
560	 62.3965
556	 62.4159
552	 62.1273
548	 62.2162
544	 62.9528
540	 63.35
536	 62.9082
532	 62.0949
528	 61.5209
524	 61.4425
520	 61.5443
516	 61.4868
512	 61.3423
508	 61.2564
504	 61.3697
500	 61.5623
496	 61.6322
492	 61.5094
488	 61.1444
484	 61.0902
480	 60.8273
476	 60.0371
472	 60.3437
468	 61.301
464	 61.8476
460	 61.4139
456	 59.27
452	 57.6094
448	 57.5802
444	 58.141
440	 59.2608
436	 60.3225
432	 60.4989
428	 60.1614
424	 59.128
420	 59.0652
416	 60.9981
412	 61.9507
408	 60.7796
404	 59.7706
400	 56.7501
396	 46.2541
392	 41.34
388	 52.979
384	 72.5124
380	 82.8974
376	 83.657
372	 91.0676
370	 96.9612