File: Bakgrunnsmateriale/MATLAB/FTIR/ftir_data/subBb/Mapping_121/C-4040-8_t14_cm-1.asc
PE IR       SPECTRUM    SPECTRUM    ASCII       PEDS        1.60
  -1
C-1A6F~1.ASC
17/03/27
15:36:10.00
17/03/27
15:36:10.00
tln
$C-4040-8_t0014$<tbV0>[7.8,-10.4,8.0,0.0,27,1,0]
370
64

2002,4.07
MIRTGS : RIGHTBACK : INTERNAL 2
MIR : ON : INTERNAL 2
OPTKBR

0.200000
8
8.000000
FILLER
RATIO
SPECTRUM
UNLOCKED 256

DOUBLE
64
COMBINED
1
0
0

1.000000
RATIO

1
0
TRUE
51149
0
LEFT NOT FITTED RIGHT NOT FITTED 0
NONE
NONE
15600
12
4.427000
51148
TRUE
1 0 8 72 0 0 0 0

15798

#HDR
-1
-1
#GR
CM-1
%T
2.38419e-05
0.0
5000
-1.000000
4631
8
68.249
11.8022
#DATA
5000	63.0001
4996	62.7651
4992	62.7687
4988	62.9831
4984	62.8776
4980	62.6155
4976	62.3286
4972	62.1721
4968	62.4322
4964	62.3705
4960	62.0989
4956	62.5665
4952	62.9985
4948	62.4999
4944	61.5307
4940	61.3823
4936	62.3006
4932	62.8314
4928	62.5172
4924	62.4999
4920	62.8906
4916	62.9919
4912	63.2158
4908	63.6446
4904	63.8429
4900	63.7219
4896	63.3559
4892	63.1404
4888	62.7002
4884	62.0129
4880	62.0961
4876	62.9134
4872	63.3096
4868	62.8868
4864	62.5904
4860	62.8443
4856	63.018
4852	62.9632
4848	63.0651
4844	63.2199
4840	63.287
4836	63.3538
4832	63.1537
4828	62.7675
4824	62.7236
4820	62.8309
4816	62.7163
4812	62.6549
4808	62.7428
4804	62.7883
4800	62.7278
4796	62.5625
4792	62.5525
4788	62.9232
4784	63.2349
4780	63.2445
4776	63.2606
4772	63.2158
4768	62.8828
4764	62.5128
4760	62.4852
4756	62.7319
4752	62.9284
4748	62.9734
4744	62.9528
4740	62.8431
4736	62.686
4732	62.6404
4728	62.7133
4724	62.8123
4720	62.7889
4716	62.6324
4712	62.6117
4708	62.7598
4704	62.8359
4700	62.8812
4696	62.9557
4692	62.9717
4688	62.9861
4684	62.991
4680	62.9568
4676	62.9163
4672	62.7854
4668	62.6817
4664	62.7835
4660	62.8908
4656	62.7193
4652	62.4387
4648	62.4828
4644	62.6759
4640	62.723
4636	62.6992
4632	62.6114
4628	62.6307
4624	62.6928
4620	62.6566
4616	62.6196
4612	62.5868
4608	62.6821
4604	62.6934
4600	62.5342
4596	62.5444
4592	62.521
4588	62.3472
4584	62.2464
4580	62.3359
4576	62.5484
4572	62.58
4568	62.4758
4564	62.5229
4560	62.6145
4556	62.4532
4552	62.1859
4548	62.1562
4544	62.1738
4540	61.986
4536	61.8154
4532	61.9434
4528	62.252
4524	62.2149
4520	61.8082
4516	61.627
4512	61.8306
4508	62.1094
4504	62.2471
4500	62.194
4496	62.0495
4492	61.8051
4488	61.7207
4484	61.7694
4480	62.1747
4476	62.5253
4472	62.3702
4468	62.4593
4464	62.6039
4460	62.7524
4456	63.4232
4452	65.568
4448	67.9314
4444	67.8008
4440	64.9703
4436	61.2002
4432	59.8598
4428	60.7867
4424	61.3059
4420	61.3624
4416	61.1777
4412	60.4803
4408	60.2042
4404	59.9868
4400	59.4048
4396	59.0016
4392	60.697
4388	66.1171
4384	67.941
4380	65.3352
4376	64.5887
4372	63.8536
4368	62.791
4364	62.309
4360	62.1956
4356	62.4913
4352	62.5544
4348	62.3635
4344	61.9791
4340	61.6224
4336	61.5392
4332	61.7223
4328	61.8301
4324	61.694
4320	61.5628
4316	61.5438
4312	61.6736
4308	61.8191
4304	61.7677
4300	61.6325
4296	61.4996
4292	61.5353
4288	61.6495
4284	61.6019
4280	61.5351
4276	61.5319
4272	61.407
4268	61.2531
4264	61.3565
4260	61.418
4256	61.2446
4252	61.2221
4248	61.3399
4244	61.4046
4240	61.5401
4236	61.7127
4232	61.655
4228	61.4803
4224	61.5817
4220	61.7384
4216	61.7237
4212	61.7055
4208	61.6961
4204	61.6795
4200	61.6205
4196	61.5463
4192	61.34
4188	60.9561
4184	60.6256
4180	60.734
4176	61.402
4172	61.9522
4168	61.9566
4164	61.8675
4160	61.9639
4156	61.7964
4152	61.4154
4148	61.2968
4144	61.409
4140	61.5302
4136	61.6164
4132	61.8364
4128	62.0379
4124	61.9728
4120	61.7946
4116	61.6423
4112	61.3898
4108	61.1658
4104	61.2757
4100	61.5044
4096	61.5812
4092	61.676
4088	61.7456
4084	61.646
4080	61.6149
4076	61.6471
4072	61.5229
4068	61.3369
4064	61.3331
4060	61.5394
4056	61.6782
4052	61.5595
4048	61.4047
4044	61.4367
4040	61.5084
4036	61.5437
4032	61.5917
4028	61.6377
4024	61.6639
4020	61.6613
4016	61.6677
4012	61.6257
4008	61.5005
4004	61.4129
4000	61.4228
3996	61.4339
3992	61.3571
3988	61.2559
3984	61.134
3980	60.9465
3976	60.7781
3972	60.7625
3968	60.9007
3964	60.9787
3960	60.9877
3956	61.0313
3952	60.9396
3948	60.842
3944	60.9277
3940	60.948
3936	60.8916
3932	60.9084
3928	60.9688
3924	61.0154
3920	60.9917
3916	60.9308
3912	60.8826
3908	60.8734
3904	60.9297
3900	60.9733
3896	60.96
3892	60.9249
3888	60.9153
3884	60.9421
3880	60.9282
3876	60.9141
3872	60.9317
3868	60.8838
3864	60.8207
3860	60.909
3856	61.0684
3852	61.051
3848	60.9747
3844	61.0185
3840	61.0986
3836	61.1229
3832	60.944
3828	60.6607
3824	60.5528
3820	60.6565
3816	60.6608
3812	60.4956
3808	60.5313
3804	60.6836
3800	60.6434
3796	60.4298
3792	60.2838
3788	60.3645
3784	60.394
3780	60.2591
3776	60.2392
3772	60.3997
3768	60.4888
3764	60.4028
3760	60.3792
3756	60.5385
3752	60.7269
3748	60.7672
3744	60.6286
3740	60.5149
3736	60.575
3732	60.5711
3728	60.4085
3724	60.3292
3720	60.4041
3716	60.4993
3712	60.4478
3708	60.2374
3704	60.0806
3700	60.0168
3696	60.0216
3692	60.1527
3688	60.1561
3684	60.029
3680	60.153
3676	60.3396
3672	60.2038
3668	59.9154
3664	59.7557
3660	59.7495
3656	59.8286
3652	59.9486
3648	59.952
3644	59.7942
3640	59.7739
3636	59.9501
3632	60.0385
3628	59.8673
3624	59.6271
3620	59.5881
3616	59.6747
3612	59.7095
3608	59.5795
3604	59.4328
3600	59.46
3596	59.5249
3592	59.6089
3588	59.6884
3584	59.5876
3580	59.4354
3576	59.3584
3572	59.2926
3568	59.2839
3564	59.3215
3560	59.375
3556	59.3626
3552	59.1909
3548	59.0359
3544	59.0011
3540	58.9873
3536	58.9493
3532	58.9881
3528	59.0652
3524	59.0311
3520	58.9525
3516	58.899
3512	58.7358
3508	58.511
3504	58.54
3500	58.6801
3496	58.6881
3492	58.6859
3488	58.7237
3484	58.8
3480	58.849
3476	58.8525
3472	58.8708
3468	58.852
3464	58.7644
3460	58.6524
3456	58.6105
3452	58.6305
3448	58.5996
3444	58.5315
3440	58.4651
3436	58.3858
3432	58.3309
3428	58.3203
3424	58.2653
3420	58.124
3416	58.0302
3412	58.0637
3408	58.1295
3404	58.1759
3400	58.1757
3396	58.11
3392	58.0483
3388	57.9684
3384	57.8543
3380	57.815
3376	57.8589
3372	57.9232
3368	57.986
3364	57.955
3360	57.8393
3356	57.7768
3352	57.7962
3348	57.8174
3344	57.7409
3340	57.6689
3336	57.7315
3332	57.7885
3328	57.7391
3324	57.6496
3320	57.538
3316	57.4758
3312	57.5132
3308	57.468
3304	57.3622
3300	57.335
3296	57.3499
3292	57.3806
3288	57.3326
3284	57.2772
3280	57.3222
3276	57.3318
3272	57.2609
3268	57.1841
3264	57.1141
3260	57.009
3256	56.9075
3252	56.9139
3248	57.0272
3244	57.0284
3240	56.8262
3236	56.6673
3232	56.6923
3228	56.8191
3224	56.8762
3220	56.7994
3216	56.6905
3212	56.665
3208	56.7377
3204	56.7129
3200	56.5363
3196	56.387
3192	56.3978
3188	56.5044
3184	56.5331
3180	56.4626
3176	56.303
3172	56.1497
3168	56.1953
3164	56.2976
3160	56.2647
3156	56.2318
3152	56.2879
3148	56.3415
3144	56.2702
3140	56.0803
3136	55.9492
3132	55.9316
3128	55.9439
3124	55.974
3120	56.0286
3116	56.078
3112	55.9819
3108	55.8027
3104	55.7398
3100	55.6792
3096	55.5907
3092	55.6162
3088	55.7577
3084	55.8396
3080	55.7237
3076	55.5378
3072	55.4801
3068	55.5671
3064	55.6036
3060	55.5462
3056	55.501
3052	55.4666
3048	55.4139
3044	55.2924
3040	55.1753
3036	55.1672
3032	55.2383
3028	55.2874
3024	55.2788
3020	55.238
3016	55.144
3012	55.0537
3008	54.938
3004	54.7771
3000	54.7588
2996	54.8432
2992	54.8765
2988	54.8541
2984	54.7723
2980	54.6994
2976	54.6689
2972	54.6616
2968	54.6005
2964	54.4757
2960	54.4051
2956	54.3013
2952	54.1497
2948	54.1008
2944	54.1434
2940	54.2094
2936	54.2424
2932	54.2025
2928	54.0719
2924	53.9018
2920	53.8833
2916	53.9485
2912	53.8979
2908	53.8069
2904	53.7789
2900	53.8349
2896	53.871
2892	53.7667
2888	53.636
2884	53.6171
2880	53.6363
2876	53.6037
2872	53.5744
2868	53.5691
2864	53.5438
2860	53.4699
2856	53.4099
2852	53.3851
2848	53.3324
2844	53.3022
2840	53.3125
2836	53.2951
2832	53.2271
2828	53.18
2824	53.1879
2820	53.1615
2816	53.0821
2812	53.0316
2808	53.0013
2804	52.9356
2800	52.9089
2796	52.896
2792	52.8306
2788	52.7435
2784	52.6877
2780	52.6583
2776	52.6088
2772	52.5838
2768	52.5441
2764	52.4447
2760	52.3761
2756	52.3708
2752	52.3988
2748	52.3992
2744	52.3766
2740	52.3087
2736	52.1987
2732	52.1749
2728	52.181
2724	52.0864
2720	51.9619
2716	51.8781
2712	51.7995
2708	51.7598
2704	51.7283
2700	51.6955
2696	51.7391
2692	51.8025
2688	51.7906
2684	51.6672
2680	51.4968
2676	51.3946
2672	51.3551
2668	51.3098
2664	51.2607
2660	51.1942
2656	51.1398
2652	51.1427
2648	51.0848
2644	50.9647
2640	50.9294
2636	50.9395
2632	50.9408
2628	50.9827
2624	50.966
2620	50.8282
2616	50.6842
2612	50.5987
2608	50.5884
2604	50.6375
2600	50.6413
2596	50.5702
2592	50.4842
2588	50.3982
2584	50.337
2580	50.3059
2576	50.2551
2572	50.1788
2568	50.1203
2564	50.0825
2560	50.0807
2556	50.0785
2552	49.9882
2548	49.9391
2544	49.9851
2540	49.9743
2536	49.8863
2532	49.8274
2528	49.822
2524	49.7749
2520	49.6289
2516	49.5006
2512	49.4372
2508	49.376
2504	49.3732
2500	49.3467
2496	49.2888
2492	49.2758
2488	49.1717
2484	49.0539
2480	49.0364
2476	49.0545
2472	49.0692
2468	49.051
2464	49.0052
2460	48.9081
2456	48.7828
2452	48.7535
2448	48.8054
2444	48.8285
2440	48.8176
2436	48.7276
2432	48.5288
2428	48.3914
2424	48.4217
2420	48.486
2416	48.414
2412	48.2582
2408	48.1588
2404	48.0879
2400	48.0188
2396	48.014
2392	48.0186
2388	47.9768
2384	47.9005
2380	47.7877
2376	47.7391
2372	47.7577
2368	47.7588
2364	47.7495
2360	47.712
2356	47.6509
2352	47.5692
2348	47.4273
2344	47.2785
2340	47.2226
2336	47.2619
2332	47.2774
2328	47.1992
2324	47.117
2320	47.0506
2316	47.0076
2312	47.0283
2308	47.0271
2304	46.9964
2300	46.9466
2296	46.8336
2292	46.699
2288	46.6204
2284	46.605
2280	46.5694
2276	46.4951
2272	46.4504
2268	46.4429
2264	46.433
2260	46.3765
2256	46.2908
2252	46.2491
2248	46.1965
2244	46.0863
2240	46.0149
2236	45.9798
2232	45.9209
2228	45.8693
2224	45.8411
2220	45.8067
2216	45.7472
2212	45.7104
2208	45.685
2204	45.5865
2200	45.4342
2196	45.3109
2192	45.2675
2188	45.2733
2184	45.2568
2180	45.1816
2176	45.104
2172	45.0494
2168	44.9868
2164	44.9599
2160	44.9319
2156	44.9347
2152	44.9201
2148	44.7691
2144	44.7193
2140	44.8294
2136	44.8086
2132	44.6228
2128	44.4828
2124	44.4261
2120	44.4165
2116	44.4019
2112	44.3426
2108	44.3166
2104	44.2815
2100	44.1693
2096	44.0557
2092	44.0102
2088	43.9835
2084	43.96
2080	43.9078
2076	43.7554
2072	43.6358
2068	43.6325
2064	43.5745
2060	43.4433
2056	43.3944
2052	43.4139
2048	43.4385
2044	43.4166
2040	43.3184
2036	43.2162
2032	43.1508
2028	43.1265
2024	43.1169
2020	43.0697
2016	43.0096
2012	42.969
2008	42.9334
2004	42.8243
2000	42.6778
1996	42.6584
1992	42.7142
1988	42.7038
1984	42.6284
1980	42.542
1976	42.4436
1972	42.3741
1968	42.3719
1964	42.3237
1960	42.2097
1956	42.1399
1952	42.1011
1948	42.0577
1944	42.0241
1940	41.9482
1936	41.8593
1932	41.8534
1928	41.8594
1924	41.8154
1920	41.7378
1916	41.6401
1912	41.5801
1908	41.5227
1904	41.4117
1900	41.334
1896	41.315
1892	41.2999
1888	41.2365
1884	41.1122
1880	41.0235
1876	40.9977
1872	40.9652
1868	40.8894
1864	40.8286
1860	40.8014
1856	40.7282
1852	40.6666
1848	40.7057
1844	40.7243
1840	40.6149
1836	40.4846
1832	40.4319
1828	40.4065
1824	40.362
1820	40.3268
1816	40.3041
1812	40.2153
1808	40.0367
1804	39.9075
1800	39.9273
1796	39.97
1792	39.9062
1788	39.8449
1784	39.8597
1780	39.8541
1776	39.8096
1772	39.7286
1768	39.6081
1764	39.5415
1760	39.4895
1756	39.354
1752	39.2409
1748	39.2308
1744	39.2271
1740	39.2056
1736	39.1996
1732	39.151
1728	39.0455
1724	38.9693
1720	38.9879
1716	38.9201
1712	38.7222
1708	38.6448
1704	38.7061
1700	38.7889
1696	38.7596
1692	38.6291
1688	38.6044
1684	38.587
1680	38.4286
1676	38.2791
1672	38.2115
1668	38.1792
1664	38.1454
1660	38.1407
1656	38.2397
1652	38.3111
1648	38.1713
1644	37.9129
1640	37.7731
1636	37.7773
1632	37.7179
1628	37.601
1624	37.5576
1620	37.5748
1616	37.5558
1612	37.4308
1608	37.283
1604	37.1716
1600	37.0939
1596	37.0481
1592	36.979
1588	36.8828
1584	36.8418
1580	36.8968
1576	36.9569
1572	36.8807
1568	36.7486
1564	36.7883
1560	36.9162
1556	36.8536
1552	36.6356
1548	36.4659
1544	36.4559
1540	36.493
1536	36.3938
1532	36.2415
1528	36.1955
1524	36.2621
1520	36.2813
1516	36.231
1512	36.2772
1508	36.3088
1504	36.1694
1500	36.0039
1496	35.8688
1492	35.7279
1488	35.6131
1484	35.5134
1480	35.4587
1476	35.4537
1472	35.4284
1468	35.3964
1464	35.4059
1460	35.4113
1456	35.3789
1452	35.3026
1448	35.1273
1444	34.9263
1440	34.887
1436	34.9223
1432	34.8518
1428	34.7417
1424	34.7239
1420	34.7646
1416	34.7087
1412	34.55
1408	34.4159
1404	34.3877
1400	34.4084
1396	34.3849
1392	34.3442
1388	34.2492
1384	34.115
1380	34.0539
1376	34.0571
1372	34.0649
1368	33.9933
1364	33.885
1360	33.824
1356	33.7809
1352	33.76
1348	33.7044
1344	33.5647
1340	33.447
1336	33.3984
1332	33.3436
1328	33.3042
1324	33.2873
1320	33.2464
1316	33.1934
1312	33.1024
1308	33.0286
1304	33.0135
1300	33.0027
1296	32.9838
1292	32.9168
1288	32.7999
1284	32.6654
1280	32.5651
1276	32.5342
1272	32.487
1268	32.4682
1264	32.5014
1260	32.4363
1256	32.3071
1252	32.2432
1248	32.2456
1244	32.1892
1240	32.0552
1236	32.0231
1232	32.0385
1228	31.9649
1224	31.9742
1220	32.0391
1216	31.9373
1212	31.7989
1208	31.7966
1204	31.7836
1200	31.6465
1196	31.5209
1192	31.467
1188	31.4214
1184	31.3685
1180	31.2912
1176	31.1933
1172	31.1572
1168	31.1995
1164	31.1946
1160	31.0988
1156	31.0027
1152	30.9819
1148	30.9824
1144	30.9414
1140	30.8821
1136	30.7532
1132	30.6364
1128	30.6315
1124	30.5889
1120	30.4886
1116	30.4394
1112	30.4255
1108	30.3508
1104	30.172
1100	29.9726
1096	29.9169
1092	30.0908
1088	30.2681
1084	30.1337
1080	29.8187
1076	29.6785
1072	29.7157
1068	29.7362
1064	29.7493
1060	29.7929
1056	29.7692
1052	29.673
1048	29.5686
1044	29.4244
1040	29.2643
1036	29.175
1032	29.1532
1028	29.1318
1024	29.0186
1020	28.9415
1016	28.9885
1012	28.9513
1008	28.8319
1004	28.8273
1000	28.9063
996	 28.8277
992	 28.5861
988	 28.3704
984	 28.2684
980	 28.2709
976	 28.253
972	 28.1612
968	 28.0975
964	 28.1676
960	 28.2099
956	 27.9844
952	 27.7046
948	 27.5999
944	 27.614
940	 27.6971
936	 27.756
932	 27.7017
928	 27.6427
924	 27.637
920	 27.6115
916	 27.5735
912	 27.4605
908	 27.0727
904	 26.516
900	 26.4026
896	 26.8811
892	 27.2591
888	 27.1463
884	 26.8168
880	 26.7076
876	 26.8549
872	 26.9268
868	 26.8727
864	 26.6402
860	 26.2635
856	 26.0511
852	 25.9973
848	 25.7845
844	 25.5025
840	 25.4627
836	 25.5304
832	 25.5137
828	 25.4663
824	 25.5025
820	 25.5427
816	 25.4218
812	 25.2942
808	 25.2845
804	 25.1998
800	 24.9933
796	 24.9032
792	 24.9078
788	 24.975
784	 25.0672
780	 24.937
776	 24.7239
772	 24.6055
768	 24.5174
764	 24.4982
760	 24.4844
756	 24.37
752	 24.2039
748	 24.0556
744	 24.1034
740	 24.1426
736	 23.9252
732	 23.8298
728	 23.8046
724	 23.4851
720	 23.0791
716	 22.95
712	 23.0011
708	 22.9706
704	 22.9866
700	 23.1471
696	 23.1391
692	 22.8719
688	 22.594
684	 22.4234
680	 22.2968
676	 22.1312
672	 22.047
668	 22.0511
664	 22.0122
660	 21.9979
656	 21.8988
652	 21.5758
648	 21.2605
644	 21.1432
640	 21.1228
636	 21.0584
632	 21.0777
628	 21.2657
624	 21.2923
620	 20.974
616	 20.5905
612	 20.3331
608	 20.2482
604	 20.3799
600	 20.4203
596	 20.1425
592	 19.8574
588	 19.7305
584	 19.5215
580	 19.1175
576	 18.6708
572	 18.5448
568	 18.7716
564	 18.8227
560	 18.5791
556	 18.3714
552	 18.204
548	 18.0959
544	 18.1069
540	 18.1469
536	 18.0512
532	 17.7148
528	 17.5286
524	 17.4208
520	 16.6565
516	 15.9018
512	 16.1555
508	 16.5598
504	 16.4671
500	 16.328
496	 16.1363
492	 15.7672
488	 15.5615
484	 15.7315
480	 15.6825
476	 15.2271
472	 14.9986
468	 14.8935
464	 14.6246
460	 14.245
456	 13.88
452	 13.8674
448	 14.1635
444	 14.5213
440	 14.7012
436	 14.4603
432	 14.3057
428	 14.1346
424	 13.6074
420	 12.9388
416	 11.9002
412	 12.8897
408	 17.3524
404	 23.403
400	 28.1065
396	 25.8024
392	 20.2345
388	 17.3904
384	 19.8414
380	 34.0804
376	 51.5233
372	 56.4332
370	 54.7353