File: Bakgrunnsmateriale/MATLAB/FTIR/ftir_data/subBb/Mapping_121/C-4040-8_t11.asc
PE IR       SPECTRUM    SPECTRUM    ASCII       PEDS        1.60
  -1
C-A92E~1.ASC
17/03/27
15:21:42.00
17/03/27
15:22:09.00
tln
$C-4040-8_t0011$<tbV0>[-13.0,-13.0,8.0,0.0,27,1,0]
27.028
64

2002,4.07
MIRTGS : RIGHTBACK : INTERNAL 2
MIR : ON : INTERNAL 2
OPTKBR

0.200000
8
8.000000
FILLER
RATIO
SPECTRUM
UNLOCKED 256

DOUBLE
64
COMBINED
1
0
0

0.002000
RATIO

1
0
TRUE
51149
0
LEFT NOT FITTED RIGHT NOT FITTED 0
NONE
NONE
15600
12
4.427000
51148
TRUE
1 0 8 72 0 0 0 0

15798

#HDR
-1
-1
#GR
µM
%T
2.38419e-05
0.0
2.000000
0.002000
12515
8
86.5067
40.4221
#DATA
2.000000	 64.5423
2.018000	 64.3132
2.036000	 65.456
2.054000	 64.8232
2.072000	 64.5757
2.090000	 65.0282
2.108000	 65.198
2.126000	 64.788
2.144000	 64.9794
2.162000	 65.1027
2.180000	 64.7442
2.198000	 64.4503
2.216000	 64.4541
2.234000	 64.863
2.252000	 67.5837
2.270000	 61.9404
2.288000	 64.9058
2.306000	 64.9226
2.324000	 64.2163
2.342000	 64.4229
2.360000	 64.7154
2.378000	 64.6064
2.396000	 64.8942
2.414000	 64.8945
2.432000	 65.3168
2.450000	 65.0649
2.468000	 65.2573
2.486000	 65.1917
2.504000	 65.1824
2.522000	 65.0115
2.540000	 64.7683
2.558000	 65.2227
2.576000	 64.9863
2.594000	 65.3115
2.612000	 65.0114
2.630000	 65.3384
2.648000	 64.911
2.666000	 65.4495
2.684000	 65.1259
2.702000	 65.2349
2.720000	 65.4054
2.738000	 65.3578
2.756000	 65.2138
2.774000	 64.8782
2.792000	 64.9965
2.810000	 65.1751
2.828000	 64.8915
2.846000	 64.7562
2.864000	 64.6399
2.882000	 65.0338
2.900000	 65.0145
2.918000	 64.8297
2.936000	 64.8614
2.954000	 64.8151
2.972000	 64.8678
2.990000	 64.7006
3.008000	 64.7692
3.026000	 64.8147
3.044000	 64.7416
3.062000	 64.8869
3.080000	 64.7547
3.098000	 64.7912
3.116000	 64.6478
3.134000	 64.7369
3.152000	 64.6097
3.170000	 65.004
3.188000	 64.8013
3.206000	 64.988
3.224000	 65.0173
3.242000	 64.7966
3.260000	 64.7788
3.278000	 64.8388
3.296000	 64.6482
3.314000	 64.9735
3.332000	 64.8294
3.350000	 64.8038
3.368000	 64.6416
3.386000	 64.4783
3.404000	 64.6688
3.422000	 64.4942
3.440000	 64.5513
3.458000	 64.4668
3.476000	 64.493
3.494000	 64.6769
3.512000	 64.5801
3.530000	 64.8093
3.548000	 64.8051
3.566000	 64.6716
3.584000	 64.6574
3.602000	 64.6821
3.620000	 64.6985
3.638000	 64.6937
3.656000	 64.7001
3.674000	 64.6032
3.692000	 64.6749
3.710000	 64.7653
3.728000	 64.7177
3.746000	 64.6893
3.764000	 64.5399
3.782000	 64.6128
3.800000	 64.6205
3.818000	 64.51
3.836000	 64.4732
3.854000	 64.5643
3.872000	 64.5147
3.890000	 64.6102
3.908000	 64.5961
3.926000	 64.4699
3.944000	 64.5045
3.962000	 64.499
3.980000	 64.599
3.998000	 64.4616
4.016000	 64.4994
4.034000	 64.388
4.052000	 64.5704
4.070000	 64.608
4.088000	 64.5298
4.106000	 64.3407
4.124000	 64.6006
4.141999	 64.3956
4.160000	 64.348
4.178000	 64.5162
4.196000	 64.5173
4.214000	 64.534
4.232000	 64.5396
4.250000	 64.3633
4.268000	 64.4151
4.286000	 64.542
4.304000	 64.502
4.322000	 64.4718
4.340000	 64.4754
4.358000	 64.4025
4.375999	 64.3112
4.394000	 64.4049
4.412000	 64.3815
4.430000	 64.3575
4.448000	 64.3547
4.466000	 64.2845
4.484000	 64.322
4.502000	 64.2379
4.520000	 64.3998
4.538000	 64.3999
4.556000	 64.3571
4.574000	 64.2197
4.592000	 64.2649
4.609999	 64.349
4.628000	 64.3545
4.646000	 64.2699
4.664000	 64.2559
4.682000	 64.3179
4.700000	 64.1853
4.718000	 64.2409
4.736000	 64.243
4.754000	 64.2246
4.772000	 64.2654
4.790000	 64.1486
4.808000	 64.3336
4.826000	 64.2384
4.843999	 64.2191
4.862000	 64.2128
4.880000	 64.1541
4.898000	 64.206
4.916000	 64.1838
4.934000	 64.1516
4.952000	 64.0378
4.970000	 64.0885
4.988000	 64.0849
5.006000	 64.1506
5.024000	 64.1407
5.042000	 64.0756
5.060000	 64.1136
5.077999	 64.0849
5.096000	 63.9952
5.114000	 64.0373
5.132000	 64.0668
5.150000	 64.0659
5.168000	 64.0723
5.186000	 64.0748
5.204000	 64.2156
5.222000	 64.194
5.240000	 64.16
5.258000	 64.104
5.276000	 64.1141
5.294000	 64.155
5.312000	 64.1467
5.330000	 64.1293
5.348000	 64.1116
5.366000	 64.0854
5.384000	 64.0807
5.402000	 64.0694
5.420000	 64.1249
5.438000	 63.9769
5.456000	 64.0137
5.474000	 64.1711
5.492000	 64.0949
5.510000	 64.0384
5.528000	 63.9418
5.546000	 63.8256
5.564000	 63.9548
5.582000	 64.0319
5.600000	 64.0053
5.618000	 64.0273
5.636000	 64.0394
5.654000	 64.0283
5.672000	 63.9552
5.690000	 63.9354
5.708000	 63.9104
5.726000	 63.9007
5.744000	 63.866
5.762000	 63.8824
5.780000	 63.8288
5.798000	 63.8778
5.816000	 64.0306
5.834000	 64.0098
5.852000	 63.8883
5.870000	 64.1239
5.888000	 64.2381
5.906000	 63.9518
5.923999	 64.0268
5.942000	 64.1289
5.960000	 64.0018
5.978000	 64.0956
5.996000	 64.0456
6.014000	 63.8898
6.032000	 64.1184
6.050000	 64.4335
6.068000	 64.2818
6.086000	 64.0517
6.104000	 64.0075
6.122000	 63.9509
6.140000	 63.8249
6.158000	 63.8788
6.176000	 63.8547
6.194000	 63.7143
6.212000	 63.675
6.230000	 63.776
6.248000	 63.7324
6.266000	 63.6683
6.284000	 63.6777
6.302000	 63.7012
6.320000	 63.7213
6.338000	 63.8276
6.356000	 63.8428
6.374000	 63.7663
6.392000	 63.8854
6.410000	 64.1031
6.428000	 63.9534
6.446000	 63.7165
6.464000	 63.7879
6.482000	 64.0763
6.500000	 64.0992
6.518000	 63.8562
6.536000	 63.8159
6.554000	 63.9136
6.572000	 63.9505
6.590000	 63.8622
6.608000	 63.851
6.626000	 63.9975
6.644000	 64.0104
6.662000	 63.8428
6.680000	 63.6773
6.698000	 63.6642
6.716000	 63.7383
6.734000	 63.6844
6.752000	 63.617
6.770000	 63.6834
6.788000	 63.7425
6.806000	 63.7216
6.824000	 63.7256
6.842000	 63.7996
6.860000	 63.884
6.878000	 63.8268
6.896000	 63.6609
6.914000	 63.569
6.932000	 63.6026
6.950000	 63.7151
6.968000	 63.7368
6.986000	 63.6175
7.004000	 63.5101
7.022000	 63.5178
7.040000	 63.5737
7.058000	 63.5653
7.076000	 63.5279
7.094000	 63.5114
7.112000	 63.5061
7.130000	 63.5329
7.148000	 63.5558
7.166000	 63.5414
7.184000	 63.5346
7.202000	 63.5247
7.220000	 63.4644
7.238000	 63.3813
7.256000	 63.3644
7.274000	 63.4326
7.292000	 63.4916
7.310000	 63.4923
7.328000	 63.4754
7.346000	 63.439
7.364000	 63.3849
7.382000	 63.3812
7.400000	 63.4279
7.418000	 63.4518
7.436000	 63.439
7.454000	 63.4171
7.472000	 63.3819
7.490000	 63.3226
7.508000	 63.2581
7.526000	 63.2292
7.544000	 63.2661
7.562000	 63.3581
7.580000	 63.4276
7.598000	 63.3828
7.616000	 63.2463
7.634000	 63.1518
7.652000	 63.1783
7.670000	 63.2545
7.688000	 63.268
7.706000	 63.2158
7.724000	 63.1814
7.742000	 63.2017
7.760000	 63.2216
7.778000	 63.1832
7.796000	 63.1059
7.814000	 63.0405
7.832000	 63.0068
7.850000	 63.0069
7.868000	 63.0502
7.886000	 63.1342
7.904000	 63.2071
7.922000	 63.2111
7.940000	 63.1584
7.958000	 63.1025
7.976000	 63.0542
7.994000	 63.0033
8.012000	 62.9811
8.030000	 63.0096
8.048000	 63.0429
8.065999	 63.0377
8.084000	 63.0218
8.102000	 63.0416
8.120000	 63.0934
8.138000	 63.1487
8.155999	 63.1935
8.173999	 63.2083
8.192000	 63.1643
8.210000	 63.0689
8.228000	 62.9836
8.246000	 62.9634
8.263999	 63.0071
8.282000	 63.0814
8.300000	 63.153
8.318000	 63.1909
8.336000	 63.1776
8.353999	 63.1348
8.372000	 63.1041
8.390000	 63.0947
8.408000	 63.0822
8.426000	 63.0518
8.443999	 63.0165
8.462000	 62.9995
8.480000	 63.0149
8.498000	 63.0572
8.516000	 63.1047
8.533999	 63.1386
8.552000	 63.1618
8.570000	 63.1824
8.588000	 63.189
8.606000	 63.1614
8.624000	 63.0985
8.641999	 63.0219
8.660000	 62.9629
8.678000	 62.9458
8.696000	 62.9666
8.714000	 62.9902
8.731999	 62.9798
8.750000	 62.9321
8.768000	 62.8747
8.786000	 62.8327
8.804000	 62.8068
8.821999	 62.7907
8.840000	 62.7962
8.858000	 62.8432
8.876000	 62.9286
8.894000	 63.0175
8.911999	 63.0695
8.930000	 63.0648
8.948000	 63.0102
8.966000	 62.9287
8.984000	 62.8457
9.001999	 62.7802
9.020000	 62.7437
9.038000	 62.7397
9.056000	 62.7591
9.074000	 62.781
9.092000	 62.7888
9.109999	 62.7918
9.128000	 62.8209
9.146000	 62.8949
9.164000	 62.9877
9.182000	 63.0429
9.199999	 63.0239
9.218000	 62.9473
9.236000	 62.8653
9.254000	 62.8206
9.272000	 62.8206
9.289999	 62.85
9.308000	 62.8919
9.326000	 62.9324
9.344000	 62.9559
9.362000	 62.9488
9.379999	 62.9156
9.398000	 62.8814
9.416000	 62.8715
9.434000	 62.8846
9.452000	 62.8917
9.469999	 62.8644
9.488000	 62.8062
9.506000	 62.7532
9.524000	 62.7449
9.542000	 62.7911
9.560000	 62.8656
9.577999	 62.9282
9.596000	 62.9509
9.614000	 62.9272
9.632000	 62.867
9.650000	 62.7912
9.667999	 62.7287
9.686000	 62.7078
9.704000	 62.7421
9.722000	 62.8205
9.740000	 62.912
9.757999	 62.9817
9.776000	 63.0057
9.794000	 62.9795
9.812000	 62.9186
9.830000	 62.8523
9.847999	 62.8115
9.866000	 62.8122
9.884000	 62.8428
9.902000	 62.8699
9.920000	 62.862
9.937999	 62.8166
9.956000	 62.7651
9.974000	 62.7474
9.992000	 62.7769
10.01	62.8289
10.028	62.8589
10.046	62.8398
10.064	62.7836
10.082	62.7279
10.1	62.7055
10.118	62.7198
10.136	62.7451
10.154	62.7501
10.172	62.7186
10.19	62.6571
10.208	62.5855
10.226	62.5247
10.244	62.49
10.262	62.4879
10.28	62.5153
10.298	62.5595
10.316	62.5991
10.334	62.6145
10.352	62.5988
10.37	62.563
10.388	62.5303
10.406	62.5204
10.424	62.537
10.442	62.5655
10.46	62.5863
10.478	62.5874
10.496	62.5718
10.514	62.5517
10.532	62.5396
10.55	62.5398
10.568	62.5497
10.586	62.5626
10.604	62.572
10.622	62.5717
10.64	62.5548
10.658	62.5169
10.676	62.4587
10.694	62.3885
10.712	62.3182
10.73	62.2558
10.748	62.2023
10.766	62.1559
10.784	62.1186
10.802	62.0999
10.82	62.1108
10.838	62.1552
10.856	62.2234
10.874	62.2934
10.892	62.346
10.91	62.3763
10.928	62.397
10.946	62.4282
10.964	62.4813
10.982	62.5516
11	62.6212
11.018	62.6706
11.036	62.6897
11.054	62.6801
11.072	62.6542
11.09	62.6307
11.108	62.6276
11.126	62.6566
11.144	62.7167
11.162	62.7901
11.18	62.8467
11.198	62.8497
11.216	62.7743
11.234	62.621
11.252	62.4214
11.27	62.2262
11.288	62.0903
11.306	62.0449
11.324	62.0898
11.342	62.1951
11.36	62.3174
11.378	62.4156
11.396	62.4674
11.414	62.4705
11.432	62.4384
11.45	62.3881
11.468	62.3336
11.486	62.2806
11.504	62.2299
11.522	62.1816
11.54	62.1383
11.558	62.1057
11.576	62.0903
11.594	62.0966
11.612	62.1234
11.63	62.1646
11.648	62.2113
11.666	62.2546
11.684	62.2883
11.702	62.3101
11.72	62.3214
11.738	62.3248
11.756	62.322
11.774	62.3135
11.792	62.2988
11.81	62.2771
11.828	62.2482
11.846	62.2133
11.864	62.1741
11.882	62.1325
11.9	62.0899
11.918	62.0476
11.936	62.0071
11.954	61.9702
11.972	61.9393
11.99	61.9172
12.008	61.9066
12.026	61.9087
12.044	61.9222
12.062	61.9426
12.08	61.9631
12.098	61.976
12.116	61.9768
12.134	61.9654
12.152	61.9468
12.17	61.9282
12.188	61.9162
12.206	61.9139
12.224	61.9201
12.242	61.9306
12.26	61.9409
12.278	61.948
12.296	61.9516
12.314	61.9537
12.332	61.957
12.35	61.9624
12.368	61.9685
12.386	61.9717
12.404	61.9677
12.422	61.9537
12.44	61.93
12.458	61.8999
12.476	61.8686
12.494	61.8414
12.512	61.8224
12.53	61.8132
12.548	61.8133
12.566	61.8202
12.584	61.8309
12.602	61.8427
12.62	61.8532
12.638	61.8615
12.656	61.8675
12.674	61.872
12.692	61.8766
12.71	61.8828
12.728	61.8919
12.746	61.9043
12.764	61.9197
12.782	61.9367
12.8	61.9534
12.818	61.9672
12.836	61.9764
12.854	61.9799
12.872	61.978
12.89	61.9709
12.908	61.9587
12.926	61.9404
12.944	61.9144
12.962	61.8786
12.98	61.8318
12.998	61.7744
13.016	61.7097
13.034	61.6437
13.052	61.5848
13.07	61.5422
13.088	61.5242
13.106	61.5369
13.124	61.5819
13.142	61.6556
13.16	61.7498
13.178	61.8524
13.196	61.9496
13.214	62.0284
13.232	62.0797
13.25	62.0995
13.268	62.0894
13.286	62.0567
13.304	62.012
13.322	61.9671
13.34	61.932
13.358	61.9123
13.376	61.9079
13.394	61.9139
13.412	61.9216
13.43	61.9214
13.448	61.9053
13.466	61.8691
13.484	61.8131
13.502	61.742
13.52	61.6635
13.538	61.5865
13.556	61.5185
13.574	61.465
13.592	61.4277
13.61	61.4052
13.628	61.3935
13.646	61.3866
13.664	61.3785
13.682	61.3636
13.7	61.3388
13.718	61.3029
13.736	61.2582
13.754	61.2081
13.772	61.1584
13.79	61.1161
13.808	61.0878
13.826	61.0789
13.844	61.092
13.862	61.1268
13.88	61.1794
13.898	61.2429
13.916	61.3087
13.934	61.367
13.952	61.4095
13.97	61.4302
13.988	61.4269
14.006	61.4008
14.024	61.3566
14.042	61.3018
14.06	61.2445
14.078	61.1925
14.096	61.1519
14.114	61.1266
14.132	61.118
14.15	61.1252
14.168	61.1454
14.186	61.1746
14.204	61.2086
14.222	61.2437
14.24	61.2769
14.258	61.3061
14.276	61.3298
14.294	61.347
14.312	61.3567
14.33	61.3577
14.348	61.349
14.366	61.3298
14.384	61.2996
14.402	61.2591
14.42	61.2099
14.438	61.155
14.456	61.0982
14.474	61.0435
14.492	60.9953
14.51	60.9569
14.528	60.9305
14.546	60.9162
14.564	60.9129
14.582	60.9182
14.6	60.9286
14.618	60.9403
14.636	60.95
14.654	60.9557
14.672	60.9566
14.69	60.953
14.708	60.9461
14.726	60.9374
14.744	60.9287
14.762	60.9212
14.78	60.9155
14.798	60.9114
14.816	60.9081
14.834	60.9046
14.852	60.8997
14.87	60.8927
14.888	60.8836
14.906	60.8729
14.924	60.8616
14.942	60.851
14.96	60.8428
14.978	60.838
14.996	60.8373
15.014	60.841
15.032	60.8489
15.05	60.8602
15.068	60.8742
15.086	60.89
15.104	60.9068
15.122	60.9239
15.14	60.9406
15.158	60.9563
15.176	60.9703
15.194	60.9818
15.212	60.9898
15.23	60.9934
15.248	60.9918
15.266	60.9847
15.284	60.9722
15.302	60.9552
15.32	60.9354
15.338	60.9146
15.356	60.8956
15.374	60.8812
15.392	60.8733
15.41	60.8731
15.428	60.8813
15.446	60.8973
15.464	60.9194
15.482	60.9459
15.5	60.9743
15.518	61.0015
15.536	61.0259
15.554	61.0461
15.572	61.0614
15.59	61.0719
15.608	61.0785
15.626	61.0819
15.644	61.083
15.662	61.0826
15.68	61.0808
15.698	61.0775
15.716	61.0724
15.734	61.0647
15.752	61.0539
15.77	61.0396
15.788	61.022
15.806	61.0019
15.824	60.9801
15.842	60.958
15.86	60.9371
15.878	60.9182
15.896	60.9023
15.914	60.8896
15.932	60.8792
15.95	60.8702
15.968	60.8612
15.986	60.8502
16.004	60.8363
16.022	60.8186
16.04	60.7971
16.058	60.773
16.076	60.7475
16.094	60.7231
16.112	60.7028
16.13	60.6887
16.148	60.6833
16.166	60.6886
16.184	60.7052
16.202	60.7334
16.22	60.7718
16.238	60.8183
16.256	60.8711
16.274	60.926
16.292	60.9797
16.31	61.0295
16.328	61.0714
16.346	61.1035
16.364	61.1242
16.382	61.1322
16.4	61.1282
16.418	61.1126
16.436	61.0872
16.454	61.0543
16.472	61.0155
16.49	60.9736
16.508	60.9301
16.526	60.8864
16.544	60.8437
16.562	60.8023
16.58	60.7624
16.598	60.7236
16.616	60.6853
16.634	60.6474
16.652	60.6093
16.67	60.5714
16.688	60.5337
16.706	60.4975
16.724	60.4636
16.742	60.4337
16.76	60.4095
16.778	60.3919
16.796	60.3825
16.814	60.3818
16.832	60.3898
16.85	60.4061
16.868	60.4294
16.886	60.4585
16.904	60.4909
16.922	60.5251
16.94	60.5589
16.958	60.5901
16.976	60.618
16.994	60.6412
17.012	60.6596
17.03	60.6734
17.048	60.6836
17.066	60.6912
17.084	60.6975
17.102	60.7039
17.12	60.7112
17.138	60.7208
17.156	60.7327
17.174	60.7474
17.192	60.7642
17.21	60.7827
17.228	60.8015
17.246	60.8195
17.264	60.8357
17.282	60.8487
17.3	60.8582
17.318	60.8632
17.336	60.8638
17.354	60.8599
17.372	60.8518
17.39	60.8395
17.408	60.8238
17.426	60.8049
17.444	60.7829
17.462	60.7585
17.48	60.7321
17.498	60.7041
17.516	60.6754
17.534	60.6464
17.552	60.6187
17.57	60.5925
17.588	60.5698
17.606	60.5511
17.624	60.5378
17.642	60.5308
17.66	60.5305
17.678	60.5372
17.696	60.5507
17.714	60.5703
17.732	60.5949
17.75	60.6236
17.768	60.6538
17.786	60.6848
17.804	60.7135
17.822	60.7393
17.84	60.7591
17.858	60.772
17.876	60.7762
17.894	60.7707
17.912	60.7547
17.93	60.7277
17.948	60.69
17.966	60.6421
17.984	60.5849
18.002	60.5201
18.02	60.4494
18.038	60.3743
18.056	60.2978
18.074	60.2208
18.092	60.147
18.11	60.0768
18.128	60.0136
18.146	59.9576
18.164	59.911
18.182	59.8737
18.2	59.8464
18.218	59.8285
18.236	59.8199
18.254	59.8187
18.272	59.8247
18.29	59.8348
18.308	59.8488
18.326	59.8632
18.344	59.8776
18.362	59.8889
18.38	59.8967
18.398	59.8987
18.416	59.8946
18.434	59.8831
18.452	59.8646
18.47	59.8389
18.488	59.8068
18.506	59.7685
18.524	59.7262
18.542	59.6804
18.56	59.6336
18.578	59.5862
18.596	59.5418
18.614	59.5005
18.632	59.4659
18.65	59.4379
18.668	59.4196
18.686	59.4107
18.704	59.4133
18.722	59.427
18.74	59.4519
18.758	59.4874
18.776	59.5323
18.794	59.5854
18.812	59.6439
18.83	59.7064
18.848	59.7695
18.866	59.8312
18.884	59.8877
18.902	59.9372
18.92	59.9758
18.938	60.0024
18.956	60.0138
18.974	60.0099
18.992	59.9891
19.01	59.9522
19.028	59.8993
19.046	59.8321
19.064	59.7524
19.082	59.6627
19.1	59.5663
19.118	59.4655
19.136	59.365
19.154	59.2663
19.172	59.1746
19.19	59.0906
19.208	59.0188
19.226	58.959
19.244	58.9143
19.262	58.8843
19.28	58.8697
19.298	58.8701
19.316	58.8843
19.334	58.9121
19.352	58.9503
19.37	58.9988
19.388	59.0537
19.406	59.1152
19.424	59.1787
19.442	59.2443
19.46	59.3078
19.478	59.3689
19.496	59.4244
19.514	59.4737
19.532	59.5147
19.55	59.5459
19.568	59.567
19.586	59.577
19.604	59.5762
19.622	59.5638
19.64	59.5408
19.658	59.5087
19.676	59.4676
19.694	59.4211
19.712	59.3687
19.73	59.3159
19.748	59.2622
19.766	59.2134
19.784	59.17
19.802	59.1361
19.82	59.1143
19.838	59.1057
19.856	59.1139
19.874	59.1384
19.892	59.1809
19.91	59.241
19.928	59.3174
19.946	59.4105
19.964	59.5152
19.982	59.6321
20	59.7549
20.018	59.8814
20.036	60.0083
20.054	60.1289
20.072	60.2437
20.09	60.3445
20.108	60.4326
20.126	60.5021
20.144	60.5529
20.162	60.5833
20.18	60.5921
20.198	60.5804
20.216	60.5485
20.234	60.4971
20.252	60.4304
20.27	60.3475
20.288	60.2548
20.306	60.1517
20.324	60.0433
20.342	59.9328
20.36	59.8211
20.378	59.7143
20.396	59.6113
20.414	59.5173
20.432	59.4321
20.45	59.3582
20.468	59.2974
20.486	59.2492
20.504	59.2152
20.522	59.1947
20.54	59.1874
20.558	59.1937
20.576	59.2115
20.594	59.2404
20.612	59.2793
20.63	59.3254
20.648	59.3795
20.666	59.4374
20.684	59.4996
20.702	59.5635
20.72	59.6272
20.738	59.6906
20.756	59.7504
20.774	59.8072
20.792	59.8581
20.81	59.9029
20.828	59.9405
20.846	59.9691
20.864	59.9891
20.882	59.9988
20.9	59.9981
20.918	59.9867
20.936	59.9637
20.954	59.9296
20.972	59.8842
20.99	59.8274
21.008	59.76
21.026	59.682
21.044	59.5941
21.062	59.4975
21.08	59.392
21.098	59.28
21.116	59.1616
21.134	59.0382
21.152	58.9126
21.17	58.7838
21.188	58.6556
21.206	58.5283
21.224	58.4032
21.242	58.2833
21.26	58.1677
21.278	58.0592
21.296	57.9582
21.314	57.8649
21.332	57.7808
21.35	57.7055
21.368	57.6392
21.386	57.5821
21.404	57.5336
21.422	57.4931
21.44	57.461
21.458	57.435
21.476	57.4144
21.494	57.3991
21.512	57.3863
21.53	57.3767
21.548	57.3685
21.566	57.3602
21.584	57.3524
21.602	57.3437
21.62	57.3339
21.638	57.3233
21.656	57.3114
21.674	57.2982
21.692	57.2848
21.71	57.2712
21.728	57.2576
21.746	57.2451
21.764	57.2335
21.782	57.2235
21.8	57.216
21.818	57.2106
21.836	57.2077
21.854	57.2078
21.872	57.2103
21.89	57.2151
21.908	57.2226
21.926	57.2312
21.944	57.2403
21.962	57.2502
21.98	57.2589
21.998	57.2665
22.016	57.2725
22.034	57.2754
22.052	57.2754
22.07	57.2724
22.088	57.2656
22.106	57.2554
22.124	57.2423
22.142	57.2259
22.16	57.207
22.178	57.1874
22.196	57.1663
22.214	57.1455
22.232	57.1273
22.25	57.1107
22.268	57.098
22.286	57.0906
22.304	57.0879
22.322	57.0916
22.34	57.1021
22.358	57.119
22.376	57.1423
22.394	57.1725
22.412	57.2082
22.43	57.2477
22.448	57.2923
22.466	57.3387
22.484	57.3845
22.502	57.4313
22.52	57.4742
22.538	57.5117
22.556	57.5446
22.574	57.5676
22.592	57.5805
22.61	57.5832
22.628	57.5718
22.646	57.5466
22.664	57.5075
22.682	57.4532
22.7	57.3832
22.718	57.2991
22.736	57.2019
22.754	57.0904
22.772	56.9678
22.79	56.8364
22.808	56.6944
22.826	56.5469
22.844	56.3967
22.862	56.2418
22.88	56.0882
22.898	55.9384
22.916	55.7905
22.934	55.6507
22.952	55.5206
22.97	55.3989
22.988	55.2903
23.006	55.1957
23.024	55.1143
23.042	55.0486
23.06	54.9993
23.078	54.9656
23.096	54.9477
23.114	54.9459
23.132	54.9596
23.15	54.987
23.168	55.0288
23.186	55.084
23.204	55.149
23.222	55.2246
23.24	55.31
23.258	55.4015
23.276	55.4998
23.294	55.6041
23.312	55.7111
23.33	55.8209
23.348	55.9334
23.366	56.0466
23.384	56.1603
23.402	56.2747
23.42	56.3887
23.438	56.502
23.456	56.6149
23.474	56.7275
23.492	56.8398
23.51	56.9518
23.528	57.0635
23.546	57.1747
23.564	57.2855
23.582	57.3964
23.6	57.5075
23.618	57.6187
23.636	57.7308
23.654	57.8444
23.672	57.9592
23.69	58.0748
23.708	58.1911
23.726	58.3087
23.744	58.4255
23.762	58.5399
23.78	58.6532
23.798	58.7635
23.816	58.8684
23.834	58.9693
23.852	59.0648
23.87	59.1524
23.888	59.2338
23.906	59.3074
23.924	59.3691
23.942	59.4197
23.96	59.459
23.978	59.4824
23.996	59.4885
24.014	59.4792
24.032	59.4509
24.05	59.4013
24.068	59.3323
24.086	59.2423
24.104	59.1298
24.122	58.9948
24.14	58.8386
24.158	58.6625
24.176	58.4646
24.194	58.2471
24.212	58.0147
24.23	57.7673
24.248	57.5043
24.266	57.2304
24.284	56.9478
24.302	56.6536
24.32	56.3534
24.338	56.0522
24.356	55.7448
24.374	55.4374
24.392	55.1389
24.41	54.8467
24.428	54.5615
24.446	54.2924
24.464	54.0423
24.482	53.8068
24.5	53.5938
24.518	53.4098
24.536	53.2508
24.554	53.1189
24.572	53.0179
24.59	52.9495
24.608	52.9109
24.626	52.8994
24.644	52.915
24.662	52.9594
24.68	53.0258
24.698	53.1086
24.716	53.2144
24.734	53.3355
24.752	53.4597
24.77	53.5869
24.788	53.7201
24.806	53.8492
24.824	53.9672
24.842	54.0801
24.86	54.1832
24.878	54.2702
24.896	54.3399
24.914	54.3953
24.932	54.4381
24.95	54.4671
24.968	54.4792
24.986	54.4853
25.004	54.4958
25.022	54.5033
25.04	54.5126
25.058	54.5376
25.076	54.5846
25.094	54.6457
25.112	54.7285
25.13	54.841
25.148	54.979
25.166	55.1439
25.184	55.3416
25.202	55.5762
25.22	55.8448
25.238	56.1456
25.256	56.4771
25.274	56.8383
25.292	57.2306
25.31	57.6553
25.328	58.1128
25.346	58.6006
25.364	59.1231
25.382	59.6849
25.4	60.2828
25.418	60.9174
25.436	61.5964
25.454	62.3253
25.472	63.0982
25.49	63.9192
25.508	64.7946
25.526	65.7284
25.544	66.7171
25.562	67.7562
25.58	68.8417
25.598	69.9843
25.616	71.1734
25.634	72.3897
25.652	73.6263
25.67	74.9042
25.688	76.1909
25.706	77.4488
25.724	78.6868
25.742	79.9163
25.76	81.0879
25.778	82.1572
25.796	83.1591
25.814	84.0776
25.832	84.8646
25.85	85.4894
25.868	85.9885
25.886	86.3366
25.904	86.4989
25.922	86.464
25.94	86.2518
25.958	85.8526
25.976	85.2558
25.994	84.4532
26.012	83.4563
26.03	82.2832
26.048	80.9469
26.066	79.4191
26.084	77.7283
26.102	75.9202
26.12	74.0186
26.138	71.9777
26.156	69.8476
26.174	67.6908
26.192	65.5209
26.21	63.2941
26.228	61.0704
26.246	58.9136
26.264	56.816
26.282	54.7527
26.3	52.7779
26.318	50.9448
26.336	49.2365
26.354	47.6433
26.372	46.1928
26.39	44.9109
26.408	43.7851
26.426	42.8125
26.444	42.0025
26.462	41.3643
26.48	40.9001
26.498	40.5984
26.516	40.4465
26.534	40.4357
26.552	40.5788
26.57	40.8644
26.588	41.2765
26.606	41.8048
26.624	42.4606
26.642	43.2373
26.66	44.1253
26.678	45.1184
26.696	46.2222
26.714	47.4347
26.732	48.753
26.75	50.1731
26.768	51.6932
26.786	53.3207
26.804	55.0636
26.822	56.9275
26.84	58.9082
26.858	61.0015
26.876	63.2038
26.894	65.5189
26.912	67.9563
26.93	70.493
26.948	73.1039
26.966	75.9123
26.984	79.1388
27.002	82.2611
27.02	84.7104
27.028	85.3617