File: Bakgrunnsmateriale/MATLAB/FTIR/ftir_data/subBb/Mapping_121/C-4040-8_t36.asc
PE IR       SPECTRUM    SPECTRUM    ASCII       PEDS        1.60
  -1
C-B132~1.ASC
17/03/27
17:25:27.00
17/03/27
17:25:53.00
tln
$C-4040-8_t0036$<tbV0>[7.8,-5.2,8.0,0.0,27,1,0]
27.028
64

2002,4.07
MIRTGS : RIGHTBACK : INTERNAL 2
MIR : ON : INTERNAL 2
OPTKBR

0.200000
8
8.000000
FILLER
RATIO
SPECTRUM
UNLOCKED 256

DOUBLE
64
COMBINED
1
0
0

0.002000
RATIO

1
0
TRUE
51149
0
LEFT NOT FITTED RIGHT NOT FITTED 0
NONE
NONE
15600
12
4.427000
51148
TRUE
1 0 8 72 0 0 0 0

15798

#HDR
-1
-1
#GR
µM
%T
2.38419e-05
0.0
2.000000
0.002000
12515
8
104.044
43.2733
#DATA
2.000000	 64.4344
2.018000	 64.8437
2.036000	 64.453
2.054000	 64.6986
2.072000	 64.4101
2.090000	 64.3775
2.108000	 64.4927
2.126000	 64.3774
2.144000	 64.4379
2.162000	 64.0926
2.180000	 64.4114
2.198000	 64.2791
2.216000	 63.9176
2.234000	 64.0092
2.252000	 63.8618
2.270000	 63.9281
2.288000	 64.3668
2.306000	 63.698
2.324000	 63.993
2.342000	 63.9229
2.360000	 64.0971
2.378000	 64.3215
2.396000	 64.4985
2.414000	 64.1723
2.432000	 63.9131
2.450000	 64.197
2.468000	 64.3439
2.486000	 64.0039
2.504000	 64.0558
2.522000	 64.3022
2.540000	 64.0341
2.558000	 63.9358
2.576000	 64.2544
2.594000	 64.0577
2.612000	 64.2036
2.630000	 63.9187
2.648000	 63.7916
2.666000	 63.9853
2.684000	 64.2182
2.702000	 63.8575
2.720000	 63.8489
2.738000	 63.7866
2.756000	 63.9128
2.774000	 63.7802
2.792000	 63.7583
2.810000	 63.6064
2.828000	 63.4805
2.846000	 63.8427
2.864000	 63.5854
2.882000	 63.6382
2.900000	 63.7173
2.918000	 63.5652
2.936000	 63.3694
2.954000	 63.4454
2.972000	 63.5086
2.990000	 63.4094
3.008000	 63.4519
3.026000	 63.3223
3.044000	 63.1633
3.062000	 63.452
3.080000	 63.4135
3.098000	 63.221
3.116000	 63.1694
3.134000	 63.1579
3.152000	 62.9569
3.170000	 63.0294
3.188000	 63.0589
3.206000	 62.9636
3.224000	 63.0889
3.242000	 62.9494
3.260000	 63.0176
3.278000	 62.8315
3.296000	 62.9059
3.314000	 62.7288
3.332000	 62.7638
3.350000	 62.7894
3.368000	 62.7135
3.386000	 62.6394
3.404000	 62.6379
3.422000	 62.2253
3.440000	 62.4549
3.458000	 62.4631
3.476000	 62.4169
3.494000	 62.535
3.512000	 62.5918
3.530000	 62.4397
3.548000	 62.4572
3.566000	 62.5589
3.584000	 62.4572
3.602000	 62.3349
3.620000	 62.4205
3.638000	 62.2799
3.656000	 62.2742
3.674000	 62.2969
3.692000	 62.2249
3.710000	 62.3915
3.728000	 62.1047
3.746000	 62.1765
3.764000	 62.0345
3.782000	 62.079
3.800000	 62.1011
3.818000	 61.9657
3.836000	 61.9244
3.854000	 61.9299
3.872000	 61.8152
3.890000	 61.9038
3.908000	 61.7917
3.926000	 61.8628
3.944000	 61.753
3.962000	 61.8416
3.980000	 61.7979
3.998000	 61.7666
4.016000	 61.5895
4.034000	 61.6591
4.052000	 61.6249
4.070000	 61.5655
4.088000	 61.6277
4.106000	 61.413
4.124000	 61.2375
4.141999	 61.5042
4.160000	 61.2128
4.178000	 61.4393
4.196000	 61.3668
4.214000	 61.2955
4.232000	 61.2885
4.250000	 61.242
4.268000	 61.2376
4.286000	 61.042
4.304000	 61.1366
4.322000	 61.1205
4.340000	 61.1691
4.358000	 61.0809
4.375999	 61.0881
4.394000	 61.0337
4.412000	 61.0342
4.430000	 60.9888
4.448000	 61.047
4.466000	 60.8612
4.484000	 60.8305
4.502000	 60.7881
4.520000	 60.7733
4.538000	 60.8913
4.556000	 60.813
4.574000	 60.7859
4.592000	 60.7661
4.609999	 60.6438
4.628000	 60.5721
4.646000	 60.4879
4.664000	 60.5699
4.682000	 60.5907
4.700000	 60.6167
4.718000	 60.597
4.736000	 60.5877
4.754000	 60.498
4.772000	 60.5101
4.790000	 60.6391
4.808000	 60.6628
4.826000	 60.2919
4.843999	 60.3901
4.862000	 60.1899
4.880000	 60.3304
4.898000	 60.3028
4.916000	 60.2537
4.934000	 60.2318
4.952000	 60.2416
4.970000	 60.2503
4.988000	 60.2507
5.006000	 60.1851
5.024000	 60.2028
5.042000	 60.1567
5.060000	 60.156
5.077999	 60.1438
5.096000	 60.0712
5.114000	 60.0763
5.132000	 59.9737
5.150000	 59.9386
5.168000	 59.9404
5.186000	 60.0186
5.204000	 59.9706
5.222000	 59.9677
5.240000	 59.8811
5.258000	 59.7971
5.276000	 59.8367
5.294000	 59.7584
5.312000	 59.7803
5.330000	 59.8383
5.348000	 59.8113
5.366000	 59.7529
5.384000	 59.6965
5.402000	 59.7673
5.420000	 59.852
5.438000	 59.7303
5.456000	 59.686
5.474000	 59.6306
5.492000	 59.5115
5.510000	 59.499
5.528000	 59.5536
5.546000	 59.5009
5.564000	 59.5037
5.582000	 59.448
5.600000	 59.4415
5.618000	 59.4115
5.636000	 59.376
5.654000	 59.3878
5.672000	 59.4206
5.690000	 59.41
5.708000	 59.4456
5.726000	 59.4296
5.744000	 59.32
5.762000	 59.2447
5.780000	 59.1026
5.798000	 59.0807
5.816000	 59.2125
5.834000	 59.1837
5.852000	 59.1697
5.870000	 59.2494
5.888000	 59.1933
5.906000	 59.1338
5.923999	 59.1054
5.942000	 59.0543
5.960000	 59.1267
5.978000	 59.0835
5.996000	 58.9924
6.014000	 58.9532
6.032000	 59.0042
6.050000	 59.0182
6.068000	 59.0248
6.086000	 58.9543
6.104000	 58.8648
6.122000	 58.9127
6.140000	 58.8549
6.158000	 58.7334
6.176000	 58.6529
6.194000	 58.6652
6.212000	 58.7804
6.230000	 58.8134
6.248000	 58.7805
6.266000	 58.7833
6.284000	 58.787
6.302000	 58.8083
6.320000	 58.8457
6.338000	 58.781
6.356000	 58.6271
6.374000	 58.5918
6.392000	 58.6268
6.410000	 58.6438
6.428000	 58.676
6.446000	 58.642
6.464000	 58.5906
6.482000	 58.5331
6.500000	 58.4455
6.518000	 58.4712
6.536000	 58.5837
6.554000	 58.6252
6.572000	 58.5769
6.590000	 58.5748
6.608000	 58.6665
6.626000	 58.8023
6.644000	 58.7928
6.662000	 58.6264
6.680000	 58.5636
6.698000	 58.5809
6.716000	 58.5404
6.734000	 58.5457
6.752000	 58.5825
6.770000	 58.5113
6.788000	 58.3891
6.806000	 58.2792
6.824000	 58.1249
6.842000	 58.137
6.860000	 58.4064
6.878000	 58.5837
6.896000	 58.5329
6.914000	 58.4223
6.932000	 58.3364
6.950000	 58.338
6.968000	 58.373
6.986000	 58.2709
7.004000	 58.1386
7.022000	 58.174
7.040000	 58.2165
7.058000	 58.1473
7.076000	 58.1231
7.094000	 58.1271
7.112000	 58.0441
7.130000	 57.9637
7.148000	 57.9654
7.166000	 58.0035
7.184000	 58.0524
7.202000	 58.094
7.220000	 58.087
7.238000	 58.0424
7.256000	 58.0024
7.274000	 57.9518
7.292000	 57.8699
7.310000	 57.8079
7.328000	 57.8296
7.346000	 57.9033
7.364000	 57.9443
7.382000	 57.9441
7.400000	 57.934
7.418000	 57.8969
7.436000	 57.8405
7.454000	 57.8325
7.472000	 57.8903
7.490000	 57.9435
7.508000	 57.9313
7.526000	 57.8751
7.544000	 57.8329
7.562000	 57.818
7.580000	 57.8112
7.598000	 57.8163
7.616000	 57.8449
7.634000	 57.8832
7.652000	 57.8944
7.670000	 57.8541
7.688000	 57.7946
7.706000	 57.7777
7.724000	 57.798
7.742000	 57.7908
7.760000	 57.75
7.778000	 57.7381
7.796000	 57.7786
7.814000	 57.8201
7.832000	 57.8028
7.850000	 57.7327
7.868000	 57.6813
7.886000	 57.7004
7.904000	 57.7664
7.922000	 57.8247
7.940000	 57.8459
7.958000	 57.826
7.976000	 57.7823
7.994000	 57.7535
8.012000	 57.7645
8.030000	 57.7952
8.048000	 57.7957
8.065999	 57.732
8.084000	 57.6213
8.102000	 57.532
8.120000	 57.5225
8.138000	 57.574
8.155999	 57.612
8.173999	 57.591
8.192000	 57.5341
8.210000	 57.4879
8.228000	 57.4699
8.246000	 57.4592
8.263999	 57.4292
8.282000	 57.3869
8.300000	 57.3649
8.318000	 57.3761
8.336000	 57.4023
8.353999	 57.4266
8.372000	 57.4433
8.390000	 57.4387
8.408000	 57.3965
8.426000	 57.337
8.443999	 57.3126
8.462000	 57.3486
8.480000	 57.4117
8.498000	 57.4549
8.516000	 57.4656
8.533999	 57.452
8.552000	 57.4169
8.570000	 57.3618
8.588000	 57.3065
8.606000	 57.2794
8.624000	 57.2882
8.641999	 57.3113
8.660000	 57.3223
8.678000	 57.3119
8.696000	 57.2852
8.714000	 57.2434
8.731999	 57.1855
8.750000	 57.1325
8.768000	 57.1279
8.786000	 57.2017
8.804000	 57.3338
8.821999	 57.4564
8.840000	 57.4878
8.858000	 57.3872
8.876000	 57.1912
8.894000	 56.9909
8.911999	 56.8677
8.930000	 56.8473
8.948000	 56.9062
8.966000	 57.0004
8.984000	 57.0926
9.001999	 57.1536
9.020000	 57.1608
9.038000	 57.107
9.056000	 57.0199
9.074000	 56.9605
9.092000	 56.987
9.109999	 57.1051
9.128000	 57.2638
9.146000	 57.407
9.164000	 57.5186
9.182000	 57.6015
9.199999	 57.6412
9.218000	 57.6096
9.236000	 57.5013
9.254000	 57.3489
9.272000	 57.1969
9.289999	 57.0699
9.308000	 56.969
9.326000	 56.8929
9.344000	 56.8441
9.362000	 56.8242
9.379999	 56.831
9.398000	 56.8583
9.416000	 56.8929
9.434000	 56.914
9.452000	 56.9059
9.469999	 56.8734
9.488000	 56.8455
9.506000	 56.8594
9.524000	 56.9353
9.542000	 57.0607
9.560000	 57.1962
9.577999	 57.2969
9.596000	 57.334
9.614000	 57.3066
9.632000	 57.2371
9.650000	 57.155
9.667999	 57.0804
9.686000	 57.0186
9.704000	 56.9673
9.722000	 56.93
9.740000	 56.9167
9.757999	 56.9335
9.776000	 56.9706
9.794000	 57.0044
9.812000	 57.016
9.830000	 57.0065
9.847999	 56.991
9.866000	 56.9793
9.884000	 56.962
9.902000	 56.9179
9.920000	 56.8386
9.937999	 56.7425
9.956000	 56.6624
9.974000	 56.6199
9.992000	 56.608
10.01	56.6022
10.028	56.5864
10.046	56.5725
10.064	56.5952
10.082	56.6818
10.1	56.826
10.118	56.9808
10.136	57.0827
10.154	57.0882
10.172	56.9971
10.19	56.8545
10.208	56.7237
10.226	56.6527
10.244	56.6556
10.262	56.7098
10.28	56.7745
10.298	56.8108
10.316	56.7951
10.334	56.728
10.352	56.6304
10.37	56.5339
10.388	56.4678
10.406	56.4471
10.424	56.4699
10.442	56.5194
10.46	56.5772
10.478	56.6312
10.496	56.6784
10.514	56.721
10.532	56.7595
10.55	56.7868
10.568	56.7925
10.586	56.7698
10.604	56.7214
10.622	56.6613
10.64	56.6094
10.658	56.581
10.676	56.5805
10.694	56.6004
10.712	56.6253
10.73	56.6388
10.748	56.6315
10.766	56.606
10.784	56.5742
10.802	56.5533
10.82	56.5567
10.838	56.5889
10.856	56.6452
10.874	56.7116
10.892	56.7699
10.91	56.8007
10.928	56.7894
10.946	56.7312
10.964	56.6358
10.982	56.5267
11	56.433
11.018	56.3799
11.036	56.3753
11.054	56.407
11.072	56.4498
11.09	56.4781
11.108	56.48
11.126	56.4608
11.144	56.4358
11.162	56.4211
11.18	56.4229
11.198	56.4363
11.216	56.4511
11.234	56.4597
11.252	56.4614
11.27	56.4624
11.288	56.4718
11.306	56.4937
11.324	56.5249
11.342	56.5557
11.36	56.5753
11.378	56.5739
11.396	56.5476
11.414	56.4987
11.432	56.4341
11.45	56.3628
11.468	56.2951
11.486	56.2398
11.504	56.2027
11.522	56.1851
11.54	56.1846
11.558	56.1948
11.576	56.2075
11.594	56.2156
11.612	56.215
11.63	56.2058
11.648	56.1916
11.666	56.1777
11.684	56.1696
11.702	56.1711
11.72	56.1832
11.738	56.2043
11.756	56.2302
11.774	56.2545
11.792	56.269
11.81	56.2651
11.828	56.2361
11.846	56.179
11.864	56.0973
11.882	56.0009
11.9	55.9051
11.918	55.8269
11.936	55.7801
11.954	55.7709
11.972	55.7966
11.99	55.8468
12.008	55.9067
12.026	55.9623
12.044	56.0029
12.062	56.0242
12.08	56.0275
12.098	56.0171
12.116	55.9978
12.134	55.9729
12.152	55.9441
12.17	55.9124
12.188	55.8787
12.206	55.846
12.224	55.8181
12.242	55.7988
12.26	55.7902
12.278	55.7925
12.296	55.8038
12.314	55.8211
12.332	55.8414
12.35	55.8615
12.368	55.8789
12.386	55.8916
12.404	55.8982
12.422	55.8979
12.44	55.891
12.458	55.8786
12.476	55.8632
12.494	55.8483
12.512	55.8381
12.53	55.8377
12.548	55.8516
12.566	55.8821
12.584	55.9284
12.602	55.9859
12.62	56.0466
12.638	56.1
12.656	56.1359
12.674	56.1465
12.692	56.1287
12.71	56.0849
12.728	56.0225
12.746	55.9522
12.764	55.8847
12.782	55.8286
12.8	55.7882
12.818	55.7627
12.836	55.7478
12.854	55.7371
12.872	55.7243
12.89	55.7041
12.908	55.674
12.926	55.6337
12.944	55.5854
12.962	55.533
12.98	55.4814
12.998	55.4362
13.016	55.403
13.034	55.3867
13.052	55.3901
13.07	55.4137
13.088	55.4548
13.106	55.5074
13.124	55.5627
13.142	55.6112
13.16	55.6444
13.178	55.6565
13.196	55.6454
13.214	55.6131
13.232	55.5649
13.25	55.5077
13.268	55.4488
13.286	55.3939
13.304	55.3464
13.322	55.3077
13.34	55.2784
13.358	55.2589
13.376	55.2502
13.394	55.2544
13.412	55.274
13.43	55.3107
13.448	55.3644
13.466	55.4323
13.484	55.5088
13.502	55.5862
13.52	55.656
13.538	55.711
13.556	55.7462
13.574	55.7596
13.592	55.7522
13.61	55.728
13.628	55.6917
13.646	55.6483
13.664	55.6022
13.682	55.5561
13.7	55.5124
13.718	55.4731
13.736	55.4407
13.754	55.4179
13.772	55.4072
13.79	55.4107
13.808	55.4288
13.826	55.4595
13.844	55.4988
13.862	55.5403
13.88	55.5771
13.898	55.6025
13.916	55.6118
13.934	55.6029
13.952	55.5768
13.97	55.5373
13.988	55.49
14.006	55.4418
14.024	55.3995
14.042	55.3682
14.06	55.3509
14.078	55.3489
14.096	55.3611
14.114	55.3851
14.132	55.4175
14.15	55.454
14.168	55.4906
14.186	55.5233
14.204	55.5481
14.222	55.5617
14.24	55.5614
14.258	55.5462
14.276	55.5163
14.294	55.4735
14.312	55.4211
14.33	55.3637
14.348	55.3066
14.366	55.2554
14.384	55.215
14.402	55.1887
14.42	55.1776
14.438	55.181
14.456	55.196
14.474	55.2183
14.492	55.2424
14.51	55.2625
14.528	55.2741
14.546	55.2746
14.564	55.2636
14.582	55.2424
14.6	55.214
14.618	55.1821
14.636	55.1508
14.654	55.1224
14.672	55.098
14.69	55.0768
14.708	55.0573
14.726	55.0368
14.744	55.0128
14.762	54.9838
14.78	54.9494
14.798	54.9109
14.816	54.8705
14.834	54.8316
14.852	54.7973
14.87	54.7701
14.888	54.7515
14.906	54.7418
14.924	54.7405
14.942	54.7454
14.96	54.7542
14.978	54.7652
14.996	54.7769
15.014	54.7889
15.032	54.8021
15.05	54.8182
15.068	54.839
15.086	54.8657
15.104	54.8996
15.122	54.9402
15.14	54.9856
15.158	55.0325
15.176	55.0772
15.194	55.1149
15.212	55.1406
15.23	55.1511
15.248	55.1445
15.266	55.1198
15.284	55.0788
15.302	55.0249
15.32	54.9623
15.338	54.8954
15.356	54.8294
15.374	54.7687
15.392	54.7159
15.41	54.6723
15.428	54.6381
15.446	54.6113
15.464	54.589
15.482	54.5686
15.5	54.5471
15.518	54.5218
15.536	54.4924
15.554	54.4592
15.572	54.4238
15.59	54.3902
15.608	54.3621
15.626	54.343
15.644	54.3372
15.662	54.3474
15.68	54.374
15.698	54.4168
15.716	54.473
15.734	54.5372
15.752	54.6045
15.77	54.6693
15.788	54.724
15.806	54.7645
15.824	54.7876
15.842	54.791
15.86	54.7755
15.878	54.7438
15.896	54.6994
15.914	54.6486
15.932	54.5973
15.95	54.5499
15.968	54.5114
15.986	54.4852
16.004	54.4718
16.022	54.4712
16.04	54.4808
16.058	54.4969
16.076	54.5162
16.094	54.5334
16.112	54.5448
16.13	54.5482
16.148	54.5414
16.166	54.525
16.184	54.5006
16.202	54.47
16.22	54.4381
16.238	54.4082
16.256	54.3834
16.274	54.3682
16.292	54.3643
16.31	54.3732
16.328	54.395
16.346	54.4283
16.364	54.4716
16.382	54.5212
16.4	54.5737
16.418	54.6262
16.436	54.6742
16.454	54.7149
16.472	54.7461
16.49	54.7656
16.508	54.7727
16.526	54.7672
16.544	54.7494
16.562	54.7204
16.58	54.6811
16.598	54.6336
16.616	54.5794
16.634	54.52
16.652	54.4577
16.67	54.3939
16.688	54.33
16.706	54.2681
16.724	54.2093
16.742	54.155
16.76	54.1071
16.778	54.0664
16.796	54.0343
16.814	54.0117
16.832	53.9987
16.85	53.9955
16.868	54.0014
16.886	54.0156
16.904	54.0361
16.922	54.0612
16.94	54.0887
16.958	54.1156
16.976	54.1405
16.994	54.1602
17.012	54.1735
17.03	54.1791
17.048	54.1762
17.066	54.1654
17.084	54.1469
17.102	54.1225
17.12	54.093
17.138	54.061
17.156	54.0277
17.174	53.9947
17.192	53.9634
17.21	53.934
17.228	53.9072
17.246	53.8822
17.264	53.8588
17.282	53.8357
17.3	53.8124
17.318	53.7877
17.336	53.7614
17.354	53.7332
17.372	53.704
17.39	53.6745
17.408	53.6466
17.426	53.6223
17.444	53.603
17.462	53.5921
17.48	53.5901
17.498	53.5993
17.516	53.6193
17.534	53.6506
17.552	53.6912
17.57	53.7405
17.588	53.7947
17.606	53.8518
17.624	53.9084
17.642	53.961
17.66	54.0077
17.678	54.0453
17.696	54.0732
17.714	54.0898
17.732	54.0956
17.75	54.0906
17.768	54.0768
17.786	54.0545
17.804	54.0268
17.822	53.9944
17.84	53.9599
17.858	53.924
17.876	53.8883
17.894	53.8532
17.912	53.8192
17.93	53.7859
17.948	53.7533
17.966	53.7204
17.984	53.6868
18.002	53.6517
18.02	53.6149
18.038	53.576
18.056	53.5356
18.074	53.4938
18.092	53.4521
18.11	53.4107
18.128	53.3721
18.146	53.3366
18.164	53.3065
18.182	53.2824
18.2	53.2659
18.218	53.2573
18.236	53.257
18.254	53.2646
18.272	53.2799
18.29	53.3011
18.308	53.3278
18.326	53.3573
18.344	53.3894
18.362	53.4211
18.38	53.452
18.398	53.4801
18.416	53.505
18.434	53.5258
18.452	53.5426
18.47	53.5551
18.488	53.5638
18.506	53.5688
18.524	53.5712
18.542	53.5711
18.56	53.5695
18.578	53.5665
18.596	53.5628
18.614	53.5582
18.632	53.5528
18.65	53.5464
18.668	53.5383
18.686	53.5284
18.704	53.5158
18.722	53.5005
18.74	53.4815
18.758	53.4592
18.776	53.4334
18.794	53.4044
18.812	53.3729
18.83	53.3396
18.848	53.3057
18.866	53.2722
18.884	53.2408
18.902	53.2125
18.92	53.1892
18.938	53.1717
18.956	53.1619
18.974	53.1598
18.992	53.1667
19.01	53.1822
19.028	53.2065
19.046	53.2389
19.064	53.2785
19.082	53.3241
19.1	53.3739
19.118	53.4269
19.136	53.4805
19.154	53.5339
19.172	53.5841
19.19	53.6306
19.208	53.671
19.226	53.7052
19.244	53.7314
19.262	53.7499
19.28	53.7603
19.298	53.763
19.316	53.7593
19.334	53.7491
19.352	53.7351
19.37	53.7172
19.388	53.6988
19.406	53.6797
19.424	53.6632
19.442	53.6492
19.46	53.6399
19.478	53.6358
19.496	53.6375
19.514	53.6454
19.532	53.6591
19.55	53.6789
19.568	53.7035
19.586	53.732
19.604	53.7637
19.622	53.7966
19.64	53.8304
19.658	53.8621
19.676	53.8921
19.694	53.9177
19.712	53.9391
19.73	53.9542
19.748	53.963
19.766	53.9645
19.784	53.9585
19.802	53.9449
19.82	53.9234
19.838	53.8943
19.856	53.8577
19.874	53.8142
19.892	53.7647
19.91	53.7091
19.928	53.6494
19.946	53.5852
19.964	53.5189
19.982	53.4504
20	53.3818
20.018	53.3138
20.036	53.2474
20.054	53.1846
20.072	53.1254
20.09	53.0721
20.108	53.0244
20.126	52.9843
20.144	52.9516
20.162	52.9273
20.18	52.9117
20.198	52.9046
20.216	52.9061
20.234	52.9158
20.252	52.9326
20.27	52.9569
20.288	52.9859
20.306	53.02
20.324	53.057
20.342	53.0955
20.36	53.135
20.378	53.1728
20.396	53.2095
20.414	53.2429
20.432	53.2732
20.45	53.2992
20.468	53.3203
20.486	53.3368
20.504	53.3485
20.522	53.3555
20.54	53.3591
20.558	53.359
20.576	53.357
20.594	53.3537
20.612	53.3496
20.63	53.3469
20.648	53.345
20.666	53.3459
20.684	53.3495
20.702	53.3563
20.72	53.3672
20.738	53.3815
20.756	53.3991
20.774	53.42
20.792	53.443
20.81	53.4683
20.828	53.4945
20.846	53.52
20.864	53.5451
20.882	53.5672
20.9	53.5865
20.918	53.6014
20.936	53.6106
20.954	53.6143
20.972	53.611
20.99	53.6008
21.008	53.5837
21.026	53.5592
21.044	53.528
21.062	53.4912
21.08	53.4482
21.098	53.4017
21.116	53.3516
21.134	53.2992
21.152	53.2472
21.17	53.1947
21.188	53.1452
21.206	53.099
21.224	53.0571
21.242	53.0218
21.26	52.9926
21.278	52.9711
21.296	52.9579
21.314	52.9525
21.332	52.9553
21.35	52.9662
21.368	52.9835
21.386	53.0073
21.404	53.0364
21.422	53.0675
21.44	53.1018
21.458	53.1352
21.476	53.1664
21.494	53.1951
21.512	53.2164
21.53	53.2316
21.548	53.2375
21.566	53.2317
21.584	53.215
21.602	53.1849
21.62	53.1411
21.638	53.084
21.656	53.0127
21.674	52.9274
21.692	52.8305
21.71	52.7216
21.728	52.6023
21.746	52.4769
21.764	52.3435
21.782	52.2071
21.8	52.0713
21.818	51.9347
21.836	51.804
21.854	51.6792
21.872	51.5619
21.89	51.4576
21.908	51.3644
21.926	51.2856
21.944	51.2237
21.962	51.1774
21.98	51.1482
21.998	51.1369
22.016	51.1422
22.034	51.1631
22.052	51.2006
22.07	51.2514
22.088	51.3135
22.106	51.3879
22.124	51.4691
22.142	51.5568
22.16	51.65
22.178	51.7425
22.196	51.8361
22.214	51.9274
22.232	52.0119
22.25	52.0914
22.268	52.1626
22.286	52.223
22.304	52.274
22.322	52.3136
22.34	52.3412
22.358	52.3573
22.376	52.3619
22.394	52.3544
22.412	52.336
22.43	52.3075
22.448	52.2683
22.466	52.2205
22.484	52.1655
22.502	52.1024
22.52	52.0343
22.538	51.9624
22.556	51.8861
22.574	51.8084
22.592	51.7296
22.61	51.6498
22.628	51.5717
22.646	51.4946
22.664	51.4196
22.682	51.3492
22.7	51.2823
22.718	51.2205
22.736	51.1654
22.754	51.116
22.772	51.0742
22.79	51.0415
22.808	51.017
22.826	51.002
22.844	50.9973
22.862	51.0024
22.88	51.017
22.898	51.0415
22.916	51.0756
22.934	51.1173
22.952	51.1665
22.97	51.2231
22.988	51.2829
23.006	51.3459
23.024	51.4119
23.042	51.4757
23.06	51.5375
23.078	51.5969
23.096	51.649
23.114	51.6939
23.132	51.7314
23.15	51.7581
23.168	51.7737
23.186	51.7786
23.204	51.7712
23.222	51.7509
23.24	51.7187
23.258	51.6753
23.276	51.6199
23.294	51.5539
23.312	51.48
23.33	51.3974
23.348	51.3073
23.366	51.2141
23.384	51.1166
23.402	51.0161
23.42	50.9177
23.438	50.8216
23.456	50.7275
23.474	50.639
23.492	50.5571
23.51	50.4807
23.528	50.4108
23.546	50.3483
23.564	50.2925
23.582	50.2417
23.6	50.1959
23.618	50.1555
23.636	50.1178
23.654	50.0824
23.672	50.0504
23.69	50.017
23.708	49.9794
23.726	49.9405
23.744	49.8946
23.762	49.8368
23.78	49.7706
23.798	49.6922
23.816	49.597
23.834	49.4866
23.852	49.3605
23.87	49.2165
23.888	49.055
23.906	48.8762
23.924	48.6798
23.942	48.4651
23.96	48.2329
23.978	47.9857
23.996	47.7231
24.014	47.4446
24.032	47.156
24.05	46.86
24.068	46.5529
24.086	46.2425
24.104	45.9356
24.122	45.6267
24.14	45.3222
24.158	45.0318
24.176	44.7516
24.194	44.484
24.212	44.2385
24.23	44.0154
24.248	43.8126
24.266	43.639
24.284	43.4998
24.302	43.3905
24.32	43.3149
24.338	43.2776
24.356	43.278
24.374	43.3137
24.392	43.3822
24.41	43.4869
24.428	43.6246
24.446	43.7867
24.464	43.9716
24.482	44.1834
24.5	44.4091
24.518	44.6386
24.536	44.8812
24.554	45.1266
24.572	45.3602
24.59	45.5865
24.608	45.8042
24.626	46
24.644	46.1673
24.662	46.3133
24.68	46.4308
24.698	46.5133
24.716	46.5638
24.734	46.5818
24.752	46.5648
24.77	46.5094
24.788	46.4186
24.806	46.2988
24.824	46.1531
24.842	45.975
24.86	45.7759
24.878	45.5692
24.896	45.3469
24.914	45.1132
24.932	44.8869
24.95	44.6769
24.968	44.4718
24.986	44.2851
25.004	44.1314
25.022	44.002
25.04	43.9012
25.058	43.844
25.076	43.8367
25.094	43.8704
25.112	43.9548
25.13	44.0999
25.148	44.3012
25.166	44.5593
25.184	44.8805
25.202	45.2685
25.22	45.7196
25.238	46.234
25.256	46.8122
25.274	47.4559
25.292	48.1625
25.31	48.9271
25.328	49.7483
25.346	50.6304
25.364	51.5648
25.382	52.5421
25.4	53.5669
25.418	54.638
25.436	55.7428
25.454	56.8723
25.472	58.0368
25.49	59.2267
25.508	60.4283
25.526	61.6417
25.544	62.8731
25.562	64.1059
25.58	65.3249
25.598	66.5416
25.616	67.7502
25.634	68.9337
25.652	70.0814
25.67	71.2041
25.688	72.2959
25.706	73.3484
25.724	74.3591
25.742	75.3324
25.76	76.2683
25.778	77.1671
25.796	78.0276
25.814	78.8514
25.832	79.6411
25.85	80.3977
25.868	81.1183
25.886	81.8075
25.904	82.471
25.922	83.1093
25.94	83.719
25.958	84.3071
25.976	84.8804
25.994	85.4353
26.012	85.9721
26.03	86.498
26.048	87.0185
26.066	87.525
26.084	88.0246
26.102	88.5294
26.12	89.0474
26.138	89.5704
26.156	90.1023
26.174	90.6492
26.192	91.2104
26.21	91.7804
26.228	92.3714
26.246	92.9962
26.264	93.66
26.282	94.3558
26.3	95.0789
26.318	95.8247
26.336	96.6075
26.354	97.4186
26.372	98.2319
26.39	99.0246
26.408	99.827
26.426	100.621
26.444	101.364
26.462	102.023
26.48	102.645
26.498	103.198
26.516	103.625
26.534	103.884
26.552	104.026
26.57	104.022
26.588	103.829
26.606	103.416
26.624	102.812
26.642	102.013
26.66	101.011
26.678	99.7951
26.696	98.3627
26.714	96.7368
26.732	94.9423
26.75	92.9786
26.768	90.8099
26.786	88.4981
26.804	86.1116
26.822	83.6749
26.84	81.1265
26.858	78.528
26.876	75.9496
26.894	73.4225
26.912	70.8888
26.93	68.3909
26.948	65.9791
26.966	63.6058
26.984	61.1216
27.002	58.825
27.02	57.0436
27.028	56.5584