File: Bakgrunnsmateriale/MATLAB/FTIR/ftir_data/subBb/Mapping_121/C-4040-8_t59.asc
PE IR       SPECTRUM    SPECTRUM    ASCII       PEDS        1.60
  -1
C-C93E~1.ASC
17/03/27
19:19:09.00
17/03/27
19:19:35.00
tln
$C-4040-8_t0059$<tbV0>[5.2,0.0,8.0,0.0,27,1,0]
27.028
64

2002,4.07
MIRTGS : RIGHTBACK : INTERNAL 2
MIR : ON : INTERNAL 2
OPTKBR

0.200000
8
8.000000
FILLER
RATIO
SPECTRUM
UNLOCKED 256

DOUBLE
64
COMBINED
1
0
0

0.002000
RATIO

1
0
TRUE
51149
0
LEFT NOT FITTED RIGHT NOT FITTED 0
NONE
NONE
15600
12
4.427000
51148
TRUE
1 0 8 72 0 0 0 0

15798

#HDR
-1
-1
#GR
µM
%T
2.38419e-05
0.0
2.000000
0.002000
12515
8
116.407
34.3527
#DATA
2.000000	 64.9382
2.018000	 65.6248
2.036000	 65.2542
2.054000	 64.8864
2.072000	 64.5805
2.090000	 65.0433
2.108000	 64.1474
2.126000	 64.8256
2.144000	 64.5512
2.162000	 64.4984
2.180000	 64.7857
2.198000	 65.2176
2.216000	 65.2257
2.234000	 66.3015
2.252000	 66.1381
2.270000	 67.1348
2.288000	 66.7655
2.306000	 68.1422
2.324000	 65.9217
2.342000	 66.1534
2.360000	 65.8846
2.378000	 65.8317
2.396000	 65.1417
2.414000	 65.2568
2.432000	 64.8068
2.450000	 64.7035
2.468000	 65.0414
2.486000	 65.0003
2.504000	 64.8468
2.522000	 64.9398
2.540000	 65.1659
2.558000	 65.1395
2.576000	 65.2005
2.594000	 65.4876
2.612000	 65.3187
2.630000	 65.3185
2.648000	 65.2672
2.666000	 65.2448
2.684000	 65.1566
2.702000	 64.9447
2.720000	 65.1824
2.738000	 65.2587
2.756000	 65.2336
2.774000	 65.0587
2.792000	 65.1128
2.810000	 65.1492
2.828000	 64.8282
2.846000	 65.0517
2.864000	 64.8854
2.882000	 65.5677
2.900000	 65.2506
2.918000	 65.3195
2.936000	 65.2908
2.954000	 65.3555
2.972000	 65.326
2.990000	 65.2074
3.008000	 65.3725
3.026000	 65.2191
3.044000	 65.018
3.062000	 65.2162
3.080000	 65.132
3.098000	 65.1418
3.116000	 64.9467
3.134000	 64.942
3.152000	 65.3434
3.170000	 65.1276
3.188000	 65.145
3.206000	 64.5552
3.224000	 65.1158
3.242000	 65.3231
3.260000	 65.2079
3.278000	 65.3746
3.296000	 65.3074
3.314000	 65.1182
3.332000	 65.2454
3.350000	 65.2021
3.368000	 65.2754
3.386000	 65.2765
3.404000	 65.2363
3.422000	 64.9623
3.440000	 65.1721
3.458000	 65.1023
3.476000	 65.1963
3.494000	 65.3148
3.512000	 65.4089
3.530000	 65.1081
3.548000	 65.2847
3.566000	 65.2357
3.584000	 65.3945
3.602000	 65.2496
3.620000	 65.3332
3.638000	 65.246
3.656000	 65.2597
3.674000	 65.1105
3.692000	 65.2174
3.710000	 65.1061
3.728000	 65.1998
3.746000	 65.2729
3.764000	 65.2986
3.782000	 65.2255
3.800000	 65.3034
3.818000	 65.3125
3.836000	 65.4131
3.854000	 65.276
3.872000	 65.4329
3.890000	 65.1293
3.908000	 65.3468
3.926000	 65.5325
3.944000	 65.26
3.962000	 65.1618
3.980000	 65.4211
3.998000	 65.0986
4.016000	 65.202
4.034000	 65.4436
4.052000	 65.2567
4.070000	 65.297
4.088000	 65.4829
4.106000	 65.3106
4.124000	 65.489
4.141999	 65.118
4.160000	 65.4312
4.178000	 65.3529
4.196000	 65.3774
4.214000	 65.2932
4.232000	 65.428
4.250000	 65.3807
4.268000	 65.3276
4.286000	 65.3516
4.304000	 65.3113
4.322000	 65.1804
4.340000	 65.3629
4.358000	 65.4001
4.375999	 65.3947
4.394000	 65.3215
4.412000	 65.2694
4.430000	 65.4044
4.448000	 65.4641
4.466000	 65.2564
4.484000	 65.3716
4.502000	 65.2398
4.520000	 65.3152
4.538000	 65.2556
4.556000	 65.4001
4.574000	 65.3704
4.592000	 65.299
4.609999	 65.2708
4.628000	 65.482
4.646000	 65.4068
4.664000	 65.5423
4.682000	 65.5122
4.700000	 65.3983
4.718000	 65.3529
4.736000	 65.3377
4.754000	 65.3307
4.772000	 65.3081
4.790000	 65.2732
4.808000	 65.5408
4.826000	 65.2308
4.843999	 64.9433
4.862000	 65.2511
4.880000	 65.3011
4.898000	 65.3075
4.916000	 65.3906
4.934000	 65.3782
4.952000	 65.2368
4.970000	 65.2764
4.988000	 65.434
5.006000	 65.2655
5.024000	 65.3056
5.042000	 65.4363
5.060000	 65.3448
5.077999	 65.3208
5.096000	 65.2484
5.114000	 65.3383
5.132000	 65.387
5.150000	 65.3187
5.168000	 65.3554
5.186000	 65.3676
5.204000	 65.4182
5.222000	 65.3598
5.240000	 65.2739
5.258000	 65.3359
5.276000	 65.3795
5.294000	 65.2969
5.312000	 65.3312
5.330000	 65.4946
5.348000	 65.3577
5.366000	 65.2931
5.384000	 65.3034
5.402000	 65.2703
5.420000	 65.323
5.438000	 65.3254
5.456000	 65.3994
5.474000	 65.3911
5.492000	 65.2869
5.510000	 65.3855
5.528000	 65.4232
5.546000	 65.3544
5.564000	 65.2641
5.582000	 65.2532
5.600000	 65.1545
5.618000	 65.0853
5.636000	 65.2702
5.654000	 65.3616
5.672000	 65.2082
5.690000	 65.1826
5.708000	 65.2685
5.726000	 65.2721
5.744000	 65.142
5.762000	 65.0319
5.780000	 64.9849
5.798000	 64.992
5.816000	 64.9968
5.834000	 64.9961
5.852000	 65.0129
5.870000	 65.11
5.888000	 65.1779
5.906000	 65.1785
5.923999	 65.1399
5.942000	 65.189
5.960000	 65.2591
5.978000	 65.2983
5.996000	 65.4184
6.014000	 65.3689
6.032000	 65.2044
6.050000	 65.1886
6.068000	 65.2638
6.086000	 65.3617
6.104000	 65.2931
6.122000	 65.1185
6.140000	 65.0573
6.158000	 65.1077
6.176000	 65.2669
6.194000	 65.3091
6.212000	 65.1979
6.230000	 65.1438
6.248000	 65.0969
6.266000	 65.032
6.284000	 65.0311
6.302000	 65.0461
6.320000	 65.0812
6.338000	 65.0853
6.356000	 65.0966
6.374000	 65.1392
6.392000	 65.0416
6.410000	 64.912
6.428000	 64.931
6.446000	 64.9899
6.464000	 65.0251
6.482000	 65.0074
6.500000	 65.004
6.518000	 65.0551
6.536000	 65.0489
6.554000	 65.0093
6.572000	 65.0463
6.590000	 65.0795
6.608000	 65.1223
6.626000	 65.2218
6.644000	 65.2926
6.662000	 65.3582
6.680000	 65.3507
6.698000	 65.2065
6.716000	 65.1184
6.734000	 65.1303
6.752000	 65.149
6.770000	 65.1068
6.788000	 65.0628
6.806000	 65.1617
6.824000	 65.2889
6.842000	 65.2012
6.860000	 64.9386
6.878000	 64.7948
6.896000	 64.8959
6.914000	 65.0154
6.932000	 65.0345
6.950000	 65.0693
6.968000	 65.1122
6.986000	 65.1248
7.004000	 65.1653
7.022000	 65.1829
7.040000	 65.1151
7.058000	 65.0579
7.076000	 65.0695
7.094000	 65.06
7.112000	 64.9937
7.130000	 64.9359
7.148000	 64.9283
7.166000	 64.9586
7.184000	 64.9718
7.202000	 64.9632
7.220000	 65.0078
7.238000	 65.0966
7.256000	 65.1531
7.274000	 65.1503
7.292000	 65.11
7.310000	 65.0898
7.328000	 65.111
7.346000	 65.1232
7.364000	 65.1043
7.382000	 65.0638
7.400000	 64.9987
7.418000	 64.9504
7.436000	 64.9794
7.454000	 65.0629
7.472000	 65.1206
7.490000	 65.1163
7.508000	 65.0799
7.526000	 65.0523
7.544000	 65.0331
7.562000	 64.9986
7.580000	 64.9726
7.598000	 64.9981
7.616000	 65.0378
7.634000	 65.0182
7.652000	 64.9657
7.670000	 64.9655
7.688000	 65.0165
7.706000	 65.0428
7.724000	 65.015
7.742000	 64.9837
7.760000	 64.9999
7.778000	 65.0483
7.796000	 65.0733
7.814000	 65.0486
7.832000	 64.9898
7.850000	 64.9254
7.868000	 64.8922
7.886000	 64.9194
7.904000	 64.9791
7.922000	 65.005
7.940000	 64.9773
7.958000	 64.932
7.976000	 64.9012
7.994000	 64.8986
8.012000	 64.9335
8.030000	 64.989
8.048000	 65.0165
8.065999	 64.9846
8.084000	 64.9107
8.102000	 64.8468
8.120000	 64.8439
8.138000	 64.9057
8.155999	 64.9687
8.173999	 64.9642
8.192000	 64.9021
8.210000	 64.8443
8.228000	 64.8163
8.246000	 64.8027
8.263999	 64.8154
8.282000	 64.89
8.300000	 65.0096
8.318000	 65.0966
8.336000	 65.0928
8.353999	 65.0183
8.372000	 64.9413
8.390000	 64.9127
8.408000	 64.9199
8.426000	 64.9098
8.443999	 64.8667
8.462000	 64.8283
8.480000	 64.824
8.498000	 64.8408
8.516000	 64.8508
8.533999	 64.8459
8.552000	 64.8433
8.570000	 64.8621
8.588000	 64.896
8.606000	 64.906
8.624000	 64.8651
8.641999	 64.81
8.660000	 64.8227
8.678000	 64.9432
8.696000	 65.1216
8.714000	 65.2582
8.731999	 65.2869
8.750000	 65.2255
8.768000	 65.1463
8.786000	 65.1042
8.804000	 65.0837
8.821999	 65.0227
8.840000	 64.8883
8.858000	 64.7321
8.876000	 64.6493
8.894000	 64.6836
8.911999	 64.7757
8.930000	 64.827
8.948000	 64.7954
8.966000	 64.7153
8.984000	 64.6374
9.001999	 64.5765
9.020000	 64.534
9.038000	 64.5422
9.056000	 64.6442
9.074000	 64.8196
9.092000	 64.9528
9.109999	 64.9165
9.128000	 64.697
9.146000	 64.4297
9.164000	 64.2899
9.182000	 64.3441
9.199999	 64.5059
9.218000	 64.6333
9.236000	 64.6582
9.254000	 64.6315
9.272000	 64.6521
9.289999	 64.7623
9.308000	 64.9138
9.326000	 65.0177
9.344000	 65.0221
9.362000	 64.9441
9.379999	 64.8394
9.398000	 64.7501
9.416000	 64.6821
9.434000	 64.6261
9.452000	 64.5869
9.469999	 64.5885
9.488000	 64.6422
9.506000	 64.7151
9.524000	 64.7414
9.542000	 64.6783
9.560000	 64.5547
9.577999	 64.4567
9.596000	 64.4575
9.614000	 64.5572
9.632000	 64.6867
9.650000	 64.7642
9.667999	 64.7536
9.686000	 64.678
9.704000	 64.5888
9.722000	 64.5239
9.740000	 64.4893
9.757999	 64.4713
9.776000	 64.4558
9.794000	 64.4376
9.812000	 64.4187
9.830000	 64.408
9.847999	 64.4233
9.866000	 64.4801
9.884000	 64.5757
9.902000	 64.6831
9.920000	 64.7625
9.937999	 64.7855
9.956000	 64.7527
9.974000	 64.6878
9.992000	 64.6194
10.01	64.5644
10.028	64.523
10.046	64.49
10.064	64.4657
10.082	64.4573
10.1	64.4738
10.118	64.5154
10.136	64.5703
10.154	64.6198
10.172	64.647
10.19	64.6462
10.208	64.6248
10.226	64.5965
10.244	64.5742
10.262	64.5633
10.28	64.5612
10.298	64.5601
10.316	64.553
10.334	64.5366
10.352	64.5115
10.37	64.4799
10.388	64.4428
10.406	64.4009
10.424	64.3563
10.442	64.3149
10.46	64.2849
10.478	64.2737
10.496	64.2826
10.514	64.3059
10.532	64.3335
10.55	64.3571
10.568	64.374
10.586	64.3861
10.604	64.3965
10.622	64.4068
10.64	64.4178
10.658	64.4309
10.676	64.447
10.694	64.4647
10.712	64.4792
10.73	64.4835
10.748	64.4726
10.766	64.4472
10.784	64.4141
10.802	64.3831
10.82	64.3618
10.838	64.3534
10.856	64.3557
10.874	64.3633
10.892	64.3698
10.91	64.3692
10.928	64.3565
10.946	64.3302
10.964	64.2943
10.982	64.259
11	64.2372
11.018	64.2389
11.036	64.2643
11.054	64.3015
11.072	64.3316
11.09	64.3375
11.108	64.3142
11.126	64.2705
11.144	64.2233
11.162	64.1898
11.18	64.1779
11.198	64.1842
11.216	64.198
11.234	64.2086
11.252	64.2106
11.27	64.2074
11.288	64.2078
11.306	64.219
11.324	64.2415
11.342	64.2663
11.36	64.279
11.378	64.2648
11.396	64.2171
11.414	64.1409
11.432	64.0527
11.45	63.9733
11.468	63.9224
11.486	63.911
11.504	63.9388
11.522	63.9957
11.54	64.0675
11.558	64.1408
11.576	64.2069
11.594	64.2638
11.612	64.3128
11.63	64.3555
11.648	64.3911
11.666	64.4163
11.684	64.4283
11.702	64.427
11.72	64.4156
11.738	64.399
11.756	64.3808
11.774	64.3613
11.792	64.3386
11.81	64.3108
11.828	64.2788
11.846	64.2481
11.864	64.2286
11.882	64.2296
11.9	64.2563
11.918	64.3058
11.936	64.368
11.954	64.4298
11.972	64.4776
11.99	64.5027
12.008	64.5023
12.026	64.4788
12.044	64.4369
12.062	64.3824
12.08	64.3194
12.098	64.2507
12.116	64.1776
12.134	64.1011
12.152	64.0223
12.17	63.944
12.188	63.8718
12.206	63.8134
12.224	63.7779
12.242	63.7733
12.26	63.8036
12.278	63.8667
12.296	63.9525
12.314	64.0444
12.332	64.1241
12.35	64.1761
12.368	64.1923
12.386	64.1745
12.404	64.1335
12.422	64.0843
12.44	64.0411
12.458	64.0119
12.476	63.9971
12.494	63.9892
12.512	63.9768
12.53	63.9492
12.548	63.9001
12.566	63.8307
12.584	63.7481
12.602	63.6636
12.62	63.5891
12.638	63.5336
12.656	63.5012
12.674	63.4911
12.692	63.4995
12.71	63.5201
12.728	63.5473
12.746	63.5769
12.764	63.607
12.782	63.6375
12.8	63.6693
12.818	63.7031
12.836	63.7389
12.854	63.7754
12.872	63.8099
12.89	63.8391
12.908	63.8598
12.926	63.8694
12.944	63.8663
12.962	63.8503
12.98	63.8222
12.998	63.784
13.016	63.7391
13.034	63.6918
13.052	63.6472
13.07	63.6105
13.088	63.5867
13.106	63.5797
13.124	63.592
13.142	63.6243
13.16	63.6751
13.178	63.7412
13.196	63.8178
13.214	63.8988
13.232	63.9778
13.25	64.0476
13.268	64.102
13.286	64.1351
13.304	64.1431
13.322	64.1244
13.34	64.0798
13.358	64.0126
13.376	63.9281
13.394	63.8331
13.412	63.7352
13.43	63.6414
13.448	63.5573
13.466	63.4867
13.484	63.4316
13.502	63.393
13.52	63.3705
13.538	63.3633
13.556	63.3699
13.574	63.3883
13.592	63.4161
13.61	63.4497
13.628	63.4853
13.646	63.5182
13.664	63.544
13.682	63.5588
13.7	63.5601
13.718	63.5469
13.736	63.5205
13.754	63.4836
13.772	63.4409
13.79	63.3984
13.808	63.3624
13.826	63.3384
13.844	63.3305
13.862	63.3411
13.88	63.3701
13.898	63.4143
13.916	63.4683
13.934	63.525
13.952	63.5765
13.97	63.6151
13.988	63.6349
14.006	63.6325
14.024	63.6074
14.042	63.5633
14.06	63.5065
14.078	63.4454
14.096	63.3887
14.114	63.3443
14.132	63.3177
14.15	63.3117
14.168	63.3258
14.186	63.3562
14.204	63.3973
14.222	63.4418
14.24	63.4834
14.258	63.5168
14.276	63.539
14.294	63.5486
14.312	63.546
14.33	63.5327
14.348	63.5103
14.366	63.4802
14.384	63.4423
14.402	63.3957
14.42	63.3388
14.438	63.2704
14.456	63.1902
14.474	63.0993
14.492	63.0005
14.51	62.8992
14.528	62.8022
14.546	62.7161
14.564	62.647
14.582	62.5991
14.6	62.5743
14.618	62.572
14.636	62.589
14.654	62.6207
14.672	62.6619
14.69	62.7075
14.708	62.753
14.726	62.7952
14.744	62.8321
14.762	62.863
14.78	62.8876
14.798	62.9061
14.816	62.9188
14.834	62.9258
14.852	62.9268
14.87	62.9213
14.888	62.9087
14.906	62.8891
14.924	62.8627
14.942	62.8307
14.96	62.7952
14.978	62.7588
14.996	62.7249
15.014	62.6969
15.032	62.6785
15.05	62.6726
15.068	62.6807
15.086	62.7037
15.104	62.7412
15.122	62.7916
15.14	62.8519
15.158	62.9184
15.176	62.9869
15.194	63.0529
15.212	63.1119
15.23	63.16
15.248	63.194
15.266	63.2113
15.284	63.2102
15.302	63.1903
15.32	63.152
15.338	63.0962
15.356	63.0244
15.374	62.9394
15.392	62.8439
15.41	62.741
15.428	62.6346
15.446	62.5283
15.464	62.4258
15.482	62.33
15.5	62.2433
15.518	62.1676
15.536	62.1032
15.554	62.0498
15.572	62.0062
15.59	61.9704
15.608	61.9402
15.626	61.9139
15.644	61.8902
15.662	61.8683
15.68	61.8487
15.698	61.8326
15.716	61.822
15.734	61.8199
15.752	61.8283
15.77	61.8494
15.788	61.8846
15.806	61.9335
15.824	61.9948
15.842	62.0663
15.86	62.1432
15.878	62.2216
15.896	62.2976
15.914	62.3664
15.932	62.4251
15.95	62.472
15.968	62.5058
15.986	62.5274
16.004	62.5387
16.022	62.5415
16.04	62.5396
16.058	62.5357
16.076	62.532
16.094	62.5312
16.112	62.534
16.13	62.5407
16.148	62.5514
16.166	62.5642
16.184	62.5775
16.202	62.5895
16.22	62.597
16.238	62.5987
16.256	62.5932
16.274	62.5796
16.292	62.5584
16.31	62.5299
16.328	62.4964
16.346	62.4602
16.364	62.4236
16.382	62.3901
16.4	62.3622
16.418	62.3416
16.436	62.3303
16.454	62.3281
16.472	62.3348
16.49	62.3484
16.508	62.3663
16.526	62.3861
16.544	62.403
16.562	62.414
16.58	62.4162
16.598	62.4064
16.616	62.3841
16.634	62.3486
16.652	62.3015
16.67	62.2448
16.688	62.1805
16.706	62.1137
16.724	62.0467
16.742	61.9833
16.76	61.9267
16.778	61.8779
16.796	61.8386
16.814	61.8083
16.832	61.7867
16.85	61.772
16.868	61.7623
16.886	61.756
16.904	61.7505
16.922	61.7447
16.94	61.7374
16.958	61.7286
16.976	61.7183
16.994	61.7073
17.012	61.6972
17.03	61.6891
17.048	61.6851
17.066	61.686
17.084	61.693
17.102	61.7063
17.12	61.7257
17.138	61.7499
17.156	61.7771
17.174	61.8057
17.192	61.832
17.21	61.8544
17.228	61.8695
17.246	61.8751
17.264	61.8696
17.282	61.8512
17.3	61.8198
17.318	61.7753
17.336	61.7195
17.354	61.6531
17.372	61.5801
17.39	61.5021
17.408	61.4232
17.426	61.3466
17.444	61.2746
17.462	61.2114
17.48	61.1576
17.498	61.1163
17.516	61.0871
17.534	61.0708
17.552	61.0662
17.57	61.0726
17.588	61.0875
17.606	61.1091
17.624	61.1347
17.642	61.1612
17.66	61.1873
17.678	61.2095
17.696	61.2272
17.714	61.2384
17.732	61.2432
17.75	61.2408
17.768	61.2323
17.786	61.2178
17.804	61.1991
17.822	61.1767
17.84	61.1528
17.858	61.128
17.876	61.1038
17.894	61.0811
17.912	61.0603
17.93	61.042
17.948	61.0261
17.966	61.0125
17.984	61.0009
18.002	60.991
18.02	60.9823
18.038	60.9747
18.056	60.9676
18.074	60.961
18.092	60.9547
18.11	60.9487
18.128	60.9431
18.146	60.9379
18.164	60.9331
18.182	60.9285
18.2	60.9241
18.218	60.9195
18.236	60.9145
18.254	60.9087
18.272	60.9019
18.29	60.8941
18.308	60.8851
18.326	60.8754
18.344	60.8652
18.362	60.8555
18.38	60.8466
18.398	60.84
18.416	60.8366
18.434	60.8378
18.452	60.8446
18.47	60.8576
18.488	60.8773
18.506	60.9042
18.524	60.9369
18.542	60.9755
18.56	61.0171
18.578	61.0615
18.596	61.1044
18.614	61.1457
18.632	61.1809
18.65	61.2099
18.668	61.2291
18.686	61.2386
18.704	61.2364
18.722	61.223
18.74	61.1985
18.758	61.164
18.776	61.1216
18.794	61.0725
18.812	61.0199
18.83	60.9653
18.848	60.9121
18.866	60.8613
18.884	60.8156
18.902	60.7753
18.92	60.7419
18.938	60.7147
18.956	60.6936
18.974	60.6772
18.992	60.6641
19.01	60.6528
19.028	60.6409
19.046	60.6277
19.064	60.6107
19.082	60.59
19.1	60.5638
19.118	60.5331
19.136	60.4978
19.154	60.4592
19.172	60.419
19.19	60.3785
19.208	60.3411
19.226	60.3074
19.244	60.2817
19.262	60.2639
19.28	60.2575
19.298	60.2621
19.316	60.2792
19.334	60.3085
19.352	60.3486
19.37	60.3993
19.388	60.4568
19.406	60.5214
19.424	60.5869
19.442	60.6536
19.46	60.715
19.478	60.7708
19.496	60.8159
19.514	60.8488
19.532	60.867
19.55	60.8682
19.568	60.8528
19.586	60.819
19.604	60.7685
19.622	60.7021
19.64	60.621
19.658	60.5294
19.676	60.4272
19.694	60.3213
19.712	60.2109
19.73	60.1031
19.748	59.9977
19.766	59.9001
19.784	59.8115
19.802	59.7339
19.82	59.6693
19.838	59.6173
19.856	59.5793
19.874	59.5542
19.892	59.5402
19.91	59.5372
19.928	59.5408
19.946	59.5517
19.964	59.5641
19.982	59.578
20	59.5894
20.018	59.5962
20.036	59.5973
20.054	59.5895
20.072	59.5734
20.09	59.5475
20.108	59.5119
20.126	59.4679
20.144	59.4148
20.162	59.3559
20.18	59.2917
20.198	59.2248
20.216	59.1585
20.234	59.0931
20.252	59.0341
20.27	58.9808
20.288	58.9379
20.306	58.9056
20.324	58.8857
20.342	58.8799
20.36	58.8876
20.378	58.9097
20.396	58.9458
20.414	58.9937
20.432	59.0541
20.45	59.1233
20.468	59.2008
20.486	59.2845
20.504	59.3702
20.522	59.4585
20.54	59.5432
20.558	59.6253
20.576	59.7005
20.594	59.7669
20.612	59.8241
20.63	59.8685
20.648	59.9011
20.666	59.9203
20.684	59.9259
20.702	59.9187
20.72	59.8987
20.738	59.8667
20.756	59.8255
20.774	59.7743
20.792	59.7172
20.81	59.6541
20.828	59.5875
20.846	59.5208
20.864	59.4532
20.882	59.3898
20.9	59.3299
20.918	59.2758
20.936	59.2298
20.954	59.1911
20.972	59.162
20.99	59.1425
21.008	59.1319
21.026	59.131
21.044	59.1385
21.062	59.1531
21.08	59.1752
21.098	59.2013
21.116	59.2312
21.134	59.2635
21.152	59.2945
21.17	59.3254
21.188	59.3517
21.206	59.3732
21.224	59.3887
21.242	59.3951
21.26	59.3934
21.278	59.3812
21.296	59.3579
21.314	59.3237
21.332	59.2779
21.35	59.2205
21.368	59.1527
21.386	59.0739
21.404	58.9856
21.422	58.8902
21.44	58.7869
21.458	58.6791
21.476	58.5679
21.494	58.4539
21.512	58.3422
21.53	58.2313
21.548	58.1255
21.566	58.028
21.584	57.9378
21.602	57.8607
21.62	57.7962
21.638	57.7464
21.656	57.7152
21.674	57.7012
21.692	57.7066
21.71	57.7325
21.728	57.7779
21.746	57.8428
21.764	57.9281
21.782	58.0305
21.8	58.1484
21.818	58.2823
21.836	58.4252
21.854	58.5782
21.872	58.7378
21.89	58.8958
21.908	59.0558
21.926	59.2096
21.944	59.3523
21.962	59.4859
21.98	59.6018
21.998	59.6996
22.016	59.7783
22.034	59.8325
22.052	59.8635
22.07	59.8705
22.088	59.8522
22.106	59.809
22.124	59.7439
22.142	59.6557
22.16	59.5467
22.178	59.4231
22.196	59.2823
22.214	59.13
22.232	58.9732
22.25	58.8085
22.268	58.6439
22.286	58.4838
22.304	58.326
22.322	58.178
22.34	58.0411
22.358	57.9149
22.376	57.8037
22.394	57.7074
22.412	57.6256
22.43	57.5592
22.448	57.5085
22.466	57.4711
22.484	57.4454
22.502	57.4325
22.52	57.4275
22.538	57.4288
22.556	57.437
22.574	57.4464
22.592	57.4568
22.61	57.4678
22.628	57.4746
22.646	57.4781
22.664	57.4772
22.682	57.4685
22.7	57.4529
22.718	57.4297
22.736	57.3977
22.754	57.357
22.772	57.3086
22.79	57.2526
22.808	57.1886
22.826	57.1189
22.844	57.0449
22.862	56.9657
22.88	56.8838
22.898	56.8004
22.916	56.7146
22.934	56.6293
22.952	56.5454
22.97	56.4621
22.988	56.3817
23.006	56.3044
23.024	56.23
23.042	56.16
23.06	56.0947
23.078	56.0338
23.096	55.9776
23.114	55.926
23.132	55.8792
23.15	55.8377
23.168	55.8014
23.186	55.7703
23.204	55.7448
23.222	55.7242
23.24	55.7092
23.258	55.7015
23.276	55.7006
23.294	55.7069
23.312	55.722
23.33	55.745
23.348	55.7768
23.366	55.8204
23.384	55.8746
23.402	55.9405
23.42	56.0224
23.438	56.1204
23.456	56.2342
23.474	56.366
23.492	56.5174
23.51	56.6867
23.528	56.8724
23.546	57.0748
23.564	57.2937
23.582	57.5246
23.6	57.7667
23.618	58.0212
23.636	58.2818
23.654	58.5461
23.672	58.8172
23.69	59.0867
23.708	59.3497
23.726	59.611
23.744	59.8626
23.762	60.0977
23.78	60.3213
23.798	60.5277
23.816	60.7104
23.834	60.8722
23.852	61.0114
23.87	61.1239
23.888	61.2089
23.906	61.2687
23.924	61.3049
23.942	61.3152
23.96	61.3019
23.978	61.2726
23.996	61.2279
24.014	61.1655
24.032	61.0976
24.05	61.0304
24.068	60.9569
24.086	60.8893
24.104	60.8388
24.122	60.7974
24.14	60.773
24.158	60.7779
24.176	60.8088
24.194	60.8665
24.212	60.9587
24.23	61.0875
24.248	61.2501
24.266	61.4483
24.284	61.6846
24.302	61.9587
24.32	62.2653
24.338	62.6003
24.356	62.9697
24.374	63.3648
24.392	63.7733
24.41	64.2008
24.428	64.644
24.446	65.0861
24.464	65.5215
24.482	65.9582
24.5	66.3818
24.518	66.7806
24.536	67.1634
24.554	67.5227
24.572	67.8472
24.59	68.1401
24.608	68.4009
24.626	68.6201
24.644	68.7919
24.662	68.9208
24.68	69.0075
24.698	69.0523
24.716	69.0545
24.734	69.0156
24.752	68.9378
24.77	68.8152
24.788	68.6511
24.806	68.4623
24.824	68.2578
24.842	68.0215
24.86	67.7787
24.878	67.5589
24.896	67.346
24.914	67.1477
24.932	67.0015
24.95	66.9242
24.968	66.8912
24.986	66.9357
25.004	67.0926
25.022	67.347
25.04	67.7023
25.058	68.1822
25.076	68.7996
25.094	69.5418
25.112	70.4122
25.13	71.4159
25.148	72.5625
25.166	73.8371
25.184	75.2168
25.202	76.6991
25.22	78.3018
25.238	79.9799
25.256	81.6881
25.274	83.458
25.292	85.2723
25.31	87.0723
25.328	88.828
25.346	90.5816
25.364	92.2858
25.382	93.8853
25.4	95.3939
25.418	96.8182
25.436	98.1166
25.454	99.2568
25.472	100.263
25.49	101.127
25.508	101.83
25.526	102.366
25.544	102.745
25.562	102.965
25.58	103.025
25.598	102.918
25.616	102.655
25.634	102.252
25.652	101.717
25.67	101.035
25.688	100.228
25.706	99.3187
25.724	98.302
25.742	97.1715
25.76	95.9593
25.778	94.6946
25.796	93.349
25.814	91.9403
25.832	90.5114
25.85	89.087
25.868	87.6289
25.886	86.1753
25.904	84.7742
25.922	83.4269
25.94	82.1058
25.958	80.8677
25.976	79.7695
25.994	78.7868
26.012	77.9162
26.03	77.2059
26.048	76.6972
26.066	76.3589
26.084	76.2006
26.102	76.2513
26.12	76.5337
26.138	77.0336
26.156	77.7436
26.174	78.6592
26.192	79.7899
26.21	81.1432
26.228	82.6792
26.246	84.3568
26.264	86.1968
26.282	88.2093
26.3	90.3219
26.318	92.4642
26.336	94.683
26.354	96.9719
26.372	99.2468
26.39	101.432
26.408	103.594
26.426	105.708
26.444	107.688
26.462	109.467
26.48	111.107
26.498	112.585
26.516	113.84
26.534	114.829
26.552	115.598
26.57	116.129
26.588	116.387
26.606	116.35
26.624	116.038
26.642	115.451
26.66	114.587
26.678	113.437
26.696	111.997
26.714	110.288
26.732	108.338
26.75	106.15
26.768	103.701
26.786	101.026
26.804	98.1653
26.822	95.1296
26.84	91.8775
26.858	88.4627
26.876	84.9452
26.894	81.3448
26.912	77.6038
26.93	73.7845
26.948	69.9573
26.966	65.996
26.984	61.6042
27.002	57.4241
27.02	54.1581
27.028	53.2821