File: Bakgrunnsmateriale/MATLAB/FTIR/ftir_data/subBb/Mapping_121/C-4040-8_t34.asc
PE IR       SPECTRUM    SPECTRUM    ASCII       PEDS        1.60
  -1
C-B13A~1.ASC
17/03/27
17:16:13.00
17/03/27
17:16:39.00
tln
$C-4040-8_t0034$<tbV0>[13.0,-5.2,8.0,0.0,27,1,0]
27.028
64

2002,4.07
MIRTGS : RIGHTBACK : INTERNAL 2
MIR : ON : INTERNAL 2
OPTKBR

0.200000
8
8.000000
FILLER
RATIO
SPECTRUM
UNLOCKED 256

DOUBLE
64
COMBINED
1
0
0

0.002000
RATIO

1
0
TRUE
51149
0
LEFT NOT FITTED RIGHT NOT FITTED 0
NONE
NONE
15600
12
4.427000
51148
TRUE
1 0 8 72 0 0 0 0

15798

#HDR
-1
-1
#GR
µM
%T
2.38419e-05
0.0
2.000000
0.002000
12515
8
93.9398
47.9278
#DATA
2.000000	 64.4539
2.018000	 64.6591
2.036000	 64.4021
2.054000	 65.1856
2.072000	 65.0167
2.090000	 64.8044
2.108000	 65.1636
2.126000	 65.0592
2.144000	 65.175
2.162000	 64.8187
2.180000	 64.7365
2.198000	 64.8561
2.216000	 64.7255
2.234000	 64.7147
2.252000	 64.0801
2.270000	 63.8706
2.288000	 62.2562
2.306000	 65.2591
2.324000	 64.132
2.342000	 64.0957
2.360000	 64.3995
2.378000	 64.9625
2.396000	 64.688
2.414000	 65.1879
2.432000	 64.8449
2.450000	 65.0103
2.468000	 64.9552
2.486000	 65.1229
2.504000	 64.9976
2.522000	 65.0661
2.540000	 64.9567
2.558000	 64.7989
2.576000	 65.0407
2.594000	 64.9548
2.612000	 64.8749
2.630000	 64.7823
2.648000	 64.9899
2.666000	 65.2524
2.684000	 65.1359
2.702000	 65.0498
2.720000	 65.172
2.738000	 64.995
2.756000	 65.1353
2.774000	 65.0486
2.792000	 65.0119
2.810000	 65.0298
2.828000	 65.3126
2.846000	 65.2889
2.864000	 65.1871
2.882000	 65.2722
2.900000	 65.2082
2.918000	 64.9957
2.936000	 64.9788
2.954000	 64.9097
2.972000	 65.0447
2.990000	 64.9675
3.008000	 65.0565
3.026000	 65.1994
3.044000	 65.2223
3.062000	 65.1917
3.080000	 65.0603
3.098000	 65.0343
3.116000	 64.9186
3.134000	 65.1096
3.152000	 65.2409
3.170000	 64.9663
3.188000	 65.2157
3.206000	 65.2409
3.224000	 65.2896
3.242000	 65.048
3.260000	 65.1191
3.278000	 65.0753
3.296000	 65.2644
3.314000	 65.1124
3.332000	 65.0517
3.350000	 65.1088
3.368000	 65.145
3.386000	 65.0058
3.404000	 65.0648
3.422000	 64.842
3.440000	 64.9121
3.458000	 65.1873
3.476000	 64.9498
3.494000	 64.9753
3.512000	 64.9743
3.530000	 65.0861
3.548000	 65.2546
3.566000	 65.2866
3.584000	 65.2161
3.602000	 65.2444
3.620000	 65.2736
3.638000	 65.1736
3.656000	 65.194
3.674000	 65.2643
3.692000	 65.199
3.710000	 65.326
3.728000	 65.2332
3.746000	 65.3267
3.764000	 65.2272
3.782000	 65.1842
3.800000	 65.3026
3.818000	 65.1801
3.836000	 65.3027
3.854000	 65.2243
3.872000	 65.1068
3.890000	 65.2621
3.908000	 65.1601
3.926000	 65.2864
3.944000	 65.2953
3.962000	 65.2472
3.980000	 65.1091
3.998000	 65.1686
4.016000	 65.1084
4.034000	 65.1711
4.052000	 65.1428
4.070000	 65.2717
4.088000	 65.238
4.106000	 65.1069
4.124000	 65.3194
4.141999	 65.1841
4.160000	 65.0962
4.178000	 65.3687
4.196000	 65.3344
4.214000	 65.3863
4.232000	 65.2875
4.250000	 65.254
4.268000	 65.4161
4.286000	 65.3061
4.304000	 65.324
4.322000	 65.2981
4.340000	 65.3171
4.358000	 65.2728
4.375999	 65.3332
4.394000	 65.1999
4.412000	 65.2755
4.430000	 65.1985
4.448000	 65.2687
4.466000	 65.4152
4.484000	 65.296
4.502000	 65.1268
4.520000	 65.2162
4.538000	 65.2967
4.556000	 65.3509
4.574000	 65.3585
4.592000	 65.3775
4.609999	 65.2954
4.628000	 65.2476
4.646000	 65.1951
4.664000	 65.1777
4.682000	 65.2954
4.700000	 65.3604
4.718000	 65.2648
4.736000	 65.2517
4.754000	 65.3146
4.772000	 65.2626
4.790000	 65.4005
4.808000	 65.4024
4.826000	 65.285
4.843999	 65.2003
4.862000	 65.4395
4.880000	 65.2476
4.898000	 65.3036
4.916000	 65.2633
4.934000	 65.226
4.952000	 65.2749
4.970000	 65.31
4.988000	 65.3892
5.006000	 65.4233
5.024000	 65.2953
5.042000	 65.3261
5.060000	 65.3389
5.077999	 65.2685
5.096000	 65.3598
5.114000	 65.385
5.132000	 65.3023
5.150000	 65.2761
5.168000	 65.3462
5.186000	 65.478
5.204000	 65.3435
5.222000	 65.3008
5.240000	 65.2702
5.258000	 65.2712
5.276000	 65.3819
5.294000	 65.2812
5.312000	 65.2539
5.330000	 65.311
5.348000	 65.3183
5.366000	 65.3049
5.384000	 65.2721
5.402000	 65.2694
5.420000	 65.323
5.438000	 65.3221
5.456000	 65.1718
5.474000	 65.2135
5.492000	 65.3047
5.510000	 65.3262
5.528000	 65.2859
5.546000	 65.2078
5.564000	 65.2369
5.582000	 65.1891
5.600000	 65.194
5.618000	 65.1844
5.636000	 65.209
5.654000	 65.252
5.672000	 65.1929
5.690000	 65.213
5.708000	 65.2852
5.726000	 65.1834
5.744000	 65.1038
5.762000	 64.9918
5.780000	 64.9727
5.798000	 65.0386
5.816000	 65.1407
5.834000	 65.2319
5.852000	 65.3794
5.870000	 65.3435
5.888000	 65.2881
5.906000	 65.2704
5.923999	 65.3159
5.942000	 65.2849
5.960000	 65.1587
5.978000	 65.0784
5.996000	 65.0758
6.014000	 65.1065
6.032000	 65.1487
6.050000	 65.1503
6.068000	 65.155
6.086000	 65.1631
6.104000	 65.1801
6.122000	 65.1997
6.140000	 65.1799
6.158000	 65.153
6.176000	 65.1687
6.194000	 65.1849
6.212000	 65.1629
6.230000	 65.2145
6.248000	 65.2567
6.266000	 65.2069
6.284000	 65.1946
6.302000	 65.1911
6.320000	 65.1183
6.338000	 65.065
6.356000	 65.0529
6.374000	 65.0253
6.392000	 64.996
6.410000	 65.0099
6.428000	 64.99
6.446000	 65.0018
6.464000	 65.0016
6.482000	 64.9431
6.500000	 64.9434
6.518000	 64.9627
6.536000	 64.9571
6.554000	 64.9699
6.572000	 65.043
6.590000	 65.1375
6.608000	 65.2098
6.626000	 65.2105
6.644000	 65.1585
6.662000	 65.1506
6.680000	 65.2095
6.698000	 65.221
6.716000	 65.1422
6.734000	 65.114
6.752000	 65.1039
6.770000	 65.0924
6.788000	 65.0956
6.806000	 65.0384
6.824000	 64.9834
6.842000	 65.0017
6.860000	 65.0352
6.878000	 65.0169
6.896000	 65.0515
6.914000	 65.2379
6.932000	 65.322
6.950000	 65.1644
6.968000	 65.0204
6.986000	 65.0083
7.004000	 64.9886
7.022000	 64.9482
7.040000	 64.9647
7.058000	 65.0288
7.076000	 65.0652
7.094000	 65.0306
7.112000	 65.002
7.130000	 65.0532
7.148000	 65.1408
7.166000	 65.1816
7.184000	 65.1302
7.202000	 65.0242
7.220000	 64.9414
7.238000	 64.9193
7.256000	 64.955
7.274000	 65.0018
7.292000	 65.0237
7.310000	 65.0344
7.328000	 65.0397
7.346000	 65.0424
7.364000	 65.0776
7.382000	 65.1327
7.400000	 65.1174
7.418000	 65.0011
7.436000	 64.9003
7.454000	 64.9374
7.472000	 65.0534
7.490000	 65.0835
7.508000	 65.0072
7.526000	 64.9634
7.544000	 65.0247
7.562000	 65.1127
7.580000	 65.1426
7.598000	 65.1146
7.616000	 65.0725
7.634000	 65.0474
7.652000	 65.0334
7.670000	 65.0018
7.688000	 64.9579
7.706000	 64.9388
7.724000	 64.9415
7.742000	 64.9322
7.760000	 64.9101
7.778000	 64.9028
7.796000	 64.9339
7.814000	 65.0048
7.832000	 65.0697
7.850000	 65.0751
7.868000	 65.0368
7.886000	 65.0127
7.904000	 65.0245
7.922000	 65.0393
7.940000	 65.0175
7.958000	 64.9716
7.976000	 64.9542
7.994000	 64.984
8.012000	 65.0189
8.030000	 65.019
8.048000	 64.9913
8.065999	 64.9547
8.084000	 64.9168
8.102000	 64.8918
8.120000	 64.8991
8.138000	 64.9215
8.155999	 64.9133
8.173999	 64.8723
8.192000	 64.847
8.210000	 64.8542
8.228000	 64.8605
8.246000	 64.8476
8.263999	 64.8287
8.282000	 64.8023
8.300000	 64.7604
8.318000	 64.7302
8.336000	 64.7451
8.353999	 64.7978
8.372000	 64.8552
8.390000	 64.8944
8.408000	 64.914
8.426000	 64.9258
8.443999	 64.9413
8.462000	 64.9654
8.480000	 64.992
8.498000	 65.0015
8.516000	 64.9676
8.533999	 64.8801
8.552000	 64.7636
8.570000	 64.6568
8.588000	 64.576
8.606000	 64.5245
8.624000	 64.5208
8.641999	 64.583
8.660000	 64.6791
8.678000	 64.7373
8.696000	 64.7235
8.714000	 64.6847
8.731999	 64.6929
8.750000	 64.7659
8.768000	 64.865
8.786000	 64.9429
8.804000	 64.97
8.821999	 64.9306
8.840000	 64.8364
8.858000	 64.7403
8.876000	 64.698
8.894000	 64.711
8.911999	 64.7246
8.930000	 64.6994
8.948000	 64.6584
8.966000	 64.6526
8.984000	 64.6902
9.001999	 64.7289
9.020000	 64.7293
9.038000	 64.7006
9.056000	 64.6826
9.074000	 64.6893
9.092000	 64.6836
9.109999	 64.6211
9.128000	 64.5054
9.146000	 64.3888
9.164000	 64.3234
9.182000	 64.3274
9.199999	 64.3913
9.218000	 64.5045
9.236000	 64.661
9.254000	 64.8431
9.272000	 65.0113
9.289999	 65.1147
9.308000	 65.1111
9.326000	 64.9928
9.344000	 64.8038
9.362000	 64.6203
9.379999	 64.5023
9.398000	 64.462
9.416000	 64.4805
9.434000	 64.5449
9.452000	 64.6578
9.469999	 64.8098
9.488000	 64.9598
9.506000	 65.0568
9.524000	 65.0829
9.542000	 65.0575
9.560000	 65.0046
9.577999	 64.931
9.596000	 64.8415
9.614000	 64.7564
9.632000	 64.7069
9.650000	 64.7073
9.667999	 64.7387
9.686000	 64.7673
9.704000	 64.7761
9.722000	 64.7811
9.740000	 64.8131
9.757999	 64.8873
9.776000	 64.9835
9.794000	 65.0534
9.812000	 65.0512
9.830000	 64.9716
9.847999	 64.8598
9.866000	 64.7803
9.884000	 64.7679
9.902000	 64.8056
9.920000	 64.8417
9.937999	 64.837
9.956000	 64.7949
9.974000	 64.7481
9.992000	 64.7212
10.01	64.7078
10.028	64.6829
10.046	64.6346
10.064	64.5826
10.082	64.5635
10.1	64.6055
10.118	64.7048
10.136	64.8258
10.154	64.9232
10.172	64.9648
10.19	64.9454
10.208	64.8873
10.226	64.8233
10.244	64.7815
10.262	64.7687
10.28	64.77
10.298	64.7587
10.316	64.7107
10.334	64.6186
10.352	64.4933
10.37	64.3596
10.388	64.2476
10.406	64.1828
10.424	64.1805
10.442	64.2384
10.46	64.3371
10.478	64.4434
10.496	64.5256
10.514	64.5685
10.532	64.578
10.55	64.5719
10.568	64.566
10.586	64.564
10.604	64.5586
10.622	64.5434
10.64	64.5229
10.658	64.5104
10.676	64.5194
10.694	64.5502
10.712	64.5877
10.73	64.6093
10.748	64.5988
10.766	64.5558
10.784	64.4942
10.802	64.4371
10.82	64.4045
10.838	64.4086
10.856	64.4506
10.874	64.5222
10.892	64.608
10.91	64.6878
10.928	64.7428
10.946	64.7595
10.964	64.7365
10.982	64.6843
11	64.6204
11.018	64.5629
11.036	64.5212
11.054	64.4948
11.072	64.4759
11.09	64.4554
11.108	64.4281
11.126	64.3946
11.144	64.3594
11.162	64.3279
11.18	64.3035
11.198	64.2879
11.216	64.2826
11.234	64.2902
11.252	64.3128
11.27	64.3494
11.288	64.3941
11.306	64.4369
11.324	64.4661
11.342	64.4744
11.36	64.4613
11.378	64.4331
11.396	64.3984
11.414	64.3654
11.432	64.3378
11.45	64.3161
11.468	64.3006
11.486	64.2942
11.504	64.3021
11.522	64.3292
11.54	64.3759
11.558	64.4351
11.576	64.4932
11.594	64.5363
11.612	64.5544
11.63	64.5463
11.648	64.5192
11.666	64.4855
11.684	64.4577
11.702	64.4425
11.72	64.4397
11.738	64.4433
11.756	64.4446
11.774	64.4362
11.792	64.4152
11.81	64.3831
11.828	64.3443
11.846	64.3034
11.864	64.264
11.882	64.2278
11.9	64.1966
11.918	64.1725
11.936	64.1583
11.954	64.1559
11.972	64.1651
11.99	64.1822
12.008	64.2013
12.026	64.2157
12.044	64.2206
12.062	64.2158
12.08	64.2055
12.098	64.1961
12.116	64.1924
12.134	64.1945
12.152	64.1981
12.17	64.1969
12.188	64.1859
12.206	64.165
12.224	64.1381
12.242	64.1115
12.26	64.0904
12.278	64.0779
12.296	64.0742
12.314	64.0777
12.332	64.0863
12.35	64.0981
12.368	64.1106
12.386	64.121
12.404	64.1261
12.422	64.1237
12.44	64.1121
12.458	64.0928
12.476	64.0704
12.494	64.0518
12.512	64.0441
12.53	64.0526
12.548	64.0785
12.566	64.1183
12.584	64.1659
12.602	64.2138
12.62	64.2562
12.638	64.2899
12.656	64.3147
12.674	64.3318
12.692	64.3424
12.71	64.3467
12.728	64.3434
12.746	64.3307
12.764	64.3064
12.782	64.2695
12.8	64.221
12.818	64.1642
12.836	64.104
12.854	64.0455
12.872	63.9935
12.89	63.9504
12.908	63.9162
12.926	63.8891
12.944	63.8657
12.962	63.8426
12.98	63.8175
12.998	63.7891
13.016	63.7578
13.034	63.7255
13.052	63.694
13.07	63.6652
13.088	63.6404
13.106	63.621
13.124	63.6077
13.142	63.6015
13.16	63.6036
13.178	63.6157
13.196	63.6386
13.214	63.6721
13.232	63.7142
13.25	63.7616
13.268	63.8095
13.286	63.8537
13.304	63.891
13.322	63.9207
13.34	63.9445
13.358	63.9658
13.376	63.9883
13.394	64.015
13.412	64.0465
13.43	64.0801
13.448	64.111
13.466	64.1325
13.484	64.1384
13.502	64.1232
13.52	64.0842
13.538	64.0226
13.556	63.9427
13.574	63.8517
13.592	63.758
13.61	63.67
13.628	63.5951
13.646	63.538
13.664	63.5008
13.682	63.483
13.7	63.482
13.718	63.494
13.736	63.5148
13.754	63.5397
13.772	63.5647
13.79	63.5864
13.808	63.6023
13.826	63.6098
13.844	63.607
13.862	63.5925
13.88	63.5658
13.898	63.5275
13.916	63.4798
13.934	63.427
13.952	63.3748
13.97	63.33
13.988	63.2989
14.006	63.2867
14.024	63.2959
14.042	63.3253
14.06	63.3707
14.078	63.4254
14.096	63.4817
14.114	63.5322
14.132	63.5712
14.15	63.5952
14.168	63.6033
14.186	63.5971
14.204	63.5798
14.222	63.5554
14.24	63.5271
14.258	63.4968
14.276	63.4653
14.294	63.4324
14.312	63.3971
14.33	63.3584
14.348	63.3158
14.366	63.2701
14.384	63.2235
14.402	63.1791
14.42	63.1403
14.438	63.1101
14.456	63.0904
14.474	63.0818
14.492	63.0832
14.51	63.0922
14.528	63.105
14.546	63.1179
14.564	63.1273
14.582	63.1305
14.6	63.1257
14.618	63.1122
14.636	63.0906
14.654	63.0619
14.672	63.0273
14.69	62.9882
14.708	62.9459
14.726	62.9017
14.744	62.8575
14.762	62.8148
14.78	62.7756
14.798	62.7423
14.816	62.7176
14.834	62.7041
14.852	62.7035
14.87	62.7168
14.888	62.7435
14.906	62.782
14.924	62.8298
14.942	62.8825
14.96	62.936
14.978	62.986
14.996	63.0292
15.014	63.0632
15.032	63.0868
15.05	63.1008
15.068	63.107
15.086	63.1078
15.104	63.106
15.122	63.1047
15.14	63.1056
15.158	63.1093
15.176	63.1153
15.194	63.1224
15.212	63.1279
15.23	63.1292
15.248	63.1242
15.266	63.1109
15.284	63.0884
15.302	63.0573
15.32	63.019
15.338	62.9754
15.356	62.9289
15.374	62.8826
15.392	62.8382
15.41	62.797
15.428	62.76
15.446	62.7266
15.464	62.6956
15.482	62.6658
15.5	62.6353
15.518	62.6027
15.536	62.5672
15.554	62.5287
15.572	62.4874
15.59	62.4453
15.608	62.404
15.626	62.3657
15.644	62.3327
15.662	62.3072
15.68	62.2901
15.698	62.282
15.716	62.2828
15.734	62.2911
15.752	62.3054
15.77	62.3239
15.788	62.3443
15.806	62.3651
15.824	62.3853
15.842	62.4041
15.86	62.4216
15.878	62.4388
15.896	62.4567
15.914	62.477
15.932	62.5011
15.95	62.5297
15.968	62.5634
15.986	62.6016
16.004	62.6428
16.022	62.6851
16.04	62.7252
16.058	62.76
16.076	62.7866
16.094	62.8017
16.112	62.803
16.13	62.7896
16.148	62.7608
16.166	62.7178
16.184	62.6623
16.202	62.5965
16.22	62.5248
16.238	62.4502
16.256	62.3759
16.274	62.307
16.292	62.2461
16.31	62.1957
16.328	62.159
16.346	62.137
16.364	62.1307
16.382	62.1402
16.4	62.1645
16.418	62.2027
16.436	62.2522
16.454	62.3101
16.472	62.3743
16.49	62.4401
16.508	62.5042
16.526	62.5635
16.544	62.6137
16.562	62.6521
16.58	62.6767
16.598	62.6856
16.616	62.6787
16.634	62.656
16.652	62.6194
16.67	62.5707
16.688	62.5121
16.706	62.4477
16.724	62.3798
16.742	62.3111
16.76	62.2451
16.778	62.1828
16.796	62.1264
16.814	62.0764
16.832	62.0333
16.85	61.9965
16.868	61.9656
16.886	61.9401
16.904	61.9183
16.922	61.8997
16.94	61.883
16.958	61.8673
16.976	61.852
16.994	61.8362
17.012	61.8199
17.03	61.8031
17.048	61.7858
17.066	61.7684
17.084	61.7516
17.102	61.7362
17.12	61.7226
17.138	61.712
17.156	61.7047
17.174	61.7014
17.192	61.7024
17.21	61.7077
17.228	61.7171
17.246	61.7297
17.264	61.7452
17.282	61.7618
17.3	61.7787
17.318	61.7941
17.336	61.8065
17.354	61.8151
17.372	61.8183
17.39	61.8161
17.408	61.808
17.426	61.7948
17.444	61.7767
17.462	61.7556
17.48	61.7321
17.498	61.7084
17.516	61.6858
17.534	61.6655
17.552	61.6493
17.57	61.6374
17.588	61.631
17.606	61.6298
17.624	61.634
17.642	61.6428
17.66	61.656
17.678	61.6724
17.696	61.6916
17.714	61.7124
17.732	61.7342
17.75	61.7563
17.768	61.7777
17.786	61.798
17.804	61.8164
17.822	61.8327
17.84	61.8459
17.858	61.8557
17.876	61.8617
17.894	61.8633
17.912	61.8601
17.93	61.8517
17.948	61.8379
17.966	61.8185
17.984	61.7935
18.002	61.7629
18.02	61.7274
18.038	61.6873
18.056	61.6437
18.074	61.5971
18.092	61.5493
18.11	61.5005
18.128	61.4529
18.146	61.4067
18.164	61.3636
18.182	61.3239
18.2	61.2887
18.218	61.2584
18.236	61.2333
18.254	61.2136
18.272	61.1995
18.29	61.1905
18.308	61.1868
18.326	61.1877
18.344	61.193
18.362	61.2024
18.38	61.2155
18.398	61.2319
18.416	61.2512
18.434	61.2731
18.452	61.2969
18.47	61.3223
18.488	61.3482
18.506	61.3743
18.524	61.399
18.542	61.4221
18.56	61.4417
18.578	61.4575
18.596	61.4677
18.614	61.4721
18.632	61.4692
18.65	61.4592
18.668	61.4413
18.686	61.4159
18.704	61.3834
18.722	61.3443
18.74	61.3001
18.758	61.2516
18.776	61.201
18.794	61.1492
18.812	61.0988
18.83	61.0507
18.848	61.0072
18.866	60.969
18.884	60.938
18.902	60.9144
18.92	60.8994
18.938	60.8926
18.956	60.8944
18.974	60.9038
18.992	60.9202
19.01	60.9424
19.028	60.9691
19.046	60.9991
19.064	61.0304
19.082	61.0621
19.1	61.092
19.118	61.1195
19.136	61.1429
19.154	61.1619
19.172	61.175
19.19	61.1824
19.208	61.1835
19.226	61.1787
19.244	61.1683
19.262	61.1527
19.28	61.1333
19.298	61.1103
19.316	61.0857
19.334	61.0596
19.352	61.034
19.37	61.0089
19.388	60.9863
19.406	60.9661
19.424	60.9494
19.442	60.9362
19.46	60.9266
19.478	60.9208
19.496	60.9179
19.514	60.9179
19.532	60.9195
19.55	60.9221
19.568	60.9247
19.586	60.9261
19.604	60.9262
19.622	60.9238
19.64	60.919
19.658	60.9112
19.676	60.9006
19.694	60.8874
19.712	60.8717
19.73	60.8545
19.748	60.8356
19.766	60.8165
19.784	60.7973
19.802	60.7788
19.82	60.7615
19.838	60.7454
19.856	60.7309
19.874	60.7178
19.892	60.7058
19.91	60.6949
19.928	60.6839
19.946	60.673
19.964	60.6609
19.982	60.6475
20	60.6321
20.018	60.6141
20.036	60.5936
20.054	60.57
20.072	60.5438
20.09	60.5154
20.108	60.4846
20.126	60.4533
20.144	60.4211
20.162	60.3901
20.18	60.361
20.198	60.3347
20.216	60.3135
20.234	60.297
20.252	60.2878
20.27	60.2853
20.288	60.2911
20.306	60.3054
20.324	60.3277
20.342	60.3584
20.36	60.3967
20.378	60.4416
20.396	60.4931
20.414	60.548
20.432	60.6068
20.45	60.6662
20.468	60.7252
20.486	60.7824
20.504	60.8339
20.522	60.8806
20.54	60.9182
20.558	60.9472
20.576	60.9652
20.594	60.9709
20.612	60.9645
20.63	60.9446
20.648	60.9115
20.666	60.8658
20.684	60.8069
20.702	60.7369
20.72	60.6565
20.738	60.5663
20.756	60.4699
20.774	60.3662
20.792	60.2599
20.81	60.1512
20.828	60.042
20.846	59.9357
20.864	59.8315
20.882	59.7331
20.9	59.6403
20.918	59.5544
20.936	59.4769
20.954	59.4072
20.972	59.3461
20.99	59.2936
21.008	59.249
21.026	59.2123
21.044	59.1831
21.062	59.1601
21.08	59.1435
21.098	59.1319
21.116	59.1249
21.134	59.1221
21.152	59.1223
21.17	59.1256
21.188	59.1315
21.206	59.1397
21.224	59.1503
21.242	59.1633
21.26	59.1786
21.278	59.1965
21.296	59.2171
21.314	59.2403
21.332	59.2661
21.35	59.2947
21.368	59.3254
21.386	59.3585
21.404	59.3934
21.422	59.4288
21.44	59.4654
21.458	59.5013
21.476	59.5358
21.494	59.5689
21.512	59.598
21.53	59.6239
21.548	59.6448
21.566	59.6593
21.584	59.6678
21.602	59.6687
21.62	59.6617
21.638	59.6472
21.656	59.6245
21.674	59.5938
21.692	59.5563
21.71	59.5117
21.728	59.4608
21.746	59.406
21.764	59.3464
21.782	59.2844
21.8	59.2218
21.818	59.158
21.836	59.0962
21.854	59.0366
21.872	58.9799
21.89	58.9286
21.908	58.8819
21.926	58.8411
21.944	58.8073
21.962	58.7799
21.98	58.7594
21.998	58.7461
22.016	58.7394
22.034	58.7386
22.052	58.744
22.07	58.7544
22.088	58.7686
22.106	58.7872
22.124	58.8081
22.142	58.8313
22.16	58.8565
22.178	58.8815
22.196	58.9069
22.214	58.9317
22.232	58.9546
22.25	58.9761
22.268	58.9951
22.286	59.0106
22.304	59.0233
22.322	59.0318
22.34	59.0362
22.358	59.0364
22.376	59.0315
22.394	59.0215
22.412	59.0064
22.43	58.9853
22.448	58.9586
22.466	58.926
22.484	58.8872
22.502	58.8423
22.52	58.7915
22.538	58.7348
22.556	58.6723
22.574	58.6051
22.592	58.5328
22.61	58.4562
22.628	58.3775
22.646	58.2955
22.664	58.2121
22.682	58.1305
22.7	58.0489
22.718	57.9701
22.736	57.8975
22.754	57.829
22.772	57.7681
22.79	57.7175
22.808	57.6757
22.826	57.6451
22.844	57.6278
22.862	57.6225
22.88	57.6303
22.898	57.652
22.916	57.6871
22.934	57.7341
22.952	57.7933
22.97	57.8644
22.988	57.9437
23.006	58.0314
23.024	58.1272
23.042	58.2256
23.06	58.3271
23.078	58.4311
23.096	58.5314
23.114	58.6286
23.132	58.722
23.15	58.8062
23.168	58.8814
23.186	58.9475
23.204	59.0019
23.222	59.0444
23.24	59.0754
23.258	59.0937
23.276	59.0994
23.294	59.0926
23.312	59.0737
23.33	59.042
23.348	58.9983
23.366	58.944
23.384	58.8783
23.402	58.8023
23.42	58.7191
23.438	58.6288
23.456	58.5312
23.474	58.4291
23.492	58.3231
23.51	58.2124
23.528	58.098
23.546	57.9801
23.564	57.8585
23.582	57.7339
23.6	57.6061
23.618	57.4752
23.636	57.3425
23.654	57.2087
23.672	57.0731
23.69	56.9369
23.708	56.8007
23.726	56.664
23.744	56.5276
23.762	56.3924
23.78	56.2574
23.798	56.1242
23.816	55.9943
23.834	55.8664
23.852	55.7422
23.87	55.6242
23.888	55.5115
23.906	55.4047
23.924	55.3056
23.942	55.2144
23.96	55.1306
23.978	55.0551
23.996	54.9884
24.014	54.9301
24.032	54.88
24.05	54.8385
24.068	54.8056
24.086	54.7806
24.104	54.7628
24.122	54.7534
24.14	54.7506
24.158	54.7525
24.176	54.7598
24.194	54.772
24.212	54.7867
24.23	54.8041
24.248	54.8244
24.266	54.8449
24.284	54.8641
24.302	54.8831
24.32	54.9011
24.338	54.917
24.356	54.9306
24.374	54.9428
24.392	54.9545
24.41	54.9642
24.428	54.9732
24.446	54.985
24.464	55.0009
24.482	55.0189
24.5	55.0426
24.518	55.0746
24.536	55.1117
24.554	55.1577
24.572	55.2175
24.59	55.2897
24.608	55.3745
24.626	55.4759
24.644	55.5953
24.662	55.7303
24.68	55.8852
24.698	56.0644
24.716	56.2665
24.734	56.4908
24.752	56.7371
24.77	57.0047
24.788	57.2941
24.806	57.6065
24.824	57.9428
24.842	58.3014
24.86	58.6845
24.878	59.0952
24.896	59.5314
24.914	59.994
24.932	60.4872
24.95	61.0126
24.968	61.5675
24.986	62.1553
25.004	62.7794
25.022	63.4392
25.04	64.1338
25.058	64.8639
25.076	65.6312
25.094	66.436
25.112	67.2728
25.13	68.1369
25.148	69.0335
25.166	69.9581
25.184	70.9008
25.202	71.8589
25.22	72.8388
25.238	73.8286
25.256	74.8161
25.274	75.8093
25.292	76.8042
25.31	77.7857
25.328	78.7466
25.346	79.6979
25.364	80.6265
25.382	81.5169
25.4	82.3709
25.418	83.1919
25.436	83.973
25.454	84.7084
25.472	85.3996
25.49	86.0501
25.508	86.663
25.526	87.2379
25.544	87.7735
25.562	88.2754
25.58	88.7489
25.598	89.1904
25.616	89.6017
25.634	89.9886
25.652	90.3544
25.67	90.695
25.688	91.0142
25.706	91.3171
25.724	91.6045
25.742	91.8745
25.76	92.1284
25.778	92.3673
25.796	92.5913
25.814	92.7998
25.832	92.9929
25.85	93.171
25.868	93.3357
25.886	93.4838
25.904	93.6118
25.922	93.7191
25.94	93.808
25.958	93.8752
25.976	93.9175
25.994	93.9378
26.012	93.9353
26.03	93.9047
26.048	93.8413
26.066	93.7493
26.084	93.627
26.102	93.4703
26.12	93.277
26.138	93.0516
26.156	92.7899
26.174	92.4864
26.192	92.1386
26.21	91.7501
26.228	91.32
26.246	90.8477
26.264	90.3337
26.282	89.7784
26.3	89.1807
26.318	88.5398
26.336	87.8568
26.354	87.1317
26.372	86.3626
26.39	85.548
26.408	84.6886
26.426	83.785
26.444	82.8369
26.462	81.8442
26.48	80.8061
26.498	79.7242
26.516	78.6006
26.534	77.4356
26.552	76.2246
26.57	74.9743
26.588	73.693
26.606	72.3848
26.624	71.0399
26.642	69.6689
26.66	68.2848
26.678	66.8915
26.696	65.4738
26.714	64.0508
26.732	62.6448
26.75	61.2646
26.768	59.8892
26.786	58.5391
26.804	57.2376
26.822	55.9912
26.84	54.7757
26.858	53.6192
26.876	52.5533
26.894	51.5904
26.912	50.7017
26.93	49.9119
26.948	49.2496
26.966	48.7436
26.984	48.3914
27.002	48.1521
27.02	47.9835
27.028	47.9278