File: Bakgrunnsmateriale/MATLAB/FTIR/ftir_data/subBb/Mapping_121/C-4040-8_t08.asc
PE IR       SPECTRUM    SPECTRUM    ASCII       PEDS        1.60
  -1
C-C52A~1.ASC
17/03/27
15:07:52.00
17/03/27
15:08:19.00
tln
$C-4040-8_t0008$<tbV0>[-5.2,-13.0,8.0,0.0,27,1,0]
27.028
64

2002,4.07
MIRTGS : RIGHTBACK : INTERNAL 2
MIR : ON : INTERNAL 2
OPTKBR

0.200000
8
8.000000
FILLER
RATIO
SPECTRUM
UNLOCKED 256

DOUBLE
64
COMBINED
1
0
0

0.002000
RATIO

1
0
TRUE
51149
0
LEFT NOT FITTED RIGHT NOT FITTED 0
NONE
NONE
15600
12
4.427000
51148
TRUE
1 0 8 72 0 0 0 0

15798

#HDR
-1
-1
#GR
µM
%T
2.38419e-05
0.0
2.000000
0.002000
12515
8
92.1924
25.511
#DATA
2.000000	 63.8279
2.018000	 63.6261
2.036000	 64.6733
2.054000	 64.4159
2.072000	 64.264
2.090000	 64.7403
2.108000	 64.6629
2.126000	 64.5703
2.144000	 64.2349
2.162000	 64.3182
2.180000	 63.8595
2.198000	 63.6005
2.216000	 63.4082
2.234000	 63.1957
2.252000	 66.4017
2.270000	 60.9171
2.288000	 64.874
2.306000	 63.3599
2.324000	 62.991
2.342000	 63.3493
2.360000	 63.6739
2.378000	 63.8713
2.396000	 63.2034
2.414000	 63.8302
2.432000	 63.9662
2.450000	 64.1189
2.468000	 64.1453
2.486000	 64.0177
2.504000	 64.3163
2.522000	 63.8938
2.540000	 63.645
2.558000	 63.9231
2.576000	 63.9041
2.594000	 64.1586
2.612000	 63.7176
2.630000	 64.017
2.648000	 63.5703
2.666000	 63.9781
2.684000	 63.6863
2.702000	 63.9152
2.720000	 63.9414
2.738000	 63.7776
2.756000	 63.8091
2.774000	 63.4191
2.792000	 63.6857
2.810000	 63.6184
2.828000	 63.5156
2.846000	 63.3706
2.864000	 63.5889
2.882000	 63.0599
2.900000	 63.2918
2.918000	 63.1309
2.936000	 63.0512
2.954000	 63.1774
2.972000	 62.9853
2.990000	 62.8701
3.008000	 62.9919
3.026000	 62.8728
3.044000	 62.6722
3.062000	 62.6835
3.080000	 62.7631
3.098000	 62.8096
3.116000	 62.888
3.134000	 62.6554
3.152000	 62.4376
3.170000	 62.8305
3.188000	 62.4348
3.206000	 62.534
3.224000	 62.6406
3.242000	 62.402
3.260000	 62.5245
3.278000	 62.4809
3.296000	 62.3513
3.314000	 62.4517
3.332000	 62.42
3.350000	 62.1408
3.368000	 61.7756
3.386000	 61.8355
3.404000	 62.0714
3.422000	 61.8054
3.440000	 61.8124
3.458000	 61.8175
3.476000	 61.8826
3.494000	 61.866
3.512000	 61.8175
3.530000	 61.8448
3.548000	 61.9617
3.566000	 61.9525
3.584000	 61.6104
3.602000	 61.783
3.620000	 61.6904
3.638000	 61.7409
3.656000	 61.7329
3.674000	 61.5828
3.692000	 61.4907
3.710000	 61.6384
3.728000	 61.3447
3.746000	 61.3248
3.764000	 61.2145
3.782000	 61.2116
3.800000	 61.1311
3.818000	 61.1692
3.836000	 61.1584
3.854000	 61.0177
3.872000	 61.0628
3.890000	 60.8587
3.908000	 60.9615
3.926000	 60.8409
3.944000	 60.7995
3.962000	 60.9409
3.980000	 60.7747
3.998000	 60.6732
4.016000	 60.7083
4.034000	 60.5359
4.052000	 60.6358
4.070000	 60.6628
4.088000	 60.5627
4.106000	 60.53
4.124000	 60.3027
4.141999	 60.3852
4.160000	 60.3677
4.178000	 60.3281
4.196000	 60.3827
4.214000	 60.4308
4.232000	 60.3897
4.250000	 60.1331
4.268000	 60.056
4.286000	 60.1908
4.304000	 60.0527
4.322000	 60.1583
4.340000	 60.0538
4.358000	 59.8879
4.375999	 59.8876
4.394000	 59.9949
4.412000	 59.9677
4.430000	 59.8598
4.448000	 59.8781
4.466000	 59.7957
4.484000	 59.671
4.502000	 59.5769
4.520000	 59.77
4.538000	 59.6502
4.556000	 59.5042
4.574000	 59.3644
4.592000	 59.4145
4.609999	 59.4651
4.628000	 59.4476
4.646000	 59.4347
4.664000	 59.4023
4.682000	 59.2941
4.700000	 59.2187
4.718000	 59.0887
4.736000	 59.1258
4.754000	 59.1382
4.772000	 59.0562
4.790000	 59.1155
4.808000	 58.9071
4.826000	 58.8267
4.843999	 59.0327
4.862000	 59.0037
4.880000	 58.8859
4.898000	 58.895
4.916000	 58.8106
4.934000	 58.6829
4.952000	 58.7709
4.970000	 58.7968
4.988000	 58.7024
5.006000	 58.6661
5.024000	 58.6257
5.042000	 58.5243
5.060000	 58.5085
5.077999	 58.5039
5.096000	 58.4564
5.114000	 58.4432
5.132000	 58.4378
5.150000	 58.4666
5.168000	 58.3299
5.186000	 58.3554
5.204000	 58.364
5.222000	 58.3482
5.240000	 58.272
5.258000	 58.1514
5.276000	 58.2316
5.294000	 58.1562
5.312000	 58.1129
5.330000	 58.0843
5.348000	 58.0417
5.366000	 58.1234
5.384000	 58.0891
5.402000	 57.9582
5.420000	 57.9801
5.438000	 57.8211
5.456000	 57.8309
5.474000	 57.9217
5.492000	 57.8526
5.510000	 57.7828
5.528000	 57.7307
5.546000	 57.7269
5.564000	 57.759
5.582000	 57.7334
5.600000	 57.7227
5.618000	 57.7423
5.636000	 57.711
5.654000	 57.7114
5.672000	 57.7682
5.690000	 57.7397
5.708000	 57.5143
5.726000	 57.4325
5.744000	 57.4443
5.762000	 57.448
5.780000	 57.3897
5.798000	 57.3937
5.816000	 57.5154
5.834000	 57.5003
5.852000	 57.3199
5.870000	 57.4044
5.888000	 57.4706
5.906000	 57.3113
5.923999	 57.2992
5.942000	 57.3193
5.960000	 57.2686
5.978000	 57.3301
5.996000	 57.2649
6.014000	 57.1774
6.032000	 57.3106
6.050000	 57.5279
6.068000	 57.3378
6.086000	 57.0468
6.104000	 56.9764
6.122000	 56.9365
6.140000	 56.8301
6.158000	 56.8368
6.176000	 56.8052
6.194000	 56.74
6.212000	 56.7066
6.230000	 56.7012
6.248000	 56.6378
6.266000	 56.5964
6.284000	 56.5806
6.302000	 56.584
6.320000	 56.5997
6.338000	 56.6451
6.356000	 56.628
6.374000	 56.5903
6.392000	 56.7105
6.410000	 56.9475
6.428000	 56.842
6.446000	 56.5075
6.464000	 56.4595
6.482000	 56.6898
6.500000	 56.6895
6.518000	 56.4139
6.536000	 56.2835
6.554000	 56.3769
6.572000	 56.4698
6.590000	 56.4193
6.608000	 56.3772
6.626000	 56.3979
6.644000	 56.3293
6.662000	 56.1846
6.680000	 56.0385
6.698000	 55.9788
6.716000	 56.0134
6.734000	 56.0033
6.752000	 56.0153
6.770000	 56.1174
6.788000	 56.1423
6.806000	 56.0133
6.824000	 55.9642
6.842000	 56.0212
6.860000	 55.9334
6.878000	 55.7893
6.896000	 55.8027
6.914000	 55.7712
6.932000	 55.625
6.950000	 55.5728
6.968000	 55.6274
6.986000	 55.6831
7.004000	 55.7024
7.022000	 55.7407
7.040000	 55.7984
7.058000	 55.7472
7.076000	 55.593
7.094000	 55.4842
7.112000	 55.4728
7.130000	 55.4832
7.148000	 55.4478
7.166000	 55.4103
7.184000	 55.4221
7.202000	 55.4191
7.220000	 55.3486
7.238000	 55.2843
7.256000	 55.2892
7.274000	 55.3216
7.292000	 55.327
7.310000	 55.3186
7.328000	 55.3341
7.346000	 55.3554
7.364000	 55.3477
7.382000	 55.3273
7.400000	 55.3102
7.418000	 55.277
7.436000	 55.2045
7.454000	 55.1035
7.472000	 55.0235
7.490000	 55.0083
7.508000	 55.0583
7.526000	 55.1356
7.544000	 55.1845
7.562000	 55.1923
7.580000	 55.1801
7.598000	 55.1189
7.616000	 54.9848
7.634000	 54.854
7.652000	 54.8085
7.670000	 54.8306
7.688000	 54.8664
7.706000	 54.8917
7.724000	 54.8935
7.742000	 54.8704
7.760000	 54.8442
7.778000	 54.8181
7.796000	 54.7548
7.814000	 54.645
7.832000	 54.5548
7.850000	 54.5555
7.868000	 54.6351
7.886000	 54.7175
7.904000	 54.7469
7.922000	 54.7251
7.940000	 54.6813
7.958000	 54.6315
7.976000	 54.5806
7.994000	 54.545
8.012000	 54.5455
8.030000	 54.5723
8.048000	 54.5791
8.065999	 54.5409
8.084000	 54.4952
8.102000	 54.492
8.120000	 54.5257
8.138000	 54.5592
8.155999	 54.58
8.173999	 54.5911
8.192000	 54.5777
8.210000	 54.5258
8.228000	 54.4527
8.246000	 54.3963
8.263999	 54.378
8.282000	 54.3879
8.300000	 54.3991
8.318000	 54.3908
8.336000	 54.3581
8.353999	 54.3103
8.372000	 54.2623
8.390000	 54.2262
8.408000	 54.2063
8.426000	 54.2007
8.443999	 54.2044
8.462000	 54.2088
8.480000	 54.2022
8.498000	 54.1783
8.516000	 54.1476
8.533999	 54.1315
8.552000	 54.1383
8.570000	 54.1501
8.588000	 54.1389
8.606000	 54.0952
8.624000	 54.0375
8.641999	 53.9951
8.660000	 53.9864
8.678000	 54.0073
8.696000	 54.0353
8.714000	 54.0474
8.731999	 54.0354
8.750000	 54.0043
8.768000	 53.9606
8.786000	 53.9122
8.804000	 53.8775
8.821999	 53.8777
8.840000	 53.9111
8.858000	 53.9473
8.876000	 53.9568
8.894000	 53.9385
8.911999	 53.9104
8.930000	 53.8825
8.948000	 53.8523
8.966000	 53.8229
8.984000	 53.8058
9.001999	 53.8034
9.020000	 53.8025
9.038000	 53.7903
9.056000	 53.7685
9.074000	 53.7435
9.092000	 53.7095
9.109999	 53.6554
9.128000	 53.5879
9.146000	 53.5349
9.164000	 53.5185
9.182000	 53.5258
9.199999	 53.517
9.218000	 53.4654
9.236000	 53.3876
9.254000	 53.3344
9.272000	 53.3469
9.289999	 53.4236
9.308000	 53.5231
9.326000	 53.5976
9.344000	 53.6229
9.362000	 53.6059
9.379999	 53.5678
9.398000	 53.5279
9.416000	 53.4957
9.434000	 53.4697
9.452000	 53.4405
9.469999	 53.4043
9.488000	 53.3759
9.506000	 53.3808
9.524000	 53.432
9.542000	 53.5122
9.560000	 53.5832
9.577999	 53.6155
9.596000	 53.6074
9.614000	 53.5734
9.632000	 53.5247
9.650000	 53.4653
9.667999	 53.4033
9.686000	 53.3525
9.704000	 53.322
9.722000	 53.3083
9.740000	 53.299
9.757999	 53.2828
9.776000	 53.2541
9.794000	 53.2081
9.812000	 53.1408
9.830000	 53.0609
9.847999	 52.9968
9.866000	 52.9827
9.884000	 53.0307
9.902000	 53.1189
9.920000	 53.2066
9.937999	 53.2635
9.956000	 53.2847
9.974000	 53.2818
9.992000	 53.2646
10.01	53.2335
10.028	53.1868
10.046	53.1323
10.064	53.0848
10.082	53.0556
10.1	53.0446
10.118	53.0411
10.136	53.033
10.154	53.013
10.172	52.9811
10.19	52.9429
10.208	52.9064
10.226	52.8809
10.244	52.8734
10.262	52.8872
10.28	52.918
10.298	52.957
10.316	52.9935
10.334	53.02
10.352	53.0341
10.37	53.0385
10.388	53.0386
10.406	53.0384
10.424	53.0364
10.442	53.0237
10.46	52.9879
10.478	52.9211
10.496	52.829
10.514	52.7303
10.532	52.6519
10.55	52.6106
10.568	52.605
10.586	52.6163
10.604	52.6222
10.622	52.6079
10.64	52.5765
10.658	52.5389
10.676	52.5044
10.694	52.472
10.712	52.4318
10.73	52.3762
10.748	52.3093
10.766	52.2503
10.784	52.2241
10.802	52.2516
10.82	52.3404
10.838	52.4795
10.856	52.6419
10.874	52.7876
10.892	52.8758
10.91	52.8705
10.928	52.7562
10.946	52.5421
10.964	52.2631
10.982	51.9744
11	51.7322
11.018	51.5802
11.036	51.5329
11.054	51.5738
11.072	51.6642
11.09	51.7527
11.108	51.7985
11.126	51.7811
11.144	51.7085
11.162	51.6118
11.18	51.5289
11.198	51.4917
11.216	51.5134
11.234	51.5872
11.252	51.6907
11.27	51.7971
11.288	51.8826
11.306	51.934
11.324	51.9489
11.342	51.935
11.36	51.9076
11.378	51.8861
11.396	51.8878
11.414	51.9247
11.432	51.996
11.45	52.0887
11.468	52.1815
11.486	52.2544
11.504	52.2952
11.522	52.3011
11.54	52.2766
11.558	52.2282
11.576	52.16
11.594	52.0725
11.612	51.9673
11.63	51.8513
11.648	51.7374
11.666	51.6442
11.684	51.589
11.702	51.5798
11.72	51.6114
11.738	51.6664
11.756	51.7226
11.774	51.7587
11.792	51.7627
11.81	51.7349
11.828	51.6858
11.846	51.6332
11.864	51.5948
11.882	51.5814
11.9	51.5964
11.918	51.6338
11.936	51.6814
11.954	51.7258
11.972	51.7555
11.99	51.7653
12.008	51.758
12.026	51.7421
12.044	51.729
12.062	51.7269
12.08	51.7377
12.098	51.7568
12.116	51.7749
12.134	51.7822
12.152	51.7724
12.17	51.7435
12.188	51.6969
12.206	51.6363
12.224	51.5662
12.242	51.4916
12.26	51.4181
12.278	51.352
12.296	51.3002
12.314	51.2685
12.332	51.2601
12.35	51.2735
12.368	51.3019
12.386	51.3346
12.404	51.3597
12.422	51.3674
12.44	51.3528
12.458	51.3159
12.476	51.2614
12.494	51.1964
12.512	51.1294
12.53	51.0678
12.548	51.0178
12.566	50.9833
12.584	50.9652
12.602	50.9611
12.62	50.9657
12.638	50.9725
12.656	50.9749
12.674	50.9683
12.692	50.9515
12.71	50.9256
12.728	50.8948
12.746	50.8643
12.764	50.8391
12.782	50.8224
12.8	50.8152
12.818	50.8167
12.836	50.825
12.854	50.8381
12.872	50.8545
12.89	50.873
12.908	50.8925
12.926	50.9121
12.944	50.9309
12.962	50.9485
12.98	50.9655
12.998	50.9831
13.016	51.0024
13.034	51.023
13.052	51.0431
13.07	51.0594
13.088	51.0682
13.106	51.0667
13.124	51.0542
13.142	51.0326
13.16	51.0062
13.178	50.9801
13.196	50.9587
13.214	50.9437
13.232	50.9334
13.25	50.9232
13.268	50.9068
13.286	50.8797
13.304	50.8403
13.322	50.7917
13.34	50.741
13.358	50.6977
13.376	50.6708
13.394	50.6663
13.412	50.6855
13.43	50.7255
13.448	50.7791
13.466	50.8379
13.484	50.8934
13.502	50.939
13.52	50.9708
13.538	50.9871
13.556	50.9884
13.574	50.9762
13.592	50.9521
13.61	50.918
13.628	50.8753
13.646	50.8265
13.664	50.7738
13.682	50.7209
13.7	50.671
13.718	50.6268
13.736	50.5894
13.754	50.5579
13.772	50.5299
13.79	50.5017
13.808	50.4697
13.826	50.4314
13.844	50.3862
13.862	50.336
13.88	50.2843
13.898	50.236
13.916	50.1961
13.934	50.1685
13.952	50.1554
13.97	50.1566
13.988	50.1696
14.006	50.1898
14.024	50.2113
14.042	50.228
14.06	50.2345
14.078	50.2274
14.096	50.2055
14.114	50.1699
14.132	50.1232
14.15	50.07
14.168	50.0154
14.186	49.9646
14.204	49.9223
14.222	49.892
14.24	49.8753
14.258	49.8718
14.276	49.8799
14.294	49.8967
14.312	49.9186
14.33	49.9415
14.348	49.962
14.366	49.977
14.384	49.9851
14.402	49.986
14.42	49.981
14.438	49.9719
14.456	49.961
14.474	49.9507
14.492	49.943
14.51	49.9391
14.528	49.939
14.546	49.9417
14.564	49.9455
14.582	49.9479
14.6	49.9468
14.618	49.9399
14.636	49.9258
14.654	49.9044
14.672	49.8764
14.69	49.8437
14.708	49.8088
14.726	49.7752
14.744	49.7467
14.762	49.7269
14.78	49.7183
14.798	49.7227
14.816	49.7403
14.834	49.7697
14.852	49.8081
14.87	49.8509
14.888	49.8933
14.906	49.9297
14.924	49.9546
14.942	49.963
14.96	49.9517
14.978	49.9195
14.996	49.8667
15.014	49.7954
15.032	49.7098
15.05	49.6154
15.068	49.518
15.086	49.4232
15.104	49.3362
15.122	49.2617
15.14	49.2019
15.158	49.1577
15.176	49.1286
15.194	49.1129
15.212	49.1078
15.23	49.1103
15.248	49.1178
15.266	49.1281
15.284	49.139
15.302	49.15
15.32	49.1609
15.338	49.1721
15.356	49.1848
15.374	49.1996
15.392	49.217
15.41	49.237
15.428	49.2594
15.446	49.2828
15.464	49.3059
15.482	49.3274
15.5	49.3454
15.518	49.3583
15.536	49.3652
15.554	49.3652
15.572	49.3581
15.59	49.3444
15.608	49.3248
15.626	49.3002
15.644	49.2718
15.662	49.2409
15.68	49.2086
15.698	49.1757
15.716	49.1436
15.734	49.1132
15.752	49.0854
15.77	49.0614
15.788	49.042
15.806	49.0276
15.824	49.0185
15.842	49.015
15.86	49.0168
15.878	49.0229
15.896	49.0326
15.914	49.0438
15.932	49.0544
15.95	49.0626
15.968	49.0664
15.986	49.0634
16.004	49.0527
16.022	49.0334
16.04	49.0054
16.058	48.97
16.076	48.9285
16.094	48.8836
16.112	48.8384
16.13	48.7953
16.148	48.7576
16.166	48.7279
16.184	48.7071
16.202	48.6967
16.22	48.6958
16.238	48.7029
16.256	48.7163
16.274	48.7321
16.292	48.7473
16.31	48.7591
16.328	48.764
16.346	48.7605
16.364	48.7477
16.382	48.7261
16.4	48.6985
16.418	48.667
16.436	48.637
16.454	48.6128
16.472	48.5979
16.49	48.5969
16.508	48.6113
16.526	48.6418
16.544	48.6875
16.562	48.745
16.58	48.8118
16.598	48.8817
16.616	48.9505
16.634	49.0144
16.652	49.0684
16.67	49.1109
16.688	49.1403
16.706	49.1569
16.724	49.1622
16.742	49.158
16.76	49.1478
16.778	49.1333
16.796	49.1175
16.814	49.1024
16.832	49.0889
16.85	49.0776
16.868	49.0681
16.886	49.0601
16.904	49.0516
16.922	49.0415
16.94	49.0287
16.958	49.0117
16.976	48.9903
16.994	48.9641
17.012	48.9339
17.03	48.9
17.048	48.8641
17.066	48.8273
17.084	48.7911
17.102	48.757
17.12	48.7254
17.138	48.6979
17.156	48.6748
17.174	48.6565
17.192	48.6433
17.21	48.6353
17.228	48.6323
17.246	48.634
17.264	48.6403
17.282	48.6505
17.3	48.6641
17.318	48.6805
17.336	48.6981
17.354	48.7163
17.372	48.7326
17.39	48.7458
17.408	48.7533
17.426	48.753
17.444	48.7436
17.462	48.7224
17.48	48.6893
17.498	48.6431
17.516	48.5847
17.534	48.5144
17.552	48.4351
17.57	48.3478
17.588	48.257
17.606	48.1647
17.624	48.0746
17.642	47.9904
17.66	47.9138
17.678	47.8479
17.696	47.7932
17.714	47.7509
17.732	47.72
17.75	47.7002
17.768	47.6889
17.786	47.6851
17.804	47.6851
17.822	47.6879
17.84	47.6897
17.858	47.6895
17.876	47.6849
17.894	47.675
17.912	47.659
17.93	47.6365
17.948	47.6078
17.966	47.574
17.984	47.5358
18.002	47.495
18.02	47.4531
18.038	47.4115
18.056	47.3721
18.074	47.3357
18.092	47.3042
18.11	47.2778
18.128	47.2578
18.146	47.244
18.164	47.237
18.182	47.2362
18.2	47.2416
18.218	47.2524
18.236	47.2682
18.254	47.2879
18.272	47.3111
18.29	47.3362
18.308	47.3631
18.326	47.3899
18.344	47.4162
18.362	47.4401
18.38	47.4613
18.398	47.478
18.416	47.4896
18.434	47.4949
18.452	47.4935
18.47	47.4846
18.488	47.4684
18.506	47.4446
18.524	47.4143
18.542	47.3774
18.56	47.3363
18.578	47.2912
18.596	47.245
18.614	47.1979
18.632	47.1532
18.65	47.1111
18.668	47.074
18.686	47.042
18.704	47.017
18.722	46.9986
18.74	46.9868
18.758	46.9809
18.776	46.9794
18.794	46.9814
18.812	46.9841
18.83	46.9865
18.848	46.9859
18.866	46.9814
18.884	46.97
18.902	46.9512
18.92	46.923
18.938	46.8855
18.956	46.8377
18.974	46.7806
18.992	46.7146
19.01	46.6413
19.028	46.5622
19.046	46.479
19.064	46.3944
19.082	46.3097
19.1	46.2281
19.118	46.1503
19.136	46.0793
19.154	46.0156
19.172	45.9614
19.19	45.9168
19.208	45.883
19.226	45.8598
19.244	45.8472
19.262	45.8449
19.28	45.8516
19.298	45.8672
19.316	45.8896
19.334	45.9187
19.352	45.9519
19.37	45.9892
19.388	46.0276
19.406	46.0672
19.424	46.1053
19.442	46.142
19.46	46.175
19.478	46.204
19.496	46.2278
19.514	46.2462
19.532	46.2583
19.55	46.2636
19.568	46.2626
19.586	46.255
19.604	46.2415
19.622	46.2225
19.64	46.1986
19.658	46.172
19.676	46.1426
19.694	46.1135
19.712	46.0844
19.73	46.0596
19.748	46.0387
19.766	46.0258
19.784	46.0214
19.802	46.028
19.82	46.0473
19.838	46.0799
19.856	46.128
19.874	46.1907
19.892	46.2687
19.91	46.3614
19.928	46.4666
19.946	46.5848
19.964	46.7105
19.982	46.8442
20	46.9799
20.018	47.1152
20.036	47.2471
20.054	47.3694
20.072	47.4821
20.09	47.5778
20.108	47.6575
20.126	47.7156
20.144	47.752
20.162	47.7653
20.18	47.7542
20.198	47.7201
20.216	47.6634
20.234	47.5852
20.252	47.49
20.27	47.3768
20.288	47.2532
20.306	47.1188
20.324	46.9794
20.342	46.8388
20.36	46.6981
20.378	46.5646
20.396	46.4368
20.414	46.3207
20.432	46.216
20.45	46.1252
20.468	46.05
20.486	45.9896
20.504	45.9449
20.522	45.9155
20.54	45.8992
20.558	45.8966
20.576	45.9044
20.594	45.9218
20.612	45.9473
20.63	45.9771
20.648	46.0121
20.666	46.0481
20.684	46.0852
20.702	46.1216
20.72	46.1558
20.738	46.1879
20.756	46.2164
20.774	46.2415
20.792	46.2628
20.81	46.28
20.828	46.2933
20.846	46.3025
20.864	46.3077
20.882	46.3085
20.9	46.3049
20.918	46.2963
20.936	46.2825
20.954	46.2632
20.972	46.2373
20.99	46.205
21.008	46.1652
21.026	46.1174
21.044	46.0616
21.062	45.9968
21.08	45.9232
21.098	45.8411
21.116	45.7501
21.134	45.6512
21.152	45.5456
21.17	45.4329
21.188	45.3161
21.206	45.1952
21.224	45.0717
21.242	44.9489
21.26	44.8258
21.278	44.706
21.296	44.5898
21.314	44.4781
21.332	44.3736
21.35	44.2754
21.368	44.1851
21.386	44.1033
21.404	44.0297
21.422	43.9654
21.44	43.91
21.458	43.8632
21.476	43.8247
21.494	43.7944
21.512	43.7715
21.53	43.7561
21.548	43.7476
21.566	43.7453
21.584	43.7495
21.602	43.7596
21.62	43.7755
21.638	43.7972
21.656	43.8247
21.674	43.8578
21.692	43.8966
21.71	43.9412
21.728	43.9913
21.746	44.0459
21.764	44.1055
21.782	44.1688
21.8	44.2351
21.818	44.3047
21.836	44.3745
21.854	44.4449
21.872	44.5147
21.89	44.5812
21.908	44.6454
21.926	44.7049
21.944	44.7576
21.962	44.8045
21.98	44.8437
21.998	44.8748
22.016	44.8982
22.034	44.9134
22.052	44.9202
22.07	44.9204
22.088	44.9148
22.106	44.903
22.124	44.8892
22.142	44.8733
22.16	44.8562
22.178	44.8429
22.196	44.8319
22.214	44.8258
22.232	44.8282
22.25	44.8377
22.268	44.8563
22.286	44.8856
22.304	44.9248
22.322	44.9733
22.34	45.0324
22.358	45.1003
22.376	45.1738
22.394	45.2547
22.412	45.3395
22.43	45.4235
22.448	45.5093
22.466	45.5915
22.484	45.6657
22.502	45.7345
22.52	45.7919
22.538	45.8354
22.556	45.8667
22.574	45.8817
22.592	45.8794
22.61	45.861
22.628	45.8261
22.646	45.7737
22.664	45.7059
22.682	45.6253
22.7	45.5299
22.718	45.4238
22.736	45.3117
22.754	45.1905
22.772	45.0663
22.79	44.9439
22.808	44.8203
22.826	44.7018
22.844	44.5926
22.862	44.4901
22.88	44.3994
22.898	44.323
22.916	44.2592
22.934	44.2104
22.952	44.178
22.97	44.1608
22.988	44.1588
23.006	44.1728
23.024	44.2018
23.042	44.2426
23.06	44.2959
23.078	44.3609
23.096	44.4327
23.114	44.5122
23.132	44.5983
23.15	44.6856
23.168	44.775
23.186	44.8653
23.204	44.9509
23.222	45.0324
23.24	45.1092
23.258	45.1774
23.276	45.2366
23.294	45.2875
23.312	45.329
23.33	45.3606
23.348	45.3831
23.366	45.397
23.384	45.4023
23.402	45.3991
23.42	45.3884
23.438	45.37
23.456	45.3441
23.474	45.3128
23.492	45.2759
23.51	45.2334
23.528	45.1878
23.546	45.1396
23.564	45.0881
23.582	45.0354
23.6	44.9822
23.618	44.9278
23.636	44.8733
23.654	44.8192
23.672	44.7651
23.69	44.7116
23.708	44.6592
23.726	44.6075
23.744	44.5569
23.762	44.5078
23.78	44.4596
23.798	44.4132
23.816	44.3692
23.834	44.3269
23.852	44.2874
23.87	44.2523
23.888	44.2211
23.906	44.1941
23.924	44.1723
23.942	44.1559
23.96	44.1445
23.978	44.1388
23.996	44.1385
24.014	44.1436
24.032	44.1552
24.05	44.174
24.068	44.1992
24.086	44.232
24.104	44.2739
24.122	44.3244
24.14	44.3832
24.158	44.4498
24.176	44.5249
24.194	44.6078
24.212	44.6972
24.23	44.7936
24.248	44.8969
24.266	45.0044
24.284	45.1146
24.302	45.2293
24.32	45.3457
24.338	45.4614
24.356	45.577
24.374	45.693
24.392	45.8095
24.41	45.9265
24.428	46.0441
24.446	46.1622
24.464	46.28
24.482	46.3973
24.5	46.5172
24.518	46.6428
24.536	46.7733
24.554	46.9075
24.572	47.0441
24.59	47.1861
24.608	47.3309
24.626	47.4715
24.644	47.6068
24.662	47.7414
24.68	47.8627
24.698	47.9603
24.716	48.0448
24.734	48.1056
24.752	48.1247
24.77	48.1033
24.788	48.0451
24.806	47.9342
24.824	47.7588
24.842	47.5279
24.86	47.2371
24.878	46.8797
24.896	46.4547
24.914	45.9655
24.932	45.4148
24.95	44.8014
24.968	44.1221
24.986	43.3897
25.004	42.6175
25.022	41.7947
25.04	40.9293
25.058	40.0419
25.076	39.139
25.094	38.2083
25.112	37.2707
25.13	36.3475
25.148	35.4264
25.166	34.5133
25.184	33.6276
25.202	32.7789
25.22	31.9563
25.238	31.168
25.256	30.4231
25.274	29.716
25.292	29.0489
25.31	28.4316
25.328	27.8689
25.346	27.3533
25.364	26.8931
25.382	26.4975
25.4	26.161
25.418	25.8844
25.436	25.6813
25.454	25.5611
25.472	25.5118
25.49	25.5437
25.508	25.672
25.526	25.8995
25.544	26.2185
25.562	26.6375
25.58	27.1652
25.598	27.8006
25.616	28.5397
25.634	29.3804
25.652	30.3244
25.67	31.3782
25.688	32.5246
25.706	33.7446
25.724	35.0458
25.742	36.4323
25.76	37.8704
25.778	39.33
25.796	40.8399
25.814	42.3826
25.832	43.9149
25.85	45.4108
25.868	46.9068
25.886	48.3698
25.904	49.7569
25.922	51.0601
25.94	52.3033
25.958	53.4564
25.976	54.4887
25.994	55.4068
26.012	56.2179
26.03	56.9087
26.048	57.4669
26.066	57.8946
26.084	58.1986
26.102	58.3844
26.12	58.4522
26.138	58.3916
26.156	58.2219
26.174	57.9652
26.192	57.6229
26.21	57.1778
26.228	56.6636
26.246	56.1159
26.264	55.5279
26.282	54.887
26.3	54.2293
26.318	53.5901
26.336	52.9519
26.354	52.3133
26.372	51.7052
26.39	51.1563
26.408	50.6521
26.426	50.1914
26.444	49.787
26.462	49.4498
26.48	49.1734
26.498	48.9569
26.516	48.8029
26.534	48.7164
26.552	48.706
26.57	48.754
26.588	48.8392
26.606	48.9519
26.624	49.1182
26.642	49.3094
26.66	49.49
26.678	49.6455
26.696	49.8128
26.714	49.9534
26.732	50.0221
26.75	50
26.768	49.9282
26.786	49.77
26.804	49.4829
26.822	49.0474
26.84	48.4978
26.858	47.8119
26.876	46.9627
26.894	45.9347
26.912	44.7459
26.93	43.3951
26.948	41.8794
26.966	40.0781
26.984	37.8179
27.002	35.5463
27.02	33.7483
27.028	33.2792