File: Bakgrunnsmateriale/MATLAB/FTIR/ftir_data/subBb/Mapping_121/C-4040-8_t64.asc
PE IR       SPECTRUM    SPECTRUM    ASCII       PEDS        1.60
  -1
C-BD3A~1.ASC
17/03/27
19:42:13.00
17/03/27
19:42:39.00
tln
$C-4040-8_t0064$<tbV0>[-7.8,0.0,8.0,0.0,27,1,0]
27.028
64

2002,4.07
MIRTGS : RIGHTBACK : INTERNAL 2
MIR : ON : INTERNAL 2
OPTKBR

0.200000
8
8.000000
FILLER
RATIO
SPECTRUM
UNLOCKED 256

DOUBLE
64
COMBINED
1
0
0

0.002000
RATIO

1
0
TRUE
51149
0
LEFT NOT FITTED RIGHT NOT FITTED 0
NONE
NONE
15600
12
4.427000
51148
TRUE
1 0 8 72 0 0 0 0

15798

#HDR
-1
-1
#GR
µM
%T
2.38419e-05
0.0
2.000000
0.002000
12515
8
84.8873
54.3514
#DATA
2.000000	 64.574
2.018000	 64.3694
2.036000	 64.5755
2.054000	 64.8313
2.072000	 64.4171
2.090000	 64.4854
2.108000	 64.8736
2.126000	 65.1186
2.144000	 64.6548
2.162000	 64.9523
2.180000	 64.4836
2.198000	 64.2364
2.216000	 65.0387
2.234000	 64.5263
2.252000	 64.2925
2.270000	 63.578
2.288000	 84.7454
2.306000	 65.1218
2.324000	 64.2853
2.342000	 64.394
2.360000	 64.4109
2.378000	 64.7034
2.396000	 64.7457
2.414000	 65.1697
2.432000	 64.7862
2.450000	 64.8776
2.468000	 65.0027
2.486000	 64.985
2.504000	 64.9905
2.522000	 64.9598
2.540000	 65.0288
2.558000	 65.0523
2.576000	 64.9243
2.594000	 65.1157
2.612000	 64.5562
2.630000	 64.9841
2.648000	 65.0196
2.666000	 65.0057
2.684000	 65.0201
2.702000	 65.0775
2.720000	 65.0175
2.738000	 65.2538
2.756000	 64.9496
2.774000	 64.8911
2.792000	 64.9768
2.810000	 64.8415
2.828000	 64.8013
2.846000	 64.8869
2.864000	 64.8258
2.882000	 65.2498
2.900000	 65.1191
2.918000	 65.0598
2.936000	 65.0464
2.954000	 65.0606
2.972000	 65.1617
2.990000	 65.059
3.008000	 65.0613
3.026000	 64.8665
3.044000	 64.8307
3.062000	 64.9519
3.080000	 65.0117
3.098000	 65.0335
3.116000	 65.1416
3.134000	 64.9724
3.152000	 65.2606
3.170000	 65.0482
3.188000	 65.0456
3.206000	 64.5144
3.224000	 65.2078
3.242000	 65.1557
3.260000	 65.0008
3.278000	 65.1518
3.296000	 65.0203
3.314000	 65.1506
3.332000	 64.8367
3.350000	 64.9011
3.368000	 64.9457
3.386000	 64.8814
3.404000	 64.7583
3.422000	 64.6114
3.440000	 64.8854
3.458000	 64.8598
3.476000	 65.0255
3.494000	 64.8756
3.512000	 64.9704
3.530000	 65.0404
3.548000	 65.1021
3.566000	 65.0038
3.584000	 65.0207
3.602000	 64.9839
3.620000	 65.1669
3.638000	 65.1274
3.656000	 65.064
3.674000	 65.1497
3.692000	 65.1305
3.710000	 65.0531
3.728000	 65.0526
3.746000	 65.1464
3.764000	 65.1978
3.782000	 65.1084
3.800000	 65.0967
3.818000	 65.1604
3.836000	 65.1478
3.854000	 65.1399
3.872000	 65.0187
3.890000	 65.1539
3.908000	 65.1388
3.926000	 65.1377
3.944000	 65.054
3.962000	 65.0041
3.980000	 65.0734
3.998000	 65.01
4.016000	 64.8752
4.034000	 65.1357
4.052000	 65.0626
4.070000	 65.1352
4.088000	 65.1229
4.106000	 65.0453
4.124000	 65.1117
4.141999	 65.2826
4.160000	 65.1984
4.178000	 65.0281
4.196000	 65.032
4.214000	 65.1085
4.232000	 65.1067
4.250000	 65.0559
4.268000	 65.0471
4.286000	 65.0774
4.304000	 65.1044
4.322000	 65.039
4.340000	 65.0677
4.358000	 65.0259
4.375999	 65.0821
4.394000	 64.9753
4.412000	 65.1081
4.430000	 65.1996
4.448000	 65.2114
4.466000	 65.1269
4.484000	 65.2249
4.502000	 65.1097
4.520000	 65.1396
4.538000	 65.026
4.556000	 65.0814
4.574000	 65.1822
4.592000	 65.1733
4.609999	 65.0095
4.628000	 65.0727
4.646000	 65.1653
4.664000	 65.1751
4.682000	 65.2521
4.700000	 65.1397
4.718000	 65.0964
4.736000	 65.0808
4.754000	 65.1965
4.772000	 65.0962
4.790000	 65.1365
4.808000	 65.1933
4.826000	 64.9836
4.843999	 64.9848
4.862000	 64.9169
4.880000	 65.1072
4.898000	 65.1653
4.916000	 65.1647
4.934000	 65.1197
4.952000	 65.0002
4.970000	 65.0959
4.988000	 65.1937
5.006000	 65.0412
5.024000	 65.1445
5.042000	 65.1441
5.060000	 65.0765
5.077999	 65.0906
5.096000	 64.978
5.114000	 65.0235
5.132000	 65.1378
5.150000	 65.196
5.168000	 65.159
5.186000	 65.116
5.204000	 65.0829
5.222000	 65.0915
5.240000	 64.986
5.258000	 65.019
5.276000	 65.2101
5.294000	 65.1811
5.312000	 65.1731
5.330000	 65.2045
5.348000	 65.0638
5.366000	 65.1048
5.384000	 65.108
5.402000	 65.1202
5.420000	 65.1
5.438000	 65.0871
5.456000	 65.1311
5.474000	 65.1823
5.492000	 65.1036
5.510000	 65.0971
5.528000	 65.0607
5.546000	 65.2469
5.564000	 65.1867
5.582000	 65.1319
5.600000	 65.1786
5.618000	 65.1223
5.636000	 65.1407
5.654000	 65.1448
5.672000	 65.015
5.690000	 65.0136
5.708000	 65.103
5.726000	 65.139
5.744000	 65.0523
5.762000	 64.9872
5.780000	 64.9889
5.798000	 64.9234
5.816000	 64.8877
5.834000	 65.0096
5.852000	 65.0704
5.870000	 65.1216
5.888000	 65.1953
5.906000	 65.1495
5.923999	 65.2
5.942000	 65.2346
5.960000	 65.0481
5.978000	 64.9591
5.996000	 65.1159
6.014000	 65.1716
6.032000	 65.049
6.050000	 64.9112
6.068000	 64.8377
6.086000	 64.8692
6.104000	 64.8478
6.122000	 64.8123
6.140000	 64.876
6.158000	 64.9536
6.176000	 64.9877
6.194000	 64.962
6.212000	 64.916
6.230000	 64.9148
6.248000	 64.8568
6.266000	 64.7954
6.284000	 64.8046
6.302000	 64.8748
6.320000	 64.9194
6.338000	 64.9765
6.356000	 65.0339
6.374000	 64.9933
6.392000	 64.9506
6.410000	 64.9214
6.428000	 64.9095
6.446000	 64.9274
6.464000	 64.8925
6.482000	 64.8639
6.500000	 64.8472
6.518000	 64.8445
6.536000	 64.9098
6.554000	 64.9251
6.572000	 64.9291
6.590000	 64.9753
6.608000	 64.9119
6.626000	 64.79
6.644000	 64.8609
6.662000	 65.0045
6.680000	 64.9747
6.698000	 64.9633
6.716000	 65.0344
6.734000	 65.0439
6.752000	 64.9779
6.770000	 64.8947
6.788000	 64.88
6.806000	 64.9012
6.824000	 64.8953
6.842000	 64.8107
6.860000	 64.6397
6.878000	 64.5765
6.896000	 64.6932
6.914000	 64.7363
6.932000	 64.7452
6.950000	 64.9225
6.968000	 65.0745
6.986000	 65.0314
7.004000	 64.9535
7.022000	 64.9252
7.040000	 64.887
7.058000	 64.8639
7.076000	 64.8907
7.094000	 64.9008
7.112000	 64.8691
7.130000	 64.8596
7.148000	 64.8843
7.166000	 64.9076
7.184000	 64.9259
7.202000	 64.949
7.220000	 64.9819
7.238000	 65.0069
7.256000	 64.9862
7.274000	 64.9263
7.292000	 64.8944
7.310000	 64.9539
7.328000	 65.0673
7.346000	 65.1087
7.364000	 65.0401
7.382000	 64.9447
7.400000	 64.8732
7.418000	 64.8414
7.436000	 64.8573
7.454000	 64.8674
7.472000	 64.8352
7.490000	 64.821
7.508000	 64.8493
7.526000	 64.8499
7.544000	 64.8162
7.562000	 64.8154
7.580000	 64.8549
7.598000	 64.898
7.616000	 64.9263
7.634000	 64.9195
7.652000	 64.8838
7.670000	 64.8664
7.688000	 64.8921
7.706000	 64.9383
7.724000	 64.9585
7.742000	 64.9198
7.760000	 64.8582
7.778000	 64.8375
7.796000	 64.8432
7.814000	 64.8352
7.832000	 64.8294
7.850000	 64.8352
7.868000	 64.8226
7.886000	 64.7995
7.904000	 64.8064
7.922000	 64.8359
7.940000	 64.8503
7.958000	 64.8478
7.976000	 64.8459
7.994000	 64.8399
8.012000	 64.8196
8.030000	 64.7942
8.048000	 64.774
8.065999	 64.7545
8.084000	 64.7282
8.102000	 64.7029
8.120000	 64.702
8.138000	 64.7403
8.155999	 64.7969
8.173999	 64.8341
8.192000	 64.8432
8.210000	 64.8511
8.228000	 64.8782
8.246000	 64.9109
8.263999	 64.9233
8.282000	 64.9096
8.300000	 64.8875
8.318000	 64.8661
8.336000	 64.8226
8.353999	 64.7417
8.372000	 64.66
8.390000	 64.6306
8.408000	 64.6431
8.426000	 64.6349
8.443999	 64.5916
8.462000	 64.56
8.480000	 64.5654
8.498000	 64.585
8.516000	 64.597
8.533999	 64.6034
8.552000	 64.6114
8.570000	 64.6235
8.588000	 64.6445
8.606000	 64.6717
8.624000	 64.6878
8.641999	 64.686
8.660000	 64.6897
8.678000	 64.7274
8.696000	 64.7952
8.714000	 64.853
8.731999	 64.8615
8.750000	 64.8175
8.768000	 64.7504
8.786000	 64.6921
8.804000	 64.6573
8.821999	 64.644
8.840000	 64.6397
8.858000	 64.6282
8.876000	 64.6017
8.894000	 64.5744
8.911999	 64.5756
8.930000	 64.6241
8.948000	 64.7004
8.966000	 64.7488
8.984000	 64.717
9.001999	 64.6
9.020000	 64.4462
9.038000	 64.3236
9.056000	 64.2705
9.074000	 64.267
9.092000	 64.2511
9.109999	 64.1759
9.128000	 64.0634
9.146000	 64.0049
9.164000	 64.0946
9.182000	 64.3483
9.199999	 64.6787
9.218000	 64.9501
9.236000	 65.0579
9.254000	 64.9801
9.272000	 64.7712
9.289999	 64.5211
9.308000	 64.31
9.326000	 64.1836
9.344000	 64.1533
9.362000	 64.2078
9.379999	 64.3247
9.398000	 64.4689
9.416000	 64.5953
9.434000	 64.6677
9.452000	 64.6821
9.469999	 64.6695
9.488000	 64.6637
9.506000	 64.6665
9.524000	 64.6474
9.542000	 64.5779
9.560000	 64.468
9.577999	 64.361
9.596000	 64.2977
9.614000	 64.29
9.632000	 64.3266
9.650000	 64.3929
9.667999	 64.4758
9.686000	 64.5552
9.704000	 64.5971
9.722000	 64.5675
9.740000	 64.4585
9.757999	 64.3025
9.776000	 64.1572
9.794000	 64.0674
9.812000	 64.0397
9.830000	 64.0498
9.847999	 64.0703
9.866000	 64.0863
9.884000	 64.092
9.902000	 64.0821
9.920000	 64.0536
9.937999	 64.0174
9.956000	 63.9969
9.974000	 64.0104
9.992000	 64.0525
10.01	64.0939
10.028	64.1061
10.046	64.0895
10.064	64.0719
10.082	64.0848
10.1	64.1357
10.118	64.2013
10.136	64.2491
10.154	64.2625
10.172	64.2502
10.19	64.2355
10.208	64.2321
10.226	64.2344
10.244	64.2258
10.262	64.1967
10.28	64.1559
10.298	64.1258
10.316	64.1283
10.334	64.1696
10.352	64.2389
10.37	64.3153
10.388	64.3791
10.406	64.4198
10.424	64.434
10.442	64.4236
10.46	64.3935
10.478	64.3526
10.496	64.3111
10.514	64.2766
10.532	64.2522
10.55	64.2374
10.568	64.2316
10.586	64.2358
10.604	64.2511
10.622	64.276
10.64	64.3068
10.658	64.3389
10.676	64.3688
10.694	64.3956
10.712	64.4203
10.73	64.4449
10.748	64.4708
10.766	64.4978
10.784	64.5244
10.802	64.5473
10.82	64.5615
10.838	64.5622
10.856	64.5472
10.874	64.519
10.892	64.4837
10.91	64.4477
10.928	64.4156
10.946	64.3883
10.964	64.3643
10.982	64.3424
11	64.322
11.018	64.3031
11.036	64.2859
11.054	64.2703
11.072	64.2547
11.09	64.2374
11.108	64.2168
11.126	64.1933
11.144	64.1694
11.162	64.1497
11.18	64.1381
11.198	64.1373
11.216	64.1486
11.234	64.1724
11.252	64.209
11.27	64.2577
11.288	64.3145
11.306	64.3713
11.324	64.4157
11.342	64.4349
11.36	64.4217
11.378	64.3773
11.396	64.3126
11.414	64.245
11.432	64.1916
11.45	64.1628
11.468	64.1618
11.486	64.1852
11.504	64.227
11.522	64.2797
11.54	64.3371
11.558	64.3915
11.576	64.4357
11.594	64.4639
11.612	64.4729
11.63	64.4636
11.648	64.4403
11.666	64.4106
11.684	64.3822
11.702	64.3601
11.72	64.3465
11.738	64.3401
11.756	64.3376
11.774	64.3357
11.792	64.3324
11.81	64.3278
11.828	64.3227
11.846	64.3176
11.864	64.3109
11.882	64.2994
11.9	64.2789
11.918	64.2463
11.936	64.2026
11.954	64.1531
11.972	64.1081
11.99	64.0795
12.008	64.0772
12.026	64.1062
12.044	64.164
12.062	64.2403
12.08	64.3199
12.098	64.3869
12.116	64.4281
12.134	64.4368
12.152	64.4136
12.17	64.3652
12.188	64.3012
12.206	64.2318
12.224	64.1655
12.242	64.1077
12.26	64.0615
12.278	64.0275
12.296	64.0049
12.314	63.991
12.332	63.984
12.35	63.9819
12.368	63.9845
12.386	63.9925
12.404	64.0072
12.422	64.0296
12.44	64.0591
12.458	64.0929
12.476	64.1257
12.494	64.1507
12.512	64.1612
12.53	64.1529
12.548	64.1245
12.566	64.079
12.584	64.0227
12.602	63.9643
12.62	63.9129
12.638	63.876
12.656	63.8587
12.674	63.8619
12.692	63.8834
12.71	63.9182
12.728	63.9599
12.746	64.0017
12.764	64.0376
12.782	64.0628
12.8	64.0752
12.818	64.0757
12.836	64.0672
12.854	64.0533
12.872	64.0384
12.89	64.0252
12.908	64.0144
12.926	64.0046
12.944	63.9924
12.962	63.9756
12.98	63.9537
12.998	63.9287
13.016	63.9047
13.034	63.887
13.052	63.8792
13.07	63.8816
13.088	63.8897
13.106	63.896
13.124	63.8909
13.142	63.8672
13.16	63.8233
13.178	63.7654
13.196	63.7066
13.214	63.6649
13.232	63.6584
13.25	63.7006
13.268	63.796
13.286	63.9376
13.304	64.1085
13.322	64.2837
13.34	64.4366
13.358	64.5427
13.376	64.5858
13.394	64.5597
13.412	64.4694
13.43	64.3289
13.448	64.1578
13.466	63.9778
13.484	63.8084
13.502	63.6645
13.52	63.5544
13.538	63.4799
13.556	63.4365
13.574	63.4153
13.592	63.4048
13.61	63.393
13.628	63.3707
13.646	63.3323
13.664	63.2778
13.682	63.2114
13.7	63.1415
13.718	63.0776
13.736	63.0295
13.754	63.0039
13.772	63.0037
13.79	63.0272
13.808	63.0685
13.826	63.1194
13.844	63.1712
13.862	63.2164
13.88	63.2506
13.898	63.2722
13.916	63.2827
13.934	63.2859
13.952	63.2864
13.97	63.2882
13.988	63.2939
14.006	63.304
14.024	63.3176
14.042	63.3325
14.06	63.3468
14.078	63.3583
14.096	63.3661
14.114	63.3698
14.132	63.3706
14.15	63.3699
14.168	63.3697
14.186	63.372
14.204	63.3786
14.222	63.3911
14.24	63.4109
14.258	63.4383
14.276	63.4731
14.294	63.5142
14.312	63.5589
14.33	63.6036
14.348	63.6435
14.366	63.6735
14.384	63.689
14.402	63.6864
14.42	63.6646
14.438	63.6248
14.456	63.5703
14.474	63.5064
14.492	63.4391
14.51	63.375
14.528	63.3187
14.546	63.2731
14.564	63.2385
14.582	63.2136
14.6	63.1953
14.618	63.1798
14.636	63.1636
14.654	63.1448
14.672	63.1231
14.69	63.0997
14.708	63.0769
14.726	63.0579
14.744	63.0462
14.762	63.0433
14.78	63.0493
14.798	63.0628
14.816	63.081
14.834	63.1002
14.852	63.1164
14.87	63.1263
14.888	63.128
14.906	63.1209
14.924	63.1061
14.942	63.0859
14.96	63.0641
14.978	63.0444
14.996	63.0302
15.014	63.0245
15.032	63.0293
15.05	63.0447
15.068	63.0699
15.086	63.103
15.104	63.1416
15.122	63.1821
15.14	63.221
15.158	63.2549
15.176	63.2809
15.194	63.2961
15.212	63.2985
15.23	63.287
15.248	63.261
15.266	63.2206
15.284	63.1671
15.302	63.1027
15.32	63.03
15.338	62.9517
15.356	62.8715
15.374	62.7929
15.392	62.7191
15.41	62.6526
15.428	62.596
15.446	62.5512
15.464	62.5191
15.482	62.5
15.5	62.4936
15.518	62.4985
15.536	62.5129
15.554	62.5347
15.572	62.5614
15.59	62.5898
15.608	62.6177
15.626	62.6431
15.644	62.6643
15.662	62.6799
15.68	62.6895
15.698	62.6932
15.716	62.6916
15.734	62.6861
15.752	62.6782
15.77	62.6694
15.788	62.662
15.806	62.6578
15.824	62.6582
15.842	62.6646
15.86	62.6774
15.878	62.6967
15.896	62.722
15.914	62.7519
15.932	62.7844
15.95	62.818
15.968	62.8502
15.986	62.8784
16.004	62.9013
16.022	62.9173
16.04	62.9258
16.058	62.9272
16.076	62.9221
16.094	62.9124
16.112	62.9001
16.13	62.8871
16.148	62.876
16.166	62.8685
16.184	62.8654
16.202	62.8673
16.22	62.873
16.238	62.8812
16.256	62.8903
16.274	62.8972
16.292	62.9001
16.31	62.8973
16.328	62.8871
16.346	62.8696
16.364	62.8449
16.382	62.8142
16.4	62.7795
16.418	62.7422
16.436	62.7049
16.454	62.6688
16.472	62.6348
16.49	62.6036
16.508	62.5751
16.526	62.5488
16.544	62.5237
16.562	62.4986
16.58	62.473
16.598	62.4457
16.616	62.417
16.634	62.3867
16.652	62.356
16.67	62.3261
16.688	62.2983
16.706	62.2746
16.724	62.256
16.742	62.2438
16.76	62.238
16.778	62.2384
16.796	62.2442
16.814	62.253
16.832	62.2633
16.85	62.2718
16.868	62.2761
16.886	62.2741
16.904	62.2633
16.922	62.2432
16.94	62.2128
16.958	62.1734
16.976	62.1257
16.994	62.0722
17.012	62.0156
17.03	61.9577
17.048	61.9023
17.066	61.8506
17.084	61.8047
17.102	61.7656
17.12	61.7334
17.138	61.7077
17.156	61.6872
17.174	61.6707
17.192	61.6557
17.21	61.6412
17.228	61.6249
17.246	61.6064
17.264	61.585
17.282	61.5613
17.3	61.5361
17.318	61.511
17.336	61.4883
17.354	61.4694
17.372	61.4574
17.39	61.4529
17.408	61.4583
17.426	61.4735
17.444	61.4989
17.462	61.5334
17.48	61.5762
17.498	61.625
17.516	61.678
17.534	61.7335
17.552	61.7885
17.57	61.8422
17.588	61.8917
17.606	61.9366
17.624	61.9755
17.642	62.008
17.66	62.0338
17.678	62.0529
17.696	62.0655
17.714	62.0724
17.732	62.0741
17.75	62.0712
17.768	62.0647
17.786	62.055
17.804	62.0437
17.822	62.031
17.84	62.0182
17.858	62.0061
17.876	61.9954
17.894	61.9869
17.912	61.9811
17.93	61.9787
17.948	61.9799
17.966	61.9848
17.984	61.9931
18.002	62.0045
18.02	62.0181
18.038	62.0334
18.056	62.0489
18.074	62.0642
18.092	62.0777
18.11	62.0892
18.128	62.0975
18.146	62.1026
18.164	62.1038
18.182	62.1011
18.2	62.0945
18.218	62.0843
18.236	62.0705
18.254	62.0536
18.272	62.0337
18.29	62.0112
18.308	61.9862
18.326	61.9589
18.344	61.9293
18.362	61.8974
18.38	61.8635
18.398	61.8276
18.416	61.7901
18.434	61.7515
18.452	61.7126
18.47	61.6737
18.488	61.6364
18.506	61.6008
18.524	61.5687
18.542	61.5403
18.56	61.5167
18.578	61.4982
18.596	61.4854
18.614	61.4782
18.632	61.4763
18.65	61.4797
18.668	61.4873
18.686	61.499
18.704	61.5129
18.722	61.529
18.74	61.5456
18.758	61.5628
18.776	61.5796
18.794	61.5962
18.812	61.6122
18.83	61.6277
18.848	61.6431
18.866	61.6583
18.884	61.6733
18.902	61.6879
18.92	61.7019
18.938	61.7142
18.956	61.7239
18.974	61.7297
18.992	61.7298
19.01	61.723
19.028	61.7071
19.046	61.6817
19.064	61.6449
19.082	61.5971
19.1	61.5375
19.118	61.4673
19.136	61.3874
19.154	61.2995
19.172	61.2066
19.19	61.1104
19.208	61.0157
19.226	60.9235
19.244	60.8396
19.262	60.7643
19.28	60.703
19.298	60.6553
19.316	60.6249
19.334	60.6115
19.352	60.6158
19.37	60.6377
19.388	60.6749
19.406	60.7275
19.424	60.7907
19.442	60.8648
19.46	60.9438
19.478	61.0275
19.496	61.1105
19.514	61.1916
19.532	61.2672
19.55	61.3349
19.568	61.3936
19.586	61.4409
19.604	61.477
19.622	61.5005
19.64	61.512
19.658	61.5123
19.676	61.5014
19.694	61.4818
19.712	61.4533
19.73	61.4192
19.748	61.3793
19.766	61.3367
19.784	61.2918
19.802	61.2463
19.82	61.2012
19.838	61.1571
19.856	61.1151
19.874	61.0751
19.892	61.0369
19.91	61.0006
19.928	60.9651
19.946	60.9305
19.964	60.8949
19.982	60.8583
20	60.8192
20.018	60.7771
20.036	60.7314
20.054	60.681
20.072	60.6263
20.09	60.567
20.108	60.5031
20.126	60.4358
20.144	60.3648
20.162	60.2925
20.18	60.2191
20.198	60.1462
20.216	60.0762
20.234	60.0089
20.252	59.9476
20.27	59.8918
20.288	59.844
20.306	59.8044
20.324	59.7735
20.342	59.7522
20.36	59.7396
20.378	59.7354
20.396	59.7395
20.414	59.7492
20.432	59.7652
20.45	59.7843
20.468	59.8057
20.486	59.8281
20.504	59.8486
20.522	59.8676
20.54	59.8819
20.558	59.8916
20.576	59.8956
20.594	59.8928
20.612	59.8839
20.63	59.8684
20.648	59.8465
20.666	59.8199
20.684	59.7882
20.702	59.7532
20.72	59.7161
20.738	59.6771
20.756	59.6389
20.774	59.6011
20.792	59.5654
20.81	59.5319
20.828	59.5012
20.846	59.4742
20.864	59.4506
20.882	59.4309
20.9	59.4153
20.918	59.4034
20.936	59.3954
20.954	59.391
20.972	59.3899
20.99	59.392
21.008	59.397
21.026	59.4045
21.044	59.4145
21.062	59.4264
21.08	59.4405
21.098	59.4563
21.116	59.4737
21.134	59.4927
21.152	59.5129
21.17	59.5345
21.188	59.5573
21.206	59.5812
21.224	59.6062
21.242	59.6322
21.26	59.6592
21.278	59.6868
21.296	59.715
21.314	59.7436
21.332	59.772
21.35	59.8006
21.368	59.8283
21.386	59.855
21.404	59.8804
21.422	59.9037
21.44	59.925
21.458	59.9436
21.476	59.9591
21.494	59.9716
21.512	59.9809
21.53	59.9868
21.548	59.99
21.566	59.9908
21.584	59.9891
21.602	59.9867
21.62	59.9829
21.638	59.9794
21.656	59.9784
21.674	59.979
21.692	59.9836
21.71	59.9929
21.728	60.0068
21.746	60.027
21.764	60.0536
21.782	60.0858
21.8	60.1237
21.818	60.1673
21.836	60.2145
21.854	60.266
21.872	60.3198
21.89	60.3724
21.908	60.4254
21.926	60.4741
21.944	60.5158
21.962	60.5517
21.98	60.576
21.998	60.5886
22.016	60.5888
22.034	60.5727
22.052	60.5413
22.07	60.4941
22.088	60.4299
22.106	60.3494
22.124	60.255
22.142	60.1462
22.16	60.0245
22.178	59.8954
22.196	59.7567
22.214	59.6131
22.232	59.4702
22.25	59.3252
22.268	59.1847
22.286	59.0521
22.304	58.9257
22.322	58.8115
22.34	58.7107
22.358	58.6227
22.376	58.5498
22.394	58.4928
22.412	58.45
22.43	58.4205
22.448	58.4054
22.466	58.4012
22.484	58.4055
22.502	58.4198
22.52	58.439
22.538	58.4611
22.556	58.4872
22.574	58.5115
22.592	58.5336
22.61	58.5533
22.628	58.5668
22.646	58.5742
22.664	58.5755
22.682	58.5689
22.7	58.5542
22.718	58.5327
22.736	58.5052
22.754	58.4709
22.772	58.432
22.79	58.3903
22.808	58.3442
22.826	58.2977
22.844	58.253
22.862	58.2086
22.88	58.1683
22.898	58.1337
22.916	58.1037
22.934	58.082
22.952	58.07
22.97	58.0667
22.988	58.0741
23.006	58.0927
23.024	58.1221
23.042	58.1632
23.06	58.2163
23.078	58.2809
23.096	58.3569
23.114	58.4445
23.132	58.5433
23.15	58.6521
23.168	58.7711
23.186	58.9
23.204	59.0374
23.222	59.1837
23.24	59.3383
23.258	59.4991
23.276	59.6668
23.294	59.8405
23.312	60.017
23.33	60.1971
23.348	60.38
23.366	60.5618
23.384	60.7427
23.402	60.9227
23.42	61.0991
23.438	61.2729
23.456	61.4431
23.474	61.6057
23.492	61.7611
23.51	61.9091
23.528	62.044
23.546	62.1651
23.564	62.2734
23.582	62.3632
23.6	62.4323
23.618	62.483
23.636	62.5112
23.654	62.515
23.672	62.4965
23.69	62.4526
23.708	62.3815
23.726	62.2845
23.744	62.1611
23.762	62.0104
23.78	61.8324
23.798	61.6287
23.816	61.4006
23.834	61.1463
23.852	60.8689
23.87	60.5729
23.888	60.2554
23.906	59.9196
23.924	59.5728
23.942	59.2135
23.96	58.8424
23.978	58.4689
23.996	58.0949
24.014	57.7172
24.032	57.3463
24.05	56.9883
24.068	56.6372
24.086	56.3016
24.104	55.9899
24.122	55.6968
24.14	55.4267
24.158	55.1867
24.176	54.9754
24.194	54.7926
24.212	54.6413
24.23	54.5234
24.248	54.4371
24.266	54.3804
24.284	54.3533
24.302	54.3573
24.32	54.3867
24.338	54.4366
24.356	54.5119
24.374	54.6064
24.392	54.7107
24.41	54.8277
24.428	54.9561
24.446	55.0858
24.464	55.2134
24.482	55.3438
24.5	55.468
24.518	55.5785
24.536	55.68
24.554	55.7697
24.572	55.8428
24.59	55.9003
24.608	55.9424
24.626	55.966
24.644	55.968
24.662	55.9496
24.68	55.9154
24.698	55.8696
24.716	55.8088
24.734	55.7363
24.752	55.6574
24.77	55.5681
24.788	55.4696
24.806	55.3767
24.824	55.2976
24.842	55.2201
24.86	55.1613
24.878	55.1421
24.896	55.1524
24.914	55.1963
24.932	55.297
24.95	55.4657
24.968	55.6869
24.986	55.9798
25.004	56.3648
25.022	56.8355
25.04	57.3909
25.058	58.0396
25.076	58.7886
25.094	59.6341
25.112	60.5683
25.13	61.5847
25.148	62.6968
25.166	63.8902
25.184	65.1382
25.202	66.4347
25.22	67.7988
25.238	69.1906
25.256	70.5693
25.274	71.9592
25.292	73.3494
25.31	74.6955
25.328	75.9736
25.346	77.2138
25.364	78.3869
25.382	79.4578
25.4	80.4313
25.418	81.3148
25.436	82.0904
25.454	82.7432
25.472	83.2791
25.49	83.7038
25.508	84.0209
25.526	84.2265
25.544	84.32
25.562	84.3176
25.58	84.2337
25.598	84.0542
25.616	83.7892
25.634	83.4625
25.652	83.0871
25.67	82.6443
25.688	82.1542
25.706	81.6413
25.724	81.1045
25.742	80.5353
25.76	79.9548
25.778	79.3822
25.796	78.8047
25.814	78.2271
25.832	77.6663
25.85	77.1335
25.868	76.6163
25.886	76.1229
25.904	75.6642
25.922	75.2409
25.94	74.8464
25.958	74.4929
25.976	74.1922
25.994	73.9409
26.012	73.7367
26.03	73.5867
26.048	73.4967
26.066	73.4623
26.084	73.4845
26.102	73.5668
26.12	73.7129
26.138	73.923
26.156	74.1912
26.174	74.5115
26.192	74.886
26.21	75.3206
26.228	75.7978
26.246	76.2993
26.264	76.8319
26.282	77.401
26.3	77.9806
26.318	78.5452
26.336	79.112
26.354	79.6786
26.372	80.2146
26.39	80.6921
26.408	81.1328
26.426	81.5304
26.444	81.8591
26.462	82.0974
26.48	82.2618
26.498	82.349
26.516	82.3469
26.534	82.2455
26.552	82.0506
26.57	81.7651
26.588	81.3902
26.606	80.9241
26.624	80.3599
26.642	79.7116
26.66	78.9953
26.678	78.2173
26.696	77.3609
26.714	76.4452
26.732	75.4924
26.75	74.5117
26.768	73.483
26.786	72.4256
26.804	71.3621
26.822	70.3023
26.84	69.2279
26.858	68.1529
26.876	67.0938
26.894	66.0589
26.912	65.0362
26.93	64.0314
26.948	63.052
26.966	62.0666
26.984	61.0175
27.002	60.0393
27.02	59.2789
27.028	59.0728