File: Bakgrunnsmateriale/MATLAB/FTIR/ftir_data/subBb/Mapping_121/C-4040-8_t20.asc
PE IR       SPECTRUM    SPECTRUM    ASCII       PEDS        1.60
  -1
C-AD2A~1.ASC
17/03/27
16:03:50.00
17/03/27
16:04:17.00
tln
$C-4040-8_t0020$<tbV0>[-7.8,-10.4,8.0,0.0,27,1,0]
27.028
64

2002,4.07
MIRTGS : RIGHTBACK : INTERNAL 2
MIR : ON : INTERNAL 2
OPTKBR

0.200000
8
8.000000
FILLER
RATIO
SPECTRUM
UNLOCKED 256

DOUBLE
64
COMBINED
1
0
0

0.002000
RATIO

1
0
TRUE
51149
0
LEFT NOT FITTED RIGHT NOT FITTED 0
NONE
NONE
15600
12
4.427000
51148
TRUE
1 0 8 72 0 0 0 0

15798

#HDR
-1
-1
#GR
µM
%T
2.38419e-05
0.0
2.000000
0.002000
12515
8
72.9956
18.7701
#DATA
2.000000	 64.2489
2.018000	 63.4504
2.036000	 65.0031
2.054000	 64.6042
2.072000	 64.2401
2.090000	 64.6693
2.108000	 64.2833
2.126000	 64.2755
2.144000	 64.6691
2.162000	 64.2065
2.180000	 64.1753
2.198000	 63.8653
2.216000	 63.9712
2.234000	 64.2325
2.252000	 67.718
2.270000	 62.898
2.288000	 68.8264
2.306000	 64.499
2.324000	 63.4065
2.342000	 64.2006
2.360000	 63.9424
2.378000	 64.1195
2.396000	 63.2356
2.414000	 63.5404
2.432000	 63.982
2.450000	 63.9715
2.468000	 63.8959
2.486000	 63.9764
2.504000	 64.0553
2.522000	 63.9814
2.540000	 63.669
2.558000	 63.9402
2.576000	 63.6684
2.594000	 64.0139
2.612000	 63.6298
2.630000	 63.853
2.648000	 63.2981
2.666000	 63.784
2.684000	 63.4369
2.702000	 63.3644
2.720000	 63.8838
2.738000	 63.4024
2.756000	 63.2925
2.774000	 63.0367
2.792000	 63.0002
2.810000	 63.0552
2.828000	 62.846
2.846000	 62.706
2.864000	 62.614
2.882000	 62.7598
2.900000	 62.621
2.918000	 62.4073
2.936000	 62.3643
2.954000	 62.3457
2.972000	 62.3769
2.990000	 62.111
3.008000	 62.1129
3.026000	 62.0448
3.044000	 61.9907
3.062000	 61.764
3.080000	 61.8693
3.098000	 61.814
3.116000	 61.8005
3.134000	 61.5869
3.152000	 61.5186
3.170000	 61.7109
3.188000	 61.5373
3.206000	 61.5134
3.224000	 61.3121
3.242000	 61.4522
3.260000	 61.3277
3.278000	 61.2738
3.296000	 61.0938
3.314000	 61.211
3.332000	 60.9022
3.350000	 60.8004
3.368000	 60.5611
3.386000	 60.5872
3.404000	 60.5427
3.422000	 60.3089
3.440000	 60.2418
3.458000	 60.4697
3.476000	 60.1526
3.494000	 60.2521
3.512000	 60.0733
3.530000	 60.2674
3.548000	 60.2487
3.566000	 60.0477
3.584000	 60.0881
3.602000	 59.9839
3.620000	 59.8063
3.638000	 59.8948
3.656000	 59.7399
3.674000	 59.515
3.692000	 59.5334
3.710000	 59.5466
3.728000	 59.4337
3.746000	 59.3234
3.764000	 59.243
3.782000	 59.22
3.800000	 59.159
3.818000	 59.0176
3.836000	 58.9576
3.854000	 58.9183
3.872000	 58.7943
3.890000	 58.7568
3.908000	 58.757
3.926000	 58.6889
3.944000	 58.5488
3.962000	 58.4643
3.980000	 58.4082
3.998000	 58.349
4.016000	 58.2889
4.034000	 58.244
4.052000	 58.2694
4.070000	 58.0879
4.088000	 58.0645
4.106000	 58.106
4.124000	 57.8308
4.141999	 57.5476
4.160000	 57.6147
4.178000	 57.7182
4.196000	 57.6048
4.214000	 57.5472
4.232000	 57.6805
4.250000	 57.4136
4.268000	 57.3012
4.286000	 57.4078
4.304000	 57.1544
4.322000	 57.011
4.340000	 56.9828
4.358000	 56.9849
4.375999	 56.8674
4.394000	 56.8903
4.412000	 56.8569
4.430000	 56.7655
4.448000	 56.753
4.466000	 56.6155
4.484000	 56.4852
4.502000	 56.43
4.520000	 56.3291
4.538000	 56.3777
4.556000	 56.3546
4.574000	 56.1927
4.592000	 56.162
4.609999	 56.1686
4.628000	 56.1907
4.646000	 56.0013
4.664000	 55.861
4.682000	 56.0109
4.700000	 55.8254
4.718000	 55.7033
4.736000	 55.7186
4.754000	 55.6303
4.772000	 55.5958
4.790000	 55.687
4.808000	 55.5468
4.826000	 55.1688
4.843999	 55.3941
4.862000	 55.3206
4.880000	 55.1019
4.898000	 55.2036
4.916000	 55.183
4.934000	 55.0459
4.952000	 54.9583
4.970000	 55.0129
4.988000	 54.9375
5.006000	 54.8209
5.024000	 54.7872
5.042000	 54.7881
5.060000	 54.6927
5.077999	 54.6205
5.096000	 54.5752
5.114000	 54.4879
5.132000	 54.4306
5.150000	 54.4044
5.168000	 54.4024
5.186000	 54.3124
5.204000	 54.2672
5.222000	 54.2299
5.240000	 54.2222
5.258000	 54.085
5.276000	 54.1132
5.294000	 54.0348
5.312000	 53.9239
5.330000	 53.8885
5.348000	 53.839
5.366000	 53.7635
5.384000	 53.6911
5.402000	 53.6692
5.420000	 53.7162
5.438000	 53.5598
5.456000	 53.5114
5.474000	 53.5762
5.492000	 53.5655
5.510000	 53.5194
5.528000	 53.4653
5.546000	 53.478
5.564000	 53.3438
5.582000	 53.328
5.600000	 53.3388
5.618000	 53.2797
5.636000	 53.2922
5.654000	 53.1862
5.672000	 53.0441
5.690000	 53.0701
5.708000	 53.0709
5.726000	 52.942
5.744000	 52.8117
5.762000	 52.8039
5.780000	 52.7555
5.798000	 52.6783
5.816000	 52.7762
5.834000	 52.7937
5.852000	 52.7772
5.870000	 52.9429
5.888000	 52.9623
5.906000	 52.661
5.923999	 52.5998
5.942000	 52.6486
5.960000	 52.4596
5.978000	 52.3774
5.996000	 52.2234
6.014000	 52.1329
6.032000	 52.3979
6.050000	 52.6817
6.068000	 52.5262
6.086000	 52.2037
6.104000	 52.0539
6.122000	 51.9566
6.140000	 51.8562
6.158000	 51.8453
6.176000	 51.8083
6.194000	 51.6988
6.212000	 51.5977
6.230000	 51.618
6.248000	 51.608
6.266000	 51.5742
6.284000	 51.5016
6.302000	 51.4438
6.320000	 51.513
6.338000	 51.6163
6.356000	 51.5058
6.374000	 51.382
6.392000	 51.4563
6.410000	 51.5867
6.428000	 51.5012
6.446000	 51.3743
6.464000	 51.4294
6.482000	 51.5798
6.500000	 51.5051
6.518000	 51.2184
6.536000	 51.1122
6.554000	 51.1906
6.572000	 51.2153
6.590000	 51.0798
6.608000	 50.9971
6.626000	 51.0965
6.644000	 51.1005
6.662000	 50.9505
6.680000	 50.841
6.698000	 50.796
6.716000	 50.7341
6.734000	 50.6105
6.752000	 50.5379
6.770000	 50.6199
6.788000	 50.7383
6.806000	 50.6923
6.824000	 50.5758
6.842000	 50.6198
6.860000	 50.6951
6.878000	 50.5591
6.896000	 50.3864
6.914000	 50.3288
6.932000	 50.2674
6.950000	 50.2404
6.968000	 50.251
6.986000	 50.1927
7.004000	 50.1316
7.022000	 50.1825
7.040000	 50.2482
7.058000	 50.1732
7.076000	 49.9954
7.094000	 49.8326
7.112000	 49.7687
7.130000	 49.8055
7.148000	 49.8251
7.166000	 49.7947
7.184000	 49.8067
7.202000	 49.8461
7.220000	 49.8226
7.238000	 49.7421
7.256000	 49.6753
7.274000	 49.6428
7.292000	 49.5955
7.310000	 49.5121
7.328000	 49.4661
7.346000	 49.4979
7.364000	 49.5298
7.382000	 49.4935
7.400000	 49.4161
7.418000	 49.3735
7.436000	 49.3928
7.454000	 49.4165
7.472000	 49.3891
7.490000	 49.3298
7.508000	 49.2831
7.526000	 49.2587
7.544000	 49.2335
7.562000	 49.2173
7.580000	 49.2317
7.598000	 49.2259
7.616000	 49.1421
7.634000	 49.0268
7.652000	 48.9689
7.670000	 48.9735
7.688000	 48.9794
7.706000	 48.953
7.724000	 48.9168
7.742000	 48.9131
7.760000	 48.9337
7.778000	 48.909
7.796000	 48.8038
7.814000	 48.6717
7.832000	 48.5854
7.850000	 48.5681
7.868000	 48.5965
7.886000	 48.6321
7.904000	 48.6448
7.922000	 48.6261
7.940000	 48.584
7.958000	 48.5293
7.976000	 48.4763
7.994000	 48.4454
8.012000	 48.4498
8.030000	 48.4731
8.048000	 48.4791
8.065999	 48.4518
8.084000	 48.411
8.102000	 48.38
8.120000	 48.3575
8.138000	 48.3345
8.155999	 48.3125
8.173999	 48.2921
8.192000	 48.2616
8.210000	 48.2149
8.228000	 48.1685
8.246000	 48.1476
8.263999	 48.1601
8.282000	 48.1898
8.300000	 48.2125
8.318000	 48.2122
8.336000	 48.1872
8.353999	 48.1477
8.372000	 48.1112
8.390000	 48.089
8.408000	 48.0745
8.426000	 48.0494
8.443999	 48.0041
8.462000	 47.9448
8.480000	 47.8779
8.498000	 47.8013
8.516000	 47.7187
8.533999	 47.6525
8.552000	 47.6305
8.570000	 47.6564
8.588000	 47.7028
8.606000	 47.7356
8.624000	 47.7387
8.641999	 47.7174
8.660000	 47.6876
8.678000	 47.6601
8.696000	 47.6266
8.714000	 47.5717
8.731999	 47.5012
8.750000	 47.4458
8.768000	 47.4306
8.786000	 47.4487
8.804000	 47.4734
8.821999	 47.4877
8.840000	 47.4905
8.858000	 47.4792
8.876000	 47.4444
8.894000	 47.3904
8.911999	 47.3465
8.930000	 47.3386
8.948000	 47.3584
8.966000	 47.3688
8.984000	 47.3379
9.001999	 47.264
9.020000	 47.1724
9.038000	 47.0922
9.056000	 47.0354
9.074000	 46.9967
9.092000	 46.9722
9.109999	 46.9717
9.128000	 47.0084
9.146000	 47.0701
9.164000	 47.1175
9.182000	 47.119
9.199999	 47.0816
9.218000	 47.037
9.236000	 47.0023
9.254000	 46.9646
9.272000	 46.9039
9.289999	 46.8245
9.308000	 46.7538
9.326000	 46.7173
9.344000	 46.7257
9.362000	 46.7761
9.379999	 46.8546
9.398000	 46.9337
9.416000	 46.978
9.434000	 46.9584
9.452000	 46.8723
9.469999	 46.7526
9.488000	 46.6559
9.506000	 46.6296
9.524000	 46.68
9.542000	 46.7683
9.560000	 46.8365
9.577999	 46.8442
9.596000	 46.7895
9.614000	 46.6977
9.632000	 46.5971
9.650000	 46.5087
9.667999	 46.4469
9.686000	 46.4247
9.704000	 46.4491
9.722000	 46.5123
9.740000	 46.589
9.757999	 46.6418
9.776000	 46.6388
9.794000	 46.5704
9.812000	 46.4603
9.830000	 46.3569
9.847999	 46.3068
9.866000	 46.3244
9.884000	 46.3801
9.902000	 46.4195
9.920000	 46.4011
9.937999	 46.3261
9.956000	 46.2326
9.974000	 46.1635
9.992000	 46.1351
10.01	46.1304
10.028	46.121
10.046	46.0945
10.064	46.0684
10.082	46.073
10.1	46.1259
10.118	46.2169
10.136	46.3158
10.154	46.3965
10.172	46.4502
10.19	46.4837
10.208	46.5012
10.226	46.494
10.244	46.4433
10.262	46.3368
10.28	46.1824
10.298	46.0043
10.316	45.8331
10.334	45.6946
10.352	45.6071
10.37	45.5818
10.388	45.62
10.406	45.7066
10.424	45.8066
10.442	45.8734
10.46	45.8699
10.478	45.7839
10.496	45.6361
10.514	45.4652
10.532	45.3111
10.55	45.1984
10.568	45.1352
10.586	45.1166
10.604	45.1321
10.622	45.1678
10.64	45.2093
10.658	45.2439
10.676	45.2646
10.694	45.274
10.712	45.2833
10.73	45.3057
10.748	45.3476
10.766	45.4041
10.784	45.4609
10.802	45.5004
10.82	45.5118
10.838	45.4947
10.856	45.4575
10.874	45.4124
10.892	45.3669
10.91	45.32
10.928	45.2651
10.946	45.1957
10.964	45.1116
10.982	45.021
11	44.9362
11.018	44.8673
11.036	44.8169
11.054	44.7805
11.072	44.7516
11.09	44.7283
11.108	44.7155
11.126	44.7218
11.144	44.7521
11.162	44.8011
11.18	44.855
11.198	44.896
11.216	44.911
11.234	44.8974
11.252	44.8626
11.27	44.8199
11.288	44.7824
11.306	44.7578
11.324	44.7468
11.342	44.7444
11.36	44.7446
11.378	44.7423
11.396	44.7356
11.414	44.7249
11.432	44.7113
11.45	44.6947
11.468	44.6746
11.486	44.6499
11.504	44.6204
11.522	44.587
11.54	44.5516
11.558	44.5162
11.576	44.4832
11.594	44.4544
11.612	44.4307
11.63	44.413
11.648	44.4019
11.666	44.3975
11.684	44.3991
11.702	44.4054
11.72	44.4135
11.738	44.4187
11.756	44.4159
11.774	44.4007
11.792	44.3715
11.81	44.3307
11.828	44.2836
11.846	44.2379
11.864	44.1999
11.882	44.1717
11.9	44.1512
11.918	44.1322
11.936	44.1085
11.954	44.0766
11.972	44.0385
11.99	44.0012
12.008	43.9742
12.026	43.9658
12.044	43.9794
12.062	44.0116
12.08	44.0533
12.098	44.0925
12.116	44.1179
12.134	44.1225
12.152	44.1052
12.17	44.069
12.188	44.0196
12.206	43.9626
12.224	43.9032
12.242	43.8447
12.26	43.7903
12.278	43.7431
12.296	43.7055
12.314	43.6795
12.332	43.6662
12.35	43.665
12.368	43.6743
12.386	43.6907
12.404	43.7098
12.422	43.7262
12.44	43.7341
12.458	43.7289
12.476	43.7085
12.494	43.674
12.512	43.6297
12.53	43.5831
12.548	43.5423
12.566	43.5147
12.584	43.5057
12.602	43.5174
12.62	43.5481
12.638	43.5933
12.656	43.6473
12.674	43.7038
12.692	43.7574
12.71	43.8041
12.728	43.8412
12.746	43.8672
12.764	43.8812
12.782	43.8825
12.8	43.8713
12.818	43.8478
12.836	43.8129
12.854	43.7683
12.872	43.7165
12.89	43.6607
12.908	43.6049
12.926	43.5527
12.944	43.5077
12.962	43.4726
12.98	43.4493
12.998	43.4373
13.016	43.4345
13.034	43.4364
13.052	43.4373
13.07	43.4309
13.088	43.4114
13.106	43.3748
13.124	43.3197
13.142	43.2479
13.16	43.1643
13.178	43.0758
13.196	42.9899
13.214	42.914
13.232	42.8535
13.25	42.8115
13.268	42.7881
13.286	42.7813
13.304	42.7873
13.322	42.8013
13.34	42.8177
13.358	42.8305
13.376	42.834
13.394	42.823
13.412	42.7939
13.43	42.7458
13.448	42.6804
13.466	42.6029
13.484	42.5208
13.502	42.443
13.52	42.3776
13.538	42.3308
13.556	42.3059
13.574	42.3027
13.592	42.3182
13.61	42.347
13.628	42.3832
13.646	42.4211
13.664	42.4563
13.682	42.4856
13.7	42.5076
13.718	42.5206
13.736	42.5243
13.754	42.5179
13.772	42.5015
13.79	42.4759
13.808	42.4429
13.826	42.4058
13.844	42.3684
13.862	42.3347
13.88	42.3077
13.898	42.2885
13.916	42.2767
13.934	42.2699
13.952	42.2646
13.97	42.2571
13.988	42.244
14.006	42.2235
14.024	42.1949
14.042	42.1591
14.06	42.1183
14.078	42.0751
14.096	42.0317
14.114	41.9901
14.132	41.9516
14.15	41.9171
14.168	41.8865
14.186	41.86
14.204	41.8376
14.222	41.8192
14.24	41.8046
14.258	41.7935
14.276	41.7844
14.294	41.7758
14.312	41.7655
14.33	41.7515
14.348	41.7324
14.366	41.707
14.384	41.6761
14.402	41.6413
14.42	41.6055
14.438	41.5721
14.456	41.5445
14.474	41.5259
14.492	41.5187
14.51	41.5237
14.528	41.5403
14.546	41.5659
14.564	41.5971
14.582	41.6295
14.6	41.6587
14.618	41.6809
14.636	41.693
14.654	41.6936
14.672	41.6827
14.69	41.6616
14.708	41.6324
14.726	41.5979
14.744	41.5612
14.762	41.525
14.78	41.4912
14.798	41.4611
14.816	41.4356
14.834	41.4146
14.852	41.398
14.87	41.3853
14.888	41.376
14.906	41.3698
14.924	41.3663
14.942	41.3649
14.96	41.3645
14.978	41.3638
14.996	41.3612
15.014	41.355
15.032	41.343
15.05	41.3239
15.068	41.2974
15.086	41.2643
15.104	41.2262
15.122	41.1866
15.14	41.1491
15.158	41.1174
15.176	41.0946
15.194	41.0835
15.212	41.0854
15.23	41.0995
15.248	41.1244
15.266	41.1573
15.284	41.1942
15.302	41.2307
15.32	41.2634
15.338	41.289
15.356	41.3046
15.374	41.3087
15.392	41.3008
15.41	41.2807
15.428	41.249
15.446	41.2068
15.464	41.1554
15.482	41.0962
15.5	41.0306
15.518	40.9609
15.536	40.8888
15.554	40.8163
15.572	40.7455
15.59	40.6787
15.608	40.6178
15.626	40.5639
15.644	40.5184
15.662	40.4811
15.68	40.452
15.698	40.4305
15.716	40.4159
15.734	40.4075
15.752	40.4044
15.77	40.4063
15.788	40.4127
15.806	40.4238
15.824	40.4398
15.842	40.4605
15.86	40.4856
15.878	40.5143
15.896	40.5457
15.914	40.5777
15.932	40.6082
15.95	40.6353
15.968	40.6567
15.986	40.6704
16.004	40.6757
16.022	40.6721
16.04	40.6604
16.058	40.6419
16.076	40.6183
16.094	40.5925
16.112	40.5666
16.13	40.5425
16.148	40.5221
16.166	40.5062
16.184	40.4947
16.202	40.4874
16.22	40.4825
16.238	40.4787
16.256	40.4745
16.274	40.4675
16.292	40.4562
16.31	40.4395
16.328	40.4159
16.346	40.3853
16.364	40.3476
16.382	40.303
16.4	40.2523
16.418	40.1961
16.436	40.1357
16.454	40.0723
16.472	40.0068
16.49	39.9406
16.508	39.8748
16.526	39.8103
16.544	39.7484
16.562	39.69
16.58	39.6359
16.598	39.5873
16.616	39.5448
16.634	39.5092
16.652	39.4809
16.67	39.4599
16.688	39.4463
16.706	39.4396
16.724	39.4395
16.742	39.4457
16.76	39.4569
16.778	39.4725
16.796	39.4912
16.814	39.5119
16.832	39.5338
16.85	39.5555
16.868	39.5764
16.886	39.5955
16.904	39.6118
16.922	39.6248
16.94	39.6337
16.958	39.6379
16.976	39.6371
16.994	39.6309
17.012	39.6192
17.03	39.6018
17.048	39.579
17.066	39.5512
17.084	39.5186
17.102	39.4822
17.12	39.4425
17.138	39.4008
17.156	39.3583
17.174	39.316
17.192	39.2758
17.21	39.2382
17.228	39.2047
17.246	39.1758
17.264	39.152
17.282	39.1333
17.3	39.1194
17.318	39.1098
17.336	39.1029
17.354	39.0984
17.372	39.0934
17.39	39.087
17.408	39.0769
17.426	39.0616
17.444	39.0399
17.462	39.0107
17.48	38.974
17.498	38.9298
17.516	38.8793
17.534	38.8235
17.552	38.7652
17.57	38.7054
17.588	38.6481
17.606	38.5947
17.624	38.5482
17.642	38.5106
17.66	38.483
17.678	38.4668
17.696	38.4619
17.714	38.4679
17.732	38.4836
17.75	38.5081
17.768	38.5381
17.786	38.5726
17.804	38.6075
17.822	38.6418
17.84	38.6713
17.858	38.6944
17.876	38.7087
17.894	38.712
17.912	38.7034
17.93	38.6812
17.948	38.6455
17.966	38.5963
17.984	38.5346
18.002	38.4615
18.02	38.3796
18.038	38.2904
18.056	38.1979
18.074	38.1032
18.092	38.0117
18.11	37.9241
18.128	37.8453
18.146	37.7761
18.164	37.7198
18.182	37.6769
18.2	37.6488
18.218	37.6351
18.236	37.6359
18.254	37.6489
18.272	37.6737
18.29	37.7063
18.308	37.7462
18.326	37.7883
18.344	37.832
18.362	37.8725
18.38	37.909
18.398	37.9381
18.416	37.9593
18.434	37.9704
18.452	37.9717
18.47	37.9626
18.488	37.944
18.506	37.916
18.524	37.8808
18.542	37.839
18.56	37.7934
18.578	37.7443
18.596	37.6954
18.614	37.6467
18.632	37.6019
18.65	37.5609
18.668	37.5263
18.686	37.4981
18.704	37.4781
18.722	37.466
18.74	37.4617
18.758	37.4647
18.776	37.4737
18.794	37.4878
18.812	37.5045
18.83	37.5225
18.848	37.5389
18.866	37.5524
18.884	37.56
18.902	37.5608
18.92	37.5522
18.938	37.534
18.956	37.5045
18.974	37.4645
18.992	37.4135
19.01	37.3529
19.028	37.2836
19.046	37.2071
19.064	37.1255
19.082	37.0404
19.1	36.9544
19.118	36.8686
19.136	36.7859
19.154	36.7071
19.172	36.6347
19.19	36.569
19.208	36.512
19.226	36.4635
19.244	36.4248
19.262	36.3955
19.28	36.3759
19.298	36.3656
19.316	36.3643
19.334	36.3718
19.352	36.3868
19.37	36.4094
19.388	36.4377
19.406	36.4718
19.424	36.5096
19.442	36.5512
19.46	36.5937
19.478	36.637
19.496	36.6787
19.514	36.7182
19.532	36.7534
19.55	36.7827
19.568	36.8054
19.586	36.8199
19.604	36.8262
19.622	36.8229
19.64	36.8105
19.658	36.7893
19.676	36.7597
19.694	36.7241
19.712	36.6822
19.73	36.6382
19.748	36.5918
19.766	36.5475
19.784	36.5059
19.802	36.4701
19.82	36.4422
19.838	36.4229
19.856	36.4152
19.874	36.4185
19.892	36.4342
19.91	36.4619
19.928	36.5003
19.946	36.5499
19.964	36.6068
19.982	36.6714
20	36.7394
20.018	36.8092
20.036	36.8783
20.054	36.9421
20.072	37.0009
20.09	37.0487
20.108	37.0867
20.126	37.1102
20.144	37.1193
20.162	37.1127
20.18	37.0893
20.198	37.0499
20.216	36.9946
20.234	36.9241
20.252	36.8411
20.27	36.7452
20.288	36.6414
20.306	36.5292
20.324	36.4129
20.342	36.2952
20.36	36.1771
20.378	36.0639
20.396	35.9546
20.414	35.8545
20.432	35.7631
20.45	35.6833
20.468	35.6167
20.486	35.563
20.504	35.5241
20.522	35.4994
20.54	35.4888
20.558	35.4924
20.576	35.5087
20.594	35.5372
20.612	35.5769
20.63	35.6249
20.648	35.6818
20.666	35.7438
20.684	35.8112
20.702	35.8816
20.72	35.9535
20.738	36.0267
20.756	36.0984
20.774	36.1693
20.792	36.2371
20.81	36.3013
20.828	36.3615
20.846	36.4161
20.864	36.4656
20.882	36.5084
20.9	36.5448
20.918	36.5742
20.936	36.5959
20.954	36.61
20.972	36.6159
20.99	36.6136
21.008	36.603
21.026	36.584
21.044	36.5567
21.062	36.5215
21.08	36.4783
21.098	36.4284
21.116	36.3718
21.134	36.3096
21.152	36.2438
21.17	36.1738
21.188	36.1024
21.206	36.0299
21.224	35.9574
21.242	35.8875
21.26	35.8193
21.278	35.7551
21.296	35.6952
21.314	35.6398
21.332	35.5899
21.35	35.5453
21.368	35.5058
21.386	35.4716
21.404	35.4423
21.422	35.4172
21.44	35.3966
21.458	35.3789
21.476	35.3636
21.494	35.3507
21.512	35.3385
21.53	35.3271
21.548	35.3164
21.566	35.3056
21.584	35.2951
21.602	35.285
21.62	35.2751
21.638	35.2661
21.656	35.2591
21.674	35.2537
21.692	35.2509
21.71	35.251
21.728	35.254
21.746	35.2601
21.764	35.2697
21.782	35.2815
21.8	35.2951
21.818	35.3107
21.836	35.3253
21.854	35.3395
21.872	35.3516
21.89	35.3581
21.908	35.3606
21.926	35.3555
21.944	35.3404
21.962	35.3163
21.98	35.2801
21.998	35.2315
22.016	35.1707
22.034	35.097
22.052	35.0098
22.07	34.9115
22.088	34.8031
22.106	34.684
22.124	34.5596
22.142	34.4299
22.16	34.2964
22.178	34.1664
22.196	34.0377
22.214	33.9146
22.232	33.8034
22.25	33.7012
22.268	33.6134
22.286	33.5434
22.304	33.4894
22.322	33.4548
22.34	33.4411
22.358	33.4467
22.376	33.4712
22.394	33.516
22.412	33.5778
22.43	33.6528
22.448	33.7437
22.466	33.8437
22.484	33.9482
22.502	34.0602
22.52	34.1704
22.538	34.2756
22.556	34.3776
22.574	34.4666
22.592	34.5421
22.61	34.6039
22.628	34.6449
22.646	34.6657
22.664	34.6658
22.682	34.6419
22.7	34.594
22.718	34.5237
22.736	34.4314
22.754	34.3159
22.772	34.1816
22.79	34.031
22.808	33.862
22.826	33.6816
22.844	33.4936
22.862	33.2954
22.88	33.0956
22.898	32.8977
22.916	32.6991
22.934	32.5087
22.952	32.3289
22.97	32.1579
22.988	32.0023
23.006	31.8634
23.024	31.74
23.042	31.6357
23.06	31.5513
23.078	31.4858
23.096	31.44
23.114	31.4146
23.132	31.4085
23.15	31.4196
23.168	31.4491
23.186	31.4955
23.204	31.5546
23.222	31.6277
23.24	31.7133
23.258	31.8068
23.276	31.9092
23.294	32.0194
23.312	32.1328
23.33	32.2499
23.348	32.3703
23.366	32.4903
23.384	32.61
23.402	32.7296
23.42	32.8474
23.438	32.9634
23.456	33.0776
23.474	33.1886
23.492	33.2969
23.51	33.4021
23.528	33.5021
23.546	33.5965
23.564	33.6859
23.582	33.768
23.6	33.8422
23.618	33.9092
23.636	33.9671
23.654	34.0151
23.672	34.0541
23.69	34.0821
23.708	34.0981
23.726	34.1029
23.744	34.0953
23.762	34.0736
23.78	34.0384
23.798	33.9902
23.816	33.9288
23.834	33.8535
23.852	33.7661
23.87	33.6689
23.888	33.5605
23.906	33.4426
23.924	33.3185
23.942	33.1877
23.96	33.0504
23.978	32.9109
23.996	32.7702
24.014	32.6269
24.032	32.4846
24.05	32.3456
24.068	32.208
24.086	32.074
24.104	31.9456
24.122	31.8211
24.14	31.7023
24.158	31.5918
24.176	31.489
24.194	31.3938
24.212	31.3075
24.23	31.2305
24.248	31.1623
24.266	31.1025
24.284	31.0515
24.302	31.0098
24.32	30.9747
24.338	30.9441
24.356	30.9204
24.374	30.9004
24.392	30.8791
24.41	30.8587
24.428	30.838
24.446	30.8108
24.464	30.7758
24.482	30.7359
24.5	30.6837
24.518	30.6129
24.536	30.5278
24.554	30.4254
24.572	30.3008
24.59	30.1542
24.608	29.9866
24.626	29.7971
24.644	29.5838
24.662	29.3466
24.68	29.0911
24.698	28.8218
24.716	28.5332
24.734	28.2316
24.752	27.9269
24.77	27.6163
24.788	27.2991
24.806	26.9903
24.824	26.6995
24.842	26.4159
24.86	26.1517
24.878	25.9218
24.896	25.72
24.914	25.5481
24.932	25.4209
24.95	25.3461
24.968	25.3147
24.986	25.3352
25.004	25.417
25.022	25.5572
25.04	25.7551
25.058	26.0146
25.076	26.3389
25.094	26.7264
25.112	27.1726
25.13	27.6731
25.148	28.2332
25.166	28.8478
25.184	29.5069
25.202	30.2077
25.22	30.9568
25.238	31.7414
25.256	32.548
25.274	33.3848
25.292	34.2477
25.31	35.1221
25.328	36.0001
25.346	36.8922
25.364	37.7869
25.382	38.6708
25.4	39.5482
25.418	40.42
25.436	41.2736
25.454	42.1001
25.472	42.9089
25.49	43.6927
25.508	44.4408
25.526	45.1525
25.544	45.833
25.562	46.4718
25.58	47.059
25.598	47.6018
25.616	48.0972
25.634	48.5352
25.652	48.9099
25.67	49.2294
25.688	49.487
25.706	49.6743
25.724	49.7912
25.742	49.8413
25.76	49.8196
25.778	49.7213
25.796	49.5471
25.814	49.2995
25.832	48.9799
25.85	48.5885
25.868	48.1221
25.886	47.5875
25.904	46.9923
25.922	46.3345
25.94	45.6099
25.958	44.8348
25.976	44.0256
25.994	43.1728
26.012	42.2778
26.03	41.3606
26.048	40.4379
26.066	39.4929
26.084	38.5357
26.102	37.5864
26.12	36.6577
26.138	35.734
26.156	34.8261
26.174	33.9486
26.192	33.1071
26.21	32.2922
26.228	31.5106
26.246	30.7695
26.264	30.0712
26.282	29.4116
26.3	28.7899
26.318	28.2056
26.336	27.6641
26.354	27.1615
26.372	26.6872
26.39	26.2318
26.408	25.8033
26.426	25.3986
26.444	25.0073
26.462	24.6211
26.48	24.2486
26.498	23.8854
26.516	23.5224
26.534	23.1519
26.552	22.7771
26.57	22.4011
26.588	22.0261
26.606	21.6514
26.624	21.2703
26.642	20.8938
26.66	20.5349
26.678	20.1974
26.696	19.8659
26.714	19.5594
26.732	19.2997
26.75	19.0946
26.768	18.9223
26.786	18.8057
26.804	18.7711
26.822	18.8306
26.84	18.9627
26.858	19.1815
26.876	19.5043
26.894	19.9415
26.912	20.4826
26.93	21.126
26.948	21.8707
26.966	22.7808
26.984	23.9518
27.002	25.1407
27.02	26.0839
27.028	26.3288