File: Bakgrunnsmateriale/MATLAB/FTIR/ftir_data/subBb/Mapping_121/C-4040-8_t26.asc
PE IR       SPECTRUM    SPECTRUM    ASCII       PEDS        1.60
  -1
C-BD22~1.ASC
17/03/27
16:38:40.00
17/03/27
16:39:06.00
tln
$C-4040-8_t0026$<tbV0>[5.2,-7.8,8.0,0.0,27,1,0]
27.028
64

2002,4.07
MIRTGS : RIGHTBACK : INTERNAL 2
MIR : ON : INTERNAL 2
OPTKBR

0.200000
8
8.000000
FILLER
RATIO
SPECTRUM
UNLOCKED 256

DOUBLE
64
COMBINED
1
0
0

0.002000
RATIO

1
0
TRUE
51149
0
LEFT NOT FITTED RIGHT NOT FITTED 0
NONE
NONE
15600
12
4.427000
51148
TRUE
1 0 8 72 0 0 0 0

15798

#HDR
-1
-1
#GR
µM
%T
2.38419e-05
0.0
2.000000
0.002000
12515
8
74.3162
-5.959939
#DATA
2.000000	 63.1969
2.018000	 63.7249
2.036000	 63.275
2.054000	 63.0105
2.072000	 63.475
2.090000	 62.9156
2.108000	 63.0974
2.126000	 62.8589
2.144000	 63.0295
2.162000	 62.9976
2.180000	 63.0283
2.198000	 63.0938
2.216000	 62.9779
2.234000	 63.1473
2.252000	 63.134
2.270000	 63.2332
2.288000	 58.3852
2.306000	 63.598
2.324000	 62.5225
2.342000	 62.8553
2.360000	 62.5293
2.378000	 62.4492
2.396000	 62.2885
2.414000	 62.3267
2.432000	 61.9666
2.450000	 61.486
2.468000	 61.6567
2.486000	 61.5908
2.504000	 61.6698
2.522000	 61.4482
2.540000	 61.3203
2.558000	 61.1766
2.576000	 61.4197
2.594000	 61.1497
2.612000	 61.2096
2.630000	 60.861
2.648000	 60.9573
2.666000	 60.819
2.684000	 60.7655
2.702000	 60.5755
2.720000	 60.3787
2.738000	 60.3118
2.756000	 60.0168
2.774000	 59.9772
2.792000	 59.9385
2.810000	 59.7611
2.828000	 59.6432
2.846000	 59.5529
2.864000	 59.4103
2.882000	 59.2419
2.900000	 59.3813
2.918000	 59.0812
2.936000	 58.7828
2.954000	 58.8557
2.972000	 58.5309
2.990000	 58.4808
3.008000	 58.4073
3.026000	 58.1317
3.044000	 58.0268
3.062000	 57.904
3.080000	 57.9042
3.098000	 57.6233
3.116000	 57.4166
3.134000	 57.4353
3.152000	 57.2321
3.170000	 56.9242
3.188000	 56.9693
3.206000	 56.7251
3.224000	 56.7463
3.242000	 56.6049
3.260000	 56.5543
3.278000	 56.2144
3.296000	 56.1629
3.314000	 55.9559
3.332000	 55.8899
3.350000	 55.7286
3.368000	 55.4757
3.386000	 55.1902
3.404000	 55.1623
3.422000	 54.8209
3.440000	 54.9453
3.458000	 54.7752
3.476000	 54.6895
3.494000	 54.4705
3.512000	 54.3175
3.530000	 54.302
3.548000	 54.2686
3.566000	 53.9752
3.584000	 53.8015
3.602000	 53.6227
3.620000	 53.553
3.638000	 53.4376
3.656000	 53.1755
3.674000	 53.1467
3.692000	 52.9501
3.710000	 52.8327
3.728000	 52.6459
3.746000	 52.6709
3.764000	 52.3277
3.782000	 52.2145
3.800000	 52.0038
3.818000	 51.9511
3.836000	 51.6803
3.854000	 51.8014
3.872000	 51.7097
3.890000	 51.5162
3.908000	 51.3108
3.926000	 51.1526
3.944000	 51.1713
3.962000	 50.9352
3.980000	 50.6602
3.998000	 50.7555
4.016000	 50.4412
4.034000	 50.4441
4.052000	 50.3092
4.070000	 50.313
4.088000	 50.0933
4.106000	 49.8744
4.124000	 49.9249
4.141999	 49.7452
4.160000	 49.4771
4.178000	 49.4227
4.196000	 49.2358
4.214000	 49.0984
4.232000	 49.1124
4.250000	 48.9652
4.268000	 48.8544
4.286000	 48.765
4.304000	 48.501
4.322000	 48.3965
4.340000	 48.3194
4.358000	 48.0316
4.375999	 48.1148
4.394000	 47.9205
4.412000	 47.8225
4.430000	 47.7754
4.448000	 47.5305
4.466000	 47.4197
4.484000	 47.3408
4.502000	 47.1847
4.520000	 46.9911
4.538000	 47.0308
4.556000	 46.9886
4.574000	 46.8119
4.592000	 46.7232
4.609999	 46.675
4.628000	 46.5019
4.646000	 46.3084
4.664000	 46.2967
4.682000	 46.139
4.700000	 46.1645
4.718000	 45.9188
4.736000	 45.7913
4.754000	 45.7125
4.772000	 45.6234
4.790000	 45.6134
4.808000	 45.4941
4.826000	 45.3264
4.843999	 45.2901
4.862000	 45.1282
4.880000	 44.9767
4.898000	 44.9218
4.916000	 44.814
4.934000	 44.7804
4.952000	 44.5642
4.970000	 44.5574
4.988000	 44.5355
5.006000	 44.372
5.024000	 44.2494
5.042000	 44.1664
5.060000	 44.0573
5.077999	 43.9381
5.096000	 43.8435
5.114000	 43.706
5.132000	 43.5794
5.150000	 43.5469
5.168000	 43.5985
5.186000	 43.3986
5.204000	 43.3407
5.222000	 43.2486
5.240000	 43.0108
5.258000	 42.934
5.276000	 42.9913
5.294000	 42.8894
5.312000	 42.7885
5.330000	 42.7084
5.348000	 42.6253
5.366000	 42.5365
5.384000	 42.4385
5.402000	 42.3338
5.420000	 42.2957
5.438000	 42.22
5.456000	 42.0834
5.474000	 42.0285
5.492000	 41.8637
5.510000	 41.7415
5.528000	 41.6925
5.546000	 41.5946
5.564000	 41.6291
5.582000	 41.588
5.600000	 41.4724
5.618000	 41.3691
5.636000	 41.2698
5.654000	 41.2353
5.672000	 41.1904
5.690000	 41.0531
5.708000	 40.9526
5.726000	 40.8773
5.744000	 40.8392
5.762000	 40.708
5.780000	 40.5468
5.798000	 40.452
5.816000	 40.5212
5.834000	 40.5103
5.852000	 40.4219
5.870000	 40.3382
5.888000	 40.2296
5.906000	 40.1065
5.923999	 40.0741
5.942000	 39.9978
5.960000	 39.9087
5.978000	 39.9328
5.996000	 39.9126
6.014000	 39.8418
6.032000	 39.7137
6.050000	 39.5353
6.068000	 39.5171
6.086000	 39.5642
6.104000	 39.491
6.122000	 39.3768
6.140000	 39.2936
6.158000	 39.2427
6.176000	 39.2056
6.194000	 39.176
6.212000	 39.0922
6.230000	 38.9926
6.248000	 38.9505
6.266000	 38.9156
6.284000	 38.8619
6.302000	 38.8235
6.320000	 38.7634
6.338000	 38.676
6.356000	 38.6394
6.374000	 38.5733
6.392000	 38.4751
6.410000	 38.4245
6.428000	 38.3549
6.446000	 38.2432
6.464000	 38.1226
6.482000	 38.0742
6.500000	 38.0859
6.518000	 38.0387
6.536000	 37.9941
6.554000	 37.9707
6.572000	 37.8883
6.590000	 37.7884
6.608000	 37.7397
6.626000	 37.7209
6.644000	 37.7053
6.662000	 37.661
6.680000	 37.5871
6.698000	 37.5071
6.716000	 37.3867
6.734000	 37.3047
6.752000	 37.2831
6.770000	 37.258
6.788000	 37.24
6.806000	 37.2382
6.824000	 37.2252
6.842000	 37.1713
6.860000	 37.1148
6.878000	 37.1116
6.896000	 37.1109
6.914000	 37.068
6.932000	 36.9922
6.950000	 36.893
6.968000	 36.7637
6.986000	 36.5803
7.004000	 36.4287
7.022000	 36.4252
7.040000	 36.4927
7.058000	 36.4987
7.076000	 36.4339
7.094000	 36.339
7.112000	 36.2529
7.130000	 36.1873
7.148000	 36.155
7.166000	 36.1792
7.184000	 36.1995
7.202000	 36.1472
7.220000	 36.0344
7.238000	 35.8949
7.256000	 35.7811
7.274000	 35.7366
7.292000	 35.7455
7.310000	 35.7746
7.328000	 35.7953
7.346000	 35.7712
7.364000	 35.7104
7.382000	 35.651
7.400000	 35.5855
7.418000	 35.5115
7.436000	 35.4711
7.454000	 35.4552
7.472000	 35.4001
7.490000	 35.2946
7.508000	 35.1932
7.526000	 35.1475
7.544000	 35.1466
7.562000	 35.1313
7.580000	 35.0725
7.598000	 34.9953
7.616000	 34.9369
7.634000	 34.9209
7.652000	 34.9343
7.670000	 34.9346
7.688000	 34.9033
7.706000	 34.8603
7.724000	 34.8311
7.742000	 34.8236
7.760000	 34.8226
7.778000	 34.801
7.796000	 34.7479
7.814000	 34.6737
7.832000	 34.6034
7.850000	 34.558
7.868000	 34.5253
7.886000	 34.4747
7.904000	 34.406
7.922000	 34.3464
7.940000	 34.3117
7.958000	 34.3039
7.976000	 34.3095
7.994000	 34.2962
8.012000	 34.244
8.030000	 34.1676
8.048000	 34.085
8.065999	 33.9955
8.084000	 33.906
8.102000	 33.8452
8.120000	 33.8296
8.138000	 33.8362
8.155999	 33.8289
8.173999	 33.7968
8.192000	 33.754
8.210000	 33.7161
8.228000	 33.7008
8.246000	 33.7212
8.263999	 33.7599
8.282000	 33.7699
8.300000	 33.7242
8.318000	 33.6465
8.336000	 33.5787
8.353999	 33.5331
8.372000	 33.4897
8.390000	 33.4254
8.408000	 33.3344
8.426000	 33.2304
8.443999	 33.1384
8.462000	 33.0878
8.480000	 33.0903
8.498000	 33.1186
8.516000	 33.1209
8.533999	 33.0744
8.552000	 33.012
8.570000	 32.9812
8.588000	 32.988
8.606000	 32.9978
8.624000	 32.9803
8.641999	 32.9317
8.660000	 32.8629
8.678000	 32.7898
8.696000	 32.7354
8.714000	 32.7151
8.731999	 32.7171
8.750000	 32.7153
8.768000	 32.701
8.786000	 32.6857
8.804000	 32.6776
8.821999	 32.6696
8.840000	 32.6516
8.858000	 32.6204
8.876000	 32.5737
8.894000	 32.5058
8.911999	 32.4199
8.930000	 32.3383
8.948000	 32.2948
8.966000	 32.3121
8.984000	 32.3827
9.001999	 32.4665
9.020000	 32.5076
9.038000	 32.4659
9.056000	 32.3499
9.074000	 32.2122
9.092000	 32.1108
9.109999	 32.0698
9.128000	 32.0745
9.146000	 32.0955
9.164000	 32.1146
9.182000	 32.1296
9.199999	 32.1399
9.218000	 32.1318
9.236000	 32.0797
9.254000	 31.9657
9.272000	 31.8078
9.289999	 31.6631
9.308000	 31.594
9.326000	 31.6232
9.344000	 31.7183
9.362000	 31.8217
9.379999	 31.8938
9.398000	 31.9289
9.416000	 31.9394
9.434000	 31.9349
9.452000	 31.9159
9.469999	 31.8756
9.488000	 31.8043
9.506000	 31.7001
9.524000	 31.5847
9.542000	 31.5001
9.560000	 31.4812
9.577999	 31.524
9.596000	 31.5807
9.614000	 31.5937
9.632000	 31.537
9.650000	 31.4316
9.667999	 31.3185
9.686000	 31.2214
9.704000	 31.1324
9.722000	 31.0369
9.740000	 30.9438
9.757999	 30.8913
9.776000	 30.9181
9.794000	 31.0215
9.812000	 31.147
9.830000	 31.2187
9.847999	 31.1919
9.866000	 31.0811
9.884000	 30.9454
9.902000	 30.8452
9.920000	 30.8027
9.937999	 30.791
9.956000	 30.7592
9.974000	 30.6683
9.992000	 30.5135
10.01	30.3266
10.028	30.161
10.046	30.066
10.064	30.0663
10.082	30.1549
10.1	30.299
10.118	30.4551
10.136	30.5875
10.154	30.6751
10.172	30.7097
10.19	30.6924
10.208	30.6321
10.226	30.5445
10.244	30.4513
10.262	30.3705
10.28	30.3076
10.298	30.2562
10.316	30.2063
10.334	30.1562
10.352	30.1151
10.37	30.0954
10.388	30.0977
10.406	30.1063
10.424	30.098
10.442	30.057
10.46	29.9852
10.478	29.9009
10.496	29.825
10.514	29.7714
10.532	29.742
10.55	29.7297
10.568	29.7248
10.586	29.7185
10.604	29.7043
10.622	29.6791
10.64	29.6434
10.658	29.6028
10.676	29.5654
10.694	29.537
10.712	29.5166
10.73	29.4954
10.748	29.4627
10.766	29.4135
10.784	29.3533
10.802	29.2967
10.82	29.2583
10.838	29.2449
10.856	29.2515
10.874	29.2644
10.892	29.2693
10.91	29.2571
10.928	29.2266
10.946	29.1828
10.964	29.1322
10.982	29.0814
11	29.0358
11.018	29.0011
11.036	28.9815
11.054	28.9778
11.072	28.9858
11.09	28.9959
11.108	28.9965
11.126	28.9783
11.144	28.9389
11.162	28.8837
11.18	28.8228
11.198	28.7679
11.216	28.7278
11.234	28.707
11.252	28.7049
11.27	28.7169
11.288	28.7355
11.306	28.7531
11.324	28.7643
11.342	28.7677
11.36	28.7665
11.378	28.764
11.396	28.7608
11.414	28.7526
11.432	28.7307
11.45	28.687
11.468	28.6188
11.486	28.5314
11.504	28.4377
11.522	28.3538
11.54	28.2915
11.558	28.2542
11.576	28.2359
11.594	28.2253
11.612	28.2104
11.63	28.1836
11.648	28.1444
11.666	28.0972
11.684	28.05
11.702	28.0097
11.72	27.9806
11.738	27.9641
11.756	27.9595
11.774	27.9653
11.792	27.9804
11.81	28.0034
11.828	28.031
11.846	28.0575
11.864	28.0752
11.882	28.077
11.9	28.0583
11.918	28.0195
11.936	27.9666
11.954	27.9083
11.972	27.853
11.99	27.806
12.008	27.7662
12.026	27.7276
12.044	27.6826
12.062	27.6271
12.08	27.5625
12.098	27.496
12.116	27.4367
12.134	27.3914
12.152	27.3611
12.17	27.341
12.188	27.3228
12.206	27.2987
12.224	27.2652
12.242	27.2247
12.26	27.1828
12.278	27.1472
12.296	27.1253
12.314	27.1203
12.332	27.1311
12.35	27.1524
12.368	27.1762
12.386	27.1938
12.404	27.1981
12.422	27.185
12.44	27.1537
12.458	27.1065
12.476	27.0482
12.494	26.9859
12.512	26.9272
12.53	26.8798
12.548	26.8502
12.566	26.8427
12.584	26.8575
12.602	26.8903
12.62	26.9329
12.638	26.9734
12.656	26.9989
12.674	26.9982
12.692	26.9652
12.71	26.9007
12.728	26.8124
12.746	26.713
12.764	26.617
12.782	26.5373
12.8	26.4806
12.818	26.4466
12.836	26.4286
12.854	26.4163
12.872	26.399
12.89	26.3694
12.908	26.3261
12.926	26.2734
12.944	26.2199
12.962	26.176
12.98	26.1499
12.998	26.1462
13.016	26.1648
13.034	26.2008
13.052	26.2474
13.07	26.2967
13.088	26.3413
13.106	26.3744
13.124	26.3905
13.142	26.3848
13.16	26.3533
13.178	26.293
13.196	26.203
13.214	26.0849
13.232	25.9448
13.25	25.7924
13.268	25.6403
13.286	25.5024
13.304	25.3912
13.322	25.3159
13.34	25.2801
13.358	25.2816
13.376	25.3127
13.394	25.3621
13.412	25.4173
13.43	25.4671
13.448	25.5036
13.466	25.5232
13.484	25.5267
13.502	25.5186
13.52	25.5055
13.538	25.4941
13.556	25.49
13.574	25.496
13.592	25.5118
13.61	25.5341
13.628	25.557
13.646	25.574
13.664	25.5777
13.682	25.5627
13.7	25.5252
13.718	25.4645
13.736	25.3831
13.754	25.2858
13.772	25.1802
13.79	25.0744
13.808	24.9769
13.826	24.8952
13.844	24.8348
13.862	24.7982
13.88	24.7848
13.898	24.7914
13.916	24.813
13.934	24.8436
13.952	24.8769
13.97	24.9073
13.988	24.9307
14.006	24.9452
14.024	24.9506
14.042	24.9484
14.06	24.9406
14.078	24.9294
14.096	24.917
14.114	24.9044
14.132	24.8924
14.15	24.8804
14.168	24.8677
14.186	24.853
14.204	24.8351
14.222	24.8129
14.24	24.7855
14.258	24.7529
14.276	24.7153
14.294	24.6737
14.312	24.6298
14.33	24.586
14.348	24.5451
14.366	24.5105
14.384	24.4847
14.402	24.4692
14.42	24.464
14.438	24.4672
14.456	24.4755
14.474	24.4841
14.492	24.4873
14.51	24.4793
14.528	24.456
14.546	24.4154
14.564	24.3584
14.582	24.2885
14.6	24.2109
14.618	24.1326
14.636	24.0611
14.654	24.0021
14.672	23.9592
14.69	23.9333
14.708	23.9229
14.726	23.9244
14.744	23.9325
14.762	23.9418
14.78	23.948
14.798	23.9478
14.816	23.9399
14.834	23.9244
14.852	23.9033
14.87	23.8791
14.888	23.8543
14.906	23.8313
14.924	23.8114
14.942	23.7952
14.96	23.7816
14.978	23.7693
14.996	23.7569
15.014	23.7424
15.032	23.7247
15.05	23.7029
15.068	23.6773
15.086	23.6485
15.104	23.6174
15.122	23.5853
15.14	23.5533
15.158	23.5218
15.176	23.4911
15.194	23.4612
15.212	23.4315
15.23	23.4015
15.248	23.3704
15.266	23.3379
15.284	23.3036
15.302	23.2677
15.32	23.2304
15.338	23.1919
15.356	23.1524
15.374	23.1124
15.392	23.0722
15.41	23.0323
15.428	22.993
15.446	22.9544
15.464	22.917
15.482	22.8811
15.5	22.8466
15.518	22.8134
15.536	22.7809
15.554	22.7483
15.572	22.7145
15.59	22.6777
15.608	22.6368
15.626	22.5906
15.644	22.5384
15.662	22.4799
15.68	22.4162
15.698	22.3485
15.716	22.2792
15.734	22.2118
15.752	22.1492
15.77	22.0943
15.788	22.0504
15.806	22.0194
15.824	22.002
15.842	21.9988
15.86	22.0081
15.878	22.0283
15.896	22.0572
15.914	22.0918
15.932	22.1293
15.95	22.1678
15.968	22.2052
15.986	22.2402
16.004	22.2725
16.022	22.302
16.04	22.3292
16.058	22.3548
16.076	22.3793
16.094	22.4036
16.112	22.4278
16.13	22.4521
16.148	22.4765
16.166	22.4997
16.184	22.5211
16.202	22.5396
16.22	22.5531
16.238	22.5606
16.256	22.561
16.274	22.5528
16.292	22.5356
16.31	22.5091
16.328	22.4734
16.346	22.4295
16.364	22.3782
16.382	22.3218
16.4	22.2622
16.418	22.2013
16.436	22.1419
16.454	22.0864
16.472	22.036
16.49	21.9928
16.508	21.9568
16.526	21.9283
16.544	21.9064
16.562	21.8897
16.58	21.877
16.598	21.8658
16.616	21.8546
16.634	21.842
16.652	21.8262
16.67	21.807
16.688	21.7838
16.706	21.7573
16.724	21.7281
16.742	21.6975
16.76	21.6666
16.778	21.6361
16.796	21.6074
16.814	21.581
16.832	21.5572
16.85	21.5365
16.868	21.5184
16.886	21.5028
16.904	21.4886
16.922	21.4754
16.94	21.4626
16.958	21.4495
16.976	21.4356
16.994	21.4204
17.012	21.4038
17.03	21.3855
17.048	21.3656
17.066	21.3444
17.084	21.3221
17.102	21.2991
17.12	21.2755
17.138	21.2521
17.156	21.2295
17.174	21.2082
17.192	21.1894
17.21	21.1735
17.228	21.1616
17.246	21.1543
17.264	21.1518
17.282	21.1545
17.3	21.1619
17.318	21.1737
17.336	21.1884
17.354	21.2053
17.372	21.2217
17.39	21.2363
17.408	21.2464
17.426	21.25
17.444	21.2456
17.462	21.231
17.48	21.2059
17.498	21.1696
17.516	21.1229
17.534	21.0661
17.552	21.0021
17.57	20.9317
17.588	20.859
17.606	20.7855
17.624	20.7143
17.642	20.6481
17.66	20.5879
17.678	20.5361
17.696	20.4927
17.714	20.458
17.732	20.4307
17.75	20.4102
17.768	20.3937
17.786	20.38
17.804	20.3654
17.822	20.3491
17.84	20.3276
17.858	20.3004
17.876	20.2655
17.894	20.223
17.912	20.1724
17.93	20.1149
17.948	20.051
17.966	19.9831
17.984	19.9123
18.002	19.8412
18.02	19.7717
18.038	19.7055
18.056	19.645
18.074	19.591
18.092	19.545
18.11	19.5074
18.128	19.4783
18.146	19.4577
18.164	19.4447
18.182	19.4385
18.2	19.4383
18.218	19.4423
18.236	19.4498
18.254	19.459
18.272	19.4694
18.29	19.479
18.308	19.4876
18.326	19.494
18.344	19.4982
18.362	19.4994
18.38	19.4978
18.398	19.4934
18.416	19.4867
18.434	19.4777
18.452	19.467
18.47	19.455
18.488	19.4423
18.506	19.4291
18.524	19.4157
18.542	19.4023
18.56	19.3891
18.578	19.3761
18.596	19.363
18.614	19.3496
18.632	19.3352
18.65	19.3197
18.668	19.3021
18.686	19.2825
18.704	19.2598
18.722	19.2342
18.74	19.2055
18.758	19.1738
18.776	19.1395
18.794	19.103
18.812	19.0654
18.83	19.0275
18.848	18.9907
18.866	18.956
18.884	18.9253
18.902	18.8993
18.92	18.8798
18.938	18.8673
18.956	18.8631
18.974	18.8669
18.992	18.8792
19.01	18.8992
19.028	18.9262
19.046	18.959
19.064	18.9958
19.082	19.0352
19.1	19.0747
19.118	19.1129
19.136	19.1471
19.154	19.1765
19.172	19.1982
19.19	19.2123
19.208	19.2167
19.226	19.2118
19.244	19.1971
19.262	19.1732
19.28	19.141
19.298	19.101
19.316	19.0559
19.334	19.0058
19.352	18.954
19.37	18.9004
19.388	18.8483
19.406	18.7977
19.424	18.7509
19.442	18.7078
19.46	18.6697
19.478	18.6368
19.496	18.6089
19.514	18.586
19.532	18.5675
19.55	18.5532
19.568	18.542
19.586	18.533
19.604	18.5259
19.622	18.5196
19.64	18.5138
19.658	18.5075
19.676	18.5006
19.694	18.4926
19.712	18.4834
19.73	18.4727
19.748	18.4604
19.766	18.4466
19.784	18.431
19.802	18.4136
19.82	18.3944
19.838	18.3729
19.856	18.3489
19.874	18.3224
19.892	18.2927
19.91	18.2599
19.928	18.2235
19.946	18.1835
19.964	18.1401
19.982	18.0929
20	18.0428
20.018	17.9896
20.036	17.9343
20.054	17.8778
20.072	17.8202
20.09	17.7638
20.108	17.7081
20.126	17.6556
20.144	17.6062
20.162	17.5615
20.18	17.5222
20.198	17.4885
20.216	17.4615
20.234	17.4408
20.252	17.4264
20.27	17.4185
20.288	17.4155
20.306	17.4178
20.324	17.4234
20.342	17.4317
20.36	17.4418
20.378	17.4512
20.396	17.4604
20.414	17.4664
20.432	17.4697
20.45	17.4686
20.468	17.4624
20.486	17.4512
20.504	17.4345
20.522	17.4125
20.54	17.3859
20.558	17.3545
20.576	17.32
20.594	17.2829
20.612	17.2439
20.63	17.2054
20.648	17.1668
20.666	17.1308
20.684	17.0972
20.702	17.067
20.72	17.0414
20.738	17.0199
20.756	17.0031
20.774	16.9909
20.792	16.9825
20.81	16.9782
20.828	16.9767
20.846	16.977
20.864	16.9791
20.882	16.981
20.9	16.9829
20.918	16.9834
20.936	16.9813
20.954	16.9769
20.972	16.9686
20.99	16.9566
21.008	16.9407
21.026	16.9205
21.044	16.8963
21.062	16.8688
21.08	16.8378
21.098	16.8044
21.116	16.7687
21.134	16.7314
21.152	16.6937
21.17	16.6552
21.188	16.6173
21.206	16.5801
21.224	16.5438
21.242	16.5092
21.26	16.4761
21.278	16.4449
21.296	16.4158
21.314	16.3887
21.332	16.3639
21.35	16.3413
21.368	16.321
21.386	16.3031
21.404	16.2876
21.422	16.2747
21.44	16.2642
21.458	16.2567
21.476	16.2523
21.494	16.2512
21.512	16.2541
21.53	16.2608
21.548	16.2714
21.566	16.2862
21.584	16.305
21.602	16.3276
21.62	16.3543
21.638	16.3842
21.656	16.4166
21.674	16.4519
21.692	16.4884
21.71	16.5259
21.728	16.5641
21.746	16.6013
21.764	16.638
21.782	16.673
21.8	16.7051
21.818	16.7349
21.836	16.7612
21.854	16.784
21.872	16.803
21.89	16.8177
21.908	16.8281
21.926	16.8345
21.944	16.8368
21.962	16.8351
21.98	16.8295
21.998	16.82
22.016	16.8065
22.034	16.7896
22.052	16.7691
22.07	16.7447
22.088	16.7162
22.106	16.6838
22.124	16.6463
22.142	16.6039
22.16	16.5563
22.178	16.5022
22.196	16.442
22.214	16.3754
22.232	16.3015
22.25	16.2207
22.268	16.1332
22.286	16.0387
22.304	15.9375
22.322	15.8311
22.34	15.7189
22.358	15.6019
22.376	15.4834
22.394	15.3618
22.412	15.2398
22.43	15.1212
22.448	15.0039
22.466	14.8919
22.484	14.7883
22.502	14.6912
22.52	14.605
22.538	14.5315
22.556	14.4696
22.574	14.4224
22.592	14.3905
22.61	14.3733
22.628	14.3719
22.646	14.3867
22.664	14.4167
22.682	14.4613
22.7	14.5214
22.718	14.5949
22.736	14.6798
22.754	14.7775
22.772	14.8848
22.79	14.9993
22.808	15.1227
22.826	15.2507
22.844	15.381
22.862	15.5152
22.88	15.6487
22.898	15.7798
22.916	15.9097
22.934	16.0339
22.952	16.1512
22.97	16.2626
22.988	16.3639
23.006	16.4547
23.024	16.5353
23.042	16.603
23.06	16.6573
23.078	16.6986
23.096	16.7257
23.114	16.7382
23.132	16.7366
23.15	16.7211
23.168	16.6913
23.186	16.6478
23.204	16.5921
23.222	16.5233
23.24	16.4426
23.258	16.3526
23.276	16.2525
23.294	16.1434
23.312	16.0293
23.33	15.9091
23.348	15.7839
23.366	15.6585
23.384	15.5319
23.402	15.4051
23.42	15.283
23.438	15.1651
23.456	15.0517
23.474	14.9474
23.492	14.8527
23.51	14.7668
23.528	14.6932
23.546	14.6325
23.564	14.584
23.582	14.55
23.6	14.5316
23.618	14.5277
23.636	14.5401
23.654	14.5699
23.672	14.6164
23.69	14.679
23.708	14.7578
23.726	14.8534
23.744	14.9629
23.762	15.0843
23.78	15.2195
23.798	15.3651
23.816	15.5171
23.834	15.6782
23.852	15.8451
23.87	16.0127
23.888	16.1837
23.906	16.3554
23.924	16.5211
23.942	16.6818
23.96	16.8374
23.978	16.981
23.996	17.1106
24.014	17.2289
24.032	17.3302
24.05	17.4108
24.068	17.4737
24.086	17.5161
24.104	17.5352
24.122	17.5319
24.14	17.5066
24.158	17.4592
24.176	17.3884
24.194	17.2962
24.212	17.1855
24.23	17.0552
24.248	16.9055
24.266	16.7441
24.284	16.5746
24.302	16.3924
24.32	16.2057
24.338	16.0218
24.356	15.8357
24.374	15.6519
24.392	15.478
24.41	15.3131
24.428	15.1566
24.446	15.0128
24.464	14.8843
24.482	14.7691
24.5	14.6668
24.518	14.5776
24.536	14.5032
24.554	14.44
24.572	14.3838
24.59	14.3366
24.608	14.2973
24.626	14.2606
24.644	14.2248
24.662	14.1926
24.68	14.1588
24.698	14.1187
24.716	14.0757
24.734	14.0271
24.752	13.9676
24.77	13.8963
24.788	13.8151
24.806	13.7221
24.824	13.6156
24.842	13.4961
24.86	13.3651
24.878	13.224
24.896	13.0699
24.914	12.9055
24.932	12.737
24.95	12.5675
24.968	12.3931
24.986	12.2188
25.004	12.0498
25.022	11.8804
25.04	11.7153
25.058	11.5658
25.076	11.4352
25.094	11.3161
25.112	11.2216
25.13	11.1646
25.148	11.1361
25.166	11.1411
25.184	11.1942
25.202	11.3013
25.22	11.4531
25.238	11.6606
25.256	11.9359
25.274	12.2764
25.292	12.6797
25.31	13.1487
25.328	13.6871
25.346	14.2955
25.364	14.9652
25.382	15.6872
25.4	16.4692
25.418	17.3077
25.436	18.183
25.454	19.0821
25.472	20.0227
25.49	20.9865
25.508	21.9482
25.526	22.9071
25.544	23.8747
25.562	24.8236
25.58	25.7281
25.598	26.6051
25.616	27.4478
25.634	28.2329
25.652	28.9446
25.67	29.5965
25.688	30.1848
25.706	30.7031
25.724	31.1457
25.742	31.5174
25.76	31.8277
25.778	32.0848
25.796	32.2774
25.814	32.4146
25.832	32.5155
25.85	32.5909
25.868	32.6236
25.886	32.6316
25.904	32.6374
25.922	32.6457
25.94	32.6439
25.958	32.6476
25.976	32.6729
25.994	32.7164
26.012	32.7747
26.03	32.8543
26.048	32.9612
26.066	33.0922
26.084	33.2471
26.102	33.4275
26.12	33.6363
26.138	33.8761
26.156	34.1385
26.174	34.414
26.192	34.6991
26.21	34.9997
26.228	35.3111
26.246	35.628
26.264	35.9557
26.282	36.2948
26.3	36.6305
26.318	36.9482
26.336	37.262
26.354	37.5677
26.372	37.8403
26.39	38.0575
26.408	38.2416
26.426	38.3827
26.444	38.4523
26.462	38.4278
26.48	38.3367
26.498	38.1632
26.516	37.8775
26.534	37.4575
26.552	36.9255
26.57	36.2736
26.588	35.4863
26.606	34.5512
26.624	33.474
26.642	32.263
26.66	30.9258
26.678	29.4612
26.696	27.8553
26.714	26.134
26.732	24.3265
26.75	22.4384
26.768	20.4352
26.786	18.3659
26.804	16.2856
26.822	14.2151
26.84	12.1061
26.858	10.0036
26.876	7.959339
26.894	5.997258
26.912	4.076029
26.93	2.222428
26.948	0.468560
26.966	-1.211941
26.984	-2.908542
27.002	-4.446431
27.02	-5.633229
27.028	-5.959939