File: Bakgrunnsmateriale/MATLAB/FTIR/ftir_data/subBb/Mapping_121/C-4040-8_t107.asc
PE IR       SPECTRUM    SPECTRUM    ASCII       PEDS        1.60
  -1
C-88D6~1.ASC
17/03/27
23:15:06.00
17/03/27
23:15:32.00
tln
$C-4040-8_t0107$<tbV0>[-5.2,10.4,8.0,0.0,27,1,0]
27.028
64

2002,4.07
MIRTGS : RIGHTBACK : INTERNAL 2
MIR : ON : INTERNAL 2
OPTKBR

0.200000
8
8.000000
FILLER
RATIO
SPECTRUM
UNLOCKED 256

DOUBLE
64
COMBINED
1
0
0

0.002000
RATIO

1
0
TRUE
51149
0
LEFT NOT FITTED RIGHT NOT FITTED 0
NONE
NONE
15600
12
4.427000
51148
TRUE
1 0 8 72 0 0 0 0

15798

#HDR
-1
-1
#GR
µM
%T
2.38419e-05
0.0
2.000000
0.002000
12515
8
102.897
40.8791
#DATA
2.000000	 65.464
2.018000	 64.8362
2.036000	 64.8505
2.054000	 65.4196
2.072000	 65.4987
2.090000	 65.1779
2.108000	 64.9075
2.126000	 65.0751
2.144000	 65.3683
2.162000	 65.2214
2.180000	 65.312
2.198000	 65.1455
2.216000	 64.1598
2.234000	 64.33
2.252000	 63.5619
2.270000	 61.4903
2.288000	 64.951
2.306000	 63.6454
2.324000	 64.1046
2.342000	 64.6779
2.360000	 64.6
2.378000	 65.0898
2.396000	 65.4004
2.414000	 64.9875
2.432000	 65.1556
2.450000	 65.223
2.468000	 65.3677
2.486000	 65.4247
2.504000	 65.3606
2.522000	 65.1705
2.540000	 65.2101
2.558000	 65.2107
2.576000	 64.7944
2.594000	 64.6642
2.612000	 64.5432
2.630000	 64.9575
2.648000	 65.0835
2.666000	 65.1406
2.684000	 65.3599
2.702000	 65.111
2.720000	 65.2093
2.738000	 65.0305
2.756000	 65.0972
2.774000	 65.2026
2.792000	 65.437
2.810000	 65.4272
2.828000	 65.1526
2.846000	 64.9617
2.864000	 65.2637
2.882000	 65.2076
2.900000	 65.132
2.918000	 65.1812
2.936000	 65.3914
2.954000	 65.0688
2.972000	 65.1293
2.990000	 65.0607
3.008000	 65.0881
3.026000	 65.0259
3.044000	 65.0041
3.062000	 65.1952
3.080000	 65.1816
3.098000	 65.0203
3.116000	 65.2751
3.134000	 64.9087
3.152000	 65.1771
3.170000	 65.2088
3.188000	 65.1973
3.206000	 65.114
3.224000	 65.5403
3.242000	 65.2094
3.260000	 65.1859
3.278000	 64.8994
3.296000	 65.2617
3.314000	 65.1203
3.332000	 65.0803
3.350000	 65.1376
3.368000	 65.0769
3.386000	 64.937
3.404000	 64.9551
3.422000	 64.6238
3.440000	 65.0587
3.458000	 64.9998
3.476000	 65.0137
3.494000	 65.0503
3.512000	 65.0114
3.530000	 65.2298
3.548000	 65.2225
3.566000	 65.1337
3.584000	 65.383
3.602000	 65.1689
3.620000	 65.1475
3.638000	 65.2453
3.656000	 65.1763
3.674000	 65.2916
3.692000	 65.274
3.710000	 65.135
3.728000	 65.2035
3.746000	 65.276
3.764000	 65.158
3.782000	 65.205
3.800000	 65.1455
3.818000	 65.2286
3.836000	 65.0684
3.854000	 65.1614
3.872000	 65.1912
3.890000	 65.2054
3.908000	 65.2458
3.926000	 65.2475
3.944000	 65.2174
3.962000	 65.0833
3.980000	 65.0427
3.998000	 65.0914
4.016000	 65.1638
4.034000	 65.2974
4.052000	 65.2932
4.070000	 65.1488
4.088000	 65.2936
4.106000	 65.3049
4.124000	 65.0196
4.141999	 65.2538
4.160000	 65.316
4.178000	 65.1475
4.196000	 65.1933
4.214000	 65.1029
4.232000	 65.1778
4.250000	 65.2379
4.268000	 65.1682
4.286000	 65.2885
4.304000	 65.1559
4.322000	 65.0873
4.340000	 65.2255
4.358000	 65.3269
4.375999	 65.4187
4.394000	 65.3146
4.412000	 65.1847
4.430000	 65.2066
4.448000	 65.2387
4.466000	 65.2091
4.484000	 65.1813
4.502000	 65.3114
4.520000	 65.1611
4.538000	 65.1199
4.556000	 65.1507
4.574000	 65.2365
4.592000	 65.2308
4.609999	 65.2297
4.628000	 65.3136
4.646000	 65.5025
4.664000	 65.1329
4.682000	 65.2889
4.700000	 65.4013
4.718000	 65.2078
4.736000	 65.4069
4.754000	 65.3734
4.772000	 65.2635
4.790000	 65.271
4.808000	 65.3914
4.826000	 65.6533
4.843999	 65.4952
4.862000	 65.3196
4.880000	 65.2427
4.898000	 65.4196
4.916000	 65.288
4.934000	 65.207
4.952000	 65.1906
4.970000	 65.2553
4.988000	 65.2466
5.006000	 65.2045
5.024000	 65.2141
5.042000	 65.2806
5.060000	 65.2501
5.077999	 65.4049
5.096000	 65.2364
5.114000	 65.1352
5.132000	 65.1079
5.150000	 65.2813
5.168000	 65.3734
5.186000	 65.4209
5.204000	 65.2952
5.222000	 65.184
5.240000	 65.1283
5.258000	 65.1072
5.276000	 65.141
5.294000	 65.2339
5.312000	 65.2451
5.330000	 65.22
5.348000	 65.1546
5.366000	 65.1522
5.384000	 65.3164
5.402000	 65.3544
5.420000	 65.3187
5.438000	 65.2516
5.456000	 65.2368
5.474000	 65.2172
5.492000	 65.1565
5.510000	 65.0564
5.528000	 65.0932
5.546000	 65.1813
5.564000	 65.1691
5.582000	 65.1667
5.600000	 65.1179
5.618000	 65.1903
5.636000	 65.2653
5.654000	 65.1686
5.672000	 65.1653
5.690000	 65.145
5.708000	 65.1008
5.726000	 65.02
5.744000	 65.0103
5.762000	 64.9477
5.780000	 64.9987
5.798000	 65.1312
5.816000	 65.2066
5.834000	 65.0969
5.852000	 65.1337
5.870000	 65.2405
5.888000	 65.2321
5.906000	 65.1455
5.923999	 65.1397
5.942000	 65.0907
5.960000	 65.1037
5.978000	 65.2002
5.996000	 65.302
6.014000	 65.343
6.032000	 65.2549
6.050000	 65.1289
6.068000	 65.0836
6.086000	 65.1876
6.104000	 65.2226
6.122000	 65.0821
6.140000	 65.0312
6.158000	 65.0477
6.176000	 65.0356
6.194000	 65.0479
6.212000	 65.1788
6.230000	 65.2481
6.248000	 65.1845
6.266000	 65.1091
6.284000	 65.044
6.302000	 65.0205
6.320000	 65.0495
6.338000	 65.0957
6.356000	 65.0868
6.374000	 65.0249
6.392000	 65.014
6.410000	 64.9955
6.428000	 64.9325
6.446000	 65.0297
6.464000	 65.2235
6.482000	 65.2966
6.500000	 65.2613
6.518000	 65.2482
6.536000	 65.2289
6.554000	 65.1131
6.572000	 65.0669
6.590000	 65.1008
6.608000	 65.0614
6.626000	 65.0097
6.644000	 65.0407
6.662000	 65.0847
6.680000	 65.0936
6.698000	 65.0986
6.716000	 65.0653
6.734000	 64.9888
6.752000	 64.933
6.770000	 64.9553
6.788000	 65.0194
6.806000	 65.0275
6.824000	 65.0051
6.842000	 65.0137
6.860000	 65.0325
6.878000	 65.0424
6.896000	 65.0787
6.914000	 65.1646
6.932000	 65.1418
6.950000	 64.9419
6.968000	 64.7599
6.986000	 64.7179
7.004000	 64.8182
7.022000	 64.9724
7.040000	 65.0435
7.058000	 65.0732
7.076000	 65.1422
7.094000	 65.218
7.112000	 65.2266
7.130000	 65.1224
7.148000	 64.9887
7.166000	 64.9213
7.184000	 64.9022
7.202000	 64.9309
7.220000	 65.0008
7.238000	 65.019
7.256000	 64.9726
7.274000	 64.9586
7.292000	 64.9894
7.310000	 64.987
7.328000	 64.9249
7.346000	 64.8704
7.364000	 64.892
7.382000	 64.9645
7.400000	 65.0222
7.418000	 65.0313
7.436000	 64.992
7.454000	 64.937
7.472000	 64.8975
7.490000	 64.878
7.508000	 64.8879
7.526000	 64.9247
7.544000	 64.9564
7.562000	 64.9638
7.580000	 64.9402
7.598000	 64.8773
7.616000	 64.8066
7.634000	 64.7769
7.652000	 64.7898
7.670000	 64.8194
7.688000	 64.8467
7.706000	 64.846
7.724000	 64.8152
7.742000	 64.8097
7.760000	 64.8752
7.778000	 64.9737
7.796000	 65.0292
7.814000	 65.0073
7.832000	 64.9272
7.850000	 64.8395
7.868000	 64.7981
7.886000	 64.815
7.904000	 64.851
7.922000	 64.8753
7.940000	 64.898
7.958000	 64.9176
7.976000	 64.906
7.994000	 64.8628
8.012000	 64.8339
8.030000	 64.8511
8.048000	 64.886
8.065999	 64.8892
8.084000	 64.8599
8.102000	 64.8412
8.120000	 64.8445
8.138000	 64.8383
8.155999	 64.825
8.173999	 64.8517
8.192000	 64.9238
8.210000	 64.9838
8.228000	 64.9912
8.246000	 64.9685
8.263999	 64.9495
8.282000	 64.9348
8.300000	 64.9065
8.318000	 64.8613
8.336000	 64.8211
8.353999	 64.8117
8.372000	 64.8321
8.390000	 64.8529
8.408000	 64.8426
8.426000	 64.8028
8.443999	 64.7759
8.462000	 64.8009
8.480000	 64.8709
8.498000	 64.9505
8.516000	 65.0164
8.533999	 65.0584
8.552000	 65.0597
8.570000	 65.0089
8.588000	 64.9285
8.606000	 64.8621
8.624000	 64.8276
8.641999	 64.8029
8.660000	 64.763
8.678000	 64.7167
8.696000	 64.6972
8.714000	 64.7256
8.731999	 64.794
8.750000	 64.8759
8.768000	 64.938
8.786000	 64.9471
8.804000	 64.8831
8.821999	 64.7602
8.840000	 64.6303
8.858000	 64.5517
8.876000	 64.5489
8.894000	 64.6052
8.911999	 64.6859
8.930000	 64.7648
8.948000	 64.8315
8.966000	 64.8919
8.984000	 64.9659
9.001999	 65.0699
9.020000	 65.1817
9.038000	 65.2336
9.056000	 65.1588
9.074000	 64.9585
9.092000	 64.7134
9.109999	 64.5237
9.128000	 64.4334
9.146000	 64.4084
9.164000	 64.3847
9.182000	 64.3363
9.199999	 64.2922
9.218000	 64.2985
9.236000	 64.3641
9.254000	 64.4476
9.272000	 64.496
9.289999	 64.4931
9.308000	 64.4687
9.326000	 64.4631
9.344000	 64.4862
9.362000	 64.5157
9.379999	 64.5262
9.398000	 64.517
9.416000	 64.5091
9.434000	 64.5245
9.452000	 64.5723
9.469999	 64.6473
9.488000	 64.7369
9.506000	 64.8249
9.524000	 64.8936
9.542000	 64.9279
9.560000	 64.9194
9.577999	 64.87
9.596000	 64.7905
9.614000	 64.6982
9.632000	 64.6111
9.650000	 64.5408
9.667999	 64.4908
9.686000	 64.4631
9.704000	 64.4639
9.722000	 64.4993
9.740000	 64.5617
9.757999	 64.6247
9.776000	 64.6542
9.794000	 64.6312
9.812000	 64.565
9.830000	 64.4843
9.847999	 64.4144
9.866000	 64.3643
9.884000	 64.3328
9.902000	 64.3216
9.920000	 64.3379
9.937999	 64.3859
9.956000	 64.4538
9.974000	 64.5158
9.992000	 64.5489
10.01	64.5484
10.028	64.5306
10.046	64.5186
10.064	64.5233
10.082	64.5362
10.1	64.5376
10.118	64.5137
10.136	64.4699
10.154	64.4274
10.172	64.4089
10.19	64.4215
10.208	64.4514
10.226	64.4768
10.244	64.4826
10.262	64.4727
10.28	64.4631
10.298	64.4667
10.316	64.4817
10.334	64.4917
10.352	64.4809
10.37	64.4463
10.388	64.4029
10.406	64.3735
10.424	64.3771
10.442	64.4172
10.46	64.4809
10.478	64.5442
10.496	64.5844
10.514	64.5876
10.532	64.5546
10.55	64.4994
10.568	64.4411
10.586	64.3957
10.604	64.3678
10.622	64.3512
10.64	64.3347
10.658	64.3094
10.676	64.2738
10.694	64.2334
10.712	64.1978
10.73	64.1789
10.748	64.189
10.766	64.2406
10.784	64.3415
10.802	64.4864
10.82	64.6518
10.838	64.7959
10.856	64.8763
10.874	64.8638
10.892	64.7593
10.91	64.5923
10.928	64.4082
10.946	64.2529
10.964	64.1513
10.982	64.1046
11	64.0928
11.018	64.0861
11.036	64.0617
11.054	64.0121
11.072	63.9478
11.09	63.8927
11.108	63.8708
11.126	63.8974
11.144	63.9708
11.162	64.0742
11.18	64.1851
11.198	64.2814
11.216	64.3488
11.234	64.3802
11.252	64.3707
11.27	64.3148
11.288	64.2069
11.306	64.0482
11.324	63.8535
11.342	63.6529
11.36	63.4845
11.378	63.3828
11.396	63.3617
11.414	63.4132
11.432	63.5127
11.45	63.6325
11.468	63.7526
11.486	63.8677
11.504	63.9821
11.522	64.1028
11.54	64.2313
11.558	64.3593
11.576	64.4718
11.594	64.5538
11.612	64.5947
11.63	64.5928
11.648	64.5547
11.666	64.4929
11.684	64.4236
11.702	64.3634
11.72	64.3285
11.738	64.3298
11.756	64.3704
11.774	64.4452
11.792	64.5384
11.81	64.6276
11.828	64.6888
11.846	64.6995
11.864	64.6471
11.882	64.5317
11.9	64.3678
11.918	64.181
11.936	64.0002
11.954	63.8507
11.972	63.7475
11.99	63.6908
12.008	63.6674
12.026	63.6583
12.044	63.6449
12.062	63.6209
12.08	63.5948
12.098	63.5842
12.116	63.608
12.134	63.6743
12.152	63.7748
12.17	63.889
12.188	63.9909
12.206	64.06
12.224	64.0893
12.242	64.0869
12.26	64.0694
12.278	64.0571
12.296	64.0648
12.314	64.0975
12.332	64.1485
12.35	64.2033
12.368	64.244
12.386	64.2574
12.404	64.239
12.422	64.194
12.44	64.1357
12.458	64.0798
12.476	64.0386
12.494	64.0179
12.512	64.0151
12.53	64.0221
12.548	64.0286
12.566	64.0259
12.584	64.0091
12.602	63.9775
12.62	63.9333
12.638	63.8805
12.656	63.8227
12.674	63.7626
12.692	63.7014
12.71	63.6412
12.728	63.5852
12.746	63.5372
12.764	63.502
12.782	63.4841
12.8	63.4852
12.818	63.5043
12.836	63.537
12.854	63.5772
12.872	63.6178
12.89	63.653
12.908	63.6785
12.926	63.6933
12.944	63.699
12.962	63.6995
12.98	63.7003
12.998	63.7062
13.016	63.7197
13.034	63.7402
13.052	63.7644
13.07	63.7871
13.088	63.8037
13.106	63.8107
13.124	63.808
13.142	63.7964
13.16	63.7776
13.178	63.7513
13.196	63.7161
13.214	63.6694
13.232	63.6082
13.25	63.5321
13.268	63.4451
13.286	63.3557
13.304	63.2763
13.322	63.2194
13.34	63.195
13.358	63.2059
13.376	63.2468
13.394	63.3041
13.412	63.3594
13.43	63.3942
13.448	63.3953
13.466	63.3575
13.484	63.2852
13.502	63.1908
13.52	63.0907
13.538	63.0015
13.556	62.9355
13.574	62.8989
13.592	62.8916
13.61	62.9083
13.628	62.9417
13.646	62.9848
13.664	63.033
13.682	63.0851
13.7	63.1424
13.718	63.207
13.736	63.2802
13.754	63.3601
13.772	63.4417
13.79	63.5173
13.808	63.5778
13.826	63.6156
13.844	63.6255
13.862	63.6066
13.88	63.562
13.898	63.4986
13.916	63.4252
13.934	63.3508
13.952	63.283
13.97	63.227
13.988	63.1849
14.006	63.1567
14.024	63.1407
14.042	63.1343
14.06	63.1358
14.078	63.1437
14.096	63.1577
14.114	63.1778
14.132	63.2041
14.15	63.2357
14.168	63.2708
14.186	63.306
14.204	63.3374
14.222	63.36
14.24	63.3697
14.258	63.3636
14.276	63.3402
14.294	63.3003
14.312	63.2467
14.33	63.1844
14.348	63.1194
14.366	63.0584
14.384	63.0075
14.402	62.9719
14.42	62.9547
14.438	62.9565
14.456	62.9757
14.474	63.0081
14.492	63.048
14.51	63.0882
14.528	63.1223
14.546	63.1452
14.564	63.1541
14.582	63.1489
14.6	63.1317
14.618	63.1069
14.636	63.0805
14.654	63.0575
14.672	63.0416
14.69	63.0347
14.708	63.0365
14.726	63.045
14.744	63.0558
14.762	63.0646
14.78	63.0673
14.798	63.0609
14.816	63.0438
14.834	63.0154
14.852	62.9772
14.87	62.9313
14.888	62.8799
14.906	62.8251
14.924	62.7687
14.942	62.7116
14.96	62.6545
14.978	62.598
14.996	62.5428
15.014	62.4904
15.032	62.4431
15.05	62.4038
15.068	62.3756
15.086	62.361
15.104	62.3622
15.122	62.3803
15.14	62.4142
15.158	62.4615
15.176	62.5189
15.194	62.5817
15.212	62.6445
15.23	62.703
15.248	62.7537
15.266	62.7944
15.284	62.8236
15.302	62.8423
15.32	62.8515
15.338	62.8532
15.356	62.8495
15.374	62.8425
15.392	62.8333
15.41	62.8226
15.428	62.8113
15.446	62.7989
15.464	62.7856
15.482	62.7713
15.5	62.7559
15.518	62.7397
15.536	62.723
15.554	62.706
15.572	62.6889
15.59	62.672
15.608	62.6547
15.626	62.6368
15.644	62.6177
15.662	62.5973
15.68	62.5756
15.698	62.5534
15.716	62.5318
15.734	62.513
15.752	62.4988
15.77	62.4915
15.788	62.4935
15.806	62.5057
15.824	62.5286
15.842	62.5616
15.86	62.6027
15.878	62.6492
15.896	62.6983
15.914	62.7454
15.932	62.7871
15.95	62.8207
15.968	62.8431
15.986	62.8529
16.004	62.8498
16.022	62.8339
16.04	62.8062
16.058	62.7687
16.076	62.7231
16.094	62.6722
16.112	62.6191
16.13	62.566
16.148	62.5155
16.166	62.4704
16.184	62.4325
16.202	62.404
16.22	62.3869
16.238	62.3819
16.256	62.3897
16.274	62.4097
16.292	62.4404
16.31	62.4805
16.328	62.5264
16.346	62.5746
16.364	62.622
16.382	62.664
16.4	62.6982
16.418	62.7225
16.436	62.7355
16.454	62.7381
16.472	62.7308
16.49	62.7167
16.508	62.699
16.526	62.6798
16.544	62.6639
16.562	62.6534
16.58	62.65
16.598	62.6556
16.616	62.6695
16.634	62.6914
16.652	62.7188
16.67	62.7495
16.688	62.7809
16.706	62.8087
16.724	62.8309
16.742	62.8442
16.76	62.846
16.778	62.8354
16.796	62.8109
16.814	62.7729
16.832	62.7216
16.85	62.6582
16.868	62.5845
16.886	62.502
16.904	62.4136
16.922	62.3208
16.94	62.226
16.958	62.1315
16.976	62.0382
16.994	61.9485
17.012	61.8632
17.03	61.7829
17.048	61.7078
17.066	61.6378
17.084	61.5727
17.102	61.5119
17.12	61.455
17.138	61.4018
17.156	61.3521
17.174	61.3058
17.192	61.2635
17.21	61.2255
17.228	61.1928
17.246	61.1661
17.264	61.1459
17.282	61.1334
17.3	61.1286
17.318	61.1315
17.336	61.1413
17.354	61.1577
17.372	61.1788
17.39	61.2039
17.408	61.2315
17.426	61.2602
17.444	61.2889
17.462	61.3164
17.48	61.3424
17.498	61.3665
17.516	61.389
17.534	61.41
17.552	61.4304
17.57	61.4504
17.588	61.4706
17.606	61.4913
17.624	61.5127
17.642	61.5346
17.66	61.5571
17.678	61.579
17.696	61.6
17.714	61.6191
17.732	61.6363
17.75	61.651
17.768	61.6639
17.786	61.675
17.804	61.6863
17.822	61.6984
17.84	61.7139
17.858	61.734
17.876	61.7605
17.894	61.7949
17.912	61.8381
17.93	61.8908
17.948	61.9527
17.966	62.0226
17.984	62.0991
18.002	62.1795
18.02	62.2607
18.038	62.3403
18.056	62.4135
18.074	62.4789
18.092	62.5313
18.11	62.5703
18.128	62.5922
18.146	62.5972
18.164	62.5842
18.182	62.5545
18.2	62.5088
18.218	62.4499
18.236	62.3789
18.254	62.2998
18.272	62.2134
18.29	62.1245
18.308	62.0337
18.326	61.9444
18.344	61.8572
18.362	61.7744
18.38	61.6959
18.398	61.6224
18.416	61.5536
18.434	61.4893
18.452	61.4286
18.47	61.3709
18.488	61.3152
18.506	61.2608
18.524	61.2071
18.542	61.1537
18.56	61.1002
18.578	61.0463
18.596	60.9929
18.614	60.9399
18.632	60.8889
18.65	60.84
18.668	60.7954
18.686	60.7553
18.704	60.7216
18.722	60.6943
18.74	60.6749
18.758	60.6632
18.776	60.6595
18.794	60.6632
18.812	60.6734
18.83	60.6892
18.848	60.7085
18.866	60.7299
18.884	60.751
18.902	60.7703
18.92	60.7852
18.938	60.795
18.956	60.7975
18.974	60.7927
18.992	60.7795
19.01	60.7592
19.028	60.732
19.046	60.7
19.064	60.6649
19.082	60.629
19.1	60.5955
19.118	60.5659
19.136	60.544
19.154	60.5304
19.172	60.5284
19.19	60.5378
19.208	60.5602
19.226	60.5945
19.244	60.6397
19.262	60.6948
19.28	60.7561
19.298	60.823
19.316	60.8899
19.334	60.957
19.352	61.0181
19.37	61.0736
19.388	61.119
19.406	61.1545
19.424	61.1781
19.442	61.1896
19.46	61.1898
19.478	61.1786
19.496	61.1586
19.514	61.1302
19.532	61.0964
19.55	61.0589
19.568	61.0195
19.586	60.9809
19.604	60.9435
19.622	60.91
19.64	60.88
19.658	60.8547
19.676	60.8339
19.694	60.8171
19.712	60.8044
19.73	60.7937
19.748	60.7854
19.766	60.7773
19.784	60.7691
19.802	60.7598
19.82	60.7486
19.838	60.7356
19.856	60.7205
19.874	60.704
19.892	60.687
19.91	60.6695
19.928	60.6542
19.946	60.6406
19.964	60.6315
19.982	60.627
20	60.6283
20.018	60.6364
20.036	60.6509
20.054	60.6725
20.072	60.7005
20.09	60.7337
20.108	60.7722
20.126	60.8125
20.144	60.8551
20.162	60.896
20.18	60.9342
20.198	60.9678
20.216	60.9935
20.234	61.0118
20.252	61.0191
20.27	61.0158
20.288	61.0006
20.306	60.9731
20.324	60.9339
20.342	60.8829
20.36	60.8212
20.378	60.7508
20.396	60.6714
20.414	60.587
20.432	60.4968
20.45	60.4044
20.468	60.3111
20.486	60.2176
20.504	60.1271
20.522	60.0389
20.54	59.9552
20.558	59.8759
20.576	59.8016
20.594	59.7327
20.612	59.6688
20.63	59.6097
20.648	59.5554
20.666	59.5053
20.684	59.4592
20.702	59.4169
20.72	59.3782
20.738	59.3433
20.756	59.3122
20.774	59.285
20.792	59.2625
20.81	59.2448
20.828	59.2324
20.846	59.2262
20.864	59.2259
20.882	59.2323
20.9	59.2457
20.918	59.2655
20.936	59.2918
20.954	59.3243
20.972	59.3609
20.99	59.4026
21.008	59.4461
21.026	59.4908
21.044	59.5359
21.062	59.5772
21.08	59.6161
21.098	59.6484
21.116	59.6736
21.134	59.6909
21.152	59.6973
21.17	59.6938
21.188	59.6789
21.206	59.6519
21.224	59.6134
21.242	59.5636
21.26	59.5024
21.278	59.4318
21.296	59.3517
21.314	59.2635
21.332	59.1699
21.35	59.0701
21.368	58.9679
21.386	58.8637
21.404	58.7585
21.422	58.656
21.44	58.5551
21.458	58.4585
21.476	58.3672
21.494	58.281
21.512	58.2021
21.53	58.13
21.548	58.0656
21.566	58.0099
21.584	57.9624
21.602	57.9241
21.62	57.8949
21.638	57.8748
21.656	57.864
21.674	57.8624
21.692	57.8696
21.71	57.8855
21.728	57.91
21.746	57.9423
21.764	57.9827
21.782	58.03
21.8	58.0834
21.818	58.1433
21.836	58.2069
21.854	58.2747
21.872	58.3454
21.89	58.4162
21.908	58.4883
21.926	58.5586
21.944	58.6252
21.962	58.689
21.98	58.7461
21.998	58.7966
22.016	58.84
22.034	58.8735
22.052	58.8981
22.07	58.9127
22.088	58.9164
22.106	58.9097
22.124	58.8926
22.142	58.8647
22.16	58.8267
22.178	58.7808
22.196	58.7257
22.214	58.664
22.232	58.5982
22.25	58.5269
22.268	58.4542
22.286	58.382
22.304	58.3094
22.322	58.241
22.34	58.1771
22.358	58.118
22.376	58.0675
22.394	58.0249
22.412	57.9911
22.43	57.9677
22.448	57.9547
22.466	57.9512
22.484	57.9575
22.502	57.9738
22.52	57.9973
22.538	58.0274
22.556	58.0643
22.574	58.1032
22.592	58.1444
22.61	58.1868
22.628	58.2246
22.646	58.2593
22.664	58.2886
22.682	58.3076
22.7	58.318
22.718	58.3176
22.736	58.3028
22.754	58.2751
22.772	58.2331
22.79	58.1748
22.808	58.101
22.826	58.012
22.844	57.9073
22.862	57.7871
22.88	57.6541
22.898	57.5088
22.916	57.3508
22.934	57.1848
22.952	57.0115
22.97	56.8305
22.988	56.6473
23.006	56.4625
23.024	56.2758
23.042	56.0928
23.06	55.9139
23.078	55.7386
23.096	55.5704
23.114	55.4093
23.132	55.2553
23.15	55.1105
23.168	54.9752
23.186	54.8489
23.204	54.7324
23.222	54.6254
23.24	54.5281
23.258	54.4408
23.276	54.3632
23.294	54.2957
23.312	54.2393
23.33	54.1936
23.348	54.159
23.366	54.1368
23.384	54.1271
23.402	54.1297
23.42	54.145
23.438	54.1731
23.456	54.2139
23.474	54.2679
23.492	54.335
23.51	54.4152
23.528	54.5081
23.546	54.6143
23.564	54.7334
23.582	54.8634
23.6	55.0044
23.618	55.1568
23.636	55.3163
23.654	55.4814
23.672	55.654
23.69	55.829
23.708	56.0032
23.726	56.1797
23.744	56.3532
23.762	56.5192
23.78	56.6808
23.798	56.8347
23.816	56.977
23.834	57.1094
23.852	57.231
23.87	57.3395
23.888	57.4346
23.906	57.5174
23.924	57.5885
23.942	57.6471
23.96	57.6939
23.978	57.7311
23.996	57.759
24.014	57.777
24.032	57.7878
24.05	57.7932
24.068	57.792
24.086	57.7853
24.104	57.7748
24.122	57.7611
24.14	57.7418
24.158	57.7143
24.176	57.6809
24.194	57.6394
24.212	57.5845
24.23	57.5162
24.248	57.4357
24.266	57.3367
24.284	57.2157
24.302	57.0758
24.32	56.9146
24.338	56.7292
24.356	56.5199
24.374	56.2884
24.392	56.0363
24.41	55.7603
24.428	55.4636
24.446	55.1541
24.464	54.8322
24.482	54.4935
24.5	54.1548
24.518	53.829
24.536	53.5041
24.554	53.1928
24.572	52.9132
24.59	52.6605
24.608	52.4353
24.626	52.2526
24.644	52.1206
24.662	52.0316
24.68	51.9899
24.698	52.0005
24.716	52.0639
24.734	52.1755
24.752	52.3306
24.77	52.5347
24.788	52.7853
24.806	53.0642
24.824	53.3612
24.842	53.6923
24.86	54.0338
24.878	54.3576
24.896	54.6767
24.914	54.986
24.932	55.2547
24.95	55.4681
24.968	55.6454
24.986	55.7635
25.004	55.7971
25.022	55.754
25.04	55.6353
25.058	55.43
25.076	55.1295
25.094	54.7386
25.112	54.2657
25.13	53.7178
25.148	53.0818
25.166	52.3712
25.184	51.6123
25.202	50.812
25.22	49.9521
25.238	49.0678
25.256	48.1955
25.274	47.3141
25.292	46.4327
25.31	45.5893
25.328	44.8052
25.346	44.0547
25.364	43.3613
25.382	42.753
25.4	42.2276
25.418	41.778
25.436	41.4149
25.454	41.1483
25.472	40.9765
25.49	40.8916
25.508	40.8857
25.526	40.9626
25.544	41.125
25.562	41.3519
25.58	41.624
25.598	41.9583
25.616	42.344
25.634	42.7541
25.652	43.1721
25.67	43.6165
25.688	44.0733
25.706	44.5249
25.724	44.9676
25.742	45.4093
25.76	45.8454
25.778	46.2716
25.796	46.6885
25.814	47.0975
25.832	47.4994
25.85	47.8931
25.868	48.2749
25.886	48.6528
25.904	49.0357
25.922	49.4261
25.94	49.8188
25.958	50.2188
25.976	50.6311
25.994	51.0517
26.012	51.4817
26.03	51.9284
26.048	52.3976
26.066	52.8797
26.084	53.3825
26.102	53.9196
26.12	54.4985
26.138	55.1068
26.156	55.7555
26.174	56.459
26.192	57.2205
26.21	58.0294
26.228	58.899
26.246	59.8432
26.264	60.8635
26.282	61.9531
26.3	63.1162
26.318	64.3572
26.336	65.6801
26.354	67.0796
26.372	68.5473
26.39	70.0762
26.408	71.6807
26.426	73.3495
26.444	75.0597
26.462	76.7945
26.48	78.5822
26.498	80.4004
26.516	82.2114
26.534	83.9901
26.552	85.7735
26.57	87.5347
26.588	89.2336
26.606	90.8452
26.624	92.4025
26.642	93.8863
26.66	95.2698
26.678	96.5383
26.696	97.7136
26.714	98.783
26.732	99.7302
26.75	100.544
26.768	101.235
26.786	101.806
26.804	102.257
26.822	102.588
26.84	102.796
26.858	102.89
26.876	102.878
26.894	102.763
26.912	102.537
26.93	102.211
26.948	101.799
26.966	101.265
26.984	100.537
27.002	99.7808
27.02	99.1777
27.028	99.0229