File: Bakgrunnsmateriale/MATLAB/FTIR/ftir_data/subBb/Mapping_121/C-4040-8_t25.asc
PE IR       SPECTRUM    SPECTRUM    ASCII       PEDS        1.60
  -1
C-BD2E~1.ASC
17/03/27
16:34:03.00
17/03/27
16:34:29.00
tln
$C-4040-8_t0025$<tbV0>[7.8,-7.8,8.0,0.0,27,1,0]
27.028
64

2002,4.07
MIRTGS : RIGHTBACK : INTERNAL 2
MIR : ON : INTERNAL 2
OPTKBR

0.200000
8
8.000000
FILLER
RATIO
SPECTRUM
UNLOCKED 256

DOUBLE
64
COMBINED
1
0
0

0.002000
RATIO

1
0
TRUE
51149
0
LEFT NOT FITTED RIGHT NOT FITTED 0
NONE
NONE
15600
12
4.427000
51148
TRUE
1 0 8 72 0 0 0 0

15798

#HDR
-1
-1
#GR
µM
%T
2.38419e-05
0.0
2.000000
0.002000
12515
8
71.6589
2.845668
#DATA
2.000000	 62.5867
2.018000	 62.6854
2.036000	 62.4989
2.054000	 63.0386
2.072000	 62.6217
2.090000	 62.4508
2.108000	 62.1688
2.126000	 62.2879
2.144000	 62.6274
2.162000	 62.0032
2.180000	 62.1497
2.198000	 62.4793
2.216000	 62.3875
2.234000	 62.7129
2.252000	 62.605
2.270000	 62.0668
2.288000	 58.4314
2.306000	 62.6791
2.324000	 61.913
2.342000	 61.7611
2.360000	 61.7155
2.378000	 61.2431
2.396000	 61.5122
2.414000	 61.5648
2.432000	 60.9633
2.450000	 60.5714
2.468000	 60.3275
2.486000	 60.6444
2.504000	 60.5152
2.522000	 60.6139
2.540000	 60.5122
2.558000	 60.0438
2.576000	 60.4543
2.594000	 60.308
2.612000	 60.1847
2.630000	 59.8568
2.648000	 59.6542
2.666000	 59.7902
2.684000	 59.597
2.702000	 59.2707
2.720000	 59.1764
2.738000	 58.9957
2.756000	 58.8667
2.774000	 58.5463
2.792000	 58.8328
2.810000	 58.4643
2.828000	 58.1729
2.846000	 58.0882
2.864000	 58.0252
2.882000	 57.758
2.900000	 57.919
2.918000	 57.8183
2.936000	 57.22
2.954000	 57.2844
2.972000	 57.1294
2.990000	 56.9953
3.008000	 56.7775
3.026000	 56.7504
3.044000	 56.4956
3.062000	 56.2964
3.080000	 56.2095
3.098000	 55.8365
3.116000	 55.6531
3.134000	 55.657
3.152000	 55.4812
3.170000	 55.2742
3.188000	 55.3183
3.206000	 55.2627
3.224000	 54.8431
3.242000	 54.9221
3.260000	 54.5232
3.278000	 54.4604
3.296000	 54.3713
3.314000	 54.1961
3.332000	 54.0469
3.350000	 53.7517
3.368000	 53.6489
3.386000	 53.4819
3.404000	 53.2247
3.422000	 52.8135
3.440000	 53.056
3.458000	 52.7896
3.476000	 52.718
3.494000	 52.3691
3.512000	 52.2947
3.530000	 52.1751
3.548000	 52.154
3.566000	 52.0538
3.584000	 51.7226
3.602000	 51.5278
3.620000	 51.4548
3.638000	 51.2825
3.656000	 51.0235
3.674000	 51.0349
3.692000	 50.8161
3.710000	 50.7439
3.728000	 50.46
3.746000	 50.4192
3.764000	 50.1832
3.782000	 49.9822
3.800000	 49.9792
3.818000	 49.655
3.836000	 49.5696
3.854000	 49.4154
3.872000	 49.1892
3.890000	 49.2189
3.908000	 49.0617
3.926000	 48.9729
3.944000	 48.7829
3.962000	 48.6654
3.980000	 48.5097
3.998000	 48.2761
4.016000	 48.1184
4.034000	 47.9181
4.052000	 47.9137
4.070000	 47.8183
4.088000	 47.5091
4.106000	 47.3171
4.124000	 47.7586
4.141999	 47.3945
4.160000	 46.9341
4.178000	 46.8976
4.196000	 46.8602
4.214000	 46.7119
4.232000	 46.4204
4.250000	 46.0889
4.268000	 46.2609
4.286000	 46.1016
4.304000	 45.9899
4.322000	 45.8604
4.340000	 45.74
4.358000	 45.5026
4.375999	 45.4956
4.394000	 45.295
4.412000	 45.1351
4.430000	 45.0881
4.448000	 45.0045
4.466000	 44.8015
4.484000	 44.753
4.502000	 44.6595
4.520000	 44.5822
4.538000	 44.5017
4.556000	 44.3838
4.574000	 44.1818
4.592000	 43.9755
4.609999	 43.8508
4.628000	 43.8834
4.646000	 43.7541
4.664000	 43.4746
4.682000	 43.4469
4.700000	 43.3292
4.718000	 43.2708
4.736000	 43.1022
4.754000	 43.0087
4.772000	 42.9668
4.790000	 42.823
4.808000	 42.7152
4.826000	 42.5366
4.843999	 42.5727
4.862000	 42.4467
4.880000	 42.2614
4.898000	 42.156
4.916000	 42.1312
4.934000	 42.0755
4.952000	 42.0022
4.970000	 41.8663
4.988000	 41.6337
5.006000	 41.6013
5.024000	 41.6241
5.042000	 41.3692
5.060000	 41.2152
5.077999	 41.191
5.096000	 41.095
5.114000	 40.8902
5.132000	 40.8427
5.150000	 40.7373
5.168000	 40.72
5.186000	 40.6659
5.204000	 40.5474
5.222000	 40.4492
5.240000	 40.2787
5.258000	 40.155
5.276000	 40.056
5.294000	 39.9868
5.312000	 39.9066
5.330000	 39.8411
5.348000	 39.8049
5.366000	 39.7769
5.384000	 39.6172
5.402000	 39.5017
5.420000	 39.4181
5.438000	 39.3606
5.456000	 39.3079
5.474000	 39.1392
5.492000	 38.966
5.510000	 38.9246
5.528000	 38.932
5.546000	 38.8423
5.564000	 38.7979
5.582000	 38.7034
5.600000	 38.6359
5.618000	 38.5307
5.636000	 38.4729
5.654000	 38.4361
5.672000	 38.3715
5.690000	 38.2356
5.708000	 38.1007
5.726000	 38.0492
5.744000	 38.003
5.762000	 37.7838
5.780000	 37.7171
5.798000	 37.6682
5.816000	 37.5065
5.834000	 37.3862
5.852000	 37.3605
5.870000	 37.3636
5.888000	 37.378
5.906000	 37.2563
5.923999	 37.1358
5.942000	 37.1048
5.960000	 37.1164
5.978000	 37.0768
5.996000	 36.9683
6.014000	 36.9239
6.032000	 36.8951
6.050000	 36.7334
6.068000	 36.6091
6.086000	 36.6236
6.104000	 36.6116
6.122000	 36.6382
6.140000	 36.6041
6.158000	 36.4332
6.176000	 36.3029
6.194000	 36.2641
6.212000	 36.2178
6.230000	 36.1447
6.248000	 36.0464
6.266000	 35.9863
6.284000	 35.9327
6.302000	 35.9044
6.320000	 35.897
6.338000	 35.8107
6.356000	 35.6941
6.374000	 35.6567
6.392000	 35.6016
6.410000	 35.5003
6.428000	 35.462
6.446000	 35.4103
6.464000	 35.337
6.482000	 35.2556
6.500000	 35.151
6.518000	 35.0907
6.536000	 35.0539
6.554000	 34.9803
6.572000	 34.8885
6.590000	 34.8322
6.608000	 34.8124
6.626000	 34.8648
6.644000	 34.9017
6.662000	 34.8148
6.680000	 34.6982
6.698000	 34.6024
6.716000	 34.504
6.734000	 34.4299
6.752000	 34.3989
6.770000	 34.3708
6.788000	 34.2609
6.806000	 34.1101
6.824000	 34.0311
6.842000	 34.0475
6.860000	 34.0924
6.878000	 34.0765
6.896000	 34.0125
6.914000	 33.9698
6.932000	 33.9363
6.950000	 33.87
6.968000	 33.7602
6.986000	 33.6483
7.004000	 33.5798
7.022000	 33.5392
7.040000	 33.5379
7.058000	 33.5715
7.076000	 33.5725
7.094000	 33.5189
7.112000	 33.4224
7.130000	 33.3109
7.148000	 33.2199
7.166000	 33.1587
7.184000	 33.1476
7.202000	 33.1749
7.220000	 33.1746
7.238000	 33.1203
7.256000	 33.0386
7.274000	 32.95
7.292000	 32.8566
7.310000	 32.7672
7.328000	 32.7064
7.346000	 32.6844
7.364000	 32.6777
7.382000	 32.6708
7.400000	 32.6594
7.418000	 32.6213
7.436000	 32.5692
7.454000	 32.5481
7.472000	 32.531
7.490000	 32.46
7.508000	 32.3653
7.526000	 32.3119
7.544000	 32.2994
7.562000	 32.2712
7.580000	 32.1988
7.598000	 32.1333
7.616000	 32.121
7.634000	 32.1206
7.652000	 32.0868
7.670000	 32.0356
7.688000	 31.9799
7.706000	 31.9172
7.724000	 31.8769
7.742000	 31.8741
7.760000	 31.8529
7.778000	 31.7675
7.796000	 31.6713
7.814000	 31.6436
7.832000	 31.6679
7.850000	 31.6683
7.868000	 31.6258
7.886000	 31.5812
7.904000	 31.5646
7.922000	 31.5799
7.940000	 31.6126
7.958000	 31.6195
7.976000	 31.5568
7.994000	 31.4359
8.012000	 31.3168
8.030000	 31.2408
8.048000	 31.2049
8.065999	 31.1855
8.084000	 31.1598
8.102000	 31.1163
8.120000	 31.0682
8.138000	 31.0393
8.155999	 31.0344
8.173999	 31.0331
8.192000	 31.0076
8.210000	 30.9408
8.228000	 30.8486
8.246000	 30.7744
8.263999	 30.7399
8.282000	 30.7167
8.300000	 30.6636
8.318000	 30.5816
8.336000	 30.5139
8.353999	 30.4987
8.372000	 30.532
8.390000	 30.568
8.408000	 30.5634
8.426000	 30.5183
8.443999	 30.4665
8.462000	 30.4327
8.480000	 30.4126
8.498000	 30.3917
8.516000	 30.3672
8.533999	 30.3425
8.552000	 30.3154
8.570000	 30.2789
8.588000	 30.2313
8.606000	 30.1794
8.624000	 30.1342
8.641999	 30.1055
8.660000	 30.0922
8.678000	 30.0812
8.696000	 30.0578
8.714000	 30.0193
8.731999	 29.9754
8.750000	 29.9411
8.768000	 29.9288
8.786000	 29.9394
8.804000	 29.9552
8.821999	 29.9492
8.840000	 29.9075
8.858000	 29.8434
8.876000	 29.7806
8.894000	 29.7236
8.911999	 29.6554
8.930000	 29.5666
8.948000	 29.4695
8.966000	 29.3774
8.984000	 29.2863
9.001999	 29.1927
9.020000	 29.1195
9.038000	 29.1052
9.056000	 29.1629
9.074000	 29.2546
9.092000	 29.3179
9.109999	 29.3139
9.128000	 29.2528
9.146000	 29.1778
9.164000	 29.1264
9.182000	 29.1033
9.199999	 29.0904
9.218000	 29.0751
9.236000	 29.0565
9.254000	 29.0309
9.272000	 28.9843
9.289999	 28.9088
9.308000	 28.8247
9.326000	 28.7675
9.344000	 28.753
9.362000	 28.7592
9.379999	 28.7495
9.398000	 28.7029
9.416000	 28.6214
9.434000	 28.5222
9.452000	 28.4356
9.469999	 28.4046
9.488000	 28.4629
9.506000	 28.592
9.524000	 28.7085
9.542000	 28.7258
9.560000	 28.6314
9.577999	 28.4954
9.596000	 28.3997
9.614000	 28.3703
9.632000	 28.3764
9.650000	 28.3766
9.667999	 28.3593
9.686000	 28.3438
9.704000	 28.355
9.722000	 28.4015
9.740000	 28.472
9.757999	 28.5395
9.776000	 28.5683
9.794000	 28.5264
9.812000	 28.4025
9.830000	 28.2166
9.847999	 28.0124
9.866000	 27.834
9.884000	 27.7089
9.902000	 27.6469
9.920000	 27.6499
9.937999	 27.7144
9.956000	 27.8221
9.974000	 27.9346
9.992000	 28.01
10.01	28.0256
10.028	27.9925
10.046	27.9455
10.064	27.9167
10.082	27.9142
10.1	27.9241
10.118	27.9284
10.136	27.9235
10.154	27.9209
10.172	27.9314
10.19	27.9494
10.208	27.9524
10.226	27.9144
10.244	27.8282
10.262	27.7181
10.28	27.6256
10.298	27.5841
10.316	27.5945
10.334	27.6218
10.352	27.6192
10.37	27.5531
10.388	27.4249
10.406	27.2657
10.424	27.1209
10.442	27.0303
10.46	27.0177
10.478	27.0907
10.496	27.2354
10.514	27.4182
10.532	27.5863
10.55	27.6888
10.568	27.6945
10.586	27.6066
10.604	27.4576
10.622	27.294
10.64	27.1528
10.658	27.0503
10.676	26.9832
10.694	26.9386
10.712	26.9038
10.73	26.8717
10.748	26.8386
10.766	26.8023
10.784	26.7619
10.802	26.7176
10.82	26.6703
10.838	26.621
10.856	26.5725
10.874	26.5277
10.892	26.4879
10.91	26.4524
10.928	26.4173
10.946	26.3771
10.964	26.3294
10.982	26.2751
11	26.2174
11.018	26.1621
11.036	26.1137
11.054	26.0754
11.072	26.0497
11.09	26.0408
11.108	26.0524
11.126	26.085
11.144	26.1324
11.162	26.1805
11.18	26.2138
11.198	26.2207
11.216	26.2
11.234	26.1602
11.252	26.1161
11.27	26.0809
11.288	26.0631
11.306	26.0631
11.324	26.076
11.342	26.094
11.36	26.1099
11.378	26.1174
11.396	26.1121
11.414	26.0912
11.432	26.0539
11.45	26.0023
11.468	25.9419
11.486	25.8804
11.504	25.8256
11.522	25.7835
11.54	25.7561
11.558	25.7413
11.576	25.7336
11.594	25.7266
11.612	25.7138
11.63	25.6909
11.648	25.6569
11.666	25.6131
11.684	25.5624
11.702	25.5078
11.72	25.4531
11.738	25.4016
11.756	25.3553
11.774	25.3146
11.792	25.2772
11.81	25.2382
11.828	25.1925
11.846	25.1374
11.864	25.0754
11.882	25.0138
11.9	24.9629
11.918	24.9326
11.936	24.9268
11.954	24.9416
11.972	24.9655
11.99	24.9836
12.008	24.9831
12.026	24.9583
12.044	24.9118
12.062	24.8538
12.08	24.7973
12.098	24.753
12.116	24.7256
12.134	24.7125
12.152	24.7058
12.17	24.6956
12.188	24.6739
12.206	24.637
12.224	24.5866
12.242	24.5284
12.26	24.4696
12.278	24.4182
12.296	24.3806
12.314	24.3606
12.332	24.3583
12.35	24.3702
12.368	24.3887
12.386	24.4045
12.404	24.4092
12.422	24.3982
12.44	24.372
12.458	24.3354
12.476	24.2962
12.494	24.262
12.512	24.2372
12.53	24.2222
12.548	24.2139
12.566	24.2077
12.584	24.1992
12.602	24.1865
12.62	24.1709
12.638	24.156
12.656	24.1461
12.674	24.1439
12.692	24.1491
12.71	24.1588
12.728	24.1673
12.746	24.169
12.764	24.1591
12.782	24.1349
12.8	24.0966
12.818	24.047
12.836	23.99
12.854	23.9301
12.872	23.8709
12.89	23.8156
12.908	23.7668
12.926	23.726
12.944	23.6948
12.962	23.6736
12.98	23.6626
12.998	23.6605
13.016	23.6651
13.034	23.6735
13.052	23.6819
13.07	23.6867
13.088	23.6839
13.106	23.6709
13.124	23.6461
13.142	23.6096
13.16	23.5635
13.178	23.5117
13.196	23.4592
13.214	23.4113
13.232	23.3722
13.25	23.344
13.268	23.3268
13.286	23.3179
13.304	23.3132
13.322	23.3079
13.34	23.2983
13.358	23.2822
13.376	23.2597
13.394	23.2325
13.412	23.2035
13.43	23.1749
13.448	23.148
13.466	23.1224
13.484	23.0963
13.502	23.0683
13.52	23.0374
13.538	23.0046
13.556	22.9724
13.574	22.9447
13.592	22.9256
13.61	22.9176
13.628	22.9216
13.646	22.9358
13.664	22.9569
13.682	22.9801
13.7	23.0013
13.718	23.0173
13.736	23.0273
13.754	23.0327
13.772	23.0361
13.79	23.0403
13.808	23.0473
13.826	23.057
13.844	23.0668
13.862	23.0723
13.88	23.0679
13.898	23.0485
13.916	23.0106
13.934	22.9536
13.952	22.8799
13.97	22.7945
13.988	22.7045
14.006	22.6173
14.024	22.5397
14.042	22.4761
14.06	22.4279
14.078	22.3942
14.096	22.372
14.114	22.3571
14.132	22.3455
14.15	22.3339
14.168	22.3209
14.186	22.3065
14.204	22.292
14.222	22.2793
14.24	22.2701
14.258	22.2651
14.276	22.2639
14.294	22.265
14.312	22.2659
14.33	22.2645
14.348	22.2585
14.366	22.247
14.384	22.2298
14.402	22.2084
14.42	22.1843
14.438	22.1597
14.456	22.1364
14.474	22.1155
14.492	22.0975
14.51	22.0819
14.528	22.0672
14.546	22.0518
14.564	22.0338
14.582	22.0115
14.6	21.9838
14.618	21.9497
14.636	21.9092
14.654	21.8625
14.672	21.8106
14.69	21.7545
14.708	21.6958
14.726	21.6359
14.744	21.5768
14.762	21.5205
14.78	21.4685
14.798	21.4225
14.816	21.3835
14.834	21.3524
14.852	21.3291
14.87	21.3133
14.888	21.3043
14.906	21.3011
14.924	21.3026
14.942	21.3076
14.96	21.315
14.978	21.3238
14.996	21.3328
15.014	21.341
15.032	21.3471
15.05	21.3498
15.068	21.3479
15.086	21.3401
15.104	21.3255
15.122	21.3032
15.14	21.2727
15.158	21.2339
15.176	21.1867
15.194	21.1316
15.212	21.0697
15.23	21.0021
15.248	20.9305
15.266	20.8567
15.284	20.7829
15.302	20.7114
15.32	20.6444
15.338	20.5841
15.356	20.5328
15.374	20.4922
15.392	20.4631
15.41	20.446
15.428	20.4404
15.446	20.4451
15.464	20.4579
15.482	20.4766
15.5	20.4985
15.518	20.5204
15.536	20.5402
15.554	20.5562
15.572	20.567
15.59	20.5725
15.608	20.5733
15.626	20.5705
15.644	20.5657
15.662	20.5608
15.68	20.5575
15.698	20.5568
15.716	20.56
15.734	20.567
15.752	20.5775
15.77	20.5907
15.788	20.6046
15.806	20.617
15.824	20.6262
15.842	20.6297
15.86	20.6254
15.878	20.6119
15.896	20.5882
15.914	20.5534
15.932	20.5079
15.95	20.4521
15.968	20.3871
15.986	20.3149
16.004	20.237
16.022	20.1553
16.04	20.0726
16.058	19.9911
16.076	19.9127
16.094	19.8398
16.112	19.7738
16.13	19.7157
16.148	19.6667
16.166	19.627
16.184	19.5962
16.202	19.574
16.22	19.5589
16.238	19.5493
16.256	19.5438
16.274	19.5397
16.292	19.5353
16.31	19.5292
16.328	19.5196
16.346	19.5056
16.364	19.4867
16.382	19.463
16.4	19.4357
16.418	19.4057
16.436	19.3751
16.454	19.3454
16.472	19.318
16.49	19.2949
16.508	19.2766
16.526	19.2638
16.544	19.2563
16.562	19.2529
16.58	19.2529
16.598	19.2543
16.616	19.2558
16.634	19.2563
16.652	19.2544
16.67	19.25
16.688	19.2429
16.706	19.2342
16.724	19.2248
16.742	19.216
16.76	19.2101
16.778	19.2078
16.796	19.2106
16.814	19.2186
16.832	19.2318
16.85	19.2491
16.868	19.2688
16.886	19.2896
16.904	19.308
16.922	19.3226
16.94	19.3308
16.958	19.3307
16.976	19.3217
16.994	19.303
17.012	19.2756
17.03	19.2398
17.048	19.1983
17.066	19.1525
17.084	19.1045
17.102	19.0567
17.12	19.01
17.138	18.9662
17.156	18.9249
17.174	18.8866
17.192	18.8498
17.21	18.8137
17.228	18.7765
17.246	18.7367
17.264	18.6932
17.282	18.6445
17.3	18.5905
17.318	18.5311
17.336	18.4675
17.354	18.4003
17.372	18.332
17.39	18.2635
17.408	18.1973
17.426	18.1349
17.444	18.0775
17.462	18.0265
17.48	17.9822
17.498	17.9449
17.516	17.9141
17.534	17.8895
17.552	17.8696
17.57	17.8539
17.588	17.8407
17.606	17.8295
17.624	17.8193
17.642	17.8097
17.66	17.8003
17.678	17.7908
17.696	17.781
17.714	17.7711
17.732	17.7609
17.75	17.7503
17.768	17.7391
17.786	17.7273
17.804	17.7138
17.822	17.6985
17.84	17.6807
17.858	17.66
17.876	17.6361
17.894	17.6088
17.912	17.5782
17.93	17.5448
17.948	17.5088
17.966	17.4716
17.984	17.4336
18.002	17.3964
18.02	17.361
18.038	17.3286
18.056	17.3004
18.074	17.2771
18.092	17.2601
18.11	17.2496
18.128	17.2464
18.146	17.2506
18.164	17.2624
18.182	17.2815
18.2	17.308
18.218	17.3408
18.236	17.3796
18.254	17.4225
18.272	17.4692
18.29	17.517
18.308	17.5656
18.326	17.6119
18.344	17.6555
18.362	17.6932
18.38	17.7244
18.398	17.7467
18.416	17.7596
18.434	17.7615
18.452	17.7525
18.47	17.7318
18.488	17.7006
18.506	17.6586
18.524	17.6081
18.542	17.5491
18.56	17.485
18.578	17.4161
18.596	17.3459
18.614	17.2747
18.632	17.2059
18.65	17.1395
18.668	17.0779
18.686	17.021
18.704	16.9701
18.722	16.9248
18.74	16.8851
18.758	16.8508
18.776	16.8209
18.794	16.7951
18.812	16.7722
18.83	16.7519
18.848	16.733
18.866	16.7154
18.884	16.6982
18.902	16.6815
18.92	16.6649
18.938	16.6484
18.956	16.6321
18.974	16.6162
18.992	16.6007
19.01	16.5859
19.028	16.5723
19.046	16.5601
19.064	16.5498
19.082	16.5416
19.1	16.536
19.118	16.5329
19.136	16.5328
19.154	16.5354
19.172	16.5411
19.19	16.5494
19.208	16.5602
19.226	16.5733
19.244	16.5878
19.262	16.6037
19.28	16.6197
19.298	16.6359
19.316	16.6508
19.334	16.6645
19.352	16.6757
19.37	16.6844
19.388	16.6894
19.406	16.6907
19.424	16.6875
19.442	16.6798
19.46	16.6674
19.478	16.6502
19.496	16.6286
19.514	16.6027
19.532	16.573
19.55	16.5398
19.568	16.5038
19.586	16.4658
19.604	16.4263
19.622	16.3865
19.64	16.3465
19.658	16.3079
19.676	16.2705
19.694	16.2359
19.712	16.204
19.73	16.1758
19.748	16.1513
19.766	16.131
19.784	16.1149
19.802	16.103
19.82	16.0951
19.838	16.0909
19.856	16.09
19.874	16.092
19.892	16.0957
19.91	16.1011
19.928	16.1061
19.946	16.1111
19.964	16.114
19.982	16.1147
20	16.1121
20.018	16.1054
20.036	16.0945
20.054	16.0785
20.072	16.0577
20.09	16.0321
20.108	16.0016
20.126	15.9675
20.144	15.9295
20.162	15.8893
20.18	15.8473
20.198	15.8044
20.216	15.762
20.234	15.7201
20.252	15.6802
20.27	15.6421
20.288	15.6064
20.306	15.5736
20.324	15.543
20.342	15.5149
20.36	15.4888
20.378	15.4638
20.396	15.4401
20.414	15.4159
20.432	15.3916
20.45	15.3659
20.468	15.3382
20.486	15.3086
20.504	15.2759
20.522	15.2406
20.54	15.2026
20.558	15.1617
20.576	15.1188
20.594	15.074
20.612	15.0278
20.63	14.9812
20.648	14.9342
20.666	14.8881
20.684	14.8429
20.702	14.7993
20.72	14.7578
20.738	14.7184
20.756	14.6816
20.774	14.6472
20.792	14.6149
20.81	14.5848
20.828	14.5564
20.846	14.5293
20.864	14.5035
20.882	14.4784
20.9	14.4538
20.918	14.4297
20.936	14.4059
20.954	14.3824
20.972	14.3596
20.99	14.3373
21.008	14.3163
21.026	14.2968
21.044	14.2792
21.062	14.2647
21.08	14.253
21.098	14.2453
21.116	14.2419
21.134	14.2428
21.152	14.2489
21.17	14.2598
21.188	14.2759
21.206	14.2972
21.224	14.3234
21.242	14.3541
21.26	14.3895
21.278	14.4285
21.296	14.4712
21.314	14.5168
21.332	14.5641
21.35	14.6136
21.368	14.6633
21.386	14.7133
21.404	14.7629
21.422	14.8104
21.44	14.8562
21.458	14.8991
21.476	14.9383
21.494	14.9739
21.512	15.0043
21.53	15.0301
21.548	15.0503
21.566	15.0643
21.584	15.0724
21.602	15.0738
21.62	15.0685
21.638	15.0565
21.656	15.038
21.674	15.0128
21.692	14.9816
21.71	14.9443
21.728	14.9012
21.746	14.8536
21.764	14.801
21.782	14.7446
21.8	14.6852
21.818	14.6225
21.836	14.5589
21.854	14.4942
21.872	14.4292
21.89	14.3658
21.908	14.3031
21.926	14.2427
21.944	14.1857
21.962	14.1314
21.98	14.0808
21.998	14.0342
22.016	13.9913
22.034	13.9524
22.052	13.9179
22.07	13.8868
22.088	13.8588
22.106	13.8342
22.124	13.8112
22.142	13.7899
22.16	13.77
22.178	13.7492
22.196	13.7283
22.214	13.7062
22.232	13.6813
22.25	13.6544
22.268	13.6242
22.286	13.5898
22.304	13.5517
22.322	13.509
22.34	13.4613
22.358	13.4091
22.376	13.3525
22.394	13.2911
22.412	13.2259
22.43	13.1579
22.448	13.0864
22.466	13.0132
22.484	12.9396
22.502	12.8649
22.52	12.7915
22.538	12.7203
22.556	12.6509
22.574	12.5861
22.592	12.5261
22.61	12.4709
22.628	12.4229
22.646	12.3817
22.664	12.3476
22.682	12.322
22.7	12.3046
22.718	12.2953
22.736	12.2944
22.754	12.3023
22.772	12.3174
22.79	12.3389
22.808	12.3677
22.826	12.4013
22.844	12.4385
22.862	12.4802
22.88	12.5239
22.898	12.5688
22.916	12.6155
22.934	12.662
22.952	12.708
22.97	12.7536
22.988	12.797
23.006	12.8374
23.024	12.8754
23.042	12.91
23.06	12.9408
23.078	12.9684
23.096	12.9934
23.114	13.0154
23.132	13.0349
23.15	13.0537
23.168	13.0714
23.186	13.0883
23.204	13.1062
23.222	13.1249
23.24	13.1446
23.258	13.1667
23.276	13.1914
23.294	13.2183
23.312	13.248
23.33	13.2806
23.348	13.3158
23.366	13.3531
23.384	13.393
23.402	13.4349
23.42	13.4777
23.438	13.5216
23.456	13.5664
23.474	13.6108
23.492	13.6548
23.51	13.6985
23.528	13.7404
23.546	13.7798
23.564	13.8173
23.582	13.8529
23.6	13.8861
23.618	13.917
23.636	13.9477
23.654	13.979
23.672	14.01
23.69	14.0427
23.708	14.0785
23.726	14.1165
23.744	14.1575
23.762	14.2023
23.78	14.2502
23.798	14.3022
23.816	14.3597
23.834	14.422
23.852	14.4898
23.87	14.5645
23.888	14.6462
23.906	14.7345
23.924	14.8287
23.942	14.9298
23.96	15.037
23.978	15.1476
23.996	15.261
24.014	15.3783
24.032	15.4958
24.05	15.6118
24.068	15.7286
24.086	15.8419
24.104	15.9477
24.122	16.0491
24.14	16.1428
24.158	16.2241
24.176	16.2954
24.194	16.3548
24.212	16.397
24.23	16.4217
24.248	16.4301
24.266	16.4172
24.284	16.3802
24.302	16.3223
24.32	16.2392
24.338	16.1272
24.356	15.9885
24.374	15.8218
24.392	15.6242
24.41	15.3956
24.428	15.1369
24.446	14.848
24.464	14.528
24.482	14.1773
24.5	13.798
24.518	13.3915
24.536	12.955
24.554	12.4934
24.572	12.0125
24.59	11.5085
24.608	10.9841
24.626	10.4496
24.644	9.908299
24.662	9.354300
24.68	8.799766
24.698	8.255594
24.716	7.713308
24.734	7.179993
24.752	6.668431
24.77	6.177964
24.788	5.705811
24.806	5.263554
24.824	4.859124
24.842	4.485468
24.86	4.147924
24.878	3.853692
24.896	3.601075
24.914	3.389399
24.932	3.222612
24.95	3.104034
24.968	3.032206
24.986	3.003559
25.004	3.014728
25.022	3.067074
25.04	3.159811
25.058	3.290123
25.076	3.456741
25.094	3.661029
25.112	3.901002
25.13	4.174519
25.148	4.480614
25.166	4.820928
25.184	5.197439
25.202	5.610400
25.22	6.058050
25.238	6.543674
25.256	7.070565
25.274	7.635096
25.292	8.239474
25.31	8.890049
25.328	9.590224
25.346	10.3354
25.364	11.1296
25.382	11.9777
25.4	12.88
25.418	13.8344
25.436	14.8409
25.454	15.9003
25.472	17.0158
25.49	18.1804
25.508	19.3858
25.526	20.635
25.544	21.9313
25.562	23.2559
25.58	24.5917
25.598	25.9562
25.616	27.3376
25.634	28.7076
25.652	30.0514
25.67	31.3924
25.688	32.7054
25.706	33.9601
25.724	35.1589
25.742	36.3127
25.76	37.3936
25.778	38.3759
25.796	39.2761
25.814	40.0894
25.832	40.7954
25.85	41.3801
25.868	41.8575
25.886	42.2217
25.904	42.4634
25.922	42.5773
25.94	42.5689
25.958	42.443
25.976	42.2042
25.994	41.8446
26.012	41.3695
26.03	40.7956
26.048	40.1364
26.066	39.3733
26.084	38.5216
26.102	37.608
26.12	36.6474
26.138	35.6162
26.156	34.537
26.174	33.4386
26.192	32.3268
26.21	31.1809
26.228	30.0309
26.246	28.9083
26.264	27.8115
26.282	26.7276
26.3	25.6785
26.318	24.6859
26.336	23.7452
26.354	22.8507
26.372	22.0096
26.39	21.2286
26.408	20.5097
26.426	19.8468
26.444	19.2332
26.462	18.6641
26.48	18.1476
26.498	17.6768
26.516	17.2408
26.534	16.8325
26.552	16.4651
26.57	16.1266
26.588	15.8004
26.606	15.477
26.624	15.1719
26.642	14.8728
26.66	14.5636
26.678	14.236
26.696	13.9036
26.714	13.5565
26.732	13.1824
26.75	12.7739
26.768	12.3391
26.786	11.8767
26.804	11.3845
26.822	10.861
26.84	10.3076
26.858	9.724926
26.876	9.113521
26.894	8.474012
26.912	7.806628
26.93	7.110468
26.948	6.384585
26.966	5.586523
26.984	4.655159
27.002	3.747671
27.02	3.034627
27.028	2.845668