File: Bakgrunnsmateriale/MATLAB/FTIR/ftir_data/subBb/Mapping_121/C-4040-8_t57_cm-1.asc
PE IR       SPECTRUM    SPECTRUM    ASCII       PEDS        1.60
  -1
C-1CEF~1.ASC
17/03/27
19:09:55.00
17/03/27
19:09:55.00
tln
$C-4040-8_t0057$<tbV0>[10.4,0.0,8.0,0.0,27,1,0]
370
64

2002,4.07
MIRTGS : RIGHTBACK : INTERNAL 2
MIR : ON : INTERNAL 2
OPTKBR

0.200000
8
8.000000
FILLER
RATIO
SPECTRUM
UNLOCKED 256

DOUBLE
64
COMBINED
1
0
0

1.000000
RATIO

1
0
TRUE
51149
0
LEFT NOT FITTED RIGHT NOT FITTED 0
NONE
NONE
15600
12
4.427000
51148
TRUE
1 0 8 72 0 0 0 0

15798

#HDR
-1
-1
#GR
CM-1
%T
2.38419e-05
0.0
5000
-1.000000
4631
8
85.5673
19.0304
#DATA
5000	65.1597
4996	65.0555
4992	64.7773
4988	64.9317
4984	65.086
4980	64.8286
4976	64.8289
4972	65.3266
4968	65.6158
4964	65.5066
4960	65.4129
4956	65.2836
4952	65.1706
4948	65.128
4944	65.2184
4940	65.5312
4936	65.4909
4932	65.0782
4928	65.1564
4924	65.4911
4920	65.3454
4916	64.9999
4912	64.7527
4908	64.7944
4904	65.0569
4900	65.1252
4896	65.0307
4892	64.6781
4888	64.1382
4884	64.0152
4880	64.3395
4876	64.5818
4872	64.5433
4868	64.5078
4864	64.7146
4860	64.8356
4856	64.9405
4852	65.2677
4848	65.237
4844	64.8528
4840	64.7439
4836	64.94
4832	65.059
4828	64.9765
4824	64.8606
4820	64.8854
4816	65.0113
4812	64.9818
4808	64.9027
4804	64.9407
4800	64.8597
4796	64.7581
4792	64.9143
4788	65.0787
4784	65.025
4780	64.9219
4776	64.7817
4772	64.6591
4768	64.7594
4764	64.8521
4760	64.8144
4756	64.8206
4752	64.7051
4748	64.4503
4744	64.3405
4740	64.277
4736	64.2945
4732	64.4689
4728	64.5555
4724	64.6863
4720	64.8084
4716	64.7691
4712	64.8235
4708	64.8799
4704	64.8052
4700	64.7134
4696	64.6966
4692	64.7825
4688	64.8567
4684	64.9526
4680	65.1087
4676	65.1316
4672	64.8567
4668	64.5168
4664	64.5275
4660	64.7091
4656	64.6716
4652	64.5757
4648	64.7629
4644	65.0748
4640	65.2982
4636	65.2903
4632	64.9831
4628	64.8504
4624	64.8258
4620	64.6648
4616	64.4734
4612	64.3205
4608	64.5053
4604	64.8827
4600	65.0352
4596	64.849
4592	64.5519
4588	64.5724
4584	64.9246
4580	65.2166
4576	65.2391
4572	65.0908
4568	64.9008
4564	64.7336
4560	64.7322
4556	64.8332
4552	64.8232
4548	64.6822
4544	64.6928
4540	65.0428
4536	65.2072
4532	65.1112
4528	65.1363
4524	65.2411
4520	65.169
4516	64.8514
4512	64.7914
4508	65.0065
4504	65.0756
4500	65.0716
4496	65.0772
4492	65.0563
4488	65.2065
4484	65.459
4480	65.4585
4476	65.1705
4472	64.9585
4468	65.0141
4464	65.0305
4460	65.0296
4456	65.2187
4452	65.4255
4448	65.5259
4444	65.5272
4440	65.5145
4436	65.5964
4432	65.7095
4428	65.8534
4424	65.8382
4420	65.5932
4416	65.562
4412	65.7257
4408	65.8084
4404	65.9252
4400	65.702
4396	65.2166
4392	64.985
4388	65.2125
4384	65.4178
4380	65.9249
4376	66.0386
4372	65.2009
4368	59.6334
4364	52.6788
4360	57.1508
4356	60.3185
4352	53.1573
4348	54.5071
4344	62.9356
4340	67.0882
4336	67.3168
4332	66.4651
4328	65.8058
4324	65.2324
4320	65.2238
4316	65.2412
4312	65.0398
4308	64.9997
4304	65.1309
4300	65.3411
4296	65.6297
4292	65.621
4288	65.504
4284	65.6725
4280	65.8554
4276	65.946
4272	65.8893
4268	65.7322
4264	65.4871
4260	65.0929
4256	64.8913
4252	64.8605
4248	64.8323
4244	64.939
4240	65.0125
4236	65.0132
4232	65.1358
4228	65.2959
4224	65.3789
4220	65.4119
4216	65.3536
4212	65.2277
4208	65.3164
4204	65.4875
4200	65.3588
4196	65.1953
4192	65.3706
4188	65.2924
4184	64.655
4180	64.2629
4176	64.2643
4172	64.3483
4168	64.3816
4164	64.388
4160	64.5275
4156	64.5856
4152	64.6484
4148	64.8869
4144	65.0727
4140	65.1733
4136	65.1264
4132	64.9527
4128	64.9906
4124	65.1636
4120	65.1669
4116	64.9989
4112	64.7207
4108	64.6475
4104	64.8725
4100	65.0239
4096	65.1029
4092	65.1111
4088	65.1425
4084	65.2552
4080	65.1953
4076	65.0301
4072	64.896
4068	64.8197
4064	64.7802
4060	64.8358
4056	64.9209
4052	64.9678
4048	65.0495
4044	64.9908
4040	64.8905
4036	64.9718
4032	64.9924
4028	64.8761
4024	64.8692
4020	65.0644
4016	65.2498
4012	65.1318
4008	64.9034
4004	64.8906
4000	64.9912
3996	65.0261
3992	65.0483
3988	64.9662
3984	64.8134
3980	64.8595
3976	64.8678
3972	64.7284
3968	64.69
3964	64.8084
3960	64.9849
3956	65.0702
3952	65.0731
3948	65.0227
3944	64.9732
3940	65.0756
3936	65.2108
3932	65.2031
3928	65.0282
3924	64.8458
3920	64.9336
3916	65.15
3912	65.2467
3908	65.1799
3904	64.9034
3900	64.7001
3896	64.7972
3892	64.962
3888	65.0875
3884	65.0903
3880	65.0548
3876	65.2185
3872	65.3089
3868	65.2066
3864	65.2031
3860	65.3673
3856	65.459
3852	65.2527
3848	64.9776
3844	64.9961
3840	65.1822
3836	65.2015
3832	65.1252
3828	65.1114
3824	64.992
3820	64.8579
3816	65.0637
3812	65.4006
3808	65.4279
3804	65.283
3800	65.3077
3796	65.4321
3792	65.4255
3788	65.2861
3784	65.185
3780	65.2436
3776	65.2856
3772	65.1841
3768	65.1443
3764	65.1741
3760	65.1056
3756	65.0274
3752	65.0226
3748	65.0521
3744	65.1219
3740	65.158
3736	65.161
3732	65.1931
3728	65.1767
3724	65.1629
3720	65.1522
3716	65.0603
3712	65.0245
3708	65.0169
3704	64.9579
3700	64.987
3696	65.078
3692	65.1513
3688	65.2385
3684	65.2275
3680	65.1086
3676	65.0944
3672	65.1874
3668	65.1582
3664	65.021
3660	64.9596
3656	64.99
3652	65.0349
3648	65.0099
3644	64.9687
3640	65.063
3636	65.2185
3632	65.1847
3628	65.0199
3624	64.9732
3620	65.0063
3616	65.0879
3612	65.2177
3608	65.2376
3604	65.1221
3600	65.0619
3596	65.0972
3592	65.0703
3588	65.0123
3584	65.0095
3580	65.1066
3576	65.2209
3572	65.2151
3568	65.1384
3564	65.1217
3560	65.201
3556	65.1922
3552	65.1317
3548	65.1568
3544	65.1475
3540	65.1008
3536	65.0675
3532	65.0036
3528	65.0063
3524	65.0999
3520	65.11
3516	65.051
3512	65.1027
3508	65.2151
3504	65.2193
3500	65.13
3496	65.0154
3492	64.9507
3488	65.0017
3484	65.0861
3480	65.108
3476	65.1173
3472	65.2039
3468	65.3599
3464	65.3969
3460	65.3482
3456	65.3611
3452	65.2567
3448	65.0678
3444	65.0361
3440	65.0829
3436	65.0646
3432	65.0117
3428	65.0221
3424	65.1056
3420	65.1002
3416	65.0522
3412	65.1168
3408	65.1655
3404	65.1159
3400	65.1232
3396	65.2367
3392	65.3126
3388	65.2811
3384	65.2004
3380	65.2079
3376	65.2532
3372	65.2177
3368	65.2525
3364	65.3654
3360	65.3198
3356	65.1032
3352	64.9702
3348	65.0304
3344	65.1591
3340	65.228
3336	65.1929
3332	65.1134
3328	65.0772
3324	65.1524
3320	65.2898
3316	65.3452
3312	65.2964
3308	65.2369
3304	65.1832
3300	65.0952
3296	65.062
3292	65.0896
3288	65.0603
3284	65.0057
3280	64.9969
3276	65.0272
3272	65.1446
3268	65.2631
3264	65.2764
3260	65.3329
3256	65.3424
3252	65.1786
3248	65.0799
3244	65.0891
3240	65.0421
3236	65.0316
3232	65.178
3228	65.2374
3224	65.0311
3220	64.9328
3216	65.0634
3212	65.1448
3208	65.1787
3204	65.132
3200	65.0671
3196	65.0631
3192	65.0117
3188	64.9864
3184	65.037
3180	65.1633
3176	65.2632
3172	65.2951
3168	65.3391
3164	65.2997
3160	65.2159
3156	65.1995
3152	65.1308
3148	64.9803
3144	64.9198
3140	65.0284
3136	65.2378
3132	65.3665
3128	65.28
3124	65.0333
3120	64.8649
3116	64.8852
3112	64.9302
3108	65.0019
3104	65.0879
3100	65.087
3096	65.1262
3092	65.2642
3088	65.288
3084	65.1138
3080	64.9894
3076	65.0434
3072	65.162
3068	65.2614
3064	65.308
3060	65.2402
3056	65.1421
3052	65.1465
3048	65.1685
3044	65.1157
3040	65.0882
3036	65.1969
3032	65.2825
3028	65.2848
3024	65.2981
3020	65.2794
3016	65.2398
3012	65.2171
3008	65.1784
3004	65.1017
3000	65.1353
2996	65.2688
2992	65.2964
2988	65.2614
2984	65.2237
2980	65.1779
2976	65.222
2972	65.3639
2968	65.4226
2964	65.2821
2960	65.1452
2956	65.1523
2952	65.186
2948	65.1863
2944	65.1896
2940	65.1861
2936	65.1019
2932	64.9616
2928	64.8642
2924	64.8324
2920	64.8233
2916	64.8822
2912	65.0473
2908	65.1857
2904	65.1665
2900	65.066
2896	65.0852
2892	65.2168
2888	65.2744
2884	65.2342
2880	65.1541
2876	65.0691
2872	65.0526
2868	65.1
2864	65.1064
2860	65.0403
2856	65.0232
2852	65.0858
2848	65.1085
2844	65.1024
2840	65.1185
2836	65.1033
2832	65.0411
2828	64.9778
2824	65.03
2820	65.2164
2816	65.3023
2812	65.2444
2808	65.2225
2804	65.2427
2800	65.2607
2796	65.2555
2792	65.2073
2788	65.1384
2784	65.0849
2780	65.1094
2776	65.1642
2772	65.1309
2768	65.1033
2764	65.1428
2760	65.1232
2756	65.0588
2752	65.0573
2748	65.1116
2744	65.1634
2740	65.2044
2736	65.2
2732	65.1113
2728	65.0392
2724	65.079
2720	65.1116
2716	65.072
2712	65.1125
2708	65.1938
2704	65.1642
2700	65.0938
2696	65.0602
2692	65.0303
2688	65.0216
2684	65.0762
2680	65.1592
2676	65.2305
2672	65.2557
2668	65.2433
2664	65.2904
2660	65.3713
2656	65.377
2652	65.346
2648	65.3061
2644	65.2363
2640	65.2015
2636	65.2211
2632	65.2553
2628	65.2552
2624	65.2241
2620	65.2151
2616	65.255
2612	65.3663
2608	65.4496
2604	65.3904
2600	65.2831
2596	65.2596
2592	65.2565
2588	65.2376
2584	65.2399
2580	65.2472
2576	65.2634
2572	65.271
2568	65.253
2564	65.2285
2560	65.2602
2556	65.3524
2552	65.385
2548	65.3397
2544	65.3293
2540	65.3097
2536	65.2225
2532	65.1349
2528	65.0352
2524	65.0142
2520	65.1974
2516	65.3694
2512	65.4053
2508	65.3806
2504	65.1826
2500	64.9546
2496	65.0067
2492	65.185
2488	65.268
2484	65.3037
2480	65.307
2476	65.2704
2472	65.2431
2468	65.2086
2464	65.1574
2460	65.1605
2456	65.2426
2452	65.309
2448	65.3008
2444	65.3017
2440	65.3123
2436	65.2793
2432	65.2976
2428	65.3887
2424	65.4475
2420	65.3413
2416	65.1172
2412	65.1005
2408	65.2555
2404	65.328
2400	65.3316
2396	65.3126
2392	65.273
2388	65.2189
2384	65.1865
2380	65.1628
2376	65.1317
2372	65.1178
2368	65.1157
2364	65.1425
2360	65.1778
2356	65.1887
2352	65.176
2348	65.135
2344	65.1299
2340	65.1677
2336	65.203
2332	65.2635
2328	65.2924
2324	65.2253
2320	65.1161
2316	65.0405
2312	65.0472
2308	65.1591
2304	65.2694
2300	65.2668
2296	65.2083
2292	65.1777
2288	65.2066
2284	65.2299
2280	65.1915
2276	65.1525
2272	65.1373
2268	65.139
2264	65.1939
2260	65.2835
2256	65.3371
2252	65.3536
2248	65.3878
2244	65.3867
2240	65.3235
2236	65.274
2232	65.2694
2228	65.3182
2224	65.345
2220	65.3312
2216	65.3316
2212	65.2656
2208	65.133
2204	65.1076
2200	65.2244
2196	65.3609
2192	65.4118
2188	65.3483
2184	65.2789
2180	65.298
2176	65.3166
2172	65.2506
2168	65.2084
2164	65.3391
2160	65.4507
2156	65.335
2152	65.2775
2148	65.2854
2144	65.1375
2140	65.1331
2136	65.286
2132	65.3125
2128	65.3128
2124	65.3536
2120	65.396
2116	65.4367
2112	65.4171
2108	65.3508
2104	65.307
2100	65.3121
2096	65.3255
2092	65.3403
2088	65.4134
2084	65.4863
2080	65.4846
2076	65.4256
2072	65.296
2068	65.1913
2064	65.2194
2060	65.2699
2056	65.2576
2052	65.2211
2048	65.1865
2044	65.1553
2040	65.1633
2036	65.257
2032	65.3617
2028	65.3452
2024	65.2303
2020	65.1111
2016	65.0654
2012	65.1516
2008	65.2546
2004	65.2968
2000	65.2451
1996	65.1659
1992	65.2452
1988	65.3648
1984	65.3632
1980	65.303
1976	65.277
1972	65.2986
1968	65.3004
1964	65.2949
1960	65.3255
1956	65.3611
1952	65.3401
1948	65.2702
1944	65.2415
1940	65.2742
1936	65.3069
1932	65.3228
1928	65.2981
1924	65.2701
1920	65.3101
1916	65.3253
1912	65.2975
1908	65.291
1904	65.2638
1900	65.2291
1896	65.2423
1892	65.2879
1888	65.292
1884	65.2688
1880	65.2759
1876	65.2554
1872	65.2201
1868	65.2175
1864	65.201
1860	65.1384
1856	65.0825
1852	65.1381
1848	65.2536
1844	65.2798
1840	65.2446
1836	65.2699
1832	65.3426
1828	65.321
1824	65.23
1820	65.2185
1816	65.1949
1812	65.122
1808	65.1441
1804	65.2172
1800	65.217
1796	65.1914
1792	65.2254
1788	65.2358
1784	65.1822
1780	65.171
1776	65.212
1772	65.2328
1768	65.2261
1764	65.2032
1760	65.1616
1756	65.1349
1752	65.1163
1748	65.1143
1744	65.1458
1740	65.1238
1736	65.0686
1732	65.095
1728	65.0882
1724	64.9858
1720	64.8867
1716	64.8247
1712	64.8763
1708	65.0459
1704	65.2214
1700	65.2889
1696	65.2336
1692	65.1429
1688	65.0675
1684	65.0775
1680	65.1494
1676	65.1991
1672	65.246
1668	65.2714
1664	65.242
1660	65.1985
1656	65.1983
1652	65.1987
1648	65.1752
1644	65.1809
1640	65.1605
1636	65.0925
1632	65.0985
1628	65.1733
1624	65.2244
1620	65.2458
1616	65.1885
1612	65.096
1608	65.0978
1604	65.0891
1600	65.0375
1596	65.0401
1592	65.0737
1588	65.1244
1584	65.1387
1580	65.1242
1576	65.1418
1572	65.1803
1568	65.163
1564	65.0316
1560	64.9447
1556	64.9986
1552	65.0416
1548	65.0428
1544	65.1108
1540	65.1611
1536	65.0837
1532	65.0223
1528	65.0165
1524	65.0291
1520	65.0651
1516	65.0359
1512	65.0364
1508	65.0889
1504	65.0915
1500	65.1565
1496	65.2424
1492	65.1942
1488	65.1352
1484	65.1383
1480	65.1334
1476	65.0328
1472	64.9101
1468	64.9051
1464	64.9348
1460	64.8895
1456	64.7979
1452	64.8377
1448	65.0119
1444	65.1069
1440	65.1307
1436	65.0812
1432	64.9324
1428	64.8854
1424	64.9274
1420	64.9223
1416	64.9758
1412	65.068
1408	65.0833
1404	65.1083
1400	65.0985
1396	64.9705
1392	64.8919
1388	64.9571
1384	65.0635
1380	65.0808
1376	65.0389
1372	65.0363
1368	65.0582
1364	65.0269
1360	64.9872
1356	64.9991
1352	64.9716
1348	64.87
1344	64.8086
1340	64.8293
1336	64.8557
1332	64.8982
1328	64.9396
1324	64.9431
1320	64.9548
1316	64.9894
1312	65.0354
1308	65.0104
1304	64.9229
1300	64.8965
1296	64.9509
1292	65.008
1288	65.0317
1284	65.0303
1280	64.9714
1276	64.9077
1272	64.8973
1268	64.9206
1264	64.9151
1260	64.8755
1256	64.878
1252	64.9003
1248	64.9116
1244	64.9185
1240	64.9253
1236	64.9464
1232	64.9264
1228	64.8887
1224	64.9041
1220	64.9306
1216	64.9316
1212	64.8931
1208	64.9098
1204	64.9618
1200	64.9062
1196	64.8506
1192	64.9166
1188	64.9629
1184	64.8888
1180	64.8131
1176	64.7437
1172	64.7282
1168	64.7859
1164	64.832
1160	64.9082
1156	64.9614
1152	64.9051
1148	64.8682
1144	64.9109
1140	64.9202
1136	64.7591
1132	64.5864
1128	64.6314
1124	64.6864
1120	64.7115
1116	64.6562
1112	64.4718
1108	64.4886
1104	64.5378
1100	64.4502
1096	64.5146
1092	64.8134
1088	65.1485
1084	65.1606
1080	64.8412
1076	64.6767
1072	64.719
1068	64.6488
1064	64.6406
1060	64.7663
1056	64.7339
1052	64.7094
1048	64.688
1044	64.5405
1040	64.561
1036	64.6012
1032	64.586
1028	64.6231
1024	64.6624
1020	64.6677
1016	64.621
1012	64.8198
1008	64.9993
1004	64.8827
1000	64.8817
996	 64.8119
992	 64.6667
988	 64.7118
984	 64.6469
980	 64.5357
976	 64.5968
972	 64.5874
968	 64.4726
964	 64.4902
960	 64.5569
956	 64.5924
952	 64.6397
948	 64.6077
944	 64.5051
940	 64.3601
936	 64.2362
932	 64.3127
928	 64.4788
924	 64.538
920	 64.6045
916	 64.5907
912	 64.3916
908	 64.3488
904	 64.4302
900	 64.443
896	 64.4727
892	 64.4714
888	 64.467
884	 64.4299
880	 64.1568
876	 63.8337
872	 63.8717
868	 64.118
864	 64.2365
860	 64.2304
856	 64.2061
852	 64.2211
848	 64.2081
844	 64.2443
840	 64.4102
836	 64.3666
832	 64.0978
828	 64.0614
824	 64.2322
820	 64.2423
816	 64.2205
812	 64.2827
808	 64.2014
804	 64.0443
800	 64.0245
796	 64.1277
792	 64.0873
788	 63.8697
784	 63.7774
780	 63.9121
776	 64.0455
772	 63.9939
768	 63.8851
764	 63.771
760	 63.5686
756	 63.3022
752	 63.2956
748	 63.485
744	 63.3454
740	 63.2672
736	 63.6013
732	 63.7403
728	 63.4943
724	 63.1688
720	 63.0495
716	 63.1942
712	 63.2624
708	 63.3106
704	 63.4423
700	 63.3017
696	 63.1158
692	 63.2221
688	 63.2149
684	 62.9129
680	 62.6793
676	 62.7723
672	 62.9152
668	 62.7309
664	 62.5849
660	 62.7641
656	 62.8605
652	 62.7443
648	 62.5351
644	 62.3907
640	 62.4255
636	 62.2771
632	 62.0765
628	 62.1706
624	 62.2838
620	 62.3148
616	 62.349
612	 62.3604
608	 62.2465
604	 61.9056
600	 61.6026
596	 61.504
592	 61.5123
588	 61.6556
584	 61.7007
580	 61.556
576	 61.3355
572	 60.9516
568	 60.7899
564	 60.9925
560	 60.9249
556	 60.6623
552	 60.5564
548	 60.5028
544	 60.5342
540	 60.751
536	 61.0653
532	 61.0301
528	 60.8068
524	 60.7168
520	 60.0875
516	 59.4457
512	 59.7605
508	 60.2435
504	 60.577
500	 60.9983
496	 60.8168
492	 60.2069
488	 59.7194
484	 59.1682
480	 58.5069
476	 57.8825
472	 57.7035
468	 57.9423
464	 58.2189
460	 58.3453
456	 58.2473
452	 57.7824
448	 56.8276
444	 56.1867
440	 56.2517
436	 56.7558
432	 57.1114
428	 56.5306
424	 55.0304
420	 54.3487
416	 55.2636
412	 55.439
408	 58.4081
404	 62.7628
400	 60.7975
396	 61.441
392	 62.8581
388	 66.1878
384	 82.6151
380	 77.3273
376	 37.1161
372	 19.0707
370	 26.4903