File: Bakgrunnsmateriale/MATLAB/FTIR/ftir_data/subBb/Mapping_121/C-4040-8_t19_cm-1.asc
PE IR       SPECTRUM    SPECTRUM    ASCII       PEDS        1.60
  -1
C-1AE0~1.ASC
17/03/27
15:59:14.00
17/03/27
15:59:14.00
tln
$C-4040-8_t0019$<tbV0>[-5.2,-10.4,8.0,0.0,27,1,0]
370
64

2002,4.07
MIRTGS : RIGHTBACK : INTERNAL 2
MIR : ON : INTERNAL 2
OPTKBR

0.200000
8
8.000000
FILLER
RATIO
SPECTRUM
UNLOCKED 256

DOUBLE
64
COMBINED
1
0
0

1.000000
RATIO

1
0
TRUE
51149
0
LEFT NOT FITTED RIGHT NOT FITTED 0
NONE
NONE
15600
12
4.427000
51148
TRUE
1 0 8 72 0 0 0 0

15798

#HDR
-1
-1
#GR
CM-1
%T
2.38419e-05
0.0
5000
-1.000000
4631
8
72.2309
31.0127
#DATA
5000	63.67
4996	63.3233
4992	63.7262
4988	64.5293
4984	64.6118
4980	64.251
4976	63.8451
4972	63.8018
4968	64.2601
4964	63.8781
4960	63.0961
4956	63.1198
4952	63.3575
4948	63.2388
4944	62.5065
4940	62.2438
4936	63.3703
4932	64.3685
4928	63.9915
4924	63.474
4920	63.8197
4916	64.2765
4912	64.5185
4908	64.7205
4904	64.8313
4900	64.5933
4896	64.1924
4892	64.3033
4888	64.491
4884	64.4883
4880	64.7074
4876	64.6278
4872	64.0342
4868	63.7416
4864	64.017
4860	64.2515
4856	64.2205
4852	64.1742
4848	64.2584
4844	64.345
4840	64.295
4836	64.3517
4832	64.5272
4828	64.5145
4824	64.2065
4820	63.7951
4816	63.5986
4812	63.6649
4808	63.7827
4804	63.7867
4800	63.6821
4796	63.6238
4792	63.849
4788	64.2732
4784	64.4435
4780	64.3512
4776	64.3311
4772	64.3267
4768	64.2526
4764	64.221
4760	64.1912
4756	64.1974
4752	64.2011
4748	64.0862
4744	63.9968
4740	63.964
4736	63.8915
4732	63.7924
4728	63.7435
4724	63.8522
4720	64.1041
4716	64.2832
4712	64.2405
4708	64.0643
4704	64.0109
4700	64.242
4696	64.4268
4692	64.362
4688	64.381
4684	64.4276
4680	64.3157
4676	64.1928
4672	63.9684
4668	63.7774
4664	63.9164
4660	64.2106
4656	64.3521
4652	64.2826
4648	64.1963
4644	64.2729
4640	64.3739
4636	64.2174
4632	64.0748
4628	64.1984
4624	64.2492
4620	64.1731
4616	64.1068
4612	64.1795
4608	64.5058
4604	64.6519
4600	64.505
4596	64.3965
4592	64.2362
4588	64.0784
4584	63.988
4580	64.0142
4576	64.1119
4572	64.0788
4568	64.1082
4564	64.1153
4560	64.0128
4556	63.8348
4552	63.466
4548	63.3411
4544	63.5284
4540	63.708
4536	63.9703
4532	63.9856
4528	63.6915
4524	63.6327
4520	63.8697
4516	64.0684
4512	64.107
4508	64.1284
4504	64.2023
4500	64.1808
4496	63.9623
4492	63.5094
4488	63.3038
4484	63.4687
4480	63.903
4476	64.2913
4472	64.4088
4468	64.6317
4464	64.7488
4460	64.9122
4456	65.5646
4452	67.9382
4448	70.4759
4444	70.0165
4440	66.871
4436	63.0639
4432	61.7293
4428	62.4563
4424	62.7014
4420	62.8943
4416	63.0196
4412	62.6491
4408	62.7458
4404	62.8672
4400	62.1726
4396	61.1601
4392	60.0968
4388	59.7084
4384	64.7597
4380	70.738
4376	71.2441
4372	72.0195
4368	71.1969
4364	67.1529
4360	65.1318
4356	64.7907
4352	64.5903
4348	64.3583
4344	63.9336
4340	63.4274
4336	63.1424
4332	63.0265
4328	63.1669
4324	63.6691
4320	64.0443
4316	64.0351
4312	63.9215
4308	63.8623
4304	63.6846
4300	63.4235
4296	63.4612
4292	63.7624
4288	63.8486
4284	63.7224
4280	63.6208
4276	63.5416
4272	63.5292
4268	63.5821
4264	63.6272
4260	63.6249
4256	63.5168
4252	63.4404
4248	63.4463
4244	63.4754
4240	63.558
4236	63.566
4232	63.5962
4228	63.786
4224	63.9755
4220	63.9502
4216	63.7035
4212	63.6082
4208	63.7274
4204	63.7524
4200	63.7266
4196	63.7267
4192	63.522
4188	63.3595
4184	63.4297
4180	63.5373
4176	63.6937
4172	63.7873
4168	63.8864
4164	64.0249
4160	64.0164
4156	63.8062
4152	63.5948
4148	63.5595
4144	63.5692
4140	63.6698
4136	63.8659
4132	64.0269
4128	64.1172
4124	64.1208
4120	64.0873
4116	64.0131
4112	63.8271
4108	63.6055
4104	63.5443
4100	63.6004
4096	63.6531
4092	63.8335
4088	64.0523
4084	64.0483
4080	63.9691
4076	63.8971
4072	63.7614
4068	63.7623
4064	63.9391
4060	64.0884
4056	64.092
4052	63.9476
4048	63.7528
4044	63.7254
4040	63.9018
4036	64.0046
4032	63.9778
4028	63.984
4024	64.016
4020	64.0228
4016	64.025
4012	64.0626
4008	64.174
4004	64.2689
4000	64.1817
3996	63.9564
3992	63.7812
3988	63.78
3984	63.7789
3980	63.6272
3976	63.5984
3972	63.6602
3968	63.6453
3964	63.6605
3960	63.7236
3956	63.9328
3952	64.1357
3948	64.0978
3944	63.9342
3940	63.7227
3936	63.611
3932	63.6684
3928	63.781
3924	63.8535
3920	63.7277
3916	63.6022
3912	63.7184
3908	63.835
3904	63.8916
3900	63.9528
3896	63.923
3892	63.8379
3888	63.7039
3884	63.5524
3880	63.5244
3876	63.7071
3872	63.9596
3868	64.0094
3864	63.945
3860	64.0084
3856	64.2122
3852	64.261
3848	64.0757
3844	63.9868
3840	64.0207
3836	64.0189
3832	63.8985
3828	63.7561
3824	63.7998
3820	63.9358
3816	63.9235
3812	63.9035
3808	64.0875
3804	64.2233
3800	64.0737
3796	63.7597
3792	63.5446
3788	63.5491
3784	63.5961
3780	63.5848
3776	63.6083
3772	63.6607
3768	63.7002
3764	63.7653
3760	63.7806
3756	63.8741
3752	64.1302
3748	64.2124
3744	64.0774
3740	64.0064
3736	64.0698
3732	64.0697
3728	63.9687
3724	63.8948
3720	63.8771
3716	63.9601
3712	64.0299
3708	63.8842
3704	63.6921
3700	63.6382
3696	63.6885
3692	63.7616
3688	63.6853
3684	63.5964
3680	63.7454
3676	63.9426
3672	63.9119
3668	63.7349
3664	63.621
3660	63.6046
3656	63.6366
3652	63.7597
3648	63.8051
3644	63.5962
3640	63.4301
3636	63.4683
3632	63.5915
3628	63.5952
3624	63.4746
3620	63.4133
3616	63.375
3612	63.3587
3608	63.278
3604	63.1886
3600	63.2949
3596	63.4066
3592	63.434
3588	63.4696
3584	63.4278
3580	63.3602
3576	63.3334
3572	63.2759
3568	63.2033
3564	63.1751
3560	63.2163
3556	63.2334
3552	63.2493
3548	63.327
3544	63.3706
3540	63.3298
3536	63.1877
3532	63.0209
3528	63.0095
3524	63.1532
3520	63.1939
3516	63.0925
3512	63.0033
3508	63.0346
3504	63.1299
3500	63.0952
3496	62.9817
3492	62.9571
3488	62.9991
3484	63.0423
3480	63.0893
3476	63.0648
3472	63.0051
3468	63.1055
3464	63.2322
3460	63.1405
3456	62.9858
3452	62.9287
3448	62.9891
3444	63.1168
3440	63.0539
3436	62.8848
3432	62.87
3428	62.9176
3424	62.8877
3420	62.7954
3416	62.7742
3412	62.8124
3408	62.7559
3404	62.6832
3400	62.663
3396	62.6739
3392	62.7822
3388	62.9559
3384	63.0836
3380	63.0418
3376	62.9117
3372	62.8565
3368	62.8609
3364	62.8993
3360	62.8592
3356	62.7227
3352	62.6697
3348	62.692
3344	62.6385
3340	62.6031
3336	62.7123
3332	62.8
3328	62.7842
3324	62.8013
3320	62.8057
3316	62.7804
3312	62.7606
3308	62.6597
3304	62.519
3300	62.4373
3296	62.4859
3292	62.613
3288	62.6663
3284	62.6564
3280	62.6795
3276	62.7234
3272	62.6424
3268	62.4722
3264	62.3981
3260	62.3555
3256	62.2776
3252	62.3062
3248	62.3882
3244	62.3543
3240	62.3274
3236	62.4264
3232	62.4647
3228	62.4102
3224	62.506
3220	62.6787
3216	62.7198
3212	62.6796
3208	62.5742
3204	62.3842
3200	62.2801
3196	62.3173
3192	62.3842
3188	62.4087
3184	62.3968
3180	62.4675
3176	62.4825
3172	62.3158
3168	62.2078
3164	62.2409
3160	62.2794
3156	62.2561
3152	62.2513
3148	62.3297
3144	62.3225
3140	62.1675
3136	62.0473
3132	62.0188
3128	62.0828
3124	62.1845
3120	62.2026
3116	62.2313
3112	62.2577
3108	62.2226
3104	62.2501
3100	62.291
3096	62.2099
3092	62.1535
3088	62.2539
3084	62.2382
3080	62.1297
3076	62.169
3072	62.2197
3068	62.1687
3064	62.0955
3060	62.108
3056	62.1558
3052	62.1334
3048	62.0652
3044	62.0076
3040	61.9722
3036	61.9676
3032	61.9657
3028	61.9696
3024	62.0703
3020	62.1627
3016	62.1099
3012	61.992
3008	61.8795
3004	61.8561
3000	61.9267
2996	61.9348
2992	61.8701
2988	61.8176
2984	61.7739
2980	61.7208
2976	61.6844
2972	61.7199
2968	61.7738
2964	61.7646
2960	61.7082
2956	61.6428
2952	61.6093
2948	61.5937
2944	61.5946
2940	61.63
2936	61.5996
2932	61.4633
2928	61.3765
2924	61.3412
2920	61.2599
2916	61.2023
2912	61.1873
2908	61.1787
2904	61.1898
2900	61.2438
2896	61.3435
2892	61.4915
2888	61.6143
2884	61.608
2880	61.5098
2876	61.4323
2872	61.4582
2868	61.5333
2864	61.5268
2860	61.4226
2856	61.2908
2852	61.1692
2848	61.1587
2844	61.3115
2840	61.4337
2836	61.3973
2832	61.2903
2828	61.2486
2824	61.3294
2820	61.4259
2816	61.4387
2812	61.4002
2808	61.3307
2804	61.2393
2800	61.2047
2796	61.2135
2792	61.2108
2788	61.177
2784	61.1124
2780	61.0901
2776	61.1289
2772	61.1461
2768	61.1222
2764	61.0833
2760	61.0773
2756	61.0925
2752	61.0775
2748	61.0547
2744	61.0506
2740	61.0688
2736	61.0683
2732	61.0255
2728	60.9698
2724	60.9199
2720	60.8609
2716	60.8244
2712	60.8918
2708	60.9652
2704	60.9784
2700	61.0018
2696	60.9923
2692	60.9397
2688	60.8788
2684	60.8145
2680	60.7812
2676	60.802
2672	60.8126
2668	60.7676
2664	60.7102
2660	60.643
2656	60.6043
2652	60.6048
2648	60.6029
2644	60.6017
2640	60.5518
2636	60.5003
2632	60.5507
2628	60.6226
2624	60.6284
2620	60.5577
2616	60.4375
2612	60.3748
2608	60.4049
2604	60.4511
2600	60.4476
2596	60.4159
2592	60.3719
2588	60.3006
2584	60.2865
2580	60.3252
2576	60.3021
2572	60.2414
2568	60.2086
2564	60.1962
2560	60.2069
2556	60.2462
2552	60.2651
2548	60.2696
2544	60.2437
2540	60.1653
2536	60.1332
2532	60.1895
2528	60.248
2524	60.2204
2520	60.1025
2516	60.0336
2512	60.0458
2508	59.9976
2504	59.9174
2500	59.8883
2496	59.9097
2492	59.9101
2488	59.8374
2484	59.8069
2480	59.8621
2476	59.9074
2472	59.8909
2468	59.8248
2464	59.7494
2460	59.699
2456	59.6646
2452	59.6683
2448	59.7184
2444	59.7414
2440	59.7518
2436	59.7806
2432	59.8102
2428	59.8064
2424	59.7623
2420	59.7076
2416	59.5514
2412	59.3543
2408	59.2484
2404	59.196
2400	59.2423
2396	59.3942
2392	59.5064
2388	59.5101
2384	59.4872
2380	59.5089
2376	59.5377
2372	59.5349
2368	59.505
2364	59.4753
2360	59.4497
2356	59.3943
2352	59.3404
2348	59.3115
2344	59.3164
2340	59.3568
2336	59.3407
2332	59.2568
2328	59.1957
2324	59.2014
2320	59.2277
2316	59.1941
2312	59.1491
2308	59.1576
2304	59.1677
2300	59.1417
2296	59.0897
2292	59.0227
2288	58.9818
2284	58.9803
2280	58.9639
2276	58.9437
2272	58.9599
2268	59.018
2264	59.0504
2260	58.9965
2256	58.9102
2252	58.8216
2248	58.7465
2244	58.7268
2240	58.7266
2236	58.7058
2232	58.7023
2228	58.6926
2224	58.6482
2220	58.6577
2216	58.7241
2212	58.7694
2208	58.7958
2204	58.7502
2200	58.6497
2196	58.596
2192	58.5142
2188	58.4084
2184	58.397
2180	58.4354
2176	58.4591
2172	58.4895
2168	58.527
2164	58.546
2160	58.5096
2156	58.3445
2152	58.1074
2148	58.0278
2144	58.1098
2140	58.2323
2136	58.316
2132	58.2774
2128	58.2153
2124	58.1658
2120	58.1149
2116	58.1217
2112	58.1455
2108	58.1668
2104	58.152
2100	58.1083
2096	58.099
2092	58.0518
2088	57.9888
2084	57.9482
2080	57.8589
2076	57.7555
2072	57.7515
2068	57.8525
2064	57.9105
2060	57.8493
2056	57.778
2052	57.7864
2048	57.7856
2044	57.7135
2040	57.6727
2036	57.6673
2032	57.6653
2028	57.6816
2024	57.6481
2020	57.577
2016	57.5532
2012	57.5963
2008	57.6492
2004	57.6237
2000	57.5672
1996	57.5461
1992	57.4882
1988	57.4179
1984	57.3871
1980	57.3523
1976	57.3401
1972	57.3749
1968	57.4117
1964	57.3937
1960	57.3246
1956	57.2551
1952	57.2324
1948	57.244
1944	57.2207
1940	57.1877
1936	57.1525
1932	57.1174
1928	57.0926
1924	57.084
1920	57.1025
1916	57.081
1912	57.0525
1908	57.0237
1904	56.9639
1900	56.9222
1896	56.898
1892	56.8922
1888	56.8687
1884	56.7842
1880	56.6903
1876	56.6721
1872	56.7232
1868	56.7398
1864	56.7221
1860	56.7027
1856	56.6347
1852	56.5882
1848	56.6279
1844	56.6539
1840	56.5775
1836	56.4722
1832	56.4747
1828	56.5178
1824	56.4815
1820	56.4207
1816	56.3993
1812	56.3847
1808	56.3628
1804	56.368
1800	56.3737
1796	56.3529
1792	56.3132
1788	56.2758
1784	56.2388
1780	56.185
1776	56.1728
1772	56.1874
1768	56.1616
1764	56.1681
1760	56.2112
1756	56.1951
1752	56.1115
1748	56.0136
1744	55.9757
1740	56.0117
1736	56.0452
1732	55.9726
1728	55.8468
1724	55.8451
1720	55.9708
1716	55.9291
1712	55.7071
1708	55.7012
1704	55.932
1700	56.0881
1696	55.9845
1692	55.8221
1688	55.8735
1684	55.9204
1680	55.7741
1676	55.6544
1672	55.6081
1668	55.5514
1664	55.5277
1660	55.5803
1656	55.777
1652	55.9227
1648	55.7564
1644	55.503
1640	55.4501
1636	55.4548
1632	55.3093
1628	55.2023
1624	55.2512
1620	55.3327
1616	55.3238
1612	55.1594
1608	55.027
1604	55.0298
1600	54.9914
1596	54.8935
1592	54.8484
1588	54.8408
1584	54.8378
1580	54.8492
1576	54.8656
1572	54.8521
1568	54.8204
1564	54.9409
1560	55.1538
1556	55.0808
1552	54.8635
1548	54.8605
1544	55.0875
1540	55.1923
1536	54.912
1532	54.6195
1528	54.6034
1524	54.7317
1520	54.7584
1516	54.6837
1512	54.7353
1508	54.8326
1504	54.7698
1500	54.6449
1496	54.5399
1492	54.4467
1488	54.375
1484	54.2673
1480	54.2235
1476	54.2883
1472	54.3285
1468	54.2894
1464	54.2307
1460	54.2531
1456	54.2832
1452	54.1879
1448	54.0744
1444	54.0437
1440	54.071
1436	54.0538
1432	53.9006
1428	53.7436
1424	53.7798
1420	53.8822
1416	53.8385
1412	53.7501
1408	53.667
1404	53.6097
1400	53.6381
1396	53.6515
1392	53.6448
1388	53.6094
1384	53.4981
1380	53.4467
1376	53.5571
1372	53.6052
1368	53.4616
1364	53.3227
1360	53.235
1356	53.1521
1352	53.1527
1348	53.2108
1344	53.2024
1340	53.1611
1336	53.158
1332	53.1519
1328	53.1702
1324	53.2171
1320	53.1977
1316	53.0799
1312	52.926
1308	52.8624
1304	52.9117
1300	52.9643
1296	52.9334
1292	52.8399
1288	52.7781
1284	52.6973
1280	52.5525
1276	52.4898
1272	52.5765
1268	52.7029
1264	52.7074
1260	52.58
1256	52.4948
1252	52.4827
1248	52.4946
1244	52.511
1240	52.4384
1236	52.3705
1232	52.389
1228	52.3602
1224	52.3106
1220	52.2515
1216	52.1597
1212	52.1149
1208	52.1086
1204	52.1662
1200	52.2423
1196	52.1905
1192	52.0681
1188	52.0036
1184	51.9759
1180	51.9277
1176	51.9032
1172	51.9109
1168	51.8914
1164	51.831
1160	51.7587
1156	51.7155
1152	51.7181
1148	51.7897
1144	51.8407
1140	51.7973
1136	51.7254
1132	51.6702
1128	51.6468
1124	51.5928
1120	51.5329
1116	51.5389
1112	51.4614
1108	51.3038
1104	51.2794
1100	51.2937
1096	51.1581
1092	51.072
1088	51.1763
1084	51.2656
1080	51.2568
1076	51.2385
1072	51.1952
1068	51.1515
1064	51.2278
1060	51.3046
1056	51.2905
1052	51.3661
1048	51.4781
1044	51.4142
1040	51.2219
1036	50.9999
1032	50.8609
1028	50.9181
1024	51.015
1020	51.0233
1016	50.9411
1012	50.7618
1008	50.5932
1004	50.5665
1000	50.7426
996	 50.9208
992	 51.0297
988	 50.9934
984	 50.6757
980	 50.4711
976	 50.4949
972	 50.4699
968	 50.3687
964	 50.2516
960	 50.2786
956	 50.3316
952	 50.1538
948	 49.9758
944	 49.9055
940	 49.9786
936	 50.0808
932	 49.9959
928	 49.9803
924	 49.9071
920	 49.6642
916	 49.5617
912	 49.5466
908	 49.5513
904	 49.5876
900	 49.6123
896	 49.6527
892	 49.6973
888	 49.6665
884	 49.5072
880	 49.4055
876	 49.5262
872	 49.6118
868	 49.5298
864	 49.443
860	 49.3912
856	 49.4142
852	 49.4611
848	 49.3897
844	 49.3599
840	 49.3573
836	 49.1842
832	 49.0302
828	 48.9681
824	 48.8629
820	 48.7776
816	 48.7832
812	 48.8788
808	 48.9956
804	 48.9588
800	 48.8539
796	 48.85
792	 48.8062
788	 48.7361
784	 48.6952
780	 48.6185
776	 48.5816
772	 48.5271
768	 48.3931
764	 48.3879
760	 48.5461
756	 48.5725
752	 48.4027
748	 48.2427
744	 47.9942
740	 47.6727
736	 47.6712
732	 47.9111
728	 47.9366
724	 47.691
720	 47.4743
716	 47.4244
712	 47.3901
708	 47.2324
704	 47.1159
700	 47.175
696	 47.2356
692	 47.1814
688	 47.0995
684	 46.9815
680	 46.86
676	 46.798
672	 46.7067
668	 46.7085
664	 46.8007
660	 46.692
656	 46.5018
652	 46.6048
648	 46.7792
644	 46.6221
640	 46.4035
636	 46.4227
632	 46.4576
628	 46.3289
624	 46.0376
620	 45.7192
616	 45.6237
612	 45.6161
608	 45.4575
604	 45.1806
600	 44.9798
596	 44.9379
592	 44.9587
588	 45.0707
584	 45.3214
580	 45.6017
576	 45.5933
572	 45.2008
568	 44.7496
564	 44.6502
560	 44.7882
556	 44.6123
552	 44.2554
548	 44.086
544	 44.0875
540	 44.1695
536	 44.0129
532	 43.7693
528	 43.6942
524	 43.1667
520	 42.3577
516	 42.3221
512	 42.8469
508	 42.8104
504	 42.5009
500	 43.1
496	 43.7646
492	 43.4626
488	 43.1403
484	 43.3948
480	 43.8462
476	 43.9754
472	 43.2186
468	 42.1188
464	 41.5955
460	 41.1504
456	 40.5442
452	 40.4705
448	 41.4146
444	 42.5048
440	 42.0437
436	 41.2238
432	 41.5323
428	 41.6738
424	 41.2044
420	 40.916
416	 41.4707
412	 40.7934
408	 37.7986
404	 38.4725
400	 40.3475
396	 35.8161
392	 31.2727
388	 34.7911
384	 55.0096
380	 63.1461
376	 45.9051
372	 34.0539
370	 31.8635