File: Bakgrunnsmateriale/MATLAB/FTIR/ftir_data/subBb/Mapping_121/C-4040-8_t79_cm-1.asc
PE IR       SPECTRUM    SPECTRUM    ASCII       PEDS        1.60
  -1
C-1DE0~1.ASC
17/03/27
20:58:48.00
17/03/27
20:58:48.00
tln
$C-4040-8_t0079$<tbV0>[10.4,5.2,8.0,0.0,27,1,0]
370
64

2002,4.07
MIRTGS : RIGHTBACK : INTERNAL 2
MIR : ON : INTERNAL 2
OPTKBR

0.200000
8
8.000000
FILLER
RATIO
SPECTRUM
UNLOCKED 256

DOUBLE
64
COMBINED
1
0
0

1.000000
RATIO

1
0
TRUE
51149
0
LEFT NOT FITTED RIGHT NOT FITTED 0
NONE
NONE
15600
12
4.427000
51148
TRUE
1 0 8 72 0 0 0 0

15798

#HDR
-1
-1
#GR
CM-1
%T
2.38419e-05
0.0
5000
-1.000000
4631
8
101.737
43.0727
#DATA
5000	65.1883
4996	65.0355
4992	65.1726
4988	65.292
4984	65.2277
4980	65.106
4976	65.0374
4972	64.8175
4968	64.3059
4964	64.2623
4960	64.9338
4956	65.4177
4952	65.3604
4948	65.0054
4944	64.7051
4940	64.7782
4936	64.8751
4932	64.7398
4928	64.6337
4924	64.6916
4920	64.7969
4916	64.7915
4912	64.7264
4908	64.566
4904	64.3157
4900	64.1833
4896	64.2056
4892	64.312
4888	64.2523
4884	64.1227
4880	64.2019
4876	64.5753
4872	65.0737
4868	65.1726
4864	64.9555
4860	64.7163
4856	64.5727
4852	64.5709
4848	64.5938
4844	64.7402
4840	65.1183
4836	65.348
4832	65.1249
4828	64.9015
4824	65.0026
4820	65.1019
4816	64.9381
4812	64.7885
4808	64.9042
4804	64.9785
4800	64.8907
4796	64.8659
4792	64.8084
4788	64.667
4784	64.6557
4780	64.8415
4776	64.9804
4772	65.0149
4768	65.1541
4764	65.3454
4760	65.5016
4756	65.4926
4752	65.3782
4748	65.4246
4744	65.4767
4740	65.2998
4736	65.105
4732	65.2114
4728	65.3961
4724	65.3745
4720	65.3184
4716	65.2106
4712	65.0284
4708	64.9643
4704	64.9455
4700	64.8724
4696	64.9306
4692	65.1115
4688	65.2801
4684	65.4508
4680	65.4683
4676	65.3903
4672	65.3466
4668	65.243
4664	65.1703
4660	65.2376
4656	65.2911
4652	65.2225
4648	65.2265
4644	65.3361
4640	65.4205
4636	65.4317
4632	65.3923
4628	65.355
4624	65.2422
4620	65.0834
4616	65.065
4612	65.1499
4608	65.1349
4604	65.0085
4600	64.7768
4596	64.6441
4592	64.8416
4588	65.0044
4584	65.0077
4580	65.2036
4576	65.367
4572	65.1426
4568	64.859
4564	64.7771
4560	64.8426
4556	64.8813
4552	64.8324
4548	64.7162
4544	64.3667
4540	64.1061
4536	64.2935
4532	64.786
4528	65.3011
4524	65.5307
4520	65.4274
4516	65.1976
4512	64.9309
4508	64.6634
4504	64.4975
4500	64.4374
4496	64.5139
4492	64.6993
4488	64.6644
4484	64.3588
4480	64.0973
4476	63.9895
4472	64.0513
4468	64.2034
4464	64.1472
4460	64.0332
4456	64.1866
4452	64.3619
4448	64.1959
4444	63.9312
4440	63.9069
4436	63.8837
4432	63.7169
4428	63.6813
4424	64.0229
4420	64.4603
4416	64.4572
4412	64.2699
4408	63.7288
4404	62.721
4400	61.6046
4396	60.1853
4392	58.6364
4388	60.9991
4384	82.9365
4380	91.2913
4376	72.4765
4372	65.6247
4368	65.3764
4364	65.4379
4360	64.7623
4356	64.4799
4352	64.5724
4348	64.7149
4344	65.1712
4340	65.2386
4336	64.7281
4332	64.384
4328	64.466
4324	64.7052
4320	64.9272
4316	65.0764
4312	65.1847
4308	65.0293
4304	64.7201
4300	64.7206
4296	64.8673
4292	64.7974
4288	64.5813
4284	64.4564
4280	64.6827
4276	65.1005
4272	65.1915
4268	64.846
4264	64.6415
4260	64.7014
4256	64.6278
4252	64.5424
4248	64.5907
4244	64.7205
4240	64.8029
4236	64.826
4232	64.8375
4228	64.7711
4224	64.8225
4220	64.9278
4216	64.8638
4212	64.8181
4208	64.8496
4204	64.8258
4200	64.6814
4196	64.6573
4192	65.0175
4188	65.564
4184	65.7227
4180	65.4338
4176	65.2839
4172	65.2847
4168	65.0721
4164	64.7605
4160	64.7392
4156	64.8301
4152	64.8794
4148	64.9883
4144	65.0763
4140	65.2454
4136	65.283
4132	65.0921
4128	64.9606
4124	64.9399
4120	64.9668
4116	64.989
4112	64.9553
4108	64.9145
4104	64.9329
4100	64.8627
4096	64.797
4092	64.9415
4088	65.1578
4084	65.2152
4080	65.0664
4076	64.9264
4072	64.9429
4068	65.0769
4064	65.1747
4060	65.2132
4056	65.2488
4052	65.1041
4048	64.7962
4044	64.8248
4040	65.1365
4036	65.2296
4032	65.2049
4028	65.2501
4024	65.2764
4020	65.2942
4016	65.4566
4012	65.5716
4008	65.4253
4004	65.2072
4000	65.0583
3996	64.9993
3992	65.0136
3988	65.0385
3984	65.0423
3980	65.0178
3976	64.9667
3972	64.9275
3968	64.9548
3964	65.0311
3960	65.0825
3956	65.0129
3952	64.8718
3948	64.8438
3944	64.9276
3940	65.05
3936	65.129
3932	65.143
3928	65.1715
3924	65.1863
3920	65.2077
3916	65.187
3912	65.1049
3908	65.1549
3904	65.2921
3900	65.2792
3896	65.107
3892	65.0964
3888	65.243
3884	65.1813
3880	64.9761
3876	64.8998
3872	65.0683
3868	65.3328
3864	65.4048
3860	65.17
3856	64.8568
3852	64.7488
3848	64.849
3844	65.0634
3840	65.0804
3836	64.8555
3832	64.7621
3828	64.7646
3824	64.8448
3820	65.1498
3816	65.2683
3812	65.0709
3808	64.9831
3804	65.0165
3800	65.069
3796	65.13
3792	65.1158
3788	65.0581
3784	65.0144
3780	64.9819
3776	65.0436
3772	65.2208
3768	65.272
3764	65.157
3760	65.0564
3756	65.0438
3752	65.0803
3748	65.1049
3744	65.1853
3740	65.3115
3736	65.2764
3732	65.1285
3728	65.0949
3724	65.1634
3720	65.223
3716	65.2312
3712	65.2187
3708	65.1489
3704	65.0286
3700	64.9418
3696	64.9172
3692	65.0163
3688	65.1568
3684	65.1874
3680	65.1327
3676	65.1088
3672	65.1489
3668	65.1676
3664	65.1698
3660	65.1839
3656	65.2218
3652	65.3258
3648	65.4337
3644	65.481
3640	65.4246
3636	65.3211
3632	65.2586
3628	65.2198
3624	65.2297
3620	65.2036
3616	65.1066
3612	65.0567
3608	65.0389
3604	65.0622
3600	65.1599
3596	65.2601
3592	65.3023
3588	65.2609
3584	65.2052
3580	65.243
3576	65.3261
3572	65.2689
3568	65.0616
3564	64.9446
3560	64.9882
3556	65.1093
3552	65.2535
3548	65.3081
3544	65.2673
3540	65.2256
3536	65.2324
3532	65.2508
3528	65.2255
3524	65.1282
3520	65.0678
3516	65.1452
3512	65.1668
3508	65.1765
3504	65.3066
3500	65.336
3496	65.2944
3492	65.315
3488	65.2534
3484	65.1312
3480	65.2071
3476	65.4438
3472	65.5899
3468	65.6406
3464	65.5751
3460	65.4557
3456	65.3765
3452	65.314
3448	65.3459
3444	65.4039
3440	65.3578
3436	65.2203
3432	65.0294
3428	64.8798
3424	64.8851
3420	65.0027
3416	65.1657
3412	65.2761
3408	65.1886
3404	65.0706
3400	65.1178
3396	65.1658
3392	65.2408
3388	65.3445
3384	65.2206
3380	65.0205
3376	65.0139
3372	65.1362
3368	65.2426
3364	65.3075
3360	65.2761
3356	65.1156
3352	64.9277
3348	64.8352
3344	64.891
3340	65.0189
3336	65.1244
3332	65.1555
3328	65.1212
3324	65.1412
3320	65.2384
3316	65.2555
3312	65.1767
3308	65.1019
3304	65.1223
3300	65.2377
3296	65.2763
3292	65.1918
3288	65.1385
3284	65.187
3280	65.2623
3276	65.3105
3272	65.3334
3268	65.333
3264	65.2709
3260	65.1922
3256	65.1762
3252	65.1653
3248	65.1295
3244	65.0949
3240	65.098
3236	65.164
3232	65.1722
3228	65.0676
3224	64.9487
3220	64.9135
3216	64.9628
3212	65.0182
3208	65.045
3204	65.0419
3200	65.0557
3196	65.0509
3192	65.025
3188	65.0765
3184	65.1623
3180	65.1648
3176	65.1062
3172	65.1093
3168	65.1118
3164	65.0189
3160	65.0038
3156	65.1369
3152	65.2378
3148	65.3136
3144	65.4234
3140	65.4392
3136	65.4249
3132	65.4841
3128	65.4594
3124	65.3538
3120	65.3126
3116	65.2944
3112	65.2092
3108	65.0691
3104	64.9794
3100	65.0122
3096	65.0901
3092	65.1328
3088	65.1284
3084	65.1002
3080	65.1842
3076	65.3551
3072	65.4413
3068	65.4349
3064	65.3356
3060	65.2269
3056	65.2236
3052	65.1957
3048	65.0824
3044	65.0543
3040	65.1545
3036	65.313
3032	65.4026
3028	65.3029
3024	65.1618
3020	65.0806
3016	65.0793
3012	65.2014
3008	65.2446
3004	65.0962
3000	65.0002
2996	65.0656
2992	65.1148
2988	65.0983
2984	65.1216
2980	65.1557
2976	65.1013
2972	65.0206
2968	64.9962
2964	64.9731
2960	64.9531
2956	64.9947
2952	65.0363
2948	65.0542
2944	65.0749
2940	65.0318
2936	64.9671
2932	64.9787
2928	64.9575
2924	64.8245
2920	64.7686
2916	64.8769
2912	64.9575
2908	65.0025
2904	65.0801
2900	65.1228
2896	65.1644
2892	65.224
2888	65.2447
2884	65.1783
2880	65.0239
2876	64.9637
2872	65.1013
2868	65.2829
2864	65.2816
2860	65.054
2856	64.9295
2852	65.0076
2848	65.0141
2844	65.0013
2840	65.1101
2836	65.227
2832	65.2381
2828	65.1743
2824	65.1636
2820	65.2664
2816	65.3644
2812	65.3066
2808	65.1794
2804	65.1819
2800	65.2709
2796	65.2619
2792	65.1877
2788	65.18
2784	65.2065
2780	65.2335
2776	65.2852
2772	65.3147
2768	65.2458
2764	65.1425
2760	65.1405
2756	65.1892
2752	65.1943
2748	65.2331
2744	65.2744
2740	65.2421
2736	65.2534
2732	65.2799
2728	65.2761
2724	65.3238
2720	65.3785
2716	65.3725
2712	65.3198
2708	65.2829
2704	65.2818
2700	65.3099
2696	65.3461
2692	65.3171
2688	65.238
2684	65.1876
2680	65.201
2676	65.2504
2672	65.2696
2668	65.2703
2664	65.2434
2660	65.1942
2656	65.1661
2652	65.1132
2648	65.0944
2644	65.202
2640	65.3576
2636	65.4039
2632	65.3452
2628	65.2641
2624	65.1611
2620	65.1124
2616	65.1561
2612	65.2268
2608	65.2647
2604	65.2458
2600	65.1789
2596	65.1389
2592	65.2178
2588	65.3002
2584	65.3161
2580	65.3331
2576	65.2695
2572	65.1642
2568	65.1496
2564	65.204
2560	65.2784
2556	65.3171
2552	65.3126
2548	65.2908
2544	65.2639
2540	65.2329
2536	65.2264
2532	65.241
2528	65.1837
2524	65.1219
2520	65.1654
2516	65.2807
2512	65.377
2508	65.3458
2504	65.2717
2500	65.2731
2496	65.2636
2492	65.2644
2488	65.3528
2484	65.4271
2480	65.4199
2476	65.3265
2472	65.1755
2468	65.0977
2464	65.147
2460	65.2594
2456	65.378
2452	65.453
2448	65.4221
2444	65.3172
2440	65.2078
2436	65.2304
2432	65.3326
2428	65.1785
2424	64.9316
2420	64.8274
2416	64.7841
2412	64.9695
2408	65.3115
2404	65.4644
2400	65.3891
2396	65.2686
2392	65.2157
2388	65.1833
2384	65.1402
2380	65.1428
2376	65.1801
2372	65.2464
2368	65.3587
2364	65.3927
2360	65.3819
2356	65.4142
2352	65.4165
2348	65.4021
2344	65.3655
2340	65.3192
2336	65.3187
2332	65.3488
2328	65.3328
2324	65.2637
2320	65.277
2316	65.3341
2312	65.3454
2308	65.3326
2304	65.3023
2300	65.2951
2296	65.2822
2292	65.2595
2288	65.308
2284	65.3425
2280	65.2758
2276	65.205
2272	65.1896
2268	65.1613
2264	65.1378
2260	65.1726
2256	65.2417
2252	65.3142
2248	65.3421
2244	65.3565
2240	65.3763
2236	65.378
2232	65.3917
2228	65.4291
2224	65.463
2220	65.4356
2216	65.3744
2212	65.3648
2208	65.3401
2204	65.2582
2200	65.2622
2196	65.3354
2192	65.327
2188	65.2749
2184	65.2755
2180	65.3248
2176	65.3265
2172	65.1914
2168	65.0504
2164	65.0673
2160	65.1577
2156	65.1578
2152	65.0855
2148	65.082
2144	65.1095
2140	65.0696
2136	65.0368
2132	65.1458
2128	65.278
2124	65.2973
2120	65.3273
2116	65.3485
2112	65.303
2108	65.2591
2104	65.2666
2100	65.3386
2096	65.3507
2092	65.2834
2088	65.3372
2084	65.5526
2080	65.7801
2076	65.8729
2072	65.8398
2068	65.6686
2064	65.3399
2060	65.1201
2056	65.1182
2052	65.2381
2048	65.3367
2044	65.3399
2040	65.3342
2036	65.3085
2032	65.2846
2028	65.2999
2024	65.3304
2020	65.3868
2016	65.4185
2012	65.3477
2008	65.2449
2004	65.1794
2000	65.1258
1996	65.1722
1992	65.2974
1988	65.3464
1984	65.3201
1980	65.2491
1976	65.2119
1972	65.2746
1968	65.358
1964	65.404
1960	65.432
1956	65.434
1952	65.3931
1948	65.3299
1944	65.2777
1940	65.317
1936	65.4138
1932	65.4416
1928	65.4281
1924	65.3927
1920	65.3056
1916	65.2537
1912	65.2736
1908	65.2964
1904	65.3031
1900	65.3424
1896	65.4178
1892	65.4519
1888	65.3806
1884	65.2698
1880	65.2414
1876	65.3127
1872	65.3701
1868	65.3248
1864	65.2579
1860	65.2156
1856	65.164
1852	65.1403
1848	65.1693
1844	65.2141
1840	65.2518
1836	65.2678
1832	65.2679
1828	65.2828
1824	65.3122
1820	65.3785
1816	65.4484
1812	65.4384
1808	65.3937
1804	65.352
1800	65.2725
1796	65.1913
1792	65.206
1788	65.3187
1784	65.388
1780	65.3189
1776	65.2228
1772	65.2031
1768	65.1978
1764	65.194
1760	65.2503
1756	65.2665
1752	65.1554
1748	65.084
1744	65.1037
1740	65.1088
1736	65.1425
1732	65.1951
1728	65.219
1724	65.1609
1720	65.1113
1716	65.1703
1712	65.1155
1708	65.0194
1704	65.0715
1700	65.1808
1696	65.2996
1692	65.3838
1688	65.4382
1684	65.4677
1680	65.4181
1676	65.3514
1672	65.3538
1668	65.3503
1664	65.2546
1660	65.1925
1656	65.2056
1652	65.1907
1648	65.1626
1644	65.1898
1640	65.211
1636	65.1718
1632	65.1051
1628	65.0425
1624	65.0353
1620	65.0052
1616	64.9517
1612	64.9795
1608	65.0589
1604	65.1026
1600	65.0527
1596	65.002
1592	65.0607
1588	65.1588
1584	65.1838
1580	65.1372
1576	65.0264
1572	64.9356
1568	64.9714
1564	65.0656
1560	65.1067
1556	65.0567
1552	65.0094
1548	65.0229
1544	65.081
1540	65.1306
1536	65.0822
1532	65.0031
1528	65.0006
1524	65.0214
1520	64.9975
1516	64.9374
1512	64.8899
1508	64.9261
1504	65.0304
1500	65.126
1496	65.1925
1492	65.2213
1488	65.1796
1484	65.1283
1480	65.1493
1476	65.2381
1472	65.2579
1468	65.1459
1464	65.0273
1460	64.9877
1456	64.9719
1452	64.8607
1448	64.7804
1444	64.9076
1440	65.0676
1436	65.0877
1432	65.0368
1428	64.9851
1424	64.9779
1420	65.0201
1416	65.0336
1412	65.0503
1408	65.0966
1404	65.0897
1400	65.0818
1396	65.1234
1392	65.1108
1388	65.0635
1384	65.067
1380	65.1322
1376	65.1958
1372	65.1405
1368	65.0356
1364	65.0126
1360	65.0294
1356	65.0135
1352	64.9785
1348	64.9584
1344	64.9802
1340	65.0774
1336	65.1546
1332	65.1461
1328	65.1587
1324	65.2151
1320	65.2121
1316	65.1097
1312	65.0029
1308	64.9888
1304	65.0733
1300	65.198
1296	65.2124
1292	65.1031
1288	65.0302
1284	65.0372
1280	65.071
1276	65.0567
1272	65.0169
1268	65.0226
1264	65.0186
1260	64.973
1256	64.9204
1252	64.858
1248	64.7971
1244	64.8479
1240	64.9976
1236	65.0932
1232	65.0832
1228	65.0326
1224	65.0501
1220	65.0586
1216	65.01
1212	65.0456
1208	65.1121
1204	65.1023
1200	65.0076
1196	64.8831
1192	64.8581
1188	64.8864
1184	64.8476
1180	64.8324
1176	64.8354
1172	64.779
1168	64.7943
1164	64.8723
1160	64.8567
1156	64.7954
1152	64.7234
1148	64.6865
1144	64.8168
1140	65.0234
1136	65.1056
1132	65.0312
1128	64.9343
1124	64.8723
1120	64.8035
1116	64.7951
1112	64.8447
1108	64.8703
1104	64.8315
1100	64.6786
1096	64.4949
1092	64.4187
1088	64.4531
1084	64.635
1080	64.9003
1076	64.9649
1072	64.82
1068	64.6554
1064	64.6212
1060	64.7556
1056	64.8114
1052	64.7297
1048	64.768
1044	64.8514
1040	64.7789
1036	64.6201
1032	64.4964
1028	64.4147
1024	64.2149
1020	64.0131
1016	64.1136
1012	64.3877
1008	64.5509
1004	64.6323
1000	64.7124
996	 64.798
992	 64.864
988	 64.7738
984	 64.5588
980	 64.4918
976	 64.62
972	 64.769
968	 64.7534
964	 64.53
960	 64.4883
956	 64.6717
952	 64.9042
948	 65.1633
944	 65.0715
940	 64.5904
936	 64.3202
932	 64.584
928	 64.9571
924	 65.0862
920	 65.0615
916	 64.9667
912	 64.8022
908	 64.6519
904	 64.7048
900	 64.8423
896	 64.772
892	 64.6171
888	 64.5723
884	 64.49
880	 64.4298
876	 64.5989
872	 64.8028
868	 64.7498
864	 64.546
860	 64.4056
856	 64.3404
852	 64.4009
848	 64.502
844	 64.4417
840	 64.3337
836	 64.3141
832	 64.3833
828	 64.5037
824	 64.5563
820	 64.5452
816	 64.4768
812	 64.3896
808	 64.3108
804	 64.2456
800	 64.2427
796	 64.2219
792	 64.2552
788	 64.2451
784	 64.0885
780	 64.013
776	 64.0263
772	 64.0657
768	 64.0876
764	 64.0815
760	 64.0314
756	 63.8243
752	 63.4414
748	 63.2458
744	 63.5053
740	 63.64
736	 63.5415
732	 63.6424
728	 63.7943
724	 63.8386
720	 63.7707
716	 63.5944
712	 63.3894
708	 63.1071
704	 62.9287
700	 63.0807
696	 63.3698
692	 63.624
688	 63.643
684	 63.3988
680	 63.2172
676	 63.0487
672	 62.6833
668	 62.4667
664	 62.5308
660	 62.6777
656	 62.9174
652	 62.9773
648	 62.885
644	 62.9478
640	 63.0385
636	 62.9327
632	 62.7144
628	 62.6319
624	 62.5405
620	 62.2885
616	 62.1151
612	 62.2228
608	 62.4532
604	 62.4424
600	 62.1806
596	 61.9881
592	 62.1003
588	 62.3098
584	 62.3448
580	 62.2299
576	 62.0118
572	 61.9739
568	 62.1419
564	 62.2888
560	 62.2298
556	 61.9208
552	 61.8406
548	 62.1321
544	 62.3177
540	 62.2862
536	 62.107
532	 61.5935
528	 60.9248
524	 60.5131
520	 60.4786
516	 60.5255
512	 60.575
508	 60.9323
504	 61.0311
500	 60.6558
496	 60.7945
492	 61.3737
488	 61.7767
484	 61.7598
480	 60.9954
476	 60.2587
472	 59.9873
468	 59.8771
464	 60.0856
460	 60.6909
456	 61.2929
452	 60.8232
448	 59.6946
444	 59.1394
440	 58.1751
436	 56.0273
432	 53.9354
428	 52.3068
424	 51.757
420	 54.5021
416	 58.506
412	 59.9187
408	 60.6452
404	 61.1731
400	 66.4808
396	 82.2846
392	 95.2321
388	 101.154
384	 96.1947
380	 67.0491
376	 44.6625
372	 43.4678
370	 43.6233