File: Bakgrunnsmateriale/MATLAB/FTIR/ftir_data/subBb/Mapping_121/C-4040-8_t93.asc
PE IR       SPECTRUM    SPECTRUM    ASCII       PEDS        1.60
  -1
C-A946~1.ASC
17/03/27
22:09:52.00
17/03/27
22:10:18.00
tln
$C-4040-8_t0093$<tbV0>[2.6,7.8,8.0,0.0,27,1,0]
27.028
64

2002,4.07
MIRTGS : RIGHTBACK : INTERNAL 2
MIR : ON : INTERNAL 2
OPTKBR

0.200000
8
8.000000
FILLER
RATIO
SPECTRUM
UNLOCKED 256

DOUBLE
64
COMBINED
1
0
0

0.002000
RATIO

1
0
TRUE
51149
0
LEFT NOT FITTED RIGHT NOT FITTED 0
NONE
NONE
15600
12
4.427000
51148
TRUE
1 0 8 72 0 0 0 0

15798

#HDR
-1
-1
#GR
µM
%T
2.38419e-05
0.0
2.000000
0.002000
12515
8
143.164
45.3142
#DATA
2.000000	 65.4424
2.018000	 65.3382
2.036000	 65.4668
2.054000	 65.1493
2.072000	 65.0037
2.090000	 65.3858
2.108000	 65.4919
2.126000	 65.2612
2.144000	 65.1263
2.162000	 65.6763
2.180000	 65.7754
2.198000	 65.115
2.216000	 64.2904
2.234000	 64.7227
2.252000	 63.8352
2.270000	 64.0791
2.288000	 65.9086
2.306000	 64.2424
2.324000	 64.9388
2.342000	 64.9865
2.360000	 64.8624
2.378000	 65.0023
2.396000	 64.9692
2.414000	 65.5187
2.432000	 65.0894
2.450000	 65.2789
2.468000	 65.3484
2.486000	 65.5232
2.504000	 65.339
2.522000	 65.3245
2.540000	 65.1643
2.558000	 65.2028
2.576000	 64.8014
2.594000	 64.9545
2.612000	 64.8773
2.630000	 65.0424
2.648000	 65.1448
2.666000	 65.292
2.684000	 65.3198
2.702000	 65.1973
2.720000	 65.3319
2.738000	 65.2964
2.756000	 65.1826
2.774000	 65.2478
2.792000	 65.4722
2.810000	 65.4716
2.828000	 65.3331
2.846000	 65.395
2.864000	 65.1712
2.882000	 65.5227
2.900000	 65.0097
2.918000	 65.2618
2.936000	 65.2507
2.954000	 65.2902
2.972000	 65.1395
2.990000	 65.4595
3.008000	 65.1511
3.026000	 65.2224
3.044000	 65.1365
3.062000	 65.3354
3.080000	 65.4095
3.098000	 65.0893
3.116000	 65.5268
3.134000	 65.1096
3.152000	 65.4424
3.170000	 65.4246
3.188000	 65.4425
3.206000	 65.1378
3.224000	 65.7064
3.242000	 65.1613
3.260000	 65.2422
3.278000	 65.228
3.296000	 65.4016
3.314000	 65.2367
3.332000	 65.2346
3.350000	 65.2781
3.368000	 65.1325
3.386000	 65.1941
3.404000	 65.1349
3.422000	 64.849
3.440000	 65.1461
3.458000	 65.1214
3.476000	 65.2566
3.494000	 65.2526
3.512000	 64.941
3.530000	 65.2994
3.548000	 65.2601
3.566000	 65.3214
3.584000	 65.5006
3.602000	 65.3229
3.620000	 65.3276
3.638000	 65.2874
3.656000	 65.2931
3.674000	 65.3569
3.692000	 65.5037
3.710000	 65.3378
3.728000	 65.3881
3.746000	 65.3135
3.764000	 65.5026
3.782000	 65.3587
3.800000	 65.4293
3.818000	 65.2915
3.836000	 65.3603
3.854000	 65.2493
3.872000	 65.3415
3.890000	 65.2866
3.908000	 65.4917
3.926000	 65.3847
3.944000	 65.427
3.962000	 65.2356
3.980000	 65.4767
3.998000	 65.3807
4.016000	 65.5221
4.034000	 65.4869
4.052000	 65.4717
4.070000	 65.4324
4.088000	 65.3272
4.106000	 65.2685
4.124000	 65.2069
4.141999	 65.3719
4.160000	 65.2688
4.178000	 65.2993
4.196000	 65.2656
4.214000	 65.297
4.232000	 65.3799
4.250000	 65.3508
4.268000	 65.3586
4.286000	 65.2649
4.304000	 65.3597
4.322000	 65.4141
4.340000	 65.3075
4.358000	 65.3928
4.375999	 65.3331
4.394000	 65.4565
4.412000	 65.3787
4.430000	 65.3898
4.448000	 65.2832
4.466000	 65.1721
4.484000	 65.2568
4.502000	 65.4008
4.520000	 65.3083
4.538000	 65.2591
4.556000	 65.2396
4.574000	 65.3613
4.592000	 65.364
4.609999	 65.2399
4.628000	 65.4275
4.646000	 65.5565
4.664000	 65.3697
4.682000	 65.4934
4.700000	 65.4015
4.718000	 65.3975
4.736000	 65.4132
4.754000	 65.3227
4.772000	 65.369
4.790000	 65.3056
4.808000	 65.0607
4.826000	 65.7651
4.843999	 65.7405
4.862000	 65.3539
4.880000	 65.2501
4.898000	 65.4027
4.916000	 65.3982
4.934000	 65.4513
4.952000	 65.3845
4.970000	 65.396
4.988000	 65.3508
5.006000	 65.3883
5.024000	 65.5457
5.042000	 65.3784
5.060000	 65.3745
5.077999	 65.4562
5.096000	 65.4832
5.114000	 65.3385
5.132000	 65.3009
5.150000	 65.4416
5.168000	 65.497
5.186000	 65.3177
5.204000	 65.3705
5.222000	 65.3676
5.240000	 65.2629
5.258000	 65.2856
5.276000	 65.1963
5.294000	 65.2626
5.312000	 65.3188
5.330000	 65.3095
5.348000	 65.336
5.366000	 65.316
5.384000	 65.3349
5.402000	 65.3235
5.420000	 65.401
5.438000	 65.4569
5.456000	 65.4789
5.474000	 65.5164
5.492000	 65.4385
5.510000	 65.4325
5.528000	 65.4479
5.546000	 65.3821
5.564000	 65.3042
5.582000	 65.3565
5.600000	 65.2935
5.618000	 65.3264
5.636000	 65.3582
5.654000	 65.3702
5.672000	 65.3076
5.690000	 65.1871
5.708000	 65.1866
5.726000	 65.2557
5.744000	 65.2026
5.762000	 65.1016
5.780000	 65.1406
5.798000	 65.2023
5.816000	 65.0695
5.834000	 65.194
5.852000	 65.4464
5.870000	 65.2696
5.888000	 65.1166
5.906000	 65.168
5.923999	 65.237
5.942000	 65.2655
5.960000	 65.2297
5.978000	 65.2622
5.996000	 65.2583
6.014000	 65.1344
6.032000	 65.1671
6.050000	 65.2402
6.068000	 65.3207
6.086000	 65.3969
6.104000	 65.3611
6.122000	 65.2797
6.140000	 65.2456
6.158000	 65.1872
6.176000	 65.1573
6.194000	 65.1336
6.212000	 65.14
6.230000	 65.1051
6.248000	 65.0939
6.266000	 65.1761
6.284000	 65.2172
6.302000	 65.2034
6.320000	 65.1374
6.338000	 65.0652
6.356000	 65.0284
6.374000	 64.9908
6.392000	 64.9669
6.410000	 64.9436
6.428000	 65.0048
6.446000	 65.0973
6.464000	 65.1034
6.482000	 65.081
6.500000	 65.1245
6.518000	 65.2098
6.536000	 65.2159
6.554000	 65.2001
6.572000	 65.226
6.590000	 65.2268
6.608000	 65.1877
6.626000	 65.1856
6.644000	 65.2316
6.662000	 65.226
6.680000	 65.2165
6.698000	 65.2612
6.716000	 65.2589
6.734000	 65.2162
6.752000	 65.1702
6.770000	 65.1187
6.788000	 65.0945
6.806000	 65.0637
6.824000	 65.0809
6.842000	 65.2243
6.860000	 65.3087
6.878000	 65.3017
6.896000	 65.3395
6.914000	 65.3293
6.932000	 65.2303
6.950000	 65.1497
6.968000	 65.1247
6.986000	 65.1555
7.004000	 65.2365
7.022000	 65.2335
7.040000	 65.1079
7.058000	 65.065
7.076000	 65.157
7.094000	 65.2
7.112000	 65.1319
7.130000	 65.0851
7.148000	 65.1435
7.166000	 65.2151
7.184000	 65.2092
7.202000	 65.1973
7.220000	 65.2315
7.238000	 65.2185
7.256000	 65.143
7.274000	 65.0982
7.292000	 65.0963
7.310000	 65.0952
7.328000	 65.1044
7.346000	 65.1558
7.364000	 65.2256
7.382000	 65.2582
7.400000	 65.273
7.418000	 65.3029
7.436000	 65.2925
7.454000	 65.2119
7.472000	 65.1251
7.490000	 65.0755
7.508000	 65.0511
7.526000	 65.0418
7.544000	 65.061
7.562000	 65.1136
7.580000	 65.1492
7.598000	 65.1043
7.616000	 65.0098
7.634000	 64.9584
7.652000	 64.9835
7.670000	 65.0531
7.688000	 65.1277
7.706000	 65.1703
7.724000	 65.1612
7.742000	 65.1209
7.760000	 65.0927
7.778000	 65.0941
7.796000	 65.1054
7.814000	 65.1074
7.832000	 65.0996
7.850000	 65.0642
7.868000	 64.9789
7.886000	 64.8905
7.904000	 64.8824
7.922000	 64.9545
7.940000	 65.0304
7.958000	 65.0622
7.976000	 65.0388
7.994000	 64.9681
8.012000	 64.9128
8.030000	 64.9415
8.048000	 65.0254
8.065999	 65.0751
8.084000	 65.0687
8.102000	 65.0611
8.120000	 65.0845
8.138000	 65.1101
8.155999	 65.0978
8.173999	 65.0531
8.192000	 65.0266
8.210000	 65.0568
8.228000	 65.1245
8.246000	 65.1724
8.263999	 65.1686
8.282000	 65.1308
8.300000	 65.0927
8.318000	 65.0727
8.336000	 65.0763
8.353999	 65.0962
8.372000	 65.1036
8.390000	 65.068
8.408000	 64.9912
8.426000	 64.9146
8.443999	 64.8857
8.462000	 64.9091
8.480000	 64.9444
8.498000	 64.9628
8.516000	 64.9773
8.533999	 65.0027
8.552000	 65.0147
8.570000	 64.9835
8.588000	 64.927
8.606000	 64.8951
8.624000	 64.9034
8.641999	 64.9166
8.660000	 64.899
8.678000	 64.8588
8.696000	 64.8313
8.714000	 64.8369
8.731999	 64.8628
8.750000	 64.8765
8.768000	 64.8537
8.786000	 64.7992
8.804000	 64.7461
8.821999	 64.7266
8.840000	 64.7473
8.858000	 64.7926
8.876000	 64.8512
8.894000	 64.9183
8.911999	 64.9805
8.930000	 65.0161
8.948000	 65.0154
8.966000	 64.9891
8.984000	 64.9534
9.001999	 64.9106
9.020000	 64.852
9.038000	 64.7741
9.056000	 64.6901
9.074000	 64.6295
9.092000	 64.6193
9.109999	 64.6544
9.128000	 64.6907
9.146000	 64.6838
9.164000	 64.6343
9.182000	 64.585
9.199999	 64.5709
9.218000	 64.5884
9.236000	 64.6134
9.254000	 64.6392
9.272000	 64.6784
9.289999	 64.7337
9.308000	 64.7842
9.326000	 64.8094
9.344000	 64.8127
9.362000	 64.8138
9.379999	 64.8196
9.398000	 64.8126
9.416000	 64.7725
9.434000	 64.7001
9.452000	 64.6184
9.469999	 64.5547
9.488000	 64.5265
9.506000	 64.5443
9.524000	 64.6122
9.542000	 64.7191
9.560000	 64.831
9.577999	 64.8991
9.596000	 64.8889
9.614000	 64.8018
9.632000	 64.6758
9.650000	 64.5682
9.667999	 64.5292
9.686000	 64.5792
9.704000	 64.6967
9.722000	 64.8271
9.740000	 64.9088
9.757999	 64.9039
9.776000	 64.817
9.794000	 64.6908
9.812000	 64.5824
9.830000	 64.5354
9.847999	 64.5625
9.866000	 64.6449
9.884000	 64.7442
9.902000	 64.8194
9.920000	 64.8438
9.937999	 64.8111
9.956000	 64.7336
9.974000	 64.6378
9.992000	 64.5568
10.01	64.5206
10.028	64.5434
10.046	64.6137
10.064	64.6994
10.082	64.7628
10.1	64.7784
10.118	64.7448
10.136	64.6815
10.154	64.6145
10.172	64.5657
10.19	64.5465
10.208	64.5584
10.226	64.5971
10.244	64.6537
10.262	64.718
10.28	64.7804
10.298	64.8321
10.316	64.8659
10.334	64.8785
10.352	64.8709
10.37	64.8488
10.388	64.8199
10.406	64.7928
10.424	64.7752
10.442	64.7725
10.46	64.7829
10.478	64.7953
10.496	64.7925
10.514	64.7587
10.532	64.6889
10.55	64.5934
10.568	64.4909
10.586	64.3993
10.604	64.3268
10.622	64.2698
10.64	64.223
10.658	64.1873
10.676	64.1753
10.694	64.2034
10.712	64.2817
10.73	64.4037
10.748	64.5482
10.766	64.688
10.784	64.8035
10.802	64.8886
10.82	64.9477
10.838	64.9854
10.856	64.9972
10.874	64.9677
10.892	64.883
10.91	64.7431
10.928	64.5696
10.946	64.4009
10.964	64.2756
10.982	64.2199
11	64.2363
11.018	64.3082
11.036	64.4095
11.054	64.5129
11.072	64.599
11.09	64.6558
11.108	64.6788
11.126	64.6684
11.144	64.6293
11.162	64.5699
11.18	64.4997
11.198	64.4277
11.216	64.3594
11.234	64.297
11.252	64.2417
11.27	64.1954
11.288	64.1623
11.306	64.1487
11.324	64.1623
11.342	64.209
11.36	64.2896
11.378	64.3976
11.396	64.52
11.414	64.6394
11.432	64.7405
11.45	64.8137
11.468	64.8565
11.486	64.8729
11.504	64.8699
11.522	64.8551
11.54	64.8343
11.558	64.8124
11.576	64.7942
11.594	64.7839
11.612	64.7862
11.63	64.8033
11.648	64.8333
11.666	64.87
11.684	64.9045
11.702	64.928
11.72	64.9344
11.738	64.9216
11.756	64.892
11.774	64.8508
11.792	64.805
11.81	64.7603
11.828	64.7193
11.846	64.681
11.864	64.641
11.882	64.594
11.9	64.5373
11.918	64.4726
11.936	64.4064
11.954	64.3477
11.972	64.3058
11.99	64.2858
12.008	64.2876
12.026	64.3065
12.044	64.3345
12.062	64.3642
12.08	64.3909
12.098	64.4128
12.116	64.4303
12.134	64.444
12.152	64.4536
12.17	64.4591
12.188	64.4612
12.206	64.462
12.224	64.4643
12.242	64.4698
12.26	64.4778
12.278	64.4845
12.296	64.4839
12.314	64.4702
12.332	64.4402
12.35	64.3945
12.368	64.3384
12.386	64.2799
12.404	64.2275
12.422	64.187
12.44	64.1613
12.458	64.1497
12.476	64.1496
12.494	64.1584
12.512	64.1737
12.53	64.1936
12.548	64.2157
12.566	64.2364
12.584	64.251
12.602	64.2543
12.62	64.242
12.638	64.2116
12.656	64.1639
12.674	64.1027
12.692	64.0345
12.71	63.9666
12.728	63.9066
12.746	63.8604
12.764	63.8317
12.782	63.8218
12.8	63.8293
12.818	63.8514
12.836	63.8838
12.854	63.9227
12.872	63.9643
12.89	64.0062
12.908	64.0469
12.926	64.0865
12.944	64.1253
12.962	64.1625
12.98	64.1964
12.998	64.2232
13.016	64.2381
13.034	64.236
13.052	64.2137
13.07	64.1709
13.088	64.111
13.106	64.041
13.124	63.97
13.142	63.9076
13.16	63.8607
13.178	63.8323
13.196	63.8209
13.214	63.8213
13.232	63.8256
13.25	63.8262
13.268	63.8174
13.286	63.7973
13.304	63.7674
13.322	63.7324
13.34	63.6976
13.358	63.6685
13.376	63.6483
13.394	63.6379
13.412	63.6356
13.43	63.6386
13.448	63.644
13.466	63.6501
13.484	63.6562
13.502	63.6628
13.52	63.6713
13.538	63.6829
13.556	63.6986
13.574	63.7188
13.592	63.7438
13.61	63.7733
13.628	63.8074
13.646	63.8458
13.664	63.8876
13.682	63.9317
13.7	63.9756
13.718	64.0161
13.736	64.0487
13.754	64.069
13.772	64.0726
13.79	64.057
13.808	64.0211
13.826	63.9665
13.844	63.8969
13.862	63.8179
13.88	63.7362
13.898	63.6585
13.916	63.5907
13.934	63.5375
13.952	63.5017
13.97	63.4845
13.988	63.4855
14.006	63.5027
14.024	63.5335
14.042	63.5745
14.06	63.6219
14.078	63.6725
14.096	63.7232
14.114	63.7716
14.132	63.8151
14.15	63.8517
14.168	63.8797
14.186	63.8974
14.204	63.9034
14.222	63.8963
14.24	63.876
14.258	63.8428
14.276	63.7977
14.294	63.7428
14.312	63.6804
14.33	63.6135
14.348	63.5452
14.366	63.4786
14.384	63.4171
14.402	63.3636
14.42	63.3214
14.438	63.293
14.456	63.2803
14.474	63.2846
14.492	63.3059
14.51	63.343
14.528	63.3933
14.546	63.4531
14.564	63.5178
14.582	63.5825
14.6	63.6422
14.618	63.6923
14.636	63.7293
14.654	63.751
14.672	63.7569
14.69	63.7471
14.708	63.723
14.726	63.6867
14.744	63.6406
14.762	63.5877
14.78	63.5303
14.798	63.4708
14.816	63.4117
14.834	63.3547
14.852	63.3022
14.87	63.2554
14.888	63.215
14.906	63.1813
14.924	63.154
14.942	63.1318
14.96	63.1136
14.978	63.0982
14.996	63.085
15.014	63.0738
15.032	63.0648
15.05	63.0594
15.068	63.0587
15.086	63.064
15.104	63.0761
15.122	63.0955
15.14	63.121
15.158	63.1506
15.176	63.1816
15.194	63.2107
15.212	63.2339
15.23	63.2485
15.248	63.2524
15.266	63.2446
15.284	63.2254
15.302	63.1971
15.32	63.1623
15.338	63.1242
15.356	63.087
15.374	63.0543
15.392	63.0286
15.41	63.0118
15.428	63.0053
15.446	63.009
15.464	63.0221
15.482	63.0434
15.5	63.0709
15.518	63.1015
15.536	63.1328
15.554	63.1619
15.572	63.1862
15.59	63.2028
15.608	63.2101
15.626	63.2068
15.644	63.1924
15.662	63.168
15.68	63.1355
15.698	63.0974
15.716	63.0577
15.734	63.021
15.752	62.9911
15.77	62.9717
15.788	62.9664
15.806	62.9764
15.824	63.002
15.842	63.0424
15.86	63.0939
15.878	63.1529
15.896	63.2157
15.914	63.2764
15.932	63.3312
15.95	63.377
15.968	63.4106
15.986	63.4309
16.004	63.4379
16.022	63.4318
16.04	63.4146
16.058	63.3879
16.076	63.353
16.094	63.3122
16.112	63.2665
16.13	63.217
16.148	63.1646
16.166	63.1101
16.184	63.0542
16.202	62.9976
16.22	62.9419
16.238	62.8888
16.256	62.8399
16.274	62.7981
16.292	62.7654
16.31	62.7434
16.328	62.7339
16.346	62.7368
16.364	62.7519
16.382	62.7774
16.4	62.8105
16.418	62.8491
16.436	62.8883
16.454	62.9247
16.472	62.9554
16.49	62.9765
16.508	62.9871
16.526	62.986
16.544	62.9738
16.562	62.9524
16.58	62.9233
16.598	62.8905
16.616	62.8565
16.634	62.8238
16.652	62.7956
16.67	62.7727
16.688	62.7564
16.706	62.7465
16.724	62.7422
16.742	62.7424
16.76	62.7448
16.778	62.7484
16.796	62.7509
16.814	62.7513
16.832	62.7489
16.85	62.7436
16.868	62.7361
16.886	62.7268
16.904	62.718
16.922	62.711
16.94	62.7076
16.958	62.7097
16.976	62.718
16.994	62.7338
17.012	62.7564
17.03	62.7854
17.048	62.8181
17.066	62.8524
17.084	62.8856
17.102	62.9132
17.12	62.9337
17.138	62.9429
17.156	62.9397
17.174	62.9227
17.192	62.8921
17.21	62.8489
17.228	62.7953
17.246	62.7348
17.264	62.6698
17.282	62.6061
17.3	62.546
17.318	62.4941
17.336	62.4528
17.354	62.4239
17.372	62.4087
17.39	62.4068
17.408	62.4175
17.426	62.4381
17.444	62.4672
17.462	62.5003
17.48	62.536
17.498	62.5699
17.516	62.6004
17.534	62.6255
17.552	62.6437
17.57	62.6546
17.588	62.6583
17.606	62.6555
17.624	62.6467
17.642	62.634
17.66	62.6182
17.678	62.6012
17.696	62.5835
17.714	62.5671
17.732	62.5523
17.75	62.5404
17.768	62.5318
17.786	62.5269
17.804	62.5261
17.822	62.5294
17.84	62.5365
17.858	62.547
17.876	62.5606
17.894	62.5759
17.912	62.5925
17.93	62.6082
17.948	62.6226
17.966	62.633
17.984	62.6387
18.002	62.6378
18.02	62.6294
18.038	62.6123
18.056	62.586
18.074	62.5504
18.092	62.5061
18.11	62.4533
18.128	62.3943
18.146	62.3298
18.164	62.2627
18.182	62.1947
18.2	62.1281
18.218	62.0652
18.236	62.0076
18.254	61.957
18.272	61.914
18.29	61.8796
18.308	61.8538
18.326	61.8361
18.344	61.8261
18.362	61.8223
18.38	61.8238
18.398	61.8285
18.416	61.8355
18.434	61.8432
18.452	61.8504
18.47	61.8561
18.488	61.859
18.506	61.8585
18.524	61.8538
18.542	61.8446
18.56	61.8304
18.578	61.811
18.596	61.7865
18.614	61.757
18.632	61.723
18.65	61.6846
18.668	61.6431
18.686	61.5984
18.704	61.5521
18.722	61.5044
18.74	61.4569
18.758	61.4097
18.776	61.3643
18.794	61.3209
18.812	61.2808
18.83	61.2437
18.848	61.2105
18.866	61.181
18.884	61.1556
18.902	61.1342
18.92	61.117
18.938	61.1039
18.956	61.0948
18.974	61.0899
18.992	61.089
19.01	61.0921
19.028	61.0992
19.046	61.1103
19.064	61.1254
19.082	61.1443
19.1	61.1668
19.118	61.1928
19.136	61.222
19.154	61.2541
19.172	61.2885
19.19	61.3248
19.208	61.3625
19.226	61.4014
19.244	61.4405
19.262	61.4799
19.28	61.5191
19.298	61.558
19.316	61.5965
19.334	61.6346
19.352	61.6725
19.37	61.7103
19.388	61.7489
19.406	61.7883
19.424	61.8291
19.442	61.8713
19.46	61.9155
19.478	61.9618
19.496	62.0095
19.514	62.0587
19.532	62.1083
19.55	62.1583
19.568	62.207
19.586	62.2531
19.604	62.2958
19.622	62.3327
19.64	62.3635
19.658	62.3852
19.676	62.3979
19.694	62.3993
19.712	62.3897
19.73	62.3677
19.748	62.3331
19.766	62.2867
19.784	62.2281
19.802	62.1592
19.82	62.0805
19.838	61.9937
19.856	61.9012
19.874	61.8037
19.892	61.7053
19.91	61.6055
19.928	61.5092
19.946	61.4158
19.964	61.3291
19.982	61.2493
20	61.1783
20.018	61.1171
20.036	61.0658
20.054	61.0254
20.072	60.9955
20.09	60.9756
20.108	60.9659
20.126	60.9642
20.144	60.971
20.162	60.9836
20.18	61.0013
20.198	61.0228
20.216	61.0457
20.234	61.0703
20.252	61.0937
20.27	61.1165
20.288	61.136
20.306	61.1523
20.324	61.1644
20.342	61.1717
20.36	61.1742
20.378	61.1715
20.396	61.1636
20.414	61.1514
20.432	61.1347
20.45	61.1146
20.468	61.0914
20.486	61.0659
20.504	61.0395
20.522	61.0121
20.54	60.9856
20.558	60.9598
20.576	60.936
20.594	60.9147
20.612	60.8961
20.63	60.8815
20.648	60.8706
20.666	60.8636
20.684	60.8609
20.702	60.8617
20.72	60.8661
20.738	60.8737
20.756	60.8832
20.774	60.8951
20.792	60.9074
20.81	60.92
20.828	60.9322
20.846	60.9423
20.864	60.951
20.882	60.9565
20.9	60.9592
20.918	60.9585
20.936	60.9539
20.954	60.9456
20.972	60.9339
20.99	60.9185
21.008	60.8999
21.026	60.8784
21.044	60.8539
21.062	60.8273
21.08	60.7983
21.098	60.7674
21.116	60.7347
21.134	60.7002
21.152	60.6641
21.17	60.6264
21.188	60.5863
21.206	60.5441
21.224	60.4993
21.242	60.4507
21.26	60.3989
21.278	60.3427
21.296	60.2819
21.314	60.2165
21.332	60.1459
21.35	60.0703
21.368	59.9897
21.386	59.9037
21.404	59.8128
21.422	59.7181
21.44	59.619
21.458	59.5175
21.476	59.4136
21.494	59.3081
21.512	59.2043
21.53	59.1011
21.548	59.0016
21.566	58.9078
21.584	58.8192
21.602	58.7407
21.62	58.6716
21.638	58.614
21.656	58.5709
21.674	58.5411
21.692	58.5273
21.71	58.5305
21.728	58.55
21.746	58.587
21.764	58.6416
21.782	58.7123
21.8	58.7987
21.818	58.9007
21.836	59.0144
21.854	59.1406
21.872	59.2767
21.89	59.4175
21.908	59.5654
21.926	59.7143
21.944	59.8606
21.962	60.0059
21.98	60.1427
21.998	60.2712
22.016	60.39
22.034	60.4935
22.052	60.5833
22.07	60.6572
22.088	60.7129
22.106	60.7515
22.124	60.7726
22.142	60.7753
22.16	60.7609
22.178	60.732
22.196	60.6871
22.214	60.6296
22.232	60.5631
22.25	60.4855
22.268	60.4025
22.286	60.3169
22.304	60.2272
22.322	60.1401
22.34	60.0562
22.358	59.9758
22.376	59.904
22.394	59.8401
22.412	59.7852
22.43	59.7418
22.448	59.7092
22.466	59.6879
22.484	59.679
22.502	59.6821
22.52	59.6965
22.538	59.7222
22.556	59.7591
22.574	59.8051
22.592	59.8604
22.61	59.9244
22.628	59.9941
22.646	60.0703
22.664	60.1515
22.682	60.2342
22.7	60.32
22.718	60.4064
22.736	60.4904
22.754	60.5736
22.772	60.6533
22.79	60.7269
22.808	60.7958
22.826	60.8577
22.844	60.911
22.862	60.9567
22.88	60.9933
22.898	61.0198
22.916	61.0368
22.934	61.0444
22.952	61.0423
22.97	61.0307
22.988	61.0111
23.006	60.9834
23.024	60.9478
23.042	60.9075
23.06	60.8621
23.078	60.812
23.096	60.761
23.114	60.7084
23.132	60.655
23.15	60.6046
23.168	60.5567
23.186	60.5119
23.204	60.4734
23.222	60.4408
23.24	60.4145
23.258	60.3968
23.276	60.3874
23.294	60.3865
23.312	60.3959
23.33	60.4158
23.348	60.4458
23.366	60.4858
23.384	60.5365
23.402	60.597
23.42	60.6654
23.438	60.7426
23.456	60.8277
23.474	60.9174
23.492	61.0116
23.51	61.1106
23.528	61.2109
23.546	61.3126
23.564	61.4159
23.582	61.516
23.6	61.6118
23.618	61.7047
23.636	61.7898
23.654	61.8652
23.672	61.933
23.69	61.9879
23.708	62.0265
23.726	62.0518
23.744	62.0589
23.762	62.0436
23.78	62.0085
23.798	61.9514
23.816	61.869
23.834	61.7621
23.852	61.6313
23.87	61.4766
23.888	61.2968
23.906	61.0939
23.924	60.8714
23.942	60.6277
23.96	60.3641
23.978	60.087
23.996	59.7969
24.014	59.4919
24.032	59.1825
24.05	58.8744
24.068	58.5613
24.086	58.2538
24.104	57.962
24.122	57.6795
24.14	57.412
24.158	57.1683
24.176	56.9466
24.194	56.7468
24.212	56.5742
24.23	56.4302
24.248	56.3128
24.266	56.2225
24.284	56.1603
24.302	56.1264
24.32	56.1174
24.338	56.1305
24.356	56.1699
24.374	56.2295
24.392	56.301
24.41	56.3874
24.428	56.4871
24.446	56.5907
24.464	56.6938
24.482	56.8008
24.5	56.9077
24.518	57.0113
24.536	57.1135
24.554	57.2132
24.572	57.3086
24.59	57.4002
24.608	57.4879
24.626	57.5701
24.644	57.6466
24.662	57.718
24.68	57.7828
24.698	57.8393
24.716	57.889
24.734	57.9306
24.752	57.9618
24.77	57.984
24.788	57.9968
24.806	57.9959
24.824	57.9785
24.842	57.9481
24.86	57.9005
24.878	57.8306
24.896	57.7411
24.914	57.6309
24.932	57.4937
24.95	57.3267
24.968	57.1341
24.986	56.9105
25.004	56.6496
25.022	56.3532
25.04	56.022
25.058	55.6542
25.076	55.2483
25.094	54.8053
25.112	54.3269
25.13	53.8143
25.148	53.2608
25.166	52.6743
25.184	52.0682
25.202	51.4449
25.22	50.7941
25.238	50.139
25.256	49.503
25.274	48.8702
25.292	48.2489
25.31	47.6682
25.328	47.1432
25.346	46.6524
25.364	46.2198
25.382	45.8734
25.4	45.6085
25.418	45.4199
25.436	45.3234
25.454	45.3324
25.472	45.4407
25.49	45.6447
25.508	45.943
25.526	46.3367
25.544	46.8257
25.562	47.4043
25.58	48.0672
25.598	48.8199
25.616	49.6579
25.634	50.5709
25.652	51.554
25.67	52.6158
25.688	53.745
25.706	54.9283
25.724	56.1673
25.742	57.4662
25.76	58.8105
25.778	60.188
25.796	61.6155
25.814	63.08
25.832	64.5541
25.85	66.0208
25.868	67.5024
25.886	68.9799
25.904	70.4285
25.922	71.8468
25.94	73.249
25.958	74.6082
25.976	75.8972
25.994	77.12
26.012	78.284
26.03	79.3809
26.048	80.4009
26.066	81.3304
26.084	82.1934
26.102	83.0211
26.12	83.8286
26.138	84.5812
26.156	85.3196
26.174	86.0937
26.192	86.9067
26.21	87.7195
26.228	88.6036
26.246	89.6339
26.264	90.8094
26.282	92.0979
26.3	93.5449
26.318	95.195
26.336	97.0535
26.354	99.0976
26.372	101.314
26.39	103.694
26.408	106.278
26.426	109.029
26.444	111.878
26.462	114.777
26.48	117.823
26.498	120.932
26.516	123.969
26.534	126.841
26.552	129.673
26.57	132.383
26.588	134.842
26.606	136.97
26.624	138.869
26.642	140.485
26.66	141.74
26.678	142.58
26.696	143.049
26.714	143.158
26.732	142.914
26.75	142.293
26.768	141.258
26.786	139.913
26.804	138.369
26.822	136.656
26.84	134.66
26.858	132.522
26.876	130.403
26.894	128.358
26.912	126.239
26.93	124.192
26.948	122.385
26.966	120.926
26.984	119.71
27.002	118.734
27.02	118.007
27.028	117.792