File: Bakgrunnsmateriale/MATLAB/FTIR/ftir_data/subBb/Mapping_121/C-4040-8_t71_cm-1.asc
PE IR       SPECTRUM    SPECTRUM    ASCII       PEDS        1.60
  -1
C-1DE4~1.ASC
17/03/27
20:21:15.00
17/03/27
20:21:15.00
tln
$C-4040-8_t0071$<tbV0>[2.6,2.6,8.0,0.0,27,1,0]
370
64

2002,4.07
MIRTGS : RIGHTBACK : INTERNAL 2
MIR : ON : INTERNAL 2
OPTKBR

0.200000
8
8.000000
FILLER
RATIO
SPECTRUM
UNLOCKED 256

DOUBLE
64
COMBINED
1
0
0

1.000000
RATIO

1
0
TRUE
51149
0
LEFT NOT FITTED RIGHT NOT FITTED 0
NONE
NONE
15600
12
4.427000
51148
TRUE
1 0 8 72 0 0 0 0

15798

#HDR
-1
-1
#GR
CM-1
%T
2.38419e-05
0.0
5000
-1.000000
4631
8
89.6537
42.2066
#DATA
5000	64.9927
4996	65.0332
4992	64.8955
4988	64.9567
4984	65.1905
4980	65.1279
4976	64.7643
4972	64.2985
4968	64.052
4964	64.318
4960	65.0222
4956	65.686
4952	65.8665
4948	65.5647
4944	65.038
4940	64.6522
4936	64.4418
4932	64.4006
4928	64.5894
4924	64.7278
4920	64.6862
4916	64.5529
4912	64.648
4908	64.9887
4904	65.1566
4900	65.0627
4896	64.7858
4892	64.5532
4888	64.4571
4884	64.4061
4880	64.6127
4876	65.2668
4872	65.7873
4868	65.5767
4864	65.1732
4860	65.1421
4856	65.1942
4852	65.1443
4848	65.2538
4844	65.3573
4840	65.2212
4836	65.2032
4832	65.2169
4828	65.0376
4824	65.0374
4820	65.079
4816	64.9606
4812	64.9879
4808	65.1756
4804	65.2397
4800	65.0615
4796	64.9733
4792	65.078
4788	65.0357
4784	65.0121
4780	65.1679
4776	65.1906
4772	65.1296
4768	65.2061
4764	65.402
4760	65.499
4756	65.27
4752	65.1249
4748	65.3639
4744	65.5249
4740	65.5375
4736	65.5262
4732	65.3925
4728	65.3438
4724	65.4053
4720	65.3712
4716	65.4349
4712	65.6015
4708	65.4887
4704	65.2678
4700	65.2155
4696	65.2863
4692	65.465
4688	65.5806
4684	65.5855
4680	65.6208
4676	65.538
4672	65.4155
4668	65.4465
4664	65.3779
4660	65.2091
4656	65.2342
4652	65.51
4648	65.7003
4644	65.6199
4640	65.3976
4636	65.1712
4632	65.1618
4628	65.3513
4624	65.5316
4620	65.5023
4616	65.2853
4612	65.1904
4608	65.1331
4604	64.9256
4600	64.8187
4596	64.943
4592	65.1555
4588	65.199
4584	64.9274
4580	64.6776
4576	64.7374
4572	64.8303
4568	64.7718
4564	64.767
4560	64.792
4556	64.6762
4552	64.671
4548	64.8887
4544	65.0519
4540	65.0094
4536	64.8263
4532	64.9012
4528	65.1892
4524	65.076
4520	64.5602
4516	64.0781
4512	64.0447
4508	64.4262
4504	64.6006
4500	64.4352
4496	64.477
4492	64.85
4488	64.9585
4484	64.6662
4480	64.4173
4476	64.2977
4472	64.2267
4468	64.2758
4464	64.3142
4460	64.2883
4456	64.3385
4452	64.2748
4448	64.1523
4444	64.3613
4440	64.5442
4436	64.4584
4432	64.3398
4428	64.1372
4424	63.9867
4420	64.0424
4416	64.084
4412	63.9474
4408	63.3368
4404	62.9837
4400	63.015
4396	62.6903
4392	63.0285
4388	69.2894
4384	85.9883
4380	85.8108
4376	75.8583
4372	78.4191
4368	73.7647
4364	67.0684
4360	65.3079
4356	64.8963
4352	64.1434
4348	63.876
4344	64.44
4340	64.8168
4336	64.6868
4332	64.5747
4328	64.7159
4324	64.7199
4320	64.3892
4316	64.2843
4312	64.408
4308	64.387
4304	64.4465
4300	64.7006
4296	64.8478
4292	64.6746
4288	64.4737
4284	64.4403
4280	64.4961
4276	64.5431
4272	64.5245
4268	64.5154
4264	64.7344
4260	65.033
4256	65.0203
4252	64.8907
4248	64.9442
4244	65.1115
4240	65.1004
4236	64.827
4232	64.6427
4228	64.769
4224	64.8843
4220	64.7645
4216	64.6188
4212	64.6224
4208	64.7958
4204	64.9911
4200	64.844
4196	64.5965
4192	64.7276
4188	65.0536
4184	65.4576
4180	65.5544
4176	65.275
4172	65.0751
4168	64.7661
4164	64.4344
4160	64.4938
4156	64.9976
4152	65.5134
4148	65.6821
4144	65.7112
4140	65.6221
4136	65.2705
4132	65.0122
4128	65.0202
4124	65.0338
4120	65.0375
4116	65.0301
4112	65.0021
4108	65.0243
4104	65.0796
4100	65.1555
4096	65.2421
4092	65.3011
4088	65.3811
4084	65.3898
4080	65.2347
4076	65.1685
4072	65.242
4068	65.3804
4064	65.527
4060	65.4445
4056	65.2599
4052	65.1965
4048	65.1458
4044	65.1627
4040	65.252
4036	65.2762
4032	65.3115
4028	65.3352
4024	65.2827
4020	65.3148
4016	65.5153
4012	65.6492
4008	65.5003
4004	65.275
4000	65.3023
3996	65.5342
3992	65.6502
3988	65.5642
3984	65.5054
3980	65.5187
3976	65.4699
3972	65.3918
3968	65.3095
3964	65.2623
3960	65.2958
3956	65.2908
3952	65.1754
3948	65.0158
3944	64.9353
3940	64.9882
3936	65.1354
3932	65.3129
3928	65.4155
3924	65.3399
3920	65.2679
3916	65.3641
3912	65.4228
3908	65.3459
3904	65.2584
3900	65.2391
3896	65.2567
3892	65.2553
3888	65.16
3884	65.0876
3880	65.2301
3876	65.4388
3872	65.5807
3868	65.6231
3864	65.5278
3860	65.3291
3856	65.1362
3852	65.0751
3848	65.1582
3844	65.3259
3840	65.3128
3836	65.1076
3832	65.1716
3828	65.4336
3824	65.5434
3820	65.524
3816	65.2457
3812	64.9253
3808	64.948
3804	65.0478
3800	65.1131
3796	65.211
3792	65.2196
3788	65.176
3784	65.2381
3780	65.2895
3776	65.158
3772	65.0738
3768	65.1337
3764	65.1515
3760	65.1343
3756	65.183
3752	65.2236
3748	65.2082
3744	65.3064
3740	65.4718
3736	65.4241
3732	65.3162
3728	65.3709
3724	65.4062
3720	65.3162
3716	65.2762
3712	65.3582
3708	65.3496
3704	65.2451
3700	65.2383
3696	65.2898
3692	65.2605
3688	65.1702
3684	65.1341
3680	65.1363
3676	65.1184
3672	65.0943
3668	65.0922
3664	65.1716
3660	65.283
3656	65.2601
3652	65.1896
3648	65.2256
3644	65.2979
3640	65.2998
3636	65.2637
3632	65.2774
3628	65.3657
3624	65.5101
3620	65.577
3616	65.4743
3612	65.2747
3608	65.1663
3604	65.2379
3600	65.3791
3596	65.469
3592	65.44
3588	65.4157
3584	65.4443
3580	65.4389
3576	65.4406
3572	65.3986
3568	65.3617
3564	65.4129
3560	65.4105
3556	65.3554
3552	65.3069
3548	65.2792
3544	65.2895
3540	65.2957
3536	65.3147
3532	65.3697
3528	65.4571
3524	65.4684
3520	65.445
3516	65.4634
3512	65.3849
3508	65.3365
3504	65.4288
3500	65.4292
3496	65.2943
3492	65.2219
3488	65.3083
3484	65.4984
3480	65.623
3476	65.5787
3472	65.3712
3468	65.2146
3464	65.2299
3460	65.2829
3456	65.378
3452	65.4825
3448	65.5037
3444	65.4941
3440	65.5
3436	65.3958
3432	65.1767
3428	65.0461
3424	65.0553
3420	65.1625
3416	65.3695
3412	65.5406
3408	65.4674
3404	65.2714
3400	65.1864
3396	65.1792
3392	65.2609
3388	65.3639
3384	65.2651
3380	65.1249
3376	65.1436
3372	65.1842
3368	65.1928
3364	65.2
3360	65.2368
3356	65.3339
3352	65.4143
3348	65.3971
3344	65.3379
3340	65.342
3336	65.3988
3332	65.3471
3328	65.1981
3324	65.2178
3320	65.3728
3316	65.3723
3312	65.2549
3308	65.2306
3304	65.2741
3300	65.3327
3296	65.3204
3292	65.2525
3288	65.2789
3284	65.2402
3280	65.138
3276	65.1562
3272	65.2044
3268	65.2322
3264	65.2383
3260	65.1841
3256	65.1556
3252	65.1732
3248	65.1846
3244	65.1883
3240	65.1767
3236	65.2127
3232	65.2723
3228	65.259
3224	65.2166
3220	65.2352
3216	65.2457
3212	65.1827
3208	65.1685
3204	65.232
3200	65.2873
3196	65.3366
3192	65.2936
3188	65.1298
3184	65.1176
3180	65.2427
3176	65.2832
3172	65.319
3168	65.3492
3164	65.2832
3160	65.2071
3156	65.1931
3152	65.2246
3148	65.3502
3144	65.5653
3140	65.5946
3136	65.4167
3132	65.3498
3128	65.3503
3124	65.2115
3120	65.0068
3116	64.9004
3112	64.9907
3108	65.1802
3104	65.2589
3100	65.2276
3096	65.1999
3092	65.2488
3088	65.3213
3084	65.2921
3080	65.2056
3076	65.2114
3072	65.3472
3068	65.4429
3064	65.316
3060	65.148
3056	65.227
3052	65.36
3048	65.2813
3044	65.1451
3040	65.14
3036	65.3127
3032	65.4663
3028	65.3973
3024	65.2667
3020	65.1621
3016	65.0818
3012	65.099
3008	65.1332
3004	65.1197
3000	65.164
2996	65.2468
2992	65.238
2988	65.1633
2984	65.1303
2980	65.1412
2976	65.1181
2972	65.0619
2968	65.0353
2964	65.0743
2960	65.1296
2956	65.1432
2952	65.1661
2948	65.2195
2944	65.2361
2940	65.2124
2936	65.1713
2932	65.1053
2928	65.0623
2924	65.0139
2920	64.9305
2916	64.9186
2912	64.9639
2908	65.0555
2904	65.1633
2900	65.2119
2896	65.268
2892	65.2885
2888	65.2579
2884	65.2822
2880	65.2703
2876	65.1883
2872	65.194
2868	65.302
2864	65.3344
2860	65.1906
2856	65.0303
2852	65.0218
2848	65.0296
2844	65.0085
2840	65.0964
2836	65.2294
2832	65.2918
2828	65.2764
2824	65.2282
2820	65.2098
2816	65.2632
2812	65.3325
2808	65.3544
2804	65.364
2800	65.3562
2796	65.2883
2792	65.3046
2788	65.464
2784	65.4918
2780	65.36
2776	65.3149
2772	65.3546
2768	65.3698
2764	65.4048
2760	65.4547
2756	65.468
2752	65.4651
2748	65.4707
2744	65.4953
2740	65.491
2736	65.4206
2732	65.3068
2728	65.2445
2724	65.2818
2720	65.3748
2716	65.4736
2712	65.4804
2708	65.3986
2704	65.3401
2700	65.3276
2696	65.3454
2692	65.3559
2688	65.2979
2684	65.2229
2680	65.19
2676	65.1634
2672	65.1719
2668	65.2565
2664	65.3558
2660	65.416
2656	65.427
2652	65.3687
2648	65.3041
2644	65.3096
2640	65.3344
2636	65.3123
2632	65.2786
2628	65.311
2624	65.4084
2620	65.463
2616	65.4106
2612	65.3513
2608	65.3148
2604	65.2531
2600	65.1845
2596	65.1197
2592	65.1294
2588	65.2249
2584	65.3067
2580	65.3808
2576	65.3951
2572	65.297
2568	65.2398
2564	65.2622
2560	65.2618
2556	65.2877
2552	65.3673
2548	65.3702
2544	65.2899
2540	65.2551
2536	65.3191
2532	65.3731
2528	65.353
2524	65.3573
2520	65.416
2516	65.5085
2512	65.5262
2508	65.413
2504	65.3384
2500	65.2977
2496	65.181
2492	65.127
2488	65.2564
2484	65.4085
2480	65.4407
2476	65.366
2472	65.244
2468	65.1659
2464	65.1794
2460	65.2627
2456	65.3895
2452	65.4819
2448	65.4884
2444	65.4966
2440	65.5098
2436	65.5403
2432	65.523
2428	65.3064
2424	65.1553
2420	65.2263
2416	65.2745
2412	65.1888
2408	65.1134
2404	65.2316
2400	65.4142
2396	65.4716
2392	65.4474
2388	65.3991
2384	65.3789
2380	65.3945
2376	65.3617
2372	65.3289
2368	65.3652
2364	65.3392
2360	65.2867
2356	65.3689
2352	65.5015
2348	65.5327
2344	65.4964
2340	65.4757
2336	65.4451
2332	65.4559
2328	65.4517
2324	65.3683
2320	65.3603
2316	65.428
2312	65.4452
2308	65.3979
2304	65.3634
2300	65.3928
2296	65.4132
2292	65.3384
2288	65.2758
2284	65.3067
2280	65.3462
2276	65.3413
2272	65.309
2268	65.3054
2264	65.3588
2260	65.4024
2256	65.448
2252	65.5293
2248	65.5153
2244	65.4641
2240	65.4781
2236	65.4437
2232	65.3939
2228	65.4488
2224	65.529
2220	65.5306
2216	65.5028
2212	65.4777
2208	65.4124
2204	65.335
2200	65.3106
2196	65.2808
2192	65.2567
2188	65.3254
2184	65.4057
2180	65.4486
2176	65.4682
2172	65.4658
2168	65.5052
2164	65.5306
2160	65.4068
2156	65.2177
2152	65.161
2148	65.2412
2144	65.3477
2140	65.4031
2136	65.3726
2132	65.3756
2128	65.3949
2124	65.3476
2120	65.3964
2116	65.501
2112	65.5303
2108	65.4968
2104	65.4448
2100	65.4666
2096	65.4813
2092	65.4602
2088	65.5711
2084	65.6997
2080	65.6428
2076	65.5053
2072	65.4533
2068	65.4366
2064	65.2405
2060	64.9491
2056	64.9215
2052	65.2539
2048	65.5648
2044	65.5411
2040	65.4252
2036	65.4363
2032	65.4456
2028	65.372
2024	65.3027
2020	65.3489
2016	65.4921
2012	65.5143
2008	65.3954
2004	65.3289
2000	65.3184
1996	65.3139
1992	65.3279
1988	65.3432
1984	65.364
1980	65.374
1976	65.357
1972	65.3964
1968	65.4461
1964	65.4036
1960	65.3437
1956	65.3393
1952	65.3802
1948	65.4132
1944	65.4151
1940	65.4196
1936	65.3972
1932	65.3245
1928	65.3234
1924	65.3926
1920	65.3883
1916	65.3534
1912	65.3889
1908	65.421
1904	65.3636
1900	65.3052
1896	65.3259
1892	65.3443
1888	65.3311
1884	65.3393
1880	65.3592
1876	65.4129
1872	65.4447
1868	65.4013
1864	65.3743
1860	65.3622
1856	65.3291
1852	65.308
1848	65.3002
1844	65.323
1840	65.3949
1836	65.4446
1832	65.4372
1828	65.4248
1824	65.4379
1820	65.4662
1816	65.514
1812	65.4977
1808	65.3601
1804	65.2505
1800	65.2462
1796	65.2993
1792	65.3428
1788	65.3569
1784	65.4071
1780	65.4147
1776	65.3653
1772	65.3597
1768	65.3657
1764	65.3995
1760	65.4206
1756	65.3491
1752	65.259
1748	65.2042
1744	65.1886
1740	65.2138
1736	65.2048
1732	65.0666
1728	64.9068
1724	64.9
1720	65.1285
1716	65.451
1712	65.4919
1708	65.3131
1704	65.2236
1700	65.2297
1696	65.2959
1692	65.3952
1688	65.4569
1684	65.4175
1680	65.3406
1676	65.324
1672	65.3354
1668	65.3494
1664	65.3143
1660	65.2547
1656	65.2575
1652	65.2696
1648	65.2765
1644	65.3129
1640	65.2932
1636	65.1989
1632	65.1067
1628	65.0691
1624	65.1093
1620	65.1162
1616	65.0456
1612	65.0162
1608	65.0606
1604	65.1252
1600	65.1368
1596	65.0846
1592	65.0247
1588	65.0266
1584	65.1019
1580	65.1746
1576	65.1781
1572	65.1058
1568	65.0601
1564	65.0932
1560	65.1276
1556	65.1227
1552	65.14
1548	65.1515
1544	65.124
1540	65.137
1536	65.1747
1532	65.1799
1528	65.1694
1524	65.1614
1520	65.1377
1516	65.1282
1512	65.1322
1508	65.097
1504	65.0699
1500	65.0321
1496	64.95
1492	65.0213
1488	65.172
1484	65.2163
1480	65.2245
1476	65.2067
1472	65.2004
1468	65.2158
1464	65.1873
1460	65.1173
1456	65.0783
1452	65.059
1448	65.0651
1444	65.1523
1440	65.2505
1436	65.293
1432	65.2362
1428	65.1616
1424	65.1773
1420	65.2465
1416	65.3051
1412	65.274
1408	65.2021
1404	65.1668
1400	65.1905
1396	65.2768
1392	65.2808
1388	65.2123
1384	65.2228
1380	65.2611
1376	65.2109
1372	65.1265
1368	65.1222
1364	65.1692
1360	65.2099
1356	65.202
1352	65.1621
1348	65.1501
1344	65.1572
1340	65.228
1336	65.2567
1332	65.1736
1328	65.1382
1324	65.1441
1320	65.0838
1316	64.9827
1312	64.9464
1308	64.9853
1304	65.0711
1300	65.1571
1296	65.2243
1292	65.2994
1288	65.295
1284	65.1976
1280	65.096
1276	65.0313
1272	65.0244
1268	65.0545
1264	65.1278
1260	65.1805
1256	65.1452
1252	65.1005
1248	65.0101
1244	64.911
1240	64.9508
1236	65.0747
1232	65.1495
1228	65.1182
1224	65.0439
1220	65.0161
1216	65.01
1212	65.0152
1208	65.0944
1204	65.1389
1200	65.0165
1196	64.8692
1192	64.8577
1188	64.9517
1184	65.0436
1180	65.0123
1176	64.9099
1172	64.8916
1168	64.8919
1164	64.8713
1160	64.9138
1156	64.9862
1152	64.9287
1148	64.7594
1144	64.6757
1140	64.7574
1136	64.9335
1132	65.0116
1128	64.9506
1124	64.8861
1120	64.8238
1116	64.7427
1112	64.769
1108	64.9548
1104	65.136
1100	65.1723
1096	65.1245
1092	65.0088
1088	64.7645
1084	64.6361
1080	64.6878
1076	64.6944
1072	64.6885
1068	64.675
1064	64.5976
1060	64.558
1056	64.5262
1052	64.4154
1048	64.3936
1044	64.5546
1040	64.8038
1036	64.9832
1032	65.0182
1028	64.9186
1024	64.5498
1020	64.1045
1016	64.0759
1012	64.3743
1008	64.5206
1004	64.5282
1000	64.652
996	 64.9714
992	 65.2184
988	 64.9956
984	 64.6019
980	 64.4086
976	 64.1602
972	 64.1559
968	 64.5276
964	 64.6338
960	 64.7533
956	 64.9089
952	 64.8081
948	 64.8887
944	 64.8945
940	 64.7628
936	 64.807
932	 64.7095
928	 64.6108
924	 64.7849
920	 64.9412
916	 64.8866
912	 64.6782
908	 64.5251
904	 64.5382
900	 64.6627
896	 64.8197
892	 64.8453
888	 64.7381
884	 64.6494
880	 64.5385
876	 64.451
872	 64.5215
868	 64.5677
864	 64.4989
860	 64.3886
856	 64.2471
852	 64.2149
848	 64.342
844	 64.5456
840	 64.7701
836	 64.7804
832	 64.5562
828	 64.3499
824	 64.2312
820	 64.1897
816	 64.2317
812	 64.297
808	 64.3594
804	 64.4242
800	 64.407
796	 64.2706
792	 64.1635
788	 64.2807
784	 64.4266
780	 64.3116
776	 64.1126
772	 64.0596
768	 64.1096
764	 64.1106
760	 64.0509
756	 64.0699
752	 64.1447
748	 63.9516
744	 63.443
740	 63.0533
736	 63.0961
732	 63.4887
728	 63.8292
724	 63.9345
720	 63.9155
716	 63.6769
712	 63.2965
708	 63.0921
704	 63.2299
700	 63.6599
696	 63.9446
692	 63.8009
688	 63.4007
684	 63.1746
680	 63.3502
676	 63.5196
672	 63.4226
668	 63.1135
664	 62.583
660	 62.265
656	 62.4388
652	 62.6299
648	 62.6628
644	 62.7367
640	 62.8489
636	 62.7946
632	 62.5307
628	 62.3397
624	 62.3773
620	 62.4865
616	 62.351
612	 62.1954
608	 62.4195
604	 62.6835
600	 62.6546
596	 62.5489
592	 62.5337
588	 62.6334
584	 62.8511
580	 62.8886
576	 62.5183
572	 61.9941
568	 61.7051
564	 61.6938
560	 61.5108
556	 61.1623
552	 61.2678
548	 61.662
544	 61.7019
540	 61.5003
536	 61.4352
532	 61.5488
528	 61.6973
524	 61.5456
520	 61.1725
516	 60.9534
512	 60.6891
508	 60.5314
504	 60.5316
500	 60.1747
496	 59.7728
492	 59.8194
488	 60.0537
484	 59.8133
480	 59.1102
476	 58.9972
472	 59.3058
468	 58.9584
464	 58.3417
460	 58.627
456	 59.542
452	 59.9143
448	 59.5711
444	 59.0719
440	 58.6745
436	 57.6196
432	 55.3141
428	 53.3274
424	 53.6164
420	 56.2781
416	 58.0743
412	 55.5127
408	 51.427
404	 46.4811
400	 42.2066
396	 52.8191
392	 72.0859
388	 76.7174
384	 69.1693
380	 62.7195
376	 59.2123
372	 50.0896
370	 42.7967