File: Bakgrunnsmateriale/MATLAB/FTIR/ftir_data/subBb/Mapping_121/C-4040-8_t42.asc
PE IR       SPECTRUM    SPECTRUM    ASCII       PEDS        1.60
  -1
C-A532~1.ASC
17/03/27
17:53:07.00
17/03/27
17:53:33.00
tln
$C-4040-8_t0042$<tbV0>[-7.8,-5.2,8.0,0.0,27,1,0]
27.028
64

2002,4.07
MIRTGS : RIGHTBACK : INTERNAL 2
MIR : ON : INTERNAL 2
OPTKBR

0.200000
8
8.000000
FILLER
RATIO
SPECTRUM
UNLOCKED 256

DOUBLE
64
COMBINED
1
0
0

0.002000
RATIO

1
0
TRUE
51149
0
LEFT NOT FITTED RIGHT NOT FITTED 0
NONE
NONE
15600
12
4.427000
51148
TRUE
1 0 8 72 0 0 0 0

15798

#HDR
-1
-1
#GR
µM
%T
2.38419e-05
0.0
2.000000
0.002000
12515
8
115.791
43.6513
#DATA
2.000000	 64.7132
2.018000	 64.2251
2.036000	 64.4985
2.054000	 64.7574
2.072000	 64.7475
2.090000	 64.7995
2.108000	 64.9454
2.126000	 64.8035
2.144000	 64.582
2.162000	 64.5811
2.180000	 64.4047
2.198000	 65.0423
2.216000	 64.7242
2.234000	 64.4594
2.252000	 64.4041
2.270000	 64.2817
2.288000	 65.5222
2.306000	 61.9067
2.324000	 64.4923
2.342000	 64.3556
2.360000	 64.4857
2.378000	 64.4434
2.396000	 64.7791
2.414000	 64.4023
2.432000	 64.4127
2.450000	 64.4626
2.468000	 64.3627
2.486000	 64.3732
2.504000	 64.3511
2.522000	 64.3251
2.540000	 64.3753
2.558000	 64.1598
2.576000	 64.565
2.594000	 64.5671
2.612000	 64.1708
2.630000	 64.2992
2.648000	 64.4228
2.666000	 64.4462
2.684000	 64.4445
2.702000	 64.3508
2.720000	 64.1207
2.738000	 64.2745
2.756000	 64.3133
2.774000	 64.1204
2.792000	 64.3627
2.810000	 63.9988
2.828000	 64.017
2.846000	 64.1864
2.864000	 64.1638
2.882000	 63.7701
2.900000	 64.0071
2.918000	 64.0379
2.936000	 63.9007
2.954000	 63.8281
2.972000	 63.7785
2.990000	 63.7303
3.008000	 63.6876
3.026000	 63.719
3.044000	 63.8088
3.062000	 63.5888
3.080000	 63.7135
3.098000	 63.7581
3.116000	 63.2952
3.134000	 63.8001
3.152000	 63.3482
3.170000	 63.4617
3.188000	 63.4145
3.206000	 63.5806
3.224000	 63.4937
3.242000	 63.3568
3.260000	 63.4771
3.278000	 63.3385
3.296000	 63.393
3.314000	 63.3069
3.332000	 63.2602
3.350000	 63.2282
3.368000	 63.3555
3.386000	 62.9753
3.404000	 63.0109
3.422000	 62.7476
3.440000	 62.9294
3.458000	 63.1426
3.476000	 62.8257
3.494000	 62.9186
3.512000	 62.8033
3.530000	 62.9986
3.548000	 62.9276
3.566000	 62.9743
3.584000	 62.9559
3.602000	 62.9064
3.620000	 62.7652
3.638000	 62.7883
3.656000	 62.6668
3.674000	 62.8028
3.692000	 62.7219
3.710000	 62.6215
3.728000	 62.6426
3.746000	 62.7006
3.764000	 62.4817
3.782000	 62.4909
3.800000	 62.5751
3.818000	 62.4459
3.836000	 62.4001
3.854000	 62.4296
3.872000	 62.415
3.890000	 62.4248
3.908000	 62.3415
3.926000	 62.4006
3.944000	 62.3359
3.962000	 62.3158
3.980000	 62.1531
3.998000	 62.0901
4.016000	 61.9561
4.034000	 62.2798
4.052000	 62.1432
4.070000	 62.0625
4.088000	 61.9277
4.106000	 61.7886
4.124000	 61.9779
4.141999	 62.0786
4.160000	 62.0044
4.178000	 62.0087
4.196000	 61.8058
4.214000	 61.8211
4.232000	 61.8734
4.250000	 61.8052
4.268000	 61.8681
4.286000	 61.6651
4.304000	 61.6263
4.322000	 61.6818
4.340000	 61.6653
4.358000	 61.5382
4.375999	 61.5676
4.394000	 61.4877
4.412000	 61.518
4.430000	 61.4528
4.448000	 61.3682
4.466000	 61.3335
4.484000	 61.4984
4.502000	 61.3066
4.520000	 61.4167
4.538000	 61.4408
4.556000	 61.4567
4.574000	 61.4077
4.592000	 61.4477
4.609999	 61.3086
4.628000	 61.4401
4.646000	 61.0046
4.664000	 61.0917
4.682000	 61.3014
4.700000	 61.2225
4.718000	 61.0626
4.736000	 61.0956
4.754000	 61.1098
4.772000	 61.0116
4.790000	 61.0704
4.808000	 61.0441
4.826000	 60.9413
4.843999	 60.8566
4.862000	 60.9405
4.880000	 60.7484
4.898000	 60.8511
4.916000	 60.7104
4.934000	 60.7683
4.952000	 60.8299
4.970000	 60.9207
4.988000	 60.7769
5.006000	 60.7497
5.024000	 60.8004
5.042000	 60.7326
5.060000	 60.6997
5.077999	 60.6485
5.096000	 60.617
5.114000	 60.7056
5.132000	 60.5986
5.150000	 60.5029
5.168000	 60.6046
5.186000	 60.55
5.204000	 60.5189
5.222000	 60.4863
5.240000	 60.4445
5.258000	 60.3529
5.276000	 60.2781
5.294000	 60.2729
5.312000	 60.343
5.330000	 60.263
5.348000	 60.2587
5.366000	 60.3547
5.384000	 60.3003
5.402000	 60.2719
5.420000	 60.2514
5.438000	 60.3019
5.456000	 60.2428
5.474000	 60.1955
5.492000	 60.1253
5.510000	 60.1186
5.528000	 60.0856
5.546000	 59.9851
5.564000	 59.994
5.582000	 60.003
5.600000	 59.9513
5.618000	 59.8866
5.636000	 59.9243
5.654000	 59.9019
5.672000	 59.7721
5.690000	 59.665
5.708000	 59.7554
5.726000	 59.8962
5.744000	 59.8282
5.762000	 59.723
5.780000	 59.6643
5.798000	 59.601
5.816000	 59.4726
5.834000	 59.4994
5.852000	 59.6633
5.870000	 59.7307
5.888000	 59.6939
5.906000	 59.6517
5.923999	 59.6607
5.942000	 59.6503
5.960000	 59.6554
5.978000	 59.6572
5.996000	 59.6465
6.014000	 59.5978
6.032000	 59.5482
6.050000	 59.3736
6.068000	 59.338
6.086000	 59.5083
6.104000	 59.5546
6.122000	 59.4515
6.140000	 59.4163
6.158000	 59.3929
6.176000	 59.29
6.194000	 59.3255
6.212000	 59.3839
6.230000	 59.3032
6.248000	 59.1921
6.266000	 59.1584
6.284000	 59.1999
6.302000	 59.294
6.320000	 59.3964
6.338000	 59.3777
6.356000	 59.2326
6.374000	 59.0983
6.392000	 59.0915
6.410000	 59.2063
6.428000	 59.1741
6.446000	 59.0403
6.464000	 58.987
6.482000	 58.987
6.500000	 58.979
6.518000	 58.9546
6.536000	 58.9684
6.554000	 59.0037
6.572000	 58.992
6.590000	 58.9241
6.608000	 58.8955
6.626000	 58.8886
6.644000	 58.8613
6.662000	 58.8742
6.680000	 58.9264
6.698000	 58.9685
6.716000	 58.9661
6.734000	 58.9332
6.752000	 58.8791
6.770000	 58.8243
6.788000	 58.7719
6.806000	 58.744
6.824000	 58.7713
6.842000	 58.803
6.860000	 58.7917
6.878000	 58.7154
6.896000	 58.6619
6.914000	 58.7171
6.932000	 58.7397
6.950000	 58.6524
6.968000	 58.5639
6.986000	 58.506
7.004000	 58.4585
7.022000	 58.4934
7.040000	 58.6146
7.058000	 58.6985
7.076000	 58.6815
7.094000	 58.6022
7.112000	 58.5316
7.130000	 58.5055
7.148000	 58.4936
7.166000	 58.4789
7.184000	 58.4802
7.202000	 58.4847
7.220000	 58.4773
7.238000	 58.4879
7.256000	 58.525
7.274000	 58.5328
7.292000	 58.484
7.310000	 58.4156
7.328000	 58.3934
7.346000	 58.4434
7.364000	 58.4888
7.382000	 58.4636
7.400000	 58.4013
7.418000	 58.3217
7.436000	 58.2319
7.454000	 58.1972
7.472000	 58.2277
7.490000	 58.2239
7.508000	 58.1485
7.526000	 58.0974
7.544000	 58.1222
7.562000	 58.1377
7.580000	 58.0905
7.598000	 58.0401
7.616000	 58.0242
7.634000	 58.0271
7.652000	 58.0603
7.670000	 58.1281
7.688000	 58.1802
7.706000	 58.1906
7.724000	 58.1838
7.742000	 58.1536
7.760000	 58.0755
7.778000	 57.9895
7.796000	 57.969
7.814000	 58.0195
7.832000	 58.0717
7.850000	 58.0767
7.868000	 58.0585
7.886000	 58.0512
7.904000	 58.0489
7.922000	 58.0392
7.940000	 58.0301
7.958000	 58.0212
7.976000	 58.0052
7.994000	 57.9948
8.012000	 57.9996
8.030000	 57.9891
8.048000	 57.9295
8.065999	 57.8492
8.084000	 57.8184
8.102000	 57.855
8.120000	 57.8956
8.138000	 57.8812
8.155999	 57.8298
8.173999	 57.7985
8.192000	 57.8032
8.210000	 57.8118
8.228000	 57.8011
8.246000	 57.7789
8.263999	 57.7488
8.282000	 57.689
8.300000	 57.6013
8.318000	 57.5452
8.336000	 57.5872
8.353999	 57.7018
8.372000	 57.7726
8.390000	 57.7172
8.408000	 57.5832
8.426000	 57.4997
8.443999	 57.5352
8.462000	 57.6197
8.480000	 57.6228
8.498000	 57.4993
8.516000	 57.3411
8.533999	 57.2787
8.552000	 57.3509
8.570000	 57.4886
8.588000	 57.5947
8.606000	 57.6187
8.624000	 57.5755
8.641999	 57.5219
8.660000	 57.5059
8.678000	 57.5278
8.696000	 57.5489
8.714000	 57.539
8.731999	 57.5062
8.750000	 57.4768
8.768000	 57.4641
8.786000	 57.4667
8.804000	 57.4877
8.821999	 57.5266
8.840000	 57.5568
8.858000	 57.5326
8.876000	 57.4405
8.894000	 57.324
8.911999	 57.2525
8.930000	 57.2623
8.948000	 57.3272
8.966000	 57.3746
8.984000	 57.3437
9.001999	 57.2367
9.020000	 57.1142
9.038000	 57.0414
9.056000	 57.0345
9.074000	 57.063
9.092000	 57.0979
9.109999	 57.142
9.128000	 57.2152
9.146000	 57.3206
9.164000	 57.431
9.182000	 57.5059
9.199999	 57.5269
9.218000	 57.5169
9.236000	 57.5184
9.254000	 57.5484
9.272000	 57.5735
9.289999	 57.5388
9.308000	 57.4236
9.326000	 57.2667
9.344000	 57.134
9.362000	 57.061
9.379999	 57.0335
9.398000	 57.0139
9.416000	 56.9804
9.434000	 56.9402
9.452000	 56.9129
9.469999	 56.9082
9.488000	 56.9234
9.506000	 56.9524
9.524000	 56.9914
9.542000	 57.0309
9.560000	 57.0508
9.577999	 57.0313
9.596000	 56.9743
9.614000	 56.9106
9.632000	 56.8825
9.650000	 56.9127
9.667999	 56.9855
9.686000	 57.0578
9.704000	 57.0895
9.722000	 57.0689
9.740000	 57.0157
9.757999	 56.96
9.776000	 56.9197
9.794000	 56.8943
9.812000	 56.8767
9.830000	 56.8686
9.847999	 56.8807
9.866000	 56.9184
9.884000	 56.9676
9.902000	 56.9984
9.920000	 56.9846
9.937999	 56.9231
9.956000	 56.8339
9.974000	 56.7434
9.992000	 56.6656
10.01	56.5985
10.028	56.5374
10.046	56.4896
10.064	56.4754
10.082	56.5122
10.1	56.5954
10.118	56.6918
10.136	56.7558
10.154	56.7559
10.172	56.693
10.19	56.5992
10.208	56.5148
10.226	56.4649
10.244	56.4477
10.262	56.4405
10.28	56.4209
10.298	56.382
10.316	56.3357
10.334	56.3038
10.352	56.3028
10.37	56.3355
10.388	56.3913
10.406	56.4546
10.424	56.5128
10.442	56.5576
10.46	56.5844
10.478	56.5885
10.496	56.567
10.514	56.5222
10.532	56.4651
10.55	56.4094
10.568	56.365
10.586	56.331
10.604	56.2975
10.622	56.2543
10.64	56.2026
10.658	56.1563
10.676	56.1345
10.694	56.1464
10.712	56.1838
10.73	56.2249
10.748	56.2463
10.766	56.2392
10.784	56.2126
10.802	56.1876
10.82	56.1829
10.838	56.2056
10.856	56.2498
10.874	56.3019
10.892	56.349
10.91	56.3817
10.928	56.3959
10.946	56.3904
10.964	56.3678
10.982	56.3344
11	56.2988
11.018	56.2701
11.036	56.2526
11.054	56.2438
11.072	56.2358
11.09	56.2212
11.108	56.1978
11.126	56.1705
11.144	56.148
11.162	56.1375
11.18	56.1398
11.198	56.1494
11.216	56.1582
11.234	56.1597
11.252	56.1516
11.27	56.1373
11.288	56.1238
11.306	56.1173
11.324	56.121
11.342	56.1334
11.36	56.149
11.378	56.1589
11.396	56.1546
11.414	56.1293
11.432	56.0801
11.45	56.0094
11.468	55.9259
11.486	55.8426
11.504	55.7742
11.522	55.7336
11.54	55.7267
11.558	55.7519
11.576	55.7993
11.594	55.8555
11.612	55.906
11.63	55.9409
11.648	55.9574
11.666	55.9586
11.684	55.9516
11.702	55.9442
11.72	55.9418
11.738	55.945
11.756	55.9491
11.774	55.9466
11.792	55.9289
11.81	55.8898
11.828	55.8283
11.846	55.7498
11.864	55.6661
11.882	55.5918
11.9	55.5411
11.918	55.523
11.936	55.5385
11.954	55.5791
11.972	55.6297
11.99	55.6735
12.008	55.697
12.026	55.6954
12.044	55.6726
12.062	55.6418
12.08	55.6194
12.098	55.6183
12.116	55.6432
12.134	55.6869
12.152	55.7333
12.17	55.7639
12.188	55.7636
12.206	55.7269
12.224	55.6589
12.242	55.5728
12.26	55.4842
12.278	55.4083
12.296	55.3562
12.314	55.3347
12.332	55.3445
12.35	55.382
12.368	55.4391
12.386	55.5046
12.404	55.5664
12.422	55.6143
12.44	55.6405
12.458	55.6423
12.476	55.6217
12.494	55.5847
12.512	55.5396
12.53	55.4952
12.548	55.4587
12.566	55.4342
12.584	55.4219
12.602	55.4184
12.62	55.4179
12.638	55.4135
12.656	55.3993
12.674	55.3709
12.692	55.3272
12.71	55.2704
12.728	55.2057
12.746	55.1402
12.764	55.0811
12.782	55.0345
12.8	55.0034
12.818	54.9877
12.836	54.9839
12.854	54.9867
12.872	54.9894
12.89	54.986
12.908	54.9724
12.926	54.947
12.944	54.9115
12.962	54.8702
12.98	54.8298
12.998	54.7973
13.016	54.7793
13.034	54.7806
13.052	54.8032
13.07	54.8451
13.088	54.9009
13.106	54.9616
13.124	55.0169
13.142	55.0567
13.16	55.0725
13.178	55.0594
13.196	55.0169
13.214	54.9487
13.232	54.8615
13.25	54.7638
13.268	54.6651
13.286	54.5747
13.304	54.5006
13.322	54.4494
13.34	54.4255
13.358	54.4307
13.376	54.4633
13.394	54.5181
13.412	54.5867
13.43	54.6579
13.448	54.7195
13.466	54.7599
13.484	54.7705
13.502	54.7473
13.52	54.6919
13.538	54.6118
13.556	54.5187
13.574	54.426
13.592	54.3466
13.61	54.2907
13.628	54.2635
13.646	54.2652
13.664	54.2908
13.682	54.3318
13.7	54.3777
13.718	54.4186
13.736	54.4465
13.754	54.4562
13.772	54.4466
13.79	54.4201
13.808	54.3818
13.826	54.3382
13.844	54.2958
13.862	54.2596
13.88	54.2324
13.898	54.2149
13.916	54.2058
13.934	54.2027
13.952	54.2028
13.97	54.2041
13.988	54.2058
14.006	54.2089
14.024	54.2162
14.042	54.231
14.06	54.2563
14.078	54.2939
14.096	54.344
14.114	54.4044
14.132	54.471
14.15	54.5379
14.168	54.5986
14.186	54.6465
14.204	54.6768
14.222	54.686
14.24	54.6729
14.258	54.6382
14.276	54.5845
14.294	54.5157
14.312	54.4366
14.33	54.352
14.348	54.2666
14.366	54.1846
14.384	54.1097
14.402	54.0447
14.42	53.9914
14.438	53.9509
14.456	53.9236
14.474	53.9091
14.492	53.9064
14.51	53.9137
14.528	53.9288
14.546	53.9495
14.564	53.9733
14.582	53.9981
14.6	54.0218
14.618	54.0425
14.636	54.0588
14.654	54.0698
14.672	54.0751
14.69	54.0744
14.708	54.0683
14.726	54.0578
14.744	54.0447
14.762	54.0314
14.78	54.0201
14.798	54.0132
14.816	54.013
14.834	54.021
14.852	54.0376
14.87	54.0617
14.888	54.091
14.906	54.1228
14.924	54.1532
14.942	54.1779
14.96	54.1933
14.978	54.1968
14.996	54.1873
15.014	54.1648
15.032	54.1314
15.05	54.0906
15.068	54.046
15.086	54.0012
15.104	53.9598
15.122	53.9249
15.14	53.8976
15.158	53.8777
15.176	53.864
15.194	53.8547
15.212	53.8467
15.23	53.8378
15.248	53.8261
15.266	53.8103
15.284	53.7899
15.302	53.7655
15.32	53.7382
15.338	53.7093
15.356	53.6805
15.374	53.6528
15.392	53.6266
15.41	53.6019
15.428	53.5781
15.446	53.5539
15.464	53.5281
15.482	53.4996
15.5	53.4675
15.518	53.4317
15.536	53.3933
15.554	53.3534
15.572	53.3139
15.59	53.2779
15.608	53.2477
15.626	53.2255
15.644	53.2137
15.662	53.2136
15.68	53.2255
15.698	53.2491
15.716	53.2834
15.734	53.3264
15.752	53.376
15.77	53.4301
15.788	53.4856
15.806	53.5404
15.824	53.5926
15.842	53.6403
15.86	53.6821
15.878	53.7175
15.896	53.7458
15.914	53.7668
15.932	53.7808
15.95	53.788
15.968	53.7885
15.986	53.7833
16.004	53.7725
16.022	53.7564
16.04	53.7358
16.058	53.711
16.076	53.6824
16.094	53.6502
16.112	53.6147
16.13	53.5763
16.148	53.5353
16.166	53.4924
16.184	53.4481
16.202	53.4031
16.22	53.3586
16.238	53.3156
16.256	53.275
16.274	53.2383
16.292	53.2065
16.31	53.1802
16.328	53.1605
16.346	53.1474
16.364	53.141
16.382	53.1411
16.4	53.1471
16.418	53.1584
16.436	53.1738
16.454	53.1919
16.472	53.2117
16.49	53.2313
16.508	53.2494
16.526	53.2646
16.544	53.2751
16.562	53.2797
16.58	53.2772
16.598	53.2665
16.616	53.2475
16.634	53.22
16.652	53.1847
16.67	53.1425
16.688	53.0947
16.706	53.0437
16.724	52.9911
16.742	52.9392
16.76	52.8909
16.778	52.8473
16.796	52.8107
16.814	52.7818
16.832	52.7612
16.85	52.7487
16.868	52.7435
16.886	52.7447
16.904	52.7503
16.922	52.759
16.94	52.7689
16.958	52.7779
16.976	52.7853
16.994	52.7896
17.012	52.7905
17.03	52.7878
17.048	52.7815
17.066	52.7718
17.084	52.7591
17.102	52.7439
17.12	52.7264
17.138	52.7065
17.156	52.6838
17.174	52.6578
17.192	52.6275
17.21	52.5925
17.228	52.5518
17.246	52.5052
17.264	52.4525
17.282	52.3943
17.3	52.3316
17.318	52.2658
17.336	52.1994
17.354	52.1338
17.372	52.0726
17.39	52.0172
17.408	51.9706
17.426	51.9341
17.444	51.9089
17.462	51.8955
17.48	51.8937
17.498	51.9029
17.516	51.9214
17.534	51.9481
17.552	51.98
17.57	52.0162
17.588	52.0536
17.606	52.091
17.624	52.1265
17.642	52.1591
17.66	52.1883
17.678	52.2135
17.696	52.2346
17.714	52.2522
17.732	52.2664
17.75	52.2778
17.768	52.2872
17.786	52.2949
17.804	52.3015
17.822	52.3074
17.84	52.3131
17.858	52.3189
17.876	52.3252
17.894	52.3327
17.912	52.3414
17.93	52.3523
17.948	52.3655
17.966	52.3815
17.984	52.4003
18.002	52.4221
18.02	52.4464
18.038	52.4731
18.056	52.5009
18.074	52.5297
18.092	52.5577
18.11	52.5847
18.128	52.6085
18.146	52.629
18.164	52.6449
18.182	52.6559
18.2	52.6614
18.218	52.6618
18.236	52.6567
18.254	52.6472
18.272	52.6332
18.29	52.6162
18.308	52.5963
18.326	52.575
18.344	52.5524
18.362	52.5298
18.38	52.5073
18.398	52.4854
18.416	52.464
18.434	52.4435
18.452	52.4234
18.47	52.4034
18.488	52.3829
18.506	52.3617
18.524	52.3388
18.542	52.3142
18.56	52.2868
18.578	52.2568
18.596	52.2236
18.614	52.1871
18.632	52.1475
18.65	52.1049
18.668	52.06
18.686	52.013
18.704	51.9648
18.722	51.9159
18.74	51.8679
18.758	51.8212
18.776	51.7776
18.794	51.7378
18.812	51.7036
18.83	51.6755
18.848	51.655
18.866	51.6422
18.884	51.6383
18.902	51.6433
18.92	51.6576
18.938	51.6806
18.956	51.712
18.974	51.7508
18.992	51.7957
19.01	51.8454
19.028	51.8984
19.046	51.9532
19.064	52.0079
19.082	52.0614
19.1	52.1115
19.118	52.1575
19.136	52.1975
19.154	52.2313
19.172	52.2571
19.19	52.2751
19.208	52.2841
19.226	52.2845
19.244	52.2759
19.262	52.2588
19.28	52.2335
19.298	52.2004
19.316	52.1604
19.334	52.1138
19.352	52.0621
19.37	52.0052
19.388	51.9455
19.406	51.8828
19.424	51.8193
19.442	51.7551
19.46	51.6925
19.478	51.6315
19.496	51.574
19.514	51.5203
19.532	51.4716
19.55	51.4286
19.568	51.3917
19.586	51.3614
19.604	51.3376
19.622	51.3205
19.64	51.3097
19.658	51.3043
19.676	51.3042
19.694	51.3075
19.712	51.3144
19.73	51.322
19.748	51.3305
19.766	51.3371
19.784	51.3415
19.802	51.3416
19.82	51.3363
19.838	51.3249
19.856	51.3055
19.874	51.2785
19.892	51.2424
19.91	51.1977
19.928	51.1443
19.946	51.082
19.964	51.0124
19.982	50.9353
20	50.8529
20.018	50.7659
20.036	50.6759
20.054	50.5854
20.072	50.4946
20.09	50.4075
20.108	50.3234
20.126	50.2465
20.144	50.1767
20.162	50.1167
20.18	50.0678
20.198	50.0305
20.216	50.007
20.234	49.9966
20.252	50.0003
20.27	50.0181
20.288	50.049
20.306	50.0934
20.324	50.1492
20.342	50.2155
20.36	50.2914
20.378	50.3736
20.396	50.4624
20.414	50.5533
20.432	50.6468
20.45	50.7387
20.468	50.8275
20.486	50.912
20.504	50.9882
20.522	51.0572
20.54	51.1153
20.558	51.1628
20.576	51.1987
20.594	51.2221
20.612	51.2335
20.63	51.2327
20.648	51.2198
20.666	51.1965
20.684	51.1623
20.702	51.1195
20.72	51.0693
20.738	51.012
20.756	50.9507
20.774	50.8847
20.792	50.8172
20.81	50.7484
20.828	50.6795
20.846	50.6123
20.864	50.5463
20.882	50.4833
20.9	50.4234
20.918	50.367
20.936	50.3146
20.954	50.266
20.972	50.2215
20.99	50.1813
21.008	50.1451
21.026	50.113
21.044	50.085
21.062	50.0612
21.08	50.0413
21.098	50.0261
21.116	50.0153
21.134	50.0093
21.152	50.0089
21.17	50.0136
21.188	50.0251
21.206	50.0434
21.224	50.069
21.242	50.1035
21.26	50.1464
21.278	50.1987
21.296	50.2609
21.314	50.3325
21.332	50.4136
21.35	50.5043
21.368	50.6027
21.386	50.709
21.404	50.8219
21.422	50.9377
21.44	51.0579
21.458	51.1775
21.476	51.2952
21.494	51.4105
21.512	51.5169
21.53	51.6163
21.548	51.704
21.566	51.7766
21.584	51.8354
21.602	51.875
21.62	51.8953
21.638	51.896
21.656	51.8751
21.674	51.8331
21.692	51.7709
21.71	51.6876
21.728	51.5849
21.746	51.4659
21.764	51.3292
21.782	51.179
21.8	51.0181
21.818	50.8455
21.836	50.668
21.854	50.4853
21.872	50.2995
21.89	50.1163
21.908	49.9337
21.926	49.7557
21.944	49.5855
21.962	49.4215
21.98	49.2674
21.998	49.1235
22.016	48.9899
22.034	48.8677
22.052	48.7566
22.07	48.6567
22.088	48.5681
22.106	48.4906
22.124	48.4241
22.142	48.3685
22.16	48.3235
22.178	48.2887
22.196	48.2642
22.214	48.2495
22.232	48.2439
22.25	48.2478
22.268	48.2602
22.286	48.2804
22.304	48.3088
22.322	48.3433
22.34	48.3843
22.358	48.4308
22.376	48.48
22.394	48.533
22.412	48.5876
22.43	48.6405
22.448	48.6936
22.466	48.743
22.484	48.7857
22.502	48.8236
22.52	48.8522
22.538	48.8697
22.556	48.8773
22.574	48.8719
22.592	48.8526
22.61	48.8204
22.628	48.775
22.646	48.7154
22.664	48.6437
22.682	48.5622
22.7	48.469
22.718	48.3683
22.736	48.2648
22.754	48.1553
22.772	48.0462
22.79	47.9426
22.808	47.8411
22.826	47.749
22.844	47.6708
22.862	47.6033
22.88	47.5531
22.898	47.5234
22.916	47.5119
22.934	47.5223
22.952	47.5563
22.97	47.6124
22.988	47.6904
23.006	47.7915
23.024	47.9142
23.042	48.0539
23.06	48.2117
23.078	48.3859
23.096	48.5692
23.114	48.7632
23.132	48.9657
23.15	49.167
23.168	49.3684
23.186	49.5686
23.204	49.7591
23.222	49.9415
23.24	50.1143
23.258	50.2695
23.276	50.4087
23.294	50.5306
23.312	50.6282
23.33	50.7022
23.348	50.7524
23.366	50.7747
23.384	50.7682
23.402	50.7345
23.42	50.6745
23.438	50.5874
23.456	50.4742
23.474	50.3378
23.492	50.1783
23.51	49.9957
23.528	49.7923
23.546	49.5673
23.564	49.3212
23.582	49.0597
23.6	48.7835
23.618	48.4913
23.636	48.1926
23.654	47.8916
23.672	47.5841
23.69	47.2799
23.708	46.9852
23.726	46.6947
23.744	46.4165
23.762	46.1575
23.78	45.9125
23.798	45.6878
23.816	45.491
23.834	45.3182
23.852	45.1725
23.87	45.0598
23.888	44.9785
23.906	44.9292
23.924	44.9156
23.942	44.9384
23.96	44.9963
23.978	45.0898
23.996	45.2206
24.014	45.388
24.032	45.5864
24.05	45.8133
24.068	46.0728
24.086	46.3552
24.104	46.652
24.122	46.9701
24.14	47.3013
24.158	47.634
24.176	47.9731
24.194	48.3151
24.212	48.6479
24.23	48.9708
24.248	49.2864
24.266	49.5836
24.284	49.8561
24.302	50.1099
24.32	50.3381
24.338	50.5339
24.356	50.7005
24.374	50.8368
24.392	50.9394
24.41	51.0071
24.428	51.042
24.446	51.0466
24.464	51.0213
24.482	50.9653
24.5	50.8817
24.518	50.7727
24.536	50.634
24.554	50.4727
24.572	50.2978
24.59	50.1055
24.608	49.8977
24.626	49.6851
24.644	49.4704
24.662	49.2471
24.68	49.0307
24.698	48.835
24.716	48.6483
24.734	48.481
24.752	48.351
24.77	48.2558
24.788	48.1924
24.806	48.1816
24.824	48.2378
24.842	48.3477
24.86	48.5221
24.878	48.7753
24.896	49.101
24.914	49.5008
24.932	49.989
24.95	50.5737
24.968	51.2468
24.986	52.0125
25.004	52.876
25.022	53.8336
25.04	54.8867
25.058	56.04
25.076	57.2955
25.094	58.6499
25.112	60.1056
25.13	61.6656
25.148	63.3306
25.166	65.0974
25.184	66.9621
25.202	68.9245
25.22	70.9871
25.238	73.1411
25.256	75.378
25.274	77.7145
25.292	80.1351
25.31	82.6065
25.328	85.116
25.346	87.6938
25.364	90.2905
25.382	92.8505
25.4	95.4017
25.418	97.9397
25.436	100.392
25.454	102.706
25.472	104.944
25.49	107.052
25.508	108.955
25.526	110.644
25.544	112.153
25.562	113.429
25.58	114.419
25.598	115.146
25.616	115.611
25.634	115.79
25.652	115.66
25.67	115.229
25.688	114.519
25.706	113.552
25.724	112.31
25.742	110.794
25.76	109.061
25.778	107.162
25.796	105.048
25.814	102.751
25.832	100.344
25.85	97.8729
25.868	95.2754
25.886	92.6087
25.904	89.9466
25.922	87.3062
25.94	84.6474
25.958	82.0139
25.976	79.4501
25.994	76.9456
26.012	74.4917
26.03	72.1096
26.048	69.8184
26.066	67.607
26.084	65.4758
26.102	63.4318
26.12	61.4802
26.138	59.6167
26.156	57.8408
26.174	56.1527
26.192	54.548
26.21	53.0236
26.228	51.5935
26.246	50.272
26.264	49.0543
26.282	47.935
26.3	46.9322
26.318	46.0632
26.336	45.3186
26.354	44.6973
26.372	44.2145
26.39	43.8841
26.408	43.6976
26.426	43.6546
26.444	43.7624
26.462	44.0294
26.48	44.4626
26.498	45.0457
26.516	45.758
26.534	46.5868
26.552	47.5552
26.57	48.6418
26.588	49.8168
26.606	51.0655
26.624	52.4204
26.642	53.8485
26.66	55.3083
26.678	56.779
26.696	58.2962
26.714	59.8318
26.732	61.351
26.75	62.8347
26.768	64.3078
26.786	65.7594
26.804	67.1754
26.822	68.5486
26.84	69.8895
26.858	71.1931
26.876	72.453
26.894	73.667
26.912	74.8411
26.93	75.97
26.948	77.0478
26.966	78.103
26.984	79.1879
27.002	80.1807
27.02	80.9488
27.028	81.1591