File: Bakgrunnsmateriale/MATLAB/FTIR/ftir_data/subBb/Mapping_121/C-4040-8_t58.asc
PE IR       SPECTRUM    SPECTRUM    ASCII       PEDS        1.60
  -1
C-C93A~1.ASC
17/03/27
19:14:32.00
17/03/27
19:14:58.00
tln
$C-4040-8_t0058$<tbV0>[7.8,0.0,8.0,0.0,27,1,0]
27.028
64

2002,4.07
MIRTGS : RIGHTBACK : INTERNAL 2
MIR : ON : INTERNAL 2
OPTKBR

0.200000
8
8.000000
FILLER
RATIO
SPECTRUM
UNLOCKED 256

DOUBLE
64
COMBINED
1
0
0

0.002000
RATIO

1
0
TRUE
51149
0
LEFT NOT FITTED RIGHT NOT FITTED 0
NONE
NONE
15600
12
4.427000
51148
TRUE
1 0 8 72 0 0 0 0

15798

#HDR
-1
-1
#GR
µM
%T
2.38419e-05
0.0
2.000000
0.002000
12515
8
73.5809
29.2642
#DATA
2.000000	 65.1107
2.018000	 65.2165
2.036000	 65.2865
2.054000	 63.964
2.072000	 64.8934
2.090000	 65.0924
2.108000	 64.6642
2.126000	 65.1758
2.144000	 64.5652
2.162000	 64.8701
2.180000	 64.7802
2.198000	 64.3518
2.216000	 65.8386
2.234000	 65.1681
2.252000	 65.2747
2.270000	 65.7315
2.288000	 65.401
2.306000	 66.9428
2.324000	 65.6921
2.342000	 65.3812
2.360000	 64.7425
2.378000	 64.8115
2.396000	 64.9376
2.414000	 65.2386
2.432000	 64.902
2.450000	 65.2563
2.468000	 65.3316
2.486000	 65.0146
2.504000	 65.1951
2.522000	 65.107
2.540000	 65.0831
2.558000	 65.1862
2.576000	 65.1798
2.594000	 64.9673
2.612000	 64.9552
2.630000	 65.3948
2.648000	 65.2862
2.666000	 65.101
2.684000	 65.2934
2.702000	 65.0096
2.720000	 65.1319
2.738000	 65.0656
2.756000	 65.1975
2.774000	 64.9981
2.792000	 65.184
2.810000	 65.0086
2.828000	 65.1373
2.846000	 65.2211
2.864000	 65.1378
2.882000	 65.384
2.900000	 65.2805
2.918000	 65.1988
2.936000	 65.2284
2.954000	 65.2171
2.972000	 65.2314
2.990000	 65.0676
3.008000	 65.36
3.026000	 65.1634
3.044000	 64.9819
3.062000	 65.1137
3.080000	 65.3581
3.098000	 65.4004
3.116000	 64.9079
3.134000	 65.2468
3.152000	 65.4149
3.170000	 65.2154
3.188000	 65.0108
3.206000	 64.9354
3.224000	 65.159
3.242000	 65.3624
3.260000	 65.1927
3.278000	 65.3992
3.296000	 65.1118
3.314000	 65.1371
3.332000	 65.1415
3.350000	 65.0253
3.368000	 65.147
3.386000	 65.245
3.404000	 64.9622
3.422000	 65.0451
3.440000	 65.2524
3.458000	 65.023
3.476000	 65.209
3.494000	 65.0535
3.512000	 64.9638
3.530000	 64.9877
3.548000	 65.2314
3.566000	 65.2953
3.584000	 64.9949
3.602000	 65.2127
3.620000	 65.3668
3.638000	 65.1784
3.656000	 65.2615
3.674000	 65.2975
3.692000	 65.2438
3.710000	 65.2052
3.728000	 65.1915
3.746000	 65.3006
3.764000	 65.2115
3.782000	 65.2952
3.800000	 65.3258
3.818000	 65.233
3.836000	 65.4189
3.854000	 65.2402
3.872000	 65.3196
3.890000	 65.2499
3.908000	 65.3032
3.926000	 65.3828
3.944000	 65.2579
3.962000	 65.1869
3.980000	 65.2849
3.998000	 65.046
4.016000	 65.0815
4.034000	 65.2449
4.052000	 65.2873
4.070000	 65.3378
4.088000	 65.3897
4.106000	 65.6711
4.124000	 65.5666
4.141999	 64.8837
4.160000	 65.3082
4.178000	 65.2817
4.196000	 65.2335
4.214000	 65.3143
4.232000	 65.3786
4.250000	 65.2395
4.268000	 65.2468
4.286000	 65.3346
4.304000	 65.4045
4.322000	 65.2268
4.340000	 65.4976
4.358000	 65.3559
4.375999	 65.2678
4.394000	 65.1916
4.412000	 65.3206
4.430000	 65.2862
4.448000	 65.4865
4.466000	 65.3668
4.484000	 65.4294
4.502000	 65.2979
4.520000	 65.3267
4.538000	 65.2414
4.556000	 65.4463
4.574000	 65.2831
4.592000	 65.0909
4.609999	 65.0692
4.628000	 65.2175
4.646000	 65.315
4.664000	 65.2857
4.682000	 65.231
4.700000	 65.2777
4.718000	 65.2876
4.736000	 65.3226
4.754000	 65.3785
4.772000	 65.3141
4.790000	 65.3584
4.808000	 65.3085
4.826000	 65.3234
4.843999	 65.0566
4.862000	 65.1471
4.880000	 65.2573
4.898000	 65.2036
4.916000	 65.3252
4.934000	 65.4384
4.952000	 65.2829
4.970000	 65.2773
4.988000	 65.2862
5.006000	 65.2579
5.024000	 65.2688
5.042000	 65.2745
5.060000	 65.2787
5.077999	 65.3098
5.096000	 65.2958
5.114000	 65.2797
5.132000	 65.2647
5.150000	 65.2112
5.168000	 65.2271
5.186000	 65.3184
5.204000	 65.3463
5.222000	 65.3759
5.240000	 65.3354
5.258000	 65.2721
5.276000	 65.2791
5.294000	 65.3132
5.312000	 65.3128
5.330000	 65.3379
5.348000	 65.1806
5.366000	 65.2476
5.384000	 65.2692
5.402000	 65.179
5.420000	 65.1742
5.438000	 65.2873
5.456000	 65.3774
5.474000	 65.3702
5.492000	 65.2908
5.510000	 65.2513
5.528000	 65.2138
5.546000	 65.2255
5.564000	 65.1604
5.582000	 65.257
5.600000	 65.2855
5.618000	 65.2752
5.636000	 65.2827
5.654000	 65.3088
5.672000	 65.2062
5.690000	 65.2421
5.708000	 65.2548
5.726000	 65.1148
5.744000	 65.0612
5.762000	 65.0698
5.780000	 65.0207
5.798000	 64.8664
5.816000	 64.8949
5.834000	 65.0405
5.852000	 65.0749
5.870000	 65.1143
5.888000	 65.2529
5.906000	 65.2263
5.923999	 65.2426
5.942000	 65.3248
5.960000	 65.3372
5.978000	 65.3485
5.996000	 65.3385
6.014000	 65.2428
6.032000	 65.1147
6.050000	 65.1743
6.068000	 65.1555
6.086000	 65.1206
6.104000	 65.1181
6.122000	 65.0409
6.140000	 65.0435
6.158000	 65.1378
6.176000	 65.1396
6.194000	 65.0338
6.212000	 65.0068
6.230000	 65.0706
6.248000	 65.1243
6.266000	 65.1429
6.284000	 65.0973
6.302000	 65.081
6.320000	 65.0542
6.338000	 65.0249
6.356000	 65.0682
6.374000	 65.0899
6.392000	 65.0482
6.410000	 65.0454
6.428000	 65.1252
6.446000	 65.1793
6.464000	 65.0974
6.482000	 65.0702
6.500000	 65.1183
6.518000	 65.0465
6.536000	 64.9436
6.554000	 64.9127
6.572000	 64.9621
6.590000	 65.0481
6.608000	 65.0836
6.626000	 65.041
6.644000	 65.0571
6.662000	 65.1439
6.680000	 65.1228
6.698000	 65.0554
6.716000	 65.083
6.734000	 65.0834
6.752000	 65.075
6.770000	 65.1149
6.788000	 65.1126
6.806000	 65.0858
6.824000	 65.0764
6.842000	 64.9624
6.860000	 64.7143
6.878000	 64.5633
6.896000	 64.6595
6.914000	 64.8459
6.932000	 64.9611
6.950000	 65.0019
6.968000	 65.0042
6.986000	 64.992
7.004000	 64.9849
7.022000	 64.9971
7.040000	 65.0438
7.058000	 65.1289
7.076000	 65.2085
7.094000	 65.2029
7.112000	 65.1182
7.130000	 65.0877
7.148000	 65.1591
7.166000	 65.2024
7.184000	 65.1414
7.202000	 65.0784
7.220000	 65.0974
7.238000	 65.1223
7.256000	 65.0874
7.274000	 65.023
7.292000	 64.9478
7.310000	 64.8984
7.328000	 64.935
7.346000	 65.0301
7.364000	 65.0982
7.382000	 65.0931
7.400000	 65.034
7.418000	 64.9865
7.436000	 64.9803
7.454000	 65.0002
7.472000	 65.0278
7.490000	 65.0318
7.508000	 65.0104
7.526000	 65.0169
7.544000	 65.06
7.562000	 65.0824
7.580000	 65.0615
7.598000	 65.0214
7.616000	 64.9753
7.634000	 64.9323
7.652000	 64.9189
7.670000	 64.944
7.688000	 64.9821
7.706000	 65.0099
7.724000	 65.0181
7.742000	 64.9942
7.760000	 64.9512
7.778000	 64.9295
7.796000	 64.9342
7.814000	 64.9251
7.832000	 64.872
7.850000	 64.7853
7.868000	 64.719
7.886000	 64.7407
7.904000	 64.8526
7.922000	 64.9619
7.940000	 64.9791
7.958000	 64.9113
7.976000	 64.8369
7.994000	 64.8252
8.012000	 64.8881
8.030000	 64.9757
8.048000	 65.0208
8.065999	 65.0012
8.084000	 64.9413
8.102000	 64.8672
8.120000	 64.8
8.138000	 64.7674
8.155999	 64.7771
8.173999	 64.8015
8.192000	 64.8222
8.210000	 64.8539
8.228000	 64.899
8.246000	 64.9281
8.263999	 64.9241
8.282000	 64.8979
8.300000	 64.8651
8.318000	 64.8346
8.336000	 64.8115
8.353999	 64.8011
8.372000	 64.8082
8.390000	 64.8247
8.408000	 64.8217
8.426000	 64.7753
8.443999	 64.7086
8.462000	 64.6711
8.480000	 64.6779
8.498000	 64.705
8.516000	 64.7353
8.533999	 64.7775
8.552000	 64.843
8.570000	 64.9253
8.588000	 64.9976
8.606000	 65.0174
8.624000	 64.9553
8.641999	 64.8449
8.660000	 64.7838
8.678000	 64.8495
8.696000	 65.0119
8.714000	 65.1487
8.731999	 65.1453
8.750000	 64.9712
8.768000	 64.6759
8.786000	 64.3555
8.804000	 64.125
8.821999	 64.0738
8.840000	 64.2098
8.858000	 64.4494
8.876000	 64.686
8.894000	 64.8574
8.911999	 64.9488
8.930000	 64.9541
8.948000	 64.8765
8.966000	 64.7515
8.984000	 64.6282
9.001999	 64.5219
9.020000	 64.4183
9.038000	 64.3308
9.056000	 64.3185
9.074000	 64.4212
9.092000	 64.5942
9.109999	 64.7452
9.128000	 64.8272
9.146000	 64.8771
9.164000	 64.951
9.182000	 65.0504
9.199999	 65.1223
9.218000	 65.1146
9.236000	 65.0194
9.254000	 64.8707
9.272000	 64.725
9.289999	 64.6396
9.308000	 64.6448
9.326000	 64.7182
9.344000	 64.7933
9.362000	 64.8107
9.379999	 64.769
9.398000	 64.7216
9.416000	 64.7233
9.434000	 64.7769
9.452000	 64.8355
9.469999	 64.8453
9.488000	 64.7842
9.506000	 64.6652
9.524000	 64.52
9.542000	 64.3822
9.560000	 64.2835
9.577999	 64.2485
9.596000	 64.2808
9.614000	 64.3505
9.632000	 64.4041
9.650000	 64.403
9.667999	 64.3511
9.686000	 64.2871
9.704000	 64.2483
9.722000	 64.2407
9.740000	 64.2409
9.757999	 64.2231
9.776000	 64.1815
9.794000	 64.133
9.812000	 64.107
9.830000	 64.1334
9.847999	 64.2301
9.866000	 64.3869
9.884000	 64.5566
9.902000	 64.6748
9.920000	 64.7004
9.937999	 64.6479
9.956000	 64.5778
9.974000	 64.5495
9.992000	 64.5777
10.01	64.6299
10.028	64.6602
10.046	64.6506
10.064	64.6175
10.082	64.5874
10.1	64.5705
10.118	64.5552
10.136	64.5238
10.154	64.4713
10.172	64.4108
10.19	64.3638
10.208	64.3438
10.226	64.3493
10.244	64.3654
10.262	64.3721
10.28	64.3552
10.298	64.3138
10.316	64.2633
10.334	64.229
10.352	64.2326
10.37	64.2811
10.388	64.3617
10.406	64.4495
10.424	64.5177
10.442	64.5512
10.46	64.5506
10.478	64.5285
10.496	64.5004
10.514	64.4765
10.532	64.4599
10.55	64.4481
10.568	64.4369
10.586	64.4227
10.604	64.4031
10.622	64.3769
10.64	64.3472
10.658	64.3214
10.676	64.3112
10.694	64.3264
10.712	64.3696
10.73	64.4314
10.748	64.4928
10.766	64.5335
10.784	64.5416
10.802	64.5176
10.82	64.4717
10.838	64.4189
10.856	64.3724
10.874	64.3418
10.892	64.3305
10.91	64.3357
10.928	64.3508
10.946	64.3687
10.964	64.3853
10.982	64.3999
11	64.4127
11.018	64.4227
11.036	64.4258
11.054	64.4166
11.072	64.3924
11.09	64.3552
11.108	64.3119
11.126	64.2701
11.144	64.2335
11.162	64.2006
11.18	64.1688
11.198	64.1403
11.216	64.123
11.234	64.1271
11.252	64.1587
11.27	64.214
11.288	64.2794
11.306	64.3373
11.324	64.372
11.342	64.3776
11.36	64.3592
11.378	64.3306
11.396	64.3066
11.414	64.2985
11.432	64.3105
11.45	64.3395
11.468	64.3766
11.486	64.4116
11.504	64.4351
11.522	64.4412
11.54	64.4291
11.558	64.4024
11.576	64.3667
11.594	64.3264
11.612	64.2844
11.63	64.2419
11.648	64.2004
11.666	64.1637
11.684	64.1376
11.702	64.1284
11.72	64.1397
11.738	64.1693
11.756	64.2087
11.774	64.245
11.792	64.2648
11.81	64.2607
11.828	64.233
11.846	64.1895
11.864	64.1429
11.882	64.1044
11.9	64.0822
11.918	64.0777
11.936	64.086
11.954	64.0994
11.972	64.1089
11.99	64.1086
12.008	64.0969
12.026	64.0766
12.044	64.054
12.062	64.0361
12.08	64.0289
12.098	64.0349
12.116	64.0533
12.134	64.08
12.152	64.1091
12.17	64.136
12.188	64.1578
12.206	64.1743
12.224	64.1861
12.242	64.1936
12.26	64.1959
12.278	64.1897
12.296	64.1712
12.314	64.1379
12.332	64.0903
12.35	64.0322
12.368	63.9699
12.386	63.9109
12.404	63.8606
12.422	63.8211
12.44	63.7904
12.458	63.7644
12.476	63.7386
12.494	63.7109
12.512	63.6821
12.53	63.6561
12.548	63.6378
12.566	63.6309
12.584	63.6373
12.602	63.6554
12.62	63.681
12.638	63.7087
12.656	63.7338
12.674	63.7533
12.692	63.7659
12.71	63.7719
12.728	63.772
12.746	63.7673
12.764	63.7584
12.782	63.745
12.8	63.7276
12.818	63.708
12.836	63.6886
12.854	63.6722
12.872	63.6623
12.89	63.6619
12.908	63.6725
12.926	63.6938
12.944	63.7236
12.962	63.7577
12.98	63.7899
12.998	63.8136
13.016	63.8218
13.034	63.8085
13.052	63.7699
13.07	63.7048
13.088	63.6157
13.106	63.5093
13.124	63.3953
13.142	63.2861
13.16	63.1954
13.178	63.1369
13.196	63.1203
13.214	63.1517
13.232	63.2319
13.25	63.3557
13.268	63.512
13.286	63.6849
13.304	63.8563
13.322	64.0077
13.34	64.1236
13.358	64.1927
13.376	64.2101
13.394	64.1783
13.412	64.1058
13.43	64.005
13.448	63.8898
13.466	63.7734
13.484	63.6663
13.502	63.5749
13.52	63.5012
13.538	63.4439
13.556	63.3993
13.574	63.3627
13.592	63.3291
13.61	63.2949
13.628	63.2573
13.646	63.2141
13.664	63.164
13.682	63.1057
13.7	63.039
13.718	62.9629
13.736	62.879
13.754	62.7896
13.772	62.7005
13.79	62.6194
13.808	62.5564
13.826	62.5209
13.844	62.5209
13.862	62.5613
13.88	62.6418
13.898	62.756
13.916	62.8925
13.934	63.0368
13.952	63.1731
13.97	63.2871
13.988	63.368
14.006	63.4109
14.024	63.4169
14.042	63.3929
14.06	63.3501
14.078	63.3009
14.096	63.2573
14.114	63.2285
14.132	63.2202
14.15	63.2342
14.168	63.2684
14.186	63.3177
14.204	63.3759
14.222	63.4357
14.24	63.4913
14.258	63.5379
14.276	63.5723
14.294	63.5929
14.312	63.5994
14.33	63.5923
14.348	63.5732
14.366	63.544
14.384	63.5073
14.402	63.4654
14.42	63.4206
14.438	63.3752
14.456	63.3312
14.474	63.2897
14.492	63.2508
14.51	63.2139
14.528	63.1773
14.546	63.1389
14.564	63.0968
14.582	63.0491
14.6	62.9944
14.618	62.9323
14.636	62.8635
14.654	62.7901
14.672	62.7147
14.69	62.64
14.708	62.5689
14.726	62.504
14.744	62.4472
14.762	62.399
14.78	62.3594
14.798	62.3278
14.816	62.3028
14.834	62.2833
14.852	62.2672
14.87	62.2537
14.888	62.2419
14.906	62.2318
14.924	62.224
14.942	62.2188
14.96	62.2179
14.978	62.2228
14.996	62.2354
15.014	62.2576
15.032	62.2907
15.05	62.3356
15.068	62.3922
15.086	62.4596
15.104	62.5363
15.122	62.6191
15.14	62.7042
15.158	62.7877
15.176	62.8656
15.194	62.9339
15.212	62.989
15.23	63.029
15.248	63.0528
15.266	63.0599
15.284	63.0514
15.302	63.0292
15.32	62.9951
15.338	62.9511
15.356	62.899
15.374	62.8406
15.392	62.7775
15.41	62.711
15.428	62.6427
15.446	62.5744
15.464	62.5082
15.482	62.4465
15.5	62.3914
15.518	62.3451
15.536	62.3084
15.554	62.2816
15.572	62.2644
15.59	62.255
15.608	62.2512
15.626	62.2507
15.644	62.2506
15.662	62.2484
15.68	62.2426
15.698	62.2321
15.716	62.2164
15.734	62.1964
15.752	62.1731
15.77	62.1476
15.788	62.1221
15.806	62.0978
15.824	62.0759
15.842	62.0572
15.86	62.0417
15.878	62.0291
15.896	62.0193
15.914	62.0114
15.932	62.0048
15.95	61.9988
15.968	61.9928
15.986	61.9865
16.004	61.9801
16.022	61.9738
16.04	61.9677
16.058	61.9624
16.076	61.9584
16.094	61.9565
16.112	61.9575
16.13	61.9623
16.148	61.9717
16.166	61.9865
16.184	62.0069
16.202	62.033
16.22	62.0645
16.238	62.1007
16.256	62.1407
16.274	62.1828
16.292	62.2258
16.31	62.2687
16.328	62.3097
16.346	62.3481
16.364	62.3832
16.382	62.4144
16.4	62.4414
16.418	62.4643
16.436	62.4831
16.454	62.4978
16.472	62.5085
16.49	62.5154
16.508	62.5182
16.526	62.517
16.544	62.5116
16.562	62.5018
16.58	62.4875
16.598	62.4684
16.616	62.4444
16.634	62.4154
16.652	62.3813
16.67	62.3425
16.688	62.2991
16.706	62.2516
16.724	62.2007
16.742	62.1469
16.76	62.0914
16.778	62.0348
16.796	61.9782
16.814	61.9227
16.832	61.8688
16.85	61.8174
16.868	61.7689
16.886	61.7237
16.904	61.6818
16.922	61.6429
16.94	61.6067
16.958	61.5722
16.976	61.5389
16.994	61.5054
17.012	61.4711
17.03	61.4352
17.048	61.3968
17.066	61.3559
17.084	61.3124
17.102	61.2667
17.12	61.2191
17.138	61.1711
17.156	61.1235
17.174	61.0773
17.192	61.0345
17.21	60.9955
17.228	60.9617
17.246	60.9337
17.264	60.9119
17.282	60.8964
17.3	60.887
17.318	60.8831
17.336	60.8837
17.354	60.8881
17.372	60.8944
17.39	60.9019
17.408	60.909
17.426	60.9145
17.444	60.9177
17.462	60.9179
17.48	60.9151
17.498	60.909
17.516	60.9006
17.534	60.8903
17.552	60.8798
17.57	60.8697
17.588	60.8621
17.606	60.8575
17.624	60.8573
17.642	60.8619
17.66	60.8717
17.678	60.8863
17.696	60.9056
17.714	60.9283
17.732	60.9533
17.75	60.9796
17.768	61.0053
17.786	61.0296
17.804	61.0507
17.822	61.0685
17.84	61.0819
17.858	61.0913
17.876	61.0963
17.894	61.0981
17.912	61.097
17.93	61.0946
17.948	61.0913
17.966	61.0892
17.984	61.0885
18.002	61.0907
18.02	61.0961
18.038	61.1051
18.056	61.1178
18.074	61.1341
18.092	61.1534
18.11	61.1757
18.128	61.1999
18.146	61.2258
18.164	61.2526
18.182	61.28
18.2	61.3072
18.218	61.3341
18.236	61.3604
18.254	61.386
18.272	61.4109
18.29	61.4349
18.308	61.4582
18.326	61.4806
18.344	61.502
18.362	61.5222
18.38	61.5411
18.398	61.5582
18.416	61.5731
18.434	61.5856
18.452	61.595
18.47	61.6011
18.488	61.6032
18.506	61.6012
18.524	61.5945
18.542	61.5831
18.56	61.5667
18.578	61.5455
18.596	61.5196
18.614	61.4891
18.632	61.4547
18.65	61.4166
18.668	61.3758
18.686	61.3325
18.704	61.2882
18.722	61.2432
18.74	61.1991
18.758	61.1561
18.776	61.116
18.794	61.0789
18.812	61.046
18.83	61.0174
18.848	60.9941
18.866	60.9755
18.884	60.9615
18.902	60.9515
18.92	60.9445
18.938	60.9393
18.956	60.9342
18.974	60.9279
18.992	60.9182
19.01	60.9039
19.028	60.8826
19.046	60.854
19.064	60.8162
19.082	60.7694
19.1	60.7129
19.118	60.6476
19.136	60.5742
19.154	60.4941
19.172	60.4096
19.19	60.3222
19.208	60.2357
19.226	60.1509
19.244	60.0723
19.262	60.0001
19.28	59.9385
19.298	59.8873
19.316	59.8494
19.334	59.8246
19.352	59.8139
19.37	59.8171
19.388	59.8325
19.406	59.8603
19.424	59.8969
19.442	59.9425
19.46	59.993
19.478	60.0481
19.496	60.1041
19.514	60.1604
19.532	60.2142
19.55	60.264
19.568	60.3089
19.586	60.3473
19.604	60.3794
19.622	60.4043
19.64	60.4226
19.658	60.4349
19.676	60.4412
19.694	60.4433
19.712	60.4408
19.73	60.436
19.748	60.4288
19.766	60.4208
19.784	60.4123
19.802	60.4041
19.82	60.3967
19.838	60.3903
19.856	60.3854
19.874	60.3818
19.892	60.3794
19.91	60.3783
19.928	60.3778
19.946	60.378
19.964	60.3785
19.982	60.379
20	60.3794
20.018	60.3794
20.036	60.379
20.054	60.3778
20.072	60.3759
20.09	60.3728
20.108	60.3687
20.126	60.3633
20.144	60.3565
20.162	60.3479
20.18	60.3375
20.198	60.3248
20.216	60.3096
20.234	60.2916
20.252	60.2697
20.27	60.2442
20.288	60.214
20.306	60.1793
20.324	60.1393
20.342	60.0935
20.36	60.0417
20.378	59.9833
20.396	59.9185
20.414	59.8468
20.432	59.768
20.45	59.6826
20.468	59.5904
20.486	59.4918
20.504	59.3875
20.522	59.2775
20.54	59.1634
20.558	59.0449
20.576	58.924
20.594	58.8013
20.612	58.6776
20.63	58.5551
20.648	58.4334
20.666	58.3155
20.684	58.2012
20.702	58.0923
20.72	57.9904
20.738	57.8955
20.756	57.8098
20.774	57.733
20.792	57.6659
20.81	57.6089
20.828	57.5618
20.846	57.5247
20.864	57.4976
20.882	57.4793
20.9	57.4704
20.918	57.4692
20.936	57.4751
20.954	57.4879
20.972	57.5047
20.99	57.5263
21.008	57.5503
21.026	57.5759
21.044	57.6029
21.062	57.6291
21.08	57.6551
21.098	57.6793
21.116	57.7014
21.134	57.7215
21.152	57.7385
21.17	57.7527
21.188	57.7644
21.206	57.7733
21.224	57.7801
21.242	57.7855
21.26	57.7891
21.278	57.7922
21.296	57.7949
21.314	57.7975
21.332	57.8007
21.35	57.8043
21.368	57.8087
21.386	57.8141
21.404	57.8203
21.422	57.827
21.44	57.8345
21.458	57.8417
21.476	57.8486
21.494	57.8549
21.512	57.8591
21.53	57.8617
21.548	57.8617
21.566	57.8586
21.584	57.8527
21.602	57.8429
21.62	57.8293
21.638	57.812
21.656	57.7914
21.674	57.7674
21.692	57.7405
21.71	57.7108
21.728	57.6785
21.746	57.6442
21.764	57.6077
21.782	57.5693
21.8	57.5291
21.818	57.4869
21.836	57.4434
21.854	57.3986
21.872	57.3524
21.89	57.3045
21.908	57.2552
21.926	57.2036
21.944	57.1493
21.962	57.0925
21.98	57.0321
21.998	56.9679
22.016	56.9
22.034	56.8285
22.052	56.7533
22.07	56.6746
22.088	56.5926
22.106	56.5072
22.124	56.4193
22.142	56.3286
22.16	56.2355
22.178	56.1414
22.196	56.0456
22.214	55.9493
22.232	55.8541
22.25	55.7593
22.268	55.6661
22.286	55.5752
22.304	55.4863
22.322	55.3999
22.34	55.3163
22.358	55.2352
22.376	55.1566
22.394	55.0807
22.412	55.0071
22.43	54.9353
22.448	54.8656
22.466	54.7972
22.484	54.7294
22.502	54.6627
22.52	54.5959
22.538	54.5287
22.556	54.4612
22.574	54.3925
22.592	54.3225
22.61	54.2512
22.628	54.1781
22.646	54.1033
22.664	54.0267
22.682	53.948
22.7	53.8672
22.718	53.7845
22.736	53.7004
22.754	53.6148
22.772	53.5277
22.79	53.4389
22.808	53.3482
22.826	53.2566
22.844	53.1643
22.862	53.071
22.88	52.9789
22.898	52.8884
22.916	52.799
22.934	52.715
22.952	52.6374
22.97	52.5653
22.988	52.5025
23.006	52.4491
23.024	52.405
23.042	52.3749
23.06	52.3585
23.078	52.3562
23.096	52.3723
23.114	52.4067
23.132	52.4595
23.15	52.5342
23.168	52.6312
23.186	52.7497
23.204	52.8906
23.222	53.0545
23.24	53.2402
23.258	53.4463
23.276	53.6742
23.294	53.9217
23.312	54.1836
23.33	54.4615
23.348	54.7534
23.366	55.0526
23.384	55.3604
23.402	55.6755
23.42	55.9912
23.438	56.308
23.456	56.6257
23.474	56.9378
23.492	57.2445
23.51	57.546
23.528	57.8365
23.546	58.1146
23.564	58.3819
23.582	58.6355
23.6	58.8738
23.618	59.0981
23.636	59.3089
23.654	59.5061
23.672	59.6894
23.69	59.861
23.708	60.0217
23.726	60.1707
23.744	60.3101
23.762	60.442
23.78	60.5651
23.798	60.6809
23.816	60.7911
23.834	60.8954
23.852	60.9937
23.87	61.0866
23.888	61.1738
23.906	61.2556
23.924	61.3329
23.942	61.4057
23.96	61.4739
23.978	61.538
23.996	61.5978
24.014	61.6532
24.032	61.7054
24.05	61.7551
24.068	61.8021
24.086	61.8458
24.104	61.8863
24.122	61.9242
24.14	61.9581
24.158	61.9864
24.176	62.011
24.194	62.0298
24.212	62.0376
24.23	62.0355
24.248	62.0238
24.266	61.9939
24.284	61.9417
24.302	61.8726
24.32	61.7772
24.338	61.6465
24.356	61.4862
24.374	61.2921
24.392	61.0564
24.41	60.7799
24.428	60.4637
24.446	60.1041
24.464	59.6985
24.482	59.2488
24.5	58.7571
24.518	58.2243
24.536	57.6466
24.554	57.0314
24.572	56.3876
24.59	55.7107
24.608	55.0035
24.626	54.2785
24.644	53.5385
24.662	52.7764
24.68	52.0101
24.698	51.2557
24.716	50.5016
24.734	49.7568
24.752	49.0383
24.77	48.3428
24.788	47.6682
24.806	47.036
24.824	46.4601
24.842	45.9246
24.86	45.4471
24.878	45.0496
24.896	44.7228
24.914	44.4693
24.932	44.3097
24.95	44.2542
24.968	44.2892
24.986	44.43
25.004	44.693
25.022	45.0748
25.04	45.5721
25.058	46.1877
25.076	46.9268
25.094	47.7889
25.112	48.7601
25.13	49.8274
25.148	51.0082
25.166	52.2859
25.184	53.6269
25.202	55.0224
25.22	56.496
25.238	58.0016
25.256	59.4916
25.274	60.9944
25.292	62.4973
25.31	63.9493
25.328	65.3229
25.346	66.6533
25.364	67.9057
25.382	69.0388
25.4	70.0599
25.418	70.9765
25.436	71.7643
25.454	72.4035
25.472	72.9056
25.49	73.2717
25.508	73.4988
25.526	73.5808
25.544	73.5206
25.562	73.3332
25.58	73.032
25.598	72.6014
25.616	72.0541
25.634	71.4175
25.652	70.7061
25.67	69.8977
25.688	69.0178
25.706	68.0968
25.724	67.1337
25.742	66.1175
25.76	65.0748
25.778	64.0296
25.796	62.966
25.814	61.89
25.832	60.8227
25.85	59.7781
25.868	58.7424
25.886	57.7229
25.904	56.7309
25.922	55.7696
25.94	54.8328
25.958	53.925
25.976	53.0508
25.994	52.2118
26.012	51.4048
26.03	50.6267
26.048	49.8753
26.066	49.1538
26.084	48.4594
26.102	47.7868
26.12	47.1332
26.138	46.5036
26.156	45.8926
26.174	45.2935
26.192	44.7054
26.21	44.1332
26.228	43.5686
26.246	43.0031
26.264	42.4362
26.282	41.8717
26.3	41.3054
26.318	40.733
26.336	40.1563
26.354	39.5757
26.372	38.9881
26.39	38.3905
26.408	37.7799
26.426	37.161
26.444	36.54
26.462	35.9216
26.48	35.298
26.498	34.6752
26.516	34.0636
26.534	33.469
26.552	32.8777
26.57	32.3029
26.588	31.7629
26.606	31.2674
26.624	30.7968
26.642	30.3687
26.66	30.006
26.678	29.72
26.696	29.4907
26.714	29.333
26.732	29.2653
26.75	29.2964
26.768	29.4105
26.786	29.6184
26.804	29.9325
26.822	30.3631
26.84	30.9045
26.858	31.5479
26.876	32.2845
26.894	33.1169
26.912	34.0594
26.93	35.0837
26.948	36.1588
26.966	37.3272
26.984	38.7001
27.002	40.043
27.02	41.0991
27.028	41.3785