File: Bakgrunnsmateriale/MATLAB/FTIR/ftir_data/subBb/Mapping_121/C-4040-8_t01_cm-1.asc
PE IR       SPECTRUM    SPECTRUM    ASCII       PEDS        1.60
  -1
C-4040~3.ASC
17/03/27
14:35:34.00
17/03/27
14:35:34.00
tln
$C-4040-8_t0001$<tbV0>[13.0,-13.0,8.0,0.0,27,1,0]
370
64

2002,4.07
MIRTGS : RIGHTBACK : INTERNAL 2
MIR : ON : INTERNAL 2
OPTKBR

0.200000
8
8.000000
FILLER
RATIO
SPECTRUM
UNLOCKED 256

DOUBLE
64
COMBINED
1
0
0

1.000000
RATIO

1
0
TRUE
51149
0
LEFT NOT FITTED RIGHT NOT FITTED 0
NONE
NONE
15600
12
4.427000
51148
TRUE
1 0 8 72 0 0 0 0

15798

#HDR
-1
-1
#GR
CM-1
%T
2.38419e-05
0.0
5000
-1.000000
4631
8
70.6951
36.7219
#DATA
5000	62.916
4996	62.2798
4992	63.337
4988	63.9304
4984	63.8592
4980	64.0602
4976	64.1768
4972	64.196
4968	64.6149
4964	64.4804
4960	63.927
4956	64.2684
4952	64.747
4948	64.4512
4944	63.2949
4940	62.748
4936	64.122
4932	65.6335
4928	65.3366
4924	64.386
4920	64.2497
4916	64.6853
4912	65.2807
4908	65.5974
4904	65.6576
4900	65.4778
4896	64.9041
4892	64.6505
4888	64.903
4884	65.123
4880	64.9729
4876	64.7763
4872	64.9676
4868	65.1376
4864	65.1576
4860	65.1463
4856	65.0818
4852	64.9578
4848	64.7738
4844	64.6975
4840	64.7939
4836	65.0565
4832	65.2162
4828	65.0629
4824	64.7155
4820	64.4107
4816	64.2567
4812	64.1921
4808	64.2619
4804	64.4152
4800	64.5264
4796	64.5807
4792	64.6799
4788	64.7622
4784	64.6988
4780	64.7343
4776	64.8823
4772	64.9352
4768	64.8809
4764	64.6239
4760	64.4179
4756	64.5636
4752	64.6817
4748	64.6016
4744	64.5215
4740	64.3278
4736	64.074
4732	64.0618
4728	64.2876
4724	64.5479
4720	64.7016
4716	64.6092
4712	64.4208
4708	64.4082
4704	64.4929
4700	64.5593
4696	64.5286
4692	64.5415
4688	64.6661
4684	64.6763
4680	64.6981
4676	64.759
4672	64.6973
4668	64.7349
4664	64.8819
4660	65.0245
4656	65.2064
4652	65.2308
4648	65.0217
4644	64.7808
4640	64.8088
4636	65.0977
4632	65.2405
4628	65.2121
4624	65.2951
4620	65.4199
4616	65.4334
4612	65.5465
4608	65.7321
4604	65.5412
4600	65.1361
4596	65.0593
4592	65.1871
4588	65.2219
4584	65.2534
4580	65.4708
4576	65.6972
4572	65.5721
4568	65.3599
4564	65.3005
4560	65.2992
4556	65.3153
4552	65.2321
4548	65.2417
4544	65.273
4540	65.0168
4536	64.7036
4532	64.6116
4528	64.797
4524	65.0628
4520	65.2487
4516	65.1293
4512	64.9953
4508	65.3886
4504	65.837
4500	65.8726
4496	65.7674
4492	65.4763
4488	65.2956
4484	65.3722
4480	65.6478
4476	65.7042
4472	65.2868
4468	65.5046
4464	66.3123
4460	66.9519
4456	67.441
4452	69.787
4448	69.7282
4444	59.4241
4440	44.1009
4436	39.2818
4432	49.9969
4428	59.7209
4424	61.3692
4420	65.0664
4416	67.5495
4412	66.6074
4408	66.5072
4404	66.8192
4400	67.0252
4396	67.2372
4392	67.0838
4388	66.7145
4384	66.5677
4380	66.4402
4376	66.317
4372	66.2701
4368	66.1167
4364	66.0347
4360	66.2299
4356	66.381
4352	66.1639
4348	65.7518
4344	65.5901
4340	65.7023
4336	65.6521
4332	65.4298
4328	65.2713
4324	65.235
4320	65.2241
4316	65.0506
4312	64.9269
4308	64.9854
4304	65.1052
4300	65.316
4296	65.4052
4292	65.1819
4288	65.0302
4284	65.2235
4280	65.2881
4276	64.939
4272	64.6972
4268	64.7513
4264	64.7177
4260	64.5978
4256	64.6894
4252	64.8685
4248	64.8637
4244	64.8334
4240	64.913
4236	64.93
4232	64.9523
4228	65.0618
4224	65.1173
4220	65.0621
4216	64.8807
4212	64.8162
4208	65.0091
4204	65.0611
4200	64.9751
4196	65.1724
4192	65.2385
4188	64.8027
4184	64.4292
4180	64.5399
4176	64.845
4172	64.9351
4168	64.8417
4164	64.7433
4160	64.7231
4156	64.7877
4152	64.8187
4148	64.6507
4144	64.4627
4140	64.451
4136	64.5765
4132	64.8356
4128	64.9612
4124	64.8282
4120	64.7792
4116	64.9462
4112	65.0276
4108	64.9022
4104	64.7823
4100	64.7125
4096	64.6482
4092	64.6791
4088	64.8257
4084	65.0417
4080	65.1947
4076	65.1304
4072	64.9931
4068	64.9263
4064	64.8976
4060	64.9656
4056	65.0383
4052	64.9821
4048	64.8873
4044	64.8761
4040	65.0193
4036	65.2606
4032	65.3307
4028	65.1713
4024	65.1306
4020	65.2314
4016	65.1749
4012	65.1195
4008	65.204
4004	65.173
4000	65.099
3996	65.14
3992	65.1536
3988	65.1848
3984	65.1965
3980	65.0224
3976	64.9385
3972	65.0692
3968	65.208
3964	65.2606
3960	65.0922
3956	64.8188
3952	64.677
3948	64.8065
3944	65.1294
3940	65.2613
3936	65.2574
3932	65.2826
3928	65.2551
3924	65.2872
3920	65.453
3916	65.6124
3912	65.6173
3908	65.4485
3904	65.2869
3900	65.2108
3896	65.0811
3892	64.9654
3888	64.8878
3884	64.7624
3880	64.8017
3876	65.0809
3872	65.3546
3868	65.4607
3864	65.3861
3860	65.2041
3856	65.103
3852	65.1258
3848	65.1683
3844	65.1657
3840	65.0885
3836	65.0234
3832	64.9697
3828	64.9429
3824	64.9128
3820	64.8863
3816	64.9606
3812	65.0757
3808	65.2886
3804	65.4658
3800	65.3417
3796	65.0888
3792	65.0168
3788	65.0337
3784	64.8905
3780	64.7327
3776	64.8286
3772	65.0927
3768	65.2261
3764	65.2135
3760	65.2239
3756	65.3258
3752	65.4357
3748	65.363
3744	65.2261
3740	65.2045
3736	65.2323
3732	65.191
3728	65.0908
3724	65.1362
3720	65.3053
3716	65.3723
3712	65.2908
3708	65.1752
3704	65.1901
3700	65.261
3696	65.2689
3692	65.2805
3688	65.2234
3684	65.1372
3680	65.171
3676	65.2328
3672	65.1912
3668	65.0857
3664	65.0259
3660	65.0135
3656	65.0377
3652	65.0556
3648	64.9691
3644	64.8722
3640	64.8767
3636	64.9503
3632	65.0301
3628	64.9868
3624	64.9039
3620	64.9657
3616	65.0268
3612	65.0092
3608	64.9824
3604	64.9754
3600	65.0164
3596	65.027
3592	65.0537
3588	65.1915
3584	65.2712
3580	65.256
3576	65.2475
3572	65.2431
3568	65.2148
3564	65.1832
3560	65.2626
3556	65.3179
3552	65.1839
3548	65.0062
3544	64.9423
3540	65.0382
3536	65.1732
3532	65.1689
3528	65.1352
3524	65.2225
3520	65.2469
3516	65.076
3512	64.8578
3508	64.8353
3504	65.0236
3500	65.1062
3496	65.0381
3492	65.0347
3488	65.091
3484	65.1059
3480	65.0229
3476	64.9521
3472	65.0155
3468	65.1196
3464	65.1573
3460	65.1435
3456	65.1429
3452	65.1875
3448	65.2331
3444	65.2489
3440	65.282
3436	65.2034
3432	64.9812
3428	64.8815
3424	64.863
3420	64.8577
3416	64.9456
3412	64.977
3408	64.9051
3404	64.9069
3400	65.0158
3396	65.0867
3392	65.1659
3388	65.2062
3384	65.0888
3380	65.0568
3376	65.1064
3372	65.029
3368	64.9759
3364	65.0347
3360	65.0316
3356	64.9879
3352	65.0076
3348	65.0022
3344	64.9883
3340	65.0445
3336	65.0808
3332	65.0586
3328	65.0842
3324	65.0947
3320	64.9953
3316	64.9482
3312	65.0503
3308	65.1421
3304	65.112
3300	65.0501
3296	65.0424
3292	65.0733
3288	65.0407
3284	64.9491
3280	64.9898
3276	65.1166
3272	65.1202
3268	65.0317
3264	65.0067
3260	65.0314
3256	64.9774
3252	64.9393
3248	64.9792
3244	64.9773
3240	64.9846
3236	65.0532
3232	65.0988
3228	65.0687
3224	65.0053
3220	65.0389
3216	65.1411
3212	65.1752
3208	65.1858
3204	65.1644
3200	65.0394
3196	64.8661
3192	64.7884
3188	64.8718
3184	64.9603
3180	65.0068
3176	64.9589
3172	64.7946
3168	64.8303
3164	65.0041
3160	65.0078
3156	64.9642
3152	64.978
3148	64.9655
3144	64.9004
3140	64.9138
3136	65.0623
3132	65.0366
3128	64.8562
3124	64.9636
3120	65.2213
3116	65.3157
3112	65.3249
3108	65.2479
3104	65.1373
3100	65.1079
3096	65.1266
3092	65.116
3088	65.0807
3084	65.097
3080	65.1082
3076	65.0955
3072	65.1081
3068	65.1441
3064	65.211
3060	65.2655
3056	65.2494
3052	65.1728
3048	65.1144
3044	65.0727
3040	65.0337
3036	65.0655
3032	65.1337
3028	65.1602
3024	65.1665
3020	65.1748
3016	65.1356
3012	65.1093
3008	65.13
3004	65.1212
3000	65.1249
2996	65.1248
2992	65.0658
2988	65.0259
2984	65.0255
2980	65.0148
2976	64.9955
2972	64.9805
2968	64.9608
2964	64.9538
2960	64.9716
2956	64.9639
2952	64.9357
2948	64.9282
2944	64.9614
2940	65.0391
2936	65.087
2932	65.0572
2928	65.009
2924	64.9741
2920	64.944
2916	64.9137
2912	64.8118
2908	64.7123
2904	64.7947
2900	64.9685
2896	65.065
2892	65.0602
2888	64.9953
2884	65.0133
2880	65.0589
2876	64.9865
2872	64.9425
2868	64.9631
2864	64.9729
2860	64.9588
2856	64.9453
2852	64.9744
2848	65.007
2844	65.0874
2840	65.2171
2836	65.2329
2832	65.0788
2828	64.9614
2824	65.0257
2820	65.1413
2816	65.1593
2812	65.1086
2808	65.0903
2804	65.0824
2800	65.0145
2796	64.9392
2792	64.9919
2788	65.1318
2784	65.1831
2780	65.1286
2776	65.053
2772	64.9995
2768	65.0343
2764	65.1576
2760	65.236
2756	65.2668
2752	65.2853
2748	65.236
2744	65.1634
2740	65.1552
2736	65.1715
2732	65.1475
2728	65.1459
2724	65.1736
2720	65.165
2716	65.141
2712	65.113
2708	65.0756
2704	65.0562
2700	65.1331
2696	65.3134
2692	65.3965
2688	65.321
2684	65.2315
2680	65.1452
2676	65.0794
2672	65.0873
2668	65.1376
2664	65.1967
2660	65.1882
2656	65.1551
2652	65.1648
2648	65.1662
2644	65.1797
2640	65.2129
2636	65.2539
2632	65.3034
2628	65.342
2624	65.3476
2620	65.3096
2616	65.2448
2612	65.1755
2608	65.1184
2604	65.1024
2600	65.1446
2596	65.246
2592	65.2954
2588	65.2239
2584	65.1917
2580	65.217
2576	65.1851
2572	65.1559
2568	65.1837
2564	65.2312
2560	65.2765
2556	65.2685
2552	65.2051
2548	65.2299
2544	65.2974
2540	65.3001
2536	65.2592
2532	65.2154
2528	65.2055
2524	65.2259
2520	65.2508
2516	65.28
2512	65.2724
2508	65.1655
2504	65.0533
2500	64.9936
2496	65.0072
2492	65.114
2488	65.1254
2484	65.0349
2480	65.0307
2476	65.089
2472	65.1179
2468	65.153
2464	65.2147
2460	65.2196
2456	65.1389
2452	65.1217
2448	65.2436
2444	65.2989
2440	65.1852
2436	65.0739
2432	65.1468
2428	65.2611
2424	65.1181
2420	64.8882
2416	64.761
2412	64.7356
2408	64.919
2404	65.1671
2400	65.2597
2396	65.2374
2392	65.217
2388	65.2215
2384	65.248
2380	65.2727
2376	65.2774
2372	65.3037
2368	65.3367
2364	65.3498
2360	65.3457
2356	65.3028
2352	65.2271
2348	65.1273
2344	65.0364
2340	65.065
2336	65.2013
2332	65.285
2328	65.254
2324	65.2017
2320	65.1973
2316	65.2312
2312	65.2655
2308	65.2867
2304	65.3132
2300	65.2745
2296	65.1742
2292	65.1396
2288	65.1819
2284	65.2364
2280	65.2833
2276	65.2984
2272	65.2785
2268	65.2937
2264	65.3271
2260	65.2835
2256	65.2095
2252	65.2356
2248	65.327
2244	65.3436
2240	65.2409
2236	65.0821
2232	65.0309
2228	65.1189
2224	65.1915
2220	65.2358
2216	65.3089
2212	65.3551
2208	65.3495
2204	65.3199
2200	65.3024
2196	65.3029
2192	65.2642
2188	65.2183
2184	65.2277
2180	65.2552
2176	65.2695
2172	65.2567
2168	65.2206
2164	65.2296
2160	65.3077
2156	65.3287
2152	65.2279
2148	65.21
2144	65.333
2140	65.4141
2136	65.3543
2132	65.2418
2128	65.2291
2124	65.3001
2120	65.3603
2116	65.3481
2112	65.2547
2108	65.1566
2104	65.1306
2100	65.1538
2096	65.1653
2092	65.2117
2088	65.3429
2084	65.3563
2080	65.1226
2076	64.9068
2072	64.8728
2068	64.9814
2064	65.1351
2060	65.1503
2056	65.0903
2052	65.1258
2048	65.1965
2044	65.2205
2040	65.245
2036	65.3055
2032	65.3483
2028	65.3223
2024	65.2709
2020	65.2194
2016	65.1884
2012	65.2134
2008	65.2252
2004	65.2036
2000	65.2271
1996	65.2457
1992	65.1866
1988	65.1813
1984	65.2447
1980	65.2511
1976	65.2517
1972	65.2946
1968	65.3143
1964	65.2833
1960	65.2776
1956	65.281
1952	65.2625
1948	65.3153
1944	65.3716
1940	65.3198
1936	65.2241
1932	65.18
1928	65.1669
1924	65.1696
1920	65.2188
1916	65.2681
1912	65.2963
1908	65.276
1904	65.2128
1900	65.2109
1896	65.2591
1892	65.2673
1888	65.2349
1884	65.234
1880	65.2873
1876	65.2629
1872	65.1489
1868	65.1105
1864	65.1525
1860	65.2005
1856	65.2342
1852	65.2571
1848	65.2333
1844	65.1371
1840	65.0569
1836	65.0793
1832	65.2036
1828	65.3022
1824	65.3193
1820	65.3296
1816	65.3092
1812	65.2406
1808	65.2125
1804	65.2711
1800	65.3768
1796	65.4854
1792	65.5037
1788	65.4126
1784	65.3654
1780	65.3692
1776	65.3507
1772	65.3125
1768	65.2547
1764	65.2694
1760	65.3454
1756	65.3579
1752	65.2918
1748	65.2057
1744	65.1806
1740	65.2027
1736	65.1743
1732	65.1126
1728	65.1377
1724	65.2598
1720	65.3625
1716	65.2941
1712	65.1225
1708	65.1177
1704	65.3141
1700	65.4382
1696	65.3662
1692	65.3003
1688	65.2881
1684	65.25
1680	65.2052
1676	65.2307
1672	65.3153
1668	65.3338
1664	65.3183
1660	65.3639
1656	65.4637
1652	65.5178
1648	65.4462
1644	65.3246
1640	65.2788
1636	65.2931
1632	65.2153
1628	65.1011
1624	65.1299
1620	65.2134
1616	65.2073
1612	65.1782
1608	65.1838
1604	65.1226
1600	65.031
1596	65.0198
1592	65.0621
1588	65.1221
1584	65.1915
1580	65.2889
1576	65.3136
1572	65.2001
1568	65.1366
1564	65.2425
1560	65.367
1556	65.3241
1552	65.2274
1548	65.2296
1544	65.2671
1540	65.2188
1536	65.1137
1532	65.0952
1528	65.1675
1524	65.192
1520	65.1352
1516	65.1115
1512	65.1965
1508	65.3494
1504	65.4033
1500	65.3277
1496	65.2389
1492	65.245
1488	65.2652
1484	65.1587
1480	65.089
1476	65.1184
1472	65.1047
1468	65.0344
1464	65.0604
1460	65.2469
1456	65.3652
1452	65.2997
1448	65.2093
1444	65.1745
1440	65.2533
1436	65.3481
1432	65.259
1428	65.0821
1424	65.0664
1420	65.1818
1416	65.2086
1412	65.1229
1408	65.0199
1404	65.0009
1400	65.0213
1396	65.0296
1392	65.1118
1388	65.1831
1384	65.1422
1380	65.1038
1376	65.1222
1372	65.0828
1368	64.9851
1364	64.9568
1360	65.0036
1356	65.0497
1352	65.09
1348	65.1129
1344	65.0633
1340	64.9743
1336	64.9438
1332	64.9803
1328	65.0286
1324	65.0594
1320	65.0877
1316	65.0565
1312	64.9598
1308	64.9215
1304	64.9373
1300	64.9611
1296	64.9804
1292	65.0009
1288	65.0286
1284	64.9842
1280	64.8827
1276	64.8405
1272	64.8532
1268	64.9099
1264	64.9798
1260	64.9693
1256	64.9388
1252	64.9503
1248	64.9708
1244	64.9838
1240	64.969
1236	64.9506
1232	65.0046
1228	65.1013
1224	65.1444
1220	65.0783
1216	64.9642
1212	64.9528
1208	65.0105
1204	65.0499
1200	65.0677
1196	65.0239
1192	64.9495
1188	64.9181
1184	64.9411
1180	64.9579
1176	64.9391
1172	64.9291
1168	64.9432
1164	64.9781
1160	64.9797
1156	64.9172
1152	64.8786
1148	64.9152
1144	64.9336
1140	64.9029
1136	64.8456
1132	64.7654
1128	64.7254
1124	64.7279
1120	64.7889
1116	64.8422
1112	64.7673
1108	64.7443
1104	64.8172
1100	64.7447
1096	64.6175
1092	64.6597
1088	64.7467
1084	64.7624
1080	64.7035
1076	64.5884
1072	64.576
1068	64.6758
1064	64.7459
1060	64.7994
1056	64.8481
1052	64.8256
1048	64.8038
1044	64.8125
1040	64.7783
1036	64.6823
1032	64.6028
1028	64.6389
1024	64.7012
1020	64.7095
1016	64.6532
1012	64.7311
1008	64.955
1004	64.9573
1000	64.839
996	 64.7876
992	 64.7438
988	 64.7649
984	 64.8104
980	 64.7428
976	 64.5826
972	 64.472
968	 64.4814
964	 64.5814
960	 64.639
956	 64.5658
952	 64.4844
948	 64.4965
944	 64.5792
940	 64.6314
936	 64.5911
932	 64.5018
928	 64.4459
924	 64.4691
920	 64.4868
916	 64.4977
912	 64.5075
908	 64.4379
904	 64.342
900	 64.3082
896	 64.3703
892	 64.4608
888	 64.4201
884	 64.3346
880	 64.4078
876	 64.4733
872	 64.4453
868	 64.4763
864	 64.4929
860	 64.4857
856	 64.5776
852	 64.6919
848	 64.5992
844	 64.3553
840	 64.1967
836	 64.0656
832	 63.9424
828	 63.9374
824	 64.0361
820	 64.2587
816	 64.4065
812	 64.2316
808	 63.9851
804	 63.9239
800	 63.94
796	 63.9821
792	 64.0733
788	 64.172
784	 64.1966
780	 64.1461
776	 64.1067
772	 64.0295
768	 63.9263
764	 63.905
760	 63.9565
756	 64.0071
752	 64.0635
748	 64.0535
744	 63.8048
740	 63.356
736	 63.1354
732	 63.3508
728	 63.5776
724	 63.5696
720	 63.5155
716	 63.4759
712	 63.4258
708	 63.3112
704	 63.0769
700	 63.0512
696	 63.2658
692	 63.2514
688	 63.0159
684	 62.8315
680	 62.6734
676	 62.5709
672	 62.6791
668	 62.9412
664	 63.0633
660	 63.0615
656	 63.181
652	 63.2905
648	 63.3878
644	 63.3605
640	 63.0698
636	 62.9945
632	 63.0179
628	 62.9762
624	 63.1161
620	 62.9933
616	 62.5461
612	 62.3648
608	 62.5064
604	 62.5619
600	 62.5772
596	 62.7557
592	 62.7981
588	 62.5677
584	 61.9351
580	 61.3948
576	 61.8674
572	 62.574
568	 62.3873
564	 62.2361
560	 62.7261
556	 62.6606
552	 62.2046
548	 62.3734
544	 62.4648
540	 61.9884
536	 61.4872
532	 61.4103
528	 61.2875
524	 60.5197
520	 60.2618
516	 60.9728
512	 61.3794
508	 60.593
504	 59.6248
500	 60.2543
496	 61.4932
492	 61.5432
488	 60.955
484	 61.0168
480	 61.725
476	 61.7343
472	 60.1296
468	 58.5219
464	 58.3631
460	 58.3857
456	 58.02
452	 57.4327
448	 57.4486
444	 58.2112
440	 57.6092
436	 56.5907
432	 56.9139
428	 58.1272
424	 59.9379
420	 61.737
416	 61.7849
412	 58.2844
408	 55.9408
404	 61.531
400	 58.409
396	 41.1383
392	 37.3591
388	 40.9347
384	 41.3133
380	 48.0444
376	 52.4592
372	 50.2405
370	 50.7752