File: Bakgrunnsmateriale/MATLAB/FTIR/ftir_data/subBb/Mapping_121/C-4040-8_t109_cm-1.asc
PE IR       SPECTRUM    SPECTRUM    ASCII       PEDS        1.60
  -1
C-4E8C~1.ASC
17/03/27
23:24:19.00
17/03/27
23:24:19.00
tln
$C-4040-8_t0109$<tbV0>[-10.4,10.4,8.0,0.0,27,1,0]
370
64

2002,4.07
MIRTGS : RIGHTBACK : INTERNAL 2
MIR : ON : INTERNAL 2
OPTKBR

0.200000
8
8.000000
FILLER
RATIO
SPECTRUM
UNLOCKED 256

DOUBLE
64
COMBINED
1
0
0

1.000000
RATIO

1
0
TRUE
51149
0
LEFT NOT FITTED RIGHT NOT FITTED 0
NONE
NONE
15600
12
4.427000
51148
TRUE
1 0 8 72 0 0 0 0

15798

#HDR
-1
-1
#GR
CM-1
%T
2.38419e-05
0.0
5000
-1.000000
4631
8
177.474
31.6305
#DATA
5000	65.0567
4996	65.0647
4992	65.1675
4988	65.3694
4984	65.3642
4980	65.0331
4976	64.7433
4972	64.787
4968	64.8017
4964	64.5391
4960	64.5992
4956	65.0538
4952	65.1818
4948	65.1189
4944	65.2403
4940	65.3155
4936	65.2174
4932	65.0458
4928	64.8862
4924	64.9802
4920	65.2567
4916	65.3618
4912	65.3253
4908	65.2203
4904	65.2085
4900	65.3801
4896	65.5345
4892	65.3252
4888	64.943
4884	65.3169
4880	65.9645
4876	65.8074
4872	65.4873
4868	65.6098
4864	65.629
4860	65.3571
4856	65.2799
4852	65.4684
4848	65.4857
4844	65.2067
4840	64.9186
4836	64.6489
4832	64.5655
4828	64.8643
4824	65.1118
4820	65.1885
4816	65.2316
4812	65.2003
4808	65.1819
4804	65.1106
4800	65.0566
4796	65.1255
4792	65.1388
4788	65.3337
4784	65.6204
4780	65.3572
4776	64.8589
4772	64.6465
4768	64.6725
4764	64.9519
4760	65.3835
4756	65.5808
4752	65.508
4748	65.4022
4744	65.1159
4740	64.7976
4736	64.7959
4732	64.9163
4728	65.0417
4724	65.3122
4720	65.3626
4716	65.0837
4712	65.0099
4708	65.1614
4704	65.264
4700	65.2636
4696	65.2478
4692	65.2216
4688	65.073
4684	64.9506
4680	64.9695
4676	64.9289
4672	64.9067
4668	65.0191
4664	65.1076
4660	65.2212
4656	65.473
4652	65.6454
4648	65.5723
4644	65.438
4640	65.2221
4636	65.0116
4632	65.1658
4628	65.4468
4624	65.3878
4620	65.2132
4616	65.1911
4612	65.0792
4608	64.855
4604	64.7799
4600	64.8645
4596	65.1216
4592	65.3624
4588	65.4043
4584	65.6671
4580	65.9346
4576	65.6118
4572	65.0438
4568	64.776
4564	64.925
4560	65.1792
4556	65.1098
4552	64.9914
4548	65.2803
4544	65.4708
4540	64.9931
4536	64.1425
4532	63.6736
4528	64.1841
4524	65.219
4520	65.6223
4516	65.3294
4512	65.1392
4508	65.1211
4504	64.9614
4500	64.8937
4496	65.1854
4492	65.5289
4488	65.5582
4484	65.3599
4480	65.0985
4476	64.7652
4472	64.4808
4468	64.4532
4464	64.7413
4460	64.878
4456	64.7071
4452	64.5316
4448	64.3079
4444	63.9699
4440	63.8057
4436	64.0555
4432	64.7278
4428	65.2739
4424	65.2004
4420	64.8881
4416	64.7933
4412	64.8285
4408	64.8957
4404	64.2438
4400	61.5204
4396	62.3008
4392	64.9102
4388	72.1752
4384	82.1987
4380	75.4658
4376	66.4319
4372	65.7481
4368	65.8316
4364	65.7093
4360	65.5012
4356	64.9144
4352	64.1847
4348	64.0462
4344	64.3568
4340	64.4938
4336	64.5741
4332	64.9218
4328	65.4116
4324	65.6085
4320	65.3454
4316	64.8849
4312	64.4791
4308	64.2666
4304	64.3376
4300	64.5696
4296	64.5982
4292	64.4557
4288	64.5752
4284	64.7897
4280	64.6889
4276	64.7088
4272	64.9161
4268	64.9719
4264	65.1272
4260	65.2875
4256	65.0165
4252	64.4766
4248	64.2731
4244	64.4401
4240	64.6329
4236	64.8946
4232	65.0355
4228	64.8349
4224	64.6153
4220	64.4989
4216	64.4624
4212	64.5901
4208	64.8575
4204	65.0399
4200	64.7984
4196	64.5253
4192	64.6848
4188	64.8798
4184	64.4936
4180	64.0862
4176	64.7178
4172	65.4425
4168	65.4582
4164	65.2709
4160	64.9163
4156	64.6003
4152	64.6254
4148	64.8604
4144	65.0743
4140	65.2217
4136	65.2911
4132	65.0868
4128	64.8003
4124	64.8726
4120	65.0688
4116	65.1289
4112	65.1396
4108	65.1261
4104	65.2114
4100	65.2523
4096	65.1154
4092	65.0112
4088	65.0736
4084	65.1586
4080	65.0497
4076	64.9353
4072	65.0051
4068	65.0504
4064	65.0043
4060	65.0932
4056	65.2708
4052	65.3154
4048	65.2412
4044	65.1416
4040	65.0723
4036	65.1358
4032	65.2976
4028	65.3944
4024	65.4758
4020	65.5066
4016	65.3887
4012	65.278
4008	65.2455
4004	65.108
4000	64.9418
3996	65.0542
3992	65.2705
3988	65.3131
3984	65.2671
3980	65.1637
3976	65.0187
3972	64.9791
3968	65.1092
3964	65.2603
3960	65.2263
3956	65.0178
3952	64.8238
3948	64.7737
3944	64.8526
3940	64.9507
3936	64.9652
3932	65.0071
3928	65.1014
3924	65.1158
3920	65.1527
3916	65.301
3912	65.4052
3908	65.3542
3904	65.2045
3900	65.0593
3896	65.0112
3892	65.0471
3888	65.1516
3884	65.2841
3880	65.2766
3876	65.1872
3872	65.1483
3868	65.149
3864	65.1858
3860	65.1734
3856	65.0994
3852	65.0373
3848	65.0258
3844	65.0661
3840	65.126
3836	65.2274
3832	65.0959
3828	64.6589
3824	64.5802
3820	65.0039
3816	65.2859
3812	65.2316
3808	65.1091
3804	65.0486
3800	64.9779
3796	64.8649
3792	64.8685
3788	64.9921
3784	65.0798
3780	65.137
3776	65.251
3772	65.3806
3768	65.3866
3764	65.2233
3760	65.1669
3756	65.3238
3752	65.3467
3748	65.2462
3744	65.2474
3740	65.3252
3736	65.3604
3732	65.2999
3728	65.2968
3724	65.3272
3720	65.2302
3716	65.1418
3712	65.1079
3708	65.0579
3704	65.0738
3700	65.1101
3696	65.116
3692	65.1205
3688	65.2087
3684	65.3296
3680	65.2709
3676	65.1783
3672	65.1653
3668	65.1338
3664	65.1156
3660	65.1549
3656	65.2344
3652	65.2143
3648	65.1651
3644	65.1908
3640	65.1264
3636	65.0334
3632	65.0899
3628	65.276
3624	65.4917
3620	65.5337
3616	65.3666
3612	65.2311
3608	65.1911
3604	65.2409
3600	65.3612
3596	65.424
3592	65.4247
3588	65.394
3584	65.3723
3580	65.4284
3576	65.3855
3572	65.2166
3568	65.1015
3564	65.0535
3560	65.2425
3556	65.481
3552	65.3168
3548	64.9808
3544	64.9403
3540	65.122
3536	65.1474
3532	65.0615
3528	65.1088
3524	65.2452
3520	65.4028
3516	65.5605
3512	65.5874
3508	65.4323
3504	65.2722
3500	65.2071
3496	65.2169
3492	65.3181
3488	65.3475
3484	65.1154
3480	64.8155
3476	64.8027
3472	65.1256
3468	65.3724
3464	65.3658
3460	65.4235
3456	65.4853
3452	65.3458
3448	65.1371
3444	64.9787
3440	65.0152
3436	65.1915
3432	65.2067
3428	65.1217
3424	65.131
3420	65.2151
3416	65.2611
3412	65.2012
3408	65.1436
3404	65.0665
3400	64.9607
3396	64.9852
3392	65.0224
3388	64.9621
3384	64.924
3380	64.9633
3376	65.096
3372	65.2825
3368	65.3359
3364	65.2617
3360	65.1804
3356	65.099
3352	65.0961
3348	65.1815
3344	65.3137
3340	65.3679
3336	65.278
3332	65.2053
3328	65.2089
3324	65.144
3320	64.9862
3316	64.9369
3312	65.0353
3308	65.1097
3304	65.0876
3300	65.069
3296	65.1301
3292	65.1383
3288	65.0095
3284	64.9538
3280	65.0566
3276	65.1071
3272	65.0856
3268	65.1539
3264	65.2824
3260	65.3163
3256	65.2215
3252	65.1199
3248	65.1343
3244	65.1952
3240	65.1536
3236	65.1169
3232	65.1593
3228	65.1338
3224	65.0657
3220	65.0893
3216	65.2014
3212	65.3435
3208	65.4637
3204	65.3584
3200	64.9965
3196	64.7995
3192	64.944
3188	65.0987
3184	65.1256
3180	65.1854
3176	65.2536
3172	65.276
3168	65.2353
3164	65.1659
3160	65.2824
3156	65.4124
3152	65.3018
3148	65.1394
3144	65.1437
3140	65.2497
3136	65.2006
3132	65.0538
3128	64.9539
3124	64.982
3120	65.2151
3116	65.3241
3112	65.2616
3108	65.309
3104	65.3244
3100	65.218
3096	65.1487
3092	65.1475
3088	65.1329
3084	65.0812
3080	65.0761
3076	65.1525
3072	65.2418
3068	65.2447
3064	65.1729
3060	65.172
3056	65.2115
3052	65.1552
3048	65.1033
3044	65.1461
3040	65.2482
3036	65.3563
3032	65.4016
3028	65.4173
3024	65.356
3020	65.1783
3016	65.1112
3012	65.2003
3008	65.2273
3004	65.2523
3000	65.2993
2996	65.1833
2992	65.0342
2988	64.972
2984	64.904
2980	64.8884
2976	64.93
2972	64.9429
2968	65.0414
2964	65.2014
2960	65.2246
2956	65.1655
2952	65.1114
2948	65.0639
2944	65.0709
2940	65.152
2936	65.1768
2932	65.0303
2928	64.833
2924	64.6909
2920	64.6586
2916	64.7825
2912	64.9494
2908	65.0864
2904	65.1499
2900	65.111
2896	65.1026
2892	65.1411
2888	65.192
2884	65.2299
2880	65.1791
2876	65.112
2872	65.0568
2868	65.0842
2864	65.3621
2860	65.5987
2856	65.4455
2852	65.2202
2848	65.2183
2844	65.2577
2840	65.25
2836	65.2755
2832	65.2913
2828	65.2745
2824	65.2429
2820	65.1812
2816	65.1129
2812	65.0763
2808	65.1252
2804	65.2002
2800	65.2385
2796	65.359
2792	65.4708
2788	65.375
2784	65.2469
2780	65.2143
2776	65.1783
2772	65.1593
2768	65.1831
2764	65.1822
2760	65.2316
2756	65.3908
2752	65.4642
2748	65.3572
2744	65.2286
2740	65.2229
2736	65.2953
2732	65.3419
2728	65.3776
2724	65.4504
2720	65.4736
2716	65.3937
2712	65.3289
2708	65.3039
2704	65.2776
2700	65.3087
2696	65.3802
2692	65.3826
2688	65.3089
2684	65.2518
2680	65.2601
2676	65.2815
2672	65.2896
2668	65.3345
2664	65.4119
2660	65.4165
2656	65.3552
2652	65.3404
2648	65.3002
2644	65.1735
2640	65.0825
2636	65.0915
2632	65.1884
2628	65.2701
2624	65.2348
2620	65.1867
2616	65.201
2612	65.2264
2608	65.2506
2604	65.2871
2600	65.3312
2596	65.3276
2592	65.2609
2588	65.24
2584	65.2746
2580	65.275
2576	65.2833
2572	65.3192
2568	65.3313
2564	65.3233
2560	65.2627
2556	65.2125
2552	65.1938
2548	65.1772
2544	65.2011
2540	65.2475
2536	65.2947
2532	65.2626
2528	65.212
2524	65.2676
2520	65.249
2516	65.1201
2512	65.1484
2508	65.2714
2504	65.308
2500	65.3307
2496	65.2771
2492	65.1822
2488	65.2543
2484	65.3928
2480	65.461
2476	65.4829
2472	65.459
2468	65.332
2464	65.1428
2460	65.0669
2456	65.1418
2452	65.2567
2448	65.3062
2444	65.2596
2440	65.1453
2436	65.0327
2432	64.969
2428	64.8632
2424	64.8964
2420	65.2172
2416	65.2599
2412	64.9371
2408	64.9157
2404	65.1881
2400	65.339
2396	65.3267
2392	65.3011
2388	65.2605
2384	65.1978
2380	65.1746
2376	65.1681
2372	65.2408
2368	65.3234
2364	65.3097
2360	65.312
2356	65.3376
2352	65.3327
2348	65.3544
2344	65.3573
2340	65.2924
2336	65.2571
2332	65.2538
2328	65.222
2324	65.2162
2320	65.2605
2316	65.2881
2312	65.2838
2308	65.2978
2304	65.323
2300	65.3276
2296	65.3574
2292	65.4033
2288	65.4054
2284	65.3929
2280	65.3781
2276	65.3169
2272	65.2507
2268	65.253
2264	65.3098
2260	65.3647
2256	65.3439
2252	65.2966
2248	65.2716
2244	65.1844
2240	65.1299
2236	65.2292
2232	65.3505
2228	65.3849
2224	65.4154
2220	65.4693
2216	65.4282
2212	65.3311
2208	65.3229
2204	65.3586
2200	65.3192
2196	65.2501
2192	65.2508
2188	65.2739
2184	65.3129
2180	65.3613
2176	65.3422
2172	65.3703
2168	65.4622
2164	65.4755
2160	65.45
2156	65.4769
2152	65.533
2148	65.4968
2144	65.3565
2140	65.3154
2136	65.3408
2132	65.245
2128	65.1566
2124	65.1882
2120	65.2596
2116	65.2996
2112	65.3513
2108	65.4109
2104	65.3521
2100	65.2471
2096	65.2023
2092	65.1913
2088	65.2835
2084	65.3982
2080	65.3461
2076	65.347
2072	65.6428
2068	65.9418
2064	65.8834
2060	65.5576
2056	65.1735
2052	65.0316
2048	65.2687
2044	65.4681
2040	65.3982
2036	65.268
2032	65.2356
2028	65.2382
2024	65.2801
2020	65.3615
2016	65.3315
2012	65.2375
2008	65.2256
2004	65.2801
2000	65.3358
1996	65.3647
1992	65.3148
1988	65.2669
1984	65.3039
1980	65.2972
1976	65.2715
1972	65.3433
1968	65.4202
1964	65.3799
1960	65.2682
1956	65.1934
1952	65.1793
1948	65.2263
1944	65.2831
1940	65.3342
1936	65.3872
1932	65.3536
1928	65.239
1924	65.1846
1920	65.211
1916	65.2175
1912	65.1755
1908	65.1622
1904	65.2756
1900	65.3589
1896	65.2631
1892	65.17
1888	65.1759
1884	65.1758
1880	65.168
1876	65.1871
1872	65.2062
1868	65.2357
1864	65.2788
1860	65.3164
1856	65.3507
1852	65.3953
1848	65.3643
1844	65.2619
1840	65.2593
1836	65.3317
1832	65.3762
1828	65.3962
1824	65.3794
1820	65.3242
1816	65.2694
1812	65.2171
1808	65.1819
1804	65.1929
1800	65.2236
1796	65.2785
1792	65.2855
1788	65.1722
1784	65.1167
1780	65.2098
1776	65.3611
1772	65.4427
1768	65.3897
1764	65.3233
1760	65.2651
1756	65.1247
1752	65.0173
1748	65.0294
1744	65.0492
1740	65.0343
1736	65.0504
1732	65.1055
1728	65.0365
1724	64.8739
1720	64.8956
1716	65.1145
1712	65.2417
1708	65.1439
1704	65.036
1700	65.1232
1696	65.2894
1692	65.3225
1688	65.2898
1684	65.2788
1680	65.2392
1676	65.1829
1672	65.143
1668	65.1527
1664	65.2368
1660	65.3036
1656	65.2412
1652	65.1484
1648	65.1469
1644	65.1973
1640	65.2291
1636	65.251
1632	65.249
1628	65.1713
1624	65.1154
1620	65.1376
1616	65.1331
1612	65.1114
1608	65.1725
1604	65.1836
1600	65.0903
1596	65.0442
1592	65.0354
1588	65.0526
1584	65.0996
1580	65.0464
1576	64.9004
1572	64.8214
1568	64.8572
1564	64.8925
1560	64.9062
1556	64.9629
1552	65.0229
1548	65.0725
1544	65.1129
1540	65.1376
1536	65.1517
1532	65.1577
1528	65.1515
1524	65.1001
1520	65.0811
1516	65.1361
1512	65.1736
1508	65.2166
1504	65.2888
1500	65.3474
1496	65.4014
1492	65.3939
1488	65.278
1484	65.2046
1480	65.1682
1476	65.0814
1472	64.9697
1468	64.8847
1464	64.9916
1460	65.1476
1456	65.1226
1452	65.0602
1448	65.0296
1444	65.0166
1440	64.9726
1436	64.9437
1432	64.9909
1428	65.0509
1424	65.1093
1420	65.1186
1416	65.1307
1412	65.1837
1408	65.1583
1404	65.0426
1400	65.0018
1396	65.0553
1392	65.1039
1388	65.1541
1384	65.1798
1380	65.1052
1376	64.9871
1372	64.9642
1368	64.9882
1364	64.9827
1360	64.9953
1356	65.0043
1352	65.0332
1348	65.1525
1344	65.2117
1340	65.1032
1336	64.9967
1332	65.0266
1328	65.106
1324	65.1588
1320	65.171
1316	65.0079
1312	64.8107
1308	64.7986
1304	64.8561
1300	64.9572
1296	65.0882
1292	65.1238
1288	65.0716
1284	65.0434
1280	65.0819
1276	65.106
1272	65.0314
1268	64.8713
1264	64.8046
1260	64.9006
1256	64.9636
1252	64.9551
1248	65.0133
1244	65.07
1240	64.9906
1236	64.8825
1232	64.8613
1228	64.9086
1224	64.9629
1220	64.9762
1216	64.9686
1212	64.9374
1208	64.8936
1204	64.8289
1200	64.7663
1196	64.768
1192	64.7618
1188	64.7636
1184	64.7976
1180	64.8644
1176	64.9527
1172	65.0009
1168	65.0269
1164	65.0667
1160	65.0737
1156	64.9676
1152	64.8019
1148	64.7239
1144	64.842
1140	65.0442
1136	65.0333
1132	64.8049
1128	64.6472
1124	64.6876
1120	64.7972
1116	64.8593
1112	64.883
1108	64.8334
1104	64.6261
1100	64.3083
1096	64.0985
1092	64.0705
1088	64.1193
1084	64.2358
1080	64.419
1076	64.629
1072	64.7514
1068	64.7201
1064	64.5897
1060	64.4229
1056	64.3181
1052	64.3321
1048	64.4432
1044	64.5378
1040	64.5513
1036	64.5464
1032	64.5138
1028	64.3918
1024	64.2881
1020	64.2029
1016	64.1274
1012	64.3022
1008	64.5654
1004	64.6213
1000	64.6071
996	 64.5511
992	 64.4203
988	 64.3701
984	 64.3638
980	 64.4389
976	 64.5669
972	 64.6117
968	 64.7086
964	 64.7323
960	 64.5739
956	 64.446
952	 64.3791
948	 64.3433
944	 64.3824
940	 64.442
936	 64.4635
932	 64.4879
928	 64.547
924	 64.6336
920	 64.5945
916	 64.4148
912	 64.4993
908	 64.685
904	 64.5724
900	 64.4351
896	 64.3905
892	 64.1779
888	 63.9046
884	 63.7952
880	 63.8159
876	 63.9505
872	 64.0839
868	 64.1106
864	 63.9841
860	 63.7746
856	 63.6713
852	 63.6116
848	 63.6992
844	 64.0427
840	 64.1739
836	 63.9069
832	 63.62
828	 63.4194
824	 63.5216
820	 63.8832
816	 64.0776
812	 64.1452
808	 64.0494
804	 64.064
800	 64.2477
796	 64.2055
792	 64.0572
788	 64.0049
784	 64.022
780	 63.9894
776	 63.8652
772	 63.7206
768	 63.7539
764	 63.874
760	 63.7702
756	 63.7503
752	 63.9907
748	 64.093
744	 63.5823
740	 62.929
736	 63.0023
732	 63.3372
728	 63.3313
724	 63.2294
720	 63.2787
716	 63.3491
712	 63.3689
708	 63.3302
704	 63.2837
700	 63.1852
696	 62.9847
692	 62.9723
688	 63.1157
684	 63.1279
680	 62.9644
676	 62.775
672	 62.6655
668	 62.6178
664	 62.454
660	 62.1611
656	 62.0129
652	 62.1008
648	 62.3068
644	 62.4032
640	 62.5591
636	 62.7729
632	 62.8317
628	 62.971
624	 63.0701
620	 62.8831
616	 62.4617
612	 62.0819
608	 62.1397
604	 62.6223
600	 62.8756
596	 62.4631
592	 62.0579
588	 62.0737
584	 62.036
580	 61.8799
576	 61.898
572	 61.9176
568	 61.9788
564	 62.172
560	 62.3863
556	 62.6994
552	 62.4515
548	 61.7316
544	 61.5519
540	 61.6286
536	 61.2811
532	 60.8831
528	 60.9002
524	 61.11
520	 61.2525
516	 61.256
512	 61.4504
508	 61.5705
504	 60.8269
500	 60.0019
496	 60.2088
492	 60.6197
488	 60.3534
484	 60.03
480	 59.7946
476	 59.5577
472	 59.2908
468	 58.6457
464	 58.5126
460	 59.8767
456	 60.5784
452	 58.4563
448	 56.9542
444	 57.5194
440	 57.477
436	 56.4234
432	 55.7666
428	 56.8835
424	 59.3477
420	 59.5954
416	 54.9534
412	 49.914
408	 48.2397
404	 56.801
400	 74.5803
396	 62.5159
392	 33.4865
388	 42.6498
384	 71.4224
380	 88.3436
376	 123.627
372	 164.009
370	 177.474