File: Bakgrunnsmateriale/MATLAB/FTIR/ftir_data/subBb/Mapping_121/C-4040-8_t66.asc
PE IR       SPECTRUM    SPECTRUM    ASCII       PEDS        1.60
  -1
C-BD32~1.ASC
17/03/27
19:51:26.00
17/03/27
19:51:53.00
tln
$C-4040-8_t0066$<tbV0>[-13.0,0.0,8.0,0.0,27,1,0]
27.028
64

2002,4.07
MIRTGS : RIGHTBACK : INTERNAL 2
MIR : ON : INTERNAL 2
OPTKBR

0.200000
8
8.000000
FILLER
RATIO
SPECTRUM
UNLOCKED 256

DOUBLE
64
COMBINED
1
0
0

0.002000
RATIO

1
0
TRUE
51149
0
LEFT NOT FITTED RIGHT NOT FITTED 0
NONE
NONE
15600
12
4.427000
51148
TRUE
1 0 8 72 0 0 0 0

15798

#HDR
-1
-1
#GR
µM
%T
2.38419e-05
0.0
2.000000
0.002000
12515
8
91.9088
43.3743
#DATA
2.000000	 64.4802
2.018000	 65.2416
2.036000	 64.9728
2.054000	 65.0297
2.072000	 64.6492
2.090000	 65.3225
2.108000	 64.2175
2.126000	 64.9509
2.144000	 64.4206
2.162000	 64.334
2.180000	 64.6763
2.198000	 64.7463
2.216000	 65.7038
2.234000	 65.9395
2.252000	 66.6022
2.270000	 66.0494
2.288000	 48.789
2.306000	 66.8189
2.324000	 65.8479
2.342000	 65.7352
2.360000	 65.7703
2.378000	 65.0621
2.396000	 64.4368
2.414000	 64.8409
2.432000	 64.4197
2.450000	 65.0462
2.468000	 64.7195
2.486000	 64.7474
2.504000	 64.8268
2.522000	 64.9175
2.540000	 65.0394
2.558000	 65.1932
2.576000	 65.0809
2.594000	 65.1135
2.612000	 65.0647
2.630000	 65.0826
2.648000	 65.2595
2.666000	 65.0265
2.684000	 65.2122
2.702000	 65.0016
2.720000	 65.1481
2.738000	 64.9697
2.756000	 64.7606
2.774000	 65.1467
2.792000	 64.8988
2.810000	 64.9774
2.828000	 65.0351
2.846000	 64.916
2.864000	 65.0229
2.882000	 65.1056
2.900000	 65.0506
2.918000	 65.1046
2.936000	 65.2985
2.954000	 65.1735
2.972000	 65.067
2.990000	 64.9678
3.008000	 65.2288
3.026000	 65.0926
3.044000	 64.9479
3.062000	 65.2332
3.080000	 65.0402
3.098000	 65.0079
3.116000	 64.9684
3.134000	 65.0029
3.152000	 65.1381
3.170000	 65.3357
3.188000	 65.0733
3.206000	 64.6413
3.224000	 64.9942
3.242000	 65.205
3.260000	 65.2158
3.278000	 65.2709
3.296000	 65.0813
3.314000	 65.2963
3.332000	 65.0956
3.350000	 65.1398
3.368000	 65.1113
3.386000	 65.0612
3.404000	 65.0561
3.422000	 64.9072
3.440000	 65.139
3.458000	 65.0906
3.476000	 65.1149
3.494000	 65.102
3.512000	 65.0603
3.530000	 64.9378
3.548000	 65.051
3.566000	 65.1239
3.584000	 64.9711
3.602000	 65.1554
3.620000	 65.1577
3.638000	 65.1501
3.656000	 65.1576
3.674000	 65.1437
3.692000	 65.1399
3.710000	 65.0278
3.728000	 65.1564
3.746000	 65.2182
3.764000	 65.1804
3.782000	 65.2801
3.800000	 65.2068
3.818000	 65.2397
3.836000	 65.2451
3.854000	 65.3096
3.872000	 65.2436
3.890000	 65.1601
3.908000	 65.3715
3.926000	 65.2115
3.944000	 65.219
3.962000	 65.1362
3.980000	 65.4022
3.998000	 64.9729
4.016000	 65.141
4.034000	 65.247
4.052000	 65.1896
4.070000	 65.3723
4.088000	 65.3204
4.106000	 65.4444
4.124000	 65.4118
4.141999	 65.1342
4.160000	 65.3788
4.178000	 65.3796
4.196000	 65.1098
4.214000	 65.2219
4.232000	 65.2617
4.250000	 65.1873
4.268000	 65.2524
4.286000	 65.2549
4.304000	 65.1901
4.322000	 65.1433
4.340000	 65.1904
4.358000	 65.2442
4.375999	 65.1629
4.394000	 65.059
4.412000	 65.2099
4.430000	 65.2231
4.448000	 65.4645
4.466000	 65.2459
4.484000	 65.3952
4.502000	 65.1189
4.520000	 65.1866
4.538000	 65.2475
4.556000	 65.1606
4.574000	 65.1727
4.592000	 65.1506
4.609999	 65.3403
4.628000	 65.2939
4.646000	 65.312
4.664000	 65.0323
4.682000	 65.2055
4.700000	 65.3532
4.718000	 65.2238
4.736000	 65.2361
4.754000	 65.3054
4.772000	 65.2198
4.790000	 65.1371
4.808000	 65.1863
4.826000	 65.1139
4.843999	 65.041
4.862000	 65.6131
4.880000	 65.1928
4.898000	 65.112
4.916000	 65.309
4.934000	 65.276
4.952000	 65.1793
4.970000	 65.1285
4.988000	 65.2825
5.006000	 65.2922
5.024000	 65.1524
5.042000	 65.1712
5.060000	 65.2807
5.077999	 65.3112
5.096000	 65.2464
5.114000	 65.2609
5.132000	 65.261
5.150000	 65.1875
5.168000	 65.1946
5.186000	 65.2667
5.204000	 65.2711
5.222000	 65.2777
5.240000	 65.1768
5.258000	 65.1312
5.276000	 65.3135
5.294000	 65.3477
5.312000	 65.2957
5.330000	 65.204
5.348000	 65.1097
5.366000	 65.1627
5.384000	 65.1994
5.402000	 65.2025
5.420000	 65.2141
5.438000	 65.2021
5.456000	 65.2871
5.474000	 65.2304
5.492000	 65.1507
5.510000	 65.1749
5.528000	 65.1909
5.546000	 65.221
5.564000	 65.2357
5.582000	 65.2379
5.600000	 65.2168
5.618000	 65.1418
5.636000	 65.1799
5.654000	 65.1862
5.672000	 65.112
5.690000	 65.1452
5.708000	 65.2098
5.726000	 65.1987
5.744000	 65.0764
5.762000	 65.0315
5.780000	 64.9825
5.798000	 64.8585
5.816000	 65.1251
5.834000	 65.3076
5.852000	 65.2716
5.870000	 65.2936
5.888000	 65.268
5.906000	 65.2254
5.923999	 65.2555
5.942000	 65.2575
5.960000	 65.1521
5.978000	 65.0429
5.996000	 65.1626
6.014000	 65.1706
6.032000	 65.0494
6.050000	 65.1669
6.068000	 65.1711
6.086000	 65.0972
6.104000	 65.0324
6.122000	 65.0273
6.140000	 65.1139
6.158000	 65.1522
6.176000	 65.1917
6.194000	 65.1804
6.212000	 65.097
6.230000	 65.0625
6.248000	 65.0774
6.266000	 65.0514
6.284000	 64.9928
6.302000	 65.008
6.320000	 64.9893
6.338000	 64.9951
6.356000	 65.066
6.374000	 65.0694
6.392000	 64.9727
6.410000	 64.8352
6.428000	 64.8367
6.446000	 64.9241
6.464000	 64.9892
6.482000	 65.0576
6.500000	 65.0593
6.518000	 65.0255
6.536000	 65.0327
6.554000	 65.0689
6.572000	 65.0816
6.590000	 65.0181
6.608000	 64.9645
6.626000	 65.057
6.644000	 65.1953
6.662000	 65.2262
6.680000	 65.18
6.698000	 65.1517
6.716000	 65.1652
6.734000	 65.1507
6.752000	 65.107
6.770000	 65.0557
6.788000	 64.966
6.806000	 64.8866
6.824000	 64.8925
6.842000	 64.8589
6.860000	 64.7395
6.878000	 64.7455
6.896000	 64.8216
6.914000	 64.7641
6.932000	 64.7339
6.950000	 64.8446
6.968000	 64.9431
6.986000	 64.9621
7.004000	 64.9921
7.022000	 65.0728
7.040000	 65.1144
7.058000	 65.0585
7.076000	 64.975
7.094000	 64.9528
7.112000	 65.0162
7.130000	 65.0742
7.148000	 65.0435
7.166000	 64.9775
7.184000	 64.9326
7.202000	 64.9067
7.220000	 64.8981
7.238000	 64.9041
7.256000	 64.9045
7.274000	 64.8866
7.292000	 64.8999
7.310000	 64.9699
7.328000	 65.0193
7.346000	 64.997
7.364000	 64.96
7.382000	 64.9582
7.400000	 64.9642
7.418000	 64.9649
7.436000	 64.9848
7.454000	 64.9825
7.472000	 64.8985
7.490000	 64.8142
7.508000	 64.8726
7.526000	 65.0513
7.544000	 65.1598
7.562000	 65.0839
7.580000	 64.9301
7.598000	 64.8638
7.616000	 64.8934
7.634000	 64.9206
7.652000	 64.9158
7.670000	 64.9301
7.688000	 64.9898
7.706000	 65.0634
7.724000	 65.1113
7.742000	 65.1234
7.760000	 65.1199
7.778000	 65.117
7.796000	 65.0964
7.814000	 65.0438
7.832000	 64.9774
7.850000	 64.9163
7.868000	 64.8733
7.886000	 64.8697
7.904000	 64.9159
7.922000	 64.993
7.940000	 65.0625
7.958000	 65.0785
7.976000	 65.0306
7.994000	 64.973
8.012000	 64.9656
8.030000	 65.0016
8.048000	 65.0311
8.065999	 65.0267
8.084000	 64.9954
8.102000	 64.9568
8.120000	 64.935
8.138000	 64.9373
8.155999	 64.9312
8.173999	 64.8823
8.192000	 64.8173
8.210000	 64.8008
8.228000	 64.8454
8.246000	 64.9043
8.263999	 64.9452
8.282000	 64.9756
8.300000	 65.003
8.318000	 65.0185
8.336000	 65.0116
8.353999	 64.9835
8.372000	 64.9471
8.390000	 64.9253
8.408000	 64.9295
8.426000	 64.9431
8.443999	 64.9408
8.462000	 64.9195
8.480000	 64.895
8.498000	 64.8827
8.516000	 64.8871
8.533999	 64.8992
8.552000	 64.8952
8.570000	 64.8638
8.588000	 64.8395
8.606000	 64.8797
8.624000	 64.9868
8.641999	 65.0842
8.660000	 65.0983
8.678000	 65.0431
8.696000	 64.9942
8.714000	 64.9947
8.731999	 65.0181
8.750000	 65.0122
8.768000	 64.9541
8.786000	 64.8637
8.804000	 64.7882
8.821999	 64.7731
8.840000	 64.8233
8.858000	 64.8904
8.876000	 64.917
8.894000	 64.8959
8.911999	 64.8732
8.930000	 64.8883
8.948000	 64.9236
8.966000	 64.9223
8.984000	 64.8561
9.001999	 64.7579
9.020000	 64.6875
9.038000	 64.679
9.056000	 64.7178
9.074000	 64.7563
9.092000	 64.7404
9.109999	 64.6416
9.128000	 64.4848
9.146000	 64.3515
9.164000	 64.3358
9.182000	 64.4758
9.199999	 64.7188
9.218000	 64.957
9.236000	 65.1015
9.254000	 65.135
9.272000	 65.0988
9.289999	 65.0427
9.308000	 64.9911
9.326000	 64.9474
9.344000	 64.9198
9.362000	 64.9264
9.379999	 64.9751
9.398000	 65.044
9.416000	 65.0876
9.434000	 65.0716
9.452000	 65.0015
9.469999	 64.917
9.488000	 64.8556
9.506000	 64.8204
9.524000	 64.7818
9.542000	 64.7116
9.560000	 64.6176
9.577999	 64.539
9.596000	 64.5149
9.614000	 64.5553
9.632000	 64.6375
9.650000	 64.7253
9.667999	 64.7901
9.686000	 64.8271
9.704000	 64.8498
9.722000	 64.8652
9.740000	 64.8594
9.757999	 64.8079
9.776000	 64.7081
9.794000	 64.6
9.812000	 64.5537
9.830000	 64.6222
9.847999	 64.7969
9.866000	 65.002
9.884000	 65.1329
9.902000	 65.1153
9.920000	 64.9476
9.937999	 64.7042
9.956000	 64.4909
9.974000	 64.3828
9.992000	 64.387
10.01	64.45
10.028	64.5061
10.046	64.5254
10.064	64.5259
10.082	64.544
10.1	64.5985
10.118	64.6744
10.136	64.7414
10.154	64.7839
10.172	64.8102
10.19	64.8384
10.208	64.8723
10.226	64.8947
10.244	64.8795
10.262	64.8127
10.28	64.7077
10.298	64.5985
10.316	64.5233
10.334	64.5016
10.352	64.5242
10.37	64.5598
10.388	64.5763
10.406	64.5632
10.424	64.5405
10.442	64.5482
10.46	64.6167
10.478	64.7445
10.496	64.8897
10.514	64.9935
10.532	65.0088
10.55	64.9304
10.568	64.7918
10.586	64.647
10.604	64.5357
10.622	64.4723
10.64	64.4477
10.658	64.4487
10.676	64.4686
10.694	64.5083
10.712	64.5676
10.73	64.6392
10.748	64.7085
10.766	64.7615
10.784	64.7922
10.802	64.8025
10.82	64.7979
10.838	64.7824
10.856	64.7577
10.874	64.7261
10.892	64.6931
10.91	64.6673
10.928	64.6563
10.946	64.6624
10.964	64.6815
10.982	64.7051
11	64.7233
11.018	64.727
11.036	64.7105
11.054	64.6723
11.072	64.6151
11.09	64.5489
11.108	64.4873
11.126	64.4452
11.144	64.4318
11.162	64.4465
11.18	64.4811
11.198	64.5247
11.216	64.5699
11.234	64.6158
11.252	64.6662
11.27	64.7247
11.288	64.7893
11.306	64.851
11.324	64.8945
11.342	64.9052
11.36	64.8752
11.378	64.8065
11.396	64.7093
11.414	64.5997
11.432	64.4933
11.45	64.4007
11.468	64.3276
11.486	64.2757
11.504	64.2444
11.522	64.2325
11.54	64.2384
11.558	64.2587
11.576	64.2891
11.594	64.3253
11.612	64.3617
11.63	64.393
11.648	64.415
11.666	64.4261
11.684	64.4286
11.702	64.4283
11.72	64.4342
11.738	64.4539
11.756	64.4893
11.774	64.535
11.792	64.5779
11.81	64.6025
11.828	64.5968
11.846	64.5558
11.864	64.4858
11.882	64.401
11.9	64.318
11.918	64.2511
11.936	64.2075
11.954	64.1872
11.972	64.1863
11.99	64.2007
12.008	64.2293
12.026	64.2738
12.044	64.3361
12.062	64.4145
12.08	64.5008
12.098	64.5814
12.116	64.6397
12.134	64.6622
12.152	64.6432
12.17	64.5863
12.188	64.504
12.206	64.4141
12.224	64.3349
12.242	64.2811
12.26	64.261
12.278	64.2765
12.296	64.3229
12.314	64.391
12.332	64.4691
12.35	64.5455
12.368	64.6099
12.386	64.6552
12.404	64.6777
12.422	64.6775
12.44	64.658
12.458	64.6233
12.476	64.5779
12.494	64.5248
12.512	64.4655
12.53	64.4003
12.548	64.3295
12.566	64.2547
12.584	64.1793
12.602	64.1089
12.62	64.0492
12.638	64.0046
12.656	63.9772
12.674	63.9651
12.692	63.9633
12.71	63.965
12.728	63.9643
12.746	63.9574
12.764	63.9441
12.782	63.9276
12.8	63.9139
12.818	63.9095
12.836	63.9191
12.854	63.9452
12.872	63.9864
12.89	64.0387
12.908	64.0957
12.926	64.1507
12.944	64.1978
12.962	64.233
12.98	64.2544
12.998	64.2623
13.016	64.2583
13.034	64.2445
13.052	64.2225
13.07	64.1933
13.088	64.1562
13.106	64.1095
13.124	64.0513
13.142	63.9814
13.16	63.9018
13.178	63.8185
13.196	63.7402
13.214	63.6781
13.232	63.6431
13.25	63.6442
13.268	63.6853
13.286	63.765
13.304	63.8761
13.322	64.0069
13.34	64.1434
13.358	64.2712
13.376	64.3777
13.394	64.4546
13.412	64.498
13.43	64.5085
13.448	64.4902
13.466	64.4493
13.484	64.3926
13.502	64.3268
13.52	64.2577
13.538	64.1896
13.556	64.1257
13.574	64.0676
13.592	64.0161
13.61	63.9715
13.628	63.9333
13.646	63.9007
13.664	63.8726
13.682	63.8475
13.7	63.8246
13.718	63.8021
13.736	63.7799
13.754	63.7581
13.772	63.7389
13.79	63.7254
13.808	63.7221
13.826	63.7335
13.844	63.7629
13.862	63.8113
13.88	63.8763
13.898	63.9518
13.916	64.0288
13.934	64.0974
13.952	64.148
13.97	64.173
13.988	64.1684
14.006	64.1349
14.024	64.078
14.042	64.0066
14.06	63.9311
14.078	63.8618
14.096	63.807
14.114	63.7721
14.132	63.759
14.15	63.7665
14.168	63.7908
14.186	63.8267
14.204	63.8691
14.222	63.9135
14.24	63.9565
14.258	63.9965
14.276	64.0325
14.294	64.0647
14.312	64.0938
14.33	64.1204
14.348	64.1453
14.366	64.169
14.384	64.1913
14.402	64.2115
14.42	64.2279
14.438	64.2387
14.456	64.2416
14.474	64.2339
14.492	64.2136
14.51	64.1786
14.528	64.128
14.546	64.0618
14.564	63.9811
14.582	63.8879
14.6	63.785
14.618	63.6764
14.636	63.5666
14.654	63.4608
14.672	63.3635
14.69	63.2788
14.708	63.2102
14.726	63.1601
14.744	63.1297
14.762	63.1182
14.78	63.1239
14.798	63.1442
14.816	63.1757
14.834	63.2151
14.852	63.2579
14.87	63.3011
14.888	63.342
14.906	63.3788
14.924	63.4106
14.942	63.437
14.96	63.4582
14.978	63.4745
14.996	63.4862
15.014	63.4939
15.032	63.498
15.05	63.4992
15.068	63.4979
15.086	63.4951
15.104	63.492
15.122	63.49
15.14	63.4904
15.158	63.4941
15.176	63.5016
15.194	63.5128
15.212	63.5264
15.23	63.5408
15.248	63.5537
15.266	63.5623
15.284	63.5641
15.302	63.5567
15.32	63.5387
15.338	63.5086
15.356	63.4659
15.374	63.4112
15.392	63.3462
15.41	63.2729
15.428	63.1938
15.446	63.1126
15.464	63.0325
15.482	62.9567
15.5	62.8889
15.518	62.8321
15.536	62.7885
15.554	62.7597
15.572	62.7468
15.59	62.75
15.608	62.7688
15.626	62.8024
15.644	62.8493
15.662	62.9068
15.68	62.9722
15.698	63.0428
15.716	63.1145
15.734	63.1835
15.752	63.2465
15.77	63.3005
15.788	63.3418
15.806	63.3687
15.824	63.3803
15.842	63.3758
15.86	63.3569
15.878	63.3257
15.896	63.2848
15.914	63.239
15.932	63.1925
15.95	63.1489
15.968	63.1126
15.986	63.0869
16.004	63.0736
16.022	63.0739
16.04	63.0877
16.058	63.1135
16.076	63.1498
16.094	63.1942
16.112	63.2439
16.13	63.2968
16.148	63.3505
16.166	63.4025
16.184	63.4514
16.202	63.4955
16.22	63.5332
16.238	63.5636
16.256	63.5858
16.274	63.5989
16.292	63.6028
16.31	63.5976
16.328	63.5843
16.346	63.5648
16.364	63.5407
16.382	63.5156
16.4	63.4923
16.418	63.4733
16.436	63.4621
16.454	63.4603
16.472	63.469
16.49	63.4883
16.508	63.5161
16.526	63.5508
16.544	63.5875
16.562	63.6219
16.58	63.6505
16.598	63.6673
16.616	63.6698
16.634	63.6555
16.652	63.6231
16.67	63.5739
16.688	63.5087
16.706	63.4321
16.724	63.3472
16.742	63.2581
16.76	63.1705
16.778	63.0867
16.796	63.0105
16.814	62.9433
16.832	62.8856
16.85	62.8368
16.868	62.7952
16.886	62.7593
16.904	62.7258
16.922	62.6936
16.94	62.6603
16.958	62.6255
16.976	62.5893
16.994	62.5523
17.012	62.517
17.03	62.4848
17.048	62.4601
17.066	62.4445
17.084	62.4413
17.102	62.4519
17.12	62.4772
17.138	62.5172
17.156	62.57
17.174	62.6345
17.192	62.7057
17.21	62.7815
17.228	62.8567
17.246	62.9274
17.264	62.9907
17.282	63.042
17.3	63.0804
17.318	63.1034
17.336	63.1116
17.354	63.1049
17.372	63.0856
17.39	63.055
17.408	63.016
17.426	62.9717
17.444	62.9238
17.462	62.8764
17.48	62.8306
17.498	62.7898
17.516	62.7551
17.534	62.7279
17.552	62.7094
17.57	62.6999
17.588	62.6991
17.606	62.7067
17.624	62.722
17.642	62.7433
17.66	62.77
17.678	62.7995
17.696	62.8314
17.714	62.8632
17.732	62.8941
17.75	62.9226
17.768	62.9476
17.786	62.9687
17.804	62.9853
17.822	62.9974
17.84	63.0053
17.858	63.0094
17.876	63.0099
17.894	63.0076
17.912	63.0028
17.93	62.9965
17.948	62.9888
17.966	62.9805
17.984	62.9717
18.002	62.9628
18.02	62.9539
18.038	62.9455
18.056	62.9378
18.074	62.931
18.092	62.9261
18.11	62.9232
18.128	62.9233
18.146	62.9265
18.164	62.9337
18.182	62.9444
18.2	62.959
18.218	62.9763
18.236	62.996
18.254	63.0158
18.272	63.0353
18.29	63.0507
18.308	63.0617
18.326	63.0642
18.344	63.0579
18.362	63.0399
18.38	63.0103
18.398	62.9678
18.416	62.9136
18.434	62.8482
18.452	62.7743
18.47	62.6932
18.488	62.6091
18.506	62.5235
18.524	62.4412
18.542	62.3632
18.56	62.2938
18.578	62.2336
18.596	62.1851
18.614	62.1486
18.632	62.1239
18.65	62.1109
18.668	62.1077
18.686	62.114
18.704	62.1265
18.722	62.1449
18.74	62.1664
18.758	62.1908
18.776	62.2162
18.794	62.2427
18.812	62.2696
18.83	62.2975
18.848	62.3268
18.866	62.3579
18.884	62.3914
18.902	62.4272
18.92	62.4658
18.938	62.506
18.956	62.5472
18.974	62.5878
18.992	62.6257
19.01	62.6591
19.028	62.6851
19.046	62.7023
19.064	62.7076
19.082	62.7004
19.1	62.6785
19.118	62.6425
19.136	62.5917
19.154	62.5274
19.172	62.4511
19.19	62.3643
19.208	62.2707
19.226	62.1716
19.244	62.072
19.262	61.9724
19.28	61.8787
19.298	61.7907
19.316	61.7134
19.334	61.6464
19.352	61.5928
19.37	61.5525
19.388	61.5263
19.406	61.514
19.424	61.5144
19.442	61.5277
19.46	61.551
19.478	61.5845
19.496	61.625
19.514	61.6721
19.532	61.7233
19.55	61.7771
19.568	61.8323
19.586	61.8872
19.604	61.9415
19.622	61.9934
19.64	62.0434
19.658	62.0905
19.676	62.1349
19.694	62.1764
19.712	62.2151
19.73	62.2513
19.748	62.285
19.766	62.3167
19.784	62.3464
19.802	62.3743
19.82	62.4003
19.838	62.4245
19.856	62.4467
19.874	62.4668
19.892	62.4842
19.91	62.4988
19.928	62.5098
19.946	62.5173
19.964	62.5203
19.982	62.5185
20	62.5117
20.018	62.4992
20.036	62.4813
20.054	62.4578
20.072	62.429
20.09	62.3956
20.108	62.3575
20.126	62.3167
20.144	62.2728
20.162	62.2281
20.18	62.183
20.198	62.1388
20.216	62.0975
20.234	62.0589
20.252	62.0255
20.27	61.9969
20.288	61.9746
20.306	61.9588
20.324	61.9494
20.342	61.9468
20.36	61.9503
20.378	61.9591
20.396	61.9734
20.414	61.9904
20.432	62.0107
20.45	62.0318
20.468	62.0528
20.486	62.0727
20.504	62.0891
20.522	62.1024
20.54	62.1098
20.558	62.1116
20.576	62.1066
20.594	62.0939
20.612	62.0738
20.63	62.0458
20.648	62.0101
20.666	61.9676
20.684	61.9179
20.702	61.8627
20.72	61.8028
20.738	61.7387
20.756	61.6728
20.774	61.6045
20.792	61.5365
20.81	61.4689
20.828	61.4027
20.846	61.3397
20.864	61.2794
20.882	61.2236
20.9	61.1722
20.918	61.1258
20.936	61.0848
20.954	61.0489
20.972	61.0182
20.99	60.9929
21.008	60.972
21.026	60.9554
21.044	60.9428
21.062	60.9327
21.08	60.9256
21.098	60.9199
21.116	60.9154
21.134	60.9117
21.152	60.9075
21.17	60.9031
21.188	60.8976
21.206	60.8908
21.224	60.8825
21.242	60.8725
21.26	60.8608
21.278	60.8475
21.296	60.8325
21.314	60.8161
21.332	60.7988
21.35	60.7803
21.368	60.7616
21.386	60.7428
21.404	60.7242
21.422	60.7069
21.44	60.6906
21.458	60.676
21.476	60.6636
21.494	60.6531
21.512	60.6453
21.53	60.64
21.548	60.6374
21.566	60.6378
21.584	60.641
21.602	60.6467
21.62	60.655
21.638	60.6657
21.656	60.6787
21.674	60.694
21.692	60.7106
21.71	60.7287
21.728	60.7476
21.746	60.766
21.764	60.7846
21.782	60.8015
21.8	60.8157
21.818	60.8276
21.836	60.8351
21.854	60.8383
21.872	60.8367
21.89	60.8285
21.908	60.8143
21.926	60.793
21.944	60.7634
21.962	60.7261
21.98	60.6808
21.998	60.627
22.016	60.5655
22.034	60.4971
22.052	60.4211
22.07	60.3397
22.088	60.2544
22.106	60.1645
22.124	60.074
22.142	59.9829
22.16	59.8921
22.178	59.8065
22.196	59.7246
22.214	59.6492
22.232	59.584
22.25	59.5272
22.268	59.4822
22.286	59.451
22.304	59.4326
22.322	59.4291
22.34	59.4416
22.358	59.4689
22.376	59.5111
22.394	59.5689
22.412	59.6402
22.43	59.7227
22.448	59.8182
22.466	59.9219
22.484	60.0308
22.502	60.1469
22.52	60.2632
22.538	60.3778
22.556	60.4916
22.574	60.5968
22.592	60.6932
22.61	60.7802
22.628	60.8514
22.646	60.9077
22.664	60.948
22.682	60.9682
22.7	60.969
22.718	60.9506
22.736	60.9122
22.754	60.8534
22.772	60.7767
22.79	60.6837
22.808	60.5728
22.826	60.4498
22.844	60.3175
22.862	60.1739
22.88	60.0266
22.898	59.8786
22.916	59.7276
22.934	59.5827
22.952	59.4462
22.97	59.3163
22.988	59.2003
23.006	59.0992
23.024	59.0121
23.042	58.9443
23.06	58.8961
23.078	58.867
23.096	58.86
23.114	58.8755
23.132	58.9126
23.15	58.9714
23.168	59.0525
23.186	59.1549
23.204	59.2764
23.222	59.418
23.24	59.5782
23.258	59.7526
23.276	59.9429
23.294	60.1468
23.312	60.3579
23.33	60.5776
23.348	60.8044
23.366	61.0312
23.384	61.2584
23.402	61.4858
23.42	61.7084
23.438	61.9267
23.456	62.1403
23.474	62.3439
23.492	62.5376
23.51	62.7216
23.528	62.8897
23.546	63.0408
23.564	63.1762
23.582	63.2913
23.6	63.3841
23.618	63.4564
23.636	63.5056
23.654	63.5301
23.672	63.5311
23.69	63.5082
23.708	63.4608
23.726	63.3886
23.744	63.2941
23.762	63.1791
23.78	63.0419
23.798	62.8854
23.816	62.7127
23.834	62.5217
23.852	62.315
23.87	62.0971
23.888	61.8651
23.906	61.622
23.924	61.3749
23.942	61.1222
23.96	60.8646
23.978	60.6106
23.996	60.362
24.014	60.1158
24.032	59.8819
24.05	59.6658
24.068	59.4622
24.086	59.2787
24.104	59.1226
24.122	58.9898
24.14	58.8832
24.158	58.8082
24.176	58.7647
24.194	58.7512
24.212	58.7677
24.23	58.8158
24.248	58.8943
24.266	58.9978
24.284	59.1246
24.302	59.2785
24.32	59.4495
24.338	59.6289
24.356	59.8248
24.374	60.0279
24.392	60.2239
24.41	60.4175
24.428	60.6068
24.446	60.7768
24.464	60.922
24.482	61.0496
24.5	61.1486
24.518	61.2096
24.536	61.2383
24.554	61.2319
24.572	61.1854
24.59	61.1
24.608	60.9759
24.626	60.8096
24.644	60.5968
24.662	60.3387
24.68	60.0435
24.698	59.7182
24.716	59.3568
24.734	58.9652
24.752	58.5537
24.77	58.1154
24.788	57.6522
24.806	57.1897
24.824	56.7423
24.842	56.2879
24.86	55.8584
24.878	55.4917
24.896	55.1699
24.914	54.8999
24.932	54.7241
24.95	54.6614
24.968	54.6837
24.986	54.8288
25.004	55.1372
25.022	55.5972
25.04	56.2057
25.058	56.9781
25.076	57.9278
25.094	59.0487
25.112	60.3228
25.13	61.7345
25.148	63.3126
25.166	65.0275
25.184	66.823
25.202	68.6851
25.22	70.6541
25.238	72.6494
25.256	74.5886
25.274	76.5205
25.292	78.4237
25.31	80.2101
25.328	81.8312
25.346	83.347
25.364	84.7012
25.382	85.8266
25.4	86.7296
25.418	87.4267
25.436	87.8904
25.454	88.0954
25.472	88.0459
25.49	87.7624
25.508	87.2648
25.526	86.5442
25.544	85.5937
25.562	84.4644
25.58	83.2027
25.598	81.7649
25.616	80.1802
25.634	78.5194
25.652	76.8218
25.67	75.0334
25.688	73.2074
25.706	71.409
25.724	69.6373
25.742	67.8679
25.76	66.1518
25.778	64.5359
25.796	62.9896
25.814	61.5229
25.832	60.1744
25.85	58.9701
25.868	57.8829
25.886	56.9273
25.904	56.1243
25.922	55.4768
25.94	54.972
25.958	54.6269
25.976	54.4586
25.994	54.4655
26.012	54.6413
26.03	54.9874
26.048	55.5064
26.066	56.2049
26.084	57.071
26.102	58.089
26.12	59.2526
26.138	60.5822
26.156	62.0484
26.174	63.6161
26.192	65.2844
26.21	67.081
26.228	68.9496
26.246	70.8319
26.264	72.7404
26.282	74.6959
26.3	76.635
26.318	78.4954
26.336	80.3098
26.354	82.0798
26.372	83.748
26.39	85.2622
26.408	86.6565
26.426	87.9259
26.444	89.0347
26.462	89.9516
26.48	90.6942
26.498	91.266
26.516	91.6616
26.534	91.8737
26.552	91.8961
26.57	91.7468
26.588	91.4468
26.606	91.0045
26.624	90.3928
26.642	89.645
26.66	88.8018
26.678	87.881
26.696	86.8433
26.714	85.7281
26.732	84.5821
26.75	83.4268
26.768	82.2229
26.786	81.0018
26.804	79.801
26.822	78.6369
26.84	77.4793
26.858	76.3503
26.876	75.276
26.894	74.2693
26.912	73.31
26.93	72.4089
26.948	71.5794
26.966	70.815
26.984	70.0855
27.002	69.4456
27.02	68.9561
27.028	68.8189