File: Bakgrunnsmateriale/MATLAB/FTIR/ftir_data/subBb/Mapping_121/C-4040-8_t41.asc
PE IR       SPECTRUM    SPECTRUM    ASCII       PEDS        1.60
  -1
C-A53E~1.ASC
17/03/27
17:48:30.00
17/03/27
17:48:56.00
tln
$C-4040-8_t0041$<tbV0>[-5.2,-5.2,8.0,0.0,27,1,0]
27.028
64

2002,4.07
MIRTGS : RIGHTBACK : INTERNAL 2
MIR : ON : INTERNAL 2
OPTKBR

0.200000
8
8.000000
FILLER
RATIO
SPECTRUM
UNLOCKED 256

DOUBLE
64
COMBINED
1
0
0

0.002000
RATIO

1
0
TRUE
51149
0
LEFT NOT FITTED RIGHT NOT FITTED 0
NONE
NONE
15600
12
4.427000
51148
TRUE
1 0 8 72 0 0 0 0

15798

#HDR
-1
-1
#GR
µM
%T
2.38419e-05
0.0
2.000000
0.002000
12515
8
78.0812
16.2821
#DATA
2.000000	 63.6328
2.018000	 64.4211
2.036000	 63.3418
2.054000	 63.5957
2.072000	 63.6527
2.090000	 63.6625
2.108000	 64.1678
2.126000	 63.474
2.144000	 63.7225
2.162000	 63.7819
2.180000	 63.8411
2.198000	 63.2309
2.216000	 63.3239
2.234000	 62.961
2.252000	 62.7813
2.270000	 62.3944
2.288000	 63.7005
2.306000	 66.4591
2.324000	 62.6232
2.342000	 62.3877
2.360000	 62.532
2.378000	 62.9365
2.396000	 62.6328
2.414000	 63.085
2.432000	 62.8393
2.450000	 62.9094
2.468000	 62.7112
2.486000	 62.6563
2.504000	 62.7082
2.522000	 62.602
2.540000	 62.5462
2.558000	 62.3577
2.576000	 62.5692
2.594000	 62.2047
2.612000	 61.9324
2.630000	 61.9058
2.648000	 61.8353
2.666000	 61.8116
2.684000	 61.8193
2.702000	 61.7673
2.720000	 61.6284
2.738000	 61.6627
2.756000	 61.4179
2.774000	 61.3223
2.792000	 61.2908
2.810000	 61.2663
2.828000	 61.0796
2.846000	 61.0472
2.864000	 60.7427
2.882000	 60.6821
2.900000	 60.7586
2.918000	 60.5657
2.936000	 60.3098
2.954000	 60.103
2.972000	 60.2822
2.990000	 60.0326
3.008000	 59.93
3.026000	 59.8383
3.044000	 59.8595
3.062000	 59.5302
3.080000	 59.5185
3.098000	 59.3797
3.116000	 59.2142
3.134000	 59.1917
3.152000	 59.2029
3.170000	 58.8072
3.188000	 58.8414
3.206000	 58.9307
3.224000	 58.7934
3.242000	 58.6455
3.260000	 58.4701
3.278000	 58.3613
3.296000	 58.3561
3.314000	 58.0771
3.332000	 58.0067
3.350000	 57.8051
3.368000	 57.7298
3.386000	 57.4453
3.404000	 57.3764
3.422000	 57.0852
3.440000	 57.1625
3.458000	 57.1426
3.476000	 56.9213
3.494000	 56.7788
3.512000	 56.6432
3.530000	 56.696
3.548000	 56.7053
3.566000	 56.6094
3.584000	 56.4397
3.602000	 56.2487
3.620000	 56.2651
3.638000	 56.1355
3.656000	 55.9686
3.674000	 55.8569
3.692000	 55.786
3.710000	 55.7426
3.728000	 55.5179
3.746000	 55.4418
3.764000	 55.3022
3.782000	 55.0854
3.800000	 55.1144
3.818000	 55.0082
3.836000	 54.9664
3.854000	 54.7593
3.872000	 54.6311
3.890000	 54.5821
3.908000	 54.2956
3.926000	 54.347
3.944000	 54.2313
3.962000	 54.071
3.980000	 53.9585
3.998000	 53.8661
4.016000	 53.7323
4.034000	 53.7595
4.052000	 53.5515
4.070000	 53.4543
4.088000	 53.2959
4.106000	 53.2508
4.124000	 53.0257
4.141999	 53.0504
4.160000	 52.8816
4.178000	 52.8298
4.196000	 52.6532
4.214000	 52.5815
4.232000	 52.5302
4.250000	 52.378
4.268000	 52.3448
4.286000	 52.2061
4.304000	 52.0904
4.322000	 52.0388
4.340000	 51.92
4.358000	 51.7934
4.375999	 51.7437
4.394000	 51.5654
4.412000	 51.4962
4.430000	 51.4376
4.448000	 51.367
4.466000	 51.2438
4.484000	 51.1943
4.502000	 50.9342
4.520000	 50.8978
4.538000	 50.9456
4.556000	 50.8064
4.574000	 50.6859
4.592000	 50.6292
4.609999	 50.4878
4.628000	 50.4052
4.646000	 50.2615
4.664000	 50.1118
4.682000	 50.136
4.700000	 50.0503
4.718000	 49.9316
4.736000	 49.8945
4.754000	 49.8388
4.772000	 49.6388
4.790000	 49.7627
4.808000	 49.7134
4.826000	 49.5264
4.843999	 49.4946
4.862000	 49.415
4.880000	 49.187
4.898000	 49.0951
4.916000	 49.0724
4.934000	 48.9737
4.952000	 48.8661
4.970000	 48.8049
4.988000	 48.7133
5.006000	 48.7415
5.024000	 48.6454
5.042000	 48.4851
5.060000	 48.399
5.077999	 48.2747
5.096000	 48.2198
5.114000	 48.1789
5.132000	 48.0705
5.150000	 48.0164
5.168000	 47.9133
5.186000	 47.8825
5.204000	 47.7592
5.222000	 47.6333
5.240000	 47.5361
5.258000	 47.4316
5.276000	 47.3478
5.294000	 47.2917
5.312000	 47.2867
5.330000	 47.2978
5.348000	 47.1342
5.366000	 47.0195
5.384000	 46.9601
5.402000	 46.9066
5.420000	 46.8396
5.438000	 46.761
5.456000	 46.6935
5.474000	 46.6791
5.492000	 46.6314
5.510000	 46.625
5.528000	 46.4764
5.546000	 46.3413
5.564000	 46.404
5.582000	 46.334
5.600000	 46.2434
5.618000	 46.1274
5.636000	 46.0176
5.654000	 45.9556
5.672000	 45.8901
5.690000	 45.8182
5.708000	 45.7509
5.726000	 45.6339
5.744000	 45.5393
5.762000	 45.3848
5.780000	 45.3513
5.798000	 45.2747
5.816000	 45.238
5.834000	 45.3048
5.852000	 45.4258
5.870000	 45.304
5.888000	 45.2229
5.906000	 45.1281
5.923999	 45.0408
5.942000	 44.9989
5.960000	 44.9061
5.978000	 44.8551
5.996000	 44.7406
6.014000	 44.6261
6.032000	 44.5472
6.050000	 44.5181
6.068000	 44.5578
6.086000	 44.4933
6.104000	 44.3496
6.122000	 44.2948
6.140000	 44.2881
6.158000	 44.2453
6.176000	 44.1917
6.194000	 44.1753
6.212000	 44.1667
6.230000	 44.1222
6.248000	 43.9889
6.266000	 43.9059
6.284000	 43.8714
6.302000	 43.7582
6.320000	 43.6275
6.338000	 43.52
6.356000	 43.464
6.374000	 43.4829
6.392000	 43.4234
6.410000	 43.3574
6.428000	 43.4221
6.446000	 43.4736
6.464000	 43.4333
6.482000	 43.2966
6.500000	 43.1933
6.518000	 43.1781
6.536000	 43.0937
6.554000	 42.9481
6.572000	 42.8828
6.590000	 42.9233
6.608000	 42.9357
6.626000	 42.9116
6.644000	 42.8742
6.662000	 42.8286
6.680000	 42.8163
6.698000	 42.7523
6.716000	 42.6302
6.734000	 42.5586
6.752000	 42.5727
6.770000	 42.5999
6.788000	 42.54
6.806000	 42.4228
6.824000	 42.3377
6.842000	 42.2813
6.860000	 42.2322
6.878000	 42.19
6.896000	 42.2103
6.914000	 42.2934
6.932000	 42.2384
6.950000	 42.053
6.968000	 41.9801
6.986000	 42.0093
7.004000	 41.9779
7.022000	 41.9101
7.040000	 41.8767
7.058000	 41.8338
7.076000	 41.7616
7.094000	 41.7023
7.112000	 41.6793
7.130000	 41.6656
7.148000	 41.5912
7.166000	 41.4779
7.184000	 41.4331
7.202000	 41.4212
7.220000	 41.328
7.238000	 41.1967
7.256000	 41.1537
7.274000	 41.1838
7.292000	 41.176
7.310000	 41.1134
7.328000	 41.0602
7.346000	 41.0546
7.364000	 41.0758
7.382000	 41.0421
7.400000	 40.9191
7.418000	 40.8092
7.436000	 40.7991
7.454000	 40.8389
7.472000	 40.8484
7.490000	 40.8052
7.508000	 40.7289
7.526000	 40.6617
7.544000	 40.6266
7.562000	 40.6122
7.580000	 40.6112
7.598000	 40.6057
7.616000	 40.551
7.634000	 40.4468
7.652000	 40.3552
7.670000	 40.3166
7.688000	 40.3237
7.706000	 40.3554
7.724000	 40.3707
7.742000	 40.3233
7.760000	 40.2253
7.778000	 40.1439
7.796000	 40.1216
7.814000	 40.139
7.832000	 40.1416
7.850000	 40.0905
7.868000	 40.0038
7.886000	 39.9384
7.904000	 39.9299
7.922000	 39.9541
7.940000	 39.9458
7.958000	 39.8608
7.976000	 39.7241
7.994000	 39.6132
8.012000	 39.5808
8.030000	 39.6036
8.048000	 39.628
8.065999	 39.6295
8.084000	 39.6072
8.102000	 39.5636
8.120000	 39.5179
8.138000	 39.4919
8.155999	 39.4697
8.173999	 39.4243
8.192000	 39.3713
8.210000	 39.3408
8.228000	 39.3299
8.246000	 39.3149
8.263999	 39.2802
8.282000	 39.2149
8.300000	 39.1277
8.318000	 39.0698
8.336000	 39.0898
8.353999	 39.1586
8.372000	 39.181
8.390000	 39.0939
8.408000	 38.9249
8.426000	 38.7685
8.443999	 38.7192
8.462000	 38.8033
8.480000	 38.9529
8.498000	 39.059
8.516000	 39.0573
8.533999	 38.9636
8.552000	 38.8515
8.570000	 38.7961
8.588000	 38.8082
8.606000	 38.8171
8.624000	 38.7583
8.641999	 38.6723
8.660000	 38.6521
8.678000	 38.6965
8.696000	 38.6901
8.714000	 38.5564
8.731999	 38.3716
8.750000	 38.2946
8.768000	 38.3966
8.786000	 38.5991
8.804000	 38.7477
8.821999	 38.7303
8.840000	 38.5338
8.858000	 38.2391
8.876000	 37.965
8.894000	 37.7989
8.911999	 37.7549
8.930000	 37.7916
8.948000	 37.8586
8.966000	 37.9223
8.984000	 37.9616
9.001999	 37.9667
9.020000	 37.9483
9.038000	 37.9336
9.056000	 37.943
9.074000	 37.974
9.092000	 38.0145
9.109999	 38.052
9.128000	 38.0704
9.146000	 38.0501
9.164000	 37.9877
9.182000	 37.9067
9.199999	 37.841
9.218000	 37.8025
9.236000	 37.7718
9.254000	 37.723
9.272000	 37.6501
9.289999	 37.5689
9.308000	 37.4994
9.326000	 37.4484
9.344000	 37.4074
9.362000	 37.3638
9.379999	 37.3165
9.398000	 37.2756
9.416000	 37.2497
9.434000	 37.2339
9.452000	 37.2153
9.469999	 37.1898
9.488000	 37.1729
9.506000	 37.1839
9.524000	 37.2228
9.542000	 37.2691
9.560000	 37.3014
9.577999	 37.3151
9.596000	 37.3169
9.614000	 37.3094
9.632000	 37.2858
9.650000	 37.2412
9.667999	 37.1817
9.686000	 37.1193
9.704000	 37.0604
9.722000	 37.0087
9.740000	 36.9745
9.757999	 36.9752
9.776000	 37.0177
9.794000	 37.0799
9.812000	 37.1172
9.830000	 37.0926
9.847999	 37.0043
9.866000	 36.8822
9.884000	 36.7585
9.902000	 36.6458
9.920000	 36.5395
9.937999	 36.4381
9.956000	 36.355
9.974000	 36.3078
9.992000	 36.3011
10.01	36.3187
10.028	36.3366
10.046	36.3427
10.064	36.3443
10.082	36.3571
10.1	36.389
10.118	36.4315
10.136	36.4657
10.154	36.476
10.172	36.457
10.19	36.4127
10.208	36.3516
10.226	36.2818
10.244	36.2107
10.262	36.1443
10.28	36.0854
10.298	36.033
10.316	35.9836
10.334	35.9361
10.352	35.8946
10.37	35.8662
10.388	35.8542
10.406	35.8549
10.424	35.8596
10.442	35.8604
10.46	35.8546
10.478	35.8432
10.496	35.8273
10.514	35.8071
10.532	35.7819
10.55	35.7518
10.568	35.7186
10.586	35.6842
10.604	35.6494
10.622	35.6144
10.64	35.5819
10.658	35.5574
10.676	35.5472
10.694	35.5527
10.712	35.5668
10.73	35.5757
10.748	35.5653
10.766	35.5302
10.784	35.4775
10.802	35.4247
10.82	35.3901
10.838	35.3854
10.856	35.4089
10.874	35.4476
10.892	35.4836
10.91	35.5001
10.928	35.4879
10.946	35.4464
10.964	35.3837
10.982	35.3121
11	35.2432
11.018	35.1845
11.036	35.1365
11.054	35.0941
11.072	35.051
11.09	35.0058
11.108	34.9642
11.126	34.9386
11.144	34.941
11.162	34.9767
11.18	35.0384
11.198	35.1063
11.216	35.1562
11.234	35.1678
11.252	35.1324
11.27	35.0556
11.288	34.9563
11.306	34.8559
11.324	34.773
11.342	34.7173
11.36	34.6881
11.378	34.6766
11.396	34.6712
11.414	34.6605
11.432	34.6372
11.45	34.5991
11.468	34.5493
11.486	34.4947
11.504	34.4448
11.522	34.4097
11.54	34.3953
11.558	34.403
11.576	34.4268
11.594	34.4553
11.612	34.4739
11.63	34.4706
11.648	34.4408
11.666	34.3877
11.684	34.3218
11.702	34.2565
11.72	34.2039
11.738	34.17
11.756	34.1536
11.774	34.1482
11.792	34.1448
11.81	34.1357
11.828	34.1177
11.846	34.0924
11.864	34.0656
11.882	34.0446
11.9	34.0355
11.918	34.0412
11.936	34.059
11.954	34.0816
11.972	34.0978
11.99	34.0971
12.008	34.0734
12.026	34.0269
12.044	33.9652
12.062	33.901
12.08	33.8477
12.098	33.8149
12.116	33.8046
12.134	33.8104
12.152	33.8204
12.17	33.8226
12.188	33.8088
12.206	33.7776
12.224	33.7341
12.242	33.6861
12.26	33.6401
12.278	33.5998
12.296	33.5648
12.314	33.5333
12.332	33.5032
12.35	33.4736
12.368	33.4453
12.386	33.4203
12.404	33.4007
12.422	33.3882
12.44	33.3827
12.458	33.3825
12.476	33.3854
12.494	33.3885
12.512	33.3893
12.53	33.3861
12.548	33.3782
12.566	33.3658
12.584	33.3496
12.602	33.3304
12.62	33.3092
12.638	33.2867
12.656	33.2631
12.674	33.2385
12.692	33.2132
12.71	33.1881
12.728	33.164
12.746	33.1419
12.764	33.122
12.782	33.1031
12.8	33.0826
12.818	33.0563
12.836	33.02
12.854	32.9702
12.872	32.9057
12.89	32.8279
12.908	32.7414
12.926	32.6528
12.944	32.5691
12.962	32.4961
12.98	32.4376
12.998	32.3945
13.016	32.3663
13.034	32.3523
13.052	32.3521
13.07	32.3662
13.088	32.3953
13.106	32.4392
13.124	32.4947
13.142	32.5557
13.16	32.6127
13.178	32.6553
13.196	32.6738
13.214	32.6617
13.232	32.6179
13.25	32.5467
13.268	32.4576
13.286	32.362
13.304	32.2711
13.322	32.1933
13.34	32.1328
13.358	32.0895
13.376	32.0601
13.394	32.0402
13.412	32.0257
13.43	32.0143
13.448	32.0055
13.466	32.0001
13.484	31.9996
13.502	32.0037
13.52	32.0107
13.538	32.0169
13.556	32.0175
13.574	32.0075
13.592	31.983
13.61	31.9427
13.628	31.8879
13.646	31.8224
13.664	31.7517
13.682	31.6813
13.7	31.6161
13.718	31.5602
13.736	31.5152
13.754	31.4812
13.772	31.4565
13.79	31.4385
13.808	31.4246
13.826	31.412
13.844	31.399
13.862	31.3843
13.88	31.368
13.898	31.351
13.916	31.3346
13.934	31.321
13.952	31.3118
13.97	31.3091
13.988	31.314
14.006	31.3274
14.024	31.3492
14.042	31.3786
14.06	31.4135
14.078	31.4514
14.096	31.4887
14.114	31.5218
14.132	31.5466
14.15	31.5594
14.168	31.5569
14.186	31.5365
14.204	31.4974
14.222	31.4402
14.24	31.3676
14.258	31.2836
14.276	31.1939
14.294	31.1045
14.312	31.021
14.33	30.9484
14.348	30.8897
14.366	30.8464
14.384	30.8176
14.402	30.8012
14.42	30.7941
14.438	30.7929
14.456	30.7942
14.474	30.7954
14.492	30.7941
14.51	30.7889
14.528	30.7789
14.546	30.7636
14.564	30.7427
14.582	30.7164
14.6	30.6847
14.618	30.6479
14.636	30.607
14.654	30.5634
14.672	30.5188
14.69	30.4753
14.708	30.4349
14.726	30.3997
14.744	30.371
14.762	30.3492
14.78	30.3339
14.798	30.3236
14.816	30.3163
14.834	30.3091
14.852	30.299
14.87	30.2834
14.888	30.2608
14.906	30.2302
14.924	30.1919
14.942	30.1472
14.96	30.0984
14.978	30.048
14.996	29.9988
15.014	29.9533
15.032	29.9139
15.05	29.882
15.068	29.8578
15.086	29.8408
15.104	29.8298
15.122	29.8226
15.14	29.8167
15.158	29.8099
15.176	29.8002
15.194	29.786
15.212	29.7665
15.23	29.7419
15.248	29.7134
15.266	29.6828
15.284	29.653
15.302	29.6268
15.32	29.6071
15.338	29.596
15.356	29.5952
15.374	29.6052
15.392	29.6244
15.41	29.6506
15.428	29.6805
15.446	29.7086
15.464	29.73
15.482	29.7405
15.5	29.7356
15.518	29.7125
15.536	29.6709
15.554	29.6116
15.572	29.5371
15.59	29.4527
15.608	29.3632
15.626	29.2737
15.644	29.1897
15.662	29.1161
15.68	29.0554
15.698	29.0091
15.716	28.9777
15.734	28.9594
15.752	28.9523
15.77	28.9542
15.788	28.9617
15.806	28.9725
15.824	28.9848
15.842	28.997
15.86	29.0083
15.878	29.0188
15.896	29.0286
15.914	29.0383
15.932	29.0479
15.95	29.0575
15.968	29.0664
15.986	29.0736
16.004	29.0776
16.022	29.0771
16.04	29.07
16.058	29.0549
16.076	29.0305
16.094	28.996
16.112	28.9515
16.13	28.8975
16.148	28.8351
16.166	28.7668
16.184	28.6947
16.202	28.6215
16.22	28.551
16.238	28.4856
16.256	28.4275
16.274	28.3795
16.292	28.3428
16.31	28.3184
16.328	28.3066
16.346	28.3067
16.364	28.3179
16.382	28.3383
16.4	28.3662
16.418	28.3998
16.436	28.4369
16.454	28.4754
16.472	28.5142
16.49	28.551
16.508	28.5847
16.526	28.6143
16.544	28.6384
16.562	28.6564
16.58	28.6676
16.598	28.6713
16.616	28.6669
16.634	28.654
16.652	28.6321
16.67	28.6013
16.688	28.5617
16.706	28.5142
16.724	28.4599
16.742	28.3999
16.76	28.3367
16.778	28.2717
16.796	28.2073
16.814	28.1458
16.832	28.0885
16.85	28.0378
16.868	27.994
16.886	27.9581
16.904	27.9298
16.922	27.9084
16.94	27.8932
16.958	27.8822
16.976	27.8743
16.994	27.8673
17.012	27.8597
17.03	27.8502
17.048	27.8371
17.066	27.8198
17.084	27.7975
17.102	27.7704
17.12	27.7384
17.138	27.7027
17.156	27.6642
17.174	27.6237
17.192	27.5835
17.21	27.5445
17.228	27.5086
17.246	27.4773
17.264	27.4517
17.282	27.4333
17.3	27.4224
17.318	27.42
17.336	27.4254
17.354	27.4386
17.372	27.458
17.39	27.4825
17.408	27.51
17.426	27.5378
17.444	27.5643
17.462	27.5856
17.48	27.6005
17.498	27.6056
17.516	27.5998
17.534	27.5815
17.552	27.5501
17.57	27.5055
17.588	27.4487
17.606	27.3811
17.624	27.3046
17.642	27.2227
17.66	27.1369
17.678	27.0523
17.696	26.9702
17.714	26.8952
17.732	26.8285
17.75	26.7727
17.768	26.7289
17.786	26.6976
17.804	26.6786
17.822	26.6714
17.84	26.674
17.858	26.6849
17.876	26.7021
17.894	26.7225
17.912	26.7449
17.93	26.7657
17.948	26.7842
17.966	26.7976
17.984	26.8057
18.002	26.8071
18.02	26.8019
18.038	26.79
18.056	26.7724
18.074	26.7494
18.092	26.723
18.11	26.6937
18.128	26.6638
18.146	26.6338
18.164	26.6059
18.182	26.5808
18.2	26.5598
18.218	26.5433
18.236	26.5318
18.254	26.525
18.272	26.5229
18.29	26.524
18.308	26.5283
18.326	26.5335
18.344	26.5392
18.362	26.5431
18.38	26.5447
18.398	26.5424
18.416	26.5356
18.434	26.5232
18.452	26.5054
18.47	26.4817
18.488	26.4531
18.506	26.4197
18.524	26.3832
18.542	26.3439
18.56	26.3041
18.578	26.2642
18.596	26.2262
18.614	26.1901
18.632	26.1577
18.65	26.1287
18.668	26.1034
18.686	26.0816
18.704	26.0626
18.722	26.0458
18.74	26.0296
18.758	26.0136
18.776	25.9956
18.794	25.9754
18.812	25.9512
18.83	25.9232
18.848	25.8903
18.866	25.8532
18.884	25.8122
18.902	25.7684
18.92	25.723
18.938	25.6774
18.956	25.6337
18.974	25.5931
18.992	25.558
19.01	25.5291
19.028	25.5084
19.046	25.4959
19.064	25.4927
19.082	25.4979
19.1	25.5113
19.118	25.5314
19.136	25.5564
19.154	25.585
19.172	25.6138
19.19	25.642
19.208	25.6655
19.226	25.6841
19.244	25.6941
19.262	25.6956
19.28	25.6862
19.298	25.6663
19.316	25.6354
19.334	25.5938
19.352	25.543
19.37	25.4832
19.388	25.4175
19.406	25.3457
19.424	25.2718
19.442	25.1958
19.46	25.1211
19.478	25.0481
19.496	24.9789
19.514	24.9143
19.532	24.8551
19.55	24.802
19.568	24.7547
19.586	24.7135
19.604	24.6779
19.622	24.6474
19.64	24.6218
19.658	24.6
19.676	24.5818
19.694	24.5662
19.712	24.5531
19.73	24.5419
19.748	24.5324
19.766	24.5245
19.784	24.5181
19.802	24.5133
19.82	24.5103
19.838	24.5091
19.856	24.5098
19.874	24.5123
19.892	24.5169
19.91	24.5235
19.928	24.5318
19.946	24.5419
19.964	24.5531
19.982	24.5655
20	24.5782
20.018	24.5908
20.036	24.6028
20.054	24.6134
20.072	24.6225
20.09	24.629
20.108	24.633
20.126	24.6336
20.144	24.6309
20.162	24.6248
20.18	24.615
20.198	24.6017
20.216	24.5853
20.234	24.5658
20.252	24.544
20.27	24.5199
20.288	24.4946
20.306	24.4682
20.324	24.4416
20.342	24.4155
20.36	24.3899
20.378	24.3662
20.396	24.344
20.414	24.3241
20.432	24.3065
20.45	24.2912
20.468	24.2787
20.486	24.2685
20.504	24.2603
20.522	24.2542
20.54	24.2492
20.558	24.2456
20.576	24.2422
20.594	24.2386
20.612	24.2345
20.63	24.2288
20.648	24.2218
20.666	24.2122
20.684	24.1999
20.702	24.1845
20.72	24.1655
20.738	24.143
20.756	24.1165
20.774	24.0861
20.792	24.0517
20.81	24.0133
20.828	23.9712
20.846	23.9255
20.864	23.8764
20.882	23.8244
20.9	23.7695
20.918	23.7122
20.936	23.653
20.954	23.5919
20.972	23.53
20.99	23.4669
21.008	23.4037
21.026	23.3407
21.044	23.278
21.062	23.2169
21.08	23.1569
21.098	23.0994
21.116	23.0443
21.134	22.9922
21.152	22.9439
21.17	22.8992
21.188	22.8591
21.206	22.8236
21.224	22.793
21.242	22.7677
21.26	22.7478
21.278	22.7331
21.296	22.7237
21.314	22.7194
21.332	22.7196
21.35	22.7245
21.368	22.733
21.386	22.745
21.404	22.76
21.422	22.7769
21.44	22.7961
21.458	22.8161
21.476	22.8365
21.494	22.8571
21.512	22.8766
21.53	22.8953
21.548	22.9126
21.566	22.9279
21.584	22.9415
21.602	22.9531
21.62	22.9626
21.638	22.9702
21.656	22.9759
21.674	22.9796
21.692	22.9818
21.71	22.9823
21.728	22.9813
21.746	22.9795
21.764	22.9768
21.782	22.9733
21.8	22.9692
21.818	22.9645
21.836	22.9588
21.854	22.9525
21.872	22.9451
21.89	22.936
21.908	22.9254
21.926	22.9125
21.944	22.8967
21.962	22.8784
21.98	22.8565
21.998	22.8308
22.016	22.8013
22.034	22.7677
22.052	22.7299
22.07	22.6882
22.088	22.6428
22.106	22.5936
22.124	22.5419
22.142	22.4876
22.16	22.4312
22.178	22.3748
22.196	22.3176
22.214	22.2612
22.232	22.2077
22.25	22.1562
22.268	22.1085
22.286	22.066
22.304	22.028
22.322	21.9961
22.34	21.9706
22.358	21.9512
22.376	21.9379
22.394	21.9313
22.412	21.9303
22.43	21.9337
22.448	21.9425
22.466	21.9545
22.484	21.968
22.502	21.9842
22.52	21.9999
22.538	22.0141
22.556	22.0274
22.574	22.0368
22.592	22.0419
22.61	22.0429
22.628	22.0377
22.646	22.0262
22.664	22.0087
22.682	21.9847
22.7	21.9539
22.718	21.9172
22.736	21.8749
22.754	21.8266
22.772	21.7739
22.79	21.7183
22.808	21.6587
22.826	21.5972
22.844	21.5348
22.862	21.4708
22.88	21.4065
22.898	21.3427
22.916	21.279
22.934	21.2153
22.952	21.152
22.97	21.0889
22.988	21.0242
23.006	20.9579
23.024	20.89
23.042	20.818
23.06	20.7419
23.078	20.6617
23.096	20.5754
23.114	20.4827
23.132	20.3839
23.15	20.2787
23.168	20.1663
23.186	20.0478
23.204	19.9246
23.222	19.7956
23.24	19.6625
23.258	19.5289
23.276	19.3936
23.294	19.2582
23.312	19.1277
23.33	19.0007
23.348	18.8785
23.366	18.7669
23.384	18.665
23.402	18.5734
23.42	18.4971
23.438	18.4361
23.456	18.39
23.474	18.3615
23.492	18.3515
23.51	18.359
23.528	18.3833
23.546	18.4252
23.564	18.4842
23.582	18.5566
23.6	18.642
23.618	18.7413
23.636	18.8488
23.654	18.9625
23.672	19.0849
23.69	19.209
23.708	19.3306
23.726	19.4535
23.744	19.5712
23.762	19.678
23.78	19.7776
23.798	19.8661
23.816	19.938
23.834	19.9955
23.852	20.0376
23.87	20.0614
23.888	20.067
23.906	20.0553
23.924	20.0263
23.942	19.9791
23.96	19.9147
23.978	19.8363
23.996	19.7438
24.014	19.6363
24.032	19.5199
24.05	19.3975
24.068	19.2657
24.086	19.1307
24.104	18.9982
24.122	18.864
24.14	18.7326
24.158	18.6108
24.176	18.4965
24.194	18.3906
24.212	18.2977
24.23	18.2188
24.248	18.1525
24.266	18.1004
24.284	18.0641
24.302	18.0431
24.32	18.0354
24.338	18.0394
24.356	18.058
24.374	18.0869
24.392	18.1202
24.41	18.1603
24.428	18.2059
24.446	18.2493
24.464	18.2877
24.482	18.325
24.5	18.3547
24.518	18.3717
24.536	18.3791
24.554	18.3752
24.572	18.3562
24.59	18.3226
24.608	18.275
24.626	18.2118
24.644	18.1314
24.662	18.0341
24.68	17.9236
24.698	17.8027
24.716	17.6676
24.734	17.5229
24.752	17.376
24.77	17.225
24.788	17.0693
24.806	16.9195
24.824	16.7822
24.842	16.6501
24.86	16.5313
24.878	16.4363
24.896	16.3615
24.914	16.3073
24.932	16.2827
24.95	16.2922
24.968	16.3304
24.986	16.4023
25.004	16.5132
25.022	16.6629
25.04	16.8493
25.058	17.0713
25.076	17.3305
25.094	17.6284
25.112	17.956
25.13	18.3045
25.148	18.6808
25.166	19.08
25.184	19.4899
25.202	19.9059
25.22	20.3355
25.238	20.768
25.256	21.192
25.274	21.6121
25.292	22.0277
25.31	22.4304
25.328	22.8153
25.346	23.1872
25.364	23.5433
25.382	23.8799
25.4	24.1943
25.418	24.4897
25.436	24.7712
25.454	25.0418
25.472	25.2947
25.49	25.5389
25.508	25.7862
25.526	26.0387
25.544	26.291
25.562	26.5507
25.58	26.8254
25.598	27.1133
25.616	27.4128
25.634	27.725
25.652	28.0519
25.67	28.3949
25.688	28.748
25.706	29.1046
25.724	29.4675
25.742	29.8383
25.76	30.2048
25.778	30.556
25.796	30.901
25.814	31.2353
25.832	31.5457
25.85	31.8236
25.868	32.0785
25.886	32.3046
25.904	32.4937
25.922	32.643
25.94	32.757
25.958	32.8341
25.976	32.8727
25.994	32.8682
26.012	32.825
26.03	32.7517
26.048	32.655
26.066	32.5216
26.084	32.3638
26.102	32.2021
26.12	32.0475
26.138	31.88
26.156	31.7199
26.174	31.5925
26.192	31.5033
26.21	31.4342
26.228	31.4093
26.246	31.4543
26.264	31.5687
26.282	31.7413
26.3	31.9877
26.318	32.3232
26.336	32.7486
26.354	33.2566
26.372	33.8442
26.39	34.5094
26.408	35.2623
26.426	36.0931
26.444	36.9845
26.462	37.9243
26.48	38.9367
26.498	40.0007
26.516	41.0823
26.534	42.158
26.552	43.2586
26.57	44.3638
26.588	45.443
26.606	46.4765
26.624	47.4892
26.642	48.4673
26.66	49.3913
26.678	50.2475
26.696	51.0472
26.714	51.7925
26.732	52.4839
26.75	53.1153
26.768	53.678
26.786	54.1966
26.804	54.6975
26.822	55.1888
26.84	55.6446
26.858	56.0943
26.876	56.571
26.894	57.0895
26.912	57.6224
26.93	58.1894
26.948	58.8142
26.966	59.5588
26.984	60.4778
27.002	61.3946
27.02	62.1188
27.028	62.3085