File: Bakgrunnsmateriale/MATLAB/FTIR/ftir_data/subBb/Mapping_121/C-4040-8_t47.asc
PE IR       SPECTRUM    SPECTRUM    ASCII       PEDS        1.60
  -1
C-B536~1.ASC
17/03/27
18:23:09.00
17/03/27
18:23:35.00
tln
$C-4040-8_t0047$<tbV0>[7.8,-2.6,8.0,0.0,27,1,0]
27.028
64

2002,4.07
MIRTGS : RIGHTBACK : INTERNAL 2
MIR : ON : INTERNAL 2
OPTKBR

0.200000
8
8.000000
FILLER
RATIO
SPECTRUM
UNLOCKED 256

DOUBLE
64
COMBINED
1
0
0

0.002000
RATIO

1
0
TRUE
51149
0
LEFT NOT FITTED RIGHT NOT FITTED 0
NONE
NONE
15600
12
4.427000
51148
TRUE
1 0 8 72 0 0 0 0

15798

#HDR
-1
-1
#GR
µM
%T
2.38419e-05
0.0
2.000000
0.002000
12515
8
92.2923
40.2928
#DATA
2.000000	 64.7907
2.018000	 65.0048
2.036000	 64.8989
2.054000	 63.8446
2.072000	 64.6733
2.090000	 64.7979
2.108000	 64.4075
2.126000	 65.0488
2.144000	 64.4838
2.162000	 64.9666
2.180000	 64.5287
2.198000	 64.2729
2.216000	 65.2357
2.234000	 65.0546
2.252000	 64.7536
2.270000	 65.1766
2.288000	 67.9388
2.306000	 67.1281
2.324000	 64.6115
2.342000	 65.2563
2.360000	 64.7782
2.378000	 64.9908
2.396000	 64.4864
2.414000	 65.0396
2.432000	 65.0127
2.450000	 64.8067
2.468000	 64.9016
2.486000	 64.8521
2.504000	 64.9044
2.522000	 64.8919
2.540000	 64.948
2.558000	 65.0675
2.576000	 64.9298
2.594000	 65.1589
2.612000	 64.805
2.630000	 65.1151
2.648000	 65.0438
2.666000	 65.154
2.684000	 65.0737
2.702000	 64.9159
2.720000	 64.9977
2.738000	 65.0602
2.756000	 64.8844
2.774000	 64.8562
2.792000	 65.0284
2.810000	 65.0774
2.828000	 65.097
2.846000	 64.9132
2.864000	 64.9439
2.882000	 65.1318
2.900000	 64.8988
2.918000	 64.9162
2.936000	 65.064
2.954000	 65.0094
2.972000	 65.1379
2.990000	 64.9594
3.008000	 65.0274
3.026000	 65.0139
3.044000	 64.8499
3.062000	 65.3379
3.080000	 65.0933
3.098000	 65.1628
3.116000	 64.9852
3.134000	 65.032
3.152000	 65.1396
3.170000	 65.1807
3.188000	 64.8677
3.206000	 64.6477
3.224000	 65.1608
3.242000	 65.1381
3.260000	 65.1605
3.278000	 65.0968
3.296000	 65.2028
3.314000	 65.0847
3.332000	 64.9968
3.350000	 65.084
3.368000	 65.0902
3.386000	 65.2314
3.404000	 64.765
3.422000	 64.8755
3.440000	 65.1521
3.458000	 64.982
3.476000	 64.9496
3.494000	 64.8843
3.512000	 65.0426
3.530000	 64.9735
3.548000	 65.1432
3.566000	 65.1014
3.584000	 64.9548
3.602000	 65.0158
3.620000	 65.1021
3.638000	 65.2044
3.656000	 65.1621
3.674000	 65.0282
3.692000	 64.9701
3.710000	 65.0806
3.728000	 65.0466
3.746000	 65.0894
3.764000	 65.2207
3.782000	 65.1088
3.800000	 65.0833
3.818000	 65.237
3.836000	 65.2532
3.854000	 65.2343
3.872000	 65.1989
3.890000	 65.0254
3.908000	 65.117
3.926000	 65.09
3.944000	 65.1117
3.962000	 64.9348
3.980000	 65.3373
3.998000	 65.0298
4.016000	 64.8312
4.034000	 65.0926
4.052000	 65.0331
4.070000	 65.0315
4.088000	 65.1111
4.106000	 65.0296
4.124000	 65.3938
4.141999	 64.9745
4.160000	 65.2195
4.178000	 65.1346
4.196000	 65.0436
4.214000	 65.0022
4.232000	 65.1392
4.250000	 65.1247
4.268000	 65.0397
4.286000	 65.078
4.304000	 65.1225
4.322000	 65.0634
4.340000	 65.2339
4.358000	 65.1587
4.375999	 65.0938
4.394000	 65.0905
4.412000	 65.1507
4.430000	 65.263
4.448000	 65.2792
4.466000	 65.2379
4.484000	 65.2149
4.502000	 65.0941
4.520000	 65.1321
4.538000	 64.9733
4.556000	 64.9657
4.574000	 65.1673
4.592000	 65.1011
4.609999	 65.0636
4.628000	 65.2075
4.646000	 65.2527
4.664000	 64.9995
4.682000	 65.2366
4.700000	 65.2025
4.718000	 65.084
4.736000	 65.1674
4.754000	 65.1363
4.772000	 65.1445
4.790000	 65.1784
4.808000	 64.9986
4.826000	 64.8027
4.843999	 64.98
4.862000	 65.0247
4.880000	 65.0888
4.898000	 65.0959
4.916000	 65.2748
4.934000	 65.1903
4.952000	 65.0564
4.970000	 65.1267
4.988000	 65.1185
5.006000	 65.092
5.024000	 65.1078
5.042000	 65.1386
5.060000	 65.1968
5.077999	 65.1567
5.096000	 65.0287
5.114000	 64.9729
5.132000	 65.0843
5.150000	 65.1454
5.168000	 65.1627
5.186000	 65.0892
5.204000	 65.0351
5.222000	 65.125
5.240000	 65.0794
5.258000	 64.9894
5.276000	 65.1796
5.294000	 65.107
5.312000	 65.0549
5.330000	 65.1451
5.348000	 65.0492
5.366000	 65.0894
5.384000	 65.1058
5.402000	 65.0713
5.420000	 65.0285
5.438000	 64.9911
5.456000	 65.1788
5.474000	 65.181
5.492000	 65.0149
5.510000	 65.1208
5.528000	 65.1402
5.546000	 65.1319
5.564000	 65.1067
5.582000	 65.1672
5.600000	 65.1408
5.618000	 65.0701
5.636000	 65.0504
5.654000	 65.1526
5.672000	 65.147
5.690000	 65.0544
5.708000	 65.0303
5.726000	 65.0297
5.744000	 64.9162
5.762000	 64.8141
5.780000	 64.8436
5.798000	 64.9903
5.816000	 65.0502
5.834000	 64.8711
5.852000	 64.8863
5.870000	 64.9883
5.888000	 65.0138
5.906000	 64.9754
5.923999	 64.9969
5.942000	 65.1066
5.960000	 65.1106
5.978000	 65.0382
5.996000	 65.086
6.014000	 65.1092
6.032000	 64.9717
6.050000	 65.005
6.068000	 65.0627
6.086000	 64.9979
6.104000	 64.9225
6.122000	 64.9088
6.140000	 64.9432
6.158000	 64.8991
6.176000	 64.8738
6.194000	 64.8768
6.212000	 64.8165
6.230000	 64.8859
6.248000	 64.9798
6.266000	 64.9382
6.284000	 64.8616
6.302000	 64.8122
6.320000	 64.8442
6.338000	 64.9839
6.356000	 65.0149
6.374000	 64.8796
6.392000	 64.8467
6.410000	 64.9012
6.428000	 64.9267
6.446000	 64.9443
6.464000	 64.9795
6.482000	 65.0071
6.500000	 64.9347
6.518000	 64.8306
6.536000	 64.779
6.554000	 64.7617
6.572000	 64.7935
6.590000	 64.8605
6.608000	 64.8488
6.626000	 64.8445
6.644000	 65.0093
6.662000	 65.1317
6.680000	 64.9763
6.698000	 64.7919
6.716000	 64.854
6.734000	 64.9839
6.752000	 64.9789
6.770000	 64.8845
6.788000	 64.8393
6.806000	 64.8591
6.824000	 64.8961
6.842000	 64.8371
6.860000	 64.6752
6.878000	 64.6396
6.896000	 64.757
6.914000	 64.7801
6.932000	 64.7376
6.950000	 64.7761
6.968000	 64.7808
6.986000	 64.7403
7.004000	 64.8127
7.022000	 64.9336
7.040000	 64.9519
7.058000	 64.8879
7.076000	 64.8408
7.094000	 64.8276
7.112000	 64.8254
7.130000	 64.8455
7.148000	 64.8787
7.166000	 64.8965
7.184000	 64.8965
7.202000	 64.9094
7.220000	 64.9536
7.238000	 64.96
7.256000	 64.889
7.274000	 64.812
7.292000	 64.769
7.310000	 64.7445
7.328000	 64.7389
7.346000	 64.7374
7.364000	 64.7427
7.382000	 64.7694
7.400000	 64.7622
7.418000	 64.7162
7.436000	 64.7008
7.454000	 64.6863
7.472000	 64.6317
7.490000	 64.6142
7.508000	 64.6761
7.526000	 64.7727
7.544000	 64.8539
7.562000	 64.8855
7.580000	 64.8861
7.598000	 64.9043
7.616000	 64.9157
7.634000	 64.8673
7.652000	 64.7753
7.670000	 64.7012
7.688000	 64.68
7.706000	 64.6938
7.724000	 64.7037
7.742000	 64.7066
7.760000	 64.7352
7.778000	 64.784
7.796000	 64.8004
7.814000	 64.7756
7.832000	 64.7578
7.850000	 64.7736
7.868000	 64.8023
7.886000	 64.8133
7.904000	 64.7893
7.922000	 64.7467
7.940000	 64.7272
7.958000	 64.7453
7.976000	 64.7884
7.994000	 64.8491
8.012000	 64.8975
8.030000	 64.8761
8.048000	 64.7766
8.065999	 64.6644
8.084000	 64.5938
8.102000	 64.557
8.120000	 64.5453
8.138000	 64.5795
8.155999	 64.6569
8.173999	 64.7265
8.192000	 64.7492
8.210000	 64.735
8.228000	 64.7164
8.246000	 64.7219
8.263999	 64.7603
8.282000	 64.796
8.300000	 64.7752
8.318000	 64.7061
8.336000	 64.6708
8.353999	 64.7322
8.372000	 64.8651
8.390000	 64.9792
8.408000	 64.9868
8.426000	 64.8534
8.443999	 64.6339
8.462000	 64.4561
8.480000	 64.4175
8.498000	 64.4991
8.516000	 64.6055
8.533999	 64.6811
8.552000	 64.7509
8.570000	 64.8333
8.588000	 64.8816
8.606000	 64.8462
8.624000	 64.7447
8.641999	 64.6414
8.660000	 64.5927
8.678000	 64.6366
8.696000	 64.7854
8.714000	 64.9729
8.731999	 65.0632
8.750000	 64.9843
8.768000	 64.8079
8.786000	 64.6544
8.804000	 64.5622
8.821999	 64.5008
8.840000	 64.4613
8.858000	 64.4605
8.876000	 64.479
8.894000	 64.4829
8.911999	 64.4982
8.930000	 64.5904
8.948000	 64.7522
8.966000	 64.8635
8.984000	 64.8009
9.001999	 64.5637
9.020000	 64.2712
9.038000	 64.0726
9.056000	 64.0627
9.074000	 64.2269
9.092000	 64.4296
9.109999	 64.5062
9.128000	 64.4126
9.146000	 64.2881
9.164000	 64.329
9.182000	 64.5919
9.199999	 64.939
9.218000	 65.1751
9.236000	 65.2063
9.254000	 65.071
9.272000	 64.8628
9.289999	 64.6599
9.308000	 64.5052
9.326000	 64.4185
9.344000	 64.4037
9.362000	 64.4466
9.379999	 64.5255
9.398000	 64.6107
9.416000	 64.6653
9.434000	 64.6554
9.452000	 64.58
9.469999	 64.4827
9.488000	 64.4204
9.506000	 64.413
9.524000	 64.4285
9.542000	 64.422
9.560000	 64.3874
9.577999	 64.3598
9.596000	 64.3703
9.614000	 64.4105
9.632000	 64.4415
9.650000	 64.4287
9.667999	 64.3673
9.686000	 64.2819
9.704000	 64.2076
9.722000	 64.1698
9.740000	 64.1748
9.757999	 64.2122
9.776000	 64.2642
9.794000	 64.3164
9.812000	 64.3642
9.830000	 64.4117
9.847999	 64.4622
9.866000	 64.5092
9.884000	 64.5392
9.902000	 64.5419
9.920000	 64.5215
9.937999	 64.4976
9.956000	 64.492
9.974000	 64.5125
9.992000	 64.5462
10.01	64.5681
10.028	64.5557
10.046	64.5046
10.064	64.4294
10.082	64.354
10.1	64.2992
10.118	64.2729
10.136	64.2707
10.154	64.2839
10.172	64.3057
10.19	64.3338
10.208	64.3654
10.226	64.3921
10.244	64.4007
10.262	64.3819
10.28	64.34
10.298	64.2931
10.316	64.2661
10.334	64.2763
10.352	64.325
10.37	64.3971
10.388	64.4696
10.406	64.5242
10.424	64.5524
10.442	64.5568
10.46	64.5457
10.478	64.5277
10.496	64.5065
10.514	64.4801
10.532	64.4436
10.55	64.3951
10.568	64.3392
10.586	64.2881
10.604	64.2566
10.622	64.2556
10.64	64.2859
10.658	64.3382
10.676	64.3946
10.694	64.4367
10.712	64.4508
10.73	64.4335
10.748	64.3905
10.766	64.3367
10.784	64.2905
10.802	64.2692
10.82	64.2816
10.838	64.3256
10.856	64.3882
10.874	64.4492
10.892	64.4904
10.91	64.5
10.928	64.4791
10.946	64.4394
10.964	64.398
10.982	64.3695
11	64.3583
11.018	64.3573
11.036	64.3538
11.054	64.3358
11.072	64.2997
11.09	64.2509
11.108	64.1997
11.126	64.1563
11.144	64.1256
11.162	64.1073
11.18	64.0991
11.198	64.0996
11.216	64.1092
11.234	64.1292
11.252	64.1577
11.27	64.1903
11.288	64.2208
11.306	64.2445
11.324	64.2593
11.342	64.2662
11.36	64.2668
11.378	64.2614
11.396	64.2484
11.414	64.2263
11.432	64.197
11.45	64.1661
11.468	64.143
11.486	64.1369
11.504	64.1526
11.522	64.1888
11.54	64.2393
11.558	64.2945
11.576	64.3453
11.594	64.385
11.612	64.4098
11.63	64.4185
11.648	64.4131
11.666	64.3975
11.684	64.3778
11.702	64.3605
11.72	64.3517
11.738	64.3539
11.756	64.3648
11.774	64.3775
11.792	64.3823
11.81	64.3705
11.828	64.3382
11.846	64.2867
11.864	64.2231
11.882	64.1561
11.9	64.0932
11.918	64.0378
11.936	63.9891
11.954	63.9444
11.972	63.9015
11.99	63.8612
12.008	63.8284
12.026	63.8101
12.044	63.8127
12.062	63.8395
12.08	63.8886
12.098	63.9532
12.116	64.022
12.134	64.0828
12.152	64.1253
12.17	64.1437
12.188	64.1375
12.206	64.1119
12.224	64.0763
12.242	64.042
12.26	64.0188
12.278	64.0124
12.296	64.0221
12.314	64.0406
12.332	64.0571
12.35	64.0602
12.368	64.0419
12.386	64.0001
12.404	63.9398
12.422	63.8712
12.44	63.8064
12.458	63.757
12.476	63.7304
12.494	63.729
12.512	63.7499
12.53	63.7864
12.548	63.83
12.566	63.8724
12.584	63.9063
12.602	63.927
12.62	63.9318
12.638	63.9208
12.656	63.8964
12.674	63.8624
12.692	63.8238
12.71	63.7856
12.728	63.752
12.746	63.7256
12.764	63.7073
12.782	63.696
12.8	63.6902
12.818	63.6884
12.836	63.6897
12.854	63.6935
12.872	63.6998
12.89	63.708
12.908	63.7172
12.926	63.7251
12.944	63.729
12.962	63.727
12.98	63.7189
12.998	63.7072
13.016	63.6972
13.034	63.6961
13.052	63.7103
13.07	63.743
13.088	63.7921
13.106	63.8496
13.124	63.9024
13.142	63.937
13.16	63.9419
13.178	63.9131
13.196	63.8549
13.214	63.7803
13.232	63.7076
13.25	63.6557
13.268	63.6388
13.286	63.662
13.304	63.7204
13.322	63.7995
13.34	63.8796
13.358	63.9408
13.376	63.9676
13.394	63.9531
13.412	63.8993
13.43	63.8158
13.448	63.7165
13.466	63.6158
13.484	63.5253
13.502	63.4522
13.52	63.3992
13.538	63.3653
13.556	63.3477
13.574	63.344
13.592	63.352
13.61	63.3705
13.628	63.3984
13.646	63.4333
13.664	63.4718
13.682	63.5077
13.7	63.5349
13.718	63.547
13.736	63.5407
13.754	63.5155
13.772	63.4751
13.79	63.4264
13.808	63.3784
13.826	63.3399
13.844	63.3183
13.862	63.3173
13.88	63.3371
13.898	63.3744
13.916	63.4237
13.934	63.4785
13.952	63.5331
13.97	63.5826
13.988	63.6239
14.006	63.6552
14.024	63.6762
14.042	63.6867
14.06	63.6867
14.078	63.6761
14.096	63.6543
14.114	63.6218
14.132	63.58
14.15	63.5308
14.168	63.4772
14.186	63.4224
14.204	63.3696
14.222	63.322
14.24	63.2812
14.258	63.2483
14.276	63.2231
14.294	63.2052
14.312	63.1943
14.33	63.1901
14.348	63.1929
14.366	63.203
14.384	63.2202
14.402	63.2434
14.42	63.2702
14.438	63.2968
14.456	63.3184
14.474	63.3298
14.492	63.3262
14.51	63.3039
14.528	63.262
14.546	63.2021
14.564	63.1281
14.582	63.0456
14.6	62.9615
14.618	62.8833
14.636	62.8182
14.654	62.7715
14.672	62.7465
14.69	62.7445
14.708	62.7646
14.726	62.8042
14.744	62.8587
14.762	62.9225
14.78	62.9903
14.798	63.0564
14.816	63.116
14.834	63.165
14.852	63.2001
14.87	63.2203
14.888	63.2255
14.906	63.2169
14.924	63.1967
14.942	63.1685
14.96	63.1358
14.978	63.1015
14.996	63.0683
15.014	63.0378
15.032	63.011
15.05	62.9878
15.068	62.9678
15.086	62.9505
15.104	62.9352
15.122	62.9218
15.14	62.9102
15.158	62.9004
15.176	62.8925
15.194	62.8863
15.212	62.8817
15.23	62.8778
15.248	62.874
15.266	62.8691
15.284	62.8619
15.302	62.8512
15.32	62.8364
15.338	62.8166
15.356	62.7913
15.374	62.7609
15.392	62.726
15.41	62.6872
15.428	62.6459
15.446	62.6035
15.464	62.5616
15.482	62.5214
15.5	62.4841
15.518	62.4513
15.536	62.4234
15.554	62.4008
15.572	62.3838
15.59	62.3717
15.608	62.3638
15.626	62.3592
15.644	62.3569
15.662	62.3557
15.68	62.3553
15.698	62.3557
15.716	62.3578
15.734	62.3631
15.752	62.3731
15.77	62.3895
15.788	62.4141
15.806	62.4474
15.824	62.4894
15.842	62.5391
15.86	62.5935
15.878	62.6499
15.896	62.705
15.914	62.7545
15.932	62.7952
15.95	62.825
15.968	62.842
15.986	62.846
16.004	62.8383
16.022	62.8201
16.04	62.7949
16.058	62.7658
16.076	62.7357
16.094	62.7079
16.112	62.6848
16.13	62.6678
16.148	62.6585
16.166	62.657
16.184	62.6631
16.202	62.6764
16.22	62.6955
16.238	62.7193
16.256	62.7471
16.274	62.7768
16.292	62.8068
16.31	62.8357
16.328	62.8604
16.346	62.8787
16.364	62.8886
16.382	62.8868
16.4	62.8715
16.418	62.8412
16.436	62.7945
16.454	62.7318
16.472	62.6535
16.49	62.5621
16.508	62.4611
16.526	62.3533
16.544	62.2444
16.562	62.1383
16.58	62.0385
16.598	61.9499
16.616	61.8747
16.634	61.8148
16.652	61.7711
16.67	61.743
16.688	61.73
16.706	61.7295
16.724	61.7402
16.742	61.7601
16.76	61.7865
16.778	61.8182
16.796	61.8537
16.814	61.8915
16.832	61.9312
16.85	61.972
16.868	62.0132
16.886	62.0543
16.904	62.0945
16.922	62.1334
16.94	62.1704
16.958	62.2045
16.976	62.2357
16.994	62.2632
17.012	62.2867
17.03	62.3059
17.048	62.3207
17.066	62.331
17.084	62.3365
17.102	62.3372
17.12	62.3328
17.138	62.3228
17.156	62.3068
17.174	62.2844
17.192	62.255
17.21	62.2185
17.228	62.1745
17.246	62.1235
17.264	62.0656
17.282	62.0021
17.3	61.934
17.318	61.8631
17.336	61.7919
17.354	61.7217
17.372	61.656
17.39	61.5957
17.408	61.5436
17.426	61.5008
17.444	61.4683
17.462	61.447
17.48	61.4369
17.498	61.4373
17.516	61.4471
17.534	61.4653
17.552	61.4894
17.57	61.5188
17.588	61.5505
17.606	61.5834
17.624	61.6154
17.642	61.6447
17.66	61.6703
17.678	61.6902
17.696	61.704
17.714	61.7104
17.732	61.7091
17.75	61.6995
17.768	61.6815
17.786	61.6552
17.804	61.6209
17.822	61.5789
17.84	61.5304
17.858	61.4762
17.876	61.4175
17.894	61.3562
17.912	61.2932
17.93	61.2316
17.948	61.1718
17.966	61.1169
17.984	61.0674
18.002	61.0254
18.02	60.9913
18.038	60.966
18.056	60.9493
18.074	60.9414
18.092	60.9411
18.11	60.9482
18.128	60.9608
18.146	60.9786
18.164	60.9993
18.182	61.0222
18.2	61.0459
18.218	61.0693
18.236	61.0917
18.254	61.1126
18.272	61.1319
18.29	61.1494
18.308	61.1654
18.326	61.1805
18.344	61.1951
18.362	61.2101
18.38	61.2258
18.398	61.2432
18.416	61.2623
18.434	61.2839
18.452	61.3075
18.47	61.3334
18.488	61.3608
18.506	61.3894
18.524	61.4179
18.542	61.4462
18.56	61.4721
18.578	61.4956
18.596	61.5151
18.614	61.5305
18.632	61.5409
18.65	61.5464
18.668	61.5474
18.686	61.5443
18.704	61.5383
18.722	61.5301
18.74	61.5218
18.758	61.5142
18.776	61.5099
18.794	61.5093
18.812	61.5147
18.83	61.5263
18.848	61.5455
18.866	61.5717
18.884	61.6048
18.902	61.6433
18.92	61.6857
18.938	61.73
18.956	61.7733
18.974	61.8136
18.992	61.8473
19.01	61.8729
19.028	61.8871
19.046	61.8892
19.064	61.8768
19.082	61.8505
19.1	61.8095
19.118	61.7553
19.136	61.6893
19.154	61.6133
19.172	61.5308
19.19	61.4432
19.208	61.3556
19.226	61.2686
19.244	61.1875
19.262	61.1122
19.28	61.0468
19.298	60.9907
19.316	60.9462
19.334	60.9128
19.352	60.8896
19.37	60.8767
19.388	60.8711
19.406	60.8728
19.424	60.8776
19.442	60.8855
19.46	60.8924
19.478	60.8981
19.496	60.8998
19.514	60.8967
19.532	60.8878
19.55	60.8719
19.568	60.8495
19.586	60.8203
19.604	60.7854
19.622	60.7455
19.64	60.7014
19.658	60.6557
19.676	60.6084
19.694	60.5625
19.712	60.5176
19.73	60.4767
19.748	60.44
19.766	60.4093
19.784	60.385
19.802	60.3679
19.82	60.3588
19.838	60.3575
19.856	60.3643
19.874	60.3788
19.892	60.4004
19.91	60.429
19.928	60.4629
19.946	60.5024
19.964	60.545
19.982	60.5906
20	60.6372
20.018	60.6838
20.036	60.7291
20.054	60.7709
20.072	60.8092
20.09	60.841
20.108	60.8669
20.126	60.8845
20.144	60.8938
20.162	60.894
20.18	60.8845
20.198	60.8659
20.216	60.8382
20.234	60.8017
20.252	60.7581
20.27	60.7071
20.288	60.6518
20.306	60.5921
20.324	60.5302
20.342	60.4678
20.36	60.4052
20.378	60.3453
20.396	60.2876
20.414	60.2339
20.432	60.1842
20.45	60.1389
20.468	60.0985
20.486	60.0626
20.504	60.0305
20.522	60.0023
20.54	59.9761
20.558	59.9522
20.576	59.9288
20.594	59.9051
20.612	59.8809
20.63	59.8545
20.648	59.8262
20.666	59.7953
20.684	59.7616
20.702	59.7254
20.72	59.6868
20.738	59.646
20.756	59.6043
20.774	59.5614
20.792	59.5186
20.81	59.476
20.828	59.4343
20.846	59.3949
20.864	59.3572
20.882	59.3227
20.9	59.291
20.918	59.2628
20.936	59.2384
20.954	59.2177
20.972	59.2011
20.99	59.1884
21.008	59.1796
21.026	59.1745
21.044	59.1729
21.062	59.1743
21.08	59.1787
21.098	59.1856
21.116	59.1949
21.134	59.2064
21.152	59.2197
21.17	59.2351
21.188	59.2519
21.206	59.2702
21.224	59.2896
21.242	59.3095
21.26	59.3303
21.278	59.3506
21.296	59.3704
21.314	59.3893
21.332	59.406
21.35	59.4209
21.368	59.4324
21.386	59.4402
21.404	59.4443
21.422	59.4435
21.44	59.4381
21.458	59.4277
21.476	59.4117
21.494	59.3907
21.512	59.3652
21.53	59.3345
21.548	59.3011
21.566	59.2661
21.584	59.2292
21.602	59.1945
21.62	59.1609
21.638	59.1311
21.656	59.1087
21.674	59.0921
21.692	59.0845
21.71	59.0867
21.728	59.0984
21.746	59.1206
21.764	59.154
21.782	59.1963
21.8	59.2469
21.818	59.306
21.836	59.368
21.854	59.4338
21.872	59.5006
21.89	59.562
21.908	59.6206
21.926	59.6704
21.944	59.7074
21.962	59.7334
21.98	59.7432
21.998	59.7361
22.016	59.7126
22.034	59.671
22.052	59.6107
22.07	59.535
22.088	59.4451
22.106	59.3404
22.124	59.2283
22.142	59.1084
22.16	58.983
22.178	58.8623
22.196	58.7431
22.214	58.6317
22.232	58.5366
22.25	58.4539
22.268	58.3909
22.286	58.3523
22.304	58.3357
22.322	58.3451
22.34	58.3822
22.358	58.4453
22.376	58.5336
22.394	58.6489
22.412	58.7871
22.43	58.9435
22.448	59.1214
22.466	59.3126
22.484	59.5111
22.502	59.7207
22.52	59.9298
22.538	60.1342
22.556	60.3364
22.574	60.5242
22.592	60.6971
22.61	60.8547
22.628	60.9881
22.646	61.0983
22.664	61.1841
22.682	61.2407
22.7	61.2689
22.718	61.2689
22.736	61.2401
22.754	61.1818
22.772	61.0972
22.79	60.9882
22.808	60.853
22.826	60.6976
22.844	60.525
22.862	60.3329
22.88	60.1291
22.898	59.9164
22.916	59.6928
22.934	59.4661
22.952	59.238
22.97	59.0074
22.988	58.7815
23.006	58.5617
23.024	58.3469
23.042	58.1423
23.06	57.9485
23.078	57.7648
23.096	57.5933
23.114	57.4344
23.132	57.2874
23.15	57.152
23.168	57.0286
23.186	56.9167
23.204	56.8151
23.222	56.7242
23.24	56.6436
23.258	56.5719
23.276	56.5096
23.294	56.4561
23.312	56.4089
23.33	56.3679
23.348	56.3333
23.366	56.3048
23.384	56.2815
23.402	56.2644
23.42	56.2548
23.438	56.2523
23.456	56.2573
23.474	56.2725
23.492	56.2981
23.51	56.3336
23.528	56.3804
23.546	56.4388
23.564	56.5084
23.582	56.5901
23.6	56.6848
23.618	56.792
23.636	56.9106
23.654	57.0403
23.672	57.1815
23.69	57.333
23.708	57.4942
23.726	57.6656
23.744	57.8463
23.762	58.0358
23.78	58.2351
23.798	58.4417
23.816	58.653
23.834	58.8714
23.852	59.0937
23.87	59.3146
23.888	59.5358
23.906	59.7564
23.924	59.9723
23.942	60.1836
23.96	60.3908
23.978	60.5914
23.996	60.7848
24.014	60.9717
24.032	61.151
24.05	61.3218
24.068	61.4847
24.086	61.6394
24.104	61.7857
24.122	61.9241
24.14	62.0538
24.158	62.174
24.176	62.2851
24.194	62.3868
24.212	62.4785
24.23	62.5603
24.248	62.6323
24.266	62.6935
24.284	62.7432
24.302	62.7817
24.32	62.8098
24.338	62.8282
24.356	62.8357
24.374	62.8342
24.392	62.8262
24.41	62.8097
24.428	62.7863
24.446	62.7616
24.464	62.7362
24.482	62.7073
24.5	62.6841
24.518	62.674
24.536	62.67
24.554	62.6795
24.572	62.7129
24.59	62.7687
24.608	62.846
24.626	62.9506
24.644	63.0848
24.662	63.2453
24.68	63.4367
24.698	63.6636
24.716	63.9269
24.734	64.2219
24.752	64.5437
24.77	64.8912
24.788	65.2661
24.806	65.6668
24.824	66.0913
24.842	66.538
24.86	67.0125
24.878	67.5209
24.896	68.059
24.914	68.629
24.932	69.2395
24.95	69.8926
24.968	70.5812
24.986	71.3198
25.004	72.1239
25.022	72.9917
25.04	73.9189
25.058	74.9057
25.076	75.9565
25.094	77.0734
25.112	78.2385
25.13	79.4355
25.148	80.6874
25.166	81.9731
25.184	83.2489
25.202	84.5036
25.22	85.7681
25.238	86.9834
25.256	88.089
25.274	89.1191
25.292	90.0604
25.31	90.8525
25.328	91.4612
25.346	91.9267
25.364	92.2156
25.382	92.2876
25.4	92.1424
25.418	91.7938
25.436	91.2346
25.454	90.4552
25.472	89.447
25.49	88.237
25.508	86.8568
25.526	85.3024
25.544	83.561
25.562	81.6827
25.58	79.7138
25.598	77.6149
25.616	75.4101
25.634	73.1613
25.652	70.9041
25.67	68.5924
25.688	66.2685
25.706	63.9848
25.724	61.7404
25.742	59.5156
25.76	57.3516
25.778	55.2856
25.796	53.2885
25.814	51.3734
25.832	49.58
25.85	47.9331
25.868	46.4011
25.886	45.0079
25.904	43.7855
25.922	42.7352
25.94	41.838
25.958	41.1283
25.976	40.6409
25.994	40.3657
26.012	40.296
26.03	40.4497
26.048	40.844
26.066	41.477
26.084	42.3371
26.102	43.4141
26.12	44.7074
26.138	46.2373
26.156	47.9665
26.174	49.852
26.192	51.896
26.21	54.1344
26.228	56.4863
26.246	58.8675
26.264	61.2985
26.282	63.8085
26.3	66.301
26.318	68.6816
26.336	71.0011
26.354	73.2608
26.372	75.3717
26.39	77.2521
26.408	78.9555
26.426	80.474
26.444	81.7509
26.462	82.7371
26.48	83.4586
26.498	83.923
26.516	84.1243
26.534	84.0528
26.552	83.6954
26.57	83.0833
26.588	82.2534
26.606	81.2213
26.624	79.9401
26.642	78.4657
26.66	76.8665
26.678	75.173
26.696	73.3195
26.714	71.3702
26.732	69.4022
26.75	67.45
26.768	65.449
26.786	63.4513
26.804	61.519
26.822	59.6811
26.84	57.8893
26.858	56.1741
26.876	54.5718
26.894	53.1038
26.912	51.7459
26.93	50.5009
26.948	49.3743
26.966	48.3553
26.984	47.4189
27.002	46.6176
27.02	46.0088
27.028	45.8357