File: Bakgrunnsmateriale/MATLAB/FTIR/ftir_data/subBb/Mapping_121/C-4040-8_t106_cm-1.asc
PE IR       SPECTRUM    SPECTRUM    ASCII       PEDS        1.60
  -1
C-4B8C~1.ASC
17/03/27
23:10:29.00
17/03/27
23:10:29.00
tln
$C-4040-8_t0106$<tbV0>[-2.6,10.4,8.0,0.0,27,1,0]
370
64

2002,4.07
MIRTGS : RIGHTBACK : INTERNAL 2
MIR : ON : INTERNAL 2
OPTKBR

0.200000
8
8.000000
FILLER
RATIO
SPECTRUM
UNLOCKED 256

DOUBLE
64
COMBINED
1
0
0

1.000000
RATIO

1
0
TRUE
51149
0
LEFT NOT FITTED RIGHT NOT FITTED 0
NONE
NONE
15600
12
4.427000
51148
TRUE
1 0 8 72 0 0 0 0

15798

#HDR
-1
-1
#GR
CM-1
%T
2.38419e-05
0.0
5000
-1.000000
4631
8
180.946
22.6853
#DATA
5000	65.4725
4996	65.4373
4992	65.1631
4988	64.8219
4984	64.5527
4980	64.7474
4976	65.1699
4972	65.2042
4968	65.224
4964	65.6243
4960	66.0863
4956	66.042
4952	65.3492
4948	64.839
4944	64.8368
4940	64.9937
4936	64.9128
4932	64.497
4928	64.3961
4924	64.7204
4920	64.9634
4916	65.2016
4912	65.5676
4908	65.685
4904	65.4091
4900	65.1828
4896	65.1267
4892	64.9094
4888	64.8539
4884	65.2249
4880	65.5071
4876	65.3252
4872	65.0355
4868	65.0857
4864	65.3514
4860	65.5365
4856	65.4153
4852	65.1516
4848	65.1055
4844	65.1932
4840	65.235
4836	65.1516
4832	65.0375
4828	65.1071
4824	65.2203
4820	65.1502
4816	65.0741
4812	65.1015
4808	65.0396
4804	65.1057
4800	65.2256
4796	65.051
4792	65.0513
4788	65.3799
4784	65.4109
4780	65.1541
4776	65.1367
4772	65.297
4768	65.3263
4764	65.2465
4760	65.2819
4756	65.364
4752	65.3063
4748	65.0616
4744	64.6748
4740	64.4876
4736	64.6958
4732	65.0066
4728	65.1987
4724	65.2617
4720	65.1197
4716	65.0445
4712	65.2523
4708	65.3771
4704	65.3992
4700	65.5468
4696	65.5842
4692	65.4002
4688	65.246
4684	65.3305
4680	65.4225
4676	65.2284
4672	65.0667
4668	65.1145
4664	65.0466
4660	64.9132
4656	65.1131
4652	65.4545
4648	65.6935
4644	65.8333
4640	65.5283
4636	65.1159
4632	65.3016
4628	65.6671
4624	65.623
4620	65.409
4616	65.253
4612	65.1266
4608	65.1077
4604	65.1058
4600	65.0492
4596	65.1305
4592	65.2856
4588	65.2731
4584	65.1549
4580	65.1303
4576	65.2259
4572	65.3043
4568	65.3171
4564	65.3505
4560	65.4691
4556	65.5002
4552	65.2914
4548	65.1537
4544	65.1334
4540	64.8825
4536	64.3077
4532	63.974
4528	64.465
4524	64.9878
4520	64.8556
4516	64.6846
4512	64.9652
4508	65.2068
4504	64.8637
4500	64.4582
4496	64.3851
4492	64.5375
4488	64.67
4484	64.5695
4480	64.5896
4476	64.6343
4472	64.4501
4468	64.5239
4464	64.719
4460	64.534
4456	64.2931
4452	64.398
4448	64.6419
4444	64.7428
4440	64.8798
4436	65.1187
4432	65.351
4428	65.0188
4424	64.2397
4420	64.0545
4416	64.7189
4412	65.4612
4408	65.4855
4404	65.1952
4400	67.1674
4396	67.5506
4392	61.5105
4388	74.3745
4384	92.9082
4380	80.0886
4376	67.2898
4372	65.9526
4368	65.3805
4364	64.3959
4360	63.8769
4356	64.2045
4352	64.5375
4348	64.9007
4344	65.1213
4340	65.0417
4336	64.8743
4332	64.4622
4328	64.4869
4324	65.1824
4320	65.4002
4316	65.1301
4312	64.8926
4308	64.6828
4304	64.6189
4300	64.6179
4296	64.7174
4292	64.9267
4288	64.9778
4284	64.833
4280	64.7473
4276	64.9115
4272	65.1145
4268	65.1926
4264	65.1575
4260	65.1259
4256	65.1935
4252	65.0384
4248	64.6945
4244	64.6175
4240	64.8746
4236	65.2142
4232	65.2324
4228	65.03
4224	65.0264
4220	65.0805
4216	65.078
4212	65.0387
4208	64.9792
4204	64.9609
4200	64.9368
4196	64.8313
4192	64.6154
4188	64.6561
4184	65.0075
4180	65.0997
4176	64.6337
4172	64.318
4168	64.8417
4164	65.3178
4160	65.1184
4156	64.9285
4152	65.0073
4148	65.1613
4144	65.2408
4140	65.2336
4136	65.2702
4132	65.1741
4128	65.014
4124	65.09
4120	65.177
4116	65.1335
4112	65.1333
4108	65.2541
4104	65.345
4100	65.2775
4096	65.2591
4092	65.2471
4088	65.2125
4084	65.2878
4080	65.2972
4076	65.1669
4072	65.0512
4068	65.0498
4064	65.1277
4060	65.2478
4056	65.3479
4052	65.3108
4048	65.128
4044	65.0204
4040	65.1088
4036	65.1943
4032	65.1695
4028	65.118
4024	65.0939
4020	65.1282
4016	65.1677
4012	65.1279
4008	65.164
4004	65.32
4000	65.3611
3996	65.2511
3992	65.1669
3988	65.1965
3984	65.2525
3980	65.2183
3976	65.1184
3972	65.1279
3968	65.2902
3964	65.3749
3960	65.2603
3956	65.1425
3952	65.0663
3948	64.9781
3944	65.0829
3940	65.3116
3936	65.3163
3932	65.16
3928	65.1281
3924	65.2637
3920	65.3285
3916	65.2477
3912	65.2591
3908	65.2781
3904	65.1089
3900	64.9315
3896	65.0283
3892	65.183
3888	64.9979
3884	64.8995
3880	65.1669
3876	65.361
3872	65.4006
3868	65.4381
3864	65.4626
3860	65.4454
3856	65.279
3852	65.0058
3848	64.916
3844	65.0651
3840	65.236
3836	65.244
3832	65.1038
3828	64.9243
3824	64.8503
3820	65.0585
3816	65.322
3812	65.2752
3808	65.0628
3804	64.9883
3800	65.1137
3796	65.3091
3792	65.3713
3788	65.3197
3784	65.1953
3780	64.9967
3776	65.0105
3772	65.254
3768	65.3916
3764	65.3875
3760	65.3921
3756	65.3782
3752	65.3413
3748	65.3185
3744	65.2168
3740	65.1469
3736	65.2299
3732	65.3361
3728	65.4236
3724	65.4535
3720	65.3498
3716	65.2317
3712	65.2473
3708	65.3146
3704	65.3362
3700	65.3886
3696	65.478
3692	65.5341
3688	65.4962
3684	65.352
3680	65.2386
3676	65.2788
3672	65.4128
3668	65.4764
3664	65.442
3660	65.4246
3656	65.4557
3652	65.3743
3648	65.1567
3644	65.1247
3640	65.2731
3636	65.3213
3632	65.3048
3628	65.292
3624	65.3056
3620	65.4282
3616	65.4788
3612	65.3332
3608	65.2455
3604	65.3204
3600	65.4042
3596	65.3855
3592	65.3555
3588	65.3702
3584	65.3966
3580	65.4284
3576	65.3925
3572	65.3438
3568	65.3481
3564	65.442
3560	65.574
3556	65.4439
3552	65.0841
3548	64.8932
3544	65.037
3540	65.2884
3536	65.3707
3532	65.3568
3528	65.3651
3524	65.4116
3520	65.4914
3516	65.5064
3512	65.4541
3508	65.3335
3504	65.1531
3500	65.1224
3496	65.2548
3492	65.2702
3488	65.0419
3484	64.8072
3480	64.9794
3476	65.3684
3472	65.4706
3468	65.3096
3464	65.1238
3460	65.0819
3456	65.1601
3452	65.1801
3448	65.0906
3444	65.0435
3440	65.1998
3436	65.4557
3432	65.5432
3428	65.4351
3424	65.3127
3420	65.2626
3416	65.3319
3412	65.4293
3408	65.4176
3404	65.3822
3400	65.3669
3396	65.2816
3392	65.1759
3388	65.1736
3384	65.1719
3380	65.0847
3376	65.0471
3372	65.1225
3368	65.2106
3364	65.1797
3360	65.0316
3356	64.9708
3352	65.1081
3348	65.2996
3344	65.4024
3340	65.3735
3336	65.301
3332	65.3028
3328	65.3341
3324	65.306
3320	65.2108
3316	65.1165
3312	65.0711
3308	65.0966
3304	65.1498
3300	65.1415
3296	65.1444
3292	65.1945
3288	65.2053
3284	65.1833
3280	65.1719
3276	65.1834
3272	65.2229
3268	65.2622
3264	65.2857
3260	65.3001
3256	65.2915
3252	65.2886
3248	65.2819
3244	65.2213
3240	65.1534
3236	65.1457
3232	65.2296
3228	65.3269
3224	65.3612
3220	65.3545
3216	65.3307
3212	65.3678
3208	65.3822
3204	65.2207
3200	65.0633
3196	65.0653
3192	65.1423
3188	65.1987
3184	65.1995
3180	65.2325
3176	65.3363
3172	65.3887
3168	65.3631
3164	65.3549
3160	65.3605
3156	65.2968
3152	65.1961
3148	65.1855
3144	65.2553
3140	65.1705
3136	64.9352
3132	65.09
3128	65.4661
3124	65.2904
3120	65.0084
3116	65.2368
3112	65.5848
3108	65.7468
3104	65.6971
3100	65.5313
3096	65.44
3092	65.4033
3088	65.3291
3084	65.1709
3080	65.0636
3076	65.1523
3072	65.2652
3068	65.2396
3064	65.1629
3060	65.1492
3056	65.1922
3052	65.2135
3048	65.2492
3044	65.3372
3040	65.4125
3036	65.5016
3032	65.5517
3028	65.4346
3024	65.2676
3020	65.2616
3016	65.3794
3012	65.4304
3008	65.3899
3004	65.3651
3000	65.3457
2996	65.3111
2992	65.2884
2988	65.2409
2984	65.1583
2980	65.1204
2976	65.1807
2972	65.2145
2968	65.2027
2964	65.2324
2960	65.2699
2956	65.2724
2952	65.2612
2948	65.2647
2944	65.2699
2940	65.3426
2936	65.4085
2932	65.3323
2928	65.1896
2924	65.0435
2920	64.9785
2916	65.0462
2912	65.1339
2908	65.2011
2904	65.235
2900	65.1314
2896	65.0235
2892	65.0831
2888	65.1569
2884	65.178
2880	65.1795
2876	65.1312
2872	65.125
2868	65.1519
2864	65.1485
2860	65.1462
2856	65.0516
2852	64.9659
2848	65.0973
2844	65.2477
2840	65.2801
2836	65.3155
2832	65.3126
2828	65.2366
2824	65.1958
2820	65.1959
2816	65.1808
2812	65.1484
2808	65.1714
2804	65.2556
2800	65.3105
2796	65.3699
2792	65.4198
2788	65.385
2784	65.3221
2780	65.2892
2776	65.3004
2772	65.3591
2768	65.3644
2764	65.2689
2760	65.2443
2756	65.3084
2752	65.306
2748	65.2648
2744	65.293
2740	65.3817
2736	65.4543
2732	65.446
2728	65.3677
2724	65.3489
2720	65.3986
2716	65.3946
2712	65.3622
2708	65.3733
2704	65.3627
2700	65.3264
2696	65.3461
2692	65.3658
2688	65.3274
2684	65.3179
2680	65.3446
2676	65.3211
2672	65.3139
2668	65.396
2664	65.4814
2660	65.4381
2656	65.3188
2652	65.274
2648	65.3014
2644	65.3109
2640	65.274
2636	65.2392
2632	65.2447
2628	65.2944
2624	65.345
2620	65.3531
2616	65.3286
2612	65.3219
2608	65.3141
2604	65.2587
2600	65.2065
2596	65.2092
2592	65.2497
2588	65.2597
2584	65.2592
2580	65.2935
2576	65.2933
2572	65.2618
2568	65.2863
2564	65.3409
2560	65.3166
2556	65.3039
2552	65.3067
2548	65.2269
2544	65.2555
2540	65.3898
2536	65.4117
2532	65.3132
2528	65.2299
2524	65.2159
2520	65.2611
2516	65.3652
2512	65.3918
2508	65.2941
2504	65.3031
2500	65.4924
2496	65.5822
2492	65.5356
2488	65.4817
2484	65.3858
2480	65.3605
2476	65.4432
2472	65.4909
2468	65.4197
2464	65.2983
2460	65.292
2456	65.351
2452	65.3246
2448	65.2368
2444	65.2139
2440	65.2614
2436	65.2258
2432	65.2254
2428	65.3771
2424	65.3957
2420	65.1944
2416	65.0457
2412	65.2056
2408	65.529
2404	65.6537
2400	65.5557
2396	65.3883
2392	65.3155
2388	65.3152
2384	65.3305
2380	65.3753
2376	65.3816
2372	65.3366
2368	65.2865
2364	65.3617
2360	65.4564
2356	65.3784
2352	65.2955
2348	65.3473
2344	65.3469
2340	65.2823
2336	65.2751
2332	65.255
2328	65.2694
2324	65.3424
2320	65.4
2316	65.4166
2312	65.3649
2308	65.3035
2304	65.3224
2300	65.3635
2296	65.3665
2292	65.3847
2288	65.3957
2284	65.3634
2280	65.3663
2276	65.4203
2272	65.4121
2268	65.3551
2264	65.3704
2260	65.4392
2256	65.4484
2252	65.4122
2248	65.3815
2244	65.3344
2240	65.3041
2236	65.3171
2232	65.38
2228	65.4629
2224	65.4859
2220	65.4508
2216	65.4116
2212	65.3709
2208	65.341
2204	65.3244
2200	65.3023
2196	65.3788
2192	65.4991
2188	65.4891
2184	65.4752
2180	65.483
2176	65.4025
2172	65.4051
2168	65.5376
2164	65.6422
2160	65.6493
2156	65.5739
2152	65.4812
2148	65.4648
2144	65.5014
2140	65.3776
2136	65.2487
2132	65.3696
2128	65.4544
2124	65.3897
2120	65.3434
2116	65.3404
2112	65.3992
2108	65.4049
2104	65.348
2100	65.3586
2096	65.3525
2092	65.2243
2088	65.1215
2084	65.199
2080	65.2426
2076	65.2712
2072	65.588
2068	65.7428
2064	65.4757
2060	65.3177
2056	65.3312
2052	65.3369
2048	65.3712
2044	65.3927
2040	65.3563
2036	65.3614
2032	65.4695
2028	65.4866
2024	65.3708
2020	65.3457
2016	65.39
2012	65.3738
2008	65.3204
2004	65.308
2000	65.3337
1996	65.2999
1992	65.2431
1988	65.2624
1984	65.3127
1980	65.3401
1976	65.363
1972	65.3816
1968	65.3791
1964	65.3301
1960	65.2826
1956	65.3104
1952	65.3214
1948	65.2955
1944	65.3522
1940	65.4433
1936	65.5076
1932	65.5767
1928	65.5092
1924	65.3135
1920	65.2473
1916	65.2557
1912	65.2041
1908	65.202
1904	65.2866
1900	65.3551
1896	65.368
1892	65.365
1888	65.3931
1884	65.4022
1880	65.3306
1876	65.3228
1872	65.3868
1868	65.3689
1864	65.3438
1860	65.3754
1856	65.4279
1852	65.4544
1848	65.4272
1844	65.4135
1840	65.4038
1836	65.3901
1832	65.4165
1828	65.4361
1824	65.4077
1820	65.3912
1816	65.3885
1812	65.3308
1808	65.2778
1804	65.2922
1800	65.3467
1796	65.3976
1792	65.409
1788	65.3975
1784	65.3712
1780	65.3565
1776	65.3898
1772	65.3967
1768	65.3643
1764	65.3431
1760	65.2794
1756	65.1865
1752	65.1815
1748	65.2403
1744	65.2599
1740	65.22
1736	65.1667
1732	65.1712
1728	65.1267
1724	64.9794
1720	64.9014
1716	64.9842
1712	65.1682
1708	65.301
1704	65.2699
1700	65.16
1696	65.1282
1692	65.159
1688	65.1481
1684	65.1016
1680	65.1283
1676	65.2696
1672	65.3975
1668	65.3801
1664	65.2854
1660	65.2095
1656	65.1477
1652	65.1623
1648	65.2509
1644	65.2951
1640	65.3033
1636	65.3052
1632	65.2219
1628	65.1238
1624	65.1492
1620	65.2002
1616	65.1824
1612	65.1818
1608	65.1937
1604	65.1959
1600	65.1896
1596	65.1092
1592	65.0154
1588	65.0036
1584	65.0346
1580	65.0735
1576	65.085
1572	65.0341
1568	65.0247
1564	65.0711
1560	65.0748
1556	65.0506
1552	65.0696
1548	65.1497
1544	65.2327
1540	65.2079
1536	65.1231
1532	65.0839
1528	65.0839
1524	65.06
1520	65.0243
1516	65.0788
1512	65.1363
1508	65.1355
1504	65.2122
1500	65.371
1496	65.4309
1492	65.3115
1488	65.1784
1484	65.108
1480	65.0536
1476	65.0689
1472	65.2053
1468	65.3334
1464	65.3308
1460	65.1959
1456	65.0573
1452	65.0788
1448	65.2083
1444	65.3142
1440	65.2279
1436	65.0067
1432	64.9597
1428	65.0627
1424	65.0994
1420	65.0827
1416	65.0944
1412	65.1195
1408	65.1691
1404	65.2226
1400	65.2731
1396	65.2833
1392	65.1575
1388	65.0132
1384	64.9645
1380	64.9843
1376	65.066
1372	65.074
1368	64.9826
1364	64.9747
1360	65.0567
1356	65.1199
1352	65.1124
1348	65.1112
1344	65.1392
1340	65.0714
1336	64.9695
1332	64.9741
1328	65.0494
1324	65.1008
1320	65.0307
1316	64.8429
1312	64.7534
1308	64.8745
1304	65.0439
1300	65.1227
1296	65.1215
1292	65.0786
1288	65.0887
1284	65.1522
1280	65.0925
1276	64.9951
1272	64.976
1268	64.9366
1264	64.943
1260	65.0607
1256	65.1461
1252	65.0978
1248	65.0076
1244	64.9706
1240	64.9543
1236	64.9153
1232	64.8948
1228	64.9494
1224	65.0128
1220	65.0228
1216	64.9999
1212	64.9529
1208	64.9452
1204	64.9863
1200	65.019
1196	65.0235
1192	64.9686
1188	64.9166
1184	64.9548
1180	65.0586
1176	65.0972
1172	65.0079
1168	64.9298
1164	64.8987
1160	64.8822
1156	64.9162
1152	64.9064
1148	64.8479
1144	64.8523
1140	64.8583
1136	64.8173
1132	64.793
1128	64.8395
1124	64.9239
1120	64.9393
1116	64.9002
1112	64.9065
1108	64.9126
1104	64.8037
1100	64.6073
1096	64.5215
1092	64.5973
1088	64.7399
1084	64.8859
1080	64.8684
1076	64.7965
1072	64.7938
1068	64.7104
1064	64.6428
1060	64.6653
1056	64.6693
1052	64.7135
1048	64.8246
1044	64.8482
1040	64.6938
1036	64.4606
1032	64.4666
1028	64.7451
1024	64.8001
1020	64.5309
1016	64.4202
1012	64.6256
1008	64.8669
1004	64.8962
1000	64.7224
996	 64.5082
992	 64.423
988	 64.5489
984	 64.7582
980	 64.8977
976	 64.847
972	 64.6737
968	 64.6297
964	 64.6457
960	 64.6021
956	 64.6323
952	 64.6045
948	 64.4026
944	 64.3784
940	 64.4913
936	 64.4345
932	 64.5267
928	 64.7823
924	 64.886
920	 64.9198
916	 64.8427
912	 64.763
908	 64.7949
904	 64.7576
900	 64.5953
896	 64.4986
892	 64.6647
888	 64.7212
884	 64.5101
880	 64.6986
876	 65.1607
872	 65.127
868	 64.8736
864	 64.8429
860	 64.7191
856	 64.3612
852	 64.3802
848	 64.6032
844	 64.3281
840	 64.0407
836	 64.2075
832	 64.3805
828	 64.1072
824	 63.9182
820	 64.1548
816	 64.3394
812	 64.2945
808	 64.014
804	 63.7234
800	 63.6648
796	 63.8603
792	 63.9693
788	 63.832
784	 63.6458
780	 63.5032
776	 63.591
772	 63.7951
768	 63.8163
764	 63.7338
760	 63.75
756	 63.7145
752	 63.5798
748	 63.6932
744	 63.7476
740	 63.4728
736	 63.2401
732	 63.3496
728	 63.5683
724	 63.483
720	 63.3762
716	 63.4091
712	 63.4842
708	 63.5631
704	 63.4466
700	 63.2874
696	 63.3132
692	 63.3545
688	 63.3681
684	 63.3962
680	 63.2878
676	 63.1473
672	 63.1311
668	 62.9489
664	 62.5955
660	 62.6073
656	 62.9919
652	 63.1889
648	 63.002
644	 62.8839
640	 63.0178
636	 63.0616
632	 63.0265
628	 63.0235
624	 62.9868
620	 62.8365
616	 62.5803
612	 62.5326
608	 62.5831
604	 62.4838
600	 62.4908
596	 62.4941
592	 62.278
588	 62.0996
584	 62.1515
580	 62.1148
576	 62.0441
572	 62.0662
568	 61.7534
564	 61.5046
560	 61.7827
556	 62.2402
552	 62.3061
548	 61.8692
544	 61.432
540	 61.2895
536	 61.3161
532	 61.2646
528	 61.1974
524	 60.9419
520	 60.4994
516	 60.5188
512	 61.0032
508	 61.2193
504	 60.8872
500	 60.8205
496	 61.4002
492	 61.7294
488	 61.2355
484	 60.5305
480	 60.4471
476	 60.8519
472	 61.07
468	 60.1336
464	 58.6927
460	 58.4861
456	 59.1656
452	 59.7054
448	 59.7687
444	 59.3768
440	 58.7053
436	 57.9891
432	 57.755
428	 58.8993
424	 60.5035
420	 59.5887
416	 57.5766
412	 57.7384
408	 58.3305
404	 63.6247
400	 76.8343
396	 74.6258
392	 62.1407
388	 56.7551
384	 43.0501
380	 22.6853
376	 72.2346
372	 168.079
370	 180.946