File: Bakgrunnsmateriale/MATLAB/FTIR/ftir_data/subBb/Mapping_121/C-4040-8_e125.asc
PE IR       SPECTRUM    SPECTRUM    ASCII       PEDS        1.60
  -1
C-70D3~1.ASC
17/03/27
19:57:10.00
17/03/27
19:57:37.00
tln
$C-4040-8_e0125$<ebV0>[-23.3,12.1,10.0,0.0,27,1,0]
27.028
64

2002,4.07
MIRTGS : RIGHTBACK : INTERNAL 2
MIR : ON : INTERNAL 2
OPTKBR

0.200000
8
8.000000
FILLER
SINGLE
SPECTRUM
UNLOCKED 256

DOUBLE

COMBINED
1
0
0

0.002000
BACKG

1
0
TRUE
51149
0
LEFT NOT FITTED RIGHT NOT FITTED 0
NONE
NONE
15600
12
4.427000
51148
TRUE
1 0 8 72 0 0 0 0

15798

#HDR
-1
-1
#GR
µM
EGY
2.38419e-05
0.0
2.000000
0.002000
12515
8
2.460194
0.008773
#DATA
2.000000	 0.764894
2.018000	 0.782191
2.036000	 0.800117
2.054000	 0.818631
2.072000	 0.845472
2.090000	 0.872983
2.108000	 0.888539
2.126000	 0.900012
2.144000	 0.905348
2.162000	 0.918095
2.180000	 0.942943
2.198000	 0.970283
2.216000	 0.997576
2.234000	 1.014590
2.252000	 1.012540
2.270000	 1.026782
2.288000	 1.002836
2.306000	 1.078208
2.324000	 1.116037
2.342000	 1.150725
2.360000	 1.174345
2.378000	 1.189341
2.396000	 1.201331
2.414000	 1.219035
2.432000	 1.248090
2.450000	 1.282075
2.468000	 1.324634
2.486000	 1.359676
2.504000	 1.386578
2.522000	 1.406490
2.540000	 1.416157
2.558000	 1.421361
2.576000	 1.435300
2.594000	 1.448218
2.612000	 1.483567
2.630000	 1.508770
2.648000	 1.544362
2.666000	 1.542189
2.684000	 1.566251
2.702000	 1.574940
2.720000	 1.563049
2.738000	 1.565644
2.756000	 1.572173
2.774000	 1.587210
2.792000	 1.598318
2.810000	 1.615014
2.828000	 1.618957
2.846000	 1.624701
2.864000	 1.618917
2.882000	 1.606920
2.900000	 1.590817
2.918000	 1.588511
2.936000	 1.592763
2.954000	 1.602286
2.972000	 1.625650
2.990000	 1.657734
3.008000	 1.686627
3.026000	 1.712440
3.044000	 1.739291
3.062000	 1.758646
3.080000	 1.775363
3.098000	 1.783402
3.116000	 1.788128
3.134000	 1.790409
3.152000	 1.798867
3.170000	 1.806855
3.188000	 1.819652
3.206000	 1.847546
3.224000	 1.873718
3.242000	 1.907213
3.260000	 1.930234
3.278000	 1.957634
3.296000	 1.975884
3.314000	 1.961775
3.332000	 2.024037
3.350000	 2.027430
3.368000	 1.969408
3.386000	 1.922523
3.404000	 1.827618
3.422000	 1.781106
3.440000	 1.931717
3.458000	 1.985495
3.476000	 2.004843
3.494000	 1.903802
3.512000	 2.010360
3.530000	 2.101377
3.548000	 2.141352
3.566000	 2.171711
3.584000	 2.196497
3.602000	 2.219971
3.620000	 2.238687
3.638000	 2.247744
3.656000	 2.253809
3.674000	 2.251932
3.692000	 2.244442
3.710000	 2.238909
3.728000	 2.234289
3.746000	 2.224393
3.764000	 2.217393
3.782000	 2.216936
3.800000	 2.214073
3.818000	 2.218067
3.836000	 2.223094
3.854000	 2.228827
3.872000	 2.239859
3.890000	 2.261550
3.908000	 2.273889
3.926000	 2.290191
3.944000	 2.304655
3.962000	 2.314821
3.980000	 2.320136
3.998000	 2.327510
4.016000	 2.326608
4.034000	 2.320774
4.052000	 2.314155
4.070000	 2.303292
4.088000	 2.291977
4.106000	 2.278646
4.124000	 2.279685
4.141999	 2.263063
4.160000	 2.255648
4.178000	 2.249828
4.196000	 2.244013
4.214000	 2.237221
4.232000	 2.234162
4.250000	 2.251470
4.268000	 2.263372
4.286000	 2.274075
4.304000	 2.294437
4.322000	 2.312608
4.340000	 2.331250
4.358000	 2.345586
4.375999	 2.356606
4.394000	 2.366897
4.412000	 2.374425
4.430000	 2.378209
4.448000	 2.379404
4.466000	 2.378950
4.484000	 2.376587
4.502000	 2.372292
4.520000	 2.368153
4.538000	 2.362949
4.556000	 2.354317
4.574000	 2.347680
4.592000	 2.341229
4.609999	 2.337737
4.628000	 2.335532
4.646000	 2.336511
4.664000	 2.338112
4.682000	 2.334532
4.700000	 2.334007
4.718000	 2.336852
4.736000	 2.337854
4.754000	 2.337554
4.772000	 2.337296
4.790000	 2.337643
4.808000	 2.339964
4.826000	 2.353909
4.843999	 2.374412
4.862000	 2.392340
4.880000	 2.404925
4.898000	 2.419684
4.916000	 2.431631
4.934000	 2.438734
4.952000	 2.445284
4.970000	 2.449202
4.988000	 2.457436
5.006000	 2.459979
5.024000	 2.456251
5.042000	 2.452509
5.060000	 2.447487
5.077999	 2.439500
5.096000	 2.433083
5.114000	 2.427226
5.132000	 2.422427
5.150000	 2.417390
5.168000	 2.411946
5.186000	 2.403661
5.204000	 2.394650
5.222000	 2.389058
5.240000	 2.383586
5.258000	 2.377086
5.276000	 2.371438
5.294000	 2.370849
5.312000	 2.374974
5.330000	 2.376526
5.348000	 2.377253
5.366000	 2.384290
5.384000	 2.390406
5.402000	 2.395799
5.420000	 2.396695
5.438000	 2.402987
5.456000	 2.407361
5.474000	 2.410646
5.492000	 2.416600
5.510000	 2.421944
5.528000	 2.428248
5.546000	 2.431478
5.564000	 2.430293
5.582000	 2.429245
5.600000	 2.429669
5.618000	 2.427358
5.636000	 2.418823
5.654000	 2.414915
5.672000	 2.412058
5.690000	 2.400120
5.708000	 2.385014
5.726000	 2.370747
5.744000	 2.349022
5.762000	 2.325246
5.780000	 2.323760
5.798000	 2.324600
5.816000	 2.306095
5.834000	 2.296535
5.852000	 2.298648
5.870000	 2.275701
5.888000	 2.253527
5.906000	 2.255960
5.923999	 2.249011
5.942000	 2.237912
5.960000	 2.237115
5.978000	 2.226728
5.996000	 2.217594
6.014000	 2.210385
6.032000	 2.190835
6.050000	 2.164304
6.068000	 2.159743
6.086000	 2.160044
6.104000	 2.149862
6.122000	 2.138211
6.140000	 2.127874
6.158000	 2.106549
6.176000	 2.071430
6.194000	 2.025245
6.212000	 1.984422
6.230000	 1.974385
6.248000	 1.992297
6.266000	 2.011464
6.284000	 2.018432
6.302000	 2.013981
6.320000	 2.002541
6.338000	 1.989171
6.356000	 1.983823
6.374000	 1.979416
6.392000	 1.959703
6.410000	 1.935315
6.428000	 1.938862
6.446000	 1.957551
6.464000	 1.960420
6.482000	 1.962774
6.500000	 1.999155
6.518000	 2.057973
6.536000	 2.099399
6.554000	 2.112359
6.572000	 2.110771
6.590000	 2.107291
6.608000	 2.098808
6.626000	 2.076386
6.644000	 2.022375
6.662000	 1.896202
6.680000	 1.733164
6.698000	 1.675012
6.716000	 1.759662
6.734000	 1.878676
6.752000	 1.949785
6.770000	 1.971645
6.788000	 1.973248
6.806000	 1.967938
6.824000	 1.948971
6.842000	 1.905529
6.860000	 1.837135
6.878000	 1.776090
6.896000	 1.768015
6.914000	 1.808468
6.932000	 1.846633
6.950000	 1.859701
6.968000	 1.863921
6.986000	 1.867613
7.004000	 1.867602
7.022000	 1.863680
7.040000	 1.856047
7.058000	 1.845059
7.076000	 1.824833
7.094000	 1.786881
7.112000	 1.743830
7.130000	 1.724539
7.148000	 1.737955
7.166000	 1.766103
7.184000	 1.786073
7.202000	 1.788121
7.220000	 1.783715
7.238000	 1.788594
7.256000	 1.799822
7.274000	 1.808172
7.292000	 1.813387
7.310000	 1.816732
7.328000	 1.817692
7.346000	 1.817265
7.364000	 1.816549
7.382000	 1.815897
7.400000	 1.815031
7.418000	 1.813983
7.436000	 1.813196
7.454000	 1.813653
7.472000	 1.817815
7.490000	 1.826817
7.508000	 1.837220
7.526000	 1.844292
7.544000	 1.847686
7.562000	 1.850079
7.580000	 1.852991
7.598000	 1.855780
7.616000	 1.857204
7.634000	 1.857247
7.652000	 1.856624
7.670000	 1.855752
7.688000	 1.854800
7.706000	 1.854464
7.724000	 1.854633
7.742000	 1.854389
7.760000	 1.853256
7.778000	 1.851439
7.796000	 1.848328
7.814000	 1.842692
7.832000	 1.833363
7.850000	 1.818248
7.868000	 1.794314
7.886000	 1.762044
7.904000	 1.730370
7.922000	 1.714238
7.940000	 1.722443
7.958000	 1.749483
7.976000	 1.780913
7.994000	 1.805653
8.012000	 1.821452
8.030000	 1.830509
8.048000	 1.834634
8.065999	 1.834995
8.084000	 1.832830
8.102000	 1.829694
8.120000	 1.826544
8.138000	 1.823308
8.155999	 1.818799
8.173999	 1.811960
8.192000	 1.802274
8.210000	 1.790061
8.228000	 1.776070
8.246000	 1.762255
8.263999	 1.751200
8.282000	 1.744382
8.300000	 1.741721
8.318000	 1.742249
8.336000	 1.744297
8.353999	 1.745580
8.372000	 1.744219
8.390000	 1.740105
8.408000	 1.734468
8.426000	 1.728199
8.443999	 1.721507
8.462000	 1.714572
8.480000	 1.707749
8.498000	 1.701291
8.516000	 1.694420
8.533999	 1.686115
8.552000	 1.675681
8.570000	 1.663595
8.588000	 1.650927
8.606000	 1.638843
8.624000	 1.628454
8.641999	 1.620327
8.660000	 1.614713
8.678000	 1.611252
8.696000	 1.608801
8.714000	 1.606050
8.731999	 1.602162
8.750000	 1.596824
8.768000	 1.590135
8.786000	 1.582271
8.804000	 1.573543
8.821999	 1.564210
8.840000	 1.554347
8.858000	 1.543928
8.876000	 1.533070
8.894000	 1.521836
8.911999	 1.510330
8.930000	 1.498565
8.948000	 1.486629
8.966000	 1.474766
8.984000	 1.463516
9.001999	 1.453244
9.020000	 1.444548
9.038000	 1.437701
9.056000	 1.432822
9.074000	 1.429659
9.092000	 1.427858
9.109999	 1.427062
9.128000	 1.426842
9.146000	 1.426990
9.164000	 1.427575
9.182000	 1.428763
9.199999	 1.430153
9.218000	 1.430694
9.236000	 1.429734
9.254000	 1.427770
9.272000	 1.426268
9.289999	 1.426591
9.308000	 1.428969
9.326000	 1.432492
9.344000	 1.435873
9.362000	 1.438233
9.379999	 1.439233
9.398000	 1.438214
9.416000	 1.433340
9.434000	 1.421512
9.452000	 1.400295
9.469999	 1.370509
9.488000	 1.338281
9.506000	 1.313021
9.524000	 1.302652
9.542000	 1.309120
9.560000	 1.327412
9.577999	 1.349115
9.596000	 1.367167
9.614000	 1.378616
9.632000	 1.383965
9.650000	 1.385155
9.667999	 1.383774
9.686000	 1.380779
9.704000	 1.376729
9.722000	 1.372374
9.740000	 1.368574
9.757999	 1.365956
9.776000	 1.364854
9.794000	 1.365075
9.812000	 1.366324
9.830000	 1.368368
9.847999	 1.371118
9.866000	 1.374615
9.884000	 1.378799
9.902000	 1.383245
9.920000	 1.387662
9.937999	 1.391579
9.956000	 1.394958
9.974000	 1.397704
9.992000	 1.399767
10.01	1.400756
10.028	1.400474
10.046	1.398858
10.064	1.396399
10.082	1.393589
10.1	1.391040
10.118	1.388906
10.136	1.386935
10.154	1.384768
10.172	1.382076
10.19	1.378847
10.208	1.375203
10.226	1.371240
10.244	1.366890
10.262	1.362090
10.28	1.356732
10.298	1.351039
10.316	1.345515
10.334	1.340517
10.352	1.335874
10.37	1.330955
10.388	1.325043
10.406	1.317832
10.424	1.309796
10.442	1.301817
10.46	1.294633
10.478	1.288651
10.496	1.283613
10.514	1.279002
10.532	1.274442
10.55	1.269900
10.568	1.265545
10.586	1.261703
10.604	1.258540
10.622	1.256041
10.64	1.254050
10.658	1.252269
10.676	1.250265
10.694	1.247826
10.712	1.244794
10.73	1.241270
10.748	1.237388
10.766	1.233327
10.784	1.229261
10.802	1.225212
10.82	1.221227
10.838	1.217342
10.856	1.213460
10.874	1.209406
10.892	1.205027
10.91	1.200093
10.928	1.194550
10.946	1.188535
10.964	1.182387
10.982	1.176447
11	1.171039
11.018	1.166287
11.036	1.162203
11.054	1.158699
11.072	1.155696
11.09	1.153013
11.108	1.150581
11.126	1.148280
11.144	1.145950
11.162	1.143508
11.18	1.140687
11.198	1.137300
11.216	1.132985
11.234	1.127375
11.252	1.120158
11.27	1.111080
11.288	1.100214
11.306	1.087866
11.324	1.074710
11.342	1.061662
11.36	1.049591
11.378	1.039484
11.396	1.032087
11.414	1.027920
11.432	1.027236
11.45	1.029788
11.468	1.035133
11.486	1.042524
11.504	1.051119
11.522	1.059952
11.54	1.068405
11.558	1.075820
11.576	1.081937
11.594	1.086711
11.612	1.090118
11.63	1.092356
11.648	1.093622
11.666	1.093959
11.684	1.093444
11.702	1.092176
11.72	1.090272
11.738	1.087867
11.756	1.085102
11.774	1.082274
11.792	1.079486
11.81	1.076709
11.828	1.073901
11.846	1.070881
11.864	1.067285
11.882	1.062809
11.9	1.057088
11.918	1.049681
11.936	1.040130
11.954	1.028021
11.972	1.012991
11.99	0.994795
12.008	0.973669
12.026	0.950206
12.044	0.925560
12.062	0.901413
12.08	0.879671
12.098	0.862184
12.116	0.850533
12.134	0.845566
12.152	0.847242
12.17	0.854726
12.188	0.866523
12.206	0.880794
12.224	0.895627
12.242	0.909568
12.26	0.921511
12.278	0.931017
12.296	0.938018
12.314	0.942753
12.332	0.945717
12.35	0.947283
12.368	0.947760
12.386	0.947564
12.404	0.946895
12.422	0.946015
12.44	0.945141
12.458	0.944538
12.476	0.944313
12.494	0.944624
12.512	0.945622
12.53	0.947215
12.548	0.949390
12.566	0.952014
12.584	0.954941
12.602	0.958031
12.62	0.961086
12.638	0.964062
12.656	0.966862
12.674	0.969421
12.692	0.971677
12.71	0.973628
12.728	0.975228
12.746	0.976418
12.764	0.977208
12.782	0.977636
12.8	0.977744
12.818	0.977603
12.836	0.977206
12.854	0.976738
12.872	0.976187
12.89	0.975563
12.908	0.974936
12.926	0.974240
12.944	0.973495
12.962	0.972719
12.98	0.971887
12.998	0.971017
13.016	0.970095
13.034	0.969120
13.052	0.968115
13.07	0.967086
13.088	0.966056
13.106	0.965079
13.124	0.964156
13.142	0.963261
13.16	0.962398
13.178	0.961581
13.196	0.960738
13.214	0.959868
13.232	0.958944
13.25	0.957939
13.268	0.956847
13.286	0.955713
13.304	0.954527
13.322	0.953246
13.34	0.951818
13.358	0.950230
13.376	0.948460
13.394	0.946504
13.412	0.944376
13.43	0.942189
13.448	0.940021
13.466	0.937960
13.484	0.936066
13.502	0.934382
13.52	0.932869
13.538	0.931409
13.556	0.929933
13.574	0.928323
13.592	0.926496
13.61	0.924345
13.628	0.921899
13.646	0.919209
13.664	0.916253
13.682	0.913181
13.7	0.909990
13.718	0.906769
13.736	0.903558
13.754	0.900332
13.772	0.897112
13.79	0.893964
13.808	0.890852
13.826	0.887746
13.844	0.884680
13.862	0.881676
13.88	0.878785
13.898	0.876005
13.916	0.873331
13.934	0.870793
13.952	0.868366
13.97	0.866007
13.988	0.863730
14.006	0.861476
14.024	0.859248
14.042	0.856984
14.06	0.854728
14.078	0.852435
14.096	0.850023
14.114	0.847535
14.132	0.844935
14.15	0.842139
14.168	0.839146
14.186	0.835907
14.204	0.832429
14.222	0.828667
14.24	0.824728
14.258	0.820559
14.276	0.816197
14.294	0.811658
14.312	0.806899
14.33	0.801871
14.348	0.796577
14.366	0.790966
14.384	0.785005
14.402	0.778703
14.42	0.772148
14.438	0.765493
14.456	0.758918
14.474	0.752634
14.492	0.746902
14.51	0.741913
14.528	0.737876
14.546	0.734832
14.564	0.732788
14.582	0.731691
14.6	0.731392
14.618	0.731658
14.636	0.732281
14.654	0.733023
14.672	0.733710
14.69	0.734231
14.708	0.734511
14.726	0.734464
14.744	0.734159
14.762	0.733571
14.78	0.732758
14.798	0.731763
14.816	0.730601
14.834	0.729317
14.852	0.727924
14.87	0.726418
14.888	0.724839
14.906	0.723215
14.924	0.721511
14.942	0.719834
14.96	0.718173
14.978	0.716549
14.996	0.714978
15.014	0.713457
15.032	0.711968
15.05	0.710524
15.068	0.709050
15.086	0.707508
15.104	0.705947
15.122	0.704267
15.14	0.702458
15.158	0.700528
15.176	0.698488
15.194	0.696351
15.212	0.694146
15.23	0.691882
15.248	0.689575
15.266	0.687250
15.284	0.684932
15.302	0.682619
15.32	0.680318
15.338	0.678037
15.356	0.675754
15.374	0.673521
15.392	0.671318
15.41	0.669133
15.428	0.666963
15.446	0.664839
15.464	0.662762
15.482	0.660730
15.5	0.658744
15.518	0.656786
15.536	0.654876
15.554	0.653026
15.572	0.651239
15.59	0.649451
15.608	0.647685
15.626	0.645945
15.644	0.644190
15.662	0.642444
15.68	0.640674
15.698	0.638854
15.716	0.637021
15.734	0.635133
15.752	0.633188
15.77	0.631199
15.788	0.629176
15.806	0.627128
15.824	0.625066
15.842	0.623010
15.86	0.620969
15.878	0.618949
15.896	0.616960
15.914	0.615061
15.932	0.613191
15.95	0.611345
15.968	0.609603
15.986	0.607905
16.004	0.606241
16.022	0.604605
16.04	0.602945
16.058	0.601268
16.076	0.599568
16.094	0.597800
16.112	0.595951
16.13	0.594007
16.148	0.591954
16.166	0.589773
16.184	0.587453
16.202	0.584982
16.22	0.582329
16.238	0.579475
16.256	0.576398
16.274	0.573145
16.292	0.569705
16.31	0.566073
16.328	0.562294
16.346	0.558393
16.364	0.554399
16.382	0.550429
16.4	0.546517
16.418	0.542697
16.436	0.539064
16.454	0.535686
16.472	0.532613
16.49	0.529907
16.508	0.527588
16.526	0.525675
16.544	0.524175
16.562	0.523064
16.58	0.522322
16.598	0.521907
16.616	0.521760
16.634	0.521831
16.652	0.522036
16.67	0.522339
16.688	0.522702
16.706	0.523039
16.724	0.523326
16.742	0.523537
16.76	0.523605
16.778	0.523523
16.796	0.523324
16.814	0.522977
16.832	0.522473
16.85	0.521823
16.868	0.521045
16.886	0.520155
16.904	0.519191
16.922	0.518161
16.94	0.517075
16.958	0.515955
16.976	0.514818
16.994	0.513707
17.012	0.512623
17.03	0.511567
17.048	0.510571
17.066	0.509632
17.084	0.508756
17.102	0.507910
17.12	0.507091
17.138	0.506345
17.156	0.505656
17.174	0.505011
17.192	0.504401
17.21	0.503829
17.228	0.503320
17.246	0.502848
17.264	0.502399
17.282	0.501975
17.3	0.501582
17.318	0.501239
17.336	0.500929
17.354	0.500648
17.372	0.500359
17.39	0.500058
17.408	0.499728
17.426	0.499375
17.444	0.499005
17.462	0.498557
17.48	0.498035
17.498	0.497500
17.516	0.496904
17.534	0.496200
17.552	0.495446
17.57	0.494649
17.588	0.493793
17.606	0.492887
17.624	0.491940
17.642	0.490978
17.66	0.490017
17.678	0.489029
17.696	0.488022
17.714	0.487053
17.732	0.486103
17.75	0.485157
17.768	0.484233
17.786	0.483340
17.804	0.482445
17.822	0.481553
17.84	0.480681
17.858	0.479824
17.876	0.478976
17.894	0.478133
17.912	0.477294
17.93	0.476434
17.948	0.475552
17.966	0.474648
17.984	0.473725
18.002	0.472794
18.02	0.471843
18.038	0.470859
18.056	0.469854
18.074	0.468826
18.092	0.467801
18.11	0.466781
18.128	0.465746
18.146	0.464699
18.164	0.463647
18.182	0.462592
18.2	0.461537
18.218	0.460497
18.236	0.459488
18.254	0.458488
18.272	0.457491
18.29	0.456532
18.308	0.455614
18.326	0.454709
18.344	0.453819
18.362	0.452933
18.38	0.452058
18.398	0.451217
18.416	0.450382
18.434	0.449513
18.452	0.448640
18.47	0.447788
18.488	0.446925
18.506	0.446036
18.524	0.445141
18.542	0.444245
18.56	0.443332
18.578	0.442398
18.596	0.441454
18.614	0.440499
18.632	0.439534
18.65	0.438558
18.668	0.437563
18.686	0.436552
18.704	0.435524
18.722	0.434478
18.74	0.433408
18.758	0.432315
18.776	0.431200
18.794	0.430061
18.812	0.428889
18.83	0.427692
18.848	0.426482
18.866	0.425256
18.884	0.424011
18.902	0.422755
18.92	0.421497
18.938	0.420238
18.956	0.418979
18.974	0.417729
18.992	0.416505
19.01	0.415299
19.028	0.414109
19.046	0.412928
19.064	0.411744
19.082	0.410565
19.1	0.409401
19.118	0.408238
19.136	0.407050
19.154	0.405851
19.172	0.404654
19.19	0.403450
19.208	0.402221
19.226	0.400971
19.244	0.399709
19.262	0.398432
19.28	0.397137
19.298	0.395829
19.316	0.394532
19.334	0.393244
19.352	0.391970
19.37	0.390708
19.388	0.389472
19.406	0.388261
19.424	0.387074
19.442	0.385911
19.46	0.384771
19.478	0.383655
19.496	0.382563
19.514	0.381502
19.532	0.380447
19.55	0.379380
19.568	0.378313
19.586	0.377262
19.604	0.376212
19.622	0.375142
19.64	0.374058
19.658	0.372968
19.676	0.371869
19.694	0.370758
19.712	0.369634
19.73	0.368486
19.748	0.367312
19.766	0.366119
19.784	0.364908
19.802	0.363682
19.82	0.362446
19.838	0.361195
19.856	0.359923
19.874	0.358635
19.892	0.357337
19.91	0.356026
19.928	0.354698
19.946	0.353353
19.964	0.351987
19.982	0.350596
20	0.349187
20.018	0.347764
20.036	0.346323
20.054	0.344858
20.072	0.343372
20.09	0.341866
20.108	0.340340
20.126	0.338787
20.144	0.337206
20.162	0.335606
20.18	0.333991
20.198	0.332362
20.216	0.330722
20.234	0.329072
20.252	0.327422
20.27	0.325772
20.288	0.324116
20.306	0.322450
20.324	0.320784
20.342	0.319123
20.36	0.317465
20.378	0.315811
20.396	0.314161
20.414	0.312504
20.432	0.310836
20.45	0.309171
20.468	0.307519
20.486	0.305873
20.504	0.304228
20.522	0.302586
20.54	0.300947
20.558	0.299312
20.576	0.297677
20.594	0.296038
20.612	0.294399
20.63	0.292762
20.648	0.291126
20.666	0.289507
20.684	0.287910
20.702	0.286320
20.72	0.284725
20.738	0.283134
20.756	0.281573
20.774	0.280039
20.792	0.278520
20.81	0.277010
20.828	0.275521
20.846	0.274069
20.864	0.272649
20.882	0.271255
20.9	0.269885
20.918	0.268547
20.936	0.267247
20.954	0.265981
20.972	0.264740
20.99	0.263522
21.008	0.262334
21.026	0.261176
21.044	0.260049
21.062	0.258950
21.08	0.257881
21.098	0.256841
21.116	0.255835
21.134	0.254854
21.152	0.253883
21.17	0.252927
21.188	0.251973
21.206	0.251019
21.224	0.250066
21.242	0.249112
21.26	0.248160
21.278	0.247186
21.296	0.246180
21.314	0.245150
21.332	0.244104
21.35	0.243042
21.368	0.241941
21.386	0.240787
21.404	0.239593
21.422	0.238372
21.44	0.237122
21.458	0.235837
21.476	0.234512
21.494	0.233150
21.512	0.231744
21.53	0.230293
21.548	0.228809
21.566	0.227306
21.584	0.225778
21.602	0.224215
21.62	0.222612
21.638	0.220984
21.656	0.219345
21.674	0.217693
21.692	0.216028
21.71	0.214350
21.728	0.212663
21.746	0.210977
21.764	0.209290
21.782	0.207605
21.8	0.205921
21.818	0.204237
21.836	0.202573
21.854	0.200933
21.872	0.199313
21.89	0.197711
21.908	0.196127
21.926	0.194567
21.944	0.193032
21.962	0.191522
21.98	0.190050
21.998	0.188619
22.016	0.187228
22.034	0.185884
22.052	0.184588
22.07	0.183332
22.088	0.182112
22.106	0.180929
22.124	0.179784
22.142	0.178674
22.16	0.177602
22.178	0.176575
22.196	0.175596
22.214	0.174655
22.232	0.173746
22.25	0.172872
22.268	0.172024
22.286	0.171197
22.304	0.170393
22.322	0.169610
22.34	0.168849
22.358	0.168107
22.376	0.167371
22.394	0.166645
22.412	0.165921
22.43	0.165186
22.448	0.164444
22.466	0.163688
22.484	0.162912
22.502	0.162119
22.52	0.161309
22.538	0.160486
22.556	0.159646
22.574	0.158779
22.592	0.157877
22.61	0.156948
22.628	0.155998
22.646	0.155027
22.664	0.154033
22.682	0.153019
22.7	0.151982
22.718	0.150924
22.736	0.149842
22.754	0.148732
22.772	0.147612
22.79	0.146498
22.808	0.145384
22.826	0.144270
22.844	0.143152
22.862	0.142030
22.88	0.140916
22.898	0.139818
22.916	0.138730
22.934	0.137650
22.952	0.136576
22.97	0.135509
22.988	0.134450
23.006	0.133395
23.024	0.132347
23.042	0.131314
23.06	0.130303
23.078	0.129306
23.096	0.128316
23.114	0.127329
23.132	0.126350
23.15	0.125380
23.168	0.124424
23.186	0.123476
23.204	0.122529
23.222	0.121578
23.24	0.120630
23.258	0.119692
23.276	0.118767
23.294	0.117851
23.312	0.116939
23.33	0.116028
23.348	0.115122
23.366	0.114222
23.384	0.113331
23.402	0.112446
23.42	0.111564
23.438	0.110689
23.456	0.109817
23.474	0.108942
23.492	0.108061
23.51	0.107176
23.528	0.106285
23.546	0.105390
23.564	0.104488
23.582	0.103575
23.6	0.102643
23.618	0.101697
23.636	0.100741
23.654	0.099781
23.672	0.098814
23.69	0.097834
23.708	0.096834
23.726	0.095817
23.744	0.094787
23.762	0.093747
23.78	0.092695
23.798	0.091635
23.816	0.090574
23.834	0.089507
23.852	0.088440
23.87	0.087381
23.888	0.086329
23.906	0.085285
23.924	0.084249
23.942	0.083220
23.96	0.082199
23.978	0.081193
23.996	0.080205
24.014	0.079231
24.032	0.078276
24.05	0.077344
24.068	0.076433
24.086	0.075539
24.104	0.074659
24.122	0.073792
24.14	0.072941
24.158	0.072108
24.176	0.071295
24.194	0.070499
24.212	0.069712
24.23	0.068933
24.248	0.068163
24.266	0.067405
24.284	0.066663
24.302	0.065937
24.32	0.065217
24.338	0.064490
24.356	0.063760
24.374	0.063028
24.392	0.062299
24.41	0.061573
24.428	0.060849
24.446	0.060120
24.464	0.059382
24.482	0.058637
24.5	0.057889
24.518	0.057142
24.536	0.056395
24.554	0.055646
24.572	0.054897
24.59	0.054146
24.608	0.053394
24.626	0.052642
24.644	0.051887
24.662	0.051129
24.68	0.050373
24.698	0.049625
24.716	0.048880
24.734	0.048142
24.752	0.047416
24.77	0.046703
24.788	0.046000
24.806	0.045311
24.824	0.044634
24.842	0.043968
24.86	0.043318
24.878	0.042690
24.896	0.042087
24.914	0.041505
24.932	0.040942
24.95	0.040397
24.968	0.039868
24.986	0.039360
25.004	0.038875
25.022	0.038414
25.04	0.037976
25.058	0.037559
25.076	0.037167
25.094	0.036798
25.112	0.036448
25.13	0.036110
25.148	0.035784
25.166	0.035472
25.184	0.035174
25.202	0.034890
25.22	0.034622
25.238	0.034365
25.256	0.034118
25.274	0.033884
25.292	0.033660
25.31	0.033436
25.328	0.033206
25.346	0.032974
25.364	0.032740
25.382	0.032503
25.4	0.032264
25.418	0.032022
25.436	0.031772
25.454	0.031508
25.472	0.031234
25.49	0.030948
25.508	0.030650
25.526	0.030339
25.544	0.030017
25.562	0.029681
25.58	0.029330
25.598	0.028966
25.616	0.028589
25.634	0.028195
25.652	0.027785
25.67	0.027357
25.688	0.026915
25.706	0.026464
25.724	0.026004
25.742	0.025533
25.76	0.025054
25.778	0.024570
25.796	0.024078
25.814	0.023580
25.832	0.023080
25.85	0.022580
25.868	0.022077
25.886	0.021575
25.904	0.021079
25.922	0.020590
25.94	0.020106
25.958	0.019630
25.976	0.019166
25.994	0.018713
26.012	0.018271
26.03	0.017841
26.048	0.017427
26.066	0.017025
26.084	0.016637
26.102	0.016267
26.12	0.015919
26.138	0.015592
26.156	0.015283
26.174	0.014988
26.192	0.014707
26.21	0.014439
26.228	0.014188
26.246	0.013956
26.264	0.013746
26.282	0.013556
26.3	0.013380
26.318	0.013211
26.336	0.013051
26.354	0.012900
26.372	0.012759
26.39	0.012625
26.408	0.012500
26.426	0.012384
26.444	0.012273
26.462	0.012165
26.48	0.012063
26.498	0.011966
26.516	0.011872
26.534	0.011781
26.552	0.011697
26.57	0.011614
26.588	0.011530
26.606	0.011438
26.624	0.011341
26.642	0.011242
26.66	0.011145
26.678	0.011052
26.696	0.010964
26.714	0.010877
26.732	0.010784
26.75	0.010685
26.768	0.010581
26.786	0.010472
26.804	0.010359
26.822	0.010241
26.84	0.010117
26.858	0.009989
26.876	0.009862
26.894	0.009738
26.912	0.009615
26.93	0.009492
26.948	0.009366
26.966	0.009229
26.984	0.009073
27.002	0.008923
27.02	0.008805
27.028	0.008773