File: Bakgrunnsmateriale/MATLAB/FTIR/ftir_data/subBb/Mapping_121/C-4040-8_t18.asc
PE IR       SPECTRUM    SPECTRUM    ASCII       PEDS        1.60
  -1
C-C92A~1.ASC
17/03/27
15:54:37.00
17/03/27
15:55:03.00
tln
$C-4040-8_t0018$<tbV0>[-2.6,-10.4,8.0,0.0,27,1,0]
27.028
64

2002,4.07
MIRTGS : RIGHTBACK : INTERNAL 2
MIR : ON : INTERNAL 2
OPTKBR

0.200000
8
8.000000
FILLER
RATIO
SPECTRUM
UNLOCKED 256

DOUBLE
64
COMBINED
1
0
0

0.002000
RATIO

1
0
TRUE
51149
0
LEFT NOT FITTED RIGHT NOT FITTED 0
NONE
NONE
15600
12
4.427000
51148
TRUE
1 0 8 72 0 0 0 0

15798

#HDR
-1
-1
#GR
µM
%T
2.38419e-05
0.0
2.000000
0.002000
12515
8
71.3251
28.6735
#DATA
2.000000	 63.8184
2.018000	 63.4805
2.036000	 64.6381
2.054000	 64.01
2.072000	 64.3031
2.090000	 64.323
2.108000	 64.2224
2.126000	 64.0546
2.144000	 63.8606
2.162000	 64.0111
2.180000	 64.1477
2.198000	 64.197
2.216000	 63.9616
2.234000	 64.4679
2.252000	 68.457
2.270000	 63.1064
2.288000	 53.9664
2.306000	 64.6957
2.324000	 64.2679
2.342000	 64.5104
2.360000	 64.0055
2.378000	 63.9957
2.396000	 63.9694
2.414000	 63.6042
2.432000	 64.3051
2.450000	 63.9323
2.468000	 63.4731
2.486000	 64.0855
2.504000	 63.9347
2.522000	 63.7482
2.540000	 63.6234
2.558000	 63.8978
2.576000	 63.5244
2.594000	 63.8736
2.612000	 63.4386
2.630000	 63.9135
2.648000	 63.4109
2.666000	 63.9986
2.684000	 63.6372
2.702000	 63.7661
2.720000	 63.7554
2.738000	 63.5602
2.756000	 63.4731
2.774000	 63.1562
2.792000	 63.2819
2.810000	 63.2741
2.828000	 63.1259
2.846000	 62.984
2.864000	 63.1306
2.882000	 62.9973
2.900000	 62.9724
2.918000	 63.202
2.936000	 62.7055
2.954000	 62.8865
2.972000	 62.9057
2.990000	 62.9699
3.008000	 62.5782
3.026000	 62.5683
3.044000	 62.5965
3.062000	 62.4745
3.080000	 62.4645
3.098000	 62.3079
3.116000	 62.4372
3.134000	 62.1282
3.152000	 61.9897
3.170000	 62.2146
3.188000	 62.0172
3.206000	 62.2841
3.224000	 62.0374
3.242000	 61.8205
3.260000	 61.9507
3.278000	 62.005
3.296000	 61.7552
3.314000	 61.869
3.332000	 61.6596
3.350000	 61.6456
3.368000	 61.5004
3.386000	 61.3963
3.404000	 61.7137
3.422000	 61.335
3.440000	 61.1759
3.458000	 61.2899
3.476000	 61.1629
3.494000	 61.2173
3.512000	 61.2451
3.530000	 61.1694
3.548000	 61.2304
3.566000	 61.154
3.584000	 61.0582
3.602000	 60.9895
3.620000	 60.8741
3.638000	 60.9078
3.656000	 60.8767
3.674000	 60.9247
3.692000	 60.7548
3.710000	 60.9221
3.728000	 60.6307
3.746000	 60.5126
3.764000	 60.6124
3.782000	 60.4814
3.800000	 60.2829
3.818000	 60.4352
3.836000	 60.3189
3.854000	 60.3327
3.872000	 60.2292
3.890000	 60.2299
3.908000	 60.1016
3.926000	 60.0707
3.944000	 60.0997
3.962000	 60.0752
3.980000	 59.9773
3.998000	 60.037
4.016000	 59.7006
4.034000	 59.7213
4.052000	 59.7156
4.070000	 59.6783
4.088000	 59.822
4.106000	 59.775
4.124000	 59.7101
4.141999	 59.4484
4.160000	 59.2507
4.178000	 59.4369
4.196000	 59.3803
4.214000	 59.4741
4.232000	 59.3582
4.250000	 59.2549
4.268000	 59.2155
4.286000	 59.2078
4.304000	 59.0588
4.322000	 58.8599
4.340000	 58.9575
4.358000	 58.8472
4.375999	 58.9184
4.394000	 58.8928
4.412000	 58.8596
4.430000	 58.6916
4.448000	 58.7808
4.466000	 58.5786
4.484000	 58.6058
4.502000	 58.5751
4.520000	 58.5782
4.538000	 58.5937
4.556000	 58.5058
4.574000	 58.3783
4.592000	 58.3519
4.609999	 58.2568
4.628000	 58.3558
4.646000	 58.1122
4.664000	 58.0302
4.682000	 58.0801
4.700000	 58.1417
4.718000	 58.1028
4.736000	 58.1041
4.754000	 57.9914
4.772000	 57.9549
4.790000	 58.0126
4.808000	 58.1085
4.826000	 57.7546
4.843999	 57.7805
4.862000	 57.6425
4.880000	 57.719
4.898000	 57.5994
4.916000	 57.4864
4.934000	 57.4529
4.952000	 57.4922
4.970000	 57.6027
4.988000	 57.5511
5.006000	 57.4137
5.024000	 57.3483
5.042000	 57.2324
5.060000	 57.165
5.077999	 57.2731
5.096000	 57.2011
5.114000	 57.1159
5.132000	 57.2066
5.150000	 57.1318
5.168000	 56.9807
5.186000	 56.8324
5.204000	 56.9279
5.222000	 56.9699
5.240000	 56.8456
5.258000	 56.7609
5.276000	 56.798
5.294000	 56.7286
5.312000	 56.6357
5.330000	 56.7165
5.348000	 56.7462
5.366000	 56.6374
5.384000	 56.5887
5.402000	 56.5385
5.420000	 56.6042
5.438000	 56.4516
5.456000	 56.3731
5.474000	 56.4741
5.492000	 56.4762
5.510000	 56.4239
5.528000	 56.3307
5.546000	 56.3239
5.564000	 56.3708
5.582000	 56.3488
5.600000	 56.3207
5.618000	 56.2334
5.636000	 56.2275
5.654000	 56.2774
5.672000	 56.2012
5.690000	 56.0951
5.708000	 56.0702
5.726000	 55.9645
5.744000	 55.9382
5.762000	 56.059
5.780000	 55.9384
5.798000	 55.8203
5.816000	 55.8227
5.834000	 55.7342
5.852000	 55.6951
5.870000	 56.0217
5.888000	 56.1371
5.906000	 55.8238
5.923999	 55.735
5.942000	 55.7494
5.960000	 55.7496
5.978000	 55.7866
5.996000	 55.6319
6.014000	 55.426
6.032000	 55.588
6.050000	 55.9188
6.068000	 55.8315
6.086000	 55.55
6.104000	 55.4761
6.122000	 55.4424
6.140000	 55.2157
6.158000	 55.1633
6.176000	 55.2056
6.194000	 55.2303
6.212000	 55.1615
6.230000	 55.0658
6.248000	 54.9508
6.266000	 54.8771
6.284000	 54.904
6.302000	 54.9526
6.320000	 54.9923
6.338000	 55.007
6.356000	 54.9601
6.374000	 54.9104
6.392000	 55.0258
6.410000	 55.2362
6.428000	 55.0909
6.446000	 54.8232
6.464000	 54.8725
6.482000	 55.0755
6.500000	 55.0115
6.518000	 54.768
6.536000	 54.6925
6.554000	 54.7478
6.572000	 54.7155
6.590000	 54.5804
6.608000	 54.5687
6.626000	 54.7172
6.644000	 54.737
6.662000	 54.5835
6.680000	 54.449
6.698000	 54.4115
6.716000	 54.3784
6.734000	 54.2465
6.752000	 54.1507
6.770000	 54.193
6.788000	 54.2739
6.806000	 54.2638
6.824000	 54.221
6.842000	 54.2201
6.860000	 54.1631
6.878000	 54.0138
6.896000	 53.9108
6.914000	 53.8946
6.932000	 53.874
6.950000	 53.8866
6.968000	 53.924
6.986000	 53.8387
7.004000	 53.7166
7.022000	 53.7589
7.040000	 53.8466
7.058000	 53.806
7.076000	 53.7347
7.094000	 53.6859
7.112000	 53.6106
7.130000	 53.5998
7.148000	 53.6913
7.166000	 53.769
7.184000	 53.7856
7.202000	 53.7578
7.220000	 53.6768
7.238000	 53.5659
7.256000	 53.4875
7.274000	 53.4572
7.292000	 53.4552
7.310000	 53.484
7.328000	 53.5021
7.346000	 53.4395
7.364000	 53.3301
7.382000	 53.2565
7.400000	 53.2382
7.418000	 53.2651
7.436000	 53.2991
7.454000	 53.2916
7.472000	 53.2621
7.490000	 53.2471
7.508000	 53.2224
7.526000	 53.1773
7.544000	 53.1546
7.562000	 53.1617
7.580000	 53.1494
7.598000	 53.1034
7.616000	 53.0628
7.634000	 53.0367
7.652000	 53.0083
7.670000	 52.9739
7.688000	 52.9342
7.706000	 52.8971
7.724000	 52.8796
7.742000	 52.8878
7.760000	 52.9023
7.778000	 52.8897
7.796000	 52.8294
7.814000	 52.7279
7.832000	 52.6223
7.850000	 52.5687
7.868000	 52.5919
7.886000	 52.6396
7.904000	 52.6349
7.922000	 52.5821
7.940000	 52.556
7.958000	 52.5845
7.976000	 52.6241
7.994000	 52.6284
8.012000	 52.5842
8.030000	 52.5118
8.048000	 52.4518
8.065999	 52.4309
8.084000	 52.4437
8.102000	 52.474
8.120000	 52.5046
8.138000	 52.5095
8.155999	 52.4805
8.173999	 52.4433
8.192000	 52.419
8.210000	 52.4026
8.228000	 52.3948
8.246000	 52.4074
8.263999	 52.4244
8.282000	 52.4096
8.300000	 52.3569
8.318000	 52.2948
8.336000	 52.2464
8.353999	 52.2102
8.372000	 52.18
8.390000	 52.1587
8.408000	 52.152
8.426000	 52.1578
8.443999	 52.1632
8.462000	 52.1574
8.480000	 52.1427
8.498000	 52.1218
8.516000	 52.0897
8.533999	 52.0464
8.552000	 52.0095
8.570000	 52
8.588000	 52.0192
8.606000	 52.0452
8.624000	 52.0499
8.641999	 52.0209
8.660000	 51.9803
8.678000	 51.969
8.696000	 51.9997
8.714000	 52.0347
8.731999	 52.027
8.750000	 51.9735
8.768000	 51.9141
8.786000	 51.8832
8.804000	 51.874
8.821999	 51.8599
8.840000	 51.8329
8.858000	 51.8072
8.876000	 51.7864
8.894000	 51.7511
8.911999	 51.6906
8.930000	 51.6294
8.948000	 51.6064
8.966000	 51.6286
8.984000	 51.6612
9.001999	 51.6689
9.020000	 51.6537
9.038000	 51.6414
9.056000	 51.6362
9.074000	 51.6076
9.092000	 51.5292
9.109999	 51.4213
9.128000	 51.3423
9.146000	 51.3373
9.164000	 51.397
9.182000	 51.4667
9.199999	 51.4915
9.218000	 51.4501
9.236000	 51.3556
9.254000	 51.2395
9.272000	 51.1391
9.289999	 51.0902
9.308000	 51.1114
9.326000	 51.1872
9.344000	 51.2701
9.362000	 51.3107
9.379999	 51.2933
9.398000	 51.2425
9.416000	 51.1951
9.434000	 51.1691
9.452000	 51.1589
9.469999	 51.154
9.488000	 51.1558
9.506000	 51.1727
9.524000	 51.2045
9.542000	 51.2349
9.560000	 51.2433
9.577999	 51.2208
9.596000	 51.1746
9.614000	 51.1217
9.632000	 51.077
9.650000	 51.0493
9.667999	 51.0407
9.686000	 51.0514
9.704000	 51.0789
9.722000	 51.1143
9.740000	 51.1428
9.757999	 51.1513
9.776000	 51.1377
9.794000	 51.1106
9.812000	 51.082
9.830000	 51.0578
9.847999	 51.036
9.866000	 51.0115
9.884000	 50.9791
9.902000	 50.9339
9.920000	 50.8703
9.937999	 50.7864
9.956000	 50.6911
9.974000	 50.6029
9.992000	 50.5401
10.01	50.5101
10.028	50.5072
10.046	50.5209
10.064	50.5476
10.082	50.5898
10.1	50.6459
10.118	50.7021
10.136	50.7353
10.154	50.7282
10.172	50.6796
10.19	50.6054
10.208	50.5273
10.226	50.4641
10.244	50.4287
10.262	50.4293
10.28	50.4676
10.298	50.5339
10.316	50.6047
10.334	50.6528
10.352	50.6633
10.37	50.6436
10.388	50.6175
10.406	50.6053
10.424	50.6097
10.442	50.6111
10.46	50.5845
10.478	50.5156
10.496	50.4142
10.514	50.3086
10.532	50.2311
10.55	50.1992
10.568	50.2107
10.586	50.2459
10.604	50.281
10.622	50.2979
10.64	50.2934
10.658	50.2748
10.676	50.2534
10.694	50.2355
10.712	50.2198
10.73	50.1999
10.748	50.1674
10.766	50.1133
10.784	50.0308
10.802	49.9193
10.82	49.79
10.838	49.668
10.856	49.583
10.874	49.5593
10.892	49.5997
10.91	49.6816
10.928	49.7664
10.946	49.8152
10.964	49.809
10.982	49.7524
11	49.6677
11.018	49.5822
11.036	49.5132
11.054	49.4667
11.072	49.4404
11.09	49.4299
11.108	49.434
11.126	49.454
11.144	49.4918
11.162	49.5443
11.18	49.6032
11.198	49.6556
11.216	49.6883
11.234	49.6907
11.252	49.6577
11.27	49.5927
11.288	49.5082
11.306	49.4222
11.324	49.3564
11.342	49.3283
11.36	49.3448
11.378	49.3995
11.396	49.475
11.414	49.5461
11.432	49.5881
11.45	49.5855
11.468	49.5347
11.486	49.4448
11.504	49.3339
11.522	49.2255
11.54	49.1403
11.558	49.0936
11.576	49.0911
11.594	49.1289
11.612	49.1942
11.63	49.2705
11.648	49.3428
11.666	49.3993
11.684	49.4338
11.702	49.4459
11.72	49.4383
11.738	49.4151
11.756	49.3799
11.774	49.3371
11.792	49.2918
11.81	49.2495
11.828	49.2156
11.846	49.1938
11.864	49.1839
11.882	49.1814
11.9	49.1786
11.918	49.1675
11.936	49.1429
11.954	49.1028
11.972	49.0498
11.99	48.9904
12.008	48.9315
12.026	48.8792
12.044	48.8378
12.062	48.8094
12.08	48.7938
12.098	48.7896
12.116	48.7947
12.134	48.8063
12.152	48.8206
12.17	48.8331
12.188	48.8386
12.206	48.8324
12.224	48.8111
12.242	48.7743
12.26	48.725
12.278	48.6704
12.296	48.6202
12.314	48.585
12.332	48.5735
12.35	48.5899
12.368	48.6327
12.386	48.6948
12.404	48.7651
12.422	48.8318
12.44	48.8852
12.458	48.9207
12.476	48.9381
12.494	48.9421
12.512	48.9387
12.53	48.933
12.548	48.9263
12.566	48.917
12.584	48.9009
12.602	48.8741
12.62	48.8353
12.638	48.7867
12.656	48.7351
12.674	48.689
12.692	48.6565
12.71	48.6434
12.728	48.6511
12.746	48.6764
12.764	48.7124
12.782	48.7502
12.8	48.7812
12.818	48.7991
12.836	48.8005
12.854	48.7857
12.872	48.7571
12.89	48.7192
12.908	48.6769
12.926	48.6343
12.944	48.5942
12.962	48.5578
12.98	48.525
12.998	48.4943
13.016	48.4637
13.034	48.4316
13.052	48.397
13.07	48.3601
13.088	48.3213
13.106	48.2818
13.124	48.2431
13.142	48.2067
13.16	48.1742
13.178	48.1465
13.196	48.1248
13.214	48.1098
13.232	48.1018
13.25	48.1007
13.268	48.1057
13.286	48.1151
13.304	48.1271
13.322	48.1388
13.34	48.1473
13.358	48.1495
13.376	48.1426
13.394	48.1241
13.412	48.0925
13.43	48.0472
13.448	47.9887
13.466	47.919
13.484	47.8418
13.502	47.7623
13.52	47.6869
13.538	47.6226
13.556	47.576
13.574	47.5524
13.592	47.5548
13.61	47.5827
13.628	47.6321
13.646	47.6962
13.664	47.7656
13.682	47.83
13.7	47.8804
13.718	47.9096
13.736	47.914
13.754	47.8937
13.772	47.8528
13.79	47.7983
13.808	47.7384
13.826	47.6817
13.844	47.635
13.862	47.6029
13.88	47.5874
13.898	47.5873
13.916	47.5995
13.934	47.6194
13.952	47.6422
13.97	47.6632
13.988	47.6788
14.006	47.6863
14.024	47.6839
14.042	47.6709
14.06	47.6476
14.078	47.6146
14.096	47.573
14.114	47.5248
14.132	47.4721
14.15	47.4177
14.168	47.3639
14.186	47.313
14.204	47.2668
14.222	47.2262
14.24	47.1916
14.258	47.1624
14.276	47.1375
14.294	47.1151
14.312	47.0936
14.33	47.0711
14.348	47.0463
14.366	47.0179
14.384	46.9855
14.402	46.9488
14.42	46.9086
14.438	46.8659
14.456	46.8224
14.474	46.7804
14.492	46.7425
14.51	46.7116
14.528	46.6903
14.546	46.6805
14.564	46.6828
14.582	46.6969
14.6	46.7212
14.618	46.7528
14.636	46.7875
14.654	46.8213
14.672	46.8507
14.69	46.8728
14.708	46.8858
14.726	46.8887
14.744	46.8819
14.762	46.8672
14.78	46.8465
14.798	46.8226
14.816	46.7979
14.834	46.7747
14.852	46.7554
14.87	46.7412
14.888	46.7328
14.906	46.7306
14.924	46.734
14.942	46.742
14.96	46.7531
14.978	46.7653
14.996	46.7767
15.014	46.7854
15.032	46.7893
15.05	46.7867
15.068	46.7768
15.086	46.7591
15.104	46.734
15.122	46.7027
15.14	46.6671
15.158	46.6296
15.176	46.5926
15.194	46.5587
15.212	46.5305
15.23	46.5101
15.248	46.4989
15.266	46.4979
15.284	46.5076
15.302	46.527
15.32	46.5549
15.338	46.5899
15.356	46.6295
15.374	46.6708
15.392	46.7108
15.41	46.7466
15.428	46.7752
15.446	46.7938
15.464	46.8003
15.482	46.7936
15.5	46.7728
15.518	46.7382
15.536	46.6913
15.554	46.6339
15.572	46.5689
15.59	46.5003
15.608	46.4317
15.626	46.3664
15.644	46.3084
15.662	46.2608
15.68	46.2254
15.698	46.2033
15.716	46.1952
15.734	46.1996
15.752	46.2147
15.77	46.2382
15.788	46.2662
15.806	46.2949
15.824	46.3214
15.842	46.3417
15.86	46.3526
15.878	46.3522
15.896	46.3388
15.914	46.3117
15.932	46.2714
15.95	46.2189
15.968	46.1558
15.986	46.0854
16.004	46.0102
16.022	45.9331
16.04	45.8582
16.058	45.7883
16.076	45.7257
16.094	45.6733
16.112	45.6327
16.13	45.6045
16.148	45.5893
16.166	45.5866
16.184	45.5955
16.202	45.6147
16.22	45.6422
16.238	45.676
16.256	45.7144
16.274	45.7544
16.292	45.7939
16.31	45.8311
16.328	45.8633
16.346	45.8892
16.364	45.9074
16.382	45.9169
16.4	45.9174
16.418	45.9089
16.436	45.892
16.454	45.8683
16.472	45.8386
16.49	45.8052
16.508	45.7695
16.526	45.7328
16.544	45.6969
16.562	45.6625
16.58	45.6302
16.598	45.6001
16.616	45.5719
16.634	45.545
16.652	45.5181
16.67	45.4906
16.688	45.4615
16.706	45.4301
16.724	45.3962
16.742	45.36
16.76	45.3219
16.778	45.2826
16.796	45.2434
16.814	45.2057
16.832	45.1703
16.85	45.1394
16.868	45.1137
16.886	45.094
16.904	45.0815
16.922	45.0763
16.94	45.0788
16.958	45.0885
16.976	45.1053
16.994	45.128
17.012	45.1556
17.03	45.1871
17.048	45.2208
17.066	45.2556
17.084	45.2899
17.102	45.3216
17.12	45.3497
17.138	45.3722
17.156	45.3886
17.174	45.3979
17.192	45.3999
17.21	45.3949
17.228	45.3836
17.246	45.3675
17.264	45.3477
17.282	45.3273
17.3	45.3074
17.318	45.2909
17.336	45.2794
17.354	45.2741
17.372	45.2759
17.39	45.2844
17.408	45.2989
17.426	45.3169
17.444	45.3371
17.462	45.3552
17.48	45.3699
17.498	45.3771
17.516	45.3755
17.534	45.363
17.552	45.3393
17.57	45.3043
17.588	45.2594
17.606	45.2063
17.624	45.1472
17.642	45.0855
17.66	45.0224
17.678	44.9621
17.696	44.9051
17.714	44.8537
17.732	44.8075
17.75	44.767
17.768	44.73
17.786	44.696
17.804	44.6617
17.822	44.6262
17.84	44.5862
17.858	44.5409
17.876	44.4887
17.894	44.4297
17.912	44.3636
17.93	44.2925
17.948	44.217
17.966	44.1414
17.984	44.0671
18.002	43.9986
18.02	43.9385
18.038	43.8896
18.056	43.8542
18.074	43.8335
18.092	43.8282
18.11	43.8384
18.128	43.8627
18.146	43.8998
18.164	43.9466
18.182	44.0006
18.2	44.0586
18.218	44.1166
18.236	44.1723
18.254	44.2216
18.272	44.2632
18.29	44.2938
18.308	44.3131
18.326	44.3196
18.344	44.3138
18.362	44.2962
18.38	44.2677
18.398	44.2305
18.416	44.1862
18.434	44.1372
18.452	44.0858
18.47	44.0341
18.488	43.9849
18.506	43.9396
18.524	43.9007
18.542	43.8689
18.56	43.8461
18.578	43.8326
18.596	43.8287
18.614	43.8344
18.632	43.8492
18.65	43.8729
18.668	43.9035
18.686	43.9408
18.704	43.9825
18.722	44.028
18.74	44.0742
18.758	44.1204
18.776	44.1629
18.794	44.2009
18.812	44.2309
18.83	44.2524
18.848	44.2628
18.866	44.2615
18.884	44.2467
18.902	44.2185
18.92	44.1758
18.938	44.1194
18.956	44.0498
18.974	43.9685
18.992	43.8772
19.01	43.778
19.028	43.6737
19.046	43.5664
19.064	43.4594
19.082	43.3545
19.1	43.2553
19.118	43.1629
19.136	43.0805
19.154	43.0083
19.172	42.9483
19.19	42.9001
19.208	42.8642
19.226	42.8397
19.244	42.8253
19.262	42.8203
19.28	42.8214
19.298	42.8284
19.316	42.8371
19.334	42.8475
19.352	42.8552
19.37	42.8606
19.388	42.86
19.406	42.8534
19.424	42.839
19.442	42.8166
19.46	42.7858
19.478	42.746
19.496	42.6988
19.514	42.6443
19.532	42.584
19.55	42.5185
19.568	42.4498
19.586	42.3802
19.604	42.3107
19.622	42.2442
19.64	42.1812
19.658	42.126
19.676	42.0784
19.694	42.0421
19.712	42.0168
19.73	42.006
19.748	42.0097
19.766	42.0299
19.784	42.0671
19.802	42.1216
19.82	42.1943
19.838	42.2841
19.856	42.3906
19.874	42.5128
19.892	42.648
19.91	42.7962
19.928	42.9522
19.946	43.1168
19.964	43.2831
19.982	43.4513
20	43.6155
20.018	43.7729
20.036	43.9213
20.054	44.055
20.072	44.1748
20.09	44.275
20.108	44.3564
20.126	44.4165
20.144	44.4548
20.162	44.4721
20.18	44.4677
20.198	44.4436
20.216	44.4016
20.234	44.3423
20.252	44.2706
20.27	44.1856
20.288	44.094
20.306	43.9955
20.324	43.8948
20.342	43.795
20.36	43.697
20.378	43.6067
20.396	43.5229
20.414	43.4504
20.432	43.3888
20.45	43.3404
20.468	43.3067
20.486	43.2869
20.504	43.2816
20.522	43.2906
20.54	43.3119
20.558	43.3463
20.576	43.3903
20.594	43.443
20.612	43.5026
20.63	43.5646
20.648	43.6301
20.666	43.6928
20.684	43.7535
20.702	43.8086
20.72	43.8556
20.738	43.8948
20.756	43.9227
20.774	43.9398
20.792	43.9453
20.81	43.9385
20.828	43.9201
20.846	43.8904
20.864	43.8494
20.882	43.7993
20.9	43.7396
20.918	43.6724
20.936	43.599
20.954	43.5193
20.972	43.4361
20.99	43.3489
21.008	43.2592
21.026	43.1679
21.044	43.0747
21.062	42.9807
21.08	42.8858
21.098	42.79
21.116	42.6934
21.134	42.5961
21.152	42.4977
21.17	42.3984
21.188	42.2986
21.206	42.1981
21.224	42.0976
21.242	41.9983
21.26	41.8997
21.278	41.804
21.296	41.7111
21.314	41.622
21.332	41.5389
21.35	41.4609
21.368	41.3903
21.386	41.3276
21.404	41.2727
21.422	41.2269
21.44	41.1901
21.458	41.1615
21.476	41.1413
21.494	41.1288
21.512	41.1216
21.53	41.1207
21.548	41.1232
21.566	41.127
21.584	41.1329
21.602	41.1362
21.62	41.1377
21.638	41.1353
21.656	41.1258
21.674	41.1104
21.692	41.0867
21.71	41.0538
21.728	41.0122
21.746	40.9609
21.764	40.8998
21.782	40.83
21.8	40.7521
21.818	40.666
21.836	40.5745
21.854	40.477
21.872	40.3753
21.89	40.2729
21.908	40.1686
21.926	40.0655
21.944	39.9658
21.962	39.8685
21.98	39.7778
21.998	39.6937
22.016	39.617
22.034	39.5503
22.052	39.4929
22.07	39.4459
22.088	39.4106
22.106	39.3864
22.124	39.3737
22.142	39.3729
22.16	39.3834
22.178	39.4041
22.196	39.4356
22.214	39.4765
22.232	39.525
22.25	39.5823
22.268	39.6451
22.286	39.7119
22.304	39.7834
22.322	39.855
22.34	39.9267
22.358	39.9977
22.376	40.0635
22.394	40.1252
22.412	40.1809
22.43	40.2274
22.448	40.2659
22.466	40.2948
22.484	40.3123
22.502	40.3193
22.52	40.3156
22.538	40.3004
22.556	40.2742
22.574	40.2394
22.592	40.1953
22.61	40.1429
22.628	40.0862
22.646	40.0238
22.664	39.9578
22.682	39.8929
22.7	39.8273
22.718	39.7635
22.736	39.705
22.754	39.6503
22.772	39.6013
22.79	39.56
22.808	39.5257
22.826	39.4981
22.844	39.4777
22.862	39.4645
22.88	39.456
22.898	39.4519
22.916	39.4525
22.934	39.4537
22.952	39.4547
22.97	39.4559
22.988	39.4525
23.006	39.4438
23.024	39.4303
23.042	39.4081
23.06	39.3766
23.078	39.3365
23.096	39.2865
23.114	39.2258
23.132	39.1556
23.15	39.0776
23.168	38.9908
23.186	38.8965
23.204	38.7986
23.222	38.6954
23.24	38.5889
23.258	38.4845
23.276	38.3809
23.294	38.2796
23.312	38.1868
23.33	38.1016
23.348	38.0247
23.366	37.961
23.384	37.9107
23.402	37.8732
23.42	37.8508
23.438	37.844
23.456	37.8519
23.474	37.8738
23.492	37.9107
23.51	37.9616
23.528	38.0227
23.546	38.0938
23.564	38.1753
23.582	38.2626
23.6	38.3542
23.618	38.4515
23.636	38.5505
23.654	38.6493
23.672	38.7495
23.69	38.8484
23.708	38.9441
23.726	39.0379
23.744	39.1284
23.762	39.2141
23.78	39.2952
23.798	39.3728
23.816	39.4476
23.834	39.5184
23.852	39.5871
23.87	39.6565
23.888	39.7262
23.906	39.7962
23.924	39.8676
23.942	39.9414
23.96	40.0167
23.978	40.0921
23.996	40.1679
24.014	40.2443
24.032	40.3183
24.05	40.3883
24.068	40.4563
24.086	40.5182
24.104	40.57
24.122	40.6143
24.14	40.6486
24.158	40.6689
24.176	40.6763
24.194	40.6705
24.212	40.6487
24.23	40.6103
24.248	40.5564
24.266	40.4856
24.284	40.3966
24.302	40.2902
24.32	40.1672
24.338	40.0278
24.356	39.8701
24.374	39.6978
24.392	39.5159
24.41	39.3227
24.428	39.1191
24.446	38.9111
24.464	38.6999
24.482	38.4829
24.5	38.2673
24.518	38.0592
24.536	37.8549
24.554	37.6566
24.572	37.4682
24.59	37.2909
24.608	37.1225
24.626	36.9609
24.644	36.8064
24.662	36.6605
24.68	36.517
24.698	36.3707
24.716	36.2277
24.734	36.0812
24.752	35.9204
24.77	35.745
24.788	35.5579
24.806	35.3511
24.824	35.1187
24.842	34.8647
24.86	34.5878
24.878	34.286
24.896	33.956
24.914	33.6018
24.932	33.2302
24.95	32.842
24.968	32.4309
24.986	32.013
25.004	31.6049
25.022	31.1957
25.04	30.7919
25.058	30.4131
25.076	30.068
25.094	29.7452
25.112	29.4564
25.13	29.2134
25.148	29.0102
25.166	28.8485
25.184	28.7372
25.202	28.6819
25.22	28.6781
25.238	28.7244
25.256	28.8197
25.274	28.9626
25.292	29.1543
25.31	29.3974
25.328	29.6922
25.346	30.0356
25.364	30.4329
25.382	30.89
25.4	31.4031
25.418	31.9727
25.436	32.608
25.454	33.3155
25.472	34.0883
25.49	34.931
25.508	35.851
25.526	36.8532
25.544	37.9333
25.562	39.0855
25.58	40.3055
25.598	41.6052
25.616	42.9725
25.634	44.3851
25.652	45.8351
25.67	47.3468
25.688	48.8823
25.706	50.3976
25.724	51.9026
25.742	53.4105
25.76	54.8652
25.778	56.2157
25.796	57.5013
25.814	58.7044
25.832	59.7715
25.85	60.6682
25.868	61.434
25.886	62.0429
25.904	62.4583
25.922	62.6666
25.94	62.6883
25.958	62.5184
25.976	62.1515
25.994	61.5746
26.012	60.801
26.03	59.857
26.048	58.7629
26.066	57.4834
26.084	56.0506
26.102	54.5185
26.12	52.9161
26.138	51.1918
26.156	49.3988
26.174	47.6034
26.192	45.8218
26.21	44.0075
26.228	42.2203
26.246	40.5232
26.264	38.9119
26.282	37.3605
26.3	35.9155
26.318	34.6222
26.336	33.4718
26.354	32.4515
26.372	31.5752
26.39	30.8561
26.408	30.2946
26.426	29.8818
26.444	29.6096
26.462	29.4735
26.48	29.4908
26.498	29.6422
26.516	29.8994
26.534	30.2425
26.552	30.6968
26.57	31.245
26.588	31.8608
26.606	32.5262
26.624	33.2588
26.642	34.0525
26.66	34.8976
26.678	35.786
26.696	36.7211
26.714	37.708
26.732	38.7511
26.75	39.8479
26.768	40.9879
26.786	42.1912
26.804	43.4798
26.822	44.8641
26.84	46.3268
26.858	47.8778
26.876	49.5293
26.894	51.2915
26.912	53.1596
26.93	55.1234
26.948	57.173
26.966	59.4198
26.984	62.0442
27.002	64.6028
27.02	66.6134
27.028	67.1461