File: Bakgrunnsmateriale/MATLAB/FTIR/ftir_data/subBb/Mapping_121/C-4040-8_t93_cm-1.asc
PE IR       SPECTRUM    SPECTRUM    ASCII       PEDS        1.60
  -1
C-1EE1~1.ASC
17/03/27
22:09:52.00
17/03/27
22:09:52.00
tln
$C-4040-8_t0093$<tbV0>[2.6,7.8,8.0,0.0,27,1,0]
370
64

2002,4.07
MIRTGS : RIGHTBACK : INTERNAL 2
MIR : ON : INTERNAL 2
OPTKBR

0.200000
8
8.000000
FILLER
RATIO
SPECTRUM
UNLOCKED 256

DOUBLE
64
COMBINED
1
0
0

1.000000
RATIO

1
0
TRUE
51149
0
LEFT NOT FITTED RIGHT NOT FITTED 0
NONE
NONE
15600
12
4.427000
51148
TRUE
1 0 8 72 0 0 0 0

15798

#HDR
-1
-1
#GR
CM-1
%T
2.38419e-05
0.0
5000
-1.000000
4631
8
142.756
45.3149
#DATA
5000	65.4424
4996	65.2136
4992	64.8731
4988	64.7925
4984	64.8639
4980	64.8918
4976	64.8175
4972	64.5433
4968	64.5284
4964	65.1731
4960	65.6771
4956	65.4072
4952	65.1191
4948	65.2613
4944	65.1361
4940	64.7927
4936	64.9213
4932	65.1469
4928	64.9931
4924	64.9672
4920	65.2553
4916	65.5459
4912	65.5005
4908	65.0859
4904	64.9592
4900	65.0122
4896	64.8315
4892	64.8895
4888	65.523
4884	65.977
4880	65.4766
4876	64.9042
4872	64.9848
4868	65.1601
4864	65.152
4860	65.1308
4856	65.0692
4852	65.0246
4848	65.29
4844	65.5359
4840	65.3492
4836	65.0452
4832	64.9128
4828	64.9604
4824	65.0541
4820	65.1336
4816	65.2284
4812	65.2731
4808	65.164
4804	65.0099
4800	65.0871
4796	65.3285
4792	65.4409
4788	65.4179
4784	65.374
4780	65.2363
4776	65.1447
4772	65.2632
4768	65.2213
4764	64.9715
4760	65.0621
4756	65.2683
4752	65.2806
4748	65.4499
4744	65.5016
4740	65.0339
4736	64.6747
4732	64.9931
4728	65.3744
4724	65.4013
4720	65.2488
4716	65.1597
4712	65.4082
4708	65.5055
4704	65.274
4700	65.3057
4696	65.4864
4692	65.4415
4688	65.3293
4684	65.2856
4680	65.1633
4676	64.9269
4672	64.8008
4668	64.9187
4664	65.1355
4660	65.3457
4656	65.5982
4652	65.742
4648	65.7702
4644	65.6104
4640	65.1914
4636	65.0885
4632	65.4472
4628	65.7261
4624	65.5899
4620	65.3471
4616	65.417
4612	65.3775
4608	64.9355
4604	64.714
4600	64.8988
4596	65.2259
4592	65.6236
4588	65.7951
4584	65.5833
4580	65.3303
4576	65.1781
4572	65.0104
4568	64.936
4564	65.1242
4560	65.4464
4556	65.4393
4552	65.1665
4548	65.1284
4544	65.0265
4540	64.6278
4536	64.4393
4532	64.7053
4528	65.2867
4524	65.4367
4520	64.8043
4516	64.2949
4512	64.3168
4508	64.5397
4504	64.7038
4500	64.7101
4496	64.6785
4492	64.8324
4488	65.0559
4484	64.9875
4480	64.7971
4476	64.7216
4472	64.7944
4468	64.9555
4464	64.8613
4460	64.6343
4456	64.5245
4452	64.3804
4448	64.2694
4444	64.0434
4440	63.8226
4436	63.9486
4432	64.2458
4428	64.3344
4424	64.4732
4420	64.5979
4416	64.5753
4412	64.5436
4408	64.2658
4404	64.0404
4400	63.8883
4396	64.2637
4392	65.4992
4388	75.2889
4384	83.4446
4380	74.4797
4376	66.5829
4372	65.7477
4368	66.0177
4364	65.8142
4360	65.6322
4356	65.6569
4352	65.4346
4348	64.962
4344	64.5097
4340	64.1384
4336	64.2881
4332	64.6123
4328	64.8377
4324	65.1667
4320	65.1164
4316	64.8432
4312	64.9008
4308	65.0124
4304	64.9642
4300	64.8554
4296	64.6826
4292	64.5197
4288	64.6162
4284	64.8826
4280	64.9836
4276	64.9571
4272	64.9541
4268	65.0325
4264	65.1307
4260	65.1307
4256	64.8774
4252	64.4394
4248	64.2774
4244	64.4293
4240	64.677
4236	64.9276
4232	64.9302
4228	64.7886
4224	64.7105
4220	64.6689
4216	64.7696
4212	64.7913
4208	64.8427
4204	65.0456
4200	64.8859
4196	64.5454
4192	64.255
4188	64.0204
4184	64.1435
4180	64.6642
4176	65.0727
4172	64.7754
4168	64.4681
4164	64.7965
4160	65.0351
4156	64.9634
4152	64.9663
4148	65.1291
4144	65.4153
4140	65.6213
4136	65.5442
4132	65.3323
4128	65.1326
4124	64.9877
4120	64.9834
4116	65.0787
4112	65.0912
4108	65.065
4104	65.1511
4100	65.182
4096	65.0785
4092	64.9549
4088	64.9206
4084	65.1165
4080	65.3465
4076	65.2502
4072	65.0548
4068	65.0986
4064	65.1855
4060	65.1633
4056	65.1895
4052	65.3433
4048	65.3916
4044	65.2218
4040	65.172
4036	65.3152
4032	65.362
4028	65.3656
4024	65.4824
4020	65.5442
4016	65.4617
4012	65.3456
4008	65.2932
4004	65.3233
4000	65.3361
3996	65.3343
3992	65.3324
3988	65.2592
3984	65.158
3980	65.0953
3976	65.1307
3972	65.2143
3968	65.2821
3964	65.3201
3960	65.1104
3956	64.7926
3952	64.7854
3948	64.9461
3944	65.0332
3940	65.1133
3936	65.1696
3932	65.1032
3928	64.9763
3924	64.9585
3920	64.9795
3916	65.0201
3912	65.1523
3908	65.1997
3904	65.1236
3900	65.0797
3896	65.1057
3892	65.0101
3888	64.7944
3884	64.7359
3880	64.9108
3876	65.112
3872	65.0707
3868	64.9747
3864	65.0697
3860	65.1403
3856	65.0026
3852	64.8613
3848	65.0007
3844	65.2064
3840	65.2182
3836	65.1874
3832	65.0582
3828	64.865
3824	64.9557
3820	65.1285
3816	65.2105
3812	65.3094
3808	65.2215
3804	65.0619
3800	65.0459
3796	65.021
3792	64.9616
3788	64.9917
3784	65.0657
3780	65.0756
3776	65.16
3772	65.2682
3768	65.192
3764	65.1263
3760	65.2263
3756	65.3111
3752	65.2954
3748	65.3162
3744	65.3872
3740	65.3506
3736	65.2138
3732	65.2013
3728	65.3112
3724	65.2821
3720	65.156
3716	65.099
3712	65.1052
3708	65.1381
3704	65.1768
3700	65.1994
3696	65.209
3692	65.2621
3688	65.2758
3684	65.27
3680	65.2992
3676	65.3395
3672	65.434
3668	65.4718
3664	65.3912
3660	65.2507
3656	65.1922
3652	65.308
3648	65.4217
3644	65.4376
3640	65.4126
3636	65.297
3632	65.1576
3628	65.1968
3624	65.336
3620	65.3054
3616	65.1304
3612	65.0463
3608	65.1286
3604	65.2771
3600	65.3302
3596	65.3882
3592	65.5792
3588	65.659
3584	65.5593
3580	65.4065
3576	65.3027
3572	65.4003
3568	65.5567
3564	65.5544
3560	65.4883
3556	65.4248
3552	65.2676
3548	65.0785
3544	65.0696
3540	65.2349
3536	65.3332
3532	65.2582
3528	65.1711
3524	65.2139
3520	65.2898
3516	65.3511
3512	65.4245
3508	65.4316
3504	65.2952
3500	65.1089
3496	65.082
3492	65.1646
3488	65.1944
3484	65.1107
3480	64.9767
3476	65.0533
3472	65.3712
3468	65.59
3464	65.5852
3460	65.5556
3456	65.463
3452	65.2056
3448	65.0009
3444	64.9484
3440	65.0179
3436	65.1783
3432	65.2953
3428	65.2844
3424	65.1628
3420	65.0275
3416	65.0062
3412	65.1384
3408	65.2517
3404	65.2255
3400	65.1914
3396	65.1919
3392	65.1916
3388	65.2464
3384	65.2997
3380	65.2657
3376	65.1488
3372	65.0841
3368	65.114
3364	65.1465
3360	65.1993
3356	65.2027
3352	65.2418
3348	65.421
3344	65.4469
3340	65.2701
3336	65.1987
3332	65.2115
3328	65.1669
3324	65.1534
3320	65.1752
3316	65.1311
3312	65.0822
3308	65.138
3304	65.2348
3300	65.2265
3296	65.133
3292	65.0642
3288	65.0609
3284	65.1841
3280	65.3332
3276	65.3472
3272	65.3127
3268	65.3187
3264	65.3577
3260	65.4355
3256	65.5128
3252	65.5041
3248	65.4278
3244	65.381
3240	65.2998
3236	65.1842
3232	65.1154
3228	65.0881
3224	65.2391
3220	65.4229
3216	65.4119
3212	65.4558
3208	65.5334
3204	65.4004
3200	65.1876
3196	65.078
3192	65.0959
3188	65.1262
3184	65.1313
3180	65.2077
3176	65.3568
3172	65.4441
3168	65.3366
3164	65.2027
3160	65.3
3156	65.431
3152	65.3449
3148	65.2057
3144	65.2789
3140	65.4558
3136	65.4237
3132	65.3772
3128	65.362
3124	65.1799
3120	65.1207
3116	65.2076
3112	65.2464
3108	65.4541
3104	65.7165
3100	65.6192
3096	65.4042
3092	65.3551
3088	65.2743
3084	65.1502
3080	65.1589
3076	65.2668
3072	65.3055
3068	65.2516
3064	65.184
3060	65.1605
3056	65.1777
3052	65.2001
3048	65.3239
3044	65.4513
3040	65.4443
3036	65.4234
3032	65.3576
3028	65.2558
3024	65.225
3020	65.2256
3016	65.2505
3012	65.2842
3008	65.2628
3004	65.233
3000	65.238
2996	65.2531
2992	65.2935
2988	65.3196
2984	65.2535
2980	65.1895
2976	65.1998
2972	65.1711
2968	65.1293
2964	65.1947
2960	65.2684
2956	65.2359
2952	65.1801
2948	65.1752
2944	65.2028
2940	65.1905
2936	65.0762
2932	64.9588
2928	64.9099
2924	64.8644
2920	64.8479
2916	64.88
2912	64.9132
2908	65.0768
2904	65.3363
2900	65.3768
2896	65.2192
2892	65.1224
2888	65.1318
2884	65.1375
2880	65.1681
2876	65.2829
2872	65.3313
2868	65.2685
2864	65.2439
2860	65.2505
2856	65.142
2852	64.9535
2848	64.9256
2844	65.059
2840	65.1787
2836	65.2762
2832	65.2935
2828	65.2448
2824	65.2298
2820	65.2447
2816	65.2947
2812	65.3302
2808	65.3289
2804	65.3201
2800	65.3006
2796	65.3767
2792	65.4917
2788	65.4763
2784	65.4134
2780	65.3641
2776	65.3214
2772	65.3192
2768	65.3279
2764	65.3238
2760	65.3411
2756	65.3439
2752	65.301
2748	65.2891
2744	65.2947
2740	65.273
2736	65.2864
2732	65.3136
2728	65.3231
2724	65.3452
2720	65.3679
2716	65.42
2712	65.4905
2708	65.4985
2704	65.4026
2700	65.2939
2696	65.3231
2692	65.4195
2688	65.4346
2684	65.401
2680	65.3681
2676	65.3234
2672	65.2899
2668	65.3504
2664	65.4748
2660	65.5197
2656	65.497
2652	65.4604
2648	65.4083
2644	65.3574
2640	65.3202
2636	65.3672
2632	65.4293
2628	65.3821
2624	65.3214
2620	65.2937
2616	65.3076
2612	65.3623
2608	65.3682
2604	65.3282
2600	65.2547
2596	65.2283
2592	65.323
2588	65.3991
2584	65.3699
2580	65.2775
2576	65.2285
2572	65.2647
2568	65.35
2564	65.4736
2560	65.5069
2556	65.4357
2552	65.3753
2548	65.375
2544	65.4276
2540	65.4497
2536	65.434
2532	65.3115
2528	65.1459
2524	65.2345
2520	65.4206
2516	65.4668
2512	65.4759
2508	65.4027
2504	65.3193
2500	65.4315
2496	65.5385
2492	65.522
2488	65.5275
2484	65.4867
2480	65.4676
2476	65.5599
2472	65.5694
2468	65.4737
2464	65.4079
2460	65.4139
2456	65.4339
2452	65.4114
2448	65.3665
2444	65.2542
2440	65.1359
2436	65.2399
2432	65.4069
2428	65.317
2424	65.2009
2420	65.3002
2416	65.3843
2412	65.3268
2408	65.2537
2404	65.2666
2400	65.3284
2396	65.3277
2392	65.2816
2388	65.2491
2384	65.2591
2380	65.2941
2376	65.3071
2372	65.2926
2368	65.3059
2364	65.3684
2360	65.3813
2356	65.3506
2352	65.3566
2348	65.3914
2344	65.3751
2340	65.3043
2336	65.2769
2332	65.2557
2328	65.2476
2324	65.3411
2320	65.448
2316	65.4521
2312	65.3764
2308	65.306
2304	65.3089
2300	65.3594
2296	65.3908
2292	65.3842
2288	65.3479
2284	65.3381
2280	65.4079
2276	65.4572
2272	65.3986
2268	65.3679
2264	65.4021
2260	65.4039
2256	65.3815
2252	65.3417
2248	65.2801
2244	65.2257
2240	65.1798
2236	65.1654
2232	65.2203
2228	65.2941
2224	65.3527
2220	65.4195
2216	65.4109
2212	65.2967
2208	65.2353
2204	65.2584
2200	65.2305
2196	65.2198
2192	65.3155
2188	65.3617
2184	65.3683
2180	65.3851
2176	65.3366
2172	65.2735
2168	65.2332
2164	65.2919
2160	65.4638
2156	65.6108
2152	65.537
2148	65.3143
2144	65.3741
2140	65.5621
2136	65.4988
2132	65.4072
2128	65.4028
2124	65.3753
2120	65.3919
2116	65.4296
2112	65.4167
2108	65.3833
2104	65.3292
2100	65.3063
2096	65.3602
2092	65.4214
2088	65.3235
2084	65.0653
2080	65.0531
2076	65.4309
2072	65.7703
2068	65.8137
2064	65.73
2060	65.5672
2056	65.3066
2052	65.195
2048	65.2863
2044	65.3833
2040	65.4029
2036	65.3928
2032	65.4176
2028	65.4531
2024	65.4223
2020	65.3846
2016	65.3978
2012	65.3957
2008	65.3745
2004	65.3444
2000	65.343
1996	65.4355
1992	65.5386
1988	65.5084
1984	65.3931
1980	65.3489
1976	65.3772
1972	65.419
1968	65.4734
1964	65.4952
1960	65.4473
1956	65.3527
1952	65.2824
1948	65.31
1944	65.3925
1940	65.4768
1936	65.5082
1932	65.4212
1928	65.3135
1924	65.3238
1920	65.3965
1916	65.3871
1912	65.2999
1908	65.2636
1904	65.2894
1900	65.2626
1896	65.2007
1892	65.2131
1888	65.2773
1884	65.3158
1880	65.3141
1876	65.31
1872	65.3313
1868	65.3304
1864	65.3157
1860	65.3298
1856	65.3318
1852	65.3213
1848	65.3543
1844	65.4157
1840	65.4522
1836	65.4649
1832	65.4851
1828	65.5156
1824	65.4902
1820	65.4287
1816	65.4253
1812	65.4474
1808	65.4444
1804	65.3998
1800	65.3192
1796	65.3154
1792	65.357
1788	65.3173
1784	65.293
1780	65.3263
1776	65.3506
1772	65.3677
1768	65.3678
1764	65.3253
1760	65.2389
1756	65.1698
1752	65.1856
1748	65.2429
1744	65.2512
1740	65.1812
1736	65.1058
1732	65.1124
1728	65.1774
1724	65.1955
1720	65.0858
1716	65.0883
1712	65.3355
1708	65.4416
1704	65.2898
1700	65.1397
1696	65.1232
1692	65.1889
1688	65.2374
1684	65.2635
1680	65.2501
1676	65.2249
1672	65.2742
1668	65.2632
1664	65.1546
1660	65.1361
1656	65.1963
1652	65.2529
1648	65.3205
1644	65.3883
1640	65.3895
1636	65.3157
1632	65.269
1628	65.2383
1624	65.1881
1620	65.1617
1616	65.1387
1612	65.1358
1608	65.1342
1604	65.0932
1600	65.1002
1596	65.1746
1592	65.2159
1588	65.2108
1584	65.1693
1580	65.0949
1576	65.0496
1572	65.0164
1568	64.9857
1564	64.9639
1560	64.9437
1556	64.9974
1552	65.0881
1548	65.1084
1544	65.0841
1540	65.0983
1536	65.1782
1532	65.2243
1528	65.203
1524	65.2091
1520	65.2325
1516	65.215
1512	65.1789
1508	65.1985
1504	65.2372
1500	65.2183
1496	65.2255
1492	65.2679
1488	65.2491
1484	65.2056
1480	65.1558
1476	65.1092
1472	65.0877
1468	65.0559
1464	65.1245
1460	65.2768
1456	65.3055
1452	65.3163
1448	65.348
1444	65.2714
1440	65.1682
1436	65.1265
1432	65.1461
1428	65.2319
1424	65.2313
1420	65.0936
1416	65.0796
1412	65.1857
1408	65.1769
1404	65.0925
1400	65.119
1396	65.2089
1392	65.2094
1388	65.2005
1384	65.2369
1380	65.1855
1376	65.1075
1372	65.0958
1368	65.0952
1364	65.1104
1360	65.1842
1356	65.2502
1352	65.2687
1348	65.3034
1344	65.2776
1340	65.1664
1336	65.0857
1332	65.0516
1328	65.043
1324	65.0844
1320	65.1467
1316	65.1006
1312	64.9845
1308	64.9665
1304	65.0475
1300	65.142
1296	65.1713
1292	65.1256
1288	65.0907
1284	65.1011
1280	65.1077
1276	65.0941
1272	65.0137
1268	64.8891
1264	64.9061
1260	65.0185
1256	65.0621
1252	64.9976
1248	64.912
1244	64.9803
1240	65.0735
1236	65.0629
1232	65.079
1228	65.1114
1224	65.0638
1220	65.0286
1216	65.1078
1212	65.1765
1208	65.1399
1204	65.084
1200	65.0743
1196	65.1028
1192	65.0705
1188	64.9472
1184	64.8861
1180	64.9351
1176	64.9663
1172	65.0004
1168	65.0036
1164	64.9187
1160	64.9
1156	64.9127
1152	64.8533
1148	64.8336
1144	64.8735
1140	64.8438
1136	64.7488
1132	64.7366
1128	64.8149
1124	64.9288
1120	65.0146
1116	64.9986
1112	64.9338
1108	64.831
1104	64.6818
1100	64.6184
1096	64.6855
1092	64.6548
1088	64.5726
1084	64.5984
1080	64.6487
1076	64.7453
1072	64.8108
1068	64.8141
1064	64.812
1060	64.7003
1056	64.5555
1052	64.5436
1048	64.719
1044	64.9
1040	64.7929
1036	64.5578
1032	64.6005
1028	64.8604
1024	64.8752
1020	64.6256
1016	64.5469
1012	64.7307
1008	64.8436
1004	64.712
1000	64.5338
996	 64.5873
992	 64.7596
988	 64.7343
984	 64.5879
980	 64.5532
976	 64.6603
972	 64.8054
968	 64.8777
964	 64.8435
960	 64.7808
956	 64.7831
952	 64.7816
948	 64.6017
944	 64.368
940	 64.227
936	 64.1816
932	 64.4007
928	 64.7551
924	 64.9542
920	 64.9797
916	 64.6775
912	 64.2711
908	 64.2851
904	 64.554
900	 64.6794
896	 64.5746
892	 64.3787
888	 64.2166
884	 64.15
880	 64.3095
876	 64.6488
872	 64.8564
868	 64.8564
864	 64.7958
860	 64.8006
856	 64.9015
852	 64.9227
848	 64.8039
844	 64.676
840	 64.5208
836	 64.3272
832	 64.298
828	 64.3872
824	 64.4452
820	 64.4616
816	 64.4755
812	 64.4686
808	 64.3114
804	 64.1636
800	 64.1629
796	 64.233
792	 64.2336
788	 64.0408
784	 63.8436
780	 63.8553
776	 63.9983
772	 64.1449
768	 64.2393
764	 64.1074
760	 63.8653
756	 63.8247
752	 63.7784
748	 63.6549
744	 63.6418
740	 63.6679
736	 63.7363
732	 63.8809
728	 64.0491
724	 64.0101
720	 63.6969
716	 63.4864
712	 63.5818
708	 63.7972
704	 63.9033
700	 63.7692
696	 63.4722
692	 63.2822
688	 63.4152
684	 63.6967
680	 63.7265
676	 63.4877
672	 63.23
668	 63.1047
664	 63.0584
660	 63.1396
656	 63.2525
652	 63.1254
648	 63.0052
644	 63.1189
640	 63.2073
636	 63.0424
632	 62.9999
628	 63.3066
624	 63.4293
620	 63.2197
616	 62.9009
612	 62.7344
608	 62.912
604	 62.96
600	 62.7764
596	 62.7485
592	 62.7239
588	 62.7492
584	 62.9362
580	 62.7507
576	 62.4162
572	 62.5407
568	 62.6556
564	 62.5535
560	 62.5464
556	 62.6389
552	 62.4346
548	 61.9725
544	 61.8241
540	 61.8557
536	 61.6695
532	 61.3141
528	 61.103
524	 61.1465
520	 61.4117
516	 61.7313
512	 62.1062
508	 62.4001
504	 61.9774
500	 61.1783
496	 60.983
492	 61.1651
488	 61.0575
484	 60.8651
480	 60.9353
476	 60.8995
472	 60.5899
468	 59.9919
464	 58.9819
460	 58.5708
456	 59.7453
452	 60.7725
448	 60.1428
444	 59.6994
440	 60.4498
436	 61.0447
432	 60.6095
428	 60.482
424	 61.5315
420	 61.9016
416	 59.0724
412	 56.1991
408	 56.9645
404	 57.9625
400	 56.7109
396	 49.624
392	 45.986
388	 59.8168
384	 80.0521
380	 94.9802
376	 135.791
372	 129.758
370	 117.792