File: Bakgrunnsmateriale/MATLAB/FTIR/ftir_data/subBb/Mapping_121/C-4040-8_t56.asc
PE IR       SPECTRUM    SPECTRUM    ASCII       PEDS        1.60
  -1
C-B932~1.ASC
17/03/27
19:05:18.00
17/03/27
19:05:44.00
tln
$C-4040-8_t0056$<tbV0>[13.0,0.0,8.0,0.0,27,1,0]
27.028
64

2002,4.07
MIRTGS : RIGHTBACK : INTERNAL 2
MIR : ON : INTERNAL 2
OPTKBR

0.200000
8
8.000000
FILLER
RATIO
SPECTRUM
UNLOCKED 256

DOUBLE
64
COMBINED
1
0
0

0.002000
RATIO

1
0
TRUE
51149
0
LEFT NOT FITTED RIGHT NOT FITTED 0
NONE
NONE
15600
12
4.427000
51148
TRUE
1 0 8 72 0 0 0 0

15798

#HDR
-1
-1
#GR
µM
%T
2.38419e-05
0.0
2.000000
0.002000
12515
8
92.4374
22.924
#DATA
2.000000	 64.7402
2.018000	 64.6544
2.036000	 64.8498
2.054000	 65.2329
2.072000	 64.9932
2.090000	 64.9363
2.108000	 64.5801
2.126000	 64.6396
2.144000	 64.7789
2.162000	 64.9061
2.180000	 64.9457
2.198000	 64.573
2.216000	 65.4176
2.234000	 65.683
2.252000	 65.7057
2.270000	 66.1158
2.288000	 65.6774
2.306000	 67.2427
2.324000	 65.6188
2.342000	 65.7049
2.360000	 65.7901
2.378000	 65.2263
2.396000	 65.0359
2.414000	 65.11
2.432000	 64.5578
2.450000	 64.9897
2.468000	 64.8178
2.486000	 64.7979
2.504000	 64.895
2.522000	 64.827
2.540000	 65.2151
2.558000	 65.0724
2.576000	 65.0567
2.594000	 65.3541
2.612000	 64.8814
2.630000	 65.3179
2.648000	 65.4267
2.666000	 65.1107
2.684000	 65.3937
2.702000	 64.9886
2.720000	 65.1913
2.738000	 65.1656
2.756000	 65.0049
2.774000	 64.8717
2.792000	 65.2437
2.810000	 65.1257
2.828000	 65.0878
2.846000	 64.9151
2.864000	 64.9958
2.882000	 65.1963
2.900000	 65.2691
2.918000	 65.1194
2.936000	 65.0213
2.954000	 65.2176
2.972000	 65.0326
2.990000	 65.1195
3.008000	 65.1781
3.026000	 65.0586
3.044000	 65.2721
3.062000	 65.0413
3.080000	 65.2413
3.098000	 65.1842
3.116000	 65.0693
3.134000	 65.1321
3.152000	 65.2407
3.170000	 65.1428
3.188000	 65.2157
3.206000	 64.7428
3.224000	 65.2616
3.242000	 65.2246
3.260000	 65.1356
3.278000	 65.3891
3.296000	 65.3371
3.314000	 65.3042
3.332000	 65.1118
3.350000	 65.1173
3.368000	 65.0493
3.386000	 65.1528
3.404000	 65.0923
3.422000	 64.8917
3.440000	 65.0927
3.458000	 65.0566
3.476000	 65.0964
3.494000	 65.127
3.512000	 65.0153
3.530000	 65.0678
3.548000	 65.0842
3.566000	 65.1369
3.584000	 65.0946
3.602000	 65.0843
3.620000	 65.2457
3.638000	 65.0427
3.656000	 65.1024
3.674000	 65.1737
3.692000	 65.1422
3.710000	 65.0484
3.728000	 65.1648
3.746000	 65.1405
3.764000	 65.3292
3.782000	 65.1608
3.800000	 65.1456
3.818000	 65.2299
3.836000	 65.3497
3.854000	 65.292
3.872000	 65.2339
3.890000	 65.2823
3.908000	 65.2563
3.926000	 65.2613
3.944000	 65.2083
3.962000	 65.129
3.980000	 65.479
3.998000	 65.2284
4.016000	 65.0885
4.034000	 65.3242
4.052000	 65.2221
4.070000	 65.3489
4.088000	 65.2731
4.106000	 65.2504
4.124000	 65.56
4.141999	 65.6425
4.160000	 65.3852
4.178000	 65.3574
4.196000	 65.3572
4.214000	 65.2345
4.232000	 65.2292
4.250000	 65.2821
4.268000	 65.2805
4.286000	 65.2334
4.304000	 65.2593
4.322000	 65.1792
4.340000	 65.331
4.358000	 65.2483
4.375999	 65.0877
4.394000	 65.1864
4.412000	 65.3823
4.430000	 65.3084
4.448000	 65.3711
4.466000	 65.2806
4.484000	 65.2218
4.502000	 65.2236
4.520000	 65.2776
4.538000	 65.1118
4.556000	 65.12
4.574000	 65.2714
4.592000	 65.3674
4.609999	 65.1864
4.628000	 65.257
4.646000	 65.2689
4.664000	 65.427
4.682000	 65.2024
4.700000	 65.2499
4.718000	 65.2469
4.736000	 65.2631
4.754000	 65.2742
4.772000	 65.2931
4.790000	 65.3865
4.808000	 65.5564
4.826000	 65.4265
4.843999	 64.9708
4.862000	 65.1927
4.880000	 65.2683
4.898000	 65.202
4.916000	 65.2481
4.934000	 65.2722
4.952000	 65.1049
4.970000	 65.0823
4.988000	 65.2291
5.006000	 65.2038
5.024000	 65.2801
5.042000	 65.2951
5.060000	 65.295
5.077999	 65.3043
5.096000	 65.161
5.114000	 65.2237
5.132000	 65.2873
5.150000	 65.2379
5.168000	 65.2575
5.186000	 65.3066
5.204000	 65.2282
5.222000	 65.1737
5.240000	 65.1927
5.258000	 65.3418
5.276000	 65.3771
5.294000	 65.292
5.312000	 65.2437
5.330000	 65.3471
5.348000	 65.1831
5.366000	 65.1532
5.384000	 65.2184
5.402000	 65.2594
5.420000	 65.297
5.438000	 65.2673
5.456000	 65.3238
5.474000	 65.2882
5.492000	 65.2297
5.510000	 65.2894
5.528000	 65.3215
5.546000	 65.2896
5.564000	 65.2456
5.582000	 65.2449
5.600000	 65.1368
5.618000	 65.1817
5.636000	 65.2353
5.654000	 65.2052
5.672000	 65.1367
5.690000	 65.2218
5.708000	 65.1929
5.726000	 65.0969
5.744000	 64.9979
5.762000	 64.9081
5.780000	 64.919
5.798000	 65.0331
5.816000	 65.0463
5.834000	 65.0193
5.852000	 65.0649
5.870000	 65.1651
5.888000	 65.2072
5.906000	 65.1928
5.923999	 65.149
5.942000	 65.1978
5.960000	 65.2992
5.978000	 65.3377
5.996000	 65.3994
6.014000	 65.3823
6.032000	 65.2166
6.050000	 65.1116
6.068000	 65.1955
6.086000	 65.3367
6.104000	 65.2917
6.122000	 65.1354
6.140000	 65.0991
6.158000	 65.1064
6.176000	 65.0826
6.194000	 65.0378
6.212000	 65.0643
6.230000	 65.1552
6.248000	 65.1358
6.266000	 65.0223
6.284000	 64.9772
6.302000	 65.0219
6.320000	 65.0979
6.338000	 65.2033
6.356000	 65.2061
6.374000	 65.1256
6.392000	 65.0014
6.410000	 64.8931
6.428000	 65.0099
6.446000	 65.1471
6.464000	 65.142
6.482000	 65.0691
6.500000	 64.9675
6.518000	 64.9335
6.536000	 65.009
6.554000	 65.0681
6.572000	 65.0812
6.590000	 65.0835
6.608000	 65.0475
6.626000	 65.0419
6.644000	 65.0971
6.662000	 65.1708
6.680000	 65.2446
6.698000	 65.2628
6.716000	 65.2015
6.734000	 65.0793
6.752000	 64.9923
6.770000	 64.9762
6.788000	 64.9706
6.806000	 65.0436
6.824000	 65.1714
6.842000	 65.1997
6.860000	 65.0848
6.878000	 64.9534
6.896000	 64.8547
6.914000	 64.6981
6.932000	 64.634
6.950000	 64.7363
6.968000	 64.7863
6.986000	 64.7597
7.004000	 64.8122
7.022000	 64.9002
7.040000	 64.9366
7.058000	 65.0057
7.076000	 65.1113
7.094000	 65.1673
7.112000	 65.2138
7.130000	 65.2321
7.148000	 65.1439
7.166000	 65.0416
7.184000	 65.0198
7.202000	 65.0518
7.220000	 65.1158
7.238000	 65.1849
7.256000	 65.2105
7.274000	 65.1804
7.292000	 65.1218
7.310000	 65.0782
7.328000	 65.0531
7.346000	 64.9993
7.364000	 64.926
7.382000	 64.9003
7.400000	 64.9211
7.418000	 64.9224
7.436000	 64.8684
7.454000	 64.801
7.472000	 64.8015
7.490000	 64.8836
7.508000	 64.9853
7.526000	 65.0605
7.544000	 65.0749
7.562000	 65.0029
7.580000	 64.9333
7.598000	 64.996
7.616000	 65.1413
7.634000	 65.2114
7.652000	 65.1789
7.670000	 65.1146
7.688000	 65.0533
7.706000	 65.0139
7.724000	 65.0083
7.742000	 65.0137
7.760000	 65.0253
7.778000	 65.0534
7.796000	 65.0559
7.814000	 64.9981
7.832000	 64.9165
7.850000	 64.8522
7.868000	 64.8183
7.886000	 64.8327
7.904000	 64.8977
7.922000	 64.9625
7.940000	 64.9857
7.958000	 64.9977
7.976000	 65.043
7.994000	 65.1047
8.012000	 65.1363
8.030000	 65.127
8.048000	 65.0847
8.065999	 65.0066
8.084000	 64.9044
8.102000	 64.8226
8.120000	 64.8073
8.138000	 64.8529
8.155999	 64.8936
8.173999	 64.8702
8.192000	 64.8124
8.210000	 64.8024
8.228000	 64.8534
8.246000	 64.8959
8.263999	 64.8874
8.282000	 64.8496
8.300000	 64.8094
8.318000	 64.7683
8.336000	 64.7335
8.353999	 64.7378
8.372000	 64.8144
8.390000	 64.9578
8.408000	 65.0996
8.426000	 65.1515
8.443999	 65.0961
8.462000	 65.0021
8.480000	 64.9337
8.498000	 64.8908
8.516000	 64.8484
8.533999	 64.8127
8.552000	 64.8053
8.570000	 64.827
8.588000	 64.8644
8.606000	 64.9014
8.624000	 64.9116
8.641999	 64.8669
8.660000	 64.7801
8.678000	 64.7201
8.696000	 64.7579
8.714000	 64.8765
8.731999	 64.9638
8.750000	 64.9103
8.768000	 64.7205
8.786000	 64.514
8.804000	 64.4185
8.821999	 64.4627
8.840000	 64.5645
8.858000	 64.6143
8.876000	 64.5629
8.894000	 64.4478
8.911999	 64.3496
8.930000	 64.325
8.948000	 64.3763
8.966000	 64.464
8.984000	 64.5486
9.001999	 64.6244
9.020000	 64.7235
9.038000	 64.8798
9.056000	 65.0712
9.074000	 65.2025
9.092000	 65.1671
9.109999	 64.9568
9.128000	 64.7036
9.146000	 64.5875
9.164000	 64.6872
9.182000	 64.9203
9.199999	 65.1282
9.218000	 65.2072
9.236000	 65.1616
9.254000	 65.061
9.272000	 64.9677
9.289999	 64.9095
9.308000	 64.8918
9.326000	 64.9118
9.344000	 64.9597
9.362000	 65.0181
9.379999	 65.0717
9.398000	 65.1105
9.416000	 65.1201
9.434000	 65.0812
9.452000	 64.9846
9.469999	 64.8513
9.488000	 64.7275
9.506000	 64.6508
9.524000	 64.6234
9.542000	 64.6173
9.560000	 64.6066
9.577999	 64.5894
9.596000	 64.5805
9.614000	 64.5878
9.632000	 64.5996
9.650000	 64.5935
9.667999	 64.5547
9.686000	 64.4906
9.704000	 64.4285
9.722000	 64.398
9.740000	 64.4135
9.757999	 64.4654
9.776000	 64.5279
9.794000	 64.5729
9.812000	 64.5885
9.830000	 64.589
9.847999	 64.6044
9.866000	 64.6547
9.884000	 64.7292
9.902000	 64.7894
9.920000	 64.7965
9.937999	 64.7445
9.956000	 64.6659
9.974000	 64.6035
9.992000	 64.5749
10.01	64.5645
10.028	64.5441
10.046	64.5054
10.064	64.466
10.082	64.4494
10.1	64.4637
10.118	64.4939
10.136	64.5177
10.154	64.5246
10.172	64.52
10.19	64.5149
10.208	64.5132
10.226	64.5098
10.244	64.4973
10.262	64.4739
10.28	64.4452
10.298	64.4216
10.316	64.414
10.334	64.426
10.352	64.4521
10.37	64.4802
10.388	64.5005
10.406	64.5117
10.424	64.5202
10.442	64.5349
10.46	64.5599
10.478	64.5906
10.496	64.6156
10.514	64.6226
10.532	64.6039
10.55	64.5594
10.568	64.4957
10.586	64.4251
10.604	64.3615
10.622	64.3184
10.64	64.3042
10.658	64.3201
10.676	64.3604
10.694	64.4154
10.712	64.4723
10.73	64.5193
10.748	64.5462
10.766	64.5484
10.784	64.5281
10.802	64.494
10.82	64.4565
10.838	64.425
10.856	64.4034
10.874	64.3903
10.892	64.3819
10.91	64.3751
10.928	64.3697
10.946	64.3668
10.964	64.3663
10.982	64.3643
11	64.3539
11.018	64.3275
11.036	64.2811
11.054	64.2168
11.072	64.1428
11.09	64.0715
11.108	64.0139
11.126	63.9774
11.144	63.9631
11.162	63.967
11.18	63.9823
11.198	64.0031
11.216	64.0266
11.234	64.0529
11.252	64.0833
11.27	64.1179
11.288	64.1533
11.306	64.1834
11.324	64.2017
11.342	64.2046
11.36	64.1939
11.378	64.1767
11.396	64.1617
11.414	64.1551
11.432	64.157
11.45	64.1625
11.468	64.1642
11.486	64.1579
11.504	64.1456
11.522	64.1355
11.54	64.1359
11.558	64.1515
11.576	64.1796
11.594	64.2118
11.612	64.237
11.63	64.2477
11.648	64.2442
11.666	64.2333
11.684	64.2251
11.702	64.2266
11.72	64.2381
11.738	64.2526
11.756	64.26
11.774	64.2523
11.792	64.2289
11.81	64.1978
11.828	64.1722
11.846	64.1652
11.864	64.1826
11.882	64.2203
11.9	64.2646
11.918	64.2972
11.936	64.3027
11.954	64.2733
11.972	64.2114
11.99	64.1286
12.008	64.0403
12.026	63.9617
12.044	63.9034
12.062	63.8688
12.08	63.8554
12.098	63.8573
12.116	63.8677
12.134	63.8817
12.152	63.8962
12.17	63.9107
12.188	63.9259
12.206	63.9421
12.224	63.9595
12.242	63.9777
12.26	63.9964
12.278	64.0147
12.296	64.0309
12.314	64.0428
12.332	64.0478
12.35	64.0436
12.368	64.0293
12.386	64.0061
12.404	63.9784
12.422	63.9531
12.44	63.938
12.458	63.9397
12.476	63.961
12.494	63.9996
12.512	64.047
12.53	64.0898
12.548	64.1125
12.566	64.1027
12.584	64.0542
12.602	63.9697
12.62	63.8613
12.638	63.7475
12.656	63.6486
12.674	63.5815
12.692	63.555
12.71	63.57
12.728	63.619
12.746	63.689
12.764	63.7648
12.782	63.8331
12.8	63.8847
12.818	63.9166
12.836	63.9302
12.854	63.9309
12.872	63.9248
12.89	63.9177
12.908	63.9135
12.926	63.9133
12.944	63.9161
12.962	63.9201
12.98	63.9232
12.998	63.9239
13.016	63.9224
13.034	63.9191
13.052	63.9144
13.07	63.9069
13.088	63.8925
13.106	63.865
13.124	63.8177
13.142	63.7459
13.16	63.6493
13.178	63.5348
13.196	63.4157
13.214	63.3098
13.232	63.2352
13.25	63.2054
13.268	63.2258
13.286	63.2913
13.304	63.3875
13.322	63.4929
13.34	63.5844
13.358	63.6426
13.376	63.656
13.394	63.623
13.412	63.5518
13.43	63.4566
13.448	63.3538
13.466	63.258
13.484	63.1794
13.502	63.1218
13.52	63.0839
13.538	63.0609
13.556	63.0466
13.574	63.0358
13.592	63.0247
13.61	63.0121
13.628	62.9987
13.646	62.986
13.664	62.9761
13.682	62.9694
13.7	62.9661
13.718	62.9648
13.736	62.9639
13.754	62.962
13.772	62.9583
13.79	62.9529
13.808	62.9473
13.826	62.9432
13.844	62.9432
13.862	62.9498
13.88	62.9649
13.898	62.9892
13.916	63.0223
13.934	63.0623
13.952	63.1065
13.97	63.1512
13.988	63.1925
14.006	63.227
14.024	63.2523
14.042	63.2679
14.06	63.2742
14.078	63.2732
14.096	63.2665
14.114	63.256
14.132	63.243
14.15	63.2276
14.168	63.2088
14.186	63.185
14.204	63.1548
14.222	63.1173
14.24	63.0731
14.258	63.0246
14.276	62.975
14.294	62.9286
14.312	62.8889
14.33	62.8591
14.348	62.84
14.366	62.8308
14.384	62.8284
14.402	62.8282
14.42	62.8259
14.438	62.8178
14.456	62.8016
14.474	62.7766
14.492	62.7434
14.51	62.7047
14.528	62.6636
14.546	62.623
14.564	62.5853
14.582	62.5518
14.6	62.5229
14.618	62.4985
14.636	62.4781
14.654	62.462
14.672	62.4507
14.69	62.4455
14.708	62.4475
14.726	62.4581
14.744	62.4776
14.762	62.5044
14.78	62.5355
14.798	62.5664
14.816	62.5918
14.834	62.6058
14.852	62.6028
14.87	62.5802
14.888	62.5371
14.906	62.4753
14.924	62.3993
14.942	62.3165
14.96	62.236
14.978	62.1663
14.996	62.1151
15.014	62.089
15.032	62.0924
15.05	62.1256
15.068	62.186
15.086	62.2691
15.104	62.3684
15.122	62.4755
15.14	62.5822
15.158	62.6816
15.176	62.7678
15.194	62.8361
15.212	62.884
15.23	62.9111
15.248	62.918
15.266	62.9061
15.284	62.8783
15.302	62.8374
15.32	62.786
15.338	62.7264
15.356	62.6606
15.374	62.5913
15.392	62.5202
15.41	62.4489
15.428	62.3796
15.446	62.3145
15.464	62.2553
15.482	62.2036
15.5	62.1608
15.518	62.1273
15.536	62.1028
15.554	62.0861
15.572	62.0752
15.59	62.0674
15.608	62.0604
15.626	62.0522
15.644	62.0414
15.662	62.0271
15.68	62.0099
15.698	61.9912
15.716	61.9735
15.734	61.9599
15.752	61.9532
15.77	61.9558
15.788	61.9701
15.806	61.9968
15.824	62.0355
15.842	62.085
15.86	62.1419
15.878	62.2031
15.896	62.2656
15.914	62.3252
15.932	62.3791
15.95	62.4252
15.968	62.4619
15.986	62.4888
16.004	62.5068
16.022	62.5167
16.04	62.5209
16.058	62.5212
16.076	62.5194
16.094	62.5179
16.112	62.5174
16.13	62.5186
16.148	62.5222
16.166	62.527
16.184	62.5319
16.202	62.5354
16.22	62.5344
16.238	62.5269
16.256	62.5112
16.274	62.4845
16.292	62.4459
16.31	62.3946
16.328	62.3304
16.346	62.2548
16.364	62.1689
16.382	62.0758
16.4	61.9785
16.418	61.8795
16.436	61.7831
16.454	61.692
16.472	61.6084
16.49	61.5347
16.508	61.4716
16.526	61.4195
16.544	61.3782
16.562	61.3462
16.58	61.3227
16.598	61.3055
16.616	61.2932
16.634	61.2847
16.652	61.2785
16.67	61.2739
16.688	61.2706
16.706	61.2682
16.724	61.2666
16.742	61.2662
16.76	61.2664
16.778	61.267
16.796	61.2676
16.814	61.2675
16.832	61.2662
16.85	61.2627
16.868	61.2567
16.886	61.2478
16.904	61.2358
16.922	61.2212
16.94	61.2045
16.958	61.1867
16.976	61.1685
16.994	61.1513
17.012	61.1362
17.03	61.1237
17.048	61.1147
17.066	61.1093
17.084	61.1075
17.102	61.1084
17.12	61.1116
17.138	61.1158
17.156	61.1201
17.174	61.1236
17.192	61.1255
17.21	61.1257
17.228	61.1239
17.246	61.1207
17.264	61.1163
17.282	61.1121
17.3	61.1085
17.318	61.1069
17.336	61.1082
17.354	61.113
17.372	61.1218
17.39	61.1345
17.408	61.1509
17.426	61.1701
17.444	61.1916
17.462	61.2139
17.48	61.2365
17.498	61.258
17.516	61.278
17.534	61.2958
17.552	61.3114
17.57	61.3248
17.588	61.3363
17.606	61.3461
17.624	61.3548
17.642	61.3628
17.66	61.3704
17.678	61.3776
17.696	61.3844
17.714	61.3904
17.732	61.3951
17.75	61.3979
17.768	61.3976
17.786	61.3937
17.804	61.3851
17.822	61.3715
17.84	61.352
17.858	61.3265
17.876	61.2948
17.894	61.2574
17.912	61.2143
17.93	61.1671
17.948	61.1159
17.966	61.0631
17.984	61.0094
18.002	60.9568
18.02	60.907
18.038	60.8615
18.056	60.8222
18.074	60.7898
18.092	60.7664
18.11	60.7521
18.128	60.7479
18.146	60.7535
18.164	60.7687
18.182	60.7922
18.2	60.8231
18.218	60.8588
18.236	60.8982
18.254	60.9377
18.272	60.9766
18.29	61.0106
18.308	61.0392
18.326	61.0591
18.344	61.0702
18.362	61.0706
18.38	61.0608
18.398	61.0408
18.416	61.012
18.434	60.9756
18.452	60.9344
18.47	60.8898
18.488	60.8452
18.506	60.8019
18.524	60.7631
18.542	60.7296
18.56	60.7036
18.578	60.6853
18.596	60.675
18.614	60.6729
18.632	60.6775
18.65	60.6887
18.668	60.7041
18.686	60.7234
18.704	60.7439
18.722	60.7653
18.74	60.7853
18.758	60.8038
18.776	60.8195
18.794	60.8326
18.812	60.8427
18.83	60.85
18.848	60.855
18.866	60.8579
18.884	60.8596
18.902	60.8601
18.92	60.8601
18.938	60.8593
18.956	60.858
18.974	60.8555
18.992	60.8514
19.01	60.8448
19.028	60.8346
19.046	60.8202
19.064	60.8003
19.082	60.7743
19.1	60.7411
19.118	60.701
19.136	60.6535
19.154	60.5993
19.172	60.5392
19.19	60.4742
19.208	60.4069
19.226	60.3379
19.244	60.2711
19.262	60.2067
19.28	60.1493
19.298	60.0989
19.316	60.0597
19.334	60.0316
19.352	60.0173
19.37	60.0168
19.388	60.0306
19.406	60.0588
19.424	60.0991
19.442	60.152
19.46	60.2131
19.478	60.2827
19.496	60.3555
19.514	60.4307
19.532	60.5039
19.55	60.5727
19.568	60.6347
19.586	60.6865
19.604	60.7275
19.622	60.7545
19.64	60.7681
19.658	60.7669
19.676	60.7513
19.694	60.7227
19.712	60.6808
19.73	60.6293
19.748	60.5678
19.766	60.5004
19.784	60.4276
19.802	60.3526
19.82	60.2771
19.838	60.2024
19.856	60.1313
19.874	60.0636
19.892	60.0014
19.91	59.9445
19.928	59.8938
19.946	59.8492
19.964	59.8101
19.982	59.7767
20	59.7476
20.018	59.7225
20.036	59.7006
20.054	59.6804
20.072	59.6619
20.09	59.6434
20.108	59.6252
20.126	59.6055
20.144	59.5843
20.162	59.5607
20.18	59.5344
20.198	59.5054
20.216	59.473
20.234	59.4375
20.252	59.3992
20.27	59.3579
20.288	59.314
20.306	59.2675
20.324	59.2189
20.342	59.1685
20.36	59.1164
20.378	59.0635
20.396	59.0095
20.414	58.9556
20.432	58.9016
20.45	58.8483
20.468	58.7962
20.486	58.7455
20.504	58.6971
20.522	58.651
20.54	58.6079
20.558	58.5677
20.576	58.5312
20.594	58.4984
20.612	58.4696
20.63	58.4455
20.648	58.4259
20.666	58.4112
20.684	58.4016
20.702	58.3969
20.72	58.3971
20.738	58.402
20.756	58.4111
20.774	58.4245
20.792	58.441
20.81	58.4604
20.828	58.482
20.846	58.5047
20.864	58.5286
20.882	58.5521
20.9	58.5752
20.918	58.5971
20.936	58.6169
20.954	58.6349
20.972	58.6499
20.99	58.6622
21.008	58.6713
21.026	58.6769
21.044	58.6789
21.062	58.6767
21.08	58.6704
21.098	58.6599
21.116	58.6452
21.134	58.6263
21.152	58.6035
21.17	58.5766
21.188	58.546
21.206	58.5117
21.224	58.4737
21.242	58.4321
21.26	58.3869
21.278	58.338
21.296	58.2854
21.314	58.2292
21.332	58.169
21.35	58.105
21.368	58.0366
21.386	57.9635
21.404	57.8857
21.422	57.8027
21.44	57.7147
21.458	57.6216
21.476	57.5227
21.494	57.4187
21.512	57.3108
21.53	57.1982
21.548	57.0833
21.566	56.9671
21.584	56.8495
21.602	56.7357
21.62	56.6244
21.638	56.519
21.656	56.4242
21.674	56.338
21.692	56.2665
21.71	56.2107
21.728	56.171
21.746	56.1524
21.764	56.1542
21.782	56.1771
21.8	56.2229
21.818	56.2908
21.836	56.3784
21.854	56.487
21.872	56.6134
21.89	56.7523
21.908	56.9065
21.926	57.0677
21.944	57.2312
21.962	57.3988
21.98	57.5597
21.998	57.7143
22.016	57.8599
22.034	57.9876
22.052	58.1
22.07	58.1937
22.088	58.2652
22.106	58.3161
22.124	58.3466
22.142	58.3549
22.16	58.3437
22.178	58.3189
22.196	58.2772
22.214	58.2255
22.232	58.1718
22.25	58.1118
22.268	58.0556
22.286	58.0088
22.304	57.9683
22.322	57.9435
22.34	57.9361
22.358	57.9452
22.376	57.9753
22.394	58.027
22.412	58.0983
22.43	58.1885
22.448	58.2994
22.466	58.4247
22.484	58.5606
22.502	58.7099
22.52	58.8621
22.538	59.0138
22.556	59.1668
22.574	59.31
22.592	59.4426
22.61	59.5644
22.628	59.6671
22.646	59.7515
22.664	59.8169
22.682	59.8598
22.7	59.8801
22.718	59.8795
22.736	59.8586
22.754	59.8159
22.772	59.7564
22.79	59.6837
22.808	59.595
22.826	59.4977
22.844	59.396
22.862	59.2868
22.88	59.1778
22.898	59.0723
22.916	58.9679
22.934	58.8698
22.952	58.7801
22.97	58.6972
22.988	58.6226
23.006	58.5576
23.024	58.5009
23.042	58.4504
23.06	58.4069
23.078	58.3692
23.096	58.3328
23.114	58.2982
23.132	58.2647
23.15	58.2275
23.168	58.1872
23.186	58.1433
23.204	58.092
23.222	58.0328
23.24	57.9667
23.258	57.8943
23.276	57.8137
23.294	57.7273
23.312	57.6402
23.33	57.5498
23.348	57.459
23.366	57.3766
23.384	57.3009
23.402	57.2333
23.42	57.1825
23.438	57.1475
23.456	57.129
23.474	57.1349
23.492	57.1661
23.51	57.2214
23.528	57.3064
23.546	57.4237
23.564	57.5708
23.582	57.7478
23.6	57.9565
23.618	58.1961
23.636	58.4592
23.654	58.7433
23.672	59.0515
23.69	59.3742
23.708	59.7052
23.726	60.0501
23.744	60.3997
23.762	60.7459
23.78	61.0945
23.798	61.4386
23.816	61.7698
23.834	62.0921
23.852	62.4024
23.87	62.6945
23.888	62.9696
23.906	63.2277
23.924	63.4666
23.942	63.6852
23.96	63.8849
23.978	64.0673
23.996	64.2321
24.014	64.379
24.032	64.5121
24.05	64.6335
24.068	64.7409
24.086	64.8385
24.104	64.9306
24.122	65.0139
24.14	65.0921
24.158	65.1707
24.176	65.2481
24.194	65.3249
24.212	65.4047
24.23	65.4879
24.248	65.5735
24.266	65.6645
24.284	65.763
24.302	65.8678
24.32	65.9784
24.338	66.0946
24.356	66.2188
24.374	66.3468
24.392	66.473
24.41	66.6006
24.428	66.7275
24.446	66.845
24.464	66.9497
24.482	67.0458
24.5	67.1273
24.518	67.1894
24.536	67.236
24.554	67.2637
24.572	67.2674
24.59	67.2477
24.608	67.2054
24.626	67.1382
24.644	67.0449
24.662	66.9268
24.68	66.7834
24.698	66.6139
24.716	66.4165
24.734	66.1949
24.752	65.9541
24.77	65.6945
24.788	65.4148
24.806	65.118
24.824	64.8059
24.842	64.4766
24.86	64.1325
24.878	63.7765
24.896	63.4107
24.914	63.0323
24.932	62.6379
24.95	62.2265
24.968	61.8016
24.986	61.356
25.004	60.8828
25.022	60.3888
25.04	59.869
25.058	59.3108
25.076	58.7101
25.094	58.0748
25.112	57.3928
25.13	56.6522
25.148	55.8585
25.166	55.0106
25.184	54.1007
25.202	53.1238
25.22	52.0839
25.238	50.9823
25.256	49.8194
25.274	48.588
25.292	47.2961
25.31	45.959
25.328	44.5817
25.346	43.15
25.364	41.6889
25.382	40.2261
25.4	38.7478
25.418	37.2563
25.436	35.7881
25.454	34.369
25.472	32.9695
25.49	31.615
25.508	30.3426
25.526	29.1591
25.544	28.0465
25.562	27.0284
25.58	26.1273
25.598	25.3352
25.616	24.6495
25.634	24.0777
25.652	23.6277
25.67	23.2995
25.688	23.0797
25.706	22.9539
25.724	22.9281
25.742	23.005
25.76	23.1583
25.778	23.3642
25.796	23.6412
25.814	23.9798
25.832	24.3533
25.85	24.7436
25.868	25.1684
25.886	25.6176
25.904	26.0766
25.922	26.539
25.94	27.0123
25.958	27.4962
25.976	27.9896
25.994	28.4837
26.012	28.9852
26.03	29.5112
26.048	30.0749
26.066	30.6554
26.084	31.2695
26.102	31.9463
26.12	32.7025
26.138	33.5118
26.156	34.3972
26.174	35.3882
26.192	36.4949
26.21	37.6977
26.228	39.0124
26.246	40.4561
26.264	42.0353
26.282	43.74
26.3	45.5643
26.318	47.5024
26.336	49.5716
26.354	51.7608
26.372	54.0373
26.39	56.3725
26.408	58.8044
26.426	61.3096
26.444	63.8334
26.462	66.3328
26.48	68.8639
26.498	71.3901
26.516	73.8459
26.534	76.1861
26.552	78.4714
26.57	80.6622
26.588	82.6979
26.606	84.54
26.624	86.2373
26.642	87.7643
26.66	89.084
26.678	90.1736
26.696	91.0586
26.714	91.7336
26.732	92.1893
26.75	92.4137
26.768	92.4055
26.786	92.1889
26.804	91.7894
26.822	91.2123
26.84	90.4303
26.858	89.4823
26.876	88.4116
26.894	87.2333
26.912	85.9072
26.93	84.4753
26.948	82.9855
26.966	81.3861
26.984	79.526
27.002	77.7147
27.02	76.2917
27.028	75.9145