File: Bakgrunnsmateriale/MATLAB/FTIR/ftir_data/subBb/Mapping_121/C-4040-8_t17.asc
PE IR       SPECTRUM    SPECTRUM    ASCII       PEDS        1.60
  -1
C-B926~1.ASC
17/03/27
15:50:00.00
17/03/27
15:50:26.00
tln
$C-4040-8_t0017$<tbV0>[0.0,-10.4,8.0,0.0,27,1,0]
27.028
64

2002,4.07
MIRTGS : RIGHTBACK : INTERNAL 2
MIR : ON : INTERNAL 2
OPTKBR

0.200000
8
8.000000
FILLER
RATIO
SPECTRUM
UNLOCKED 256

DOUBLE
64
COMBINED
1
0
0

0.002000
RATIO

1
0
TRUE
51149
0
LEFT NOT FITTED RIGHT NOT FITTED 0
NONE
NONE
15600
12
4.427000
51148
TRUE
1 0 8 72 0 0 0 0

15798

#HDR
-1
-1
#GR
µM
%T
2.38419e-05
0.0
2.000000
0.002000
12515
8
70.1211
35.0164
#DATA
2.000000	 63.8445
2.018000	 62.617
2.036000	 64.4612
2.054000	 63.7628
2.072000	 63.4792
2.090000	 63.764
2.108000	 64.1931
2.126000	 63.841
2.144000	 63.8816
2.162000	 63.884
2.180000	 63.6083
2.198000	 63.6348
2.216000	 63.8155
2.234000	 64.0145
2.252000	 66.9284
2.270000	 61.5755
2.288000	 62.8127
2.306000	 64.0913
2.324000	 63.6772
2.342000	 63.601
2.360000	 63.4969
2.378000	 63.4217
2.396000	 62.5938
2.414000	 63.1386
2.432000	 63.5996
2.450000	 63.6261
2.468000	 63.4842
2.486000	 63.5882
2.504000	 63.7208
2.522000	 63.3885
2.540000	 63.219
2.558000	 63.191
2.576000	 63.1816
2.594000	 63.7535
2.612000	 63.1701
2.630000	 63.5315
2.648000	 62.9729
2.666000	 63.6691
2.684000	 63.2745
2.702000	 63.1884
2.720000	 63.3946
2.738000	 63.2994
2.756000	 62.9843
2.774000	 62.6866
2.792000	 62.7637
2.810000	 62.7628
2.828000	 62.657
2.846000	 62.5215
2.864000	 62.4946
2.882000	 62.6074
2.900000	 62.4576
2.918000	 62.2904
2.936000	 62.401
2.954000	 62.4179
2.972000	 62.246
2.990000	 62.0863
3.008000	 61.9676
3.026000	 62.1141
3.044000	 61.9643
3.062000	 61.8105
3.080000	 61.9475
3.098000	 61.8013
3.116000	 61.9082
3.134000	 61.6378
3.152000	 61.3984
3.170000	 61.5531
3.188000	 61.3807
3.206000	 61.6195
3.224000	 61.3639
3.242000	 61.1798
3.260000	 61.2604
3.278000	 61.2852
3.296000	 61.0164
3.314000	 61.091
3.332000	 61.0581
3.350000	 60.8088
3.368000	 60.8569
3.386000	 60.7576
3.404000	 60.6871
3.422000	 60.3301
3.440000	 60.3685
3.458000	 60.6472
3.476000	 60.2981
3.494000	 60.4232
3.512000	 60.3224
3.530000	 60.3427
3.548000	 60.401
3.566000	 60.2664
3.584000	 60.1332
3.602000	 60.0184
3.620000	 59.9793
3.638000	 60.128
3.656000	 59.9271
3.674000	 59.834
3.692000	 59.767
3.710000	 59.9669
3.728000	 59.7813
3.746000	 59.6638
3.764000	 59.5609
3.782000	 59.5068
3.800000	 59.4587
3.818000	 59.3906
3.836000	 59.3037
3.854000	 59.2404
3.872000	 59.1524
3.890000	 59.0643
3.908000	 59.1128
3.926000	 59.1308
3.944000	 58.9513
3.962000	 59.1451
3.980000	 58.9052
3.998000	 58.6991
4.016000	 58.721
4.034000	 58.5791
4.052000	 58.5859
4.070000	 58.5854
4.088000	 58.4766
4.106000	 58.5504
4.124000	 58.3975
4.141999	 58.3301
4.160000	 58.1448
4.178000	 58.2008
4.196000	 58.1936
4.214000	 58.0925
4.232000	 58.0594
4.250000	 58.099
4.268000	 58.0729
4.286000	 57.9473
4.304000	 57.9372
4.322000	 57.8428
4.340000	 57.8061
4.358000	 57.5162
4.375999	 57.4943
4.394000	 57.602
4.412000	 57.5305
4.430000	 57.5222
4.448000	 57.4145
4.466000	 57.313
4.484000	 57.2445
4.502000	 57.1426
4.520000	 57.1319
4.538000	 57.0893
4.556000	 57.0037
4.574000	 56.8937
4.592000	 56.8642
4.609999	 56.9662
4.628000	 56.8153
4.646000	 56.8978
4.664000	 56.7551
4.682000	 56.7511
4.700000	 56.6255
4.718000	 56.6342
4.736000	 56.5607
4.754000	 56.485
4.772000	 56.452
4.790000	 56.4671
4.808000	 56.4909
4.826000	 56.2787
4.843999	 56.4144
4.862000	 56.2211
4.880000	 56.2889
4.898000	 56.2256
4.916000	 56.1403
4.934000	 56.1022
4.952000	 55.9739
4.970000	 55.9367
4.988000	 55.8149
5.006000	 55.8953
5.024000	 55.8113
5.042000	 55.7752
5.060000	 55.7478
5.077999	 55.6165
5.096000	 55.5795
5.114000	 55.536
5.132000	 55.5669
5.150000	 55.506
5.168000	 55.5392
5.186000	 55.4541
5.204000	 55.351
5.222000	 55.3834
5.240000	 55.3462
5.258000	 55.2218
5.276000	 55.2245
5.294000	 55.2617
5.312000	 55.1834
5.330000	 55.0281
5.348000	 54.9072
5.366000	 54.9951
5.384000	 54.9843
5.402000	 54.9409
5.420000	 54.9139
5.438000	 54.7577
5.456000	 54.7083
5.474000	 54.8154
5.492000	 54.8064
5.510000	 54.7274
5.528000	 54.6189
5.546000	 54.6269
5.564000	 54.6178
5.582000	 54.5425
5.600000	 54.5571
5.618000	 54.4842
5.636000	 54.5003
5.654000	 54.4794
5.672000	 54.359
5.690000	 54.3893
5.708000	 54.4212
5.726000	 54.1764
5.744000	 54.0703
5.762000	 54.1765
5.780000	 54.2219
5.798000	 54.1864
5.816000	 54.2162
5.834000	 54.0612
5.852000	 53.9638
5.870000	 54.1287
5.888000	 54.2362
5.906000	 54.035
5.923999	 54.0149
5.942000	 54.057
5.960000	 53.8551
5.978000	 53.8301
5.996000	 53.7504
6.014000	 53.5349
6.032000	 53.6924
6.050000	 54.0496
6.068000	 53.963
6.086000	 53.6398
6.104000	 53.4929
6.122000	 53.4454
6.140000	 53.3339
6.158000	 53.3802
6.176000	 53.5184
6.194000	 53.4679
6.212000	 53.2718
6.230000	 53.1374
6.248000	 53.082
6.266000	 53.0459
6.284000	 53.012
6.302000	 53.0345
6.320000	 53.0033
6.338000	 52.9707
6.356000	 53.0245
6.374000	 53.0091
6.392000	 53.0406
6.410000	 53.2092
6.428000	 53.1547
6.446000	 52.9766
6.464000	 53.0019
6.482000	 53.1799
6.500000	 53.1158
6.518000	 52.8371
6.536000	 52.764
6.554000	 52.9139
6.572000	 53.0248
6.590000	 52.9568
6.608000	 52.8989
6.626000	 52.9449
6.644000	 52.8638
6.662000	 52.6761
6.680000	 52.5578
6.698000	 52.4641
6.716000	 52.4058
6.734000	 52.3126
6.752000	 52.2094
6.770000	 52.2541
6.788000	 52.3577
6.806000	 52.3318
6.824000	 52.2549
6.842000	 52.3197
6.860000	 52.3823
6.878000	 52.2054
6.896000	 52.0089
6.914000	 52.0221
6.932000	 52.0998
6.950000	 52.1319
6.968000	 52.1012
6.986000	 51.992
7.004000	 51.8824
7.022000	 51.8901
7.040000	 51.9646
7.058000	 51.9507
7.076000	 51.8398
7.094000	 51.7122
7.112000	 51.5966
7.130000	 51.5316
7.148000	 51.522
7.166000	 51.5227
7.184000	 51.5582
7.202000	 51.621
7.220000	 51.6173
7.238000	 51.5674
7.256000	 51.5521
7.274000	 51.5356
7.292000	 51.4709
7.310000	 51.3841
7.328000	 51.325
7.346000	 51.3228
7.364000	 51.3488
7.382000	 51.3478
7.400000	 51.2882
7.418000	 51.1806
7.436000	 51.1007
7.454000	 51.114
7.472000	 51.1658
7.490000	 51.1709
7.508000	 51.1401
7.526000	 51.1179
7.544000	 51.1117
7.562000	 51.1195
7.580000	 51.1164
7.598000	 51.0603
7.616000	 50.9691
7.634000	 50.8986
7.652000	 50.865
7.670000	 50.8412
7.688000	 50.7958
7.706000	 50.726
7.724000	 50.6669
7.742000	 50.6602
7.760000	 50.7008
7.778000	 50.7386
7.796000	 50.7384
7.814000	 50.7009
7.832000	 50.6441
7.850000	 50.602
7.868000	 50.6102
7.886000	 50.6511
7.904000	 50.6426
7.922000	 50.546
7.940000	 50.4362
7.958000	 50.3973
7.976000	 50.4239
7.994000	 50.4612
8.012000	 50.4674
8.030000	 50.4218
8.048000	 50.3413
8.065999	 50.2945
8.084000	 50.334
8.102000	 50.4201
8.120000	 50.4604
8.138000	 50.4203
8.155999	 50.3491
8.173999	 50.3048
8.192000	 50.2919
8.210000	 50.279
8.228000	 50.2433
8.246000	 50.1898
8.263999	 50.1433
8.282000	 50.1339
8.300000	 50.169
8.318000	 50.216
8.336000	 50.2228
8.353999	 50.1703
8.372000	 50.0926
8.390000	 50.0348
8.408000	 50.0014
8.426000	 49.9621
8.443999	 49.9033
8.462000	 49.8516
8.480000	 49.8406
8.498000	 49.8725
8.516000	 49.9217
8.533999	 49.9618
8.552000	 49.9832
8.570000	 49.988
8.588000	 49.981
8.606000	 49.959
8.624000	 49.9079
8.641999	 49.8185
8.660000	 49.7112
8.678000	 49.6319
8.696000	 49.611
8.714000	 49.6289
8.731999	 49.6349
8.750000	 49.5975
8.768000	 49.526
8.786000	 49.4499
8.804000	 49.3929
8.821999	 49.3677
8.840000	 49.3772
8.858000	 49.4098
8.876000	 49.4441
8.894000	 49.4678
8.911999	 49.4841
8.930000	 49.4907
8.948000	 49.4705
8.966000	 49.4104
8.984000	 49.3293
9.001999	 49.2665
9.020000	 49.2443
9.038000	 49.2484
9.056000	 49.2453
9.074000	 49.2071
9.092000	 49.1255
9.109999	 49.0221
9.128000	 48.9494
9.146000	 48.9613
9.164000	 49.0638
9.182000	 49.1977
9.199999	 49.2826
9.218000	 49.2831
9.236000	 49.2241
9.254000	 49.1483
9.272000	 49.0757
9.289999	 49.0071
9.308000	 48.951
9.326000	 48.9278
9.344000	 48.9472
9.362000	 48.9911
9.379999	 49.0267
9.398000	 49.0348
9.416000	 49.0199
9.434000	 48.9951
9.452000	 48.9641
9.469999	 48.9197
9.488000	 48.8578
9.506000	 48.7862
9.524000	 48.7219
9.542000	 48.6766
9.560000	 48.6504
9.577999	 48.638
9.596000	 48.6354
9.614000	 48.6388
9.632000	 48.6404
9.650000	 48.6346
9.667999	 48.6255
9.686000	 48.6256
9.704000	 48.6429
9.722000	 48.6718
9.740000	 48.6972
9.757999	 48.7048
9.776000	 48.689
9.794000	 48.6518
9.812000	 48.6003
9.830000	 48.5479
9.847999	 48.5144
9.866000	 48.5127
9.884000	 48.5321
9.902000	 48.5398
9.920000	 48.5027
9.937999	 48.4142
9.956000	 48.3027
9.974000	 48.2119
9.992000	 48.1719
10.01	48.1815
10.028	48.2135
10.046	48.2369
10.064	48.2423
10.082	48.2428
10.1	48.2632
10.118	48.3201
10.136	48.4077
10.154	48.5013
10.172	48.5702
10.19	48.5926
10.208	48.5625
10.226	48.4876
10.244	48.386
10.262	48.2801
10.28	48.192
10.298	48.1315
10.316	48.0898
10.334	48.0459
10.352	47.9816
10.37	47.8948
10.388	47.8028
10.406	47.7252
10.424	47.6708
10.442	47.6289
10.46	47.5819
10.478	47.5238
10.496	47.4711
10.514	47.4546
10.532	47.5021
10.55	47.6176
10.568	47.7792
10.586	47.9446
10.604	48.0736
10.622	48.1395
10.64	48.1382
10.658	48.0817
10.676	47.9884
10.694	47.8713
10.712	47.7371
10.73	47.5891
10.748	47.4361
10.766	47.2966
10.784	47.1951
10.802	47.1534
10.82	47.1765
10.838	47.2455
10.856	47.322
10.874	47.3599
10.892	47.3306
10.91	47.233
10.928	47.0956
10.946	46.9605
10.964	46.8593
10.982	46.8019
11	46.7748
11.018	46.7541
11.036	46.7233
11.054	46.6807
11.072	46.6387
11.09	46.6146
11.108	46.619
11.126	46.652
11.144	46.706
11.162	46.7709
11.18	46.8383
11.198	46.9028
11.216	46.9622
11.234	47.0173
11.252	47.0718
11.27	47.13
11.288	47.1944
11.306	47.2629
11.324	47.326
11.342	47.3693
11.36	47.3796
11.378	47.3489
11.396	47.2792
11.414	47.183
11.432	47.0784
11.45	46.9821
11.468	46.907
11.486	46.8586
11.504	46.8369
11.522	46.8373
11.54	46.8535
11.558	46.8765
11.576	46.8973
11.594	46.9089
11.612	46.9057
11.63	46.8857
11.648	46.8502
11.666	46.8032
11.684	46.7501
11.702	46.6957
11.72	46.6439
11.738	46.5969
11.756	46.5552
11.774	46.519
11.792	46.4884
11.81	46.4632
11.828	46.4425
11.846	46.4238
11.864	46.4039
11.882	46.3795
11.9	46.3487
11.918	46.3118
11.936	46.2724
11.954	46.2356
11.972	46.2071
11.99	46.1913
12.008	46.1911
12.026	46.2079
12.044	46.2415
12.062	46.2909
12.08	46.3549
12.098	46.4307
12.116	46.5124
12.134	46.5912
12.152	46.6564
12.17	46.6983
12.188	46.7099
12.206	46.6907
12.224	46.6458
12.242	46.5843
12.26	46.5166
12.278	46.4527
12.296	46.3993
12.314	46.3594
12.332	46.3319
12.35	46.3125
12.368	46.2948
12.386	46.2721
12.404	46.24
12.422	46.1976
12.44	46.1474
12.458	46.0956
12.476	46.0494
12.494	46.015
12.512	45.9959
12.53	45.992
12.548	45.9998
12.566	46.0141
12.584	46.0303
12.602	46.0455
12.62	46.0596
12.638	46.0739
12.656	46.0906
12.674	46.1103
12.692	46.1318
12.71	46.1514
12.728	46.1649
12.746	46.1688
12.764	46.1609
12.782	46.1414
12.8	46.1123
12.818	46.077
12.836	46.0384
12.854	45.9987
12.872	45.9586
12.89	45.9178
12.908	45.8758
12.926	45.8329
12.944	45.7901
12.962	45.7503
12.98	45.7168
12.998	45.6926
13.016	45.6796
13.034	45.6776
13.052	45.685
13.07	45.6986
13.088	45.7149
13.106	45.7314
13.124	45.7466
13.142	45.761
13.16	45.7762
13.178	45.7943
13.196	45.8166
13.214	45.8426
13.232	45.8698
13.25	45.894
13.268	45.91
13.286	45.9129
13.304	45.9003
13.322	45.8717
13.34	45.8295
13.358	45.777
13.376	45.7176
13.394	45.6535
13.412	45.5855
13.43	45.5129
13.448	45.4347
13.466	45.3508
13.484	45.2633
13.502	45.1773
13.52	45.1001
13.538	45.04
13.556	45.0044
13.574	44.9979
13.592	45.0204
13.61	45.0665
13.628	45.1264
13.646	45.1879
13.664	45.2384
13.682	45.2675
13.7	45.2689
13.718	45.2416
13.736	45.1895
13.754	45.1208
13.772	45.046
13.79	44.976
13.808	44.9202
13.826	44.885
13.844	44.8727
13.862	44.8818
13.88	44.9076
13.898	44.943
13.916	44.9803
13.934	45.0123
13.952	45.0336
13.97	45.0409
13.988	45.0337
14.006	45.0134
14.024	44.983
14.042	44.9459
14.06	44.9054
14.078	44.8639
14.096	44.823
14.114	44.7831
14.132	44.7447
14.15	44.7082
14.168	44.6745
14.186	44.6456
14.204	44.6235
14.222	44.6106
14.24	44.6087
14.258	44.6182
14.276	44.6373
14.294	44.6625
14.312	44.6886
14.33	44.7099
14.348	44.7204
14.366	44.7154
14.384	44.6922
14.402	44.6511
14.42	44.5949
14.438	44.5287
14.456	44.4589
14.474	44.3922
14.492	44.3342
14.51	44.2893
14.528	44.259
14.546	44.2424
14.564	44.2366
14.582	44.2373
14.6	44.2399
14.618	44.2397
14.636	44.2325
14.654	44.2157
14.672	44.1881
14.69	44.1497
14.708	44.1015
14.726	44.0451
14.744	43.9827
14.762	43.9166
14.78	43.8489
14.798	43.7814
14.816	43.7158
14.834	43.6536
14.852	43.5962
14.87	43.5447
14.888	43.4999
14.906	43.4626
14.924	43.4333
14.942	43.4121
14.96	43.3986
14.978	43.3925
14.996	43.3931
15.014	43.3998
15.032	43.4114
15.05	43.4273
15.068	43.4468
15.086	43.4695
15.104	43.4948
15.122	43.5225
15.14	43.5521
15.158	43.5834
15.176	43.6159
15.194	43.6492
15.212	43.6824
15.23	43.7144
15.248	43.7441
15.266	43.77
15.284	43.7905
15.302	43.8044
15.32	43.8108
15.338	43.8092
15.356	43.7993
15.374	43.7819
15.392	43.7579
15.41	43.7283
15.428	43.6944
15.446	43.6573
15.464	43.6178
15.482	43.5767
15.5	43.5343
15.518	43.4908
15.536	43.4462
15.554	43.4005
15.572	43.354
15.59	43.3073
15.608	43.2612
15.626	43.2164
15.644	43.1738
15.662	43.1346
15.68	43.0993
15.698	43.0682
15.716	43.0411
15.734	43.0171
15.752	42.9952
15.77	42.9742
15.788	42.9529
15.806	42.9308
15.824	42.9077
15.842	42.8838
15.86	42.8602
15.878	42.838
15.896	42.8188
15.914	42.8043
15.932	42.7955
15.95	42.793
15.968	42.7968
15.986	42.8061
16.004	42.8198
16.022	42.8365
16.04	42.8538
16.058	42.8699
16.076	42.8832
16.094	42.8917
16.112	42.8945
16.13	42.891
16.148	42.881
16.166	42.8653
16.184	42.8448
16.202	42.8204
16.22	42.7943
16.238	42.768
16.256	42.743
16.274	42.7216
16.292	42.7048
16.31	42.6936
16.328	42.6889
16.346	42.6906
16.364	42.6988
16.382	42.7123
16.4	42.7298
16.418	42.7499
16.436	42.77
16.454	42.7882
16.472	42.8029
16.49	42.8119
16.508	42.8142
16.526	42.8092
16.544	42.7966
16.562	42.7774
16.58	42.7523
16.598	42.7231
16.616	42.6913
16.634	42.6583
16.652	42.626
16.67	42.5952
16.688	42.5668
16.706	42.5418
16.724	42.5201
16.742	42.5023
16.76	42.4879
16.778	42.4768
16.796	42.4687
16.814	42.4634
16.832	42.4606
16.85	42.4603
16.868	42.4623
16.886	42.4661
16.904	42.4716
16.922	42.4788
16.94	42.4874
16.958	42.4976
16.976	42.5092
16.994	42.5221
17.012	42.5361
17.03	42.5512
17.048	42.5672
17.066	42.5839
17.084	42.6013
17.102	42.6189
17.12	42.6367
17.138	42.6544
17.156	42.6714
17.174	42.6877
17.192	42.7025
17.21	42.7158
17.228	42.7268
17.246	42.7354
17.264	42.7414
17.282	42.7444
17.3	42.7445
17.318	42.7416
17.336	42.7357
17.354	42.7269
17.372	42.7152
17.39	42.7008
17.408	42.6836
17.426	42.6633
17.444	42.6401
17.462	42.6134
17.48	42.5829
17.498	42.5485
17.516	42.5098
17.534	42.4664
17.552	42.4181
17.57	42.3651
17.588	42.3073
17.606	42.2449
17.624	42.1782
17.642	42.1081
17.66	42.0348
17.678	41.9597
17.696	41.8831
17.714	41.8069
17.732	41.7319
17.75	41.6595
17.768	41.5914
17.786	41.5283
17.804	41.4723
17.822	41.4238
17.84	41.3842
17.858	41.3536
17.876	41.3326
17.894	41.3204
17.912	41.3171
17.93	41.3206
17.948	41.3306
17.966	41.3444
17.984	41.3612
18.002	41.3785
18.02	41.395
18.038	41.4091
18.056	41.419
18.074	41.4242
18.092	41.4235
18.11	41.417
18.128	41.4047
18.146	41.3871
18.164	41.365
18.182	41.3394
18.2	41.3113
18.218	41.282
18.236	41.2523
18.254	41.2236
18.272	41.1963
18.29	41.1712
18.308	41.1485
18.326	41.1279
18.344	41.1094
18.362	41.0921
18.38	41.0758
18.398	41.0592
18.416	41.042
18.434	41.0231
18.452	41.0022
18.47	40.9789
18.488	40.9534
18.506	40.9254
18.524	40.8962
18.542	40.8658
18.56	40.8365
18.578	40.8081
18.596	40.7835
18.614	40.7627
18.632	40.7483
18.65	40.7403
18.668	40.7402
18.686	40.7481
18.704	40.7643
18.722	40.7884
18.74	40.8192
18.758	40.8558
18.776	40.8953
18.794	40.9366
18.812	40.976
18.83	41.0124
18.848	41.042
18.866	41.0639
18.884	41.075
18.902	41.0748
18.92	41.0611
18.938	41.0345
18.956	40.9944
18.974	40.9421
18.992	40.8787
19.01	40.806
19.028	40.7264
19.046	40.6417
19.064	40.5552
19.082	40.4681
19.1	40.384
19.118	40.3033
19.136	40.2287
19.154	40.1603
19.172	40.0995
19.19	40.046
19.208	39.9998
19.226	39.9602
19.244	39.9262
19.262	39.8972
19.28	39.8711
19.298	39.8478
19.316	39.825
19.334	39.8028
19.352	39.7796
19.37	39.7554
19.388	39.7293
19.406	39.7014
19.424	39.672
19.442	39.641
19.46	39.6091
19.478	39.5763
19.496	39.5436
19.514	39.5114
19.532	39.48
19.55	39.4495
19.568	39.4204
19.586	39.3932
19.604	39.3679
19.622	39.3446
19.64	39.3235
19.658	39.3054
19.676	39.2901
19.694	39.2785
19.712	39.2705
19.73	39.2675
19.748	39.2695
19.766	39.2782
19.784	39.2938
19.802	39.3173
19.82	39.3497
19.838	39.391
19.856	39.442
19.874	39.5022
19.892	39.5713
19.91	39.6491
19.928	39.7332
19.946	39.8241
19.964	39.9174
19.982	40.0135
20	40.108
20.018	40.199
20.036	40.2846
20.054	40.3605
20.072	40.427
20.09	40.4795
20.108	40.5186
20.126	40.542
20.144	40.5493
20.162	40.541
20.18	40.5166
20.198	40.4778
20.216	40.4263
20.234	40.3625
20.252	40.2911
20.27	40.2112
20.288	40.1285
20.306	40.0429
20.324	39.958
20.342	39.8763
20.36	39.798
20.378	39.7269
20.396	39.6623
20.414	39.6059
20.432	39.5579
20.45	39.5179
20.468	39.4864
20.486	39.4623
20.504	39.4442
20.522	39.4324
20.54	39.4239
20.558	39.4192
20.576	39.4158
20.594	39.4128
20.612	39.4096
20.63	39.4041
20.648	39.397
20.666	39.3867
20.684	39.3733
20.702	39.3566
20.72	39.3364
20.738	39.313
20.756	39.2869
20.774	39.2581
20.792	39.2273
20.81	39.1947
20.828	39.1607
20.846	39.1259
20.864	39.0901
20.882	39.0536
20.9	39.0163
20.918	38.9781
20.936	38.9389
20.954	38.8985
20.972	38.8564
20.99	38.8126
21.008	38.7668
21.026	38.7186
21.044	38.6681
21.062	38.615
21.08	38.5594
21.098	38.5017
21.116	38.4417
21.134	38.38
21.152	38.3174
21.17	38.2536
21.188	38.1898
21.206	38.1262
21.224	38.0633
21.242	38.002
21.26	37.942
21.278	37.8839
21.296	37.8279
21.314	37.7736
21.332	37.7208
21.35	37.6697
21.368	37.6193
21.386	37.5695
21.404	37.52
21.422	37.4697
21.44	37.419
21.458	37.3669
21.476	37.3128
21.494	37.257
21.512	37.1991
21.53	37.139
21.548	37.0775
21.566	37.0146
21.584	36.9506
21.602	36.8876
21.62	36.8251
21.638	36.7644
21.656	36.7076
21.674	36.6538
21.692	36.6055
21.71	36.5634
21.728	36.5274
21.746	36.4993
21.764	36.4789
21.782	36.4664
21.8	36.4625
21.818	36.4669
21.836	36.4785
21.854	36.4977
21.872	36.5235
21.89	36.5543
21.908	36.5909
21.926	36.6306
21.944	36.6718
21.962	36.7153
21.98	36.7581
21.998	36.8
22.016	36.8409
22.034	36.8786
22.052	36.9137
22.07	36.946
22.088	36.9748
22.106	37.0006
22.124	37.024
22.142	37.0448
22.16	37.0637
22.178	37.0823
22.196	37.1
22.214	37.1182
22.232	37.1386
22.25	37.1604
22.268	37.1848
22.286	37.2127
22.304	37.2436
22.322	37.2776
22.34	37.3152
22.358	37.3556
22.376	37.3975
22.394	37.4418
22.412	37.4867
22.43	37.5302
22.448	37.5734
22.466	37.614
22.484	37.6498
22.502	37.6822
22.52	37.7085
22.538	37.7276
22.556	37.7401
22.574	37.7446
22.592	37.7407
22.61	37.7289
22.628	37.7091
22.646	37.6809
22.664	37.6452
22.682	37.6033
22.7	37.5544
22.718	37.5
22.736	37.4417
22.754	37.3787
22.772	37.3124
22.79	37.2444
22.808	37.1739
22.826	37.102
22.844	37.0296
22.862	36.9563
22.88	36.8823
22.898	36.8076
22.916	36.7322
22.934	36.6556
22.952	36.5778
22.97	36.4987
22.988	36.4175
23.006	36.3338
23.024	36.2479
23.042	36.1598
23.06	36.0691
23.078	35.9763
23.096	35.8825
23.114	35.7869
23.132	35.6905
23.15	35.5964
23.168	35.5036
23.186	35.4133
23.204	35.3299
23.222	35.2522
23.24	35.1814
23.258	35.1227
23.276	35.0753
23.294	35.0398
23.312	35.0204
23.33	35.0169
23.348	35.0292
23.366	35.0597
23.384	35.1089
23.402	35.1759
23.42	35.26
23.438	35.3626
23.456	35.4821
23.474	35.615
23.492	35.7622
23.51	35.9229
23.528	36.0906
23.546	36.265
23.564	36.4467
23.582	36.6282
23.6	36.8073
23.618	36.9863
23.636	37.158
23.654	37.3191
23.672	37.4726
23.69	37.6133
23.708	37.7372
23.726	37.8472
23.744	37.9406
23.762	38.0145
23.78	38.0699
23.798	38.1074
23.816	38.1271
23.834	38.1276
23.852	38.1116
23.87	38.0824
23.888	38.0382
23.906	37.9807
23.924	37.9146
23.942	37.8392
23.96	37.7546
23.978	37.6651
23.996	37.5716
24.014	37.4729
24.032	37.3726
24.05	37.2731
24.068	37.1724
24.086	37.0728
24.104	36.9762
24.122	36.8819
24.14	36.7901
24.158	36.7019
24.176	36.6174
24.194	36.5361
24.212	36.4579
24.23	36.3829
24.248	36.3109
24.266	36.2412
24.284	36.1733
24.302	36.1075
24.32	36.0432
24.338	35.9796
24.356	35.9169
24.374	35.8553
24.392	35.7948
24.41	35.735
24.428	35.6763
24.446	35.6198
24.464	35.5658
24.482	35.5136
24.5	35.4648
24.518	35.4205
24.536	35.3795
24.554	35.343
24.572	35.3129
24.59	35.2889
24.608	35.2709
24.626	35.2598
24.644	35.2561
24.662	35.2594
24.68	35.27
24.698	35.2886
24.716	35.3154
24.734	35.3495
24.752	35.3897
24.77	35.4362
24.788	35.4892
24.806	35.5472
24.824	35.6095
24.842	35.6768
24.86	35.7482
24.878	35.8223
24.896	35.8995
24.914	35.9796
24.932	36.0621
24.95	36.1461
24.968	36.2321
24.986	36.3203
25.004	36.4107
25.022	36.5033
25.04	36.5982
25.058	36.6956
25.076	36.7959
25.094	36.8993
25.112	37.0044
25.13	37.1099
25.148	37.2161
25.166	37.3231
25.184	37.4312
25.202	37.5399
25.22	37.6494
25.238	37.7601
25.256	37.8725
25.274	37.9848
25.292	38.0986
25.31	38.2179
25.328	38.344
25.346	38.4736
25.364	38.6117
25.382	38.7641
25.4	38.9274
25.418	39.1024
25.436	39.2972
25.454	39.5177
25.472	39.7573
25.49	40.0214
25.508	40.3182
25.526	40.6496
25.544	41.0115
25.562	41.4078
25.58	41.8422
25.598	42.3154
25.616	42.8246
25.634	43.3669
25.652	43.9421
25.67	44.5546
25.688	45.1954
25.706	45.8545
25.724	46.5355
25.742	47.2408
25.76	47.9542
25.778	48.6613
25.796	49.3759
25.814	50.0897
25.832	50.7822
25.85	51.441
25.868	52.0836
25.886	52.6943
25.904	53.2529
25.922	53.7545
25.94	54.2106
25.958	54.6099
25.976	54.9409
25.994	55.2052
26.012	55.4062
26.03	55.5415
26.048	55.6084
26.066	55.6052
26.084	55.5365
26.102	55.4075
26.12	55.2203
26.138	54.9681
26.156	54.6608
26.174	54.3099
26.192	53.9166
26.21	53.4721
26.228	52.9926
26.246	52.495
26.264	51.9766
26.282	51.4311
26.3	50.8752
26.318	50.3248
26.336	49.7734
26.354	49.2194
26.372	48.6745
26.39	48.1494
26.408	47.6376
26.426	47.1398
26.444	46.6627
26.462	46.2123
26.48	45.7859
26.498	45.3821
26.516	45.001
26.534	44.643
26.552	44.3081
26.57	43.9955
26.588	43.7044
26.606	43.4338
26.624	43.1841
26.642	42.9554
26.66	42.7482
26.678	42.5616
26.696	42.3936
26.714	42.2482
26.732	42.1296
26.75	42.0386
26.768	41.9697
26.786	41.9302
26.804	41.9285
26.822	41.9671
26.84	42.0378
26.858	42.1492
26.876	42.3111
26.894	42.5276
26.912	42.7902
26.93	43.1052
26.948	43.4799
26.966	43.9547
26.984	44.5772
27.002	45.2137
27.02	45.7194
27.028	45.8502