File: Bakgrunnsmateriale/MATLAB/FTIR/ftir_data/subBb/Mapping_121/C-4040-8_t27_cm-1.asc
PE IR       SPECTRUM    SPECTRUM    ASCII       PEDS        1.60
  -1
C-9AEF~1.ASC
17/03/27
16:43:17.00
17/03/27
16:43:17.00
tln
$C-4040-8_t0027$<tbV0>[2.6,-7.8,8.0,0.0,27,1,0]
370
64

2002,4.07
MIRTGS : RIGHTBACK : INTERNAL 2
MIR : ON : INTERNAL 2
OPTKBR

0.200000
8
8.000000
FILLER
RATIO
SPECTRUM
UNLOCKED 256

DOUBLE
64
COMBINED
1
0
0

1.000000
RATIO

1
0
TRUE
51149
0
LEFT NOT FITTED RIGHT NOT FITTED 0
NONE
NONE
15600
12
4.427000
51148
TRUE
1 0 8 72 0 0 0 0

15798

#HDR
-1
-1
#GR
CM-1
%T
2.38419e-05
0.0
5000
-1.000000
4631
8
64.8374
15.3283
#DATA
5000	63.2913
4996	63.2707
4992	63.4318
4988	63.5839
4984	63.3535
4980	62.9044
4976	62.5247
4972	62.4266
4968	62.8551
4964	63.1415
4960	63.18
4956	63.4664
4952	63.7059
4948	63.6644
4944	63.5724
4940	63.694
4936	63.7316
4932	63.5019
4928	63.4028
4924	63.4859
4920	63.6094
4916	63.6804
4912	63.5935
4908	63.5275
4904	63.6083
4900	63.8983
4896	64.1544
4892	64.0276
4888	63.8322
4884	63.6635
4880	63.388
4876	63.3709
4872	63.5233
4868	63.5398
4864	63.5696
4860	63.683
4856	63.818
4852	63.8029
4848	63.6844
4844	63.6954
4840	63.7671
4836	63.7412
4832	63.6523
4828	63.7226
4824	63.864
4820	63.794
4816	63.666
4812	63.6415
4808	63.578
4804	63.4185
4800	63.3248
4796	63.4308
4792	63.4724
4788	63.266
4784	63.2132
4780	63.3195
4776	63.3398
4772	63.4388
4768	63.5109
4764	63.3749
4760	63.2902
4756	63.3868
4752	63.4573
4748	63.5176
4744	63.7039
4740	63.8303
4736	63.6958
4732	63.3851
4728	63.0743
4724	62.99
4720	63.2282
4716	63.5195
4712	63.5528
4708	63.4615
4704	63.4748
4700	63.4054
4696	63.2074
4692	63.0378
4688	62.9133
4684	62.9239
4680	63.0887
4676	63.2375
4672	63.25
4668	63.3162
4664	63.5507
4660	63.7669
4656	63.8265
4652	63.6303
4648	63.3566
4644	63.2527
4640	63.3861
4636	63.6068
4632	63.5603
4628	63.4383
4624	63.5108
4620	63.5444
4616	63.4969
4612	63.4707
4608	63.4129
4604	63.3841
4600	63.4883
4596	63.5607
4592	63.4729
4588	63.3059
4584	63.1374
4580	63.148
4576	63.3477
4572	63.4669
4568	63.4895
4564	63.5828
4560	63.6335
4556	63.5741
4552	63.6422
4548	63.7271
4544	63.5523
4540	63.2857
4536	63.1333
4532	63.0731
4528	63.1432
4524	63.38
4520	63.6348
4516	63.6925
4512	63.5179
4508	63.3799
4504	63.3695
4500	63.3685
4496	63.4111
4492	63.4382
4488	63.4456
4484	63.3994
4480	63.3051
4476	63.308
4472	63.241
4468	63.1345
4464	63.2353
4460	63.3916
4456	63.359
4452	63.1575
4448	63.0435
4444	63.1871
4440	63.4159
4436	63.4668
4432	63.3182
4428	63.1152
4424	62.9858
4420	63.0195
4416	62.8855
4412	62.719
4408	62.9182
4404	63.1062
4400	63.103
4396	63.2962
4392	63.3818
4388	64.3152
4384	64.1098
4380	61.8829
4376	62.5371
4372	61.4249
4368	59.4995
4364	63.0663
4360	64.7698
4356	63.4369
4352	63.1017
4348	63.0707
4344	63.3028
4340	63.3462
4336	62.9455
4332	62.5404
4328	62.6049
4324	63.1316
4320	63.4952
4316	63.7356
4312	63.877
4308	63.6336
4304	63.2521
4300	63.0862
4296	63.1785
4292	63.3713
4288	63.4248
4284	63.2309
4280	63.1431
4276	63.3683
4272	63.4044
4268	63.1941
4264	63.1064
4260	63.0504
4256	62.9789
4252	63.0716
4248	63.1738
4244	63.0416
4240	62.9538
4236	63.1474
4232	63.3476
4228	63.3765
4224	63.3035
4220	63.1831
4216	63.0749
4212	63.0277
4208	62.9328
4204	62.7156
4200	62.5738
4196	62.6863
4192	62.8849
4188	62.7454
4184	62.4506
4180	62.8269
4176	63.5504
4172	63.4137
4168	62.9483
4164	63.0914
4160	63.1409
4156	62.8156
4152	62.7352
4148	62.995
4144	63.1391
4140	63.0332
4136	62.9919
4132	62.9898
4128	62.9037
4124	62.826
4120	62.6965
4116	62.5698
4112	62.5732
4108	62.6087
4104	62.6164
4100	62.7321
4096	62.9216
4092	62.8468
4088	62.5669
4084	62.4773
4080	62.5748
4076	62.7578
4072	62.9471
4068	63.0014
4064	62.904
4060	62.7663
4056	62.7158
4052	62.713
4048	62.6867
4044	62.6772
4040	62.6358
4036	62.5037
4032	62.4886
4028	62.5901
4024	62.5874
4020	62.5972
4016	62.6055
4012	62.446
4008	62.3268
4004	62.4038
4000	62.5269
3996	62.6001
3992	62.675
3988	62.7492
3984	62.7422
3980	62.6285
3976	62.5094
3972	62.5103
3968	62.5496
3964	62.4795
3960	62.3554
3956	62.3077
3952	62.3362
3948	62.3456
3944	62.3836
3940	62.5069
3936	62.5864
3932	62.6027
3928	62.6698
3924	62.6823
3920	62.4681
3916	62.1929
3912	62.0745
3908	62.0614
3904	62.0707
3900	62.1407
3896	62.2797
3892	62.4001
3888	62.4484
3884	62.4869
3880	62.5555
3876	62.507
3872	62.3155
3868	62.203
3864	62.2855
3860	62.4147
3856	62.327
3852	62.1303
3848	62.1333
3844	62.2372
3840	62.2734
3836	62.2843
3832	62.2684
3828	62.2398
3824	62.2494
3820	62.2286
3816	62.1607
3812	62.1532
3808	62.1846
3804	62.1773
3800	62.1441
3796	62.1217
3792	62.1193
3788	62.0291
3784	61.9077
3780	61.9164
3776	61.9546
3772	61.976
3768	62.0656
3764	62.1444
3760	62.1189
3756	62.0516
3752	62.0241
3748	62.0475
3744	62.0352
3740	61.9164
3736	61.8117
3732	61.9049
3728	62.1001
3724	62.1248
3720	62.0059
3716	61.9573
3712	61.978
3708	61.9764
3704	61.9413
3700	61.9187
3696	61.9341
3692	61.9047
3688	61.7926
3684	61.722
3680	61.7312
3676	61.709
3672	61.6347
3668	61.5812
3664	61.6086
3660	61.6473
3656	61.6509
3652	61.7039
3648	61.7503
3644	61.7237
3640	61.6447
3636	61.5804
3632	61.6428
3628	61.7362
3624	61.7203
3620	61.7063
3616	61.7656
3612	61.7528
3608	61.6802
3604	61.6787
3600	61.6615
3596	61.6289
3592	61.6693
3588	61.6866
3584	61.637
3580	61.555
3576	61.4887
3572	61.4455
3568	61.4358
3564	61.443
3560	61.3478
3556	61.2592
3552	61.3277
3548	61.441
3544	61.4383
3540	61.4053
3536	61.3989
3532	61.3096
3528	61.2211
3524	61.1694
3520	61.1534
3516	61.1942
3512	61.198
3508	61.1084
3504	61.0217
3500	61.0428
3496	61.074
3492	61.0713
3488	61.1186
3484	61.197
3480	61.1745
3476	61.0248
3472	60.8688
3468	60.9036
3464	61.0539
3460	61.0547
3456	60.9696
3452	60.9166
3448	60.8862
3444	60.883
3440	60.889
3436	60.8178
3432	60.761
3428	60.7713
3424	60.7393
3420	60.7028
3416	60.6709
3412	60.706
3408	60.8025
3404	60.7987
3400	60.703
3396	60.6499
3392	60.647
3388	60.6184
3384	60.6014
3380	60.5704
3376	60.5536
3372	60.6704
3368	60.6969
3364	60.4626
3360	60.2754
3356	60.2869
3352	60.3711
3348	60.5032
3344	60.6186
3340	60.6487
3336	60.5699
3332	60.4433
3328	60.3698
3324	60.3779
3320	60.4208
3316	60.4023
3312	60.354
3308	60.3295
3304	60.306
3300	60.2872
3296	60.2888
3292	60.3217
3288	60.3112
3284	60.1736
3280	60.0236
3276	59.9848
3272	59.9705
3268	59.9682
3264	60.0124
3260	59.992
3256	59.8965
3252	59.8965
3248	59.9704
3244	59.9563
3240	59.8909
3236	59.8483
3232	59.8267
3228	59.771
3224	59.6675
3220	59.5927
3216	59.5656
3212	59.5607
3208	59.5737
3204	59.5654
3200	59.5163
3196	59.4947
3192	59.5367
3188	59.5883
3184	59.6314
3180	59.6996
3176	59.7131
3172	59.638
3168	59.5927
3164	59.623
3160	59.6115
3156	59.4772
3152	59.3534
3148	59.2776
3144	59.2184
3140	59.2174
3136	59.1847
3132	59.0666
3128	58.9794
3124	58.9891
3120	59.0578
3116	59.2191
3112	59.3728
3108	59.2746
3104	59.0729
3100	59.0666
3096	59.1895
3092	59.2568
3088	59.1938
3084	59.0673
3080	59.0348
3076	59.0235
3072	58.958
3068	58.935
3064	58.903
3060	58.8259
3056	58.8195
3052	58.894
3048	58.9263
3044	58.8657
3040	58.7996
3036	58.812
3032	58.8197
3028	58.7395
3024	58.6464
3020	58.6207
3016	58.6368
3012	58.6298
3008	58.5842
3004	58.5452
3000	58.539
2996	58.5222
2992	58.4747
2988	58.4481
2984	58.4736
2980	58.4976
2976	58.4353
2972	58.3359
2968	58.3378
2964	58.3659
2960	58.3037
2956	58.2001
2952	58.1308
2948	58.1433
2944	58.076
2940	57.8847
2936	57.8585
2932	57.9871
2928	57.9772
2924	57.8138
2920	57.717
2916	57.7456
2912	57.79
2908	57.8153
2904	57.8499
2900	57.918
2896	57.9272
2892	57.8252
2888	57.7512
2884	57.709
2880	57.6477
2876	57.6608
2872	57.6898
2868	57.628
2864	57.5404
2860	57.4596
2856	57.4252
2852	57.493
2848	57.579
2844	57.601
2840	57.5714
2836	57.5222
2832	57.4716
2828	57.4116
2824	57.3715
2820	57.4227
2816	57.4538
2812	57.3829
2808	57.3329
2804	57.3051
2800	57.2297
2796	57.1388
2792	57.0977
2788	57.1385
2784	57.199
2780	57.1735
2776	57.0673
2772	57.0183
2768	57.057
2764	57.0202
2760	56.8904
2756	56.8359
2752	56.8763
2748	56.918
2744	56.8887
2740	56.7919
2736	56.7151
2732	56.7172
2728	56.7604
2724	56.727
2720	56.6284
2716	56.5527
2712	56.5001
2708	56.4847
2704	56.4867
2700	56.4991
2696	56.5448
2692	56.5341
2688	56.4229
2684	56.3335
2680	56.3034
2676	56.2675
2672	56.2778
2668	56.3274
2664	56.3178
2660	56.1816
2656	55.973
2652	55.8648
2648	55.8664
2644	55.8829
2640	55.901
2636	55.9537
2632	55.9915
2628	55.9722
2624	55.9541
2620	55.9039
2616	55.8014
2612	55.7337
2608	55.6955
2604	55.656
2600	55.6704
2596	55.7051
2592	55.6694
2588	55.5985
2584	55.5449
2580	55.5035
2576	55.5025
2572	55.5249
2568	55.4873
2564	55.4113
2560	55.3672
2556	55.3767
2552	55.4181
2548	55.3913
2544	55.2832
2540	55.1769
2536	55.0989
2532	55.0666
2528	55.0558
2524	55.0138
2520	54.9407
2516	54.8866
2512	54.8464
2508	54.7662
2504	54.7781
2500	54.8497
2496	54.7193
2492	54.5558
2488	54.5993
2484	54.6298
2480	54.5633
2476	54.5566
2472	54.5889
2468	54.6273
2464	54.6105
2460	54.4637
2456	54.3733
2452	54.4185
2448	54.425
2444	54.3941
2440	54.3637
2436	54.337
2432	54.3578
2428	54.2754
2424	54.1667
2420	54.3019
2416	54.393
2412	54.1637
2408	53.9231
2404	53.8606
2400	53.8333
2396	53.7795
2392	53.7544
2388	53.7612
2384	53.796
2380	53.8364
2376	53.8087
2372	53.7644
2368	53.7453
2364	53.6822
2360	53.5901
2356	53.5187
2352	53.4812
2348	53.4488
2344	53.3811
2340	53.3417
2336	53.3449
2332	53.2965
2328	53.2365
2324	53.24
2320	53.2174
2316	53.1288
2312	53.0761
2308	53.0819
2304	53.049
2300	52.9703
2296	52.9184
2292	52.9016
2288	52.9026
2284	52.8792
2280	52.8261
2276	52.7668
2272	52.703
2268	52.6506
2264	52.6032
2260	52.5852
2256	52.616
2252	52.6377
2248	52.5911
2244	52.5064
2240	52.4475
2236	52.4462
2232	52.451
2228	52.3392
2224	52.1962
2220	52.1966
2216	52.264
2212	52.2661
2208	52.2096
2204	52.1374
2200	52.0579
2196	52.012
2192	52.0058
2188	51.9904
2184	51.9999
2180	52.0157
2176	51.949
2172	51.8874
2168	51.8761
2164	51.8325
2160	51.8063
2156	51.8016
2152	51.7859
2148	51.7859
2144	51.7322
2140	51.6009
2136	51.4905
2132	51.4427
2128	51.3554
2124	51.2422
2120	51.2378
2116	51.2803
2112	51.2632
2108	51.1895
2104	51.1362
2100	51.1252
2096	51.0935
2092	51.079
2088	51.0947
2084	51.0851
2080	51.038
2076	50.9747
2072	50.9588
2068	50.9744
2064	50.8988
2060	50.7753
2056	50.7259
2052	50.7116
2048	50.6162
2044	50.4876
2040	50.4508
2036	50.4624
2032	50.4504
2028	50.3735
2024	50.2501
2020	50.1737
2016	50.1555
2012	50.1513
2008	50.1449
2004	50.1453
2000	50.1389
1996	50.0916
1992	50.0108
1988	49.9476
1984	49.9067
1980	49.8513
1976	49.7981
1972	49.7352
1968	49.6431
1964	49.6155
1960	49.6571
1956	49.6414
1952	49.573
1948	49.5415
1944	49.5453
1940	49.523
1936	49.4833
1932	49.4488
1928	49.3874
1924	49.3238
1920	49.2673
1916	49.1938
1912	49.1242
1908	49.0599
1904	49.0151
1900	48.9662
1896	48.8698
1892	48.7708
1888	48.7274
1884	48.7273
1880	48.7468
1876	48.7838
1872	48.7865
1868	48.7363
1864	48.6878
1860	48.6347
1856	48.5102
1852	48.3938
1848	48.3846
1844	48.4232
1840	48.4236
1836	48.346
1832	48.2522
1828	48.2341
1824	48.2535
1820	48.2389
1816	48.1711
1812	48.0365
1808	47.9145
1804	47.8981
1800	47.9046
1796	47.8624
1792	47.83
1788	47.7978
1784	47.7147
1780	47.6299
1776	47.5811
1772	47.5538
1768	47.5381
1764	47.4961
1760	47.4401
1756	47.4081
1752	47.3756
1748	47.2945
1744	47.1551
1740	47.0467
1736	47.0374
1732	47.0556
1728	47.0321
1724	46.9374
1720	46.8232
1716	46.8314
1712	46.9253
1708	46.9491
1704	46.9088
1700	46.8814
1696	46.8621
1692	46.8539
1688	46.8171
1684	46.6783
1680	46.5514
1676	46.535
1672	46.5547
1668	46.5403
1664	46.4714
1660	46.4039
1656	46.3504
1652	46.2762
1648	46.2204
1644	46.1878
1640	46.167
1636	46.1655
1632	46.1452
1628	46.0577
1624	45.9076
1620	45.7848
1616	45.7662
1612	45.8222
1608	45.8678
1604	45.849
1600	45.7516
1596	45.6107
1592	45.5167
1588	45.4789
1584	45.4768
1580	45.44
1576	45.3324
1572	45.3116
1568	45.328
1564	45.2526
1560	45.1921
1556	45.1818
1552	45.1617
1548	45.083
1544	44.9783
1540	44.9466
1536	44.9431
1532	44.8917
1528	44.8304
1524	44.8029
1520	44.7942
1516	44.7479
1512	44.6869
1508	44.667
1504	44.6309
1500	44.5555
1496	44.492
1492	44.4161
1488	44.3636
1484	44.3852
1480	44.3766
1476	44.3081
1472	44.2406
1468	44.1555
1464	44.0993
1460	44.1276
1456	44.0962
1452	43.9854
1448	43.9565
1444	43.9785
1440	43.9993
1436	43.9971
1432	43.8413
1428	43.5863
1424	43.4621
1420	43.5235
1416	43.6066
1412	43.5652
1408	43.4504
1404	43.4228
1400	43.487
1396	43.4678
1392	43.3523
1388	43.2927
1384	43.2554
1380	43.1689
1376	43.1119
1372	43.0829
1368	43.0414
1364	42.9834
1360	42.9469
1356	42.9622
1352	42.9362
1348	42.8049
1344	42.677
1340	42.6715
1336	42.6999
1332	42.6234
1328	42.5454
1324	42.5728
1320	42.6117
1316	42.5295
1312	42.3382
1308	42.2636
1304	42.3155
1300	42.3032
1296	42.2484
1292	42.1773
1288	42.0925
1284	42.0371
1280	42.0092
1276	41.9794
1272	41.9209
1268	41.9185
1264	41.9653
1260	41.9129
1256	41.8221
1252	41.8299
1248	41.8374
1244	41.7501
1240	41.6614
1236	41.6073
1232	41.5275
1228	41.4381
1224	41.4136
1220	41.4084
1216	41.3394
1212	41.2529
1208	41.1509
1204	41.0746
1200	41.0697
1196	41.0713
1192	41.0877
1188	41.0639
1184	40.9512
1180	40.8777
1176	40.914
1172	40.9451
1168	40.8734
1164	40.7828
1160	40.7474
1156	40.709
1152	40.6124
1148	40.5251
1144	40.5633
1140	40.6301
1136	40.5754
1132	40.4503
1128	40.3186
1124	40.226
1120	40.2016
1116	40.1711
1112	40.1393
1108	40.2194
1104	40.279
1100	40.1755
1096	40.0313
1092	39.826
1088	39.5911
1084	39.4824
1080	39.4242
1076	39.3593
1072	39.3821
1068	39.4794
1064	39.556
1060	39.5734
1056	39.5153
1052	39.4018
1048	39.3477
1044	39.3833
1040	39.2745
1036	38.9528
1032	38.6921
1028	38.8369
1024	39.2854
1020	39.3646
1016	39.0115
1012	38.7114
1008	38.4234
1004	38.2422
1000	38.3486
996	 38.4585
992	 38.5264
988	 38.5728
984	 38.4928
980	 38.3826
976	 38.2578
972	 38.1258
968	 38.0104
964	 37.9156
960	 37.9182
956	 38.0336
952	 38.119
948	 38.0545
944	 37.9377
940	 37.7987
936	 37.6822
932	 37.5867
928	 37.429
924	 37.3673
920	 37.4383
916	 37.5583
912	 37.6303
908	 37.503
904	 37.3387
900	 37.2006
896	 37.0857
892	 37.1471
888	 37.1728
884	 37.0672
880	 37.005
876	 36.9456
872	 36.836
868	 36.6811
864	 36.5416
860	 36.5007
856	 36.5098
852	 36.5064
848	 36.4607
844	 36.3553
840	 36.2905
836	 36.2879
832	 36.1569
828	 35.9418
824	 35.994
820	 36.1249
816	 36.0019
812	 35.8716
808	 35.8386
804	 35.7417
800	 35.5376
796	 35.3843
792	 35.4033
788	 35.4363
784	 35.3276
780	 35.15
776	 34.945
772	 34.7522
768	 34.701
764	 34.784
760	 34.8265
756	 34.7422
752	 34.6522
748	 34.6335
744	 34.6233
740	 34.5233
736	 34.3559
732	 34.2859
728	 34.2168
724	 34.0424
720	 33.8956
716	 33.7601
712	 33.5793
708	 33.4967
704	 33.5712
700	 33.6082
696	 33.4473
692	 33.1096
688	 32.8298
684	 32.7629
680	 32.7647
676	 32.6449
672	 32.539
668	 32.7591
664	 33.0026
660	 32.8469
656	 32.5392
652	 32.3548
648	 32.277
644	 32.1797
640	 31.9106
636	 31.6108
632	 31.5653
628	 31.6857
624	 31.6164
620	 31.4361
616	 31.3561
612	 31.1571
608	 30.8276
604	 30.5986
600	 30.4974
596	 30.4419
592	 30.372
588	 30.3333
584	 30.2656
580	 30.0943
576	 29.968
572	 29.944
568	 29.8894
564	 29.7268
560	 29.4528
556	 29.135
552	 29.0604
548	 29.1343
544	 29.0819
540	 28.8672
536	 28.4573
532	 28.2089
528	 28.1476
524	 27.8592
520	 27.5288
516	 27.4352
512	 27.5506
508	 27.7589
504	 27.7393
500	 27.3189
496	 26.8019
492	 26.6485
488	 26.5564
484	 26.1905
480	 25.8546
476	 25.5713
472	 25.5291
468	 25.7555
464	 25.7935
460	 25.334
456	 24.755
452	 24.6824
448	 24.8651
444	 24.7685
440	 24.0987
436	 23.5899
432	 23.556
428	 22.7476
424	 21.1738
420	 20.054
416	 19.0272
412	 16.5744
408	 15.3283
404	 16.1773
400	 16.0676
396	 16.519
392	 19.1413
388	 20.6401
384	 21.47
380	 26.8626
376	 36.9054
372	 38.397
370	 37.011