File: Bakgrunnsmateriale/MATLAB/FTIR/ftir_data/subBb/Mapping_121/C-4040-8_t118_cm-1.asc
PE IR       SPECTRUM    SPECTRUM    ASCII       PEDS        1.60
  -1
C-4D09~1.ASC
17/03/28
00:26:33.00
17/03/28
00:26:33.00
tln
$C-4040-8_t0118$<tbV0>[-5.2,13.0,8.0,0.0,27,1,0]
370
64

2002,4.07
MIRTGS : RIGHTBACK : INTERNAL 2
MIR : ON : INTERNAL 2
OPTKBR

0.200000
8
8.000000
FILLER
RATIO
SPECTRUM
UNLOCKED 256

DOUBLE
64
COMBINED
1
0
0

1.000000
RATIO

1
0
TRUE
51149
0
LEFT NOT FITTED RIGHT NOT FITTED 0
NONE
NONE
15600
12
4.427000
51148
TRUE
1 0 8 72 0 0 0 0

15798

#HDR
-1
-1
#GR
CM-1
%T
2.38419e-05
0.0
5000
-1.000000
4631
8
100.869
9.752011
#DATA
5000	64.909
4996	64.9274
4992	64.8238
4988	64.8056
4984	64.8893
4980	64.912
4976	64.9893
4972	65.4014
4968	65.792
4964	65.6111
4960	64.8351
4956	64.2629
4952	64.1928
4948	64.395
4944	64.6972
4940	64.6461
4936	64.3583
4932	64.2184
4928	64.1628
4924	64.2039
4920	64.5712
4916	65.0748
4912	65.072
4908	64.6745
4904	64.6362
4900	65.0579
4896	65.2367
4892	65.0052
4888	64.6864
4884	64.0791
4880	63.6527
4876	63.8854
4872	63.9433
4868	63.8394
4864	64.3031
4860	64.8924
4856	65.1219
4852	64.9792
4848	64.7197
4844	64.7207
4840	64.7633
4836	64.5643
4832	64.3114
4828	64.3491
4824	64.5894
4820	64.5862
4816	64.3706
4812	64.2964
4808	64.4368
4804	64.6987
4800	64.9719
4796	65.1604
4792	65.145
4788	64.9075
4784	64.6934
4780	64.6218
4776	64.5727
4772	64.5818
4768	64.616
4764	64.4465
4760	64.2192
4756	64.3145
4752	64.6016
4748	64.8194
4744	65.0731
4740	65.3634
4736	65.3481
4732	64.841
4728	64.4413
4724	64.6112
4720	64.9869
4716	65.1108
4712	64.8786
4708	64.6732
4704	64.715
4700	64.7052
4696	64.4744
4692	64.2885
4688	64.419
4684	64.7204
4680	64.7245
4676	64.4398
4672	64.5396
4668	64.9418
4664	65.0852
4660	64.8869
4656	64.5283
4652	64.533
4648	64.8683
4644	64.9812
4640	64.7856
4636	64.5052
4632	64.3529
4628	64.3674
4624	64.4855
4620	64.503
4616	64.5036
4612	64.6775
4608	64.8918
4604	65.037
4600	64.9403
4596	64.7292
4592	64.8474
4588	65.1425
4584	65.2113
4580	65.2794
4576	65.4881
4572	65.4594
4568	65.3453
4564	65.5446
4560	65.6768
4556	65.6637
4552	65.7044
4548	65.7742
4544	65.9355
4540	65.8747
4536	65.516
4532	65.1521
4528	65.1882
4524	65.6105
4520	65.8281
4516	65.723
4512	65.4625
4508	65.2262
4504	65.2374
4500	65.4019
4496	65.6358
4492	65.7325
4488	65.4292
4484	65.2675
4480	65.4938
4476	65.4348
4472	65.1267
4468	65.2519
4464	65.714
4460	66.0614
4456	66.0699
4452	65.8522
4448	65.7204
4444	65.5864
4440	65.4601
4436	65.7213
4432	65.9472
4428	65.8744
4424	65.8753
4420	66.1202
4416	66.1786
4412	64.8965
4408	60.5262
4404	55.5366
4400	48.5124
4396	41.1251
4392	46.8682
4388	60.036
4384	65.5828
4380	65.9885
4376	66.8121
4372	67.5317
4368	67.7582
4364	67.3295
4360	66.635
4356	65.8832
4352	65.6507
4348	65.7262
4344	65.4899
4340	65.1034
4336	65.0827
4332	65.2333
4328	65.3113
4324	65.3119
4320	65.3476
4316	65.5521
4312	65.7079
4308	65.6183
4304	65.4777
4300	65.3218
4296	65.2094
4292	65.3929
4288	65.6387
4284	65.4589
4280	65.1245
4276	64.9964
4272	64.8931
4268	64.9088
4264	65.0827
4260	65.1864
4256	65.1448
4252	64.9479
4248	64.8447
4244	64.9975
4240	65.0779
4236	65.0139
4232	65.072
4228	65.1654
4224	65.1374
4220	65.1333
4216	65.1958
4212	65.2139
4208	65.2135
4204	65.2577
4200	65.3017
4196	65.1954
4192	65.0221
4188	65.0366
4184	65.1904
4180	65.4919
4176	65.7732
4172	65.4824
4168	64.6508
4164	64.015
4160	64.0433
4156	64.3105
4152	64.4535
4148	64.5665
4144	64.5824
4140	64.4929
4136	64.5374
4132	64.7787
4128	64.9871
4124	64.9957
4120	64.8112
4116	64.6373
4112	64.7581
4108	64.8837
4104	64.6563
4100	64.4938
4096	64.6134
4092	64.7277
4088	64.7465
4084	64.7932
4080	64.9018
4076	64.9905
4072	64.9499
4068	64.8465
4064	64.7935
4060	64.752
4056	64.7147
4052	64.6929
4048	64.6648
4044	64.6519
4040	64.7423
4036	64.8332
4032	64.6893
4028	64.4589
4024	64.4784
4020	64.6356
4016	64.7059
4012	64.7093
4008	64.7419
4004	64.8588
4000	64.8818
3996	64.7576
3992	64.6831
3988	64.8379
3984	65.1248
3980	65.243
3976	65.2384
3972	65.2218
3968	65.0785
3964	64.8249
3960	64.7342
3956	64.8605
3952	64.9492
3948	64.9618
3944	64.902
3940	64.8506
3936	64.9215
3932	64.9783
3928	65.0936
3924	65.2602
3920	65.1673
3916	64.8644
3912	64.6812
3908	64.7724
3904	64.9352
3900	64.9977
3896	65.1299
3892	65.2796
3888	65.2291
3884	65.0713
3880	64.9089
3876	64.7964
3872	64.8116
3868	64.9338
3864	65.1078
3860	65.1303
3856	64.9697
3852	64.8449
3848	64.8688
3844	64.9504
3840	65.0014
3836	65.1127
3832	65.0971
3828	64.8952
3824	64.9043
3820	65.1194
3816	65.2225
3812	65.1175
3808	64.9417
3804	64.8936
3800	64.9118
3796	64.9454
3792	65.119
3788	65.3244
3784	65.3534
3780	65.2211
3776	65.017
3772	64.817
3768	64.7632
3764	64.9107
3760	65.0993
3756	65.0876
3752	64.9794
3748	65.0018
3744	65.0223
3740	64.9694
3736	64.9612
3732	65.0079
3728	65.0123
3724	65.0068
3720	65.0553
3716	65.0827
3712	65.0545
3708	64.9789
3704	64.937
3700	65.0492
3696	65.1335
3692	65.0153
3688	64.8924
3684	64.9035
3680	64.9314
3676	64.9209
3672	64.9367
3668	64.9534
3664	64.891
3660	64.7375
3656	64.6397
3652	64.7607
3648	64.9456
3644	65.0001
3640	64.985
3636	64.9355
3632	64.8794
3628	64.8873
3624	64.9074
3620	64.9418
3616	64.9546
3612	64.9247
3608	65.0096
3604	65.0916
3600	65.0481
3596	65.0999
3592	65.1988
3588	65.0081
3584	64.7076
3580	64.7393
3576	64.9529
3572	65.0023
3568	64.9767
3564	65.0125
3560	65.0633
3556	65.2188
3552	65.24
3548	64.9609
3544	64.8854
3540	65.011
3536	64.9148
3532	64.6828
3528	64.7006
3524	65.0026
3520	65.1597
3516	65.0402
3512	64.8515
3508	64.7711
3504	64.8397
3500	64.9119
3496	64.9057
3492	64.8322
3488	64.706
3484	64.649
3480	64.8114
3476	64.9885
3472	65.0292
3468	65.1443
3464	65.2661
3460	65.1322
3456	64.9385
3452	64.9508
3448	65.0473
3444	65.1059
3440	65.0896
3436	65.0136
3432	64.9183
3428	64.9162
3424	64.9583
3420	64.8327
3416	64.7243
3412	64.8324
3408	64.9546
3404	64.9169
3400	64.8618
3396	64.8722
3392	64.9003
3388	64.9776
3384	65.0219
3380	64.99
3376	64.9619
3372	64.9757
3368	65.0207
3364	65.0105
3360	64.9526
3356	64.9417
3352	64.9634
3348	64.9806
3344	64.9894
3340	64.9273
3336	64.7803
3332	64.7737
3328	64.9159
3324	64.9419
3320	64.8983
3316	64.9195
3312	64.8647
3308	64.652
3304	64.5632
3300	64.714
3296	64.8946
3292	65.0355
3288	65.0842
3284	65.0066
3280	64.9301
3276	64.8609
3272	64.8185
3268	64.8788
3264	64.9907
3260	65.0968
3256	65.0565
3252	64.9168
3248	64.8844
3244	64.8621
3240	64.8332
3236	64.889
3232	64.9274
3228	64.9167
3224	64.9492
3220	65.0229
3216	65.0886
3212	65.0868
3208	65.0134
3204	64.9924
3200	65.0106
3196	64.9615
3192	64.8791
3188	64.9126
3184	64.9937
3180	64.971
3176	64.9808
3172	65.0463
3168	65.0319
3164	65.0747
3160	65.2024
3156	65.1879
3152	65.0363
3148	64.9297
3144	64.8692
3140	64.7364
3136	64.7129
3132	64.9775
3128	65.1345
3124	64.8917
3120	64.8145
3116	65.2328
3112	65.5532
3108	65.4469
3104	65.1995
3100	65.0494
3096	65.0141
3092	65.0273
3088	65.1063
3084	65.2692
3080	65.3061
3076	65.1
3072	64.9137
3068	64.9301
3064	64.9714
3060	64.8908
3056	64.8237
3052	64.856
3048	64.8958
3044	64.9553
3040	65.0505
3036	65.0892
3032	65.0689
3028	65.0693
3024	65.0936
3020	65.0541
3016	64.9846
3012	64.9394
3008	64.8804
3004	64.8605
3000	64.9339
2996	65.0636
2992	65.1359
2988	65.0946
2984	64.9942
2980	64.8732
2976	64.872
2972	64.9766
2968	64.9459
2964	64.8495
2960	64.8257
2956	64.8537
2952	64.9057
2948	64.9099
2944	64.9203
2940	64.9315
2936	64.8736
2932	64.8267
2928	64.8091
2924	64.7648
2920	64.6716
2916	64.5832
2912	64.6245
2908	64.8283
2904	64.9159
2900	64.7862
2896	64.7561
2892	64.787
2888	64.7516
2884	64.7989
2880	64.8901
2876	64.9365
2872	64.8781
2868	64.7116
2864	64.5885
2860	64.4852
2856	64.4646
2852	64.6837
2848	64.8048
2844	64.6433
2840	64.5529
2836	64.7017
2832	64.8937
2828	64.949
2824	64.9307
2820	64.9317
2816	64.9714
2812	65.006
2808	64.9996
2804	65.0146
2800	65.019
2796	64.9522
2792	64.8775
2788	64.9231
2784	65.0032
2780	64.9459
2776	64.8879
2772	64.9319
2768	64.9463
2764	64.911
2760	64.9223
2756	64.9945
2752	65.0366
2748	64.9949
2744	64.9229
2740	64.8203
2736	64.7804
2732	64.8675
2728	64.8995
2724	64.8763
2720	64.921
2716	64.9678
2712	64.9888
2708	65.0407
2704	65.0935
2700	65.0457
2696	64.9031
2692	64.7988
2688	64.7983
2684	64.8598
2680	64.9085
2676	64.9213
2672	64.9419
2668	64.9776
2664	64.9488
2660	64.8802
2656	64.8822
2652	64.9138
2648	64.9459
2644	65.0302
2640	65.0995
2636	65.0672
2632	64.9429
2628	64.8447
2624	64.8492
2620	64.8536
2616	64.8461
2612	64.8764
2608	64.8926
2604	64.9031
2600	64.9062
2596	64.8782
2592	64.8516
2588	64.8265
2584	64.8459
2580	64.9077
2576	64.9174
2572	64.9276
2568	65.0203
2564	65.0624
2560	64.9883
2556	64.9522
2552	65.0298
2548	65.0837
2544	65.0482
2540	65.0036
2536	64.9718
2532	64.9331
2528	64.9343
2524	64.9993
2520	65.0071
2516	64.9464
2512	64.8678
2508	64.7267
2504	64.6166
2500	64.5734
2496	64.5236
2492	64.555
2488	64.7607
2484	65.0335
2480	65.1394
2476	65.0594
2472	65.003
2468	65.0075
2464	65.0345
2460	65.0768
2456	65.043
2452	65.0143
2448	65.0851
2444	65.1432
2440	65.1563
2436	65.1913
2432	65.2105
2428	65.1153
2424	65.0889
2420	65.2958
2416	65.4421
2412	65.3522
2408	65.2836
2404	65.2962
2400	65.147
2396	64.9505
2392	64.9609
2388	65.0563
2384	65.0438
2380	64.9255
2376	64.8748
2372	64.9438
2368	65.0098
2364	65.0112
2360	64.9539
2356	64.9137
2352	64.9626
2348	65.0626
2344	65.118
2340	65.1102
2336	65.1196
2332	65.1459
2328	65.0966
2324	65.0182
2320	65.0014
2316	64.9805
2312	64.9499
2308	64.9789
2304	65.0163
2300	65.0058
2296	64.9931
2292	64.9876
2288	64.9295
2284	64.8476
2280	64.7968
2276	64.8044
2272	64.8867
2268	64.9889
2264	65.0325
2260	65.0171
2256	64.9804
2252	64.9329
2248	64.9395
2244	64.9942
2240	64.9953
2236	64.9379
2232	64.9081
2228	64.954
2224	64.9908
2220	64.9936
2216	65.0092
2212	65.0633
2208	65.1186
2204	65.1174
2200	65.1027
2196	65.11
2192	65.1257
2188	65.0924
2184	65.109
2180	65.1691
2176	65.0618
2172	64.9157
2168	64.8929
2164	64.874
2160	64.7294
2156	64.6601
2152	64.8525
2148	65.0657
2144	65.0997
2140	64.9737
2136	64.8513
2132	64.929
2128	65.1067
2124	65.1438
2120	65.0716
2116	65.0365
2112	65.0661
2108	65.0821
2104	65.0421
2100	65.0144
2096	65.031
2092	65.0357
2088	64.9573
2084	64.8708
2080	64.939
2076	65.2311
2072	65.6703
2068	65.9836
2064	65.9401
2060	65.5303
2056	65.0807
2052	64.9172
2048	64.929
2044	64.9349
2040	64.9341
2036	64.9993
2032	65.0629
2028	65.0328
2024	65.022
2020	65.0396
2016	65.0019
2012	64.9509
2008	64.9695
2004	64.9958
2000	64.9731
1996	64.9444
1992	64.9313
1988	64.9932
1984	65.0736
1980	65.1065
1976	65.1238
1972	65.0653
1968	64.9364
1964	64.9124
1960	64.9893
1956	65.0227
1952	65.0167
1948	65.016
1944	64.9822
1940	64.8947
1936	64.8412
1932	64.8484
1928	64.9488
1924	65.0655
1920	65.0554
1916	65.0515
1912	65.0883
1908	65.0603
1904	64.9842
1900	64.9334
1896	64.9356
1892	64.9388
1888	64.9525
1884	65.0112
1880	65.0444
1876	64.9897
1872	64.9372
1868	64.8878
1864	64.8045
1860	64.8346
1856	64.9376
1852	64.9565
1848	64.912
1844	64.907
1840	64.9442
1836	64.9391
1832	64.8826
1828	64.8318
1824	64.8473
1820	64.8857
1816	64.8521
1812	64.7637
1808	64.785
1804	64.9301
1800	65.0065
1796	64.9429
1792	64.8309
1788	64.7758
1784	64.8023
1780	64.8564
1776	64.8783
1772	64.8916
1768	64.9124
1764	64.8974
1760	64.8309
1756	64.8216
1752	64.8962
1748	64.9134
1744	64.8665
1740	64.7866
1736	64.6345
1732	64.531
1728	64.6337
1724	64.7924
1720	64.851
1716	64.841
1712	64.7712
1708	64.7289
1704	64.8074
1700	64.9054
1696	64.9369
1692	64.924
1688	64.8587
1684	64.8334
1680	64.9049
1676	64.9465
1672	64.9172
1668	64.8862
1664	64.8226
1660	64.7306
1656	64.7483
1652	64.8408
1648	64.8484
1644	64.7989
1640	64.859
1636	64.9447
1632	64.8738
1628	64.7995
1624	64.7791
1620	64.7051
1616	64.7053
1612	64.834
1608	64.8603
1604	64.8047
1600	64.8126
1596	64.8131
1592	64.7794
1588	64.7459
1584	64.7313
1580	64.6905
1576	64.579
1572	64.5396
1568	64.6416
1564	64.7463
1560	64.7822
1556	64.7587
1552	64.7468
1548	64.7944
1544	64.8451
1540	64.8895
1536	64.9117
1532	64.8893
1528	64.8458
1524	64.7853
1520	64.7495
1516	64.8082
1512	64.9014
1508	64.9161
1504	64.8794
1500	64.8321
1496	64.7594
1492	64.6863
1488	64.7057
1484	64.7979
1480	64.7933
1476	64.7702
1472	64.8188
1468	64.7866
1464	64.6594
1460	64.5826
1456	64.6472
1452	64.7662
1448	64.8051
1444	64.7403
1440	64.6124
1436	64.6407
1432	64.8946
1428	65.0206
1424	64.9561
1420	64.8551
1416	64.7062
1412	64.6118
1408	64.6463
1404	64.6678
1400	64.6667
1396	64.7297
1392	64.7623
1388	64.7342
1384	64.659
1380	64.6692
1376	64.7453
1372	64.695
1368	64.6322
1364	64.6663
1360	64.7172
1356	64.7263
1352	64.6827
1348	64.6291
1344	64.6215
1340	64.6049
1336	64.6022
1332	64.7037
1328	64.7561
1324	64.6972
1320	64.6874
1316	64.7165
1312	64.721
1308	64.6966
1304	64.5876
1300	64.4945
1296	64.4768
1292	64.3741
1288	64.275
1284	64.3667
1280	64.5148
1276	64.534
1272	64.4887
1268	64.4989
1264	64.5406
1260	64.5487
1256	64.4808
1252	64.4559
1248	64.5343
1244	64.5698
1240	64.5437
1236	64.517
1232	64.5566
1228	64.6783
1224	64.7774
1220	64.7716
1216	64.655
1212	64.5392
1208	64.5116
1204	64.4819
1200	64.4389
1196	64.4454
1192	64.4345
1188	64.4607
1184	64.5535
1180	64.5184
1176	64.3712
1172	64.3143
1168	64.3869
1164	64.5005
1160	64.538
1156	64.4399
1152	64.3263
1148	64.2865
1144	64.2816
1140	64.3314
1136	64.4289
1132	64.4508
1128	64.367
1124	64.2965
1120	64.3286
1116	64.4407
1112	64.5858
1108	64.7319
1104	64.8138
1100	64.6937
1096	64.3961
1092	64.2416
1088	64.3417
1084	64.3763
1080	64.2277
1076	64.2199
1072	64.3597
1068	64.2813
1064	64.0224
1060	63.9601
1056	64.101
1052	64.1967
1048	64.2378
1044	64.2733
1040	64.3176
1036	64.3522
1032	64.2615
1028	64.0038
1024	63.7851
1020	63.824
1016	63.9267
1012	64.0544
1008	64.2416
1004	64.2496
1000	64.2238
996	 64.3318
992	 64.3789
988	 64.309
984	 64.2201
980	 64.1457
976	 64.1086
972	 64.0942
968	 64.0719
964	 64.0524
960	 64.0603
956	 64.0541
952	 64.1128
948	 64.2709
944	 64.1939
940	 63.9405
936	 63.943
932	 64.0571
928	 64.0503
924	 64.0614
920	 64.0428
916	 64.0002
912	 64.0735
908	 64.2057
904	 64.3069
900	 64.2364
896	 64.18
892	 64.1278
888	 63.7653
884	 63.3948
880	 63.3112
876	 63.3712
872	 63.5106
868	 63.7103
864	 63.6744
860	 63.3647
856	 63.2017
852	 63.3395
848	 63.5021
844	 63.8
840	 64.4076
836	 64.4137
832	 63.3891
828	 62.6071
824	 63.1078
820	 64.0273
816	 64.1506
812	 63.8546
808	 63.7484
804	 63.6637
800	 63.3933
796	 63.001
792	 62.8908
788	 63.3039
784	 63.7572
780	 63.8422
776	 63.6802
772	 63.4319
768	 63.2421
764	 62.9812
760	 62.6589
756	 62.7294
752	 63.0944
748	 63.2655
744	 63.3026
740	 63.2283
736	 62.9007
732	 62.5317
728	 62.337
724	 62.5637
720	 62.9321
716	 62.8145
712	 62.3347
708	 62.1394
704	 62.3173
700	 62.5353
696	 62.7598
692	 62.8945
688	 62.7103
684	 62.2785
680	 62.1271
676	 62.3156
672	 62.4274
668	 62.619
664	 62.6373
660	 62.0901
656	 61.7974
652	 62.0445
648	 62.2023
644	 62.0155
640	 61.6673
636	 61.6807
632	 61.9993
628	 62.2368
624	 62.2311
620	 61.8971
616	 61.7471
612	 62.0201
608	 62.0233
604	 61.8466
600	 62.0131
596	 62.0433
592	 61.7707
588	 61.3467
584	 60.6581
580	 60.1561
576	 60.3111
572	 60.8223
568	 61.1296
564	 61.0291
560	 60.8982
556	 60.7978
552	 60.6753
548	 60.9653
544	 61.4316
540	 61.3348
536	 60.7973
532	 60.2894
528	 60.1279
524	 60.5106
520	 60.7269
516	 60.2657
512	 59.7124
508	 59.3244
504	 59.1617
500	 59.0263
496	 58.6784
492	 58.4924
488	 58.0862
484	 57.86
480	 58.311
476	 58.5156
472	 59.3117
468	 60.4989
464	 60.6903
460	 60.3636
456	 60.0146
452	 59.5602
448	 58.3671
444	 57.7971
440	 58.0058
436	 56.977
432	 56.7601
428	 58.1893
424	 58.8237
420	 58.1548
416	 56.0947
412	 52.2796
408	 43.27
404	 35.3437
400	 44.6478
396	 54.7896
392	 47.0119
388	 44.8262
384	 69.306
380	 99.3161
376	 81.1301
372	 23.9066
370	 9.752011