File: Bakgrunnsmateriale/MATLAB/FTIR/ftir_data/subBb/Mapping_121/C-4040-8_t47_cm-1.asc
PE IR       SPECTRUM    SPECTRUM    ASCII       PEDS        1.60
  -1
C-9BEF~1.ASC
17/03/27
18:23:09.00
17/03/27
18:23:09.00
tln
$C-4040-8_t0047$<tbV0>[7.8,-2.6,8.0,0.0,27,1,0]
370
64

2002,4.07
MIRTGS : RIGHTBACK : INTERNAL 2
MIR : ON : INTERNAL 2
OPTKBR

0.200000
8
8.000000
FILLER
RATIO
SPECTRUM
UNLOCKED 256

DOUBLE
64
COMBINED
1
0
0

1.000000
RATIO

1
0
TRUE
51149
0
LEFT NOT FITTED RIGHT NOT FITTED 0
NONE
NONE
15600
12
4.427000
51148
TRUE
1 0 8 72 0 0 0 0

15798

#HDR
-1
-1
#GR
CM-1
%T
2.38419e-05
0.0
5000
-1.000000
4631
8
92.2904
40.6772
#DATA
5000	64.7907
4996	64.7532
4992	64.5455
4988	64.5854
4984	64.4882
4980	64.2423
4976	64.4558
4972	65.0039
4968	65.218
4964	65.0551
4960	64.9453
4956	64.9965
4952	64.9904
4948	64.894
4944	64.9503
4940	64.9667
4936	64.6588
4932	64.4416
4928	64.5861
4924	64.7825
4920	64.781
4916	64.8251
4912	64.9003
4908	64.8848
4904	65.0139
4900	64.9632
4896	64.8235
4892	64.9631
4888	64.7459
4884	64.0918
4880	63.8113
4876	63.9706
4872	63.9641
4868	63.8415
4864	64.0019
4860	64.203
4856	64.3978
4852	64.8389
4848	65.1772
4844	65.0383
4840	64.6812
4836	64.574
4832	64.6482
4828	64.6681
4824	64.6821
4820	64.6607
4816	64.5779
4812	64.4979
4808	64.6393
4804	64.9169
4800	64.8516
4796	64.6302
4792	64.6036
4788	64.6806
4784	64.8227
4780	64.8761
4776	64.729
4772	64.5695
4768	64.6981
4764	64.8608
4760	64.6724
4756	64.5667
4752	64.6388
4748	64.5588
4744	64.4131
4740	64.284
4736	64.2158
4732	64.392
4728	64.7478
4724	64.958
4720	64.9908
4716	64.9895
4712	65.0747
4708	65.1569
4704	65.0609
4700	64.94
4696	64.8472
4692	64.6686
4688	64.5223
4684	64.5361
4680	64.5082
4676	64.4582
4672	64.5947
4668	64.628
4664	64.4783
4660	64.4708
4656	64.6416
4652	64.8541
4648	64.9888
4644	64.9477
4640	64.7779
4636	64.5895
4632	64.5145
4628	64.7446
4624	65.0424
4620	65.0472
4616	64.8347
4612	64.4208
4608	64.0527
4604	64.2384
4600	64.753
4596	64.8856
4592	64.6621
4588	64.5391
4584	64.4968
4580	64.4903
4576	64.5338
4572	64.6659
4568	64.8778
4564	64.8056
4560	64.4178
4556	64.0929
4552	64.0814
4548	64.4317
4544	64.5972
4540	64.4327
4536	64.7007
4532	65.2742
4528	65.2952
4524	65.0043
4520	64.9234
4516	65.0475
4512	65.2587
4508	65.1438
4504	64.7382
4500	64.554
4496	64.5724
4492	64.5486
4488	64.6117
4484	64.821
4480	64.9915
4476	65.0569
4472	65.0764
4468	65.106
4464	65.1473
4460	65.0823
4456	64.9691
4452	64.9318
4448	64.8058
4444	64.6716
4440	64.7788
4436	64.9914
4432	65.1214
4428	65.3204
4424	65.5261
4420	65.4439
4416	65.3664
4412	65.3399
4408	65.1771
4404	65.2086
4400	65.0945
4396	64.7001
4392	64.7221
4388	64.7481
4384	64.6755
4380	65.3732
4376	66.6021
4372	67.6268
4368	67.9563
4364	65.019
4360	63.574
4356	66.3817
4352	63.0601
4348	58.4157
4344	62.2986
4340	66.5323
4336	67.0877
4332	66.1706
4328	65.4565
4324	66.1161
4320	66.5111
4316	65.8868
4312	65.1459
4308	64.7632
4304	64.6489
4300	64.4661
4296	64.4403
4292	64.7249
4288	64.9412
4284	65.2178
4280	65.4598
4276	65.3682
4272	65.2831
4268	65.1647
4264	64.7475
4260	64.6027
4256	64.9657
4252	65.2145
4248	65.0709
4244	64.8516
4240	64.7841
4236	64.7732
4232	64.7419
4228	64.7456
4224	64.9038
4220	65.0852
4216	65.0764
4212	64.9654
4208	64.956
4204	64.9859
4200	64.8174
4196	64.6374
4192	64.5273
4188	64.1199
4184	63.6404
4180	63.5314
4176	63.9932
4172	64.8103
4168	65.2129
4164	65.1525
4160	65.0537
4156	64.9531
4152	64.8198
4148	64.7553
4144	64.9395
4140	65.1513
4136	65.1233
4132	65.0042
4128	64.8499
4124	64.784
4120	64.9452
4116	65.0731
4112	65.016
4108	64.983
4104	65.043
4100	65.067
4096	65.0182
4092	64.8762
4088	64.7593
4084	64.7926
4080	64.7954
4076	64.7992
4072	64.9378
4068	64.9757
4064	64.851
4060	64.7671
4056	64.8113
4052	64.8996
4048	64.9299
4044	65.0165
4040	65.1343
4036	65.0598
4032	64.8164
4028	64.6857
4024	64.7963
4020	64.9173
4016	64.9824
4012	65.0604
4008	65.027
4004	64.9277
4000	64.9136
3996	64.919
3992	64.8915
3988	64.8802
3984	64.9316
3980	64.9861
3976	64.9622
3972	64.9297
3968	64.9193
3964	64.8778
3960	64.8559
3956	64.9225
3952	65.014
3948	65.0362
3944	65.0302
3940	65.0168
3936	64.9156
3932	64.793
3928	64.6771
3924	64.5496
3920	64.5355
3916	64.7572
3912	65.0487
3908	65.0057
3904	64.7274
3900	64.7451
3896	64.9867
3892	65.0445
3888	64.9954
3884	64.9665
3880	64.895
3876	64.9819
3872	65.1964
3868	65.2
3864	65.1251
3860	65.1152
3856	65.1489
3852	65.1514
3848	65.0291
3844	64.9313
3840	64.8982
3836	64.8538
3832	64.8141
3828	64.8051
3824	64.8152
3820	64.8848
3816	65.0837
3812	65.2531
3808	65.2069
3804	65.1293
3800	65.0891
3796	65.0333
3792	65.064
3788	65.0552
3784	64.9523
3780	64.982
3776	65.0425
3772	64.9468
3768	64.9253
3764	65.1058
3760	65.2678
3756	65.2681
3752	65.1839
3748	65.0564
3744	64.9492
3740	64.9262
3736	64.9815
3732	65.1054
3728	65.1255
3724	65.0252
3720	64.9561
3716	64.9328
3712	64.9162
3708	64.9154
3704	64.9204
3700	64.9197
3696	64.9832
3692	65.0402
3688	65.0552
3684	65.0312
3680	64.9849
3676	64.9971
3672	64.9026
3668	64.7646
3664	64.7299
3660	64.7865
3656	64.9635
3652	65.0608
3648	65.0216
3644	65.0558
3640	65.1251
3636	65.0683
3632	64.9501
3628	64.8816
3624	64.9217
3620	64.9651
3616	64.8778
3612	64.8288
3608	64.8619
3604	64.8471
3600	64.7936
3596	64.7634
3592	64.7582
3588	64.8017
3584	64.9447
3580	65.0618
3576	65.0399
3572	64.964
3568	64.9411
3564	65.0122
3560	65.0809
3556	65.0404
3552	65.0508
3548	65.1556
3544	65.1132
3540	65.0214
3536	65.099
3532	65.1721
3528	65.1545
3524	65.0907
3520	64.9544
3516	64.889
3512	64.9479
3508	65.045
3504	65.0881
3500	65.0126
3496	64.9248
3492	64.9395
3488	64.9684
3484	64.9717
3480	65.0142
3476	64.9981
3472	65.0383
3468	65.2082
3464	65.2542
3460	65.2246
3456	65.1896
3452	65.0539
3448	64.8904
3444	64.8611
3440	64.9666
3436	64.9846
3432	64.8848
3428	64.8913
3424	65.0086
3420	65.1146
3416	65.1563
3412	65.0945
3408	65.0488
3404	65.0973
3400	65.1715
3396	65.1519
3392	65.044
3388	65.009
3384	65.0061
3380	65.0093
3376	65.0589
3372	65.1073
3368	65.141
3364	65.1321
3360	65.0865
3356	65.0383
3352	64.9715
3348	64.928
3344	64.9672
3340	65.0231
3336	65.0249
3332	65.0005
3328	64.9968
3324	65.0336
3320	65.0903
3316	65.0936
3312	65.0043
3308	64.9629
3304	65.0259
3300	65.0685
3296	65.1131
3292	65.0827
3288	64.9121
3284	64.8594
3280	64.9879
3276	65.0996
3272	65.1875
3268	65.3086
3264	65.3215
3260	65.2165
3256	65.1758
3252	65.1862
3248	65.1305
3244	64.9914
3240	64.9234
3236	65.1004
3232	65.2721
3228	65.1684
3224	64.9612
3220	64.8401
3216	64.8578
3212	64.9427
3208	64.9996
3204	65.0551
3200	65.1546
3196	65.1783
3192	65.0593
3188	65.0334
3184	65.1354
3180	65.2078
3176	65.1983
3172	65.1299
3168	65.0874
3164	65.0257
3160	65.0017
3156	65.1352
3152	65.1877
3148	64.9873
3144	64.7215
3140	64.6679
3136	64.9337
3132	65.2128
3128	65.164
3124	64.8438
3120	64.6364
3116	64.8485
3112	65.1024
3108	65.0455
3104	65.053
3100	65.2439
3096	65.2755
3092	65.1721
3088	65.1577
3084	65.1276
3080	65.021
3076	65.0049
3072	65.0777
3068	65.1518
3064	65.198
3060	65.1614
3056	65.1038
3052	65.0967
3048	65.0801
3044	65.0104
3040	65.0122
3036	65.15
3032	65.217
3028	65.2032
3024	65.2119
3020	65.1515
3016	65.0504
3012	65.0049
3008	65.0075
3004	65.0106
3000	64.991
2996	64.9992
2992	65.0171
2988	65.0275
2984	65.1122
2980	65.1566
2976	65.0493
2972	65.012
2968	65.1232
2964	65.172
2960	65.1861
2956	65.2346
2952	65.2126
2948	65.0985
2944	64.9132
2940	64.7669
2936	64.8016
2932	64.919
2928	64.9593
2924	64.9068
2920	64.8507
2916	64.8958
2912	65.0349
2908	65.145
2904	65.1171
2900	65.0039
2896	64.9417
2892	64.9795
2888	65.0332
2884	65.0312
2880	64.9827
2876	64.9501
2872	65.013
2868	65.0435
2864	64.9448
2860	64.8327
2856	64.7983
2852	64.891
2848	65.0298
2844	65.0498
2840	64.9929
2836	64.9635
2832	64.9799
2828	64.9959
2824	64.9892
2820	65.0899
2816	65.1896
2812	65.1326
2808	65.0892
2804	65.1007
2800	65.0311
2796	64.9235
2792	64.93
2788	64.9657
2784	64.9242
2780	64.9312
2776	65.0211
2772	65.0767
2768	65.1016
2764	65.1226
2760	65.0325
2756	64.9594
2752	65.0899
2748	65.2142
2744	65.164
2740	65.1135
2736	65.1554
2732	65.1495
2728	65.0785
2724	65.0403
2720	65.0093
2716	64.9513
2712	64.952
2708	64.9683
2704	64.9368
2700	64.9858
2696	65.0755
2692	65.057
2688	65.0083
2684	65.0349
2680	65.0402
2676	65.0013
2672	65.0373
2668	65.1213
2664	65.2014
2660	65.2491
2656	65.2083
2652	65.1544
2648	65.1345
2644	65.1081
2640	65.0912
2636	65.0852
2632	65.0819
2628	65.1217
2624	65.1983
2620	65.2358
2616	65.2431
2612	65.2762
2608	65.2678
2604	65.2179
2600	65.2221
2596	65.2394
2592	65.209
2588	65.1871
2584	65.2034
2580	65.1578
2576	65.0632
2572	65.0225
2568	65.0503
2564	65.0958
2560	65.1135
2556	65.1224
2552	65.0992
2548	65.0839
2544	65.1283
2540	65.154
2536	65.1204
2532	65.0197
2528	64.9044
2524	64.9342
2520	65.1057
2516	65.2628
2512	65.3439
2508	65.3326
2504	65.1895
2500	64.9554
2496	64.7895
2492	64.7874
2488	64.8908
2484	65.0112
2480	65.0851
2476	65.0881
2472	65.0414
2468	65.0321
2464	65.1189
2460	65.1299
2456	64.9973
2452	64.9679
2448	65.0687
2444	65.1481
2440	65.1536
2436	65.0453
2432	64.9993
2428	65.1645
2424	65.4493
2420	65.494
2416	65.1217
2412	64.9037
2408	65.0534
2404	65.216
2400	65.236
2396	65.1685
2392	65.1192
2388	65.0713
2384	65.0442
2380	65.0344
2376	64.9951
2372	65.0207
2368	65.1264
2364	65.1524
2360	65.0943
2356	65.095
2352	65.1279
2348	65.0898
2344	65.0428
2340	65.0417
2336	65.0504
2332	65.0953
2328	65.1417
2324	65.1286
2320	65.0799
2316	65.0521
2312	65.0851
2308	65.162
2304	65.2356
2300	65.2297
2296	65.1739
2292	65.1344
2288	65.102
2284	65.0917
2280	65.0728
2276	65.0881
2272	65.1526
2268	65.1579
2264	65.1525
2260	65.2099
2256	65.284
2252	65.3015
2248	65.2779
2244	65.2573
2240	65.2403
2236	65.2318
2232	65.2229
2228	65.1979
2224	65.1358
2220	65.0864
2216	65.1136
2212	65.1297
2208	65.0567
2204	64.9779
2200	64.9506
2196	64.9538
2192	65.0322
2188	65.1458
2184	65.1623
2180	65.1176
2176	65.0965
2172	65.0885
2168	65.0525
2164	65.0841
2160	65.239
2156	65.3261
2152	65.2381
2148	65.0715
2144	64.9997
2140	65.0862
2136	65.2319
2132	65.284
2128	65.2109
2124	65.1221
2120	65.0834
2116	65.1232
2112	65.1675
2108	65.1399
2104	65.1325
2100	65.1655
2096	65.149
2092	65.1284
2088	65.1753
2084	65.1507
2080	65.0038
2076	64.875
2072	64.802
2068	64.8577
2064	64.9905
2060	65.0241
2056	65.0306
2052	65.0816
2048	65.0791
2044	65.0548
2040	65.1484
2036	65.2613
2032	65.2614
2028	65.2067
2024	65.1513
2020	65.068
2016	65.048
2012	65.1278
2008	65.1295
2004	65.1222
2000	65.1245
1996	65.0731
1992	65.0899
1988	65.1243
1984	65.1353
1980	65.1626
1976	65.1991
1972	65.2004
1968	65.1299
1964	65.0553
1960	64.9946
1956	64.9707
1952	65.0112
1948	65.0977
1944	65.1585
1940	65.1262
1936	65.1455
1932	65.1815
1928	65.0807
1924	65.0131
1920	65.0602
1916	65.1145
1912	65.1381
1908	65.0683
1904	64.9789
1900	65.0349
1896	65.1648
1892	65.1919
1888	65.076
1884	65.0281
1880	65.1181
1876	65.1437
1872	65.0793
1868	65.0404
1864	65.0826
1860	65.1242
1856	65.0898
1852	65.0697
1848	65.0677
1844	65.0106
1840	64.9789
1836	65.0684
1832	65.202
1828	65.2122
1824	65.0795
1820	65.017
1816	65.0979
1812	65.1467
1808	65.138
1804	65.1348
1800	65.1125
1796	65.1146
1792	65.1629
1788	65.1629
1784	65.123
1780	65.0702
1776	65.0349
1772	65.0955
1768	65.1583
1764	65.1555
1760	65.1007
1756	65.0351
1752	65.03
1748	65.04
1744	64.992
1740	64.8914
1736	64.8181
1732	64.8183
1728	64.8906
1724	65.012
1720	65.0589
1716	64.9391
1712	64.8388
1708	64.9079
1704	64.9843
1700	65.0095
1696	65.0052
1692	64.9661
1688	64.9979
1684	65.0885
1680	65.1258
1676	65.0834
1672	65.0343
1668	65.0815
1664	65.1255
1660	65.029
1656	64.9576
1652	65.0247
1648	65.0627
1644	65.0127
1640	64.9472
1636	64.903
1632	64.9219
1628	64.9421
1624	64.9004
1620	64.8721
1616	64.8837
1612	64.8437
1608	64.8211
1604	64.9191
1600	64.9809
1596	64.9396
1592	64.8719
1588	64.8204
1584	64.8172
1580	64.9094
1576	65.0243
1572	64.981
1568	64.8592
1564	64.8516
1560	64.9018
1556	64.9255
1552	64.9412
1548	64.9691
1544	65.0067
1540	64.9718
1536	64.8697
1532	64.7973
1528	64.7673
1524	64.7669
1520	64.8212
1516	64.8681
1512	64.8347
1508	64.8769
1504	65.0632
1500	65.1168
1496	64.9158
1492	64.7848
1488	64.8913
1484	64.9976
1480	64.956
1476	64.8637
1472	64.84
1468	64.8736
1464	64.8919
1460	64.7733
1456	64.6311
1452	64.6954
1448	64.7896
1444	64.7468
1440	64.7594
1436	64.7891
1432	64.7418
1428	64.8043
1424	64.9357
1420	64.9462
1416	64.8732
1412	64.8341
1408	64.825
1404	64.8339
1400	64.8699
1396	64.8952
1392	64.8965
1388	64.9145
1384	64.9637
1380	64.9336
1376	64.8361
1372	64.7753
1368	64.7445
1364	64.7391
1360	64.7367
1356	64.7584
1352	64.7686
1348	64.7154
1344	64.7006
1340	64.662
1336	64.6106
1332	64.6737
1328	64.7943
1324	64.8763
1320	64.8855
1316	64.9054
1312	64.9072
1308	64.811
1304	64.7048
1300	64.6816
1296	64.7013
1292	64.7055
1288	64.7459
1284	64.7998
1280	64.7781
1276	64.7591
1272	64.7928
1268	64.8131
1264	64.7718
1260	64.7278
1256	64.7526
1252	64.8251
1248	64.8983
1244	64.8354
1240	64.6724
1236	64.5776
1232	64.5447
1228	64.5996
1224	64.7142
1220	64.7477
1216	64.7197
1212	64.7295
1208	64.7917
1204	64.7557
1200	64.6705
1196	64.7811
1192	64.9762
1188	64.9327
1184	64.6104
1180	64.4131
1176	64.5329
1172	64.6753
1168	64.7952
1164	64.882
1160	64.7655
1156	64.609
1152	64.6517
1148	64.9428
1144	65.0423
1140	64.7694
1136	64.567
1132	64.4709
1128	64.4681
1124	64.483
1120	64.5797
1116	64.8442
1112	64.7012
1108	64.1973
1104	64.0735
1100	64.4198
1096	64.4427
1092	64.2869
1088	64.7715
1084	65.2121
1080	65.0136
1076	64.6235
1072	64.4126
1068	64.4514
1064	64.6128
1060	64.6555
1056	64.4841
1052	64.4128
1048	64.422
1044	64.3595
1040	64.4137
1036	64.4228
1032	64.2636
1028	64.167
1024	64.2335
1020	64.3431
1016	64.4467
1012	64.5365
1008	64.5206
1004	64.4945
1000	64.5591
996	 64.5249
992	 64.3591
988	 64.2708
984	 64.2934
980	 64.3586
976	 64.4
972	 64.3181
968	 64.2712
964	 64.4116
960	 64.5442
956	 64.5455
952	 64.4954
948	 64.3995
944	 64.2723
940	 64.2819
936	 64.4155
932	 64.4342
928	 64.3092
924	 64.286
920	 64.4354
916	 64.4951
912	 64.3961
908	 64.3573
904	 64.322
900	 64.1914
896	 64.1083
892	 64.1054
888	 64.1743
884	 64.2506
880	 64.2662
876	 64.2241
872	 64.1431
868	 64.1857
864	 64.3403
860	 64.4183
856	 64.3797
852	 64.3535
848	 64.3822
844	 64.279
840	 64.0778
836	 63.9259
832	 63.8148
828	 63.8801
824	 64.0883
820	 64.1294
816	 64.0238
812	 64.0419
808	 64.0256
804	 63.8136
800	 63.7337
796	 63.8654
792	 63.9297
788	 63.8274
784	 63.7154
780	 63.6884
776	 63.7064
772	 63.7288
768	 63.6958
764	 63.7951
760	 63.9431
756	 63.7242
752	 63.6974
748	 63.9622
744	 63.7567
740	 63.416
736	 63.3486
732	 63.4659
728	 63.5404
724	 63.3685
720	 63.3536
716	 63.5736
712	 63.6874
708	 63.5989
704	 63.3681
700	 63.2126
696	 63.2044
692	 63.3132
688	 63.2412
684	 62.8759
680	 62.7612
676	 63.0383
672	 63.2252
668	 63.1166
664	 62.9761
660	 62.9037
656	 62.875
652	 62.8173
648	 62.6363
644	 62.4352
640	 62.3594
636	 62.3595
632	 62.4863
628	 62.7774
624	 62.8156
620	 62.6685
616	 62.7133
612	 62.8734
608	 62.7568
604	 62.1712
600	 61.7471
596	 61.8192
592	 62.0676
588	 62.2803
584	 62.3314
580	 62.1373
576	 61.6952
572	 61.4363
568	 61.5827
564	 61.7096
560	 61.4789
556	 61.0634
552	 60.9517
548	 61.1061
544	 61.228
540	 61.4093
536	 61.5474
532	 61.5098
528	 61.7333
524	 61.8468
520	 61.2467
516	 60.8727
512	 60.8883
508	 60.5852
504	 60.3581
500	 60.6372
496	 60.8942
492	 60.5261
488	 60.0517
484	 59.804
480	 59.4225
476	 59.1794
472	 59.2504
468	 59.4322
464	 59.2942
460	 59.1108
456	 59.6791
452	 59.2289
448	 58.3444
444	 59.9583
440	 61.2578
436	 59.4438
432	 57.1654
428	 56.307
424	 56.6045
420	 58.5763
416	 61.2133
412	 62.7109
408	 62.6774
404	 64.5525
400	 71.939
396	 87.8851
392	 86.6776
388	 55.8274
384	 40.6772
380	 68.397
376	 81.8385
372	 54.0921
370	 45.8357