File: Bakgrunnsmateriale/MATLAB/FTIR/ftir_data/subBb/Mapping_121/C-4040-8_t23.asc
PE IR       SPECTRUM    SPECTRUM    ASCII       PEDS        1.60
  -1
C-AD26~1.ASC
17/03/27
16:24:49.00
17/03/27
16:25:15.00
tln
$C-4040-8_t0023$<tbV0>[13.0,-7.8,8.0,0.0,27,1,0]
27.028
64

2002,4.07
MIRTGS : RIGHTBACK : INTERNAL 2
MIR : ON : INTERNAL 2
OPTKBR

0.200000
8
8.000000
FILLER
RATIO
SPECTRUM
UNLOCKED 256

DOUBLE
64
COMBINED
1
0
0

0.002000
RATIO

1
0
TRUE
51149
0
LEFT NOT FITTED RIGHT NOT FITTED 0
NONE
NONE
15600
12
4.427000
51148
TRUE
1 0 8 72 0 0 0 0

15798

#HDR
-1
-1
#GR
µM
%T
2.38419e-05
0.0
2.000000
0.002000
12515
8
86.7836
39.1683
#DATA
2.000000	 64.341
2.018000	 65.0606
2.036000	 64.8487
2.054000	 64.1865
2.072000	 64.9006
2.090000	 64.8619
2.108000	 64.8661
2.126000	 64.7502
2.144000	 64.7775
2.162000	 64.8473
2.180000	 64.942
2.198000	 64.8866
2.216000	 64.3914
2.234000	 64.2547
2.252000	 63.5687
2.270000	 63.8073
2.288000	 79.7056
2.306000	 64.3574
2.324000	 63.8938
2.342000	 64.3446
2.360000	 64.4968
2.378000	 64.5269
2.396000	 65.2463
2.414000	 65.0887
2.432000	 64.7444
2.450000	 64.9942
2.468000	 65.2856
2.486000	 64.8658
2.504000	 64.7761
2.522000	 64.9511
2.540000	 64.9346
2.558000	 64.5998
2.576000	 65.003
2.594000	 64.8624
2.612000	 64.7344
2.630000	 64.8355
2.648000	 64.8886
2.666000	 64.8704
2.684000	 65.0784
2.702000	 65.0343
2.720000	 65.0529
2.738000	 65.0329
2.756000	 65.314
2.774000	 65.082
2.792000	 65.1045
2.810000	 65.2025
2.828000	 65.0023
2.846000	 65.157
2.864000	 64.9504
2.882000	 65.1408
2.900000	 65.0681
2.918000	 65.0343
2.936000	 64.8599
2.954000	 64.8831
2.972000	 64.9859
2.990000	 64.8712
3.008000	 64.9883
3.026000	 65.0666
3.044000	 64.9473
3.062000	 65.1084
3.080000	 65.0527
3.098000	 65.073
3.116000	 64.9743
3.134000	 65.0499
3.152000	 64.988
3.170000	 64.98
3.188000	 64.9718
3.206000	 64.9662
3.224000	 65.1992
3.242000	 65.1472
3.260000	 65.1604
3.278000	 64.9854
3.296000	 65.0937
3.314000	 65.0467
3.332000	 65.0132
3.350000	 64.8571
3.368000	 65.0805
3.386000	 64.9823
3.404000	 64.807
3.422000	 64.643
3.440000	 64.9616
3.458000	 64.8887
3.476000	 64.8721
3.494000	 64.7995
3.512000	 64.9077
3.530000	 64.9428
3.548000	 65.0906
3.566000	 65.0696
3.584000	 65.1883
3.602000	 65.0583
3.620000	 65.1451
3.638000	 65.1744
3.656000	 64.9108
3.674000	 65.0695
3.692000	 65.0406
3.710000	 65.2184
3.728000	 65.0981
3.746000	 65.18
3.764000	 64.9665
3.782000	 65.0809
3.800000	 65.2676
3.818000	 65.0308
3.836000	 65.1229
3.854000	 64.987
3.872000	 64.9322
3.890000	 65.112
3.908000	 65.0484
3.926000	 65.1953
3.944000	 65.1532
3.962000	 65.1001
3.980000	 65.0947
3.998000	 65.1808
4.016000	 65.2345
4.034000	 65.0989
4.052000	 65.1297
4.070000	 64.9681
4.088000	 65.1933
4.106000	 65.0977
4.124000	 65.3734
4.141999	 65.4238
4.160000	 64.9944
4.178000	 65.0957
4.196000	 65.2384
4.214000	 65.1755
4.232000	 65.3234
4.250000	 65.2669
4.268000	 65.238
4.286000	 65.1691
4.304000	 65.2052
4.322000	 65.1901
4.340000	 65.2112
4.358000	 65.2555
4.375999	 65.203
4.394000	 65.1711
4.412000	 65.1289
4.430000	 65.1682
4.448000	 65.1185
4.466000	 65.1663
4.484000	 65.0921
4.502000	 64.9827
4.520000	 65.0913
4.538000	 65.1509
4.556000	 65.3156
4.574000	 65.323
4.592000	 65.2001
4.609999	 65.26
4.628000	 65.0495
4.646000	 64.9768
4.664000	 65.216
4.682000	 65.2394
4.700000	 65.2863
4.718000	 65.3047
4.736000	 65.2251
4.754000	 65.1818
4.772000	 65.1458
4.790000	 65.1414
4.808000	 65.1454
4.826000	 65.0348
4.843999	 65.3637
4.862000	 65.357
4.880000	 65.1041
4.898000	 65.0586
4.916000	 65.1688
4.934000	 65.1799
4.952000	 65.1477
4.970000	 65.1832
4.988000	 65.2954
5.006000	 65.408
5.024000	 65.1899
5.042000	 65.1895
5.060000	 65.2568
5.077999	 65.212
5.096000	 65.2185
5.114000	 65.2467
5.132000	 65.2453
5.150000	 65.2526
5.168000	 65.2845
5.186000	 65.309
5.204000	 65.2474
5.222000	 65.147
5.240000	 65.1155
5.258000	 65.0825
5.276000	 65.0837
5.294000	 65.1583
5.312000	 65.2809
5.330000	 65.2396
5.348000	 65.1544
5.366000	 65.1708
5.384000	 65.1468
5.402000	 65.1648
5.420000	 65.2704
5.438000	 65.1501
5.456000	 65.1468
5.474000	 65.1741
5.492000	 65.2283
5.510000	 65.2215
5.528000	 65.1742
5.546000	 65.114
5.564000	 65.0886
5.582000	 65.1104
5.600000	 65.2125
5.618000	 65.1231
5.636000	 64.9807
5.654000	 65.0774
5.672000	 65.1646
5.690000	 65.1783
5.708000	 65.1058
5.726000	 64.9522
5.744000	 64.9117
5.762000	 64.9416
5.780000	 64.9835
5.798000	 65.0088
5.816000	 65.0723
5.834000	 65.1306
5.852000	 65.1433
5.870000	 65.1373
5.888000	 65.2869
5.906000	 65.325
5.923999	 65.2215
5.942000	 65.114
5.960000	 65.1049
5.978000	 65.1223
5.996000	 65.0908
6.014000	 65.098
6.032000	 65.065
6.050000	 64.9972
6.068000	 65.0435
6.086000	 65.0409
6.104000	 64.9907
6.122000	 65.0477
6.140000	 65.0884
6.158000	 65.0682
6.176000	 65.0524
6.194000	 65
6.212000	 64.9987
6.230000	 65.0375
6.248000	 65.0022
6.266000	 65.0322
6.284000	 65.1078
6.302000	 65.1466
6.320000	 65.1782
6.338000	 65.0755
6.356000	 64.9423
6.374000	 64.9049
6.392000	 64.9205
6.410000	 64.9886
6.428000	 65.0033
6.446000	 64.9124
6.464000	 64.8558
6.482000	 64.9344
6.500000	 65.0235
6.518000	 65.0524
6.536000	 65.0428
6.554000	 64.972
6.572000	 64.9117
6.590000	 64.9237
6.608000	 64.9821
6.626000	 65.0537
6.644000	 65.0994
6.662000	 65.0924
6.680000	 65.0579
6.698000	 65.0384
6.716000	 65.0561
6.734000	 65.1384
6.752000	 65.1642
6.770000	 65.0992
6.788000	 65.0472
6.806000	 64.9753
6.824000	 64.8496
6.842000	 64.778
6.860000	 64.8611
6.878000	 65.0131
6.896000	 65.1159
6.914000	 65.159
6.932000	 65.0935
6.950000	 64.9626
6.968000	 64.9193
6.986000	 64.9471
7.004000	 64.9245
7.022000	 64.8809
7.040000	 64.8989
7.058000	 64.9522
7.076000	 65.0027
7.094000	 65.0369
7.112000	 65.0289
7.130000	 65.0026
7.148000	 65.0096
7.166000	 65.0381
7.184000	 65.0508
7.202000	 65.0613
7.220000	 65.0709
7.238000	 65.0214
7.256000	 64.9296
7.274000	 64.8927
7.292000	 64.9049
7.310000	 64.8974
7.328000	 64.8964
7.346000	 64.9461
7.364000	 65.0014
7.382000	 64.9965
7.400000	 64.9299
7.418000	 64.8684
7.436000	 64.8585
7.454000	 64.8659
7.472000	 64.8695
7.490000	 64.8988
7.508000	 64.9367
7.526000	 64.9506
7.544000	 64.963
7.562000	 64.9744
7.580000	 64.9337
7.598000	 64.8469
7.616000	 64.7951
7.634000	 64.8325
7.652000	 64.9255
7.670000	 64.9853
7.688000	 64.9612
7.706000	 64.9072
7.724000	 64.9072
7.742000	 64.9434
7.760000	 64.9316
7.778000	 64.8758
7.796000	 64.8666
7.814000	 64.924
7.832000	 64.9626
7.850000	 64.9343
7.868000	 64.8952
7.886000	 64.9034
7.904000	 64.9342
7.922000	 64.9362
7.940000	 64.91
7.958000	 64.8924
7.976000	 64.9009
7.994000	 64.9201
8.012000	 64.929
8.030000	 64.9241
8.048000	 64.9199
8.065999	 64.9223
8.084000	 64.9135
8.102000	 64.8756
8.120000	 64.8235
8.138000	 64.7938
8.155999	 64.8075
8.173999	 64.8615
8.192000	 64.9327
8.210000	 64.9788
8.228000	 64.9641
8.246000	 64.8955
8.263999	 64.8088
8.282000	 64.7322
8.300000	 64.6879
8.318000	 64.6948
8.336000	 64.7319
8.353999	 64.748
8.372000	 64.7286
8.390000	 64.7088
8.408000	 64.7106
8.426000	 64.7179
8.443999	 64.7214
8.462000	 64.7371
8.480000	 64.7729
8.498000	 64.8135
8.516000	 64.8416
8.533999	 64.8487
8.552000	 64.8267
8.570000	 64.7801
8.588000	 64.7406
8.606000	 64.7438
8.624000	 64.7895
8.641999	 64.8448
8.660000	 64.8807
8.678000	 64.8876
8.696000	 64.8661
8.714000	 64.8212
8.731999	 64.7719
8.750000	 64.7492
8.768000	 64.7669
8.786000	 64.8031
8.804000	 64.8156
8.821999	 64.7819
8.840000	 64.7185
8.858000	 64.6618
8.876000	 64.6347
8.894000	 64.64
8.911999	 64.6682
8.930000	 64.7014
8.948000	 64.7149
8.966000	 64.6956
8.984000	 64.6643
9.001999	 64.6659
9.020000	 64.7264
9.038000	 64.8221
9.056000	 64.9032
9.074000	 64.9352
9.092000	 64.9181
9.109999	 64.8724
9.128000	 64.8225
9.146000	 64.7921
9.164000	 64.8001
9.182000	 64.8454
9.199999	 64.8962
9.218000	 64.9029
9.236000	 64.8309
9.254000	 64.6879
9.272000	 64.5213
9.289999	 64.3877
9.308000	 64.3214
9.326000	 64.3213
9.344000	 64.367
9.362000	 64.4386
9.379999	 64.5282
9.398000	 64.6265
9.416000	 64.7116
9.434000	 64.7577
9.452000	 64.7595
9.469999	 64.7468
9.488000	 64.7631
9.506000	 64.8206
9.524000	 64.8807
9.542000	 64.8859
9.560000	 64.8138
9.577999	 64.6905
9.596000	 64.5603
9.614000	 64.4548
9.632000	 64.3877
9.650000	 64.3694
9.667999	 64.4054
9.686000	 64.4843
9.704000	 64.5714
9.722000	 64.6293
9.740000	 64.6485
9.757999	 64.6608
9.776000	 64.7183
9.794000	 64.8549
9.812000	 65.0623
9.830000	 65.2915
9.847999	 65.4782
9.866000	 65.5664
9.884000	 65.5258
9.902000	 65.3609
9.920000	 65.1125
9.937999	 64.8476
9.956000	 64.6322
9.974000	 64.5014
9.992000	 64.4462
10.01	64.4255
10.028	64.4015
10.046	64.3684
10.064	64.3598
10.082	64.4204
10.1	64.5723
10.118	64.7904
10.136	65.0073
10.154	65.1476
10.172	65.1628
10.19	65.0564
10.208	64.8801
10.226	64.7035
10.244	64.5828
10.262	64.5345
10.28	64.5373
10.298	64.5513
10.316	64.541
10.334	64.4943
10.352	64.4221
10.37	64.3491
10.388	64.3018
10.406	64.2982
10.424	64.3469
10.442	64.4415
10.46	64.5611
10.478	64.6718
10.496	64.7394
10.514	64.747
10.532	64.7037
10.55	64.6351
10.568	64.5687
10.586	64.5187
10.604	64.484
10.622	64.4585
10.64	64.4425
10.658	64.444
10.676	64.4712
10.694	64.5207
10.712	64.5729
10.73	64.6018
10.748	64.5886
10.766	64.534
10.784	64.4565
10.802	64.3861
10.82	64.3485
10.838	64.3566
10.856	64.4057
10.874	64.4767
10.892	64.5449
10.91	64.5876
10.928	64.5932
10.946	64.5625
10.964	64.5083
10.982	64.4502
11	64.4048
11.018	64.3813
11.036	64.3791
11.054	64.391
11.072	64.4091
11.09	64.4291
11.108	64.4514
11.126	64.478
11.144	64.5091
11.162	64.5397
11.18	64.5607
11.198	64.5622
11.216	64.5402
11.234	64.4998
11.252	64.4541
11.27	64.419
11.288	64.4082
11.306	64.4262
11.324	64.4661
11.342	64.513
11.36	64.551
11.378	64.5662
11.396	64.5537
11.414	64.5165
11.432	64.4634
11.45	64.405
11.468	64.3532
11.486	64.3188
11.504	64.3101
11.522	64.3313
11.54	64.3794
11.558	64.4433
11.576	64.5054
11.594	64.5483
11.612	64.5582
11.63	64.5322
11.648	64.4791
11.666	64.4161
11.684	64.3631
11.702	64.3344
11.72	64.3355
11.738	64.361
11.756	64.3984
11.774	64.4317
11.792	64.4479
11.81	64.4394
11.828	64.4058
11.846	64.353
11.864	64.2912
11.882	64.2316
11.9	64.1844
11.918	64.1565
11.936	64.1499
11.954	64.1617
11.972	64.1845
11.99	64.2082
12.008	64.2232
12.026	64.2228
12.044	64.2049
12.062	64.1729
12.08	64.135
12.098	64.1001
12.116	64.0755
12.134	64.063
12.152	64.0593
12.17	64.0572
12.188	64.0485
12.206	64.027
12.224	63.9912
12.242	63.9439
12.26	63.8911
12.278	63.84
12.296	63.7967
12.314	63.7649
12.332	63.7456
12.35	63.7367
12.368	63.7349
12.386	63.7363
12.404	63.7388
12.422	63.742
12.44	63.7475
12.458	63.7569
12.476	63.7716
12.494	63.791
12.512	63.8128
12.53	63.8334
12.548	63.8493
12.566	63.8586
12.584	63.8599
12.602	63.8536
12.62	63.8415
12.638	63.8261
12.656	63.8104
12.674	63.7974
12.692	63.79
12.71	63.7908
12.728	63.8012
12.746	63.8217
12.764	63.8503
12.782	63.8837
12.8	63.917
12.818	63.945
12.836	63.9631
12.854	63.9688
12.872	63.9619
12.89	63.9442
12.908	63.919
12.926	63.8905
12.944	63.8625
12.962	63.8386
12.98	63.8218
12.998	63.8146
13.016	63.8191
13.034	63.8369
13.052	63.8686
13.07	63.9126
13.088	63.9655
13.106	64.0211
13.124	64.072
13.142	64.1098
13.16	64.1276
13.178	64.1211
13.196	64.0898
13.214	64.0366
13.232	63.9675
13.25	63.8902
13.268	63.8122
13.286	63.7399
13.304	63.6777
13.322	63.6271
13.34	63.5881
13.358	63.5591
13.376	63.5381
13.394	63.5228
13.412	63.5114
13.43	63.5019
13.448	63.4931
13.466	63.4836
13.484	63.4721
13.502	63.4581
13.52	63.4413
13.538	63.4223
13.556	63.4024
13.574	63.3831
13.592	63.3658
13.61	63.3516
13.628	63.3408
13.646	63.3331
13.664	63.3278
13.682	63.3236
13.7	63.3199
13.718	63.3164
13.736	63.3136
13.754	63.3123
13.772	63.3138
13.79	63.3191
13.808	63.3289
13.826	63.3431
13.844	63.3608
13.862	63.3803
13.88	63.3995
13.898	63.4167
13.916	63.4301
13.934	63.4388
13.952	63.4425
13.97	63.4416
13.988	63.4371
14.006	63.43
14.024	63.4217
14.042	63.413
14.06	63.4049
14.078	63.3979
14.096	63.3927
14.114	63.3899
14.132	63.39
14.15	63.3933
14.168	63.3999
14.186	63.4089
14.204	63.4191
14.222	63.4283
14.24	63.4334
14.258	63.431
14.276	63.4181
14.294	63.3924
14.312	63.3525
14.33	63.2981
14.348	63.2309
14.366	63.1542
14.384	63.0731
14.402	62.9933
14.42	62.9207
14.438	62.8606
14.456	62.817
14.474	62.7922
14.492	62.7863
14.51	62.797
14.528	62.8202
14.546	62.8502
14.564	62.8814
14.582	62.9082
14.6	62.9258
14.618	62.9307
14.636	62.9213
14.654	62.898
14.672	62.8624
14.69	62.8174
14.708	62.7666
14.726	62.7142
14.744	62.6649
14.762	62.6227
14.78	62.5913
14.798	62.5733
14.816	62.5711
14.834	62.5859
14.852	62.6177
14.87	62.6652
14.888	62.726
14.906	62.7969
14.924	62.8737
14.942	62.9514
14.96	63.0248
14.978	63.0893
14.996	63.1411
15.014	63.1771
15.032	63.1957
15.05	63.1974
15.068	63.1837
15.086	63.1569
15.104	63.1203
15.122	63.0781
15.14	63.0337
15.158	62.989
15.176	62.9455
15.194	62.9035
15.212	62.8622
15.23	62.8203
15.248	62.7768
15.266	62.7304
15.284	62.6807
15.302	62.6284
15.32	62.5749
15.338	62.5223
15.356	62.4734
15.374	62.4309
15.392	62.3968
15.41	62.3726
15.428	62.359
15.446	62.3559
15.464	62.3619
15.482	62.3755
15.5	62.3946
15.518	62.4169
15.536	62.4409
15.554	62.4655
15.572	62.4897
15.59	62.5136
15.608	62.5377
15.626	62.5625
15.644	62.5888
15.662	62.6171
15.68	62.6474
15.698	62.6799
15.716	62.7142
15.734	62.7495
15.752	62.7852
15.77	62.8203
15.788	62.8537
15.806	62.8843
15.824	62.9113
15.842	62.9342
15.86	62.9522
15.878	62.9652
15.896	62.9728
15.914	62.9745
15.932	62.9703
15.95	62.9602
15.968	62.9442
15.986	62.922
16.004	62.8935
16.022	62.8584
16.04	62.8167
16.058	62.7687
16.076	62.7144
16.094	62.6546
16.112	62.5903
16.13	62.5225
16.148	62.4528
16.166	62.3835
16.184	62.3161
16.202	62.2528
16.22	62.1958
16.238	62.1461
16.256	62.105
16.274	62.0728
16.292	62.0491
16.31	62.0333
16.328	62.0234
16.346	62.0174
16.364	62.0138
16.382	62.01
16.4	62.005
16.418	61.9979
16.436	61.9885
16.454	61.9778
16.472	61.9666
16.49	61.957
16.508	61.9511
16.526	61.9502
16.544	61.9568
16.562	61.9712
16.58	61.9942
16.598	62.0255
16.616	62.064
16.634	62.1088
16.652	62.1574
16.67	62.2079
16.688	62.2583
16.706	62.3059
16.724	62.3495
16.742	62.3873
16.76	62.4181
16.778	62.4416
16.796	62.4573
16.814	62.4657
16.832	62.4668
16.85	62.4616
16.868	62.4509
16.886	62.4355
16.904	62.417
16.922	62.3959
16.94	62.3732
16.958	62.3503
16.976	62.3275
16.994	62.3064
17.012	62.2877
17.03	62.2719
17.048	62.2597
17.066	62.2514
17.084	62.2471
17.102	62.2469
17.12	62.2505
17.138	62.2577
17.156	62.2679
17.174	62.2807
17.192	62.2951
17.21	62.3107
17.228	62.3264
17.246	62.3415
17.264	62.3551
17.282	62.3661
17.3	62.374
17.318	62.3774
17.336	62.3758
17.354	62.3685
17.372	62.3551
17.39	62.3356
17.408	62.31
17.426	62.2791
17.444	62.2431
17.462	62.2036
17.48	62.1611
17.498	62.1177
17.516	62.0747
17.534	62.0332
17.552	61.9948
17.57	61.9601
17.588	61.9303
17.606	61.9058
17.624	61.8872
17.642	61.8746
17.66	61.8683
17.678	61.8679
17.696	61.8733
17.714	61.8839
17.732	61.8995
17.75	61.9198
17.768	61.9442
17.786	61.9725
17.804	62.0038
17.822	62.038
17.84	62.0739
17.858	62.111
17.876	62.1484
17.894	62.1849
17.912	62.2197
17.93	62.2512
17.948	62.279
17.966	62.3013
17.984	62.318
18.002	62.3277
18.02	62.3307
18.038	62.3264
18.056	62.3157
18.074	62.2986
18.092	62.2766
18.11	62.2501
18.128	62.2208
18.146	62.1893
18.164	62.1574
18.182	62.1255
18.2	62.0947
18.218	62.0651
18.236	62.0371
18.254	62.0098
18.272	61.9833
18.29	61.9558
18.308	61.9273
18.326	61.8954
18.344	61.8601
18.362	61.8197
18.38	61.7741
18.398	61.7225
18.416	61.6654
18.434	61.6028
18.452	61.5361
18.47	61.4657
18.488	61.3938
18.506	61.3208
18.524	61.2493
18.542	61.1799
18.56	61.1147
18.578	61.054
18.596	60.9995
18.614	60.9514
18.632	60.9102
18.65	60.8759
18.668	60.8483
18.686	60.8272
18.704	60.8116
18.722	60.8013
18.74	60.7951
18.758	60.7928
18.776	60.7931
18.794	60.7958
18.812	60.8001
18.83	60.8057
18.848	60.8118
18.866	60.8186
18.884	60.8258
18.902	60.8338
18.92	60.8426
18.938	60.8526
18.956	60.8642
18.974	60.8777
18.992	60.8935
19.01	60.9117
19.028	60.9329
19.046	60.9568
19.064	60.9837
19.082	61.0132
19.1	61.0449
19.118	61.0783
19.136	61.1124
19.154	61.1465
19.172	61.1789
19.19	61.2092
19.208	61.2354
19.226	61.2571
19.244	61.2725
19.262	61.2816
19.28	61.2831
19.298	61.2774
19.316	61.2642
19.334	61.2438
19.352	61.2177
19.37	61.1859
19.388	61.1516
19.406	61.1146
19.424	61.0787
19.442	61.0438
19.46	61.0132
19.478	60.9873
19.496	60.9678
19.514	60.9555
19.532	60.9505
19.55	60.9536
19.568	60.9636
19.586	60.9804
19.604	61.0027
19.622	61.0287
19.64	61.0579
19.658	61.087
19.676	61.1162
19.694	61.1422
19.712	61.1653
19.73	61.1831
19.748	61.1953
19.766	61.2013
19.784	61.2005
19.802	61.1934
19.82	61.1799
19.838	61.1607
19.856	61.1366
19.874	61.108
19.892	61.0764
19.91	61.0418
19.928	61.0059
19.946	60.9686
19.964	60.9308
19.982	60.8928
20	60.8546
20.018	60.8164
20.036	60.7778
20.054	60.7387
20.072	60.6989
20.09	60.6578
20.108	60.6154
20.126	60.5712
20.144	60.525
20.162	60.477
20.18	60.427
20.198	60.3757
20.216	60.3234
20.234	60.2705
20.252	60.219
20.27	60.1684
20.288	60.1212
20.306	60.0771
20.324	60.038
20.342	60.005
20.36	59.9782
20.378	59.9598
20.396	59.9492
20.414	59.9478
20.432	59.9558
20.45	59.9727
20.468	59.9987
20.486	60.0331
20.504	60.0745
20.522	60.1232
20.54	60.1767
20.558	60.2353
20.576	60.2964
20.594	60.3591
20.612	60.4225
20.63	60.4836
20.648	60.5431
20.666	60.5976
20.684	60.6474
20.702	60.6909
20.72	60.7266
20.738	60.755
20.756	60.7745
20.774	60.7854
20.792	60.7876
20.81	60.7807
20.828	60.7657
20.846	60.743
20.864	60.7126
20.882	60.6765
20.9	60.6344
20.918	60.5881
20.936	60.5387
20.954	60.4865
20.972	60.4344
20.99	60.3817
21.008	60.3304
21.026	60.2812
21.044	60.2342
21.062	60.1905
21.08	60.15
21.098	60.1127
21.116	60.0789
21.134	60.0482
21.152	60.0203
21.17	59.9952
21.188	59.9717
21.206	59.95
21.224	59.9293
21.242	59.9084
21.26	59.8876
21.278	59.8661
21.296	59.8436
21.314	59.8201
21.332	59.7952
21.35	59.769
21.368	59.7412
21.386	59.7117
21.404	59.6805
21.422	59.647
21.44	59.6115
21.458	59.5734
21.476	59.5327
21.494	59.4893
21.512	59.4424
21.53	59.3922
21.548	59.3382
21.566	59.2796
21.584	59.2168
21.602	59.1489
21.62	59.0759
21.638	58.9976
21.656	58.9138
21.674	58.8245
21.692	58.7302
21.71	58.6306
21.728	58.5264
21.746	58.4188
21.764	58.3071
21.782	58.1934
21.8	58.0788
21.818	57.963
21.836	57.8484
21.854	57.7349
21.872	57.6234
21.89	57.5168
21.908	57.4139
21.926	57.3171
21.944	57.2277
21.962	57.1451
21.98	57.072
21.998	57.0085
22.016	56.9548
22.034	56.9118
22.052	56.8793
22.07	56.8577
22.088	56.8477
22.106	56.849
22.124	56.8618
22.142	56.8862
22.16	56.922
22.178	56.969
22.196	57.0274
22.214	57.0964
22.232	57.1749
22.25	57.2635
22.268	57.3606
22.286	57.4655
22.304	57.5786
22.322	57.6976
22.34	57.8227
22.358	57.9533
22.376	58.0869
22.394	58.2243
22.412	58.3641
22.43	58.5039
22.448	58.6446
22.466	58.7844
22.484	58.9218
22.502	59.0577
22.52	59.1902
22.538	59.3186
22.556	59.4433
22.574	59.5635
22.592	59.679
22.61	59.79
22.628	59.8965
22.646	59.9981
22.664	60.0954
22.682	60.189
22.7	60.2786
22.718	60.3645
22.736	60.4472
22.754	60.5264
22.772	60.6025
22.79	60.6759
22.808	60.7465
22.826	60.8137
22.844	60.877
22.862	60.9367
22.88	60.9918
22.898	61.042
22.916	61.0877
22.934	61.1263
22.952	61.1577
22.97	61.182
22.988	61.1961
23.006	61.2
23.024	61.1937
23.042	61.174
23.06	61.1403
23.078	61.0934
23.096	61.0325
23.114	60.9574
23.132	60.8686
23.15	60.7665
23.168	60.6504
23.186	60.5214
23.204	60.382
23.222	60.2314
23.24	60.0706
23.258	59.9026
23.276	59.7267
23.294	59.5438
23.312	59.3576
23.33	59.1675
23.348	58.9741
23.366	58.7803
23.384	58.5857
23.402	58.3906
23.42	58.1975
23.438	58.0067
23.456	57.8178
23.474	57.6318
23.492	57.4492
23.51	57.2695
23.528	57.0921
23.546	56.917
23.564	56.7442
23.582	56.5732
23.6	56.4033
23.618	56.2349
23.636	56.0687
23.654	55.9054
23.672	55.7444
23.69	55.5861
23.708	55.4305
23.726	55.2778
23.744	55.1273
23.762	54.978
23.78	54.8302
23.798	54.6844
23.816	54.5413
23.834	54.3997
23.852	54.2615
23.87	54.1287
23.888	54.0003
23.906	53.8772
23.924	53.7622
23.942	53.6548
23.96	53.5551
23.978	53.4654
23.996	53.3864
24.014	53.3171
24.032	53.2595
24.05	53.2151
24.068	53.1828
24.086	53.1629
24.104	53.1558
24.122	53.1613
24.14	53.1793
24.158	53.2098
24.176	53.2538
24.194	53.3098
24.212	53.3748
24.23	53.4494
24.248	53.5336
24.266	53.6226
24.284	53.7145
24.302	53.8127
24.32	53.9093
24.338	53.9971
24.356	54.083
24.374	54.1592
24.392	54.214
24.41	54.2515
24.428	54.2699
24.446	54.2568
24.464	54.2081
24.482	54.13
24.5	54.0109
24.518	53.841
24.536	53.6263
24.554	53.3637
24.572	53.0471
24.59	52.6747
24.608	52.25
24.626	51.7767
24.644	51.2535
24.662	50.6783
24.68	50.0633
24.698	49.419
24.716	48.7341
24.734	48.0212
24.752	47.3005
24.77	46.569
24.788	45.8236
24.806	45.0889
24.824	44.3806
24.842	43.6829
24.86	43.0114
24.878	42.3862
24.896	41.8
24.914	41.2541
24.932	40.7658
24.95	40.3451
24.968	39.9823
24.986	39.6828
25.004	39.4531
25.022	39.2898
25.04	39.1937
25.058	39.1693
25.076	39.219
25.094	39.3402
25.112	39.5329
25.13	39.7971
25.148	40.1306
25.166	40.5352
25.184	41.014
25.202	41.5671
25.22	42.1914
25.238	42.8934
25.256	43.6796
25.274	44.5483
25.292	45.4982
25.31	46.5312
25.328	47.6503
25.346	48.8564
25.364	50.141
25.382	51.4956
25.4	52.9263
25.418	54.4303
25.436	55.9918
25.454	57.6001
25.472	59.271
25.49	60.9869
25.508	62.724
25.526	64.4846
25.544	66.279
25.562	68.0729
25.58	69.8343
25.598	71.5897
25.616	73.3243
25.634	74.9981
25.652	76.5894
25.67	78.1304
25.688	79.5888
25.706	80.9253
25.724	82.1402
25.742	83.2491
25.76	84.2227
25.778	85.0339
25.796	85.6929
25.814	86.2033
25.832	86.5577
25.85	86.7484
25.868	86.775
25.886	86.6501
25.904	86.3868
25.922	85.9766
25.94	85.4122
25.958	84.7352
25.976	83.9868
25.994	83.1428
26.012	82.2071
26.03	81.229
26.048	80.2506
26.066	79.2361
26.084	78.2027
26.102	77.1897
26.12	76.2232
26.138	75.2752
26.156	74.3607
26.174	73.501
26.192	72.7125
26.21	71.9852
26.228	71.3033
26.246	70.6506
26.264	70.035
26.282	69.4607
26.3	68.9004
26.318	68.3275
26.336	67.7486
26.354	67.1695
26.372	66.5786
26.39	65.9649
26.408	65.3319
26.426	64.6821
26.444	64.0144
26.462	63.3241
26.48	62.591
26.498	61.8433
26.516	61.1192
26.534	60.4459
26.552	59.7896
26.57	59.1705
26.588	58.6209
26.606	58.1652
26.624	57.7876
26.642	57.4816
26.66	57.2436
26.678	57.0752
26.696	56.9852
26.714	56.9562
26.732	56.9683
26.75	57.0267
26.768	57.1668
26.786	57.3224
26.804	57.4207
26.822	57.4231
26.84	57.3806
26.858	57.2735
26.876	57.0757
26.894	56.7613
26.912	56.3339
26.93	55.8303
26.948	55.2882
26.966	54.6975
26.984	53.9844
27.002	53.2779
27.02	52.7205
27.028	52.574