File: Bakgrunnsmateriale/MATLAB/FTIR/ftir_data/subBb/Mapping_121/C-4040-8_t09_cm-1.asc
PE IR       SPECTRUM    SPECTRUM    ASCII       PEDS        1.60
  -1
C-99E0~1.ASC
17/03/27
15:12:29.00
17/03/27
15:12:29.00
tln
$C-4040-8_t0009$<tbV0>[-7.8,-13.0,8.0,0.0,27,1,0]
370
64

2002,4.07
MIRTGS : RIGHTBACK : INTERNAL 2
MIR : ON : INTERNAL 2
OPTKBR

0.200000
8
8.000000
FILLER
RATIO
SPECTRUM
UNLOCKED 256

DOUBLE
64
COMBINED
1
0
0

1.000000
RATIO

1
0
TRUE
51149
0
LEFT NOT FITTED RIGHT NOT FITTED 0
NONE
NONE
15600
12
4.427000
51148
TRUE
1 0 8 72 0 0 0 0

15798

#HDR
-1
-1
#GR
CM-1
%T
2.38419e-05
0.0
5000
-1.000000
4631
8
80.5619
22.2258
#DATA
5000	63.9547
4996	63.9498
4992	64.1686
4988	64.3665
4984	64.2576
4980	64.0301
4976	63.7769
4972	63.7665
4968	64.1328
4964	63.8547
4960	63.2041
4956	63.3752
4952	63.7763
4948	63.5287
4944	62.6671
4940	62.4888
4936	63.3391
4932	63.8247
4928	63.6674
4924	63.6539
4920	63.9989
4916	64.4981
4912	65.0938
4908	65.3803
4904	65.1384
4900	64.6537
4896	64.2699
4892	64.2873
4888	64.3805
4884	64.5
4880	64.7674
4876	64.7619
4872	64.4553
4868	64.2139
4864	64.1902
4860	64.2348
4856	64.1956
4852	64.1082
4848	64.1379
4844	64.3292
4840	64.5982
4836	64.8283
4832	64.6928
4828	64.2435
4824	64.0626
4820	64.1861
4816	64.2374
4812	64.2746
4808	64.3568
4804	64.2907
4800	64.0617
4796	63.8567
4792	63.9846
4788	64.4173
4784	64.7059
4780	64.755
4776	64.5563
4772	64.2018
4768	64.0793
4764	64.1392
4760	64.2984
4756	64.4743
4752	64.4679
4748	64.484
4744	64.4958
4740	64.3265
4736	64.1931
4732	64.1672
4728	64.2308
4724	64.4459
4720	64.7216
4716	64.8371
4712	64.6108
4708	64.3795
4704	64.4984
4700	64.5386
4696	64.2522
4692	64.0937
4688	64.2848
4684	64.6121
4680	64.8204
4676	64.6818
4672	64.2636
4668	64.0747
4664	64.1887
4660	64.2834
4656	64.3833
4652	64.4678
4648	64.4591
4644	64.4347
4640	64.422
4636	64.4023
4632	64.4419
4628	64.5133
4624	64.4458
4620	64.404
4616	64.3677
4612	64.1233
4608	63.9773
4604	64.0425
4600	64.184
4596	64.3129
4592	64.1848
4588	63.9159
4584	63.8531
4580	64.1108
4576	64.3236
4572	64.0325
4568	63.7178
4564	63.9369
4560	64.2671
4556	64.2279
4552	63.9243
4548	63.8257
4544	63.9485
4540	63.8109
4536	63.5962
4532	63.5638
4528	63.545
4524	63.5556
4520	63.6486
4516	63.7131
4512	63.8802
4508	64.155
4504	64.2047
4500	63.9166
4496	63.4969
4492	63.2169
4488	63.2982
4484	63.4186
4480	63.6853
4476	63.8728
4472	63.6974
4468	63.7359
4464	63.9555
4460	64.402
4456	65.2253
4452	67.532
4448	70.0908
4444	69.7899
4440	66.8472
4436	63.1833
4432	61.8687
4428	62.4434
4424	62.2266
4420	61.8087
4416	62.1499
4412	62.506
4408	62.5638
4404	62.3657
4400	62.5952
4396	64.2191
4392	69.1966
4388	78.0002
4384	79.8513
4380	72.8882
4376	68.1637
4372	66.0035
4368	64.59
4364	64.3132
4360	64.3758
4356	64.644
4352	64.4194
4348	64.1182
4344	64.2142
4340	64.2501
4336	63.8947
4332	63.5607
4328	63.8082
4324	64.1009
4320	63.8246
4316	63.4
4312	63.2607
4308	63.2719
4304	63.2641
4300	63.2779
4296	63.3851
4292	63.5653
4288	63.6692
4284	63.7175
4280	63.8421
4276	63.9188
4272	63.9158
4268	63.9079
4264	63.7663
4260	63.5921
4256	63.5998
4252	63.7123
4248	63.7896
4244	63.7895
4240	63.821
4236	63.903
4232	63.9964
4228	63.9751
4224	63.8047
4220	63.7493
4216	63.7655
4212	63.8175
4208	63.9947
4204	64.0459
4200	63.9772
4196	63.9804
4192	63.8671
4188	63.6631
4184	63.5065
4180	63.5349
4176	63.6659
4172	63.4907
4168	63.2219
4164	63.3234
4160	63.8295
4156	64.2725
4152	64.33
4148	64.1928
4144	64.0177
4140	63.8678
4136	63.8478
4132	63.9903
4128	64.1319
4124	64.1766
4120	64.1798
4116	64.154
4112	64.0906
4108	64.0192
4104	63.9582
4100	63.8944
4096	63.9409
4092	64.0901
4088	64.084
4084	64.0342
4080	64.1469
4076	64.222
4072	64.1399
4068	64.0578
4064	64.1092
4060	64.3487
4056	64.4902
4052	64.2164
4048	64.0098
4044	64.1699
4040	64.3179
4036	64.3358
4032	64.2397
4028	64.1454
4024	64.2482
4020	64.3906
4016	64.3522
4012	64.2448
4008	64.2729
4004	64.3312
4000	64.2698
3996	64.1888
3992	64.1438
3988	64.0736
3984	63.9228
3980	63.7565
3976	63.7038
3972	63.7651
3968	63.95
3964	64.21
3960	64.2547
3956	64.0876
3952	64.0177
3948	64.1021
3944	64.1458
3940	63.9573
3936	63.7711
3932	63.8316
3928	63.9403
3924	63.9365
3920	63.8588
3916	63.8128
3912	63.8581
3908	63.9871
3904	64.1703
3900	64.2209
3896	64.1351
3892	64.1415
3888	64.16
3884	64.1168
3880	64.0458
3876	63.9932
3872	64.0235
3868	64.0219
3864	63.9816
3860	64.0983
3856	64.3952
3852	64.4698
3848	64.2916
3844	64.2108
3840	64.1489
3836	63.9624
3832	63.641
3828	63.3755
3824	63.4236
3820	63.6428
3816	63.7137
3812	63.7473
3808	63.9608
3804	64.1809
3800	64.148
3796	63.8442
3792	63.5821
3788	63.5527
3784	63.61
3780	63.6656
3776	63.7673
3772	63.9273
3768	63.9732
3764	63.8924
3760	63.8875
3756	63.985
3752	64.0016
3748	63.9123
3744	63.9101
3740	63.9847
3736	64.0603
3732	64.0425
3728	63.9508
3724	63.9473
3720	63.9941
3716	64.0447
3712	63.9883
3708	63.7416
3704	63.5798
3700	63.5846
3696	63.6597
3692	63.8183
3688	63.8689
3684	63.7459
3680	63.773
3676	64.0531
3672	64.1797
3668	63.9557
3664	63.7398
3660	63.6783
3656	63.712
3652	63.9365
3648	63.9843
3644	63.6828
3640	63.5758
3636	63.7478
3632	63.9222
3628	63.9199
3624	63.7444
3620	63.6344
3616	63.6214
3612	63.6606
3608	63.6684
3604	63.5839
3600	63.5476
3596	63.5593
3592	63.592
3588	63.6873
3584	63.6933
3580	63.6118
3576	63.5509
3572	63.4848
3568	63.4948
3564	63.5949
3560	63.6622
3556	63.5733
3552	63.4099
3548	63.3137
3544	63.2222
3540	63.1301
3536	63.1324
3532	63.2704
3528	63.4083
3524	63.3693
3520	63.2298
3516	63.1391
3512	63.1105
3508	63.1887
3504	63.388
3500	63.5141
3496	63.4225
3492	63.3833
3488	63.4072
3484	63.3017
3480	63.1882
3476	63.0422
3472	63.0254
3468	63.3166
3464	63.5112
3460	63.4588
3456	63.399
3452	63.3094
3448	63.1791
3444	63.1392
3440	63.1717
3436	63.2203
3432	63.2252
3428	63.1358
3424	63.0554
3420	63.0432
3416	63.0942
3412	63.1198
3408	63.0019
3404	62.9253
3400	62.9652
3396	62.935
3392	62.8774
3388	62.9192
3384	63.0512
3380	63.1852
3376	63.1808
3372	63.084
3368	63.0898
3364	63.124
3360	62.9826
3356	62.8481
3352	62.8687
3348	62.9265
3344	62.9822
3340	63.0038
3336	63.0094
3332	62.9795
3328	62.8802
3324	62.8594
3320	62.9565
3316	63.0409
3312	63.0349
3308	62.9617
3304	62.8677
3300	62.7893
3296	62.7697
3292	62.7703
3288	62.7135
3284	62.6595
3280	62.707
3276	62.7939
3272	62.7763
3268	62.6887
3264	62.6699
3260	62.6845
3256	62.7198
3252	62.787
3248	62.8147
3244	62.7972
3240	62.7887
3236	62.8376
3232	62.8036
3228	62.6484
3224	62.6011
3220	62.6876
3216	62.7631
3212	62.7962
3208	62.7578
3204	62.5902
3200	62.4337
3196	62.3907
3192	62.3577
3188	62.3436
3184	62.3825
3180	62.4857
3176	62.5494
3172	62.4598
3168	62.4186
3164	62.4661
3160	62.4758
3156	62.5098
3152	62.5306
3148	62.4401
3144	62.3111
3140	62.3092
3136	62.424
3132	62.4207
3128	62.362
3124	62.4617
3120	62.5609
3116	62.5094
3112	62.3556
3108	62.2563
3104	62.2933
3100	62.3501
3096	62.3968
3092	62.4197
3088	62.381
3084	62.3309
3080	62.2871
3076	62.264
3072	62.2745
3068	62.2891
3064	62.3062
3060	62.3295
3056	62.3748
3052	62.3832
3048	62.2549
3044	62.16
3040	62.1805
3036	62.1644
3032	62.135
3028	62.1267
3024	62.0891
3020	62.0315
3016	62.0079
3012	62.0275
3008	62.0127
3004	62.0081
3000	62.0888
2996	62.1222
2992	62.0514
2988	61.9492
2984	61.8772
2980	61.8566
2976	61.8344
2972	61.8008
2968	61.8065
2964	61.8258
2960	61.7735
2956	61.6611
2952	61.5804
2948	61.5999
2944	61.6817
2940	61.702
2936	61.6884
2932	61.6931
2928	61.6039
2924	61.4575
2920	61.3909
2916	61.4074
2912	61.4324
2908	61.4447
2904	61.51
2900	61.5978
2896	61.5807
2892	61.4777
2888	61.4334
2884	61.4951
2880	61.5209
2876	61.4445
2872	61.4235
2868	61.4893
2864	61.5406
2860	61.5255
2856	61.4781
2852	61.4099
2848	61.3299
2844	61.4007
2840	61.4946
2836	61.4228
2832	61.369
2828	61.4104
2824	61.4476
2820	61.4037
2816	61.317
2812	61.299
2808	61.3283
2804	61.3298
2800	61.2997
2796	61.2296
2792	61.1722
2788	61.1479
2784	61.1749
2780	61.2365
2776	61.1891
2772	61.0719
2768	61.0478
2764	61.0809
2760	61.0928
2756	61.103
2752	61.1034
2748	61.1106
2744	61.1619
2740	61.1904
2736	61.1286
2732	61.0409
2728	60.9881
2724	60.9908
2720	61.0456
2716	61.0339
2712	60.9278
2708	60.8501
2704	60.8294
2700	60.8391
2696	60.8972
2692	60.9409
2688	60.9277
2684	60.9087
2680	60.874
2676	60.8404
2672	60.807
2668	60.7786
2664	60.7608
2660	60.671
2656	60.6023
2652	60.614
2648	60.6213
2644	60.6129
2640	60.5978
2636	60.5749
2632	60.5877
2628	60.6709
2624	60.6667
2620	60.5546
2616	60.5039
2612	60.5018
2608	60.4856
2604	60.4688
2600	60.407
2596	60.3287
2592	60.348
2588	60.4001
2584	60.4481
2580	60.4772
2576	60.3989
2572	60.3096
2568	60.2661
2564	60.2268
2560	60.2192
2556	60.2469
2552	60.2708
2548	60.2427
2544	60.175
2540	60.1411
2536	60.162
2532	60.2032
2528	60.2487
2524	60.275
2520	60.2434
2516	60.1859
2512	60.1409
2508	60.1197
2504	60.1672
2500	60.0949
2496	59.8893
2492	59.8372
2488	59.8332
2484	59.7916
2480	59.8125
2476	59.8539
2472	59.8948
2468	59.9194
2464	59.9201
2460	59.8982
2456	59.7936
2452	59.7102
2448	59.8016
2444	59.9467
2440	59.99
2436	59.8764
2432	59.6486
2428	59.5055
2424	59.4723
2420	59.4778
2416	59.519
2412	59.5009
2408	59.4347
2404	59.4397
2400	59.517
2396	59.5791
2392	59.5805
2388	59.5366
2384	59.4676
2380	59.4071
2376	59.3981
2372	59.4519
2368	59.5167
2364	59.5317
2360	59.4583
2356	59.3215
2352	59.2664
2348	59.2888
2344	59.2496
2340	59.211
2336	59.2263
2332	59.2182
2328	59.2077
2324	59.2123
2320	59.1372
2316	59.0088
2312	58.9816
2308	59.0845
2304	59.1756
2300	59.1069
2296	58.9849
2292	58.978
2288	59.0019
2284	58.9861
2280	58.9757
2276	58.9636
2272	58.9894
2268	59.0244
2264	58.94
2260	58.8397
2256	58.8458
2252	58.8433
2248	58.796
2244	58.766
2240	58.7161
2236	58.6515
2232	58.6426
2228	58.6216
2224	58.5237
2220	58.4561
2216	58.4683
2212	58.5119
2208	58.5343
2204	58.4911
2200	58.434
2196	58.4203
2192	58.4229
2188	58.3934
2184	58.3657
2180	58.3671
2176	58.3451
2172	58.3296
2168	58.3517
2164	58.2962
2160	58.1569
2156	58.1292
2152	58.1993
2148	58.2852
2144	58.3492
2140	58.3338
2136	58.276
2132	58.1607
2128	58.0798
2124	58.0864
2120	58.1005
2116	58.0875
2112	58.0194
2108	57.9813
2104	58.007
2100	57.9756
2096	57.8916
2092	57.8783
2088	57.9777
2084	58.115
2080	58.1568
2076	58.0813
2072	57.9343
2068	57.7936
2064	57.7556
2060	57.6925
2056	57.5563
2052	57.5137
2048	57.5771
2044	57.6689
2040	57.6949
2036	57.6196
2032	57.5664
2028	57.5594
2024	57.4844
2020	57.3869
2016	57.3946
2012	57.4731
2008	57.5197
2004	57.4991
2000	57.4651
1996	57.4483
1992	57.3932
1988	57.3025
1984	57.2278
1980	57.1867
1976	57.1913
1972	57.1987
1968	57.1566
1964	57.1252
1960	57.1404
1956	57.1423
1952	57.1036
1948	57.0658
1944	57.0477
1940	56.9973
1936	56.9428
1932	56.9233
1928	56.8969
1924	56.8947
1920	56.9241
1916	56.8946
1912	56.8193
1908	56.7779
1904	56.7851
1900	56.8023
1896	56.7865
1892	56.7456
1888	56.6841
1884	56.6329
1880	56.6316
1876	56.6486
1872	56.6059
1868	56.4756
1864	56.3943
1860	56.4307
1856	56.4656
1852	56.4728
1848	56.4888
1844	56.4718
1840	56.3913
1836	56.3093
1832	56.3129
1828	56.333
1824	56.303
1820	56.2742
1816	56.2889
1812	56.2988
1808	56.2222
1804	56.1445
1800	56.151
1796	56.2024
1792	56.2061
1788	56.152
1784	56.1385
1780	56.1278
1776	56.134
1772	56.1148
1768	55.9791
1764	55.9241
1760	55.9879
1756	56.0045
1752	55.9141
1748	55.7544
1744	55.6414
1740	55.6395
1736	55.71
1732	55.713
1728	55.6106
1724	55.5942
1720	55.7536
1716	55.8582
1712	55.7478
1708	55.6375
1704	55.701
1700	55.8084
1696	55.7627
1692	55.6536
1688	55.7015
1684	55.7383
1680	55.572
1676	55.4455
1672	55.433
1668	55.3453
1664	55.2066
1660	55.2665
1656	55.5664
1652	55.6894
1648	55.4891
1644	55.2325
1640	55.117
1636	55.1319
1632	55.1051
1628	55.0531
1624	55.0547
1620	55.1152
1616	55.1413
1612	55.0352
1608	54.9468
1604	54.8913
1600	54.7695
1596	54.6595
1592	54.6176
1588	54.5985
1584	54.5943
1580	54.6462
1576	54.7
1572	54.7126
1568	54.7182
1564	54.7878
1560	54.8852
1556	54.7792
1552	54.5647
1548	54.5327
1544	54.67
1540	54.7128
1536	54.5713
1532	54.4557
1528	54.459
1524	54.5356
1520	54.5567
1516	54.4507
1512	54.4642
1508	54.6255
1504	54.5972
1500	54.434
1496	54.3336
1492	54.2647
1488	54.1783
1484	54.0617
1480	54.0312
1476	54.0992
1472	54.0839
1468	53.9454
1464	53.8934
1460	54.0236
1456	54.0748
1452	53.978
1448	53.9777
1444	53.9757
1440	53.8815
1436	53.813
1432	53.7172
1428	53.5872
1424	53.5805
1420	53.6506
1416	53.6248
1412	53.5479
1408	53.4423
1404	53.3529
1400	53.3754
1396	53.4523
1392	53.5021
1388	53.4431
1384	53.3029
1380	53.2206
1376	53.2027
1372	53.1614
1368	53.0795
1364	53.0144
1360	53.0089
1356	53.0536
1352	53.0958
1348	53.072
1344	53.0217
1340	52.9766
1336	52.8941
1332	52.8178
1328	52.814
1324	52.8728
1320	52.9308
1316	52.9001
1312	52.7849
1308	52.6759
1304	52.6175
1300	52.5902
1296	52.5774
1292	52.6091
1288	52.6352
1284	52.5535
1280	52.4101
1276	52.3187
1272	52.3342
1268	52.4172
1264	52.4514
1260	52.4463
1256	52.4464
1252	52.411
1248	52.3562
1244	52.267
1240	52.1806
1236	52.2002
1232	52.2562
1228	52.2488
1224	52.2101
1220	52.1286
1216	51.9841
1212	51.8893
1208	51.9067
1204	51.9334
1200	51.9096
1196	51.8996
1192	51.9078
1188	51.86
1184	51.7843
1180	51.7794
1176	51.8317
1172	51.8439
1168	51.7997
1164	51.7395
1160	51.6994
1156	51.6903
1152	51.6734
1148	51.6361
1144	51.603
1140	51.5588
1136	51.4349
1132	51.3167
1128	51.3404
1124	51.4257
1120	51.467
1116	51.437
1112	51.3746
1108	51.3238
1104	51.2682
1100	51.2275
1096	51.2498
1092	51.2507
1088	51.1132
1084	50.9202
1080	50.8062
1076	50.8223
1072	50.8923
1068	50.8677
1064	50.8364
1060	50.9593
1056	51.0815
1052	51.0939
1048	51.0164
1044	50.856
1040	50.7723
1036	50.7464
1032	50.7243
1028	50.773
1024	50.8258
1020	50.7974
1016	50.6917
1012	50.6206
1008	50.5961
1004	50.5521
1000	50.5459
996	 50.5339
992	 50.4733
988	 50.3903
984	 50.2858
980	 50.223
976	 50.1917
972	 50.1566
968	 50.1552
964	 50.22
960	 50.2005
956	 50.0907
952	 50.0992
948	 50.0452
944	 49.9106
940	 49.8531
936	 49.7077
932	 49.6011
928	 49.5769
924	 49.4264
920	 49.3515
916	 49.5334
912	 49.9819
908	 50.1769
904	 49.6834
900	 49.2272
896	 49.3877
892	 49.9373
888	 50.1898
884	 49.8599
880	 49.5499
876	 49.3966
872	 49.0351
868	 48.7675
864	 48.8235
860	 48.941
856	 49.0046
852	 48.9578
848	 48.858
844	 48.9072
840	 49.0702
836	 49.1419
832	 48.9604
828	 48.6659
824	 48.5012
820	 48.4185
816	 48.3989
812	 48.3811
808	 48.3994
804	 48.5283
800	 48.5149
796	 48.4241
792	 48.4251
788	 48.3918
784	 48.2717
780	 48.1035
776	 48.0728
772	 48.1673
768	 48.1568
764	 48.0403
760	 47.8761
756	 47.6733
752	 47.55
748	 47.6891
744	 47.9516
740	 47.9072
736	 47.6095
732	 47.4101
728	 47.394
724	 47.5149
720	 47.6184
716	 47.5725
712	 47.3663
708	 47.0862
704	 46.839
700	 46.6535
696	 46.5145
692	 46.4361
688	 46.5078
684	 46.5628
680	 46.4663
676	 46.4562
672	 46.5527
668	 46.5764
664	 46.4706
660	 46.2615
656	 46.0457
652	 45.9951
648	 46.1353
644	 46.2677
640	 46.1289
636	 45.8984
632	 45.9374
628	 45.9106
624	 45.6542
620	 45.5285
616	 45.5768
612	 45.5358
608	 45.3921
604	 45.217
600	 45.0594
596	 45.0642
592	 45.0588
588	 44.9133
584	 44.6785
580	 44.3621
576	 44.1501
572	 44.133
568	 44.2617
564	 44.5448
560	 44.7182
556	 44.4943
552	 44.0062
548	 43.7023
544	 43.6784
540	 43.4494
536	 42.9591
532	 42.7063
528	 42.6716
524	 42.3572
520	 42.0537
516	 42.4916
512	 43.2285
508	 43.4224
504	 43.0554
500	 42.9089
496	 42.9162
492	 42.3689
488	 41.8567
484	 42.0557
480	 42.7552
476	 42.8534
472	 41.7456
468	 40.6204
464	 40.3238
460	 40.4828
456	 40.7135
452	 40.6457
448	 40.8397
444	 41.4104
440	 40.7247
436	 39.1304
432	 37.8258
428	 37.1687
424	 38.1174
420	 40.4048
416	 41.7892
412	 40.0355
408	 37.4428
404	 39.4757
400	 42.481
396	 41.331
392	 39.1583
388	 38.7721
384	 42.2705
380	 34.0695
376	 22.7954
372	 26.9771
370	 37.3578