File: Bakgrunnsmateriale/MATLAB/FTIR/ftir_data/subBb/Mapping_121/C-4040-8_t78.asc
PE IR       SPECTRUM    SPECTRUM    ASCII       PEDS        1.60
  -1
C-C14A~1.ASC
17/03/27
20:54:11.00
17/03/27
20:54:37.00
tln
$C-4040-8_t0078$<tbV0>[13.0,5.2,8.0,0.0,27,1,0]
27.028
64

2002,4.07
MIRTGS : RIGHTBACK : INTERNAL 2
MIR : ON : INTERNAL 2
OPTKBR

0.200000
8
8.000000
FILLER
RATIO
SPECTRUM
UNLOCKED 256

DOUBLE
64
COMBINED
1
0
0

0.002000
RATIO

1
0
TRUE
51149
0
LEFT NOT FITTED RIGHT NOT FITTED 0
NONE
NONE
15600
12
4.427000
51148
TRUE
1 0 8 72 0 0 0 0

15798

#HDR
-1
-1
#GR
µM
%T
2.38419e-05
0.0
2.000000
0.002000
12515
8
92.0546
44.4094
#DATA
2.000000	 65.2309
2.018000	 65.7069
2.036000	 64.9615
2.054000	 64.7992
2.072000	 64.7993
2.090000	 64.9089
2.108000	 65.3992
2.126000	 65.1546
2.144000	 65.3671
2.162000	 65.3013
2.180000	 65.4272
2.198000	 65.5109
2.216000	 64.1801
2.234000	 64.3165
2.252000	 64.6086
2.270000	 63.4437
2.288000	 68.9995
2.306000	 64.6626
2.324000	 64.5585
2.342000	 64.6769
2.360000	 65.0497
2.378000	 64.9293
2.396000	 65.8751
2.414000	 65.2258
2.432000	 65.2594
2.450000	 65.1784
2.468000	 65.0161
2.486000	 65.2453
2.504000	 65.34
2.522000	 65.3106
2.540000	 65.1502
2.558000	 65.4426
2.576000	 65.1343
2.594000	 65.1751
2.612000	 64.8213
2.630000	 65.0727
2.648000	 65.1176
2.666000	 65.333
2.684000	 65.1956
2.702000	 65.2255
2.720000	 65.4155
2.738000	 64.9655
2.756000	 65.2309
2.774000	 65.3477
2.792000	 65.3169
2.810000	 65.1864
2.828000	 65.2786
2.846000	 65.303
2.864000	 65.0441
2.882000	 65.5666
2.900000	 65.3681
2.918000	 65.246
2.936000	 65.1793
2.954000	 65.4288
2.972000	 65.2259
2.990000	 65.2435
3.008000	 65.0644
3.026000	 65.1503
3.044000	 65.2675
3.062000	 65.1969
3.080000	 65.2167
3.098000	 65.2926
3.116000	 65.1054
3.134000	 65.2442
3.152000	 65.2079
3.170000	 65.1515
3.188000	 65.5057
3.206000	 65.1902
3.224000	 65.2604
3.242000	 65.2487
3.260000	 65.37
3.278000	 65.1963
3.296000	 65.3409
3.314000	 65.057
3.332000	 65.241
3.350000	 65.0547
3.368000	 65.0927
3.386000	 65.0996
3.404000	 65.1729
3.422000	 64.9548
3.440000	 65.0199
3.458000	 65.1569
3.476000	 64.9906
3.494000	 65.281
3.512000	 65.139
3.530000	 65.2948
3.548000	 65.407
3.566000	 65.3761
3.584000	 65.279
3.602000	 65.3754
3.620000	 65.3413
3.638000	 65.3559
3.656000	 65.3032
3.674000	 65.2245
3.692000	 65.3841
3.710000	 65.3205
3.728000	 65.2614
3.746000	 65.3776
3.764000	 65.4059
3.782000	 65.3454
3.800000	 65.4505
3.818000	 65.3512
3.836000	 65.2894
3.854000	 65.2893
3.872000	 65.3511
3.890000	 65.2588
3.908000	 65.4274
3.926000	 65.3662
3.944000	 65.3342
3.962000	 65.3857
3.980000	 65.1979
3.998000	 65.2649
4.016000	 65.4206
4.034000	 65.3942
4.052000	 65.3824
4.070000	 65.3165
4.088000	 65.3447
4.106000	 65.3843
4.124000	 64.4398
4.141999	 65.2666
4.160000	 65.3928
4.178000	 65.3512
4.196000	 65.4972
4.214000	 65.4826
4.232000	 65.4075
4.250000	 65.4334
4.268000	 65.3455
4.286000	 65.3729
4.304000	 65.4072
4.322000	 65.3898
4.340000	 65.3143
4.358000	 65.3154
4.375999	 65.4726
4.394000	 65.3749
4.412000	 65.3089
4.430000	 65.4364
4.448000	 65.321
4.466000	 65.3656
4.484000	 65.3987
4.502000	 65.4519
4.520000	 65.2838
4.538000	 65.3288
4.556000	 65.4002
4.574000	 65.337
4.592000	 65.3804
4.609999	 65.2733
4.628000	 65.115
4.646000	 65.0456
4.664000	 65.2899
4.682000	 65.41
4.700000	 65.3755
4.718000	 65.3551
4.736000	 65.395
4.754000	 65.3282
4.772000	 65.4295
4.790000	 65.5362
4.808000	 65.6495
4.826000	 65.4104
4.843999	 65.2456
4.862000	 65.4427
4.880000	 65.4105
4.898000	 65.3861
4.916000	 65.3847
4.934000	 65.3489
4.952000	 65.4895
4.970000	 65.5101
4.988000	 65.3194
5.006000	 65.3639
5.024000	 65.4426
5.042000	 65.3923
5.060000	 65.3419
5.077999	 65.3407
5.096000	 65.3281
5.114000	 65.405
5.132000	 65.3974
5.150000	 65.3635
5.168000	 65.4851
5.186000	 65.3877
5.204000	 65.3372
5.222000	 65.5051
5.240000	 65.4793
5.258000	 65.3546
5.276000	 65.4162
5.294000	 65.4122
5.312000	 65.3678
5.330000	 65.2715
5.348000	 65.3686
5.366000	 65.4058
5.384000	 65.4893
5.402000	 65.4197
5.420000	 65.2821
5.438000	 65.2716
5.456000	 65.3376
5.474000	 65.4255
5.492000	 65.5289
5.510000	 65.4976
5.528000	 65.386
5.546000	 65.3414
5.564000	 65.2988
5.582000	 65.3074
5.600000	 65.4788
5.618000	 65.4313
5.636000	 65.2526
5.654000	 65.2542
5.672000	 65.3696
5.690000	 65.5321
5.708000	 65.4158
5.726000	 65.1991
5.744000	 65.1377
5.762000	 65.0759
5.780000	 65.1538
5.798000	 65.3541
5.816000	 65.5051
5.834000	 65.4529
5.852000	 65.1093
5.870000	 65.1378
5.888000	 65.3049
5.906000	 65.4074
5.923999	 65.4641
5.942000	 65.356
5.960000	 65.2367
5.978000	 65.2411
5.996000	 65.2555
6.014000	 65.3254
6.032000	 65.3043
6.050000	 65.2361
6.068000	 65.2612
6.086000	 65.4138
6.104000	 65.4366
6.122000	 65.2804
6.140000	 65.275
6.158000	 65.2338
6.176000	 65.1226
6.194000	 65.128
6.212000	 65.1876
6.230000	 65.2061
6.248000	 65.1835
6.266000	 65.0558
6.284000	 65.0197
6.302000	 65.0904
6.320000	 65.1734
6.338000	 65.3021
6.356000	 65.2679
6.374000	 65.1545
6.392000	 65.2039
6.410000	 65.2639
6.428000	 65.1612
6.446000	 65.0629
6.464000	 65.0954
6.482000	 65.1231
6.500000	 65.0906
6.518000	 65.0755
6.536000	 65.1089
6.554000	 65.1422
6.572000	 65.1089
6.590000	 65.0019
6.608000	 64.8993
6.626000	 64.9128
6.644000	 65.0224
6.662000	 65.0953
6.680000	 65.123
6.698000	 65.2317
6.716000	 65.3154
6.734000	 65.2653
6.752000	 65.2448
6.770000	 65.2948
6.788000	 65.2904
6.806000	 65.232
6.824000	 65.1704
6.842000	 65.1591
6.860000	 65.2746
6.878000	 65.2856
6.896000	 65.0633
6.914000	 64.9537
6.932000	 65.0391
6.950000	 65.1558
6.968000	 65.2833
6.986000	 65.3703
7.004000	 65.3333
7.022000	 65.2545
7.040000	 65.2359
7.058000	 65.2295
7.076000	 65.1968
7.094000	 65.1737
7.112000	 65.1549
7.130000	 65.138
7.148000	 65.1553
7.166000	 65.1579
7.184000	 65.1006
7.202000	 65.0864
7.220000	 65.1758
7.238000	 65.2597
7.256000	 65.2615
7.274000	 65.2046
7.292000	 65.1186
7.310000	 65.0473
7.328000	 65.0319
7.346000	 65.0519
7.364000	 65.0623
7.382000	 65.0581
7.400000	 65.0619
7.418000	 65.0669
7.436000	 65.073
7.454000	 65.1068
7.472000	 65.1347
7.490000	 65.0914
7.508000	 65.0172
7.526000	 65.0048
7.544000	 65.0613
7.562000	 65.1253
7.580000	 65.1473
7.598000	 65.1175
7.616000	 65.0566
7.634000	 64.9854
7.652000	 64.9305
7.670000	 64.9289
7.688000	 64.9811
7.706000	 65.0385
7.724000	 65.0683
7.742000	 65.0855
7.760000	 65.1108
7.778000	 65.1423
7.796000	 65.1679
7.814000	 65.1797
7.832000	 65.1827
7.850000	 65.1919
7.868000	 65.2014
7.886000	 65.1766
7.904000	 65.1131
7.922000	 65.0628
7.940000	 65.0572
7.958000	 65.0654
7.976000	 65.0584
7.994000	 65.0436
8.012000	 65.0177
8.030000	 64.9654
8.048000	 64.9102
8.065999	 64.9018
8.084000	 64.9424
8.102000	 64.9715
8.120000	 64.9507
8.138000	 64.9224
8.155999	 64.9469
8.173999	 65.0124
8.192000	 65.0549
8.210000	 65.0505
8.228000	 65.0363
8.246000	 65.0474
8.263999	 65.0802
8.282000	 65.1102
8.300000	 65.1155
8.318000	 65.0827
8.336000	 65.025
8.353999	 64.9908
8.372000	 65.0207
8.390000	 65.0883
8.408000	 65.1196
8.426000	 65.0754
8.443999	 64.9901
8.462000	 64.9188
8.480000	 64.8733
8.498000	 64.8335
8.516000	 64.7987
8.533999	 64.7916
8.552000	 64.8152
8.570000	 64.8385
8.588000	 64.8358
8.606000	 64.8162
8.624000	 64.8023
8.641999	 64.7948
8.660000	 64.7767
8.678000	 64.7444
8.696000	 64.7165
8.714000	 64.7157
8.731999	 64.7527
8.750000	 64.8235
8.768000	 64.9113
8.786000	 64.9833
8.804000	 65.0056
8.821999	 64.9706
8.840000	 64.907
8.858000	 64.8544
8.876000	 64.8253
8.894000	 64.8013
8.911999	 64.765
8.930000	 64.7313
8.948000	 64.73
8.966000	 64.7673
8.984000	 64.8137
9.001999	 64.8377
9.020000	 64.8347
9.038000	 64.8227
9.056000	 64.8177
9.074000	 64.8209
9.092000	 64.8267
9.109999	 64.8299
9.128000	 64.8238
9.146000	 64.8006
9.164000	 64.7624
9.182000	 64.7294
9.199999	 64.7304
9.218000	 64.7792
9.236000	 64.8575
9.254000	 64.9249
9.272000	 64.9518
9.289999	 64.9427
9.308000	 64.9224
9.326000	 64.9069
9.344000	 64.8907
9.362000	 64.8626
9.379999	 64.8245
9.398000	 64.7908
9.416000	 64.7724
9.434000	 64.7658
9.452000	 64.7593
9.469999	 64.7439
9.488000	 64.7178
9.506000	 64.6912
9.524000	 64.6848
9.542000	 64.7174
9.560000	 64.7871
9.577999	 64.8674
9.596000	 64.9229
9.614000	 64.929
9.632000	 64.8821
9.650000	 64.7997
9.667999	 64.7123
9.686000	 64.6528
9.704000	 64.6434
9.722000	 64.6815
9.740000	 64.7381
9.757999	 64.7748
9.776000	 64.7701
9.794000	 64.7326
9.812000	 64.6923
9.830000	 64.677
9.847999	 64.6936
9.866000	 64.7284
9.884000	 64.7601
9.902000	 64.7732
9.920000	 64.7642
9.937999	 64.7379
9.956000	 64.7042
9.974000	 64.6751
9.992000	 64.6629
10.01	64.6767
10.028	64.7183
10.046	64.7774
10.064	64.8348
10.082	64.8685
10.1	64.8613
10.118	64.8102
10.136	64.7292
10.154	64.6431
10.172	64.5785
10.19	64.5523
10.208	64.5617
10.226	64.588
10.244	64.6068
10.262	64.6016
10.28	64.569
10.298	64.5125
10.316	64.4363
10.334	64.3526
10.352	64.2894
10.37	64.2872
10.388	64.3789
10.406	64.5609
10.424	64.7864
10.442	64.9822
10.46	65.0913
10.478	65.1016
10.496	65.0536
10.514	65.0062
10.532	65.0068
10.55	65.0618
10.568	65.1444
10.586	65.2097
10.604	65.2198
10.622	65.1559
10.64	65.0235
10.658	64.8438
10.676	64.6433
10.694	64.4431
10.712	64.2596
10.73	64.1082
10.748	64.0055
10.766	63.9711
10.784	64.018
10.802	64.1442
10.82	64.3321
10.838	64.5468
10.856	64.7526
10.874	64.9201
10.892	65.0343
10.91	65.0898
10.928	65.0899
10.946	65.0426
10.964	64.9601
10.982	64.8596
11	64.7582
11.018	64.6699
11.036	64.5991
11.054	64.5411
11.072	64.4884
11.09	64.4373
11.108	64.3927
11.126	64.3672
11.144	64.3721
11.162	64.4109
11.18	64.4782
11.198	64.5612
11.216	64.6452
11.234	64.7194
11.252	64.7763
11.27	64.8126
11.288	64.8285
11.306	64.8271
11.324	64.8132
11.342	64.7934
11.36	64.7741
11.378	64.7584
11.396	64.7451
11.414	64.7294
11.432	64.7052
11.45	64.6686
11.468	64.6207
11.486	64.5665
11.504	64.5137
11.522	64.4704
11.54	64.4422
11.558	64.4309
11.576	64.4349
11.594	64.4497
11.612	64.4681
11.63	64.4833
11.648	64.4908
11.666	64.4887
11.684	64.4789
11.702	64.4663
11.72	64.4564
11.738	64.4527
11.756	64.455
11.774	64.4606
11.792	64.4652
11.81	64.4672
11.828	64.4683
11.846	64.4721
11.864	64.4824
11.882	64.4997
11.9	64.5197
11.918	64.5336
11.936	64.532
11.954	64.5074
11.972	64.4577
11.99	64.3883
12.008	64.3099
12.026	64.236
12.044	64.1786
12.062	64.1456
12.08	64.138
12.098	64.151
12.116	64.177
12.134	64.2086
12.152	64.2409
12.17	64.2723
12.188	64.3042
12.206	64.3389
12.224	64.3781
12.242	64.421
12.26	64.4645
12.278	64.5034
12.296	64.5314
12.314	64.5438
12.332	64.5392
12.35	64.5195
12.368	64.49
12.386	64.458
12.404	64.43
12.422	64.4093
12.44	64.3951
12.458	64.3818
12.476	64.3609
12.494	64.3239
12.512	64.2655
12.53	64.1867
12.548	64.0942
12.566	63.9996
12.584	63.9159
12.602	63.8543
12.62	63.821
12.638	63.8173
12.656	63.8399
12.674	63.883
12.692	63.9402
12.71	64.0056
12.728	64.0741
12.746	64.1405
12.764	64.1994
12.782	64.2448
12.8	64.2713
12.818	64.2752
12.836	64.2556
12.854	64.2151
12.872	64.1604
12.89	64.0998
12.908	64.0414
12.926	63.9911
12.944	63.9525
12.962	63.9262
12.98	63.9113
12.998	63.9059
13.016	63.908
13.034	63.9165
13.052	63.9301
13.07	63.9467
13.088	63.9643
13.106	63.9807
13.124	63.9933
13.142	64.0008
13.16	64.0032
13.178	64.0025
13.196	64.002
13.214	64.0059
13.232	64.0186
13.25	64.044
13.268	64.0843
13.286	64.1405
13.304	64.2119
13.322	64.2963
13.34	64.3895
13.358	64.4851
13.376	64.5747
13.394	64.6482
13.412	64.6954
13.43	64.7064
13.448	64.6747
13.466	64.5976
13.484	64.4778
13.502	64.3227
13.52	64.1435
13.538	63.9532
13.556	63.7648
13.574	63.5896
13.592	63.4356
13.61	63.3072
13.628	63.206
13.646	63.1311
13.664	63.0814
13.682	63.0551
13.7	63.0513
13.718	63.0688
13.736	63.1072
13.754	63.1636
13.772	63.2345
13.79	63.3141
13.808	63.3962
13.826	63.4734
13.844	63.5395
13.862	63.59
13.88	63.6226
13.898	63.6374
13.916	63.6365
13.934	63.6233
13.952	63.6013
13.97	63.5733
13.988	63.5414
14.006	63.5061
14.024	63.4668
14.042	63.4233
14.06	63.3759
14.078	63.326
14.096	63.276
14.114	63.2297
14.132	63.1914
14.15	63.1651
14.168	63.1533
14.186	63.1571
14.204	63.1755
14.222	63.2055
14.24	63.2422
14.258	63.2802
14.276	63.3143
14.294	63.3401
14.312	63.3549
14.33	63.3578
14.348	63.3494
14.366	63.3314
14.384	63.3067
14.402	63.2778
14.42	63.2472
14.438	63.2163
14.456	63.1861
14.474	63.1576
14.492	63.1317
14.51	63.11
14.528	63.094
14.546	63.0858
14.564	63.0872
14.582	63.0996
14.6	63.1233
14.618	63.1575
14.636	63.1995
14.654	63.2455
14.672	63.2907
14.69	63.3305
14.708	63.3609
14.726	63.3783
14.744	63.3814
14.762	63.3706
14.78	63.3483
14.798	63.318
14.816	63.2836
14.834	63.2496
14.852	63.22
14.87	63.1968
14.888	63.181
14.906	63.1721
14.924	63.1681
14.942	63.1661
14.96	63.1621
14.978	63.1531
14.996	63.1366
15.014	63.1107
15.032	63.075
15.05	63.0306
15.068	62.9796
15.086	62.9249
15.104	62.8701
15.122	62.819
15.14	62.7749
15.158	62.7401
15.176	62.7163
15.194	62.7041
15.212	62.703
15.23	62.7117
15.248	62.7285
15.266	62.7512
15.284	62.7773
15.302	62.8044
15.32	62.8308
15.338	62.8549
15.356	62.8753
15.374	62.8909
15.392	62.9007
15.41	62.9039
15.428	62.8997
15.446	62.887
15.464	62.8652
15.482	62.8338
15.5	62.7926
15.518	62.7421
15.536	62.6834
15.554	62.618
15.572	62.548
15.59	62.4767
15.608	62.4065
15.626	62.3401
15.644	62.2799
15.662	62.228
15.68	62.1855
15.698	62.1527
15.716	62.1296
15.734	62.1149
15.752	62.1078
15.77	62.107
15.788	62.1109
15.806	62.1187
15.824	62.1294
15.842	62.1424
15.86	62.1571
15.878	62.173
15.896	62.1898
15.914	62.2065
15.932	62.2223
15.95	62.2361
15.968	62.2471
15.986	62.2543
16.004	62.2572
16.022	62.2557
16.04	62.2503
16.058	62.242
16.076	62.2317
16.094	62.221
16.112	62.2114
16.13	62.2037
16.148	62.1989
16.166	62.1969
16.184	62.1974
16.202	62.1997
16.22	62.2024
16.238	62.2045
16.256	62.205
16.274	62.2033
16.292	62.1998
16.31	62.1951
16.328	62.1913
16.346	62.1906
16.364	62.1948
16.382	62.2071
16.4	62.2287
16.418	62.2607
16.436	62.3033
16.454	62.3547
16.472	62.4135
16.49	62.4759
16.508	62.5381
16.526	62.5973
16.544	62.6484
16.562	62.6891
16.58	62.7173
16.598	62.731
16.616	62.7308
16.634	62.7167
16.652	62.6911
16.67	62.6562
16.688	62.6142
16.706	62.5697
16.724	62.5246
16.742	62.482
16.76	62.4447
16.778	62.4137
16.796	62.3905
16.814	62.375
16.832	62.3672
16.85	62.3656
16.868	62.3688
16.886	62.3756
16.904	62.3832
16.922	62.3903
16.94	62.3952
16.958	62.3964
16.976	62.3933
16.994	62.3849
17.012	62.3718
17.03	62.3538
17.048	62.332
17.066	62.3071
17.084	62.2802
17.102	62.2526
17.12	62.2249
17.138	62.1981
17.156	62.1726
17.174	62.1487
17.192	62.1263
17.21	62.1052
17.228	62.0848
17.246	62.0646
17.264	62.0444
17.282	62.0238
17.3	62.0029
17.318	61.9817
17.336	61.9609
17.354	61.9408
17.372	61.9225
17.39	61.9063
17.408	61.8934
17.426	61.8839
17.444	61.8783
17.462	61.8766
17.48	61.8785
17.498	61.8836
17.516	61.8913
17.534	61.901
17.552	61.9115
17.57	61.9225
17.588	61.9327
17.606	61.9417
17.624	61.949
17.642	61.9542
17.66	61.9571
17.678	61.9577
17.696	61.9562
17.714	61.9528
17.732	61.9482
17.75	61.9427
17.768	61.9372
17.786	61.9319
17.804	61.9277
17.822	61.9248
17.84	61.9237
17.858	61.9242
17.876	61.9264
17.894	61.9297
17.912	61.9341
17.93	61.9386
17.948	61.9429
17.966	61.9458
17.984	61.947
18.002	61.9454
18.02	61.9407
18.038	61.9322
18.056	61.9198
18.074	61.9036
18.092	61.8839
18.11	61.8611
18.128	61.8362
18.146	61.8097
18.164	61.7833
18.182	61.7578
18.2	61.7346
18.218	61.7149
18.236	61.6994
18.254	61.6889
18.272	61.6839
18.29	61.6846
18.308	61.691
18.326	61.7024
18.344	61.7186
18.362	61.7382
18.38	61.7607
18.398	61.7844
18.416	61.8083
18.434	61.831
18.452	61.851
18.47	61.8673
18.488	61.8782
18.506	61.8831
18.524	61.8807
18.542	61.8708
18.56	61.8524
18.578	61.8256
18.596	61.7906
18.614	61.7478
18.632	61.6988
18.65	61.6438
18.668	61.5858
18.686	61.5253
18.704	61.466
18.722	61.4084
18.74	61.3562
18.758	61.3098
18.776	61.2725
18.794	61.2445
18.812	61.2277
18.83	61.2216
18.848	61.2268
18.866	61.2421
18.884	61.2667
18.902	61.2988
18.92	61.3363
18.938	61.3775
18.956	61.4196
18.974	61.4609
18.992	61.4986
19.01	61.5321
19.028	61.5592
19.046	61.5802
19.064	61.5941
19.082	61.602
19.1	61.6045
19.118	61.6028
19.136	61.5989
19.154	61.5936
19.172	61.5895
19.19	61.5868
19.208	61.5877
19.226	61.5919
19.244	61.6002
19.262	61.6122
19.28	61.6267
19.298	61.6435
19.316	61.6603
19.334	61.6769
19.352	61.69
19.37	61.6998
19.388	61.7038
19.406	61.7019
19.424	61.6928
19.442	61.6763
19.46	61.6528
19.478	61.622
19.496	61.5855
19.514	61.5435
19.532	61.498
19.55	61.4498
19.568	61.4004
19.586	61.3517
19.604	61.3042
19.622	61.2599
19.64	61.2189
19.658	61.1825
19.676	61.1507
19.694	61.1238
19.712	61.1019
19.73	61.0841
19.748	61.0706
19.766	61.0598
19.784	61.0517
19.802	61.0448
19.82	61.0383
19.838	61.0315
19.856	61.0232
19.874	61.0133
19.892	61.0004
19.91	60.9848
19.928	60.9657
19.946	60.9433
19.964	60.9178
19.982	60.889
20	60.8579
20.018	60.8245
20.036	60.7897
20.054	60.7546
20.072	60.7192
20.09	60.6854
20.108	60.6529
20.126	60.6234
20.144	60.5969
20.162	60.5741
20.18	60.5556
20.198	60.5412
20.216	60.5312
20.234	60.5252
20.252	60.5225
20.27	60.5233
20.288	60.5256
20.306	60.5297
20.324	60.5338
20.342	60.5372
20.36	60.5394
20.378	60.5384
20.396	60.5347
20.414	60.5268
20.432	60.5148
20.45	60.4988
20.468	60.4785
20.486	60.4548
20.504	60.4287
20.522	60.4001
20.54	60.3717
20.558	60.3429
20.576	60.3162
20.594	60.2926
20.612	60.2726
20.63	60.2586
20.648	60.2501
20.666	60.2486
20.684	60.2543
20.702	60.2668
20.72	60.2866
20.738	60.3131
20.756	60.3445
20.774	60.3814
20.792	60.4207
20.81	60.4622
20.828	60.5041
20.846	60.5435
20.864	60.581
20.882	60.6132
20.9	60.6402
20.918	60.6607
20.936	60.673
20.954	60.6779
20.972	60.6744
20.99	60.6626
21.008	60.6435
21.026	60.617
21.044	60.5841
21.062	60.5468
21.08	60.5045
21.098	60.4601
21.116	60.4141
21.134	60.3673
21.152	60.3225
21.17	60.2788
21.188	60.2384
21.206	60.2019
21.224	60.1693
21.242	60.1419
21.26	60.1193
21.278	60.1017
21.296	60.0892
21.314	60.0815
21.332	60.0782
21.35	60.0794
21.368	60.084
21.386	60.0917
21.404	60.1025
21.422	60.1154
21.44	60.1307
21.458	60.1476
21.476	60.1656
21.494	60.185
21.512	60.2056
21.53	60.2272
21.548	60.2505
21.566	60.2758
21.584	60.3031
21.602	60.3337
21.62	60.3674
21.638	60.4048
21.656	60.4469
21.674	60.4935
21.692	60.5446
21.71	60.6007
21.728	60.6612
21.746	60.7254
21.764	60.794
21.782	60.8646
21.8	60.9361
21.818	61.0088
21.836	61.0785
21.854	61.1456
21.872	61.2083
21.89	61.2621
21.908	61.3086
21.926	61.3446
21.944	61.3679
21.962	61.3796
21.98	61.3767
21.998	61.3589
22.016	61.3265
22.034	61.2791
22.052	61.2162
22.07	61.1396
22.088	61.0499
22.106	60.9468
22.124	60.8338
22.142	60.7109
22.16	60.5792
22.178	60.4435
22.196	60.3023
22.214	60.1588
22.232	60.0173
22.25	59.8756
22.268	59.7384
22.286	59.6081
22.304	59.4833
22.322	59.3682
22.34	59.2632
22.358	59.1683
22.376	59.0862
22.394	59.0165
22.412	58.9595
22.43	58.9162
22.448	58.8865
22.466	58.8698
22.484	58.8658
22.502	58.8749
22.52	58.8947
22.538	58.925
22.556	58.9658
22.574	59.0132
22.592	59.0677
22.61	59.1283
22.628	59.1902
22.646	59.2551
22.664	59.3204
22.682	59.3811
22.7	59.4391
22.718	59.4915
22.736	59.5337
22.754	59.568
22.772	59.5914
22.79	59.6009
22.808	59.598
22.826	59.5814
22.844	59.5494
22.862	59.5028
22.88	59.4425
22.898	59.3682
22.916	59.28
22.934	59.1807
22.952	59.0705
22.97	58.9494
22.988	58.8222
23.006	58.6895
23.024	58.551
23.042	58.4116
23.06	58.2712
23.078	58.1299
23.096	57.9918
23.114	57.8572
23.132	57.7257
23.15	57.599
23.168	57.478
23.186	57.3614
23.204	57.2473
23.222	57.1367
23.24	57.0284
23.258	56.9197
23.276	56.811
23.294	56.7019
23.312	56.5901
23.33	56.4751
23.348	56.3577
23.366	56.2376
23.384	56.1139
23.402	55.9878
23.42	55.861
23.438	55.7321
23.456	55.6026
23.474	55.4777
23.492	55.3569
23.51	55.2403
23.528	55.1356
23.546	55.0433
23.564	54.9624
23.582	54.9002
23.6	54.8594
23.618	54.8372
23.636	54.8389
23.654	54.8675
23.672	54.9206
23.69	54.9993
23.708	55.1048
23.726	55.2374
23.744	55.3933
23.762	55.57
23.78	55.771
23.798	55.9893
23.816	56.2177
23.834	56.4617
23.852	56.7144
23.87	56.965
23.888	57.2179
23.906	57.4693
23.924	57.7081
23.942	57.9345
23.96	58.1495
23.978	58.3446
23.996	58.5163
24.014	58.668
24.032	58.7967
24.05	58.8998
24.068	58.9781
24.086	59.0344
24.104	59.0707
24.122	59.0838
24.14	59.0792
24.158	59.0638
24.176	59.0336
24.194	58.9923
24.212	58.9491
24.23	58.9043
24.248	58.856
24.266	58.8144
24.284	58.7852
24.302	58.7631
24.32	58.7538
24.338	58.7631
24.356	58.7883
24.374	58.8302
24.392	58.8915
24.41	58.9743
24.428	59.0757
24.446	59.1911
24.464	59.3199
24.482	59.4643
24.5	59.6165
24.518	59.7706
24.536	59.9339
24.554	60.0968
24.572	60.2458
24.59	60.3862
24.608	60.5158
24.626	60.6202
24.644	60.6936
24.662	60.7443
24.68	60.7594
24.698	60.7275
24.716	60.6559
24.734	60.5402
24.752	60.3703
24.77	60.1445
24.788	59.8665
24.806	59.5342
24.824	59.1448
24.842	58.6977
24.86	58.1989
24.878	57.655
24.896	57.0597
24.914	56.4178
24.932	55.7446
24.95	55.0457
24.968	54.3105
24.986	53.5579
25.004	52.8073
25.022	52.0466
25.04	51.2827
25.058	50.5377
25.076	49.8204
25.094	49.1175
25.112	48.4462
25.13	47.8236
25.148	47.2418
25.166	46.7028
25.184	46.2179
25.202	45.7937
25.22	45.4236
25.238	45.1098
25.256	44.8554
25.274	44.6625
25.292	44.5272
25.31	44.4435
25.328	44.4096
25.346	44.4312
25.364	44.4973
25.382	44.5956
25.4	44.7313
25.418	44.9038
25.436	45.0987
25.454	45.3056
25.472	45.535
25.49	45.7785
25.508	46.0237
25.526	46.2679
25.544	46.5169
25.562	46.7637
25.58	47.0013
25.598	47.2312
25.616	47.455
25.634	47.6722
25.652	47.8816
25.67	48.0826
25.688	48.2782
25.706	48.4716
25.724	48.6614
25.742	48.8469
25.76	49.0341
25.778	49.2282
25.796	49.4243
25.814	49.6252
25.832	49.8382
25.85	50.0677
25.868	50.3083
25.886	50.5641
25.904	50.8404
25.922	51.139
25.94	51.4567
25.958	51.7955
25.976	52.1575
25.994	52.5445
26.012	52.9541
26.03	53.3828
26.048	53.8276
26.066	54.2932
26.084	54.7756
26.102	55.2681
26.12	55.7675
26.138	56.2814
26.156	56.8008
26.174	57.3144
26.192	57.821
26.21	58.3289
26.228	58.8242
26.246	59.2926
26.264	59.7366
26.282	60.1618
26.3	60.5538
26.318	60.8987
26.336	61.201
26.354	61.4634
26.372	61.678
26.39	61.8376
26.408	61.9462
26.426	62.0042
26.444	62.0084
26.462	61.9556
26.48	61.8442
26.498	61.6792
26.516	61.4661
26.534	61.2086
26.552	60.8999
26.57	60.5466
26.588	60.1573
26.606	59.7382
26.624	59.2843
26.642	58.7963
26.66	58.2761
26.678	57.7236
26.696	57.1354
26.714	56.5175
26.732	55.877
26.75	55.2147
26.768	54.5221
26.786	53.812
26.804	53.0986
26.822	52.386
26.84	51.6599
26.858	50.937
26.876	50.2356
26.894	49.5619
26.912	48.8978
26.93	48.2621
26.948	47.6761
26.966	47.1436
26.984	46.6361
27.002	46.191
27.02	45.8506
27.028	45.7551