File: Bakgrunnsmateriale/MATLAB/FTIR/ftir_data/subBb/Mapping_121/C-4040-8_t108_cm-1.asc
PE IR       SPECTRUM    SPECTRUM    ASCII       PEDS        1.60
  -1
C-4D8C~1.ASC
17/03/27
23:19:42.00
17/03/27
23:19:42.00
tln
$C-4040-8_t0108$<tbV0>[-7.8,10.4,8.0,0.0,27,1,0]
370
64

2002,4.07
MIRTGS : RIGHTBACK : INTERNAL 2
MIR : ON : INTERNAL 2
OPTKBR

0.200000
8
8.000000
FILLER
RATIO
SPECTRUM
UNLOCKED 256

DOUBLE
64
COMBINED
1
0
0

1.000000
RATIO

1
0
TRUE
51149
0
LEFT NOT FITTED RIGHT NOT FITTED 0
NONE
NONE
15600
12
4.427000
51148
TRUE
1 0 8 72 0 0 0 0

15798

#HDR
-1
-1
#GR
CM-1
%T
2.38419e-05
0.0
5000
-1.000000
4631
8
124.189
16.8927
#DATA
5000	65.1404
4996	65.04
4992	65.2065
4988	65.3598
4984	65.1253
4980	64.8566
4976	64.8889
4972	65.021
4968	65.2678
4964	65.5659
4960	65.5854
4956	65.2497
4952	64.7762
4948	64.5955
4944	64.6391
4940	64.5655
4936	64.5904
4932	64.7424
4928	64.8471
4924	64.9519
4920	65.0683
4916	65.2595
4912	65.2408
4908	64.9599
4904	64.8647
4900	64.9417
4896	64.948
4892	64.8674
4888	64.9301
4884	65.1703
4880	65.4013
4876	65.5442
4872	65.6676
4868	65.7668
4864	65.5438
4860	65.034
4856	64.7021
4852	64.8239
4848	65.0249
4844	65.0755
4840	65.1876
4836	65.1197
4832	64.8433
4828	64.8683
4824	65.0985
4820	65.0913
4816	64.9819
4812	65.1135
4808	65.2783
4804	65.1093
4800	64.9881
4796	65.2645
4792	65.3813
4788	65.2433
4784	65.3496
4780	65.4786
4776	65.3389
4772	65.1054
4768	65.0123
4764	65.0118
4760	65.0966
4756	65.2971
4752	65.4053
4748	65.3301
4744	65.0597
4740	64.7061
4736	64.5677
4732	64.6371
4728	64.6917
4724	64.7917
4720	64.9559
4716	65.0718
4712	65.0902
4708	64.9858
4704	64.9843
4700	65.0597
4696	64.9303
4692	64.8137
4688	64.802
4684	64.8741
4680	65.0787
4676	65.088
4672	64.9997
4668	65.1016
4664	65.2899
4660	65.4354
4656	65.4436
4652	65.3273
4648	65.2167
4644	65.0514
4640	64.8963
4636	65.06
4632	65.3523
4628	65.4452
4624	65.4167
4620	65.4049
4616	65.3294
4612	65.1096
4608	64.8225
4604	64.7151
4600	64.8929
4596	65.0624
4592	65.1249
4588	65.1586
4584	65.1931
4580	65.1431
4576	64.9192
4572	64.7585
4568	64.8334
4564	65.023
4560	65.1889
4556	65.3348
4552	65.3919
4548	65.2639
4544	64.9127
4540	64.4123
4536	64.1928
4532	64.2273
4528	64.1094
4524	64.0973
4520	64.3567
4516	64.4644
4512	64.4089
4508	64.4901
4504	64.7004
4500	64.8855
4496	64.9508
4492	64.8789
4488	64.7491
4484	64.7322
4480	64.9194
4476	64.9786
4472	64.6996
4468	64.4394
4464	64.3476
4460	64.3479
4456	64.3009
4452	64.2388
4448	64.4346
4444	64.4047
4440	64.1042
4436	64.219
4432	64.8004
4428	65.3291
4424	65.2513
4420	64.6818
4416	64.3776
4412	63.7635
4408	62.7019
4404	61.7844
4400	60.7105
4396	63.9598
4392	74.9121
4388	97.7053
4384	101.107
4380	75.4787
4376	64.172
4372	64.1905
4368	64.4738
4364	64.3438
4360	64.8275
4356	64.9105
4352	64.6434
4348	64.581
4344	64.575
4340	64.4432
4336	64.4768
4332	64.6256
4328	64.8164
4324	65.078
4320	65.0997
4316	64.8983
4312	64.6509
4308	64.4052
4304	64.3035
4300	64.3757
4296	64.5341
4292	64.6676
4288	64.6781
4284	64.5362
4280	64.4085
4276	64.5189
4272	64.7128
4268	64.8549
4264	65.0439
4260	65.089
4256	64.7099
4252	64.2529
4248	64.2
4244	64.4609
4240	64.6541
4236	64.641
4232	64.5978
4228	64.6548
4224	64.8145
4220	64.9324
4216	64.8634
4212	64.6334
4208	64.463
4204	64.3527
4200	64.2931
4196	64.4115
4192	64.2513
4188	64.2116
4184	64.9426
4180	65.4356
4176	65.3597
4172	65.2466
4168	65.2646
4164	65.5158
4160	65.6107
4156	65.3958
4152	65.1089
4148	64.9775
4144	65.1809
4140	65.3981
4136	65.3031
4132	65.0408
4128	64.9348
4124	65.1367
4120	65.2877
4116	65.1932
4112	65.121
4108	65.1601
4104	65.3143
4100	65.4475
4096	65.3755
4092	65.2219
4088	65.2053
4084	65.2725
4080	65.2338
4076	65.1292
4072	65.0631
4068	65.0596
4064	65.1078
4060	65.1334
4056	65.0733
4052	64.9907
4048	64.9204
4044	65.0144
4040	65.2803
4036	65.3272
4032	65.2465
4028	65.3857
4024	65.4766
4020	65.3535
4016	65.2331
4012	65.0975
4008	65.0679
4004	65.1656
4000	65.1562
3996	65.0792
3992	65.0275
3988	65.0336
3984	65.0473
3980	65.0134
3976	64.9947
3972	65.0669
3968	65.1979
3964	65.2583
3960	65.1343
3956	64.9405
3952	64.9397
3948	65.0161
3944	65.0784
3940	65.1717
3936	65.1163
3932	64.9976
3928	64.9364
3924	64.8172
3920	64.7032
3916	64.7569
3912	64.9037
3908	64.9404
3904	64.8313
3900	64.7974
3896	64.9536
3892	64.9992
3888	64.9247
3884	64.9939
3880	65.109
3876	65.1579
3872	65.1067
3868	65.0731
3864	65.2218
3860	65.2681
3856	65.0207
3852	64.8184
3848	64.8153
3844	64.8735
3840	64.9725
3836	65.01
3832	64.8565
3828	64.7271
3824	64.875
3820	65.1054
3816	65.1999
3812	65.1039
3808	64.8373
3804	64.6946
3800	64.7666
3796	64.8497
3792	64.8872
3788	64.9224
3784	65.0285
3780	65.1009
3776	65.1277
3772	65.2218
3768	65.2724
3764	65.2322
3760	65.1952
3756	65.2612
3752	65.3205
3748	65.2701
3744	65.2136
3740	65.1642
3736	65.1314
3732	65.2078
3728	65.3988
3724	65.5206
3720	65.4635
3716	65.2961
3712	65.117
3708	65.0979
3704	65.1607
3700	65.2156
3696	65.3626
3692	65.4686
3688	65.4275
3684	65.3101
3680	65.1674
3676	65.0526
3672	65.0447
3668	65.0913
3664	65.0913
3660	65.0743
3656	65.1188
3652	65.1951
3648	65.2148
3644	65.156
3640	65.0768
3636	65.0665
3632	65.0525
3628	65.1085
3624	65.3161
3620	65.3699
3616	65.2348
3612	65.1577
3608	65.1405
3604	65.1436
3600	65.2249
3596	65.3469
3592	65.3946
3588	65.2953
3584	65.1507
3580	65.0815
3576	65.0729
3572	65.1383
3568	65.2065
3564	65.2126
3560	65.1567
3556	65.1145
3552	65.1545
3548	65.1335
3544	65.1085
3540	65.1772
3536	65.2198
3532	65.1888
3528	65.1407
3524	65.2104
3520	65.3558
3516	65.3233
3512	65.1893
3508	65.1296
3504	65.0728
3500	65.0374
3496	65.1067
3492	65.2129
3488	65.2267
3484	65.0904
3480	64.9386
3476	64.9464
3472	65.1156
3468	65.2757
3464	65.2277
3460	65.1076
3456	65.0638
3452	65.0048
3448	64.9832
3444	65.0397
3440	65.0946
3436	65.1594
3432	65.237
3428	65.2589
3424	65.1889
3420	65.093
3416	65.0591
3412	65.0287
3408	65.0536
3404	65.1235
3400	65.0041
3396	64.8321
3392	64.8687
3388	64.983
3384	65.013
3380	65.0264
3376	65.0346
3372	65.0443
3368	65.092
3364	65.1262
3360	65.0798
3356	65.0072
3352	65.1303
3348	65.3613
3344	65.4111
3340	65.3105
3336	65.2157
3332	65.1534
3328	65.118
3324	65.1127
3320	65.1027
3316	65.0459
3312	64.9918
3308	65.0217
3304	65.0569
3300	65.0072
3296	64.9346
3292	64.8926
3288	64.8997
3284	64.9531
3280	65.0243
3276	65.1038
3272	65.1397
3268	65.185
3264	65.2648
3260	65.2785
3256	65.2245
3252	65.1305
3248	65.0718
3244	65.109
3240	65.1334
3236	65.123
3232	65.2075
3228	65.3452
3224	65.4454
3220	65.5356
3216	65.5827
3212	65.5028
3208	65.2737
3204	65.0104
3200	64.8468
3196	64.8048
3192	64.9118
3188	65.0638
3184	65.0879
3180	65.1349
3176	65.3167
3172	65.3694
3168	65.1987
3164	65.0451
3160	65.0967
3156	65.1868
3152	65.0851
3148	65.0161
3144	65.134
3140	65.2481
3136	65.3652
3132	65.6497
3128	65.7469
3124	65.3919
3120	65.1357
3116	65.1107
3112	65.1525
3108	65.3699
3104	65.4682
3100	65.2925
3096	65.2057
3092	65.3078
3088	65.3761
3084	65.3628
3080	65.393
3076	65.4266
3072	65.3284
3068	65.1686
3064	65.045
3060	64.9829
3056	65.0109
3052	65.0921
3048	65.1901
3044	65.2475
3040	65.2864
3036	65.3193
3032	65.2421
3028	65.1525
3024	65.0915
3020	65.0555
3016	65.1597
3012	65.2604
3008	65.223
3004	65.1873
3000	65.227
2996	65.2633
2992	65.2182
2988	65.0837
2984	64.984
2980	65.0139
2976	65.0981
2972	65.1245
2968	65.0865
2964	65.0561
2960	65.0322
2956	64.9864
2952	64.9708
2948	64.9838
2944	64.9684
2940	64.9678
2936	65.0094
2932	65.0123
2928	64.9422
2924	64.8746
2920	64.7972
2916	64.7441
2912	64.8143
2908	64.8879
2904	64.8914
2900	64.8782
2896	64.9007
2892	64.9636
2888	65.0078
2884	65.0677
2880	65.1329
2876	65.1114
2872	65.0713
2868	65.0808
2864	65.1566
2860	65.2923
2856	65.2483
2852	64.9894
2848	64.8546
2844	64.8575
2840	64.8728
2836	64.9835
2832	65.0563
2828	65.0635
2824	65.0795
2820	65.0003
2816	64.9446
2812	64.9843
2808	65.058
2804	65.1782
2800	65.2288
2796	65.2093
2792	65.2152
2788	65.1956
2784	65.1862
2780	65.2247
2776	65.2441
2772	65.2524
2768	65.2338
2764	65.185
2760	65.1959
2756	65.2528
2752	65.2891
2748	65.2871
2744	65.2467
2740	65.2087
2736	65.2152
2732	65.2635
2728	65.3334
2724	65.4023
2720	65.3952
2716	65.3103
2712	65.2637
2708	65.2716
2704	65.2755
2700	65.2738
2696	65.2785
2692	65.2872
2688	65.2659
2684	65.2184
2680	65.1941
2676	65.1824
2672	65.2376
2668	65.398
2664	65.4562
2660	65.3126
2656	65.1996
2652	65.2019
2648	65.2215
2644	65.2133
2640	65.1599
2636	65.1121
2632	65.1119
2628	65.1547
2624	65.2041
2620	65.2197
2616	65.2262
2612	65.2541
2608	65.2965
2604	65.2876
2600	65.2076
2596	65.1935
2592	65.249
2588	65.2834
2584	65.3234
2580	65.3305
2576	65.2863
2572	65.2464
2568	65.2346
2564	65.2423
2560	65.2432
2556	65.2923
2552	65.3463
2548	65.3783
2544	65.3929
2540	65.3217
2536	65.2378
2532	65.1722
2528	65.1248
2524	65.1643
2520	65.2003
2516	65.1371
2512	65.1252
2508	65.216
2504	65.2619
2500	65.3515
2496	65.5146
2492	65.4881
2488	65.3604
2484	65.3309
2480	65.3393
2476	65.3254
2472	65.2462
2468	65.1377
2464	65.0508
2460	65.0753
2456	65.1876
2452	65.2408
2448	65.2252
2444	65.1106
2440	65.0047
2436	65.0196
2432	64.9497
2428	64.7917
2424	64.8145
2420	65.0137
2416	65.1434
2412	65.1175
2408	65.1159
2404	65.2582
2400	65.4083
2396	65.4106
2392	65.3147
2388	65.2253
2384	65.1769
2380	65.173
2376	65.1985
2372	65.2143
2368	65.1545
2364	65.1216
2360	65.2017
2356	65.2471
2352	65.2193
2348	65.184
2344	65.1709
2340	65.2154
2336	65.2737
2332	65.2437
2328	65.1861
2324	65.2366
2320	65.3496
2316	65.3826
2312	65.2875
2308	65.1943
2304	65.2117
2300	65.274
2296	65.274
2292	65.279
2288	65.3512
2284	65.3415
2280	65.2901
2276	65.2699
2272	65.2329
2268	65.2467
2264	65.2896
2260	65.3263
2256	65.3287
2252	65.2493
2248	65.1998
2244	65.2041
2240	65.2058
2236	65.2194
2232	65.2296
2228	65.2172
2224	65.1925
2220	65.1553
2216	65.1206
2212	65.0845
2208	65.072
2204	65.1254
2200	65.1443
2196	65.1328
2192	65.2055
2188	65.2711
2184	65.2581
2180	65.2154
2176	65.1758
2172	65.2251
2168	65.2985
2164	65.3515
2160	65.5324
2156	65.7279
2152	65.6881
2148	65.5099
2144	65.4225
2140	65.3903
2136	65.3212
2132	65.2584
2128	65.2283
2124	65.1927
2120	65.2395
2116	65.3863
2112	65.5134
2108	65.4954
2104	65.3043
2100	65.1649
2096	65.1736
2092	65.2308
2088	65.2543
2084	65.2598
2080	65.3766
2076	65.6571
2072	66.0417
2068	66.1494
2064	65.7564
2060	65.2713
2056	64.9851
2052	64.9268
2048	65.0527
2044	65.2048
2040	65.2678
2036	65.2354
2032	65.2026
2028	65.2144
2024	65.2271
2020	65.2515
2016	65.2716
2012	65.2788
2008	65.272
2004	65.2289
2000	65.2048
1996	65.2135
1992	65.2438
1988	65.2571
1984	65.2381
1980	65.2259
1976	65.2579
1972	65.3181
1968	65.3082
1964	65.2421
1960	65.2047
1956	65.2152
1952	65.2235
1948	65.224
1944	65.2719
1940	65.3245
1936	65.3286
1932	65.3217
1928	65.2896
1924	65.2174
1920	65.2029
1916	65.2232
1912	65.2032
1908	65.2241
1904	65.327
1900	65.3856
1896	65.3381
1892	65.2739
1888	65.2642
1884	65.2916
1880	65.2642
1876	65.1727
1872	65.1249
1868	65.1235
1864	65.1287
1860	65.1591
1856	65.2114
1852	65.2432
1848	65.2277
1844	65.2291
1840	65.2563
1836	65.2781
1832	65.2866
1828	65.3025
1824	65.3373
1820	65.3126
1816	65.2427
1812	65.1707
1808	65.1145
1804	65.1004
1800	65.1365
1796	65.1944
1792	65.1419
1788	65.0588
1784	65.1275
1780	65.2117
1776	65.2299
1772	65.2555
1768	65.2868
1764	65.2915
1760	65.2395
1756	65.1481
1752	65.077
1748	65.0437
1744	65.0121
1740	64.9833
1736	64.9728
1732	64.992
1728	64.9815
1724	64.9187
1720	64.9255
1716	65.04
1712	65.1556
1708	65.1612
1704	65.0636
1700	65.0679
1696	65.1963
1692	65.2404
1688	65.2538
1684	65.2525
1680	65.1589
1676	65.0739
1672	65.0839
1668	65.1957
1664	65.2667
1660	65.2172
1656	65.1259
1652	65.067
1648	65.0599
1644	65.1018
1640	65.1729
1636	65.1592
1632	65.0774
1628	65.0517
1624	65.0876
1620	65.1091
1616	65.0934
1612	65.0684
1608	65.0169
1604	64.968
1600	64.9672
1596	64.9668
1592	64.9281
1588	64.9316
1584	65.0683
1580	65.1505
1576	65.0082
1572	64.8989
1568	64.9382
1564	64.9589
1560	64.9485
1556	65.0067
1552	65.1428
1548	65.1864
1544	65.1014
1540	65.0355
1536	65.0226
1532	65.0208
1528	65.0261
1524	65.0465
1520	65.0931
1516	65.1523
1512	65.1829
1508	65.1716
1504	65.1337
1500	65.1342
1496	65.1532
1492	65.1048
1488	65.0892
1484	65.1129
1480	65.0469
1476	64.9764
1472	64.9781
1468	64.9956
1464	65.071
1460	65.1833
1456	65.1961
1452	65.1346
1448	65.1054
1444	65.0606
1440	64.955
1436	64.8987
1432	64.9504
1428	65.034
1424	65.0642
1420	65.0084
1416	64.9872
1412	65.0804
1408	65.1648
1404	65.1326
1400	65.0499
1396	64.9755
1392	64.8875
1388	64.8264
1384	64.8269
1380	64.8599
1376	64.8884
1372	64.9195
1368	64.9399
1364	64.9213
1360	64.9109
1356	64.9226
1352	64.9813
1348	65.0843
1344	65.0983
1340	64.9985
1336	64.922
1332	64.9534
1328	64.985
1324	64.985
1320	64.9824
1316	64.8611
1312	64.713
1308	64.6998
1304	64.7846
1300	64.8898
1296	64.9264
1292	64.9174
1288	64.9341
1284	64.9703
1280	65.0317
1276	65.0202
1272	64.8682
1268	64.7727
1264	64.8554
1260	64.9381
1256	64.9069
1252	64.8547
1248	64.8292
1244	64.8268
1240	64.7736
1236	64.7126
1232	64.7649
1228	64.8012
1224	64.7465
1220	64.6815
1216	64.6645
1212	64.7316
1208	64.8453
1204	64.908
1200	64.8723
1196	64.7936
1192	64.674
1188	64.5286
1184	64.4834
1180	64.6147
1176	64.7557
1172	64.7629
1168	64.6843
1164	64.5754
1160	64.5717
1156	64.6534
1152	64.6331
1148	64.5664
1144	64.5495
1140	64.5854
1136	64.6096
1132	64.5549
1128	64.5286
1124	64.6364
1120	64.7392
1116	64.6534
1112	64.5051
1108	64.447
1104	64.3981
1100	64.4824
1096	64.6784
1092	64.6312
1088	64.4733
1084	64.4659
1080	64.495
1076	64.4735
1072	64.4315
1068	64.4544
1064	64.4993
1060	64.5188
1056	64.549
1052	64.6004
1048	64.7243
1044	64.7413
1040	64.5468
1036	64.3602
1032	64.2867
1028	64.2686
1024	64.3057
1020	64.3911
1016	64.373
1012	64.27
1008	64.2978
1004	64.3691
1000	64.33
996	 64.2884
992	 64.3604
988	 64.4956
984	 64.5042
980	 64.3953
976	 64.3128
972	 64.316
968	 64.4078
964	 64.4451
960	 64.3991
956	 64.4113
952	 64.4491
948	 64.3978
944	 64.2839
940	 64.1926
936	 64.1673
932	 64.3569
928	 64.7657
924	 65.0137
920	 64.9753
916	 64.6593
912	 64.2572
908	 64.1909
904	 64.2875
900	 64.3684
896	 64.6237
892	 64.7353
888	 64.5316
884	 64.3284
880	 64.1872
876	 64.1797
872	 64.34
868	 64.3891
864	 64.2694
860	 64.2748
856	 64.3524
852	 64.1887
848	 64.0985
844	 64.3586
840	 64.4245
836	 64.1706
832	 64.2339
828	 64.5677
824	 64.3748
820	 63.7411
816	 63.4532
812	 63.5548
808	 63.5916
804	 63.4162
800	 63.3959
796	 63.5578
792	 63.6001
788	 63.6113
784	 63.7134
780	 63.7818
776	 63.6688
772	 63.5121
768	 63.5266
764	 63.5409
760	 63.4227
756	 63.3202
752	 63.1454
748	 62.9666
744	 62.856
740	 62.5709
736	 62.4655
732	 62.77
728	 63.1086
724	 63.3097
720	 63.2999
716	 63.1269
712	 63.0527
708	 63.1058
704	 63.1116
700	 62.9585
696	 62.7774
692	 62.8424
688	 63.0591
684	 63.0596
680	 62.8563
676	 62.7685
672	 62.6832
668	 62.4466
664	 62.2619
660	 62.2158
656	 62.3303
652	 62.4377
648	 62.5084
644	 62.6341
640	 62.5821
636	 62.3
632	 62.0409
628	 61.9923
624	 62.1563
620	 62.2739
616	 62.1647
612	 62.1127
608	 61.9918
604	 61.6044
600	 61.3866
596	 61.3925
592	 61.4665
588	 61.4094
584	 61.3343
580	 61.6751
576	 62.0294
572	 62.0948
568	 61.99
564	 61.6415
560	 61.386
556	 61.623
552	 61.8927
548	 61.4912
544	 60.7284
540	 60.4518
536	 60.6205
532	 60.7254
528	 60.822
524	 60.6382
520	 60.0841
516	 60.0701
512	 60.7594
508	 61.009
504	 60.4284
500	 60.0194
496	 60.5595
492	 61.3503
488	 61.4336
484	 61.185
480	 60.7501
476	 60.1372
472	 59.5736
468	 58.6729
464	 57.6366
460	 57.2548
456	 58.429
452	 59.7427
448	 58.5729
444	 56.3146
440	 54.8806
436	 53.6819
432	 52.7825
428	 52.6386
424	 53.6414
420	 55.6298
416	 55.5294
412	 53.0597
408	 47.9579
404	 35.6767
400	 20.9469
396	 17.3008
392	 22.7141
388	 32.9911
384	 51.507
380	 74.7802
376	 102.396
372	 114.019
370	 124.189