File: Bakgrunnsmateriale/MATLAB/FTIR/ftir_data/subBb/Mapping_121/C-4040-8_t29_cm-1.asc
PE IR       SPECTRUM    SPECTRUM    ASCII       PEDS        1.60
  -1
C-9AE0~1.ASC
17/03/27
16:52:31.00
17/03/27
16:52:31.00
tln
$C-4040-8_t0029$<tbV0>[-2.6,-7.8,8.0,0.0,27,1,0]
370
64

2002,4.07
MIRTGS : RIGHTBACK : INTERNAL 2
MIR : ON : INTERNAL 2
OPTKBR

0.200000
8
8.000000
FILLER
RATIO
SPECTRUM
UNLOCKED 256

DOUBLE
64
COMBINED
1
0
0

1.000000
RATIO

1
0
TRUE
51149
0
LEFT NOT FITTED RIGHT NOT FITTED 0
NONE
NONE
15600
12
4.427000
51148
TRUE
1 0 8 72 0 0 0 0

15798

#HDR
-1
-1
#GR
CM-1
%T
2.38419e-05
0.0
5000
-1.000000
4631
8
67.9355
28.9262
#DATA
5000	63.9295
4996	63.8481
4992	63.927
4988	63.7997
4984	63.5723
4980	63.8566
4976	64.2785
4972	64.0936
4968	63.9062
4964	64.0901
4960	64.123
4956	63.9661
4952	64.0151
4948	64.0775
4944	63.8909
4940	63.8717
4936	63.9716
4932	63.8122
4928	63.6661
4924	63.6287
4920	63.5786
4916	63.7185
4912	64.0394
4908	64.153
4904	64.0993
4900	64.3082
4896	64.508
4892	64.3863
4888	64.1909
4884	63.9606
4880	63.7739
4876	63.7142
4872	63.6759
4868	63.9064
4864	64.304
4860	64.218
4856	63.6394
4852	63.2692
4848	63.4752
4844	63.8517
4840	63.9167
4836	63.7909
4832	63.7989
4828	63.9618
4824	64.2106
4820	64.4281
4816	64.4701
4812	64.3355
4808	64.1437
4804	63.9905
4800	63.9009
4796	63.9224
4792	63.8525
4788	63.5305
4784	63.2999
4780	63.3372
4776	63.4958
4772	63.7024
4768	63.9311
4764	64.0978
4760	64.1887
4756	64.2519
4752	64.2047
4748	64.1257
4744	64.1286
4740	64.034
4736	63.8334
4732	63.8223
4728	63.8739
4724	63.761
4720	63.7187
4716	63.7887
4712	63.7446
4708	63.7417
4704	63.8659
4700	63.7741
4696	63.6044
4692	63.6353
4688	63.6496
4684	63.5267
4680	63.481
4676	63.7004
4672	63.8516
4668	63.7874
4664	63.7835
4660	63.7674
4656	63.6386
4652	63.4676
4648	63.3013
4644	63.1826
4640	63.2563
4636	63.4337
4632	63.554
4628	63.6993
4624	63.7631
4620	63.7995
4616	63.9158
4612	63.9322
4608	63.8293
4604	63.7619
4600	63.8063
4596	63.9147
4592	64.0389
4588	64.0281
4584	63.7823
4580	63.5938
4576	63.7554
4572	64.0045
4568	63.9731
4564	63.8816
4560	63.9294
4556	63.891
4552	63.7634
4548	63.6878
4544	63.5839
4540	63.5204
4536	63.601
4532	63.8358
4528	64.089
4524	64.1442
4520	64.1588
4516	64.2313
4512	64.2148
4508	64.0324
4504	63.8258
4500	63.8829
4496	64.1625
4492	64.3378
4488	64.3976
4484	64.5084
4480	64.572
4476	64.4975
4472	64.3046
4468	64.1007
4464	64.0983
4460	64.3783
4456	64.5608
4452	64.3549
4448	64.1639
4444	64.1907
4440	64.3067
4436	64.4938
4432	64.4679
4428	64.16
4424	64.0853
4420	64.2183
4416	64.0137
4412	63.788
4408	63.9496
4404	64.3655
4400	64.8383
4396	65.1583
4392	65.0752
4388	65.9272
4384	66.1166
4380	64.5016
4376	65.7302
4372	65.9652
4368	60.3371
4364	50.0528
4360	43.3894
4356	51.0721
4352	63.6252
4348	67.9355
4344	66.9577
4340	65.5359
4336	64.2823
4332	63.6244
4328	63.8408
4324	64.2238
4320	64.3457
4316	64.5874
4312	64.6435
4308	64.4088
4304	64.4137
4300	64.4651
4296	64.316
4292	64.229
4288	64.2846
4284	64.2796
4280	64.3988
4276	64.6957
4272	64.815
4268	64.7125
4264	64.5922
4260	64.4502
4256	64.2535
4252	64.0825
4248	63.9968
4244	63.8682
4240	63.7676
4236	63.9355
4232	64.0707
4228	63.9516
4224	63.8303
4220	63.7546
4216	63.7269
4212	63.8072
4208	63.805
4204	63.6014
4200	63.3254
4196	63.2631
4192	63.3603
4188	63.2689
4184	63.1647
4180	63.2386
4176	63.3525
4172	63.577
4168	63.9033
4164	64.0138
4160	63.7918
4156	63.5601
4152	63.6387
4148	63.8517
4144	63.9219
4140	63.911
4136	63.829
4132	63.6015
4128	63.4349
4124	63.423
4120	63.298
4116	63.0861
4112	62.9967
4108	63.0401
4104	63.2038
4100	63.3167
4096	63.3182
4092	63.3161
4088	63.2659
4084	63.2895
4080	63.3952
4076	63.4233
4072	63.4405
4068	63.4892
4064	63.4351
4060	63.2775
4056	63.1969
4052	63.2663
4048	63.3791
4044	63.3972
4040	63.3262
4036	63.2544
4032	63.2198
4028	63.19
4024	63.1866
4020	63.2755
4016	63.3562
4012	63.2413
4008	63.003
4004	62.9317
4000	63.0416
3996	63.1864
3992	63.3546
3988	63.4303
3984	63.3947
3980	63.3388
3976	63.2904
3972	63.3465
3968	63.4378
3964	63.4244
3960	63.3904
3956	63.3605
3952	63.1987
3948	62.9992
3944	62.9832
3940	63.1372
3936	63.3032
3932	63.3929
3928	63.393
3924	63.3805
3920	63.4777
3916	63.5136
3912	63.3273
3908	63.1735
3904	63.1594
3900	63.0995
3896	63.057
3892	63.1838
3888	63.3654
3884	63.5295
3880	63.7016
3876	63.6756
3872	63.4639
3868	63.3039
3864	63.1899
3860	63.2414
3856	63.3914
3852	63.4013
3848	63.3549
3844	63.277
3840	63.2075
3836	63.2042
3832	63.1869
3828	63.2504
3824	63.3873
3820	63.3732
3816	63.2395
3812	63.1461
3808	63.0822
3804	63.0321
3800	63.0299
3796	63.0708
3792	63.1056
3788	63.0588
3784	63.0252
3780	63.1225
3776	63.206
3772	63.1325
3768	63.0795
3764	63.1428
3760	63.1056
3756	62.9921
3752	63.0201
3748	63.1089
3744	63.1077
3740	63.0488
3736	63.047
3732	63.1529
3728	63.179
3724	63.0931
3720	63.0172
3716	62.9223
3712	62.8575
3708	62.8575
3704	62.8644
3700	62.9004
3696	62.9282
3692	62.8628
3688	62.82
3684	62.8952
3680	62.9525
3676	62.8449
3672	62.6868
3668	62.7387
3664	62.8716
3660	62.8928
3656	62.8623
3652	62.7799
3648	62.7195
3644	62.7101
3640	62.6405
3636	62.5382
3632	62.5667
3628	62.689
3624	62.7245
3620	62.741
3616	62.7898
3612	62.7451
3608	62.6509
3604	62.6456
3600	62.6813
3596	62.6803
3592	62.6698
3588	62.6668
3584	62.6716
3580	62.6362
3576	62.5523
3572	62.492
3568	62.5036
3564	62.5532
3560	62.5807
3556	62.685
3552	62.7413
3548	62.5926
3544	62.4762
3540	62.5121
3536	62.544
3532	62.4715
3528	62.4289
3524	62.4571
3520	62.4944
3516	62.5483
3512	62.4835
3508	62.3586
3504	62.3408
3500	62.3627
3496	62.3525
3492	62.315
3488	62.3192
3484	62.3751
3480	62.3678
3476	62.3363
3472	62.3207
3468	62.3355
3464	62.4072
3460	62.4124
3456	62.4106
3452	62.4535
3448	62.428
3444	62.4271
3440	62.4928
3436	62.4774
3432	62.3999
3428	62.2956
3424	62.1405
3420	62.0592
3416	62.0749
3412	62.1308
3408	62.198
3404	62.1869
3400	62.1178
3396	62.0767
3392	62.0777
3388	62.0676
3384	61.9843
3380	61.9101
3376	61.9836
3372	62.0953
3368	62.049
3364	61.8874
3360	61.8016
3356	61.9179
3352	62.0729
3348	62.0522
3344	62.0111
3340	62.0614
3336	62.0898
3332	62.0423
3328	61.9271
3324	61.8925
3320	61.9785
3316	61.9892
3312	61.8431
3308	61.648
3304	61.5763
3300	61.7195
3296	61.8969
3292	61.9321
3288	61.868
3284	61.6971
3280	61.5233
3276	61.5048
3272	61.6377
3268	61.8245
3264	61.8688
3260	61.7771
3256	61.7291
3252	61.726
3248	61.6439
3244	61.5427
3240	61.5367
3236	61.4971
3232	61.3767
3228	61.3227
3224	61.3847
3220	61.3925
3216	61.2783
3212	61.2585
3208	61.3696
3204	61.4606
3200	61.4832
3196	61.3966
3192	61.2535
3188	61.2286
3184	61.3715
3180	61.5264
3176	61.4808
3172	61.3055
3168	61.1884
3164	61.1154
3160	61.0975
3156	61.1096
3152	61.1469
3148	61.193
3144	61.1196
3140	60.9989
3136	60.8972
3132	60.7401
3128	60.632
3124	60.7802
3120	61.0667
3116	61.2193
3112	61.1991
3108	61.0516
3104	60.8765
3100	60.8143
3096	60.8851
3092	61.0168
3088	61.0833
3084	61.0115
3080	60.9416
3076	60.9527
3072	60.9754
3068	60.9897
3064	60.9511
3060	60.891
3056	60.8849
3052	60.8462
3048	60.766
3044	60.7466
3040	60.801
3036	60.9098
3032	60.9351
3028	60.7871
3024	60.6389
3020	60.6307
3016	60.6524
3012	60.6079
3008	60.6097
3004	60.6437
3000	60.6041
2996	60.5287
2992	60.4683
2988	60.4602
2984	60.4938
2980	60.5052
2976	60.4978
2972	60.4925
2968	60.4184
2964	60.3115
2960	60.344
2956	60.4168
2952	60.3578
2948	60.2377
2944	60.1331
2940	60.1248
2936	60.184
2932	60.1317
2928	60.0443
2924	59.9998
2920	59.8944
2916	59.8372
2912	59.9293
2908	60.0268
2904	60.0352
2900	60.0588
2896	60.0974
2892	60.0255
2888	59.9307
2884	59.8967
2880	59.8872
2876	59.9565
2872	60.0198
2868	60.048
2864	60.0797
2860	59.9117
2856	59.6906
2852	59.7308
2848	59.8715
2844	59.9577
2840	59.9971
2836	59.9082
2832	59.7833
2828	59.7489
2824	59.7347
2820	59.7397
2816	59.7286
2812	59.6481
2808	59.6165
2804	59.6862
2800	59.7372
2796	59.6983
2792	59.6721
2788	59.717
2784	59.7143
2780	59.6427
2776	59.5767
2772	59.5195
2768	59.5081
2764	59.5468
2760	59.5407
2756	59.4849
2752	59.4314
2748	59.4176
2744	59.4328
2740	59.3879
2736	59.3086
2732	59.2882
2728	59.2827
2724	59.2318
2720	59.1707
2716	59.1103
2712	59.0757
2708	59.0996
2704	59.1173
2700	59.1297
2696	59.1861
2692	59.1878
2688	59.101
2684	59.056
2680	59.0236
2676	58.9337
2672	58.8971
2668	58.9101
2664	58.8584
2660	58.7631
2656	58.7543
2652	58.8377
2648	58.8506
2644	58.7872
2640	58.7503
2636	58.7549
2632	58.7555
2628	58.7005
2624	58.6077
2620	58.523
2616	58.51
2612	58.5681
2608	58.5994
2604	58.5603
2600	58.5152
2596	58.5305
2592	58.5576
2588	58.5299
2584	58.4605
2580	58.4115
2576	58.417
2572	58.4132
2568	58.3473
2564	58.2966
2560	58.3086
2556	58.3446
2552	58.3591
2548	58.3518
2544	58.3348
2540	58.3317
2536	58.3082
2532	58.238
2528	58.1522
2524	58.1203
2520	58.125
2516	58.0141
2512	57.8648
2508	57.8661
2504	57.9607
2500	57.993
2496	57.9573
2492	57.9531
2488	57.9514
2484	57.8859
2480	57.8411
2476	57.8508
2472	57.8129
2468	57.7087
2464	57.6205
2460	57.5679
2456	57.5918
2452	57.7024
2448	57.7724
2444	57.7418
2440	57.6394
2436	57.5755
2432	57.5536
2428	57.4916
2424	57.5042
2420	57.5521
2416	57.4313
2412	57.2631
2408	57.2101
2404	57.2477
2400	57.347
2396	57.3959
2392	57.3443
2388	57.2675
2384	57.2141
2380	57.166
2376	57.0897
2372	57.063
2368	57.1189
2364	57.1181
2360	57.0052
2356	56.897
2352	56.8939
2348	56.925
2344	56.8828
2340	56.837
2336	56.8351
2332	56.7872
2328	56.6824
2324	56.6236
2320	56.6204
2316	56.6351
2312	56.7153
2308	56.8067
2304	56.7769
2300	56.6851
2296	56.6396
2292	56.5969
2288	56.5521
2284	56.5209
2280	56.4757
2276	56.4342
2272	56.3582
2268	56.269
2264	56.2455
2260	56.2692
2256	56.3199
2252	56.3728
2248	56.3303
2244	56.1964
2240	56.1331
2236	56.1856
2232	56.2175
2228	56.0908
2224	55.9281
2220	55.9496
2216	56.0327
2212	56.0217
2208	55.9743
2204	55.9241
2200	55.9064
2196	55.9387
2192	55.941
2188	55.9066
2184	55.8928
2180	55.8576
2176	55.7701
2172	55.6945
2168	55.6805
2164	55.7247
2160	55.7494
2156	55.6705
2152	55.5711
2148	55.5524
2144	55.5883
2140	55.6077
2136	55.524
2132	55.4097
2128	55.3598
2124	55.3436
2120	55.3403
2116	55.3024
2112	55.2526
2108	55.2374
2104	55.2229
2100	55.1628
2096	55.0629
2092	55.0346
2088	55.1218
2084	55.1578
2080	55.0379
2076	54.8599
2072	54.7564
2068	54.8463
2064	55.0236
2060	55.0748
2056	55.034
2052	54.9765
2048	54.8638
2044	54.7264
2040	54.6531
2036	54.641
2032	54.6489
2028	54.6433
2024	54.6319
2020	54.6322
2016	54.5951
2012	54.5305
2008	54.4896
2004	54.4697
2000	54.4372
1996	54.3868
1992	54.3466
1988	54.3097
1984	54.2861
1980	54.2686
1976	54.2446
1972	54.2219
1968	54.1677
1964	54.1163
1960	54.1152
1956	54.1049
1952	54.0272
1948	53.9234
1944	53.8871
1940	53.9052
1936	53.8882
1932	53.8539
1928	53.8387
1924	53.8179
1920	53.7736
1916	53.7227
1912	53.7062
1908	53.695
1904	53.607
1900	53.5051
1896	53.4957
1892	53.4876
1888	53.4464
1884	53.4601
1880	53.4929
1876	53.4682
1872	53.3904
1868	53.3141
1864	53.299
1860	53.3346
1856	53.3302
1852	53.2545
1848	53.1669
1844	53.1061
1840	53.0658
1836	53.0286
1832	52.9979
1828	52.984
1824	52.9754
1820	52.97
1816	52.9425
1812	52.9041
1808	52.8868
1804	52.8915
1800	52.8888
1796	52.8076
1792	52.7452
1788	52.7363
1784	52.6484
1780	52.5756
1776	52.5594
1772	52.5048
1768	52.4888
1764	52.5313
1760	52.544
1756	52.4985
1752	52.4149
1748	52.3453
1744	52.3047
1740	52.2575
1736	52.2356
1732	52.2752
1728	52.298
1724	52.2006
1720	52.031
1716	51.946
1712	51.9566
1708	52.0062
1704	52.0541
1700	52.0507
1696	51.9962
1692	51.8989
1688	51.8168
1684	51.7724
1680	51.7313
1676	51.7035
1672	51.6642
1668	51.6274
1664	51.6543
1660	51.6811
1656	51.5986
1652	51.4707
1648	51.4317
1644	51.4882
1640	51.5017
1636	51.3868
1632	51.2613
1628	51.1781
1624	51.1162
1620	51.0934
1616	51.1183
1612	51.1537
1608	51.1099
1604	51.0492
1600	51.0481
1596	51.0555
1592	51.0944
1588	51.1306
1584	51.0777
1580	50.9498
1576	50.7879
1572	50.6833
1568	50.6706
1564	50.6672
1560	50.6154
1556	50.5718
1552	50.5802
1548	50.5679
1544	50.5139
1540	50.4235
1536	50.3431
1532	50.3624
1528	50.4282
1524	50.4398
1520	50.3711
1516	50.3179
1512	50.3417
1508	50.3143
1504	50.2052
1500	50.1063
1496	50.077
1492	50.0931
1488	50.1291
1484	50.1568
1480	50.0976
1476	50.0476
1472	50.0305
1468	49.9698
1464	49.8973
1460	49.838
1456	49.8075
1452	49.822
1448	49.8593
1444	49.8395
1440	49.751
1436	49.6614
1432	49.5792
1428	49.4946
1424	49.4325
1420	49.3756
1416	49.3374
1412	49.3872
1408	49.4154
1404	49.3297
1400	49.2442
1396	49.2023
1392	49.1412
1388	49.0823
1384	49.0514
1380	49.0057
1376	48.9826
1372	48.9545
1368	48.8303
1364	48.7211
1360	48.7526
1356	48.8098
1352	48.7916
1348	48.7453
1344	48.6657
1340	48.6358
1336	48.6737
1332	48.6244
1328	48.5581
1324	48.57
1320	48.5816
1316	48.5396
1312	48.4739
1308	48.4423
1304	48.4025
1300	48.3475
1296	48.3256
1292	48.3094
1288	48.2567
1284	48.201
1280	48.2118
1276	48.2117
1272	48.1405
1268	48.1116
1264	48.1394
1260	48.0974
1256	47.9719
1252	47.868
1248	47.8397
1244	47.8717
1240	47.9045
1236	47.931
1232	47.9323
1228	47.8301
1224	47.6957
1220	47.5961
1216	47.5446
1212	47.5357
1208	47.4449
1204	47.3178
1200	47.3262
1196	47.3806
1192	47.3509
1188	47.2885
1184	47.286
1180	47.3848
1176	47.443
1172	47.3763
1168	47.2438
1164	47.0938
1160	47.0596
1156	47.1119
1152	47.1172
1148	47.0924
1144	47.0261
1140	46.8854
1136	46.7111
1132	46.5393
1128	46.4447
1124	46.4925
1120	46.6224
1116	46.6862
1112	46.723
1108	46.9304
1104	47.1894
1100	47.222
1096	46.9044
1092	46.434
1088	46.1189
1084	46.0385
1080	46.1522
1076	46.2558
1072	46.2944
1068	46.3541
1064	46.3155
1060	46.019
1056	45.6053
1052	45.4764
1048	45.6376
1044	45.7475
1040	45.6964
1036	45.5809
1032	45.5547
1028	45.5847
1024	45.5871
1020	45.6161
1016	45.7004
1012	45.7271
1008	45.5664
1004	45.4354
1000	45.3783
996	 45.2024
992	 45.2174
988	 45.4814
984	 45.5207
980	 45.2697
976	 45.0888
972	 45.0972
968	 45.1012
964	 44.9751
960	 44.8278
956	 44.8654
952	 45.0311
948	 45.0858
944	 44.9736
940	 44.7708
936	 44.6236
932	 44.607
928	 44.5792
924	 44.5135
920	 44.5108
916	 44.5192
912	 44.4874
908	 44.4322
904	 44.3947
900	 44.37
896	 44.3914
892	 44.4599
888	 44.401
884	 44.2709
880	 44.1991
876	 44.1138
872	 44.0186
868	 43.9698
864	 43.9656
860	 43.8872
856	 43.7041
852	 43.6017
848	 43.5987
844	 43.5594
840	 43.5211
836	 43.5337
832	 43.4696
828	 43.2575
824	 43.1019
820	 43.0609
816	 43.0085
812	 43.0602
808	 43.1247
804	 43.0444
800	 42.9545
796	 42.9395
792	 42.9557
788	 42.891
784	 42.7985
780	 42.7472
776	 42.5711
772	 42.3723
768	 42.3298
764	 42.3546
760	 42.3356
756	 42.2332
752	 42.0749
748	 41.9489
744	 41.8905
740	 41.7917
736	 41.6711
732	 41.6095
728	 41.5442
724	 41.4024
720	 41.3378
716	 41.4423
712	 41.5152
708	 41.5001
704	 41.3574
700	 41.132
696	 40.9452
692	 40.8035
688	 40.7918
684	 40.7831
680	 40.6036
676	 40.4129
672	 40.3774
668	 40.3589
664	 40.3132
660	 40.3038
656	 40.1855
652	 39.9248
648	 39.727
644	 39.6782
640	 39.5207
636	 39.3059
632	 39.2869
628	 39.3103
624	 39.293
620	 39.2894
616	 39.2497
612	 39.1398
608	 38.974
604	 38.9193
600	 38.9465
596	 38.8522
592	 38.7513
588	 38.5912
584	 38.3282
580	 38.3257
576	 38.5023
572	 38.2714
568	 37.7257
564	 37.3468
560	 37.3218
556	 37.5312
552	 37.6171
548	 37.4603
544	 37.2059
540	 37.1496
536	 37.2023
532	 36.9547
528	 36.6114
524	 36.5116
520	 36.5223
516	 36.3231
512	 35.8736
508	 35.5633
504	 35.4136
500	 35.3244
496	 35.4904
492	 35.7319
488	 35.5999
484	 35.0314
480	 34.7661
476	 35.0886
472	 34.9357
468	 34.2828
464	 33.9606
460	 34.0113
456	 34.2544
452	 34.1161
448	 33.3785
444	 32.8023
440	 32.426
436	 31.857
432	 32.1684
428	 32.8857
424	 32.1721
420	 31.4188
416	 32.3225
412	 34.0719
408	 35.9041
404	 34.9048
400	 30.5646
396	 28.9262
392	 29.515
388	 30.264
384	 30.7108
380	 33.2295
376	 38.392
372	 42.7271
370	 49.364