File: Bakgrunnsmateriale/MATLAB/FTIR/ftir_data/subBb/Mapping_121/C-4040-8_t64_cm-1.asc
PE IR       SPECTRUM    SPECTRUM    ASCII       PEDS        1.60
  -1
C-9C6F~1.ASC
17/03/27
19:42:13.00
17/03/27
19:42:13.00
tln
$C-4040-8_t0064$<tbV0>[-7.8,0.0,8.0,0.0,27,1,0]
370
64

2002,4.07
MIRTGS : RIGHTBACK : INTERNAL 2
MIR : ON : INTERNAL 2
OPTKBR

0.200000
8
8.000000
FILLER
RATIO
SPECTRUM
UNLOCKED 256

DOUBLE
64
COMBINED
1
0
0

1.000000
RATIO

1
0
TRUE
51149
0
LEFT NOT FITTED RIGHT NOT FITTED 0
NONE
NONE
15600
12
4.427000
51148
TRUE
1 0 8 72 0 0 0 0

15798

#HDR
-1
-1
#GR
CM-1
%T
2.38419e-05
0.0
5000
-1.000000
4631
8
86.144
54.368
#DATA
5000	64.574
4996	64.7256
4992	64.8279
4988	65.0026
4984	65.0424
4980	64.8568
4976	64.7335
4972	64.7663
4968	64.872
4964	64.7801
4960	64.4916
4956	64.3667
4952	64.4304
4948	64.5351
4944	64.748
4940	64.9806
4936	64.7944
4932	64.296
4928	64.335
4924	64.7416
4920	64.7135
4916	64.5427
4912	64.5661
4908	64.7097
4904	64.9019
4900	64.8745
4896	64.7481
4892	64.7228
4888	64.3343
4884	63.9333
4880	64.1821
4876	64.4203
4872	64.6204
4868	64.8295
4864	64.4389
4860	64.1392
4856	64.4042
4852	64.5808
4848	64.544
4844	64.603
4840	64.7158
4836	64.8016
4832	64.7452
4828	64.4913
4824	64.4218
4820	64.5975
4816	64.6859
4812	64.6729
4808	64.8351
4804	65.0869
4800	65.0495
4796	64.8737
4792	64.6562
4788	64.4626
4784	64.5125
4780	64.7463
4776	64.8262
4772	64.5368
4768	64.376
4764	64.5908
4760	64.8727
4756	65.0471
4752	65.0602
4748	64.955
4744	64.8749
4740	64.8685
4736	64.7995
4732	64.6578
4728	64.6046
4724	64.6989
4720	64.8544
4716	65.0089
4712	65.1505
4708	65.1826
4704	65.1213
4700	65.1404
4696	65.1895
4692	65.1767
4688	65.1361
4684	65.1036
4680	65.0977
4676	65.009
4672	64.7393
4668	64.5439
4664	64.665
4660	64.8866
4656	64.895
4652	64.6674
4648	64.5747
4644	64.6962
4640	64.6265
4636	64.5053
4632	64.673
4628	64.8889
4624	64.9687
4620	64.9618
4616	64.7701
4612	64.4393
4608	64.3241
4604	64.5718
4600	64.8427
4596	64.8459
4592	64.5869
4588	64.4463
4584	64.7898
4580	65.0567
4576	64.9384
4572	64.7182
4568	64.4382
4564	64.5103
4560	64.8586
4556	64.8449
4552	64.4943
4548	64.0824
4544	63.9168
4540	64.017
4536	63.9703
4532	63.8809
4528	63.9524
4524	64.1942
4520	64.6284
4516	64.9529
4512	65.0402
4508	64.9246
4504	64.5422
4500	64.2031
4496	64.2516
4492	64.4854
4488	64.5441
4484	64.3992
4480	64.4344
4476	64.5234
4472	64.3369
4468	64.1407
4464	64.0492
4460	64.0386
4456	64.1718
4452	64.2449
4448	64.1249
4444	64.1493
4440	64.3093
4436	64.3615
4432	64.3076
4428	64.2831
4424	64.1956
4420	63.9209
4416	63.8595
4412	63.94
4408	63.6965
4404	63.5806
4400	63.6022
4396	63.4829
4392	63.5496
4388	63.1512
4384	62.4542
4380	64.9047
4376	72.9196
4372	82.4392
4368	86.058
4364	77.9527
4360	65.6826
4356	61.5314
4352	64.224
4348	65.0104
4344	64.2963
4340	64.9026
4336	65.1046
4332	64.8938
4328	64.6997
4324	64.5562
4320	64.5603
4316	64.5231
4312	64.4488
4308	64.4192
4304	64.3177
4300	64.2441
4296	64.3276
4292	64.39
4288	64.3245
4284	64.4231
4280	64.675
4276	64.6329
4272	64.4292
4268	64.4155
4264	64.548
4260	64.6093
4256	64.4718
4252	64.362
4248	64.3816
4244	64.3962
4240	64.3798
4236	64.4497
4232	64.597
4228	64.6301
4224	64.6852
4220	64.8065
4216	64.8131
4212	64.7035
4208	64.6258
4204	64.7654
4200	64.8882
4196	64.7433
4192	64.6111
4188	64.3984
4184	64.0302
4180	64.1243
4176	64.588
4172	64.7779
4168	64.7416
4164	64.6525
4160	64.5459
4156	64.5562
4152	64.6712
4148	64.8438
4144	65.0875
4140	65.2426
4136	65.1353
4132	64.9073
4128	64.806
4124	64.854
4120	64.973
4116	64.9709
4112	64.7923
4108	64.7658
4104	64.9181
4100	64.9558
4096	64.9038
4092	64.7924
4088	64.6665
4084	64.7329
4080	65.0024
4076	65.2544
4072	65.2162
4068	64.9768
4064	64.852
4060	64.8796
4056	64.9339
4052	65.0009
4048	65.0021
4044	64.9673
4040	65.074
4036	65.1197
4032	64.9758
4028	64.8579
4024	64.9192
4020	65.1154
4016	65.2386
4012	65.1511
4008	64.9468
4004	64.8376
4000	64.8396
3996	64.9025
3992	65.0586
3988	65.1505
3984	65.1279
3980	65.1133
3976	65.0362
3972	64.9477
3968	64.9488
3964	64.9682
3960	65.0573
3956	65.1555
3952	65.1738
3948	65.2108
3944	65.2086
3940	65.114
3936	65.0018
3932	64.8977
3928	64.7541
3924	64.5953
3920	64.5322
3916	64.6363
3912	64.9087
3908	65.0722
3904	64.962
3900	64.8954
3896	64.9796
3892	65.0039
3888	64.9808
3884	64.9507
3880	64.9161
3876	65.0687
3872	65.3602
3868	65.4436
3864	65.2755
3860	65.1041
3856	65.1003
3852	65.1443
3848	65.0733
3844	64.9738
3840	64.9187
3836	64.8349
3832	64.6651
3828	64.5573
3824	64.7571
3820	64.9838
3816	64.9021
3812	64.8559
3808	64.963
3804	64.9973
3800	64.9649
3796	64.9778
3792	65.0284
3788	65.0361
3784	65.0514
3780	65.0749
3776	65.0062
3772	64.8539
3768	64.7926
3764	64.8654
3760	64.8991
3756	64.9227
3752	64.9933
3748	65.0169
3744	65.0311
3740	65.0404
3736	64.9887
3732	64.9759
3728	65.0126
3724	65.0207
3720	65.021
3716	65.0066
3712	65.0174
3708	65.0588
3704	65.0705
3700	65.0833
3696	65.1244
3692	65.1458
3688	65.0796
3684	64.9881
3680	64.9795
3676	65.0197
3672	64.9814
3668	64.913
3664	64.8808
3660	64.946
3656	65.1605
3652	65.2522
3648	65.1641
3644	65.0908
3640	65.0687
3636	65.0994
3632	65.0649
3628	64.9382
3624	64.9518
3620	65.0692
3616	65.0513
3612	65.0045
3608	64.9837
3604	64.8583
3600	64.8062
3596	64.9331
3592	65.0116
3588	64.9248
3584	64.8788
3580	65.0933
3576	65.311
3572	65.1809
3568	64.9234
3564	64.8475
3560	64.843
3556	64.87
3552	65.0019
3548	65.0464
3544	64.8966
3540	64.7561
3536	64.8036
3532	64.9601
3528	65.0626
3524	65.0425
3520	64.9009
3516	64.8329
3512	64.9528
3508	65.0936
3504	65.1549
3500	65.132
3496	64.9886
3492	64.8318
3488	64.8812
3484	65.0498
3480	65.1441
3476	65.1967
3472	65.2419
3468	65.2339
3464	65.1119
3460	64.9939
3456	65.0162
3452	65.0998
3448	65.1172
3444	65.0801
3440	65.1298
3436	65.2131
3432	65.1484
3428	65.058
3424	65.1166
3420	65.1974
3416	65.2271
3412	65.1944
3408	65.079
3404	65.0671
3400	65.2283
3396	65.3131
3392	65.2437
3388	65.1422
3384	65.0263
3380	64.9706
3376	64.9508
3372	64.9146
3368	64.9977
3364	65.1971
3360	65.2555
3356	65.0608
3352	64.8955
3348	64.9333
3344	65.0762
3340	65.1296
3336	64.9832
3332	64.9223
3328	65.0295
3324	65.06
3320	65.0525
3316	65.003
3312	64.826
3308	64.7713
3304	64.884
3300	64.9189
3296	65.0093
3292	65.109
3288	64.9575
3284	64.8095
3280	64.8468
3276	64.905
3272	64.9633
3268	64.9836
3264	64.927
3260	64.9904
3256	65.1097
3252	65.0801
3248	65.0221
3244	64.9872
3240	64.9708
3236	65.0366
3232	65.1052
3228	65.038
3224	64.8328
3220	64.7866
3216	64.9955
3212	65.1418
3208	65.1231
3204	65.0303
3200	64.9813
3196	64.9784
3192	64.9649
3188	65.0204
3184	65.1019
3180	65.153
3176	65.209
3172	65.2667
3168	65.2432
3164	65.0963
3160	64.9614
3156	65.0005
3152	65.1228
3148	65.085
3144	64.8934
3140	64.8479
3136	65.1047
3132	65.2426
3128	64.9424
3124	64.5646
3120	64.4866
3116	64.6837
3112	64.8569
3108	64.9877
3104	65.1697
3100	65.1876
3096	65.0933
3092	65.1045
3088	65.1773
3084	65.1437
3080	65.0502
3076	65.0643
3072	65.0761
3068	65.0085
3064	64.9876
3060	65.0465
3056	65.1169
3052	65.1515
3048	65.1307
3044	65.0555
3040	65.0164
3036	65.0327
3032	64.9895
3028	64.9554
3024	65.0459
3020	65.1495
3016	65.1245
3012	65.01
3008	64.8957
3004	64.8124
3000	64.8733
2996	65.0188
2992	65.0314
2988	64.9404
2984	64.9008
2980	64.9565
2976	65.0192
2972	64.9885
2968	64.9421
2964	65.0122
2960	65.0694
2956	64.9676
2952	64.8581
2948	64.8753
2944	64.8722
2940	64.7847
2936	64.7504
2932	64.6775
2928	64.5591
2924	64.5828
2920	64.6262
2916	64.6286
2912	64.7332
2908	64.8689
2904	64.8733
2900	64.7732
2896	64.7429
2892	64.8546
2888	64.952
2884	64.9588
2880	64.9784
2876	65.0367
2872	65.0237
2868	64.923
2864	64.8703
2860	64.8895
2856	64.9105
2852	64.9322
2848	64.9668
2844	64.9718
2840	64.9759
2836	65.0263
2832	65.0338
2828	64.972
2824	64.9685
2820	65.0685
2816	65.1143
2812	65.0394
2808	64.9953
2804	65.004
2800	64.9906
2796	64.9968
2792	65.0242
2788	65.0044
2784	64.9896
2780	64.9937
2776	64.9842
2772	65.0233
2768	65.091
2764	65.1511
2760	65.1693
2756	65.1328
2752	65.1278
2748	65.1217
2744	65.065
2740	65.0296
2736	65.0543
2732	65.1084
2728	65.143
2724	65.1478
2720	65.152
2716	65.1466
2712	65.1365
2708	65.1279
2704	65.0974
2700	65.0826
2696	65.0604
2692	64.9961
2688	64.9554
2684	65.0104
2680	65.1093
2676	65.1363
2672	65.1292
2668	65.1654
2664	65.2184
2660	65.2282
2656	65.1893
2652	65.1545
2648	65.1273
2644	65.1083
2640	65.1111
2636	65.1041
2632	65.0967
2628	65.1014
2624	65.1148
2620	65.1482
2616	65.2279
2612	65.2871
2608	65.1914
2604	65.0578
2600	65.0409
2596	65.1134
2592	65.1656
2588	65.0945
2584	65.0172
2580	65.0573
2576	65.1335
2572	65.1583
2568	65.1368
2564	65.1217
2560	65.1318
2556	65.1639
2552	65.1923
2548	65.1539
2544	65.0858
2540	65.0629
2536	65.0563
2532	65.0247
2528	64.9841
2524	65.0038
2520	65.0541
2516	65.0488
2512	65.0847
2508	65.16
2504	65.0933
2500	64.9858
2496	64.9539
2492	64.894
2488	64.8944
2484	65.0254
2480	65.1255
2476	65.1369
2472	65.1005
2468	65.0628
2464	65.0985
2460	65.1609
2456	65.1145
2452	65.0679
2448	65.1163
2444	65.0967
2440	65.0258
2436	65.0415
2432	65.0141
2428	64.948
2424	65.1863
2420	65.4693
2416	65.3784
2412	65.177
2408	65.1264
2404	65.1962
2400	65.1841
2396	65.0774
2392	65.0073
2388	64.9756
2384	65.0166
2380	65.0885
2376	65.1083
2372	65.1098
2368	65.1114
2364	65.1052
2360	65.1182
2356	65.1096
2352	65.0343
2348	64.9756
2344	65.0284
2340	65.0714
2336	65.052
2332	65.0977
2328	65.1393
2324	65.1105
2320	65.071
2316	65.044
2312	65.0416
2308	65.0643
2304	65.0667
2300	65.0225
2296	65.0156
2292	65.0495
2288	65.0808
2284	65.0723
2280	65.0064
2276	64.9745
2272	65.0314
2268	65.0987
2264	65.1147
2260	65.1556
2256	65.2152
2252	65.2224
2248	65.2106
2244	65.178
2240	65.1304
2236	65.1483
2232	65.2111
2228	65.2148
2224	65.1413
2220	65.1121
2216	65.1542
2212	65.1336
2208	65.0614
2204	65.027
2200	65.0298
2196	65.0655
2192	65.1275
2188	65.1718
2184	65.1929
2180	65.1963
2176	65.1419
2172	65.0498
2168	65.0045
2164	65.0342
2160	65.0792
2156	65.11
2152	65.1718
2148	65.1999
2144	65.1751
2140	65.2164
2136	65.2528
2132	65.1949
2128	65.1418
2124	65.1266
2120	65.1005
2116	65.069
2112	65.0754
2108	65.1392
2104	65.1947
2100	65.1719
2096	65.1032
2092	65.0718
2088	65.1301
2084	65.1915
2080	65.1942
2076	65.1198
2072	64.9806
2068	64.9543
2064	64.9843
2060	64.9333
2056	64.9258
2052	65.0336
2048	65.1253
2044	65.1515
2040	65.174
2036	65.172
2032	65.1563
2028	65.132
2024	65.0842
2020	65.011
2016	64.9873
2012	65.0984
2008	65.1967
2004	65.1833
2000	65.0939
1996	65.0292
1992	65.1011
1988	65.1876
1984	65.1572
1980	65.083
1976	65.0789
1972	65.1121
1968	65.0667
1964	64.9915
1960	64.9796
1956	65.0163
1952	65.0724
1948	65.1493
1944	65.2047
1940	65.1755
1936	65.1543
1932	65.1667
1928	65.111
1924	65.0681
1920	65.0981
1916	65.1016
1912	65.0464
1908	64.9809
1904	64.9765
1900	65.0756
1896	65.1973
1892	65.2285
1888	65.1639
1884	65.1487
1880	65.2208
1876	65.2007
1872	65.0931
1868	65.0644
1864	65.1014
1860	65.1157
1856	65.105
1852	65.1162
1848	65.1213
1844	65.0926
1840	65.085
1836	65.0981
1832	65.1443
1828	65.1876
1824	65.1398
1820	65.1028
1816	65.1067
1812	65.0565
1808	65.0827
1804	65.2236
1800	65.2535
1796	65.1544
1792	65.1268
1788	65.1726
1784	65.1674
1780	65.1223
1776	65.1227
1772	65.1625
1768	65.1327
1764	65.0345
1760	64.9903
1756	65.0374
1752	65.102
1748	65.1397
1744	65.1134
1740	65.0332
1736	64.9882
1732	64.9916
1728	64.9724
1724	64.9117
1720	64.8833
1716	64.9567
1712	65.052
1708	65.0714
1704	65.113
1700	65.1874
1696	65.178
1692	65.1475
1688	65.2009
1684	65.246
1680	65.1429
1676	64.9813
1672	64.974
1668	65.1085
1664	65.1803
1660	65.1118
1656	64.9959
1652	64.8898
1648	64.8378
1644	64.8627
1640	64.8663
1636	64.8212
1632	64.8223
1628	64.8887
1624	64.9525
1620	64.985
1616	64.9783
1612	64.9316
1608	64.915
1604	64.9077
1600	64.8478
1596	64.7959
1592	64.7983
1588	64.8552
1584	64.9072
1580	64.941
1576	65.0085
1572	65.0303
1568	64.9817
1564	64.9479
1560	64.9209
1556	64.9085
1552	64.927
1548	64.9037
1544	64.8678
1540	64.856
1536	64.8365
1532	64.8763
1528	64.9276
1524	64.9192
1520	64.9487
1516	64.9715
1512	64.8661
1508	64.7855
1504	64.9092
1500	65.012
1496	64.9599
1492	64.9794
1488	65.0452
1484	65.033
1480	64.9534
1476	64.8824
1472	64.8865
1468	64.9041
1464	64.8768
1460	64.7451
1456	64.5832
1452	64.627
1448	64.7362
1444	64.7265
1440	64.8547
1436	65.057
1432	65.0456
1428	64.9567
1424	64.9245
1420	64.8818
1416	64.8668
1412	64.9
1408	64.888
1404	64.8578
1400	64.8762
1396	64.9047
1392	64.9258
1388	64.9532
1384	64.9921
1380	65.0043
1376	64.9493
1372	64.8944
1368	64.9536
1364	65.0841
1360	65.0918
1356	64.9819
1352	64.8848
1348	64.8413
1344	64.8634
1340	64.855
1336	64.8192
1332	64.8486
1328	64.8429
1324	64.809
1320	64.8442
1316	64.8996
1312	64.9287
1308	64.8978
1304	64.8662
1300	64.9029
1296	64.9559
1292	64.9268
1288	64.8491
1284	64.8412
1280	64.8362
1276	64.8309
1272	64.8302
1268	64.7992
1264	64.8181
1260	64.8494
1256	64.847
1252	64.8437
1248	64.8185
1244	64.7838
1240	64.7563
1236	64.7178
1232	64.6994
1228	64.7569
1224	64.8286
1220	64.844
1216	64.8701
1212	64.917
1208	64.914
1204	64.8812
1200	64.8316
1196	64.7055
1192	64.6307
1188	64.6442
1184	64.5867
1180	64.5607
1176	64.5897
1172	64.6028
1168	64.6171
1164	64.649
1160	64.6864
1156	64.685
1152	64.7358
1148	64.8457
1144	64.844
1140	64.7361
1136	64.6589
1132	64.6411
1128	64.6191
1124	64.572
1120	64.6188
1116	64.7408
1112	64.6685
1108	64.4043
1104	64.2685
1100	64.2536
1096	64.0871
1092	64.0418
1088	64.5156
1084	65.0156
1080	64.9289
1076	64.4727
1072	64.1742
1068	64.2144
1064	64.4728
1060	64.6676
1056	64.6697
1052	64.6666
1048	64.578
1044	64.3584
1040	64.2914
1036	64.4037
1032	64.5689
1028	64.5413
1024	64.2362
1020	64.0455
1016	64.0641
1012	64.092
1008	64.0524
1004	63.9966
1000	64.0732
996	 64.0968
992	 64.0824
988	 64.2127
984	 64.2584
980	 64.2318
976	 64.2237
972	 64.1394
968	 64.1591
964	 64.3289
960	 64.4314
956	 64.393
952	 64.2942
948	 64.2382
944	 64.2407
940	 64.3038
936	 64.3808
932	 64.4444
928	 64.5126
924	 64.5625
920	 64.5269
916	 64.4346
912	 64.3632
908	 64.308
904	 64.2635
900	 64.2129
896	 64.1509
892	 64.1441
888	 64.2327
884	 64.3887
880	 64.4151
876	 64.2398
872	 64.1617
868	 64.2758
864	 64.4317
860	 64.4655
856	 64.3847
852	 64.3403
848	 64.3323
844	 64.3168
840	 64.2715
836	 64.1326
832	 64.0916
828	 64.3085
824	 64.4358
820	 64.2739
816	 64.0733
812	 63.9903
808	 63.9874
804	 64.0553
800	 64.1561
796	 64.088
792	 63.8981
788	 63.8808
784	 64.021
780	 64.075
776	 64.0275
772	 63.9844
768	 63.8992
764	 63.8901
760	 63.8292
756	 63.6556
752	 64.0487
748	 64.5774
744	 64.2278
740	 63.5898
736	 63.4076
732	 63.2872
728	 63.0289
724	 63.0796
720	 63.2629
716	 63.2875
712	 63.3349
708	 63.3705
704	 63.3789
700	 63.4947
696	 63.6758
692	 63.587
688	 63.2999
684	 63.1782
680	 63.0793
676	 63.0584
672	 63.1285
668	 63.0525
664	 63.0579
660	 63.2436
656	 63.2682
652	 62.9543
648	 62.5848
644	 62.5054
640	 62.6418
636	 62.6898
632	 62.6579
628	 62.7689
624	 62.9197
620	 62.8878
616	 62.8792
612	 62.8764
608	 62.6818
604	 62.5067
600	 62.3315
596	 62.2385
592	 62.2716
588	 62.0321
584	 61.7282
580	 61.6115
576	 61.4638
572	 61.5826
568	 61.9358
564	 62.0742
560	 62.0066
556	 61.994
552	 62.0923
548	 62.0594
544	 61.8589
540	 61.578
536	 61.482
532	 61.5989
528	 61.715
524	 61.5912
520	 60.9006
516	 60.6561
512	 61.2642
508	 61.4927
504	 61.1493
500	 60.8192
496	 60.2953
492	 59.7718
488	 59.8348
484	 59.8275
480	 59.4928
476	 59.3971
472	 59.5552
468	 59.8276
464	 59.9905
460	 60.0185
456	 60.4833
452	 60.2556
448	 58.8149
444	 58.4417
440	 58.5193
436	 58.0805
432	 58.6404
428	 60.5466
424	 62.3755
420	 61.4856
416	 57.2169
412	 54.368
408	 55.5298
404	 55.6552
400	 56.2708
396	 70.3048
392	 84.0525
388	 79.5341
384	 73.5215
380	 78.4771
376	 81.2017
372	 66.7631
370	 59.0728