File: Bakgrunnsmateriale/MATLAB/FTIR/ftir_data/subBb/Mapping_121/C-4040-8_t45_cm-1.asc
PE IR       SPECTRUM    SPECTRUM    ASCII       PEDS        1.60
  -1
C-9BEE~1.ASC
17/03/27
18:13:55.00
17/03/27
18:13:55.00
tln
$C-4040-8_t0045$<tbV0>[13.0,-2.6,8.0,0.0,27,1,0]
370
64

2002,4.07
MIRTGS : RIGHTBACK : INTERNAL 2
MIR : ON : INTERNAL 2
OPTKBR

0.200000
8
8.000000
FILLER
RATIO
SPECTRUM
UNLOCKED 256

DOUBLE
64
COMBINED
1
0
0

1.000000
RATIO

1
0
TRUE
51149
0
LEFT NOT FITTED RIGHT NOT FITTED 0
NONE
NONE
15600
12
4.427000
51148
TRUE
1 0 8 72 0 0 0 0

15798

#HDR
-1
-1
#GR
CM-1
%T
2.38419e-05
0.0
5000
-1.000000
4631
8
77.1355
-14.5438
#DATA
5000	64.9082
4996	64.8144
4992	64.6732
4988	64.6598
4984	64.7612
4980	64.6529
4976	64.7404
4972	65.3138
4968	65.296
4964	64.6193
4960	64.4582
4956	64.7196
4952	64.7666
4948	64.6742
4944	64.6578
4940	64.6714
4936	64.5775
4932	64.5277
4928	64.8416
4924	65.2061
4920	65.0666
4916	64.6671
4912	64.4874
4908	64.7546
4904	65.1433
4900	65.0546
4896	64.9491
4892	65.0983
4888	64.8456
4884	64.3971
4880	64.3178
4876	64.4149
4872	64.5077
4868	64.6119
4864	64.7087
4860	64.6906
4856	64.5985
4852	64.7601
4848	64.9524
4844	64.9532
4840	65.0923
4836	65.1049
4832	64.7514
4828	64.6012
4824	64.6112
4820	64.4449
4816	64.5367
4812	64.8579
4808	64.8756
4804	64.7033
4800	64.6264
4796	64.7601
4792	64.9998
4788	65.1517
4784	65.3037
4780	65.2924
4776	64.9998
4772	64.7749
4768	64.6829
4764	64.5747
4760	64.6149
4756	64.8141
4752	64.7993
4748	64.6043
4744	64.6997
4740	64.8763
4736	64.7733
4732	64.543
4728	64.3664
4724	64.4022
4720	64.5582
4716	64.7248
4712	64.977
4708	65.202
4704	65.137
4700	64.9264
4696	64.9593
4692	65.1414
4688	65.2529
4684	65.2979
4680	65.131
4676	64.8001
4672	64.5475
4668	64.3868
4664	64.4952
4660	64.7684
4656	64.8178
4652	64.6552
4648	64.6005
4644	64.8118
4640	64.9492
4636	64.8213
4632	64.7136
4628	64.7759
4624	64.8157
4620	64.7867
4616	64.6881
4612	64.4061
4608	64.27
4604	64.5222
4600	64.88
4596	64.9788
4592	64.738
4588	64.6393
4584	64.949
4580	65.1673
4576	64.9432
4572	64.7155
4568	64.7894
4564	64.8868
4560	64.7527
4556	64.5261
4552	64.5119
4548	64.5756
4544	64.4703
4540	64.1752
4536	64.0023
4532	64.2935
4528	64.7308
4524	65.0352
4520	65.3563
4516	65.6777
4512	65.6866
4508	65.4743
4504	65.2362
4500	64.9866
4496	65.1044
4492	65.3132
4488	65.0999
4484	64.8079
4480	64.8473
4476	65.0721
4472	65.0714
4468	65.0715
4464	65.435
4460	65.6476
4456	65.3827
4452	65.1266
4448	64.9709
4444	64.8867
4440	65.0025
4436	65.1287
4432	65.2283
4428	65.5036
4424	65.7135
4420	65.5839
4416	65.4299
4412	65.4636
4408	65.4276
4404	65.3397
4400	65.1219
4396	64.5073
4392	63.8255
4388	63.3157
4384	62.8742
4380	62.8509
4376	63.4291
4372	65.6567
4368	73.6358
4364	76.3244
4360	64.8936
4356	55.3204
4352	57.5609
4348	63.1114
4344	65.3962
4340	65.8853
4336	65.5266
4332	65.1577
4328	65.2627
4324	65.6507
4320	65.9734
4316	66.0467
4312	65.9242
4308	65.7208
4304	65.5626
4300	65.3866
4296	65.1848
4292	65.0943
4288	65.2909
4284	65.5194
4280	65.5075
4276	65.4014
4272	65.3862
4268	65.4445
4264	65.3548
4260	65.1248
4256	65.0307
4252	65.0353
4248	64.973
4244	64.9158
4240	64.8419
4236	64.826
4232	65.0235
4228	65.0834
4224	64.9681
4220	65.1009
4216	65.3365
4212	65.4138
4208	65.369
4204	65.1718
4200	64.975
4196	64.6585
4192	64.2169
4188	64.073
4184	63.8765
4180	63.4987
4176	63.611
4172	64.4763
4168	65.4253
4164	65.533
4160	65.2481
4156	65.1596
4152	64.9907
4148	64.8599
4144	64.7818
4140	64.6903
4136	64.8747
4132	65.0156
4128	64.875
4124	64.8284
4120	64.9421
4116	65.0619
4112	65.1872
4108	65.2546
4104	65.1415
4100	64.9402
4096	64.8675
4092	64.9804
4088	65.0607
4084	64.9822
4080	65.0044
4076	65.1355
4072	65.084
4068	64.8996
4064	64.7682
4060	64.8136
4056	64.9722
4052	64.9976
4048	64.9609
4044	64.9365
4040	64.9455
4036	65.1326
4032	65.2431
4028	65.1454
4024	65.15
4020	65.3311
4016	65.3791
4012	65.1313
4008	64.8523
4004	64.7887
4000	64.877
3996	64.9177
3992	64.9436
3988	64.9312
3984	64.7873
3980	64.7966
3976	64.9779
3972	64.9947
3968	64.9159
3964	64.8984
3960	64.9024
3956	64.9718
3952	65.1127
3948	65.2445
3944	65.2498
3940	65.0902
3936	64.9653
3932	64.9693
3928	64.8871
3924	64.8157
3920	64.9864
3916	65.117
3912	65.0654
3908	65.0361
3904	65.1193
3900	65.2832
3896	65.3271
3892	65.1895
3888	65.0799
3884	65.0241
3880	64.9685
3876	65.0292
3872	65.186
3868	65.2572
3864	65.1585
3860	65.006
3856	64.9694
3852	64.9691
3848	64.93
3844	64.9194
3840	64.8726
3836	64.7506
3832	64.7407
3828	65.0046
3824	65.1911
3820	64.9645
3816	64.8064
3812	65.0225
3808	65.2742
3804	65.3235
3800	65.2502
3796	65.2495
3792	65.3103
3788	65.2814
3784	65.2232
3780	65.2595
3776	65.2682
3772	65.2363
3768	65.2255
3764	65.2175
3760	65.183
3756	65.0754
3752	65.0844
3748	65.2284
3744	65.2794
3740	65.1643
3736	65.0248
3732	65.1078
3728	65.2622
3724	65.2358
3720	65.1587
3716	65.1425
3712	65.1158
3708	65.044
3704	64.971
3700	65.0062
3696	65.1363
3692	65.2194
3688	65.24
3684	65.2353
3680	65.1654
3676	65.1532
3672	65.2358
3668	65.1831
3664	65.0693
3660	65.0781
3656	65.2066
3652	65.3041
3648	65.2161
3644	65.1484
3640	65.2316
3636	65.2577
3632	65.1813
3628	65.1559
3624	65.1631
3620	65.0936
3616	64.9594
3612	64.8526
3608	64.9334
3604	65.1085
3600	65.1332
3596	65.0845
3592	65.0498
3588	65.0018
3584	65.0683
3580	65.3006
3576	65.4103
3572	65.2563
3568	65.0738
3564	65.0129
3560	64.9841
3556	64.9451
3552	64.969
3548	65.0486
3544	65.1864
3540	65.3398
3536	65.3715
3532	65.2724
3528	65.1521
3524	65.0858
3520	65.0654
3516	65.123
3512	65.2724
3508	65.3731
3504	65.362
3500	65.3208
3496	65.2251
3492	65.1394
3488	65.2292
3484	65.2635
3480	65.1299
3476	65.126
3472	65.2273
3468	65.1922
3464	65.0327
3460	65.0351
3456	65.235
3452	65.3743
3448	65.3331
3444	65.1252
3440	64.9926
3436	65.0452
3432	65.0936
3428	65.1245
3424	65.1589
3420	65.1059
3416	65.0446
3412	65.096
3408	65.1458
3404	65.1112
3400	65.1099
3396	65.1731
3392	65.2286
3388	65.2323
3384	65.1344
3380	65.0319
3376	65.0703
3372	65.1696
3368	65.2302
3364	65.2317
3360	65.1688
3356	65.0564
3352	64.9114
3348	64.8458
3344	64.9933
3340	65.2141
3336	65.2961
3332	65.3662
3328	65.496
3324	65.528
3320	65.4354
3316	65.2184
3312	64.9431
3308	64.7743
3304	64.7469
3300	64.8333
3296	65.0051
3292	65.1223
3288	65.1369
3284	65.1604
3280	65.1833
3276	65.1799
3272	65.1809
3268	65.1802
3264	65.1223
3260	65.1068
3256	65.2163
3252	65.2551
3248	65.1902
3244	65.1465
3240	65.1443
3236	65.1303
3232	65.1401
3228	65.2122
3224	65.1776
3220	65.049
3216	65.0139
3212	65.0904
3208	65.2376
3204	65.2938
3200	65.2024
3196	65.0399
3192	64.8487
3188	64.8361
3184	64.9808
3180	65.1187
3176	65.2433
3172	65.3234
3168	65.2707
3164	65.0918
3160	65.0163
3156	65.1303
3152	65.2599
3148	65.3688
3144	65.3729
3140	65.142
3136	65.0329
3132	65.133
3128	65.0444
3124	64.9592
3120	65.0115
3116	64.9377
3112	64.9282
3108	65.1237
3104	65.2417
3100	65.2279
3096	65.2329
3092	65.2559
3088	65.2374
3084	65.142
3080	65.0687
3076	65.1255
3072	65.2034
3068	65.1597
3064	65.1033
3060	65.1382
3056	65.1881
3052	65.2213
3048	65.1725
3044	65.0672
3040	65.0537
3036	65.0595
3032	65.0017
3028	65.0021
3024	65.0692
3020	65.1263
3016	65.15
3012	65.151
3008	65.1879
3004	65.2227
3000	65.2077
2996	65.2187
2992	65.2201
2988	65.1469
2984	65.098
2980	65.1092
2976	65.119
2972	65.1429
2968	65.2384
2964	65.3054
2960	65.269
2956	65.2163
2952	65.1919
2948	65.2009
2944	65.2097
2940	65.1819
2936	65.1406
2932	65.0744
2928	65.0192
2924	65.0166
2920	64.9717
2916	64.8899
2912	64.9663
2908	65.1317
2904	65.1642
2900	65.1471
2896	65.1382
2892	65.1356
2888	65.1894
2884	65.198
2880	65.1083
2876	65.0389
2872	65.089
2868	65.1619
2864	65.0963
2860	64.994
2856	64.9934
2852	64.9936
2848	65.0195
2844	65.136
2840	65.2042
2836	65.1346
2832	65.0973
2828	65.1764
2824	65.2506
2820	65.3209
2816	65.3302
2812	65.31
2808	65.3331
2804	65.3013
2800	65.2562
2796	65.2115
2792	65.1409
2788	65.1232
2784	65.1285
2780	65.1356
2776	65.2174
2772	65.2694
2768	65.2537
2764	65.2819
2760	65.2776
2756	65.2136
2752	65.2252
2748	65.3102
2744	65.3269
2740	65.2564
2736	65.2039
2732	65.1851
2728	65.2169
2724	65.2581
2720	65.2198
2716	65.2217
2712	65.3325
2708	65.3872
2704	65.2773
2700	65.1549
2696	65.1635
2692	65.1829
2688	65.159
2684	65.202
2680	65.3033
2676	65.3534
2672	65.3218
2668	65.2915
2664	65.3181
2660	65.3477
2656	65.323
2652	65.2511
2648	65.164
2644	65.1392
2640	65.2061
2636	65.271
2632	65.3298
2628	65.3921
2624	65.407
2620	65.3892
2616	65.3752
2612	65.3917
2608	65.3557
2604	65.2558
2600	65.248
2596	65.3447
2592	65.3913
2588	65.3708
2584	65.3662
2580	65.3285
2576	65.288
2572	65.2968
2568	65.2948
2564	65.2727
2560	65.2683
2556	65.3466
2552	65.4452
2548	65.4319
2544	65.4052
2540	65.4278
2536	65.3799
2532	65.2505
2528	65.1264
2524	65.154
2520	65.3536
2516	65.4582
2512	65.4374
2508	65.437
2504	65.2641
2500	64.971
2496	64.9008
2492	65.0047
2488	65.1363
2484	65.1644
2480	65.0776
2476	65.1205
2472	65.2334
2468	65.23
2464	65.235
2460	65.3156
2456	65.2975
2452	65.2346
2448	65.2985
2444	65.3936
2440	65.3869
2436	65.2909
2432	65.2698
2428	65.4424
2424	65.6571
2420	65.5179
2416	64.9683
2412	64.6833
2408	64.9476
2404	65.2107
2400	65.2324
2396	65.2004
2392	65.1745
2388	65.1249
2384	65.0825
2380	65.0768
2376	65.0856
2372	65.1837
2368	65.3396
2364	65.3816
2360	65.3269
2356	65.2294
2352	65.1072
2348	65.0425
2344	65.1171
2340	65.2287
2336	65.2501
2332	65.2742
2328	65.3094
2324	65.242
2320	65.0967
2316	65.0329
2312	65.107
2308	65.2423
2304	65.3611
2300	65.3692
2296	65.3162
2292	65.3221
2288	65.2987
2284	65.2106
2280	65.1396
2276	65.1045
2272	65.1141
2268	65.1577
2264	65.2141
2260	65.2405
2256	65.2875
2252	65.3712
2248	65.3745
2244	65.3203
2240	65.2681
2236	65.2302
2232	65.2134
2228	65.1835
2224	65.1598
2220	65.2233
2216	65.3252
2212	65.3515
2208	65.2956
2204	65.1851
2200	65.098
2196	65.1059
2192	65.1818
2188	65.2378
2184	65.2218
2180	65.1618
2176	65.1114
2172	65.1257
2168	65.1599
2164	65.2686
2160	65.4549
2156	65.4289
2152	65.2899
2148	65.2676
2144	65.3133
2140	65.3837
2136	65.3742
2132	65.2954
2128	65.2062
2124	65.1817
2120	65.2781
2116	65.2987
2112	65.2241
2108	65.2136
2104	65.2716
2100	65.3738
2096	65.3993
2092	65.3211
2088	65.2342
2084	65.1343
2080	65.1585
2076	65.3329
2072	65.3193
2068	65.0494
2064	64.9879
2060	65.1875
2056	65.2327
2052	65.1876
2048	65.2175
2044	65.2849
2040	65.3483
2036	65.3582
2032	65.4251
2028	65.5093
2024	65.4522
2020	65.3088
2016	65.1956
2012	65.204
2008	65.2647
2004	65.2896
2000	65.2971
1996	65.2654
1992	65.3006
1988	65.3997
1984	65.3876
1980	65.3472
1976	65.3889
1972	65.4239
1968	65.3375
1964	65.213
1960	65.1678
1956	65.1827
1952	65.262
1948	65.3492
1944	65.388
1940	65.4182
1936	65.4618
1932	65.4537
1928	65.3429
1924	65.2726
1920	65.3157
1916	65.3403
1912	65.3193
1908	65.2733
1904	65.2068
1900	65.1954
1896	65.2897
1892	65.4238
1888	65.4307
1884	65.3621
1880	65.3701
1876	65.3307
1872	65.2479
1868	65.2675
1864	65.3248
1860	65.3164
1856	65.2512
1852	65.242
1848	65.3022
1844	65.366
1840	65.4132
1836	65.4111
1832	65.4136
1828	65.3933
1824	65.28
1820	65.2033
1816	65.2399
1812	65.3375
1808	65.3895
1804	65.2959
1800	65.1537
1796	65.1462
1792	65.2333
1788	65.2603
1784	65.2666
1780	65.3191
1776	65.3446
1772	65.3623
1768	65.3799
1764	65.2729
1760	65.1145
1756	65.0876
1752	65.1174
1748	65.0828
1744	65.0388
1740	65.0121
1736	64.9622
1732	64.9297
1728	64.9185
1724	64.8941
1720	64.8966
1716	64.8634
1712	64.8519
1708	65.0313
1704	65.2637
1700	65.4
1696	65.3937
1692	65.2899
1688	65.2839
1684	65.3396
1680	65.2742
1676	65.1789
1672	65.2043
1668	65.2651
1664	65.2576
1660	65.2084
1656	65.2044
1652	65.2352
1648	65.1991
1644	65.0938
1640	65.0039
1636	64.9791
1632	65.0126
1628	65.0731
1624	65.1496
1620	65.231
1616	65.2051
1612	65.1029
1608	65.1415
1604	65.2667
1600	65.2444
1596	65.1207
1592	65.0378
1588	65.0159
1584	65.0169
1580	65.015
1576	65.0755
1572	65.1954
1568	65.1989
1564	65.081
1560	65.003
1556	65.0147
1552	65.0638
1548	65.0777
1544	65.0731
1540	65.0877
1536	65.0787
1532	65.0345
1528	64.9558
1524	64.9337
1520	65.0504
1516	65.123
1512	65.0682
1508	65.0324
1504	65.0532
1500	65.0434
1496	64.9938
1492	65.0301
1488	65.1619
1484	65.2208
1480	65.1651
1476	65.0885
1472	65.0329
1468	65.0266
1464	65.0183
1460	64.8177
1456	64.5522
1452	64.6847
1448	65.019
1444	65.0134
1440	64.8587
1436	64.8566
1432	64.9068
1428	64.9773
1424	65.0799
1420	65.1011
1416	65.0527
1412	65.0039
1408	64.9316
1404	64.8665
1400	64.9189
1396	65.0396
1392	65.098
1388	65.1334
1384	65.1943
1380	65.165
1376	64.9999
1372	64.8875
1368	64.9288
1364	65.0009
1360	65.0151
1356	64.9649
1352	64.8608
1348	64.7934
1344	64.8419
1340	64.9292
1336	65.007
1332	65.0491
1328	64.9835
1324	64.8609
1320	64.8029
1316	64.8712
1312	64.9816
1308	65.0251
1304	65.0624
1300	65.1073
1296	65.0817
1292	65.0157
1288	64.9879
1284	64.9897
1280	64.9706
1276	64.9889
1272	65.0231
1268	64.974
1264	64.9251
1260	64.9355
1256	64.9402
1252	64.8899
1248	64.8669
1244	64.9363
1240	64.9508
1236	64.9017
1232	64.864
1228	64.8662
1224	64.9281
1220	64.9658
1216	64.9658
1212	64.9293
1208	64.9141
1204	64.9156
1200	64.8776
1196	64.9353
1192	65.069
1188	65.0753
1184	64.9423
1180	64.8837
1176	64.8756
1172	64.8323
1168	64.8046
1164	64.8014
1160	64.861
1156	64.9141
1152	64.8735
1148	64.8375
1144	64.6518
1140	64.2616
1136	64.1813
1132	64.4414
1128	64.7145
1124	65.0687
1120	65.3792
1116	65.2991
1112	64.887
1108	64.5324
1104	64.5137
1100	64.6435
1096	64.5191
1092	64.4878
1088	64.8659
1084	65.0462
1080	64.6934
1076	64.3344
1072	64.3838
1068	64.7163
1064	65.1489
1060	65.3121
1056	65.0661
1052	64.9176
1048	64.9168
1044	64.8348
1040	64.7886
1036	64.8022
1032	64.9306
1028	65.0429
1024	64.7635
1020	64.1419
1016	63.9806
1012	64.5226
1008	64.8144
1004	64.6668
1000	64.7322
996	 64.848
992	 64.7747
988	 64.721
984	 64.6401
980	 64.5625
976	 64.5208
972	 64.4331
968	 64.4896
964	 64.6464
960	 64.6955
956	 64.7145
952	 64.7033
948	 64.6196
944	 64.5023
940	 64.4298
936	 64.4294
932	 64.4573
928	 64.4815
924	 64.5236
920	 64.6026
916	 64.5643
912	 64.398
908	 64.3109
904	 64.2962
900	 64.2402
896	 64.1986
892	 64.2483
888	 64.3669
884	 64.4894
880	 64.4262
876	 64.2272
872	 64.2702
868	 64.4924
864	 64.595
860	 64.4676
856	 64.2838
852	 64.1986
848	 63.9905
844	 63.8014
840	 64.0134
836	 64.3459
832	 64.3291
828	 64.1068
824	 64.0551
820	 64.1147
816	 64.1943
812	 64.3404
808	 64.3193
804	 64.062
800	 63.8081
796	 63.6397
792	 63.514
788	 63.5168
784	 63.7147
780	 63.9651
776	 64.1128
772	 64.0542
768	 63.8523
764	 63.8079
760	 63.7864
756	 63.6953
752	 64.0585
748	 64.3251
744	 63.8202
740	 63.5159
736	 63.8844
732	 64.1406
728	 63.7926
724	 63.2967
720	 63.2521
716	 63.5333
712	 63.5894
708	 63.3718
704	 63.35
700	 63.4473
696	 63.3075
692	 63.049
688	 62.8789
684	 62.8206
680	 62.8246
676	 62.817
672	 62.7956
668	 62.7028
664	 62.5125
660	 62.5574
656	 62.8882
652	 62.9816
648	 62.59
644	 62.1198
640	 62.0005
636	 62.1502
632	 62.3489
628	 62.4682
624	 62.4874
620	 62.5186
616	 62.6171
612	 62.7177
608	 62.8148
604	 62.806
600	 62.4972
596	 62.145
592	 61.9507
588	 61.787
584	 61.7872
580	 61.6938
576	 61.3848
572	 61.426
568	 61.6654
564	 61.7337
560	 61.6359
556	 61.468
552	 61.4527
548	 61.5692
544	 61.3277
540	 60.8427
536	 60.7465
532	 60.8001
528	 60.8167
524	 60.7292
520	 60.3357
516	 60.2922
512	 60.6091
508	 60.5012
504	 60.1386
500	 60.0141
496	 60.1568
492	 60.4467
488	 60.3712
484	 59.7793
480	 59.2724
476	 59.1922
472	 59.3537
468	 59.3847
464	 59.2324
460	 58.9943
456	 58.705
452	 58.2077
448	 57.1732
444	 56.8133
440	 58.0968
436	 59.046
432	 58.1138
428	 56.3783
424	 55.8073
420	 57.4378
416	 58.1054
412	 57.3298
408	 63.3095
404	 68.8101
400	 58.9896
396	 47.1018
392	 48.5062
388	 59.34
384	 69.9078
380	 63.8266
376	 20.4117
372	 -14.5274
370	 -11.3379