File: Bakgrunnsmateriale/MATLAB/FTIR/ftir_data/subBb/Mapping_121/C-4040-8_t76.asc
PE IR       SPECTRUM    SPECTRUM    ASCII       PEDS        1.60
  -1
C-B142~1.ASC
17/03/27
20:44:20.00
17/03/27
20:44:46.00
tln
$C-4040-8_t0076$<tbV0>[-10.4,2.6,8.0,0.0,27,1,0]
27.028
64

2002,4.07
MIRTGS : RIGHTBACK : INTERNAL 2
MIR : ON : INTERNAL 2
OPTKBR

0.200000
8
8.000000
FILLER
RATIO
SPECTRUM
UNLOCKED 256

DOUBLE
64
COMBINED
1
0
0

0.002000
RATIO

1
0
TRUE
51149
0
LEFT NOT FITTED RIGHT NOT FITTED 0
NONE
NONE
15600
12
4.427000
51148
TRUE
1 0 8 72 0 0 0 0

15798

#HDR
-1
-1
#GR
µM
%T
2.38419e-05
0.0
2.000000
0.002000
12515
8
80.8699
25.9197
#DATA
2.000000	 65.3125
2.018000	 64.7885
2.036000	 64.8416
2.054000	 65.0451
2.072000	 65.0164
2.090000	 65.1308
2.108000	 65.0941
2.126000	 65.1567
2.144000	 65.2545
2.162000	 65.577
2.180000	 65.0114
2.198000	 65.3992
2.216000	 64.397
2.234000	 64.2887
2.252000	 64.8341
2.270000	 62.5865
2.288000	 69.1312
2.306000	 64.6303
2.324000	 64.5805
2.342000	 64.8349
2.360000	 64.6668
2.378000	 64.7908
2.396000	 64.6698
2.414000	 65.2323
2.432000	 65.0382
2.450000	 65.1949
2.468000	 65.1161
2.486000	 65.1932
2.504000	 65.2818
2.522000	 65.237
2.540000	 65.0998
2.558000	 65.1495
2.576000	 65.0275
2.594000	 64.9671
2.612000	 64.9886
2.630000	 64.968
2.648000	 65.158
2.666000	 65.1527
2.684000	 65.2568
2.702000	 65.1587
2.720000	 65.2191
2.738000	 65.2713
2.756000	 65.1947
2.774000	 65.1944
2.792000	 65.146
2.810000	 65.2371
2.828000	 65.2448
2.846000	 65.3156
2.864000	 65.2047
2.882000	 65.2516
2.900000	 65.5277
2.918000	 65.1851
2.936000	 65.2954
2.954000	 65.3627
2.972000	 65.1385
2.990000	 65.2836
3.008000	 65.1793
3.026000	 65.3289
3.044000	 65.2969
3.062000	 65.367
3.080000	 65.201
3.098000	 65.3148
3.116000	 65.2912
3.134000	 65.2501
3.152000	 65.0644
3.170000	 65.3322
3.188000	 65.3865
3.206000	 65.0932
3.224000	 65.1791
3.242000	 65.0495
3.260000	 65.3479
3.278000	 65.2756
3.296000	 65.26
3.314000	 65.1052
3.332000	 65.0999
3.350000	 65.0887
3.368000	 64.9284
3.386000	 64.9857
3.404000	 65.0615
3.422000	 64.8063
3.440000	 64.9387
3.458000	 64.9078
3.476000	 64.9901
3.494000	 65.3173
3.512000	 65.0336
3.530000	 65.1855
3.548000	 65.3279
3.566000	 65.2654
3.584000	 65.1836
3.602000	 65.3963
3.620000	 65.2288
3.638000	 65.3561
3.656000	 65.3293
3.674000	 65.2315
3.692000	 65.2189
3.710000	 65.3824
3.728000	 65.248
3.746000	 65.3647
3.764000	 65.1815
3.782000	 65.1974
3.800000	 65.342
3.818000	 65.2344
3.836000	 65.2923
3.854000	 65.145
3.872000	 65.4396
3.890000	 65.2715
3.908000	 65.372
3.926000	 65.3289
3.944000	 65.2121
3.962000	 65.0276
3.980000	 65.4111
3.998000	 65.123
4.016000	 65.2798
4.034000	 65.3042
4.052000	 65.2614
4.070000	 65.3884
4.088000	 65.4003
4.106000	 65.0971
4.124000	 65.157
4.141999	 65.259
4.160000	 65.4042
4.178000	 65.2631
4.196000	 65.2946
4.214000	 65.2791
4.232000	 65.2614
4.250000	 65.2343
4.268000	 65.2818
4.286000	 65.3727
4.304000	 65.3648
4.322000	 65.2552
4.340000	 65.2585
4.358000	 65.3305
4.375999	 65.3561
4.394000	 65.3176
4.412000	 65.3349
4.430000	 65.3388
4.448000	 65.3664
4.466000	 65.2787
4.484000	 65.3047
4.502000	 65.3512
4.520000	 65.3179
4.538000	 65.2516
4.556000	 65.2147
4.574000	 65.3007
4.592000	 65.3414
4.609999	 65.2399
4.628000	 65.1664
4.646000	 65.1403
4.664000	 65.1635
4.682000	 65.2588
4.700000	 65.3679
4.718000	 65.2634
4.736000	 65.2774
4.754000	 65.3817
4.772000	 65.3292
4.790000	 65.2734
4.808000	 65.4636
4.826000	 65.4283
4.843999	 65.3705
4.862000	 65.3168
4.880000	 65.3872
4.898000	 65.3647
4.916000	 65.4171
4.934000	 65.2962
4.952000	 65.2367
4.970000	 65.442
4.988000	 65.3453
5.006000	 65.254
5.024000	 65.2545
5.042000	 65.2067
5.060000	 65.2236
5.077999	 65.3447
5.096000	 65.3843
5.114000	 65.4453
5.132000	 65.3055
5.150000	 65.1979
5.168000	 65.3275
5.186000	 65.3862
5.204000	 65.3146
5.222000	 65.3253
5.240000	 65.3938
5.258000	 65.3372
5.276000	 65.2533
5.294000	 65.2913
5.312000	 65.2205
5.330000	 65.2565
5.348000	 65.2814
5.366000	 65.2639
5.384000	 65.2467
5.402000	 65.1223
5.420000	 65.208
5.438000	 65.4515
5.456000	 65.3861
5.474000	 65.3937
5.492000	 65.4623
5.510000	 65.4272
5.528000	 65.341
5.546000	 65.2516
5.564000	 65.2581
5.582000	 65.3284
5.600000	 65.3723
5.618000	 65.3282
5.636000	 65.211
5.654000	 65.2456
5.672000	 65.3753
5.690000	 65.4583
5.708000	 65.3336
5.726000	 65.1518
5.744000	 65.0298
5.762000	 65.0056
5.780000	 64.9439
5.798000	 64.96
5.816000	 65.1462
5.834000	 65.3603
5.852000	 65.2759
5.870000	 65.2274
5.888000	 65.3099
5.906000	 65.3166
5.923999	 65.3617
5.942000	 65.339
5.960000	 65.2468
5.978000	 65.2694
5.996000	 65.2816
6.014000	 65.2398
6.032000	 65.2546
6.050000	 65.3415
6.068000	 65.2743
6.086000	 65.2042
6.104000	 65.1623
6.122000	 65.1594
6.140000	 65.1812
6.158000	 65.0882
6.176000	 65.069
6.194000	 65.098
6.212000	 65.0561
6.230000	 65.0428
6.248000	 65.1129
6.266000	 65.1001
6.284000	 65.0322
6.302000	 65.0109
6.320000	 65.033
6.338000	 64.9737
6.356000	 64.9166
6.374000	 64.98
6.392000	 65.0051
6.410000	 64.9168
6.428000	 64.9501
6.446000	 65.0475
6.464000	 65.0311
6.482000	 64.9657
6.500000	 64.9743
6.518000	 65.0096
6.536000	 65.0717
6.554000	 65.1774
6.572000	 65.218
6.590000	 65.1096
6.608000	 65.0084
6.626000	 65.0579
6.644000	 65.0889
6.662000	 65.0078
6.680000	 64.912
6.698000	 64.9464
6.716000	 65.0672
6.734000	 65.1222
6.752000	 65.1731
6.770000	 65.2034
6.788000	 65.1227
6.806000	 64.9835
6.824000	 64.9388
6.842000	 65.0814
6.860000	 65.2255
6.878000	 65.203
6.896000	 65.0566
6.914000	 64.8686
6.932000	 64.8523
6.950000	 65.0324
6.968000	 65.1379
6.986000	 65.1349
7.004000	 65.1675
7.022000	 65.2007
7.040000	 65.1938
7.058000	 65.2079
7.076000	 65.2388
7.094000	 65.2374
7.112000	 65.1807
7.130000	 65.1025
7.148000	 65.0956
7.166000	 65.1482
7.184000	 65.166
7.202000	 65.1685
7.220000	 65.1942
7.238000	 65.2003
7.256000	 65.1767
7.274000	 65.1527
7.292000	 65.1207
7.310000	 65.0996
7.328000	 65.1295
7.346000	 65.1764
7.364000	 65.1752
7.382000	 65.1225
7.400000	 65.0542
7.418000	 64.9992
7.436000	 64.9836
7.454000	 65.0288
7.472000	 65.1048
7.490000	 65.1428
7.508000	 65.1277
7.526000	 65.1109
7.544000	 65.1298
7.562000	 65.1518
7.580000	 65.1206
7.598000	 65.0492
7.616000	 65.0095
7.634000	 65.0281
7.652000	 65.0731
7.670000	 65.1106
7.688000	 65.1147
7.706000	 65.0716
7.724000	 65.0121
7.742000	 64.9945
7.760000	 65.0397
7.778000	 65.1091
7.796000	 65.1551
7.814000	 65.169
7.832000	 65.156
7.850000	 65.1052
7.868000	 65.0295
7.886000	 64.9848
7.904000	 64.9947
7.922000	 65.0087
7.940000	 64.9843
7.958000	 64.9496
7.976000	 64.9487
7.994000	 64.9783
8.012000	 65.0057
8.030000	 65.0134
8.048000	 65.0114
8.065999	 65.0193
8.084000	 65.0436
8.102000	 65.0729
8.120000	 65.0881
8.138000	 65.0788
8.155999	 65.0557
8.173999	 65.0369
8.192000	 65.0227
8.210000	 65.0027
8.228000	 64.9881
8.246000	 65.0028
8.263999	 65.0463
8.282000	 65.0934
8.300000	 65.1098
8.318000	 65.0629
8.336000	 64.9542
8.353999	 64.8406
8.372000	 64.7909
8.390000	 64.8142
8.408000	 64.8707
8.426000	 64.9266
8.443999	 64.9692
8.462000	 64.992
8.480000	 64.9925
8.498000	 64.9637
8.516000	 64.8931
8.533999	 64.7968
8.552000	 64.7419
8.570000	 64.7834
8.588000	 64.8797
8.606000	 64.9317
8.624000	 64.9065
8.641999	 64.867
8.660000	 64.8778
8.678000	 64.9265
8.696000	 64.9603
8.714000	 64.9579
8.731999	 64.9357
8.750000	 64.911
8.768000	 64.8852
8.786000	 64.8568
8.804000	 64.8337
8.821999	 64.824
8.840000	 64.8225
8.858000	 64.8121
8.876000	 64.7811
8.894000	 64.7357
8.911999	 64.6971
8.930000	 64.6796
8.948000	 64.6812
8.966000	 64.6907
8.984000	 64.6968
9.001999	 64.6944
9.020000	 64.6897
9.038000	 64.697
9.056000	 64.7198
9.074000	 64.7364
9.092000	 64.7211
9.109999	 64.6841
9.128000	 64.6753
9.146000	 64.731
9.164000	 64.8278
9.182000	 64.9073
9.199999	 64.942
9.218000	 64.9579
9.236000	 64.9925
9.254000	 65.0439
9.272000	 65.0721
9.289999	 65.0488
9.308000	 64.9902
9.326000	 64.9396
9.344000	 64.9205
9.362000	 64.9156
9.379999	 64.8893
9.398000	 64.8275
9.416000	 64.7537
9.434000	 64.7036
9.452000	 64.6899
9.469999	 64.6933
9.488000	 64.6885
9.506000	 64.6755
9.524000	 64.6828
9.542000	 64.737
9.560000	 64.833
9.577999	 64.9334
9.596000	 64.9962
9.614000	 64.9966
9.632000	 64.9335
9.650000	 64.8265
9.667999	 64.7105
9.686000	 64.6227
9.704000	 64.5854
9.722000	 64.5944
9.740000	 64.6246
9.757999	 64.6489
9.776000	 64.6567
9.794000	 64.6564
9.812000	 64.6621
9.830000	 64.6766
9.847999	 64.6889
9.866000	 64.6868
9.884000	 64.6703
9.902000	 64.6532
9.920000	 64.6497
9.937999	 64.6599
9.956000	 64.668
9.974000	 64.6561
9.992000	 64.62
10.01	64.5769
10.028	64.5545
10.046	64.5719
10.064	64.6255
10.082	64.6907
10.1	64.7359
10.118	64.7438
10.136	64.7224
10.154	64.6967
10.172	64.6886
10.19	64.7001
10.208	64.7152
10.226	64.7197
10.244	64.7159
10.262	64.7228
10.28	64.7547
10.298	64.8022
10.316	64.8319
10.334	64.816
10.352	64.7603
10.37	64.7065
10.388	64.7037
10.406	64.7727
10.424	64.8954
10.442	65.0263
10.46	65.1227
10.478	65.1601
10.496	65.1367
10.514	65.0635
10.532	64.9605
10.55	64.8507
10.568	64.7575
10.586	64.6909
10.604	64.6377
10.622	64.5709
10.64	64.4743
10.658	64.3609
10.676	64.2711
10.694	64.241
10.712	64.2755
10.73	64.3395
10.748	64.3792
10.766	64.3593
10.784	64.2863
10.802	64.2072
10.82	64.1769
10.838	64.2304
10.856	64.3671
10.874	64.5613
10.892	64.7817
10.91	65.0019
10.928	65.2051
10.946	65.3756
10.964	65.495
10.982	65.5443
11	65.5128
11.018	65.4051
11.036	65.2427
11.054	65.0579
11.072	64.8822
11.09	64.7418
11.108	64.6505
11.126	64.6121
11.144	64.6214
11.162	64.6644
11.18	64.7237
11.198	64.7809
11.216	64.8224
11.234	64.8437
11.252	64.8483
11.27	64.8442
11.288	64.84
11.306	64.8384
11.324	64.8366
11.342	64.8289
11.36	64.8102
11.378	64.7772
11.396	64.7291
11.414	64.6682
11.432	64.6005
11.45	64.5357
11.468	64.4868
11.486	64.4647
11.504	64.476
11.522	64.5177
11.54	64.5777
11.558	64.6369
11.576	64.6763
11.594	64.6848
11.612	64.6618
11.63	64.6178
11.648	64.5688
11.666	64.5309
11.684	64.5146
11.702	64.522
11.72	64.5477
11.738	64.5811
11.756	64.6114
11.774	64.6297
11.792	64.6324
11.81	64.6213
11.828	64.6016
11.846	64.5794
11.864	64.5592
11.882	64.5436
11.9	64.5329
11.918	64.5264
11.936	64.5237
11.954	64.5253
11.972	64.5317
11.99	64.5427
12.008	64.5571
12.026	64.5716
12.044	64.5813
12.062	64.5805
12.08	64.5648
12.098	64.5323
12.116	64.4844
12.134	64.4262
12.152	64.3655
12.17	64.3121
12.188	64.2754
12.206	64.2629
12.224	64.2771
12.242	64.3156
12.26	64.3712
12.278	64.4337
12.296	64.492
12.314	64.5379
12.332	64.5669
12.35	64.5787
12.368	64.5756
12.386	64.5621
12.404	64.5423
12.422	64.5188
12.44	64.4934
12.458	64.4662
12.476	64.4369
12.494	64.4054
12.512	64.3718
12.53	64.3366
12.548	64.3008
12.566	64.2655
12.584	64.2323
12.602	64.2034
12.62	64.1814
12.638	64.169
12.656	64.1684
12.674	64.1799
12.692	64.2026
12.71	64.2348
12.728	64.2738
12.746	64.3163
12.764	64.3587
12.782	64.3975
12.8	64.4289
12.818	64.4491
12.836	64.4561
12.854	64.4492
12.872	64.4302
12.89	64.402
12.908	64.3681
12.926	64.3329
12.944	64.3009
12.962	64.2765
12.98	64.2632
12.998	64.2639
13.016	64.2802
13.034	64.3116
13.052	64.3549
13.07	64.404
13.088	64.4497
13.106	64.4816
13.124	64.4898
13.142	64.4671
13.16	64.4107
13.178	64.3232
13.196	64.2121
13.214	64.0878
13.232	63.9613
13.25	63.8427
13.268	63.7387
13.286	63.655
13.304	63.5957
13.322	63.5648
13.34	63.5661
13.358	63.6023
13.376	63.6738
13.394	63.7767
13.412	63.9022
13.43	64.0366
13.448	64.1628
13.466	64.2635
13.484	64.3247
13.502	64.3389
13.52	64.3067
13.538	64.2369
13.556	64.1443
13.574	64.0468
13.592	63.9614
13.61	63.9004
13.628	63.8699
13.646	63.8694
13.664	63.8926
13.682	63.9304
13.7	63.9722
13.718	64.0085
13.736	64.0329
13.754	64.0419
13.772	64.0366
13.79	64.0202
13.808	63.9984
13.826	63.9774
13.844	63.9629
13.862	63.9589
13.88	63.9667
13.898	63.9859
13.916	64.0135
13.934	64.0449
13.952	64.0746
13.97	64.0968
13.988	64.1063
14.006	64.0991
14.024	64.0729
14.042	64.0275
14.06	63.9645
14.078	63.8874
14.096	63.8015
14.114	63.7127
14.132	63.6275
14.15	63.552
14.168	63.4912
14.186	63.4491
14.204	63.4278
14.222	63.4271
14.24	63.4445
14.258	63.4758
14.276	63.5153
14.294	63.5569
14.312	63.5957
14.33	63.6274
14.348	63.6499
14.366	63.6625
14.384	63.6665
14.402	63.6643
14.42	63.6585
14.438	63.6513
14.456	63.6444
14.474	63.639
14.492	63.6352
14.51	63.633
14.528	63.6319
14.546	63.6314
14.564	63.631
14.582	63.63
14.6	63.628
14.618	63.6243
14.636	63.6179
14.654	63.608
14.672	63.5937
14.69	63.5746
14.708	63.5506
14.726	63.5222
14.744	63.4908
14.762	63.4585
14.78	63.4277
14.798	63.4005
14.816	63.3789
14.834	63.364
14.852	63.3555
14.87	63.3524
14.888	63.3529
14.906	63.3548
14.924	63.3561
14.942	63.3543
14.96	63.3481
14.978	63.3371
14.996	63.3214
15.014	63.3019
15.032	63.2799
15.05	63.2572
15.068	63.2358
15.086	63.2177
15.104	63.2049
15.122	63.1989
15.14	63.2007
15.158	63.2107
15.176	63.2286
15.194	63.2539
15.212	63.2851
15.23	63.3206
15.248	63.3584
15.266	63.3965
15.284	63.4326
15.302	63.4644
15.32	63.4902
15.338	63.5084
15.356	63.5175
15.374	63.5166
15.392	63.5051
15.41	63.4828
15.428	63.4497
15.446	63.4064
15.464	63.3539
15.482	63.2935
15.5	63.2269
15.518	63.157
15.536	63.0862
15.554	63.0169
15.572	62.952
15.59	62.8941
15.608	62.8443
15.626	62.8035
15.644	62.772
15.662	62.7486
15.68	62.7322
15.698	62.7215
15.716	62.7144
15.734	62.7099
15.752	62.7074
15.77	62.7068
15.788	62.7086
15.806	62.7135
15.824	62.7221
15.842	62.7352
15.86	62.7526
15.878	62.7737
15.896	62.7974
15.914	62.8214
15.932	62.843
15.95	62.8602
15.968	62.8703
15.986	62.8715
16.004	62.8633
16.022	62.8454
16.04	62.8195
16.058	62.788
16.076	62.7529
16.094	62.7179
16.112	62.6859
16.13	62.6585
16.148	62.6378
16.166	62.6242
16.184	62.6168
16.202	62.6147
16.22	62.6152
16.238	62.6164
16.256	62.6164
16.274	62.6138
16.292	62.6087
16.31	62.6014
16.328	62.5943
16.346	62.5901
16.364	62.5913
16.382	62.6019
16.4	62.6236
16.418	62.6577
16.436	62.7046
16.454	62.7621
16.472	62.8282
16.49	62.8981
16.508	62.9671
16.526	63.0315
16.544	63.0851
16.562	63.125
16.58	63.1486
16.598	63.154
16.616	63.1424
16.634	63.1145
16.652	63.0741
16.67	63.0247
16.688	62.9697
16.706	62.9152
16.724	62.8638
16.742	62.8196
16.76	62.7859
16.778	62.7638
16.796	62.7547
16.814	62.7583
16.832	62.7743
16.85	62.8007
16.868	62.8356
16.886	62.8775
16.904	62.9225
16.922	62.9689
16.94	63.0139
16.958	63.0545
16.976	63.0893
16.994	63.1155
17.012	63.1322
17.03	63.1386
17.048	63.1343
17.066	63.12
17.084	63.0963
17.102	63.0654
17.12	63.0283
17.138	62.9877
17.156	62.945
17.174	62.9018
17.192	62.8596
17.21	62.8187
17.228	62.7796
17.246	62.7418
17.264	62.7051
17.282	62.6682
17.3	62.6308
17.318	62.5918
17.336	62.5511
17.354	62.5085
17.372	62.4648
17.39	62.4206
17.408	62.3778
17.426	62.3382
17.444	62.3028
17.462	62.2744
17.48	62.2536
17.498	62.2425
17.516	62.2415
17.534	62.2513
17.552	62.2708
17.57	62.2997
17.588	62.3355
17.606	62.3766
17.624	62.4206
17.642	62.4642
17.66	62.5059
17.678	62.5422
17.696	62.5724
17.714	62.5938
17.732	62.6063
17.75	62.609
17.768	62.6027
17.786	62.5875
17.804	62.5652
17.822	62.5365
17.84	62.504
17.858	62.469
17.876	62.4334
17.894	62.3992
17.912	62.3674
17.93	62.3399
17.948	62.3169
17.966	62.2994
17.984	62.2872
18.002	62.2804
18.02	62.2783
18.038	62.2804
18.056	62.2856
18.074	62.2935
18.092	62.3023
18.11	62.3119
18.128	62.3204
18.146	62.3278
18.164	62.3329
18.182	62.3354
18.2	62.3347
18.218	62.3304
18.236	62.322
18.254	62.3088
18.272	62.2907
18.29	62.2671
18.308	62.2381
18.326	62.2033
18.344	62.1631
18.362	62.1178
18.38	62.068
18.398	62.0146
18.416	61.9587
18.434	61.9016
18.452	61.8449
18.47	61.7897
18.488	61.738
18.506	61.6906
18.524	61.6493
18.542	61.6146
18.56	61.5872
18.578	61.5673
18.596	61.5543
18.614	61.5484
18.632	61.5481
18.65	61.5533
18.668	61.562
18.686	61.5739
18.704	61.5868
18.722	61.6004
18.74	61.6129
18.758	61.6244
18.776	61.6335
18.794	61.6404
18.812	61.6447
18.83	61.6465
18.848	61.6461
18.866	61.6436
18.884	61.6397
18.902	61.6346
18.92	61.6289
18.938	61.623
18.956	61.6176
18.974	61.613
18.992	61.6096
19.01	61.6079
19.028	61.6083
19.046	61.6111
19.064	61.6168
19.082	61.6258
19.1	61.6386
19.118	61.6554
19.136	61.6768
19.154	61.7027
19.172	61.7335
19.19	61.769
19.208	61.8086
19.226	61.852
19.244	61.8982
19.262	61.9466
19.28	61.9949
19.298	62.0429
19.316	62.0873
19.334	62.1281
19.352	62.1613
19.37	62.1871
19.388	62.2024
19.406	62.2073
19.424	62.1996
19.442	62.1793
19.46	62.1462
19.478	62.0998
19.496	62.0417
19.514	61.9714
19.532	61.8917
19.55	61.8034
19.568	61.7088
19.586	61.61
19.604	61.5084
19.622	61.4076
19.64	61.3078
19.658	61.2128
19.676	61.1221
19.694	61.039
19.712	60.9631
19.73	60.8957
19.748	60.8371
19.766	60.7869
19.784	60.7453
19.802	60.7112
19.82	60.6842
19.838	60.6636
19.856	60.6478
19.874	60.6368
19.892	60.6289
19.91	60.6242
19.928	60.6215
19.946	60.6208
19.964	60.6216
19.982	60.6239
20	60.6274
20.018	60.6321
20.036	60.6381
20.054	60.6453
20.072	60.6539
20.09	60.664
20.108	60.6756
20.126	60.6884
20.144	60.7024
20.162	60.7171
20.18	60.7324
20.198	60.748
20.216	60.7636
20.234	60.7793
20.252	60.7949
20.27	60.8105
20.288	60.8265
20.306	60.8427
20.324	60.86
20.342	60.8786
20.36	60.8991
20.378	60.9229
20.396	60.9496
20.414	60.9806
20.432	61.016
20.45	61.0562
20.468	61.1017
20.486	61.152
20.504	61.2069
20.522	61.2661
20.54	61.3274
20.558	61.3914
20.576	61.4551
20.594	61.5175
20.612	61.5776
20.63	61.6319
20.648	61.6812
20.666	61.722
20.684	61.7543
20.702	61.7772
20.72	61.7895
20.738	61.7918
20.756	61.7843
20.774	61.7667
20.792	61.7418
20.81	61.7095
20.828	61.6717
20.846	61.6312
20.864	61.5874
20.882	61.5444
20.9	61.5018
20.918	61.4614
20.936	61.425
20.954	61.3918
20.972	61.3632
20.99	61.3393
21.008	61.3187
21.026	61.3017
21.044	61.2873
21.062	61.2731
21.08	61.2599
21.098	61.2445
21.116	61.2266
21.134	61.2053
21.152	61.1785
21.17	61.1468
21.188	61.1089
21.206	61.0642
21.224	61.0135
21.242	60.9568
21.26	60.894
21.278	60.8269
21.296	60.7553
21.314	60.6803
21.332	60.6042
21.35	60.5262
21.368	60.4491
21.386	60.3732
21.404	60.299
21.422	60.2292
21.44	60.1629
21.458	60.1015
21.476	60.0454
21.494	59.9945
21.512	59.9495
21.53	59.9103
21.548	59.8769
21.566	59.8493
21.584	59.8275
21.602	59.8114
21.62	59.801
21.638	59.7962
21.656	59.7969
21.674	59.8032
21.692	59.8148
21.71	59.8318
21.728	59.8542
21.746	59.8818
21.764	59.9147
21.782	59.9524
21.8	59.9947
21.818	60.0417
21.836	60.0917
21.854	60.145
21.872	60.2006
21.89	60.2565
21.908	60.3137
21.926	60.3698
21.944	60.4234
21.962	60.4753
21.98	60.5225
21.998	60.5652
22.016	60.6028
22.034	60.6329
22.052	60.6562
22.07	60.6721
22.088	60.6796
22.106	60.6792
22.124	60.6717
22.142	60.6565
22.16	60.6346
22.178	60.608
22.196	60.5758
22.214	60.5399
22.232	60.5029
22.25	60.4634
22.268	60.4244
22.286	60.3877
22.304	60.3523
22.322	60.3213
22.34	60.2949
22.358	60.2732
22.376	60.2579
22.394	60.2491
22.412	60.2464
22.43	60.2503
22.448	60.2611
22.466	60.2773
22.484	60.2981
22.502	60.3241
22.52	60.3522
22.538	60.3816
22.556	60.4126
22.574	60.4415
22.592	60.468
22.61	60.4919
22.628	60.5096
22.646	60.5218
22.664	60.5278
22.682	60.5251
22.7	60.5144
22.718	60.4955
22.736	60.4677
22.754	60.431
22.772	60.3865
22.79	60.3349
22.808	60.2755
22.826	60.2108
22.844	60.1423
22.862	60.0688
22.88	59.9938
22.898	59.9186
22.916	59.8422
22.934	59.7681
22.952	59.6971
22.97	59.6287
22.988	59.5654
23.006	59.508
23.024	59.4558
23.042	59.4099
23.06	59.3705
23.078	59.3373
23.096	59.3102
23.114	59.29
23.132	59.2757
23.15	59.2653
23.168	59.2598
23.186	59.2579
23.204	59.2568
23.222	59.2572
23.24	59.2581
23.258	59.2555
23.276	59.2502
23.294	59.2414
23.312	59.2256
23.33	59.2031
23.348	59.1738
23.366	59.1347
23.384	59.086
23.402	59.0278
23.42	58.959
23.438	58.8792
23.456	58.7889
23.474	58.6889
23.492	58.5787
23.51	58.4587
23.528	58.3309
23.546	58.1947
23.564	58.0504
23.582	57.9018
23.6	57.7496
23.618	57.5929
23.636	57.4364
23.654	57.2819
23.672	57.1273
23.69	56.9782
23.708	56.8383
23.726	56.7043
23.744	56.5814
23.762	56.4743
23.78	56.3798
23.798	56.3013
23.816	56.2429
23.834	56.203
23.852	56.1823
23.87	56.183
23.888	56.2052
23.906	56.2479
23.924	56.31
23.942	56.3926
23.96	56.4947
23.978	56.6121
23.996	56.745
24.014	56.8944
24.032	57.053
24.05	57.2171
24.068	57.391
24.086	57.5671
24.104	57.7384
24.122	57.9091
24.14	58.0756
24.158	58.2321
24.176	58.3798
24.194	58.5187
24.212	58.6456
24.23	58.7594
24.248	58.8614
24.266	58.9512
24.284	59.0284
24.302	59.0929
24.32	59.1461
24.338	59.189
24.356	59.2202
24.374	59.2416
24.392	59.2561
24.41	59.2634
24.428	59.2632
24.446	59.2571
24.464	59.2459
24.482	59.2291
24.5	59.2065
24.518	59.1782
24.536	59.1454
24.554	59.1058
24.572	59.057
24.59	59.0012
24.608	58.9369
24.626	58.8583
24.644	58.7631
24.662	58.6545
24.68	58.5283
24.698	58.3806
24.716	58.2136
24.734	58.0263
24.752	57.8163
24.77	57.5814
24.788	57.3237
24.806	57.047
24.824	56.7525
24.842	56.4353
24.86	56.1055
24.878	55.7745
24.896	55.4356
24.914	55.0925
24.932	54.7612
24.95	54.4489
24.968	54.1451
24.986	53.8644
25.004	53.6226
25.022	53.4123
25.04	53.2359
25.058	53.1055
25.076	53.0272
25.094	52.9943
25.112	53.0108
25.13	53.0814
25.148	53.2083
25.166	53.3864
25.184	53.6094
25.202	53.8776
25.22	54.1961
25.238	54.5493
25.256	54.9213
25.274	55.3235
25.292	55.7493
25.31	56.1772
25.328	56.5964
25.346	57.0226
25.364	57.4375
25.382	57.8196
25.4	58.1736
25.418	58.5026
25.436	58.7916
25.454	59.0288
25.472	59.2226
25.49	59.3706
25.508	59.4678
25.526	59.5125
25.544	59.5078
25.562	59.4521
25.58	59.3441
25.598	59.1839
25.616	58.9726
25.634	58.7113
25.652	58.4005
25.67	58.0397
25.688	57.6301
25.706	57.173
25.724	56.6684
25.742	56.1161
25.76	55.5177
25.778	54.8744
25.796	54.1856
25.814	53.4519
25.832	52.6746
25.85	51.8541
25.868	50.9883
25.886	50.0813
25.904	49.1379
25.922	48.1573
25.94	47.137
25.958	46.0856
25.976	45.0118
25.994	43.9075
26.012	42.7759
26.03	41.6331
26.048	40.4924
26.066	39.3361
26.084	38.1774
26.102	37.0407
26.12	35.9395
26.138	34.8509
26.156	33.7966
26.174	32.8036
26.192	31.8775
26.21	30.998
26.228	30.1932
26.246	29.4924
26.264	28.8949
26.282	28.3879
26.3	27.9894
26.318	27.7171
26.336	27.5705
26.354	27.5418
26.372	27.6307
26.39	27.8375
26.408	28.1739
26.426	28.627
26.444	29.1747
26.462	29.8011
26.48	30.534
26.498	31.3503
26.516	32.2123
26.534	33.0958
26.552	34.0418
26.57	35.0161
26.588	35.9702
26.606	36.8767
26.624	37.783
26.642	38.6502
26.66	39.428
26.678	40.0904
26.696	40.6804
26.714	41.1672
26.732	41.5122
26.75	41.6941
26.768	41.741
26.786	41.6424
26.804	41.3843
26.822	40.9565
26.84	40.3665
26.858	39.6212
26.876	38.7271
26.894	37.6833
26.912	36.4801
26.93	35.1368
26.948	33.6744
26.966	32.0049
26.984	29.9664
27.002	27.9396
27.02	26.3395
27.028	25.9197