File: Bakgrunnsmateriale/MATLAB/FTIR/ftir_data/subBb/Mapping_121/C-4040-8_t112_cm-1.asc
PE IR       SPECTRUM    SPECTRUM    ASCII       PEDS        1.60
  -1
C-4709~1.ASC
17/03/27
23:44:24.00
17/03/27
23:44:24.00
tln
$C-4040-8_t0112$<tbV0>[10.4,13.0,8.0,0.0,27,1,0]
370
64

2002,4.07
MIRTGS : RIGHTBACK : INTERNAL 2
MIR : ON : INTERNAL 2
OPTKBR

0.200000
8
8.000000
FILLER
RATIO
SPECTRUM
UNLOCKED 256

DOUBLE
64
COMBINED
1
0
0

1.000000
RATIO

1
0
TRUE
51149
0
LEFT NOT FITTED RIGHT NOT FITTED 0
NONE
NONE
15600
12
4.427000
51148
TRUE
1 0 8 72 0 0 0 0

15798

#HDR
-1
-1
#GR
CM-1
%T
2.38419e-05
0.0
5000
-1.000000
4631
8
68.9909
22.7882
#DATA
5000	64.68
4996	64.7243
4992	64.4512
4988	64.4497
4984	64.7288
4980	64.7036
4976	64.5289
4972	64.3798
4968	63.9961
4964	63.7137
4960	64.0607
4956	64.8545
4952	65.2394
4948	64.792
4944	64.2211
4940	64.1013
4936	64.3481
4932	64.7149
4928	64.9741
4924	64.9724
4920	64.9758
4916	65.1552
4912	65.0755
4908	64.8148
4904	65.0544
4900	65.5752
4896	65.3626
4892	64.5107
4888	63.9021
4884	63.4863
4880	63.2289
4876	63.7601
4872	64.5643
4868	65.0192
4864	65.3761
4860	65.395
4856	65.2681
4852	65.2674
4848	65.0864
4844	64.8252
4840	64.613
4836	64.4655
4832	64.3351
4828	64.3625
4824	64.5521
4820	64.4285
4816	64.3575
4812	64.6542
4808	64.8544
4804	64.8625
4800	64.6552
4796	64.4455
4792	64.6227
4788	64.847
4784	64.7791
4780	64.7692
4776	64.8515
4772	64.7928
4768	64.7423
4764	64.6693
4760	64.5199
4756	64.5247
4752	64.6711
4748	64.8075
4744	64.8969
4740	64.9003
4736	64.7655
4732	64.4695
4728	64.277
4724	64.3762
4720	64.6086
4716	64.7413
4712	64.6951
4708	64.5831
4704	64.6612
4700	64.9137
4696	64.7429
4692	64.2733
4688	64.1355
4684	64.2411
4680	64.4371
4676	64.6411
4672	64.7116
4668	64.7677
4664	64.7282
4660	64.5719
4656	64.6673
4652	65.0209
4648	65.1468
4644	64.8722
4640	64.5937
4636	64.5844
4632	64.7125
4628	64.7834
4624	64.7662
4620	64.6727
4616	64.5233
4612	64.4469
4608	64.5457
4604	64.6601
4600	64.6826
4596	64.725
4592	64.7677
4588	64.7138
4584	64.8233
4580	65.2006
4576	65.3851
4572	65.2408
4568	64.9162
4564	64.7588
4560	64.998
4556	65.1955
4552	65.3366
4548	65.8648
4544	66.304
4540	66.0896
4536	65.8227
4532	65.6499
4528	65.1716
4524	64.8596
4520	65.0326
4516	65.3744
4512	65.4862
4508	65.3092
4504	65.2131
4500	65.2903
4496	65.358
4492	65.2735
4488	64.9494
4484	64.7625
4480	65.1169
4476	65.5097
4472	65.4037
4468	65.4588
4464	65.6465
4460	65.3347
4456	64.9713
4452	64.8032
4448	64.6502
4444	64.8655
4440	65.1782
4436	65.6628
4432	66.5158
4428	66.879
4424	66.6303
4420	66.7262
4416	66.0368
4412	63.3403
4408	61.0657
4404	63.9621
4400	68.9909
4396	63.1937
4392	54.1129
4388	55.7435
4384	62.3667
4380	66.3144
4376	67.9607
4372	68.0048
4368	67.4201
4364	66.4492
4360	65.7164
4356	65.3723
4352	65.2321
4348	65.4165
4344	65.5658
4340	65.3567
4336	65.2467
4332	65.209
4328	65.0171
4324	65.0515
4320	65.3139
4316	65.2972
4312	65.1135
4308	65.161
4304	65.2764
4300	65.2472
4296	65.2115
4292	65.1956
4288	65.1986
4284	65.2804
4280	65.3222
4276	65.2412
4272	65.025
4268	64.7327
4264	64.688
4260	65.0321
4256	65.3493
4252	65.3691
4248	65.2898
4244	65.2051
4240	65.0418
4236	64.8882
4232	64.8915
4228	65.0931
4224	65.2445
4220	65.1573
4216	65.1056
4212	65.0904
4208	64.9262
4204	64.8315
4200	64.9403
4196	65.0934
4192	64.8426
4188	64.1324
4184	63.9345
4180	64.1666
4176	64.2061
4172	64.1832
4168	64.1508
4164	64.3042
4160	64.5299
4156	64.5821
4152	64.5541
4148	64.6052
4144	64.8564
4140	65.1126
4136	65.115
4132	64.9569
4128	64.9101
4124	64.9212
4120	64.7393
4116	64.5134
4112	64.4004
4108	64.3857
4104	64.5201
4100	64.6924
4096	64.757
4092	64.7385
4088	64.7288
4084	64.7593
4080	64.8319
4076	64.9159
4072	64.9546
4068	64.9697
4064	65.0317
4060	65.058
4056	64.9512
4052	64.9004
4048	64.8552
4044	64.6386
4040	64.5326
4036	64.7336
4032	64.9376
4028	64.9219
4024	64.8297
4020	64.7021
4016	64.5591
4012	64.5714
4008	64.724
4004	64.8412
4000	64.8891
3996	64.9233
3992	64.9523
3988	64.9535
3984	64.9723
3980	65.1416
3976	65.2892
3972	65.172
3968	65.0774
3964	65.1087
3960	65.059
3956	65.063
3952	65.1416
3948	65.152
3944	65.0597
3940	64.9692
3936	64.9883
3932	65.0119
3928	65.0223
3924	65.0236
3920	64.9077
3916	64.8408
3912	64.8948
3908	64.9081
3904	65.0015
3900	65.1036
3896	65.0342
3892	65.0265
3888	65.1325
3884	65.0845
3880	64.9766
3876	65.0403
3872	65.1076
3868	64.9885
3864	64.8561
3860	64.8948
3856	64.9913
3852	65.0281
3848	65.0395
3844	65.0956
3840	65.0691
3836	64.954
3832	65.013
3828	65.1392
3824	65.1813
3820	65.2342
3816	65.2251
3812	65.0728
3808	64.8999
3804	64.8526
3800	65.004
3796	65.1998
3792	65.2449
3788	65.2427
3784	65.1881
3780	65.0463
3776	65.0044
3772	65.1181
3768	65.198
3764	65.1064
3760	64.9754
3756	64.9007
3752	64.8517
3748	64.9088
3744	65.0318
3740	65.035
3736	64.9397
3732	64.9029
3728	64.9374
3724	64.9421
3720	64.9785
3716	65.0312
3712	65.0376
3708	65.0336
3704	64.9636
3700	64.8906
3696	64.8931
3692	64.8984
3688	64.8946
3684	64.9309
3680	64.9556
3676	64.9256
3672	64.9579
3668	65.1062
3664	65.1418
3660	65.0253
3656	64.9032
3652	64.8107
3648	64.8111
3644	64.8627
3640	64.9875
3636	65.1108
3632	65.0908
3628	65.0518
3624	65.048
3620	65.0627
3616	65.0475
3612	64.9696
3608	64.9711
3604	64.9816
3600	64.9893
3596	65.0799
3592	65.0987
3588	65.0678
3584	65.0196
3580	64.9369
3576	64.886
3572	64.8896
3568	64.9517
3564	65.0782
3560	65.1242
3556	65.0208
3552	65.0052
3548	64.9614
3544	64.7591
3540	64.6769
3536	64.7961
3532	64.9398
3528	64.983
3524	65.0621
3520	65.1383
3516	65.0614
3512	64.9615
3508	64.9756
3504	65.0658
3500	65.1036
3496	65.0822
3492	65.0051
3488	64.9248
3484	64.9907
3480	65.1572
3476	65.1448
3472	65.0675
3468	65.2351
3464	65.2719
3460	65.0396
3456	64.8948
3452	64.8437
3448	64.8314
3444	64.8769
3440	64.9454
3436	64.9704
3432	64.9588
3428	65.0205
3424	65.0385
3420	64.9224
3416	64.8419
3412	64.8495
3408	64.8621
3404	64.8063
3400	64.7568
3396	64.8154
3392	64.9319
3388	65.0431
3384	65.0813
3380	65.0728
3376	65.0811
3372	65.093
3368	65.1481
3364	65.1297
3360	64.9488
3356	64.8636
3352	64.9163
3348	64.9064
3344	64.8436
3340	64.8358
3336	64.901
3332	65.0336
3328	65.1861
3324	65.1503
3320	65.0113
3316	65.0568
3312	65.0728
3308	64.885
3304	64.7654
3300	64.811
3296	64.9035
3292	65.0034
3288	65.099
3284	65.1037
3280	65.0057
3276	64.9531
3272	64.9756
3268	64.9491
3264	64.9604
3260	65.0662
3256	65.0167
3252	64.8727
3248	64.8684
3244	64.8873
3240	64.8866
3236	64.9304
3232	64.8649
3228	64.7236
3224	64.7383
3220	64.8338
3216	64.7808
3212	64.6683
3208	64.7388
3204	64.935
3200	65.1327
3196	65.2176
3192	65.1149
3188	65.0145
3184	64.9877
3180	64.9626
3176	64.9239
3172	64.9047
3168	64.9396
3164	64.9951
3160	65.0178
3156	64.9619
3152	64.9065
3148	64.9013
3144	64.9076
3140	64.9659
3136	65.054
3132	65.0554
3128	64.9355
3124	64.8689
3120	64.8851
3116	64.7668
3112	64.6749
3108	64.8399
3104	65.054
3100	65.0751
3096	64.9677
3092	64.9119
3088	64.975
3084	65.0918
3080	65.0615
3076	64.9239
3072	64.9348
3068	65.0354
3064	65.0517
3060	65.0213
3056	65.0166
3052	65.0237
3048	65.0219
3044	65.0098
3040	65.0383
3036	65.1481
3032	65.1515
3028	65.0347
3024	65.0127
3020	65.0079
3016	64.9708
3012	64.9443
3008	64.9543
3004	65.0912
3000	65.2199
2996	65.2338
2992	65.2078
2988	65.1072
2984	64.9669
2980	64.9337
2976	65.0155
2972	65.0978
2968	65.0745
2964	64.944
2960	64.8342
2956	64.8879
2952	65.0024
2948	64.9813
2944	64.923
2940	64.9643
2936	64.9994
2932	64.937
2928	64.8176
2924	64.7012
2920	64.6018
2916	64.5135
2912	64.5453
2908	64.6666
2904	64.7164
2900	64.7717
2896	64.8636
2892	64.8877
2888	64.8994
2884	64.9769
2880	65.0445
2876	65.0816
2872	65.1436
2868	65.1072
2864	64.9901
2860	64.936
2856	64.8953
2852	64.9298
2848	64.951
2844	64.8314
2840	64.7648
2836	64.8481
2832	64.969
2828	65.0196
2824	65.0171
2820	65.0293
2816	65.027
2812	64.9665
2808	64.9477
2804	64.9699
2800	64.9836
2796	64.992
2792	64.9594
2788	64.9894
2784	65.0716
2780	65.0281
2776	64.9176
2772	64.8646
2768	64.8987
2764	65.0043
2760	65.052
2756	65.0393
2752	65.0238
2748	64.9495
2744	64.8549
2740	64.8151
2736	64.8819
2732	65.0074
2728	65.0206
2724	64.995
2720	65.0551
2716	65.0773
2712	65.0388
2708	65.025
2704	65.0451
2700	65.0708
2696	65.0482
2692	64.9894
2688	65.011
2684	65.0954
2680	65.158
2676	65.1826
2672	65.1494
2668	65.1193
2664	65.0713
2660	64.964
2656	64.9186
2652	64.9947
2648	65.098
2644	65.1578
2640	65.1443
2636	65.0403
2632	64.9729
2628	65.0064
2624	65.0431
2620	65.0809
2616	65.1422
2612	65.1771
2608	65.1583
2604	65.1153
2600	65.0923
2596	65.0562
2592	64.9713
2588	64.9042
2584	64.9234
2580	65.003
2576	65.0195
2572	64.9483
2568	64.9227
2564	64.9847
2560	65.093
2556	65.1825
2552	65.2197
2548	65.1634
2544	65.0618
2540	65.07
2536	65.1222
2532	65.0892
2528	65.0563
2524	65.0744
2520	65.0601
2516	65.0308
2512	65.1063
2508	65.2052
2504	65.1344
2500	64.9955
2496	64.9054
2492	64.8564
2488	64.9187
2484	65.0409
2480	65.1428
2476	65.1807
2472	65.1274
2468	65.081
2464	65.071
2460	65.0997
2456	65.1041
2452	65.0454
2448	65.0342
2444	65.0766
2440	65.1145
2436	65.1683
2432	65.2152
2428	65.2236
2424	65.1325
2420	65.0564
2416	65.2675
2412	65.38
2408	65.1743
2404	65.0786
2400	65.093
2396	65.0315
2392	65.0093
2388	65.1036
2384	65.1446
2380	65.105
2376	65.0791
2372	64.9816
2368	64.8703
2364	64.9162
2360	65.0183
2356	65.0236
2352	65.0026
2348	65.0727
2344	65.1856
2340	65.224
2336	65.2212
2332	65.2402
2328	65.1776
2324	65.0324
2320	64.9728
2316	65.0136
2312	65.0727
2308	65.1253
2304	65.1801
2300	65.1812
2296	65.0988
2292	65.0184
2288	64.9949
2284	65.0291
2280	65.0943
2276	65.1611
2272	65.1869
2268	65.1885
2264	65.2102
2260	65.1641
2256	65.0505
2252	65.0292
2248	65.0846
2244	65.094
2240	65.0609
2236	65.0278
2232	65.0508
2228	65.0967
2224	65.0782
2220	65.0575
2216	65.0737
2212	65.0923
2208	65.1279
2204	65.1879
2200	65.2169
2196	65.1887
2192	65.16
2188	65.1379
2184	65.0917
2180	65.069
2176	65.074
2172	65.0274
2168	65.0211
2164	65.1029
2160	65.0753
2156	65.0045
2152	65.0532
2148	65.1015
2144	65.0986
2140	65.1018
2136	65.0918
2132	65.063
2128	65.0536
2124	65.0589
2120	65.0936
2116	65.1594
2112	65.2148
2108	65.1841
2104	65.1453
2100	65.174
2096	65.1785
2092	65.1264
2088	64.9236
2084	64.6276
2080	64.4625
2076	64.5339
2072	64.7973
2068	65.1629
2064	65.4556
2060	65.3641
2056	65.1185
2052	65.1038
2048	65.1425
2044	65.0641
2040	64.9828
2036	64.9925
2032	65.0759
2028	65.1153
2024	65.0695
2020	65.0824
2016	65.1191
2012	65.0784
2008	65.0926
2004	65.1258
2000	65.03
1996	64.9671
1992	65.0109
1988	65.0202
1984	65.0261
1980	65.0773
1976	65.1167
1972	65.1015
1968	65.0801
1964	65.0976
1960	65.0769
1956	65.0717
1952	65.104
1948	65.0825
1944	65.027
1940	64.9461
1936	64.8999
1932	64.9774
1928	65.1159
1924	65.1805
1920	65.1867
1916	65.234
1912	65.2458
1908	65.1487
1904	65.0631
1900	65.0524
1896	65.0089
1892	64.929
1888	64.9303
1884	65.0026
1880	65.09
1876	65.1231
1872	65.089
1868	65.0534
1864	64.9781
1860	64.9204
1856	64.9848
1852	65.0837
1848	65.1022
1844	65.0877
1840	65.0721
1836	65.0789
1832	65.1562
1828	65.1818
1824	65.122
1820	65.0933
1816	65.057
1812	64.9943
1808	64.9634
1804	64.9547
1800	65.0234
1796	65.0996
1792	65.0607
1788	65.0078
1784	65.0245
1780	65.0263
1776	64.993
1772	64.9948
1768	64.9819
1764	64.9639
1760	65.0008
1756	65.0357
1752	65.0457
1748	65.0213
1744	64.9358
1740	64.8174
1736	64.7146
1732	64.6773
1728	64.8018
1724	65.0477
1720	65.2096
1716	65.2446
1712	65.1788
1708	65.0941
1704	65.0314
1700	64.9532
1696	64.9412
1692	64.9442
1688	64.9192
1684	64.9431
1680	64.985
1676	64.9673
1672	64.9391
1668	64.9517
1664	64.8738
1660	64.7408
1656	64.7524
1652	64.8612
1648	64.8631
1644	64.8222
1640	64.9194
1636	65.0387
1632	64.9918
1628	64.8761
1624	64.8396
1620	64.8062
1616	64.7692
1612	64.7893
1608	64.7763
1604	64.7545
1600	64.8391
1596	64.9339
1592	64.9503
1588	64.9448
1584	64.9338
1580	64.9242
1576	64.8828
1572	64.7815
1568	64.7591
1564	64.8403
1560	64.8813
1556	64.868
1552	64.8277
1548	64.7972
1544	64.8213
1540	64.8123
1536	64.8082
1532	64.9157
1528	64.9693
1524	64.8509
1520	64.7228
1516	64.7116
1512	64.7807
1508	64.8547
1504	64.8885
1500	64.8638
1496	64.7967
1492	64.7528
1488	64.7593
1484	64.829
1480	64.9336
1476	64.9741
1472	64.9588
1468	64.9325
1464	64.9002
1460	64.8956
1456	64.8419
1452	64.7137
1448	64.6193
1444	64.5672
1440	64.5899
1436	64.7083
1432	64.8125
1428	64.8864
1424	64.9672
1420	64.9395
1416	64.7656
1412	64.6602
1408	64.7763
1404	64.9281
1400	64.9067
1396	64.8278
1392	64.7828
1388	64.6926
1384	64.6241
1380	64.6563
1376	64.7407
1372	64.7717
1368	64.7609
1364	64.8232
1360	64.8726
1356	64.87
1352	64.8238
1348	64.7375
1344	64.7454
1340	64.8275
1336	64.8637
1332	64.8421
1328	64.826
1324	64.8521
1320	64.8666
1316	64.8533
1312	64.8431
1308	64.7928
1304	64.7026
1300	64.706
1296	64.7734
1292	64.6924
1288	64.5778
1284	64.6519
1280	64.781
1276	64.7998
1272	64.7004
1268	64.5954
1264	64.586
1260	64.644
1256	64.6874
1252	64.6863
1248	64.664
1244	64.6196
1240	64.6087
1236	64.6246
1232	64.6658
1228	64.7354
1224	64.726
1220	64.7186
1216	64.8038
1212	64.8393
1208	64.845
1204	64.8714
1200	64.8128
1196	64.7428
1192	64.6846
1188	64.641
1184	64.6202
1180	64.5775
1176	64.6094
1172	64.6702
1168	64.7047
1164	64.7571
1160	64.7775
1156	64.7396
1152	64.7063
1148	64.6517
1144	64.5783
1140	64.6457
1136	64.7403
1132	64.7201
1128	64.6662
1124	64.6148
1120	64.6389
1116	64.6499
1112	64.5878
1108	64.6697
1104	64.8771
1100	64.8906
1096	64.6152
1092	64.4932
1088	64.7159
1084	64.8344
1080	64.8142
1076	64.8523
1072	64.7868
1068	64.6215
1064	64.4076
1060	64.2326
1056	64.3454
1052	64.6722
1048	64.9729
1044	65.0859
1040	64.9714
1036	64.7846
1032	64.5723
1028	64.3108
1024	64.2566
1020	64.5179
1016	64.6516
1012	64.6201
1008	64.6615
1004	64.5482
1000	64.3645
996	 64.448
992	 64.6829
988	 64.7787
984	 64.8025
980	 64.8555
976	 64.8596
972	 64.8163
968	 64.769
964	 64.7626
960	 64.6987
956	 64.5728
952	 64.5356
948	 64.5619
944	 64.5946
940	 64.5535
936	 64.4885
932	 64.5885
928	 64.7118
924	 64.7058
920	 64.7107
916	 64.731
912	 64.726
908	 64.7986
904	 64.7632
900	 64.5132
896	 64.5012
892	 64.7212
888	 64.6969
884	 64.448
880	 64.3812
876	 64.5315
872	 64.5557
868	 64.6224
864	 64.5662
860	 64.1242
856	 63.9673
852	 64.2673
848	 64.4397
844	 64.5069
840	 64.63
836	 64.4496
832	 64.1175
828	 64.1773
824	 64.6243
820	 65.0199
816	 64.9972
812	 64.7306
808	 64.5695
804	 64.4395
800	 64.2552
796	 64.1179
792	 64.0785
788	 64.1736
784	 64.1276
780	 63.941
776	 63.9048
772	 63.8985
768	 63.7118
764	 63.3949
760	 63.3406
756	 63.4462
752	 63.6185
748	 64.0416
744	 64.373
740	 64.2765
736	 63.8901
732	 63.6317
728	 63.5785
724	 63.7224
720	 63.8645
716	 63.7567
712	 63.7838
708	 63.8937
704	 63.6485
700	 63.3911
696	 63.4254
692	 63.4547
688	 63.3902
684	 63.1848
680	 62.9124
676	 62.9077
672	 63.1723
668	 63.3756
664	 63.3516
660	 63.3167
656	 63.361
652	 63.3608
648	 63.2569
644	 63.0509
640	 63.0805
636	 63.5219
632	 63.7036
628	 63.3916
624	 63.27
620	 63.3588
616	 63.1085
612	 62.7672
608	 62.8999
604	 63.1006
600	 62.9357
596	 62.8714
592	 62.994
588	 62.9403
584	 62.7399
580	 62.5867
576	 62.6211
572	 62.8855
568	 62.9909
564	 62.7341
560	 62.5679
556	 62.6767
552	 62.8376
548	 62.8435
544	 63.0021
540	 63.2103
536	 62.7286
532	 62.0049
528	 61.7281
524	 61.7673
520	 62.0012
516	 62.4228
512	 62.2846
508	 61.3826
504	 60.8145
500	 60.8054
496	 61.0422
492	 61.5466
488	 61.9633
484	 61.7635
480	 61.1067
476	 60.6589
472	 61.1878
468	 62.5311
464	 63.6726
460	 63.6358
456	 61.8517
452	 59.9488
448	 59.4857
444	 59.7709
440	 60.0844
436	 60.3106
432	 60.0008
428	 59.9999
424	 60.4335
420	 59.6234
416	 59.3585
412	 60.8713
408	 59.4618
404	 50.1357
400	 44.912
396	 56.4032
392	 63.0263
388	 48.3027
384	 25.3562
380	 32.0434
376	 62.7045
372	 53.3918
370	 40.0154