File: Bakgrunnsmateriale/MATLAB/FTIR/ftir_data/subBb/Mapping_121/C-4040-8_t66_cm-1.asc
PE IR       SPECTRUM    SPECTRUM    ASCII       PEDS        1.60
  -1
C-9C6E~1.ASC
17/03/27
19:51:26.00
17/03/27
19:51:26.00
tln
$C-4040-8_t0066$<tbV0>[-13.0,0.0,8.0,0.0,27,1,0]
370
64

2002,4.07
MIRTGS : RIGHTBACK : INTERNAL 2
MIR : ON : INTERNAL 2
OPTKBR

0.200000
8
8.000000
FILLER
RATIO
SPECTRUM
UNLOCKED 256

DOUBLE
64
COMBINED
1
0
0

1.000000
RATIO

1
0
TRUE
51149
0
LEFT NOT FITTED RIGHT NOT FITTED 0
NONE
NONE
15600
12
4.427000
51148
TRUE
1 0 8 72 0 0 0 0

15798

#HDR
-1
-1
#GR
CM-1
%T
2.38419e-05
0.0
5000
-1.000000
4631
8
91.7939
43.4314
#DATA
5000	64.4802
4996	64.8878
4992	65.0663
4988	65.0694
4984	65.0952
4980	64.8418
4976	64.4058
4972	64.2865
4968	64.4176
4964	64.6343
4960	65.0764
4956	65.2647
4952	64.9456
4948	64.6462
4944	64.7862
4940	65.0948
4936	65.1033
4932	65.0433
4928	65.0623
4924	64.8907
4920	64.6276
4916	64.6896
4912	64.9508
4908	65.1565
4904	65.4623
4900	65.5704
4896	65.2783
4892	64.9641
4888	64.6817
4884	64.453
4880	64.4787
4876	64.6664
4872	64.951
4868	65.0066
4864	64.6171
4860	64.3377
4856	64.4672
4852	64.8458
4848	65.216
4844	65.2271
4840	64.9488
4836	64.71
4832	64.5993
4828	64.6272
4824	64.6419
4820	64.5645
4816	64.5775
4812	64.6483
4808	64.7738
4804	64.8985
4800	64.8951
4796	64.9453
4792	65.0703
4788	65.2071
4784	65.3378
4780	65.3049
4776	65.0822
4772	64.7898
4768	64.5029
4764	64.3129
4760	64.279
4756	64.2667
4752	64.1834
4748	64.1502
4744	64.215
4740	64.2186
4736	64.174
4732	64.2831
4728	64.4963
4724	64.5693
4720	64.4964
4716	64.5597
4712	64.7595
4708	64.9142
4704	64.9571
4700	64.79
4696	64.6646
4692	64.6991
4688	64.5718
4684	64.361
4680	64.2869
4676	64.245
4672	64.1217
4668	64.1911
4664	64.4272
4660	64.4109
4656	64.3531
4652	64.4653
4648	64.6481
4644	64.7793
4640	64.7779
4636	64.7201
4632	64.59
4628	64.4207
4624	64.3042
4620	64.301
4616	64.4057
4612	64.4453
4608	64.4572
4604	64.6244
4600	64.8704
4596	64.9646
4592	64.7661
4588	64.6474
4584	64.8907
4580	65.0518
4576	65.0408
4572	65.0887
4568	65.0661
4564	65.036
4560	65.0583
4556	64.9613
4552	64.7879
4548	64.766
4544	64.95
4540	65.1827
4536	65.4752
4532	65.8912
4528	65.8864
4524	65.2298
4520	64.8733
4516	65.2979
4512	65.7466
4508	65.7771
4504	65.6512
4500	65.6558
4496	65.7144
4492	65.55
4488	65.3234
4484	65.3493
4480	65.6609
4476	65.9539
4472	66.066
4468	65.9391
4464	65.639
4460	65.5542
4456	65.6028
4452	65.6595
4448	65.9365
4444	66.4178
4440	66.5944
4436	66.3614
4432	66.223
4428	66.258
4424	66.1921
4420	66.0485
4416	66.2865
4412	66.5833
4408	66.4177
4404	65.8487
4400	65.3887
4396	64.9427
4392	63.8576
4388	61.727
4384	57.2463
4380	50.0939
4376	43.9944
4372	45.6809
4368	56.6269
4364	63.5921
4360	61.276
4356	60.9722
4352	65.1476
4348	66.8443
4344	66.5569
4340	66.9814
4336	66.7441
4332	66.2871
4328	66.1322
4324	66.0723
4320	66.167
4316	66.2047
4312	66.0547
4308	65.9144
4304	65.863
4300	65.8384
4296	65.9465
4292	65.9192
4288	65.7769
4284	65.8456
4280	66.0173
4276	66.069
4272	65.87
4268	65.6521
4264	65.5689
4260	65.5239
4256	65.4964
4252	65.3874
4248	65.2144
4244	65.2473
4240	65.5698
4236	65.8045
4232	65.5927
4228	65.2054
4224	65.0941
4220	65.2287
4216	65.373
4212	65.3398
4208	65.1864
4204	64.9992
4200	64.7211
4196	64.4254
4192	64.5802
4188	65.21
4184	65.4038
4180	64.9932
4176	64.5676
4172	64.4124
4168	64.5333
4164	64.7611
4160	64.9509
4156	64.9602
4152	64.8025
4148	64.6827
4144	64.7693
4140	64.952
4136	65.0076
4132	64.8857
4128	64.7317
4124	64.7137
4120	64.6741
4116	64.5061
4112	64.4197
4108	64.4755
4104	64.5757
4100	64.634
4096	64.6645
4092	64.7622
4088	64.9118
4084	65.0213
4080	65.0493
4076	65.0189
4072	64.8848
4068	64.6154
4064	64.4324
4060	64.5159
4056	64.623
4052	64.7134
4048	64.9584
4044	65.0541
4040	64.9134
4036	64.8262
4032	64.705
4028	64.549
4024	64.6506
4020	64.9056
4016	64.966
4012	64.8322
4008	64.791
4004	64.8371
4000	64.7821
3996	64.7727
3992	64.865
3988	64.9311
3984	65.0184
3980	65.0699
3976	65.0079
3972	64.9806
3968	64.994
3964	64.8707
3960	64.7609
3956	64.8796
3952	65.0993
3948	65.2288
3944	65.1726
3940	65.0497
3936	65.0577
3932	65.1599
3928	65.0951
3924	64.9113
3920	64.9199
3916	65.062
3912	65.1817
3908	65.1611
3904	64.9487
3900	64.8484
3896	64.9798
3892	65.0843
3888	65.116
3884	65.1149
3880	65.047
3876	65.1129
3872	65.2948
3868	65.3029
3864	65.1765
3860	65.0708
3856	65.0879
3852	65.2031
3848	65.1944
3844	65.0412
3840	64.971
3836	65.0014
3832	65.0111
3828	65.0783
3824	65.201
3820	65.2546
3816	65.2727
3812	65.3122
3808	65.2829
3804	65.1473
3800	65.0263
3796	65.0771
3792	65.2401
3788	65.2821
3784	65.1921
3780	65.1781
3776	65.2676
3772	65.2454
3768	65.1055
3764	65.0188
3760	64.9572
3756	64.9257
3752	65.0017
3748	65.0813
3744	65.1657
3740	65.2472
3736	65.2618
3732	65.2731
3728	65.2488
3724	65.1786
3720	65.0839
3716	64.9747
3712	65.0211
3708	65.1857
3704	65.1499
3700	64.9598
3696	64.8982
3692	64.9832
3688	65.1175
3684	65.1865
3680	65.1681
3676	65.1427
3672	65.0296
3668	64.9002
3664	64.9322
3660	65.0044
3656	64.9951
3652	64.9689
3648	64.9849
3644	65.04
3640	65.0992
3636	65.0796
3632	64.9202
3628	64.7488
3624	64.7611
3620	64.8536
3616	64.9096
3612	65.0384
3608	65.1606
3604	65.132
3600	65.097
3596	65.0811
3592	64.9553
3588	64.824
3584	64.8249
3580	64.9763
3576	65.1568
3572	65.1748
3568	65.0571
3564	64.9855
3560	64.9817
3556	64.9461
3552	64.8527
3548	64.7685
3544	64.7906
3540	64.9306
3536	65.0357
3532	65.0062
3528	64.9535
3524	64.9614
3520	64.9587
3516	64.9168
3512	64.9458
3508	65.1147
3504	65.244
3500	65.1615
3496	65.0182
3492	65.0136
3488	65.1704
3484	65.33
3480	65.3557
3476	65.2715
3472	65.1573
3468	65.0658
3464	64.9698
3460	64.9214
3456	65.0034
3452	65.1159
3448	65.0394
3444	64.9123
3440	65.0346
3436	65.2741
3432	65.3287
3428	65.1519
3424	65.0393
3420	65.1397
3416	65.2244
3412	65.2041
3408	65.2519
3404	65.334
3400	65.3959
3396	65.491
3392	65.4608
3388	65.2822
3384	65.141
3380	65.0795
3376	65.0006
3372	64.9448
3368	65.0007
3364	65.0774
3360	65.115
3356	65.1552
3352	65.1144
3348	64.9792
3344	64.9794
3340	65.1342
3336	65.2556
3332	65.3019
3328	65.292
3324	65.2173
3320	65.1335
3316	65.1922
3312	65.3264
3308	65.2658
3304	65.0582
3300	64.9571
3296	65.0115
3292	65.0369
3288	64.972
3284	64.9492
3280	64.9632
3276	64.9783
3272	65.1058
3268	65.2471
3264	65.1779
3260	65.099
3256	65.1648
3252	65.1648
3248	65.0724
3244	64.9614
3240	64.8397
3236	64.8199
3232	64.9319
3228	65.0075
3224	64.9951
3220	65.0297
3216	65.0439
3212	64.972
3208	64.9871
3204	65.0648
3200	65.1018
3196	65.0818
3192	65.0102
3188	65.045
3184	65.1804
3180	65.2166
3176	65.139
3172	65.1499
3168	65.2512
3164	65.2598
3160	65.2586
3156	65.3272
3152	65.2869
3148	65.0726
3144	64.8871
3140	64.8981
3136	65.1247
3132	65.2696
3128	64.9916
3124	64.5759
3120	64.5769
3116	64.939
3112	65.1222
3108	65.0729
3104	65.0303
3100	64.954
3096	64.9155
3092	65.0671
3088	65.2284
3084	65.1908
3080	65.0733
3076	65.0557
3072	65.1308
3068	65.2077
3064	65.2479
3060	65.2088
3056	65.1878
3052	65.2527
3048	65.2789
3044	65.2425
3040	65.1869
3036	65.123
3032	65.0429
3028	65.0473
3024	65.181
3020	65.2891
3016	65.2832
3012	65.2269
3008	65.1619
3004	65.0931
3000	65.1137
2996	65.1713
2992	65.1112
2988	65.0696
2984	65.1751
2980	65.2425
2976	65.1583
2972	65.0838
2968	65.1311
2964	65.1671
2960	65.1422
2956	65.1019
2952	65.0407
2948	65.0123
2944	65.0374
2940	65.0664
2936	65.0291
2932	64.9372
2928	64.9011
2924	64.9174
2920	64.8696
2916	64.8449
2912	65.0152
2908	65.1458
2904	65.0688
2900	65.0357
2896	65.0733
2892	65.0901
2888	65.0839
2884	65.0132
2880	65.0084
2876	65.1531
2872	65.2768
2868	65.2289
2864	65.1354
2860	65.057
2856	64.9385
2852	64.9113
2848	65.0344
2844	65.1808
2840	65.172
2836	65.0211
2832	64.9277
2828	64.92
2824	64.9457
2820	65.0217
2816	65.0758
2812	65.0501
2808	65.0451
2804	65.1305
2800	65.1905
2796	65.1335
2792	65.0172
2788	64.9366
2784	64.9398
2780	65.0169
2776	65.1647
2772	65.273
2768	65.2447
2764	65.1755
2760	65.1412
2756	65.1322
2752	65.137
2748	65.1544
2744	65.178
2740	65.1828
2736	65.163
2732	65.1348
2728	65.1232
2724	65.139
2720	65.14
2716	65.1324
2712	65.1572
2708	65.1299
2704	65.037
2700	65.0131
2696	65.0307
2692	64.9825
2688	64.9826
2684	65.1103
2680	65.1843
2676	65.1626
2672	65.1864
2668	65.2301
2664	65.2257
2660	65.2012
2656	65.1772
2652	65.192
2648	65.2511
2644	65.2801
2640	65.2562
2636	65.2246
2632	65.2085
2628	65.1912
2624	65.1942
2620	65.2303
2616	65.2791
2612	65.3164
2608	65.2722
2604	65.1798
2600	65.1827
2596	65.281
2592	65.339
2588	65.3134
2584	65.2611
2580	65.2096
2576	65.1638
2572	65.1534
2568	65.1814
2564	65.2297
2560	65.3361
2556	65.428
2552	65.373
2548	65.2351
2544	65.1835
2540	65.239
2536	65.2289
2532	65.1441
2528	65.1282
2524	65.1362
2520	65.1622
2516	65.2902
2512	65.4109
2508	65.3422
2504	65.0965
2500	64.9576
2496	65.0367
2492	65.1139
2488	65.1834
2484	65.2669
2480	65.2556
2476	65.241
2472	65.2341
2468	65.1901
2464	65.2276
2460	65.3434
2456	65.3663
2452	65.3258
2448	65.3177
2444	65.3303
2440	65.3752
2436	65.4351
2432	65.5089
2428	65.5182
2424	65.3711
2420	65.1762
2416	65.1071
2412	65.2072
2408	65.341
2404	65.3796
2400	65.3383
2396	65.3523
2392	65.3754
2388	65.2505
2384	65.1173
2380	65.1387
2376	65.2014
2372	65.2292
2368	65.2671
2364	65.2708
2360	65.2292
2356	65.1992
2352	65.1852
2348	65.2001
2344	65.2457
2340	65.248
2336	65.233
2332	65.2672
2328	65.2718
2324	65.202
2320	65.1389
2316	65.1346
2312	65.1488
2308	65.1613
2304	65.1918
2300	65.2254
2296	65.2432
2292	65.2385
2288	65.2104
2284	65.1334
2280	65.0358
2276	65.0551
2272	65.1641
2268	65.2125
2264	65.1956
2260	65.1908
2256	65.2521
2252	65.3754
2248	65.4658
2244	65.3954
2240	65.2608
2236	65.2562
2232	65.3591
2228	65.3897
2224	65.2313
2220	65.0974
2216	65.1339
2212	65.1906
2208	65.228
2204	65.2482
2200	65.2176
2196	65.1696
2192	65.1524
2188	65.1675
2184	65.1716
2180	65.153
2176	65.1651
2172	65.2672
2168	65.3538
2164	65.3253
2160	65.2903
2156	65.2857
2152	65.3149
2148	65.2579
2144	65.028
2140	64.979
2136	65.1961
2132	65.3587
2128	65.3582
2124	65.2842
2120	65.2269
2116	65.2218
2112	65.235
2108	65.2515
2104	65.2999
2100	65.3039
2096	65.2282
2092	65.173
2088	65.1392
2084	65.1407
2080	65.1854
2076	65.1768
2072	65.1114
2068	65.0049
2064	65.0639
2060	65.4291
2056	65.61
2052	65.379
2048	65.1421
2044	65.0858
2040	65.1485
2036	65.2647
2032	65.3355
2028	65.2988
2024	65.2346
2020	65.1892
2016	65.1199
2012	65.1298
2008	65.2247
2004	65.2925
2000	65.313
1996	65.2638
1992	65.1772
1988	65.1346
1984	65.1618
1980	65.2252
1976	65.2846
1972	65.3223
1968	65.2961
1964	65.2516
1960	65.2505
1956	65.2606
1952	65.2597
1948	65.2606
1944	65.2292
1940	65.1584
1936	65.1727
1932	65.2587
1928	65.2647
1924	65.2505
1920	65.2863
1916	65.2863
1912	65.2421
1908	65.1687
1904	65.1143
1900	65.1744
1896	65.2974
1892	65.3613
1888	65.3376
1884	65.3019
1880	65.2791
1876	65.1995
1872	65.1176
1868	65.1203
1864	65.1587
1860	65.1922
1856	65.1978
1852	65.1984
1848	65.2199
1844	65.2067
1840	65.1935
1836	65.2466
1832	65.29
1828	65.252
1824	65.1799
1820	65.1498
1816	65.1685
1812	65.1851
1808	65.1936
1804	65.215
1800	65.236
1796	65.2332
1792	65.2362
1788	65.2377
1784	65.1922
1780	65.1418
1776	65.1575
1772	65.2024
1768	65.1768
1764	65.119
1760	65.1168
1756	65.1658
1752	65.2093
1748	65.2127
1744	65.1553
1740	65.0547
1736	65.0285
1732	65.0293
1728	64.9065
1724	64.873
1720	65.0862
1716	65.2815
1712	65.2991
1708	65.2694
1704	65.2909
1700	65.2881
1696	65.2375
1692	65.2295
1688	65.2557
1684	65.2632
1680	65.2124
1676	65.0946
1672	65.0474
1668	65.1557
1664	65.1991
1660	65.0794
1656	65.0753
1652	65.1855
1648	65.1712
1644	65.1072
1640	65.0581
1636	65.0115
1632	65.0528
1628	65.1224
1624	65.1515
1620	65.1853
1616	65.1952
1612	65.1384
1608	65.0734
1604	65.065
1600	65.0781
1596	65.0525
1592	64.9972
1588	65.0011
1584	65.004
1580	64.9784
1576	65.0242
1572	65.077
1568	65.0585
1564	64.9576
1560	64.834
1556	64.8315
1552	64.9126
1548	64.974
1544	65.0407
1540	65.0682
1536	65.0369
1532	65.0236
1528	65.0485
1524	65.0815
1520	65.0658
1516	64.9888
1512	64.9773
1508	65.1026
1504	65.2162
1500	65.2176
1496	65.1683
1492	65.1533
1488	65.1663
1484	65.1405
1480	65.0952
1476	65.035
1472	64.9351
1468	64.8808
1464	64.8946
1460	64.8102
1456	64.7184
1452	64.7939
1448	64.8027
1444	64.7268
1440	64.803
1436	64.9284
1432	64.9612
1428	64.9881
1424	65.0749
1420	65.1123
1416	65.0379
1412	64.9574
1408	64.974
1404	65.0592
1400	65.0599
1396	64.9864
1392	64.9328
1388	64.9043
1384	64.8989
1380	64.9068
1376	64.8933
1372	64.8922
1368	64.9697
1364	65.0201
1360	64.9798
1356	64.9554
1352	64.9641
1348	64.9651
1344	64.9898
1340	64.9513
1336	64.828
1332	64.8688
1328	65.0898
1324	65.1435
1320	64.963
1316	64.8636
1312	64.9065
1308	64.9186
1304	64.9275
1300	65.0079
1296	65.0948
1292	65.1234
1288	65.1195
1284	65.1092
1280	65.0491
1276	64.9594
1272	64.8853
1268	64.8703
1264	64.9457
1260	65.0519
1256	65.0728
1252	64.991
1248	64.9666
1244	65.0192
1240	65.0283
1236	64.9808
1232	64.9368
1228	64.9386
1224	64.8969
1220	64.8062
1216	64.8313
1212	64.9173
1208	64.9693
1204	65.0099
1200	65.0141
1196	64.9688
1192	64.9257
1188	64.9375
1184	64.9392
1180	64.9016
1176	64.8823
1172	64.8984
1168	64.8808
1164	64.8406
1160	64.9649
1156	65.1027
1152	65.0341
1148	64.9915
1144	65.0212
1140	64.9358
1136	64.7916
1132	64.8011
1128	64.9081
1124	64.8911
1120	64.8858
1116	64.9294
1112	64.8083
1108	64.6783
1104	64.723
1100	64.7437
1096	64.5204
1092	64.3236
1088	64.5931
1084	65.0279
1080	65.1291
1076	65.0316
1072	64.9426
1068	64.9285
1064	65.0457
1060	65.0717
1056	64.9182
1052	64.821
1048	64.7117
1044	64.5374
1040	64.5606
1036	64.7361
1032	64.8328
1028	64.8669
1024	64.7701
1020	64.5625
1016	64.7357
1012	65.1224
1008	64.9399
1004	64.4549
1000	64.4122
996	 64.523
992	 64.5414
988	 64.6888
984	 64.7973
980	 64.8651
976	 64.8749
972	 64.6568
968	 64.5016
964	 64.5651
960	 64.5485
956	 64.6181
952	 64.9458
948	 64.9396
944	 64.5968
940	 64.4488
936	 64.4832
932	 64.6377
928	 64.7811
924	 64.7964
920	 64.7343
916	 64.6609
912	 64.6826
908	 64.7279
904	 64.649
900	 64.4783
896	 64.4447
892	 64.5568
888	 64.6952
884	 64.8688
880	 64.8643
876	 64.5904
872	 64.328
868	 64.2328
864	 64.2855
860	 64.3898
856	 64.4285
852	 64.4525
848	 64.5787
844	 64.5482
840	 64.2984
836	 64.1848
832	 64.255
828	 64.4879
824	 64.6622
820	 64.4684
816	 64.263
812	 64.3963
808	 64.6333
804	 64.6612
800	 64.5057
796	 64.268
792	 64.0317
788	 63.9632
784	 63.9514
780	 63.9099
776	 64.0283
772	 64.2178
768	 64.2555
764	 64.1539
760	 63.9113
756	 63.6486
752	 63.8354
748	 64.3395
744	 64.5005
740	 64.2826
736	 64.0298
732	 63.8767
728	 63.7796
724	 63.7233
720	 63.9127
716	 64.1705
712	 63.9945
708	 63.7619
704	 63.8704
700	 64.0503
696	 64.1713
692	 64.2418
688	 64.1045
684	 63.665
680	 63.2173
676	 63.1372
672	 63.3264
668	 63.4679
664	 63.4987
660	 63.4923
656	 63.5511
652	 63.5098
648	 63.1755
644	 62.8061
640	 62.8002
636	 63.1428
632	 63.38
628	 63.214
624	 63.0756
620	 63.294
616	 63.5572
612	 63.572
608	 63.4597
604	 63.6117
600	 63.5842
596	 63.0844
592	 62.7481
588	 62.5268
584	 62.4833
580	 62.9101
576	 63.0989
572	 62.8246
568	 62.7065
564	 62.8916
560	 63.0093
556	 62.9709
552	 62.9229
548	 63.0094
544	 63.0055
540	 62.4656
536	 62.1084
532	 62.2471
528	 62.5091
524	 62.6987
520	 62.1454
516	 61.5364
512	 61.7211
508	 62.1561
504	 62.4286
500	 62.5117
496	 62.2298
492	 61.949
488	 62.0783
484	 61.9797
480	 61.3838
476	 60.9716
472	 60.8982
468	 60.7621
464	 60.6372
460	 60.7591
456	 60.7874
452	 60.0745
448	 59.429
444	 60.2791
440	 60.9335
436	 59.5691
432	 58.9643
428	 61.0122
424	 63.3076
420	 62.7767
416	 59.8028
412	 59.0359
408	 61.1864
404	 58.5427
400	 55.0536
396	 74.2198
392	 87.1901
388	 64.957
384	 55.3035
380	 78.2723
376	 91.2765
372	 74.9503
370	 68.8189