File: Bakgrunnsmateriale/MATLAB/FTIR/ftir_data/subBb/Mapping_121/C-4040-8_t74.asc
PE IR       SPECTRUM    SPECTRUM    ASCII       PEDS        1.60
  -1
C-B14A~1.ASC
17/03/27
20:35:06.00
17/03/27
20:35:32.00
tln
$C-4040-8_t0074$<tbV0>[-5.2,2.6,8.0,0.0,27,1,0]
27.028
64

2002,4.07
MIRTGS : RIGHTBACK : INTERNAL 2
MIR : ON : INTERNAL 2
OPTKBR

0.200000
8
8.000000
FILLER
RATIO
SPECTRUM
UNLOCKED 256

DOUBLE
64
COMBINED
1
0
0

0.002000
RATIO

1
0
TRUE
51149
0
LEFT NOT FITTED RIGHT NOT FITTED 0
NONE
NONE
15600
12
4.427000
51148
TRUE
1 0 8 72 0 0 0 0

15798

#HDR
-1
-1
#GR
µM
%T
2.38419e-05
0.0
2.000000
0.002000
12515
8
75.6628
4.526193
#DATA
2.000000	 64.9391
2.018000	 66.3071
2.036000	 65.4524
2.054000	 65.7877
2.072000	 65.1134
2.090000	 65.1902
2.108000	 65.0788
2.126000	 65.094
2.144000	 65.1713
2.162000	 65.6024
2.180000	 65.2908
2.198000	 65.2903
2.216000	 65.1609
2.234000	 64.6977
2.252000	 65.6822
2.270000	 63.6661
2.288000	 65.9351
2.306000	 66.047
2.324000	 65.7221
2.342000	 65.4873
2.360000	 65.0271
2.378000	 65.3616
2.396000	 65.3516
2.414000	 64.971
2.432000	 65.0588
2.450000	 64.9855
2.468000	 65.0508
2.486000	 65.2743
2.504000	 65.403
2.522000	 65.1877
2.540000	 65.0933
2.558000	 65.3991
2.576000	 65.1192
2.594000	 64.8396
2.612000	 65.314
2.630000	 65.266
2.648000	 65.0685
2.666000	 65.4408
2.684000	 65.2405
2.702000	 65.1509
2.720000	 65.4439
2.738000	 65.2817
2.756000	 65.2579
2.774000	 65.2899
2.792000	 65.3838
2.810000	 65.1747
2.828000	 65.3331
2.846000	 65.2505
2.864000	 65.2815
2.882000	 65.2708
2.900000	 65.4154
2.918000	 64.893
2.936000	 65.047
2.954000	 65.5633
2.972000	 65.2742
2.990000	 65.3039
3.008000	 65.1998
3.026000	 65.1577
3.044000	 65.265
3.062000	 65.3572
3.080000	 65.1055
3.098000	 65.3198
3.116000	 65.1091
3.134000	 65.4581
3.152000	 65.2093
3.170000	 65.2737
3.188000	 64.8982
3.206000	 65.2762
3.224000	 65.3322
3.242000	 65.3392
3.260000	 65.3869
3.278000	 65.3218
3.296000	 65.3025
3.314000	 65.211
3.332000	 65.1953
3.350000	 65.137
3.368000	 65.2163
3.386000	 65.0845
3.404000	 65.0464
3.422000	 64.786
3.440000	 65.107
3.458000	 65.2389
3.476000	 64.9875
3.494000	 65.3735
3.512000	 65.2859
3.530000	 65.2556
3.548000	 65.297
3.566000	 65.3625
3.584000	 65.4405
3.602000	 65.3409
3.620000	 65.3191
3.638000	 65.3157
3.656000	 65.3197
3.674000	 65.3341
3.692000	 65.5438
3.710000	 65.5417
3.728000	 65.3894
3.746000	 65.4568
3.764000	 65.3948
3.782000	 65.2031
3.800000	 65.5539
3.818000	 65.3446
3.836000	 65.2915
3.854000	 65.3462
3.872000	 65.4335
3.890000	 65.2934
3.908000	 65.4705
3.926000	 65.3505
3.944000	 65.3781
3.962000	 65.4146
3.980000	 65.5122
3.998000	 65.4137
4.016000	 65.4594
4.034000	 65.3501
4.052000	 65.3545
4.070000	 65.3945
4.088000	 65.4236
4.106000	 65.3809
4.124000	 65.3446
4.141999	 65.518
4.160000	 65.3454
4.178000	 65.3067
4.196000	 65.4487
4.214000	 65.4408
4.232000	 65.3042
4.250000	 65.3462
4.268000	 65.3808
4.286000	 65.4092
4.304000	 65.4667
4.322000	 65.306
4.340000	 65.3663
4.358000	 65.312
4.375999	 65.4443
4.394000	 65.4203
4.412000	 65.3999
4.430000	 65.3661
4.448000	 65.4801
4.466000	 65.5325
4.484000	 65.4435
4.502000	 65.365
4.520000	 65.3266
4.538000	 65.4256
4.556000	 65.4537
4.574000	 65.4868
4.592000	 65.3617
4.609999	 65.2863
4.628000	 65.3772
4.646000	 65.4365
4.664000	 65.3493
4.682000	 65.4981
4.700000	 65.3927
4.718000	 65.3484
4.736000	 65.4879
4.754000	 65.3899
4.772000	 65.321
4.790000	 65.4118
4.808000	 65.7681
4.826000	 65.7896
4.843999	 65.4454
4.862000	 65.6121
4.880000	 65.5146
4.898000	 65.4937
4.916000	 65.2912
4.934000	 65.4387
4.952000	 65.4651
4.970000	 65.5814
4.988000	 65.5097
5.006000	 65.3469
5.024000	 65.4108
5.042000	 65.3964
5.060000	 65.3878
5.077999	 65.3527
5.096000	 65.3974
5.114000	 65.4774
5.132000	 65.4601
5.150000	 65.4096
5.168000	 65.3136
5.186000	 65.4264
5.204000	 65.3765
5.222000	 65.3897
5.240000	 65.4524
5.258000	 65.4017
5.276000	 65.4236
5.294000	 65.4327
5.312000	 65.2953
5.330000	 65.436
5.348000	 65.4041
5.366000	 65.369
5.384000	 65.417
5.402000	 65.3729
5.420000	 65.3057
5.438000	 65.3927
5.456000	 65.4055
5.474000	 65.4259
5.492000	 65.5387
5.510000	 65.4479
5.528000	 65.4725
5.546000	 65.3615
5.564000	 65.2903
5.582000	 65.2224
5.600000	 65.2785
5.618000	 65.3371
5.636000	 65.2911
5.654000	 65.3445
5.672000	 65.4745
5.690000	 65.5091
5.708000	 65.4045
5.726000	 65.3112
5.744000	 65.2712
5.762000	 65.2182
5.780000	 65.2343
5.798000	 65.3204
5.816000	 65.2289
5.834000	 65.3249
5.852000	 65.3936
5.870000	 65.36
5.888000	 65.3981
5.906000	 65.4253
5.923999	 65.4444
5.942000	 65.4748
5.960000	 65.471
5.978000	 65.3775
5.996000	 65.3916
6.014000	 65.3922
6.032000	 65.3357
6.050000	 65.3756
6.068000	 65.4044
6.086000	 65.4386
6.104000	 65.3816
6.122000	 65.2628
6.140000	 65.2144
6.158000	 65.2339
6.176000	 65.2079
6.194000	 65.0668
6.212000	 64.9889
6.230000	 65.0597
6.248000	 65.1011
6.266000	 65.0845
6.284000	 65.1867
6.302000	 65.3183
6.320000	 65.3045
6.338000	 65.2371
6.356000	 65.1587
6.374000	 65.0837
6.392000	 65.1502
6.410000	 65.2385
6.428000	 65.0739
6.446000	 64.8969
6.464000	 65.0215
6.482000	 65.2793
6.500000	 65.3224
6.518000	 65.1687
6.536000	 65.124
6.554000	 65.1808
6.572000	 65.1996
6.590000	 65.1495
6.608000	 65.0967
6.626000	 65.11
6.644000	 65.17
6.662000	 65.2216
6.680000	 65.1973
6.698000	 65.1654
6.716000	 65.182
6.734000	 65.2192
6.752000	 65.2767
6.770000	 65.2981
6.788000	 65.2562
6.806000	 65.2146
6.824000	 65.255
6.842000	 65.2882
6.860000	 65.2106
6.878000	 65.1271
6.896000	 65.1028
6.914000	 65.0849
6.932000	 65.0631
6.950000	 65.0598
6.968000	 65.069
6.986000	 65.0781
7.004000	 65.1153
7.022000	 65.1554
7.040000	 65.1619
7.058000	 65.1937
7.076000	 65.2491
7.094000	 65.2687
7.112000	 65.256
7.130000	 65.2233
7.148000	 65.2012
7.166000	 65.2081
7.184000	 65.1872
7.202000	 65.1295
7.220000	 65.1317
7.238000	 65.2504
7.256000	 65.3752
7.274000	 65.3542
7.292000	 65.2256
7.310000	 65.144
7.328000	 65.1458
7.346000	 65.1673
7.364000	 65.1673
7.382000	 65.1538
7.400000	 65.1515
7.418000	 65.1426
7.436000	 65.1127
7.454000	 65.1194
7.472000	 65.177
7.490000	 65.2002
7.508000	 65.1643
7.526000	 65.1462
7.544000	 65.1777
7.562000	 65.1907
7.580000	 65.1189
7.598000	 65.0034
7.616000	 64.9539
7.634000	 64.9921
7.652000	 65.0319
7.670000	 65.0423
7.688000	 65.0738
7.706000	 65.1198
7.724000	 65.1296
7.742000	 65.1255
7.760000	 65.1599
7.778000	 65.2146
7.796000	 65.2354
7.814000	 65.2035
7.832000	 65.1392
7.850000	 65.0771
7.868000	 65.0426
7.886000	 65.0443
7.904000	 65.0822
7.922000	 65.1356
7.940000	 65.1638
7.958000	 65.1545
7.976000	 65.1353
7.994000	 65.1178
8.012000	 65.0886
8.030000	 65.0555
8.048000	 65.0465
8.065999	 65.0609
8.084000	 65.0731
8.102000	 65.0696
8.120000	 65.0457
8.138000	 64.9928
8.155999	 64.9262
8.173999	 64.8944
8.192000	 64.9236
8.210000	 64.9886
8.228000	 65.0621
8.246000	 65.1457
8.263999	 65.2298
8.282000	 65.2771
8.300000	 65.2661
8.318000	 65.212
8.336000	 65.1442
8.353999	 65.0858
8.372000	 65.0587
8.390000	 65.076
8.408000	 65.1225
8.426000	 65.1657
8.443999	 65.1876
8.462000	 65.184
8.480000	 65.1464
8.498000	 65.0713
8.516000	 64.9778
8.533999	 64.8971
8.552000	 64.8449
8.570000	 64.8152
8.588000	 64.7969
8.606000	 64.7888
8.624000	 64.7965
8.641999	 64.8196
8.660000	 64.8442
8.678000	 64.8486
8.696000	 64.8174
8.714000	 64.7577
8.731999	 64.7014
8.750000	 64.6867
8.768000	 64.7267
8.786000	 64.7941
8.804000	 64.8442
8.821999	 64.8567
8.840000	 64.8524
8.858000	 64.8643
8.876000	 64.8985
8.894000	 64.9338
8.911999	 64.9511
8.930000	 64.9532
8.948000	 64.953
8.966000	 64.9572
8.984000	 64.9607
9.001999	 64.9538
9.020000	 64.9251
9.038000	 64.8697
9.056000	 64.7974
9.074000	 64.7279
9.092000	 64.6723
9.109999	 64.6264
9.128000	 64.5836
9.146000	 64.5492
9.164000	 64.5381
9.182000	 64.5664
9.199999	 64.6452
9.218000	 64.7751
9.236000	 64.9358
9.254000	 65.0781
9.272000	 65.1448
9.289999	 65.1111
9.308000	 65.0039
9.326000	 64.8834
9.344000	 64.799
9.362000	 64.7655
9.379999	 64.7698
9.398000	 64.795
9.416000	 64.833
9.434000	 64.8779
9.452000	 64.9179
9.469999	 64.9378
9.488000	 64.9281
9.506000	 64.8953
9.524000	 64.8585
9.542000	 64.8384
9.560000	 64.8451
9.577999	 64.8749
9.596000	 64.9147
9.614000	 64.946
9.632000	 64.9538
9.650000	 64.934
9.667999	 64.8966
9.686000	 64.8557
9.704000	 64.8161
9.722000	 64.7698
9.740000	 64.7086
9.757999	 64.6407
9.776000	 64.5909
9.794000	 64.5818
9.812000	 64.612
9.830000	 64.6543
9.847999	 64.678
9.866000	 64.6738
9.884000	 64.6589
9.902000	 64.6598
9.920000	 64.692
9.937999	 64.7518
9.956000	 64.828
9.974000	 64.9131
9.992000	 65.0029
10.01	65.0918
10.028	65.1661
10.046	65.2103
10.064	65.2181
10.082	65.1953
10.1	65.1546
10.118	65.1065
10.136	65.0526
10.154	64.9887
10.172	64.9124
10.19	64.8299
10.208	64.7615
10.226	64.738
10.244	64.7888
10.262	64.921
10.28	65.102
10.298	65.264
10.316	65.328
10.334	65.2518
10.352	65.0563
10.37	64.8201
10.388	64.6387
10.406	64.5713
10.424	64.6194
10.442	64.7335
10.46	64.853
10.478	64.9347
10.496	64.9679
10.514	64.9615
10.532	64.9292
10.55	64.879
10.568	64.8175
10.586	64.7549
10.604	64.7037
10.622	64.6743
10.64	64.6689
10.658	64.68
10.676	64.6942
10.694	64.7023
10.712	64.701
10.73	64.6939
10.748	64.6885
10.766	64.692
10.784	64.71
10.802	64.7469
10.82	64.8054
10.838	64.8833
10.856	64.973
10.874	65.0608
10.892	65.1299
10.91	65.165
10.928	65.1595
10.946	65.1169
10.964	65.0508
10.982	64.9806
11	64.9231
11.018	64.8902
11.036	64.8855
11.054	64.9076
11.072	64.9516
11.09	65.0118
11.108	65.0816
11.126	65.1506
11.144	65.2056
11.162	65.2308
11.18	65.2144
11.198	65.1535
11.216	65.0568
11.234	64.9444
11.252	64.8416
11.27	64.7699
11.288	64.7439
11.306	64.7643
11.324	64.82
11.342	64.8919
11.36	64.9594
11.378	65.0036
11.396	65.0144
11.414	64.9905
11.432	64.9393
11.45	64.8736
11.468	64.8089
11.486	64.7568
11.504	64.7236
11.522	64.7094
11.54	64.7089
11.558	64.7132
11.576	64.7118
11.594	64.6954
11.612	64.6566
11.63	64.5921
11.648	64.5042
11.666	64.4014
11.684	64.2978
11.702	64.2098
11.72	64.153
11.738	64.1382
11.756	64.1681
11.774	64.237
11.792	64.333
11.81	64.4417
11.828	64.5497
11.846	64.6469
11.864	64.7278
11.882	64.791
11.9	64.8367
11.918	64.8663
11.936	64.8807
11.954	64.881
11.972	64.8683
11.99	64.8443
12.008	64.8108
12.026	64.769
12.044	64.7201
12.062	64.6648
12.08	64.604
12.098	64.54
12.116	64.4775
12.134	64.4238
12.152	64.3871
12.17	64.3735
12.188	64.3861
12.206	64.422
12.224	64.4732
12.242	64.5285
12.26	64.576
12.278	64.6055
12.296	64.6116
12.314	64.5941
12.332	64.5587
12.35	64.515
12.368	64.4755
12.386	64.4516
12.404	64.4504
12.422	64.4721
12.44	64.5108
12.458	64.5547
12.476	64.5905
12.494	64.6064
12.512	64.5967
12.53	64.5623
12.548	64.5116
12.566	64.4567
12.584	64.411
12.602	64.3843
12.62	64.3815
12.638	64.4012
12.656	64.4365
12.674	64.4778
12.692	64.515
12.71	64.5405
12.728	64.5503
12.746	64.5438
12.764	64.5237
12.782	64.4951
12.8	64.4635
12.818	64.4336
12.836	64.4085
12.854	64.3894
12.872	64.3764
12.89	64.3685
12.908	64.365
12.926	64.3657
12.944	64.3718
12.962	64.3865
12.98	64.4133
12.998	64.4551
13.016	64.5115
13.034	64.579
13.052	64.6496
13.07	64.7118
13.088	64.7535
13.106	64.7641
13.124	64.7379
13.142	64.6756
13.16	64.5848
13.178	64.4784
13.196	64.3718
13.214	64.2799
13.232	64.2141
13.25	64.1803
13.268	64.178
13.286	64.2015
13.304	64.2422
13.322	64.2898
13.34	64.3352
13.358	64.3706
13.376	64.3902
13.394	64.3899
13.412	64.3672
13.43	64.3212
13.448	64.2528
13.466	64.1652
13.484	64.0636
13.502	63.9555
13.52	63.8499
13.538	63.7559
13.556	63.6812
13.574	63.6311
13.592	63.6065
13.61	63.6048
13.628	63.6197
13.646	63.6428
13.664	63.6657
13.682	63.6813
13.7	63.6856
13.718	63.6779
13.736	63.6613
13.754	63.6412
13.772	63.6239
13.79	63.6155
13.808	63.6197
13.826	63.6379
13.844	63.6678
13.862	63.7049
13.88	63.7425
13.898	63.7737
13.916	63.7925
13.934	63.7952
13.952	63.7809
13.97	63.7518
13.988	63.7126
14.006	63.6694
14.024	63.6285
14.042	63.5956
14.06	63.5748
14.078	63.5679
14.096	63.5749
14.114	63.5942
14.132	63.6231
14.15	63.6587
14.168	63.6978
14.186	63.7372
14.204	63.7742
14.222	63.8062
14.24	63.8302
14.258	63.8436
14.276	63.8437
14.294	63.8287
14.312	63.7978
14.33	63.7519
14.348	63.6931
14.366	63.6255
14.384	63.5539
14.402	63.4839
14.42	63.4206
14.438	63.3676
14.456	63.3277
14.474	63.3021
14.492	63.2908
14.51	63.2931
14.528	63.3073
14.546	63.3315
14.564	63.3636
14.582	63.4012
14.6	63.4417
14.618	63.4819
14.636	63.5177
14.654	63.545
14.672	63.5601
14.69	63.5598
14.708	63.5427
14.726	63.5087
14.744	63.4607
14.762	63.404
14.78	63.3448
14.798	63.2899
14.816	63.2458
14.834	63.2172
14.852	63.2066
14.87	63.212
14.888	63.2291
14.906	63.2513
14.924	63.2703
14.942	63.2768
14.96	63.2635
14.978	63.2267
14.996	63.1652
15.014	63.0814
15.032	62.9816
15.05	62.8751
15.068	62.7711
15.086	62.6787
15.104	62.606
15.122	62.5593
15.14	62.5405
15.158	62.5484
15.176	62.5796
15.194	62.6283
15.212	62.6869
15.23	62.7482
15.248	62.8065
15.266	62.8568
15.284	62.895
15.302	62.9204
15.32	62.9337
15.338	62.9367
15.356	62.933
15.374	62.9266
15.392	62.9209
15.41	62.9184
15.428	62.9215
15.446	62.9301
15.464	62.9434
15.482	62.9597
15.5	62.976
15.518	62.988
15.536	62.9922
15.554	62.9856
15.572	62.9655
15.59	62.9312
15.608	62.8837
15.626	62.8249
15.644	62.759
15.662	62.6922
15.68	62.6304
15.698	62.5792
15.716	62.5453
15.734	62.533
15.752	62.5445
15.77	62.5811
15.788	62.6408
15.806	62.7186
15.824	62.8095
15.842	62.9062
15.86	62.9995
15.878	63.083
15.896	63.1503
15.914	63.1955
15.932	63.2165
15.95	63.2125
15.968	63.1845
15.986	63.1375
16.004	63.0761
16.022	63.0056
16.04	62.9337
16.058	62.8653
16.076	62.8044
16.094	62.7554
16.112	62.7193
16.13	62.6961
16.148	62.6853
16.166	62.6835
16.184	62.6883
16.202	62.6965
16.22	62.7046
16.238	62.7108
16.256	62.7135
16.274	62.7126
16.292	62.7092
16.31	62.7043
16.328	62.7018
16.346	62.7041
16.364	62.7136
16.382	62.7341
16.4	62.7669
16.418	62.8129
16.436	62.8724
16.454	62.9435
16.472	63.0248
16.49	63.1121
16.508	63.2013
16.526	63.2892
16.544	63.3697
16.562	63.4393
16.58	63.4948
16.598	63.5318
16.616	63.5489
16.634	63.5445
16.652	63.5181
16.67	63.4708
16.688	63.4034
16.706	63.3195
16.724	63.2219
16.742	63.1141
16.76	63.0019
16.778	62.8882
16.796	62.7782
16.814	62.6762
16.832	62.5849
16.85	62.5086
16.868	62.4488
16.886	62.407
16.904	62.3841
16.922	62.3794
16.94	62.3925
16.958	62.4209
16.976	62.4633
16.994	62.5162
17.012	62.5767
17.03	62.6429
17.048	62.7106
17.066	62.7782
17.084	62.8431
17.102	62.9029
17.12	62.9566
17.138	63.0022
17.156	63.0394
17.174	63.0675
17.192	63.0865
17.21	63.0966
17.228	63.0981
17.246	63.0924
17.264	63.0799
17.282	63.0628
17.3	63.0419
17.318	63.0192
17.336	62.996
17.354	62.9734
17.372	62.9529
17.39	62.9348
17.408	62.9197
17.426	62.9073
17.444	62.8974
17.462	62.8888
17.48	62.8809
17.498	62.8726
17.516	62.8632
17.534	62.8517
17.552	62.8379
17.57	62.8216
17.588	62.8028
17.606	62.782
17.624	62.7596
17.642	62.7361
17.66	62.712
17.678	62.6879
17.696	62.6636
17.714	62.6395
17.732	62.615
17.75	62.5898
17.768	62.5631
17.786	62.5347
17.804	62.5033
17.822	62.4689
17.84	62.4312
17.858	62.3906
17.876	62.3474
17.894	62.3033
17.912	62.2587
17.93	62.2165
17.948	62.1771
17.966	62.1436
17.984	62.1167
18.002	62.0986
18.02	62.0896
18.038	62.0907
18.056	62.1009
18.074	62.1203
18.092	62.1464
18.11	62.1787
18.128	62.2137
18.146	62.2506
18.164	62.286
18.182	62.3185
18.2	62.3458
18.218	62.3671
18.236	62.3812
18.254	62.3883
18.272	62.3883
18.29	62.3828
18.308	62.3721
18.326	62.359
18.344	62.3439
18.362	62.3297
18.38	62.3169
18.398	62.3075
18.416	62.3017
18.434	62.3006
18.452	62.3035
18.47	62.3104
18.488	62.3193
18.506	62.3297
18.524	62.3384
18.542	62.3448
18.56	62.3454
18.578	62.34
18.596	62.3257
18.614	62.3023
18.632	62.2687
18.65	62.2249
18.668	62.1716
18.686	62.1094
18.704	62.0407
18.722	61.9662
18.74	61.8896
18.758	61.8118
18.776	61.7367
18.794	61.6649
18.812	61.6002
18.83	61.5426
18.848	61.4946
18.866	61.456
18.884	61.4278
18.902	61.4092
18.92	61.3998
18.938	61.3985
18.956	61.4037
18.974	61.4142
18.992	61.4277
19.01	61.4432
19.028	61.4583
19.046	61.4722
19.064	61.4829
19.082	61.4902
19.1	61.4926
19.118	61.4902
19.136	61.4826
19.154	61.4701
19.172	61.453
19.19	61.4319
19.208	61.4081
19.226	61.3818
19.244	61.3548
19.262	61.3272
19.28	61.3013
19.298	61.2771
19.316	61.2568
19.334	61.2403
19.352	61.2297
19.37	61.2247
19.388	61.2268
19.406	61.2361
19.424	61.2529
19.442	61.2772
19.46	61.3085
19.478	61.347
19.496	61.391
19.514	61.4404
19.532	61.493
19.55	61.5481
19.568	61.6037
19.586	61.658
19.604	61.7099
19.622	61.7567
19.64	61.7981
19.658	61.8311
19.676	61.8562
19.694	61.871
19.712	61.8759
19.73	61.8701
19.748	61.8534
19.766	61.8271
19.784	61.7909
19.802	61.7466
19.82	61.6948
19.838	61.6371
19.856	61.5754
19.874	61.5102
19.892	61.4443
19.91	61.3775
19.928	61.3127
19.946	61.2496
19.964	61.1901
19.982	61.1345
20	61.0833
20.018	61.0373
20.036	60.9963
20.054	60.9607
20.072	60.9303
20.09	60.9052
20.108	60.8852
20.126	60.8702
20.144	60.8602
20.162	60.855
20.18	60.8547
20.198	60.859
20.216	60.8678
20.234	60.8812
20.252	60.8988
20.27	60.9206
20.288	60.9461
20.306	60.9752
20.324	61.0073
20.342	61.0419
20.36	61.0785
20.378	61.1155
20.396	61.153
20.414	61.1888
20.432	61.2231
20.45	61.254
20.468	61.2807
20.486	61.3029
20.504	61.3189
20.522	61.3291
20.54	61.3325
20.558	61.3293
20.576	61.3195
20.594	61.3028
20.612	61.28
20.63	61.252
20.648	61.2187
20.666	61.1818
20.684	61.1411
20.702	61.0978
20.72	61.0528
20.738	61.0062
20.756	60.9591
20.774	60.9115
20.792	60.8637
20.81	60.8161
20.828	60.7685
20.846	60.7211
20.864	60.6739
20.882	60.6269
20.9	60.5801
20.918	60.5337
20.936	60.4875
20.954	60.4417
20.972	60.3968
20.99	60.3527
21.008	60.3098
21.026	60.2684
21.044	60.2287
21.062	60.1914
21.08	60.1563
21.098	60.1239
21.116	60.0943
21.134	60.0674
21.152	60.0433
21.17	60.022
21.188	60.0031
21.206	59.9866
21.224	59.9724
21.242	59.9601
21.26	59.9499
21.278	59.9418
21.296	59.9354
21.314	59.9313
21.332	59.9298
21.35	59.9307
21.368	59.9354
21.386	59.944
21.404	59.9571
21.422	59.9764
21.44	60.0013
21.458	60.0336
21.476	60.0742
21.494	60.1229
21.512	60.1807
21.53	60.2479
21.548	60.3236
21.566	60.4077
21.584	60.5
21.602	60.5976
21.62	60.7015
21.638	60.8088
21.656	60.9164
21.674	61.0255
21.692	61.131
21.71	61.2318
21.728	61.3276
21.746	61.4132
21.764	61.4901
21.782	61.5558
21.8	61.6079
21.818	61.6475
21.836	61.6736
21.854	61.6855
21.872	61.6843
21.89	61.671
21.908	61.6447
21.926	61.6088
21.944	61.5649
21.962	61.5124
21.98	61.456
21.998	61.3956
22.016	61.3323
22.034	61.2701
22.052	61.2078
22.07	61.1473
22.088	61.0905
22.106	61.0365
22.124	60.9866
22.142	60.9415
22.16	60.9004
22.178	60.8628
22.196	60.8292
22.214	60.7984
22.232	60.7693
22.25	60.7425
22.268	60.7161
22.286	60.6891
22.304	60.6619
22.322	60.633
22.34	60.6021
22.358	60.5692
22.376	60.5336
22.394	60.4949
22.412	60.4537
22.43	60.41
22.448	60.3637
22.466	60.3153
22.484	60.2654
22.502	60.2136
22.52	60.1612
22.538	60.1087
22.556	60.0559
22.574	60.0039
22.592	59.9527
22.61	59.9025
22.628	59.8545
22.646	59.8082
22.664	59.7644
22.682	59.7244
22.7	59.6875
22.718	59.655
22.736	59.6285
22.754	59.6069
22.772	59.5923
22.79	59.5863
22.808	59.5878
22.826	59.5989
22.844	59.6206
22.862	59.6522
22.88	59.6957
22.898	59.7522
22.916	59.821
22.934	59.9023
22.952	59.9969
22.97	60.1042
22.988	60.2214
23.006	60.3493
23.024	60.4869
23.042	60.6285
23.06	60.7743
23.078	60.9239
23.096	61.0709
23.114	61.2167
23.132	61.3596
23.15	61.492
23.168	61.6156
23.186	61.7286
23.204	61.8222
23.222	61.8979
23.24	61.9545
23.258	61.9852
23.276	61.9901
23.294	61.9697
23.312	61.9212
23.33	61.8439
23.348	61.7392
23.366	61.6082
23.384	61.4494
23.402	61.2648
23.42	61.0598
23.438	60.8327
23.456	60.5853
23.474	60.3257
23.492	60.0535
23.51	59.7688
23.528	59.4807
23.546	59.1902
23.564	58.8958
23.582	58.6068
23.6	58.3257
23.618	58.0496
23.636	57.7868
23.654	57.5415
23.672	57.31
23.69	57.0971
23.708	56.9064
23.726	56.7357
23.744	56.5857
23.762	56.4576
23.78	56.3515
23.798	56.2656
23.816	56.1987
23.834	56.1521
23.852	56.1234
23.87	56.1095
23.888	56.1127
23.906	56.1302
23.924	56.1559
23.942	56.191
23.96	56.2349
23.978	56.2806
23.996	56.326
24.014	56.3734
24.032	56.4183
24.05	56.4575
24.068	56.4933
24.086	56.5239
24.104	56.5473
24.122	56.5638
24.14	56.5744
24.158	56.5794
24.176	56.5785
24.194	56.5721
24.212	56.5619
24.23	56.5475
24.248	56.5288
24.266	56.5084
24.284	56.4881
24.302	56.4671
24.32	56.4441
24.338	56.4184
24.356	56.3909
24.374	56.3604
24.392	56.3247
24.41	56.2872
24.428	56.245
24.446	56.1899
24.464	56.121
24.482	56.0425
24.5	55.9407
24.518	55.805
24.536	55.646
24.554	55.4521
24.572	55.2062
24.59	54.9133
24.608	54.5729
24.626	54.1705
24.644	53.6992
24.662	53.1664
24.68	52.5666
24.698	51.8938
24.716	51.1489
24.734	50.335
24.752	49.4545
24.77	48.5019
24.788	47.4803
24.806	46.4072
24.824	45.292
24.842	44.1193
24.86	42.9128
24.878	41.7006
24.896	40.4664
24.914	39.2187
24.932	37.996
24.95	36.8152
24.968	35.6509
24.986	34.5392
25.004	33.518
25.022	32.5675
25.04	31.6959
25.058	30.9368
25.076	30.3063
25.094	29.7854
25.112	29.3887
25.13	29.1318
25.148	29.0114
25.166	29.0236
25.184	29.1693
25.202	29.4521
25.22	29.8727
25.238	30.418
25.256	31.0754
25.274	31.859
25.292	32.7572
25.31	33.7418
25.328	34.8005
25.346	35.9561
25.364	37.1748
25.382	38.4181
25.4	39.6966
25.418	41.0132
25.436	42.3359
25.454	43.6404
25.472	44.9472
25.49	46.2443
25.508	47.5118
25.526	48.7432
25.544	49.9482
25.562	51.1225
25.58	52.2614
25.598	53.3622
25.616	54.4304
25.634	55.4725
25.652	56.4913
25.67	57.4799
25.688	58.4486
25.706	59.4094
25.724	60.3634
25.742	61.3058
25.76	62.243
25.778	63.1813
25.796	64.1203
25.814	65.0574
25.832	65.9908
25.85	66.9225
25.868	67.8601
25.886	68.7877
25.904	69.6873
25.922	70.5617
25.94	71.4218
25.958	72.2364
25.976	72.9745
25.994	73.6576
26.012	74.2815
26.03	74.8042
26.048	75.1904
26.066	75.4743
26.084	75.638
26.102	75.6427
26.12	75.4638
26.138	75.132
26.156	74.6282
26.174	73.9265
26.192	73.0144
26.21	71.9083
26.228	70.6059
26.246	69.1041
26.264	67.3919
26.282	65.4752
26.3	63.3791
26.318	61.1277
26.336	58.6933
26.354	56.0877
26.372	53.3627
26.39	50.5642
26.408	47.6415
26.426	44.6217
26.444	41.5742
26.462	38.5544
26.48	35.4963
26.498	32.4394
26.516	29.4576
26.534	26.6024
26.552	23.8064
26.57	21.1123
26.588	18.5859
26.606	16.2701
26.624	14.1147
26.642	12.1419
26.66	10.3855
26.678	8.864835
26.696	7.552964
26.714	6.462358
26.732	5.609910
26.75	5.008930
26.768	4.651763
26.786	4.526333
26.804	4.620978
26.822	4.929979
26.84	5.461099
26.858	6.207194
26.876	7.160008
26.894	8.314038
26.912	9.672851
26.93	11.236
26.948	13.0027
26.966	15.114
26.984	17.7792
27.002	20.4648
27.02	22.5915
27.028	23.1457