File: Bakgrunnsmateriale/MATLAB/FTIR/ftir_data/subBb/Mapping_121/C-4040-8_t82_cm-1.asc
PE IR       SPECTRUM    SPECTRUM    ASCII       PEDS        1.60
  -1
C-9D64~1.ASC
17/03/27
21:12:38.00
17/03/27
21:12:38.00
tln
$C-4040-8_t0082$<tbV0>[2.6,5.2,8.0,0.0,27,1,0]
370
64

2002,4.07
MIRTGS : RIGHTBACK : INTERNAL 2
MIR : ON : INTERNAL 2
OPTKBR

0.200000
8
8.000000
FILLER
RATIO
SPECTRUM
UNLOCKED 256

DOUBLE
64
COMBINED
1
0
0

1.000000
RATIO

1
0
TRUE
51149
0
LEFT NOT FITTED RIGHT NOT FITTED 0
NONE
NONE
15600
12
4.427000
51148
TRUE
1 0 8 72 0 0 0 0

15798

#HDR
-1
-1
#GR
CM-1
%T
2.38419e-05
0.0
5000
-1.000000
4631
8
91.2029
51.1184
#DATA
5000	64.9535
4996	64.8553
4992	64.7353
4988	64.7875
4984	65.0192
4980	65.0494
4976	65.0353
4972	65.0466
4968	64.6444
4964	64.1492
4960	64.3911
4956	65.3346
4952	65.9827
4948	65.7208
4944	65.173
4940	64.9526
4936	64.8584
4932	64.5828
4928	64.3575
4924	64.5673
4920	64.9187
4916	64.9312
4912	64.8041
4908	64.8474
4904	64.8287
4900	64.5999
4896	64.2812
4892	64.2456
4888	64.8638
4884	65.5766
4880	65.8434
4876	65.8869
4872	65.6
4868	65.0866
4864	64.9382
4860	65.2375
4856	65.4937
4852	65.4235
4848	65.2183
4844	64.8844
4840	64.716
4836	65.1867
4832	65.6808
4828	65.581
4824	65.3477
4820	65.2246
4816	64.9801
4812	64.8108
4808	65.0259
4804	65.2943
4800	65.1729
4796	64.9467
4792	65.05
4788	65.3805
4784	65.5145
4780	65.2383
4776	65.0225
4772	65.1972
4768	65.3963
4764	65.4497
4760	65.4002
4756	65.2032
4752	65.1053
4748	65.3878
4744	65.5726
4740	65.2197
4736	64.7828
4732	64.6881
4728	64.9465
4724	65.2174
4720	65.3259
4716	65.515
4712	65.8216
4708	65.8669
4704	65.3993
4700	64.9332
4696	64.909
4692	65.123
4688	65.3106
4684	65.307
4680	65.2659
4676	65.3037
4672	65.3251
4668	65.357
4664	65.361
4660	65.3743
4656	65.4239
4652	65.4206
4648	65.1599
4644	64.8946
4640	65.0313
4636	65.1758
4632	65.1873
4628	65.2417
4624	65.187
4620	65.0097
4616	64.9536
4612	65.1435
4608	65.2073
4604	65.0088
4600	64.8098
4596	64.7601
4592	64.9474
4588	64.9425
4584	64.6784
4580	64.7019
4576	64.9379
4572	65.0084
4568	64.7429
4564	64.2839
4560	64.2505
4556	64.6424
4552	64.8581
4548	64.9791
4544	65.0829
4540	64.9668
4536	64.9146
4532	65.2212
4528	65.3627
4524	64.8229
4520	64.2039
4516	64.145
4512	64.5138
4508	64.7992
4504	64.8158
4500	64.9353
4496	65.0581
4492	64.9479
4488	64.7656
4484	64.5294
4480	64.3297
4476	64.424
4472	64.6558
4468	64.6563
4464	64.5633
4460	64.5554
4456	64.487
4452	64.2969
4448	64.2822
4444	64.4386
4440	64.5492
4436	64.7356
4432	64.7905
4428	64.8752
4424	65.0047
4420	65.0511
4416	64.9871
4412	64.6771
4408	64.221
4404	63.8051
4400	63.4629
4396	63.0855
4392	62.6417
4388	65.7878
4384	81.6093
4380	85.867
4376	73.3693
4372	69.4522
4368	67.4178
4364	65.5174
4360	64.4209
4356	64.1775
4352	64.24
4348	64.3345
4344	64.8647
4340	65.1547
4336	64.9661
4332	64.7698
4328	64.6752
4324	64.6213
4320	64.5818
4316	64.8134
4312	65.0739
4308	64.9135
4304	64.7629
4300	64.9366
4296	65.1275
4292	65.2017
4288	65.1624
4284	64.9931
4280	64.8303
4276	64.7798
4272	64.7882
4268	64.7013
4264	64.7011
4260	64.7164
4256	64.3327
4252	64.1613
4248	64.6926
4244	65.1843
4240	65.2365
4236	65.2317
4232	65.1424
4228	64.8438
4224	64.7886
4220	65.04
4216	65.2059
4212	65.2029
4208	65.2012
4204	65.3012
4200	65.1347
4196	64.6925
4192	64.6243
4188	64.8833
4184	64.9493
4180	64.4967
4176	64.0245
4172	64.3519
4168	64.9611
4164	65.2251
4160	65.4848
4156	65.6365
4152	65.3488
4148	65.0897
4144	65.0814
4140	65.057
4136	65.0199
4132	65.056
4128	65.0677
4124	65.0972
4120	65.1803
4116	65.0716
4112	64.9348
4108	65.0553
4104	65.166
4100	65.058
4096	64.977
4092	65.0447
4088	65.2317
4084	65.3543
4080	65.1826
4076	65.018
4072	65.1419
4068	65.2678
4064	65.1978
4060	65.1895
4056	65.2704
4052	65.2782
4048	65.2827
4044	65.2519
4040	65.1538
4036	65.1078
4032	65.0446
4028	65.0049
4024	65.0836
4020	65.1347
4016	65.2617
4012	65.4352
4008	65.3113
4004	65.0548
4000	65.1004
3996	65.2669
3992	65.1912
3988	65.0729
3984	65.0921
3980	65.1734
3976	65.2714
3972	65.3711
3968	65.3249
3964	65.1552
3960	65.1977
3956	65.2918
3952	65.2315
3948	65.1703
3944	65.1391
3940	65.1246
3936	65.1283
3932	65.1419
3928	65.101
3924	65.0909
3920	65.1657
3916	65.2634
3912	65.4287
3908	65.5002
3904	65.4533
3900	65.4134
3896	65.3075
3892	65.322
3888	65.4673
3884	65.3784
3880	65.1233
3876	65.087
3872	65.2383
3868	65.3237
3864	65.28
3860	65.1147
3856	64.9616
3852	64.8918
3848	64.9089
3844	65.0287
3840	65.0548
3836	64.9854
3832	65.0866
3828	65.1922
3824	65.1761
3820	65.2527
3816	65.2075
3812	65.0779
3808	65.1644
3804	65.2095
3800	65.0928
3796	65.0087
3792	65.0183
3788	65.058
3784	65.0573
3780	64.9851
3776	64.959
3772	65.0929
3768	65.2086
3764	65.2688
3760	65.3651
3756	65.4374
3752	65.4125
3748	65.3537
3744	65.3791
3740	65.3228
3736	65.1839
3732	65.2093
3728	65.2864
3724	65.2998
3720	65.3129
3716	65.3252
3712	65.3358
3708	65.2453
3704	65.0698
3700	64.9502
3696	64.9462
3692	65.0422
3688	65.0852
3684	65.1049
3680	65.1995
3676	65.3085
3672	65.3543
3668	65.3288
3664	65.3414
3660	65.3479
3656	65.302
3652	65.3486
3648	65.4546
3644	65.444
3640	65.328
3636	65.2408
3632	65.1618
3628	65.1383
3624	65.2714
3620	65.3727
3616	65.3136
3612	65.1996
3608	65.1682
3604	65.1906
3600	65.2354
3596	65.4024
3592	65.4747
3588	65.2752
3584	65.0421
3580	64.9334
3576	65.0229
3572	65.2638
3568	65.4269
3564	65.4347
3560	65.3445
3556	65.2259
3552	65.1726
3548	65.1191
3544	65.0134
3540	65.0457
3536	65.1564
3532	65.1563
3528	65.1051
3524	65.1122
3520	65.1936
3516	65.1933
3512	65.1137
3508	65.1895
3504	65.3544
3500	65.4231
3496	65.4018
3492	65.2619
3488	65.159
3484	65.2364
3480	65.3219
3476	65.3796
3472	65.3665
3468	65.2987
3464	65.2688
3460	65.1346
3456	65.0211
3452	65.1256
3448	65.281
3444	65.3543
3440	65.3504
3436	65.2489
3432	65.0509
3428	64.9724
3424	65.127
3420	65.2962
3416	65.3057
3412	65.1315
3408	64.9094
3404	64.7731
3400	64.7772
3396	64.9585
3392	65.2332
3388	65.4076
3384	65.3648
3380	65.2698
3376	65.2581
3372	65.2884
3368	65.3198
3364	65.2943
3360	65.2279
3356	65.1446
3352	65.0961
3348	65.1218
3344	65.1185
3340	65.1564
3336	65.2507
3332	65.2234
3328	65.1295
3324	65.1141
3320	65.1274
3316	65.1294
3312	65.1683
3308	65.2103
3304	65.2797
3300	65.3119
3296	65.2425
3292	65.2243
3288	65.2184
3284	65.1433
3280	65.1729
3276	65.3224
3272	65.3808
3268	65.2719
3264	65.1312
3260	65.1612
3256	65.294
3252	65.3007
3248	65.2079
3244	65.1362
3240	65.1462
3236	65.2233
3232	65.2216
3228	65.1304
3224	65.0784
3220	65.0336
3216	65.0697
3212	65.2508
3208	65.3967
3204	65.4863
3200	65.5298
3196	65.5117
3192	65.4025
3188	65.1824
3184	65.0503
3180	65.0603
3176	65.1009
3172	65.1308
3168	65.1474
3164	65.2009
3160	65.2511
3156	65.2679
3152	65.2782
3148	65.2936
3144	65.4464
3140	65.5953
3136	65.5557
3132	65.5445
3128	65.4804
3124	65.2803
3120	65.2109
3116	65.2348
3112	65.2472
3108	65.2199
3104	65.1266
3100	65.1493
3096	65.3143
3092	65.3822
3088	65.2894
3084	65.1851
3080	65.2267
3076	65.3697
3072	65.4513
3068	65.462
3064	65.3792
3060	65.2559
3056	65.2839
3052	65.3552
3048	65.2501
3044	65.1115
3040	65.1148
3036	65.1539
3032	65.2259
3028	65.3177
3024	65.2699
3020	65.1329
3016	65.0747
3012	65.1624
3008	65.2178
3004	65.1204
3000	65.0295
2996	65.0556
2992	65.1581
2988	65.2308
2984	65.2328
2980	65.2132
2976	65.1539
2972	65.0918
2968	65.1285
2964	65.1296
2960	65.0411
2956	65.0396
2952	65.0936
2948	65.1452
2944	65.1848
2940	65.1447
2936	65.0957
2932	65.0061
2928	64.8846
2924	64.8261
2920	64.7284
2916	64.7325
2912	64.8661
2908	64.966
2904	65.1082
2900	65.2424
2896	65.2892
2892	65.2896
2888	65.2262
2884	65.132
2880	65.0899
2876	65.0581
2872	65.0353
2868	65.1623
2864	65.3222
2860	65.3575
2856	65.2809
2852	65.0885
2848	64.9863
2844	65.0786
2840	65.1684
2836	65.2075
2832	65.2333
2828	65.2085
2824	65.1924
2820	65.292
2816	65.3849
2812	65.3699
2808	65.3645
2804	65.345
2800	65.2689
2796	65.2387
2792	65.3032
2788	65.3519
2784	65.2942
2780	65.2576
2776	65.323
2772	65.3664
2768	65.325
2764	65.3278
2760	65.4014
2756	65.4036
2752	65.3374
2748	65.3373
2744	65.3985
2740	65.375
2736	65.2984
2732	65.2793
2728	65.3434
2724	65.4387
2720	65.4563
2716	65.4656
2712	65.5149
2708	65.5046
2704	65.369
2700	65.2061
2696	65.2024
2692	65.3184
2688	65.432
2684	65.4749
2680	65.4083
2676	65.3699
2672	65.3979
2668	65.3531
2664	65.2657
2660	65.2789
2656	65.3335
2652	65.2783
2648	65.2503
2644	65.3515
2640	65.3773
2636	65.3283
2632	65.3354
2628	65.3278
2624	65.3103
2620	65.3333
2616	65.369
2612	65.3482
2608	65.25
2604	65.1947
2600	65.2213
2596	65.2429
2592	65.2801
2588	65.3171
2584	65.3109
2580	65.396
2576	65.4764
2572	65.3649
2568	65.2432
2564	65.2556
2560	65.2963
2556	65.306
2552	65.3281
2548	65.3434
2544	65.2668
2540	65.1601
2536	65.2051
2532	65.3237
2528	65.3116
2524	65.3087
2520	65.4312
2516	65.4884
2512	65.4226
2508	65.3772
2504	65.3696
2500	65.3088
2496	65.2593
2492	65.3085
2488	65.3915
2484	65.3812
2480	65.3152
2476	65.2919
2472	65.2888
2468	65.3086
2464	65.3261
2460	65.325
2456	65.3336
2452	65.3378
2448	65.3491
2444	65.4156
2440	65.489
2436	65.4616
2432	65.4185
2428	65.4535
2424	65.382
2420	65.0845
2416	64.8524
2412	65.0182
2408	65.3762
2404	65.5236
2400	65.4403
2396	65.3355
2392	65.3149
2388	65.3474
2384	65.4111
2380	65.4091
2376	65.295
2372	65.2521
2368	65.3214
2364	65.3328
2360	65.2651
2356	65.24
2352	65.2893
2348	65.3406
2344	65.3644
2340	65.3842
2336	65.3831
2332	65.3677
2328	65.363
2324	65.3103
2320	65.2946
2316	65.3649
2312	65.3579
2308	65.3191
2304	65.3239
2300	65.316
2296	65.2994
2292	65.3047
2288	65.3569
2284	65.4115
2280	65.4026
2276	65.3378
2272	65.2814
2268	65.2883
2264	65.3414
2260	65.3418
2256	65.2817
2252	65.285
2248	65.3592
2244	65.423
2240	65.4501
2236	65.4417
2232	65.4581
2228	65.5611
2224	65.6079
2220	65.502
2216	65.4208
2212	65.4296
2208	65.3799
2204	65.2781
2200	65.2689
2196	65.316
2192	65.3379
2188	65.3282
2184	65.2932
2180	65.2677
2176	65.3069
2172	65.395
2168	65.3634
2164	65.1893
2160	65.1188
2156	65.2171
2152	65.2998
2148	65.3147
2144	65.286
2140	65.2191
2136	65.1894
2132	65.2727
2128	65.377
2124	65.3866
2120	65.3864
2116	65.4255
2112	65.4472
2108	65.4692
2104	65.4916
2100	65.4777
2096	65.4474
2092	65.4111
2088	65.4252
2084	65.5402
2080	65.6675
2076	65.6425
2072	65.4851
2068	65.2992
2064	65.1971
2060	65.4057
2056	65.6963
2052	65.6892
2048	65.5695
2044	65.5277
2040	65.4532
2036	65.3187
2032	65.247
2028	65.2827
2024	65.3141
2020	65.3269
2016	65.4353
2012	65.5283
2008	65.5082
2004	65.4706
2000	65.414
1996	65.3458
1992	65.2762
1988	65.2072
1984	65.2187
1980	65.2896
1976	65.3394
1972	65.3748
1968	65.3643
1964	65.3378
1960	65.3992
1956	65.4186
1952	65.3612
1948	65.373
1944	65.358
1940	65.261
1936	65.2352
1932	65.3054
1928	65.402
1924	65.484
1920	65.481
1916	65.4094
1912	65.3704
1908	65.4142
1904	65.4384
1900	65.3851
1896	65.4069
1892	65.4577
1888	65.3779
1884	65.2638
1880	65.2907
1876	65.4297
1872	65.5069
1868	65.4939
1864	65.4679
1860	65.4307
1856	65.3939
1852	65.3623
1848	65.3358
1844	65.3491
1840	65.3698
1836	65.3612
1832	65.3662
1828	65.4467
1824	65.5418
1820	65.6012
1816	65.6049
1812	65.5023
1808	65.3561
1804	65.3076
1800	65.329
1796	65.2662
1792	65.1618
1788	65.1644
1784	65.2909
1780	65.3587
1776	65.3058
1772	65.3002
1768	65.3694
1764	65.4181
1760	65.3775
1756	65.3134
1752	65.3241
1748	65.2974
1744	65.2333
1740	65.2329
1736	65.2104
1732	65.1721
1728	65.187
1724	65.1563
1720	65.1411
1716	65.3459
1712	65.537
1708	65.434
1704	65.2533
1700	65.2551
1696	65.3828
1692	65.4237
1688	65.379
1684	65.3436
1680	65.3276
1676	65.3436
1672	65.3573
1668	65.3739
1664	65.4065
1660	65.4222
1656	65.4644
1652	65.4837
1648	65.3916
1644	65.2694
1640	65.159
1636	65.1295
1632	65.1824
1628	65.1475
1624	65.1213
1620	65.2328
1616	65.3062
1612	65.2769
1608	65.1851
1604	65.0897
1600	65.0807
1596	65.1019
1592	65.1532
1588	65.1936
1584	65.1098
1580	65.0276
1576	65.0666
1572	65.1312
1568	65.1798
1564	65.2004
1560	65.0903
1556	64.9807
1552	65.0648
1548	65.1367
1544	65.0982
1540	65.1151
1536	65.1635
1532	65.1562
1528	65.1565
1524	65.2587
1520	65.337
1516	65.2461
1512	65.1432
1508	65.1254
1504	65.153
1500	65.1966
1496	65.1865
1492	65.1805
1488	65.1965
1484	65.1887
1480	65.2059
1476	65.2387
1472	65.2318
1468	65.2294
1464	65.2454
1460	65.156
1456	64.9696
1452	64.8245
1448	64.9113
1444	65.1679
1440	65.3596
1436	65.4474
1432	65.4062
1428	65.306
1424	65.2515
1420	65.2904
1416	65.3564
1412	65.2906
1408	65.1636
1404	65.0756
1400	65.0551
1396	65.1368
1392	65.1573
1388	65.0853
1384	65.0796
1380	65.1071
1376	65.1325
1372	65.1373
1368	65.0535
1364	65.0101
1360	65.0942
1356	65.1107
1352	65.0174
1348	64.9864
1344	65.0926
1340	65.2808
1336	65.3764
1332	65.2952
1328	65.2086
1324	65.2016
1320	65.149
1316	65.0577
1312	65.0234
1308	65.079
1304	65.1834
1300	65.2272
1296	65.2224
1292	65.263
1288	65.2791
1284	65.2317
1280	65.221
1276	65.1762
1272	65.0791
1268	65.0744
1264	65.1337
1260	65.1562
1256	65.1099
1252	65.0694
1248	65.0872
1244	65.09
1240	65.0806
1236	65.0946
1232	65.0832
1228	65.0247
1224	64.9872
1220	64.9724
1216	64.9833
1212	65.1099
1208	65.2236
1204	65.1556
1200	65.0395
1196	65.0035
1192	64.9887
1188	64.9417
1184	64.9457
1180	65.008
1176	64.9535
1172	64.7865
1168	64.7168
1164	64.8416
1160	65.0159
1156	65.1249
1152	65.1662
1148	65.0762
1144	64.9688
1140	64.951
1136	64.9461
1132	65.0118
1128	65.1554
1124	65.1386
1120	64.9506
1116	64.8638
1112	64.8182
1108	64.7828
1104	64.9606
1100	65.0475
1096	64.8444
1092	64.7239
1088	64.7177
1084	64.7349
1080	64.8978
1076	64.9971
1072	64.8636
1068	64.7081
1064	64.6818
1060	64.6878
1056	64.6319
1052	64.6305
1048	64.7799
1044	64.8662
1040	64.8759
1036	64.9217
1032	64.8221
1028	64.5921
1024	64.39
1020	64.3016
1016	64.4537
1012	64.7284
1008	64.8322
1004	64.7781
1000	64.6257
996	 64.5329
992	 64.6508
988	 64.7709
984	 64.8928
980	 64.9378
976	 64.7089
972	 64.705
968	 64.8548
964	 64.6519
960	 64.786
956	 65.2177
952	 65.0865
948	 64.7255
944	 64.8318
940	 65.1901
936	 65.161
932	 64.9561
928	 64.9905
924	 65.0127
920	 64.8992
916	 64.6425
912	 64.4155
908	 64.5726
904	 64.9035
900	 65.0068
896	 64.8735
892	 64.7829
888	 64.8411
884	 64.8475
880	 64.6815
876	 64.5564
872	 64.6655
868	 64.7192
864	 64.5511
860	 64.4239
856	 64.4655
852	 64.577
848	 64.6765
844	 64.7495
840	 64.7944
836	 64.7624
832	 64.6506
828	 64.5692
824	 64.4984
820	 64.49
816	 64.567
812	 64.5741
808	 64.601
804	 64.6474
800	 64.4988
796	 64.1903
792	 64.0906
788	 64.2388
784	 64.2793
780	 64.2503
776	 64.3667
772	 64.4794
768	 64.4322
764	 64.3511
760	 64.4085
756	 64.5804
752	 64.5542
748	 64.2219
744	 63.8147
740	 63.4995
736	 63.4675
732	 63.651
728	 63.7276
724	 63.8098
720	 64.1129
716	 64.3095
712	 64.0933
708	 63.6367
704	 63.4181
700	 63.6517
696	 63.8841
692	 63.7892
688	 63.4939
684	 63.3391
680	 63.5091
676	 63.6041
672	 63.6309
668	 63.8236
664	 63.6559
660	 63.1875
656	 63.0886
652	 63.3549
648	 63.4872
644	 63.1741
640	 62.7473
636	 62.6347
632	 62.9025
628	 63.1743
624	 62.9855
620	 62.5614
616	 62.3852
612	 62.5362
608	 62.6245
604	 62.5505
600	 62.7021
596	 62.8797
592	 62.9491
588	 63.1897
584	 63.2873
580	 62.9719
576	 62.812
572	 63.1407
568	 63.29
564	 62.8983
560	 62.562
556	 62.6863
552	 62.9308
548	 62.7564
544	 62.2161
540	 61.9254
536	 62.0194
532	 62.1535
528	 62.3618
524	 62.3758
520	 61.9634
516	 61.7212
512	 61.8817
508	 62.1029
504	 62.0565
500	 61.9344
496	 62.1664
492	 62.2313
488	 61.7393
484	 61.5688
480	 61.836
476	 61.613
472	 60.7003
468	 59.8883
464	 59.6928
460	 59.7035
456	 60.4552
452	 62.2218
448	 62.5851
444	 60.7716
440	 59.3278
436	 58.6118
432	 56.1732
428	 53.3528
424	 54.3694
420	 58.3126
416	 59.121
412	 54.1586
408	 52.9184
404	 59.3968
400	 60.3275
396	 57.9756
392	 68.1951
388	 86.5793
384	 87.7568
380	 62.4405
376	 51.6585
372	 65.7361
370	 70.2437