File: Bakgrunnsmateriale/MATLAB/FTIR/ftir_data/subBb/Mapping_121/C-4040-8_t56_cm-1.asc
PE IR       SPECTRUM    SPECTRUM    ASCII       PEDS        1.60
  -1
C-1C6E~1.ASC
17/03/27
19:05:18.00
17/03/27
19:05:18.00
tln
$C-4040-8_t0056$<tbV0>[13.0,0.0,8.0,0.0,27,1,0]
370
64

2002,4.07
MIRTGS : RIGHTBACK : INTERNAL 2
MIR : ON : INTERNAL 2
OPTKBR

0.200000
8
8.000000
FILLER
RATIO
SPECTRUM
UNLOCKED 256

DOUBLE
64
COMBINED
1
0
0

1.000000
RATIO

1
0
TRUE
51149
0
LEFT NOT FITTED RIGHT NOT FITTED 0
NONE
NONE
15600
12
4.427000
51148
TRUE
1 0 8 72 0 0 0 0

15798

#HDR
-1
-1
#GR
CM-1
%T
2.38419e-05
0.0
5000
-1.000000
4631
8
92.2904
22.9496
#DATA
5000	64.7402
4996	65.0705
4992	65.1158
4988	65.213
4984	65.2668
4980	64.9521
4976	65.0067
4972	65.7038
4968	66.1034
4964	65.7579
4960	65.2008
4956	64.7233
4952	64.3358
4948	64.4063
4944	64.9488
4940	65.282
4936	65.053
4932	64.6966
4928	64.7731
4924	65.0014
4920	64.8151
4916	64.6631
4912	64.8266
4908	65.0962
4904	65.423
4900	65.4121
4896	65.1285
4892	65.0382
4888	64.9654
4884	64.7982
4880	64.938
4876	65.2983
4872	65.3934
4868	65.1936
4864	64.8138
4860	64.4069
4856	64.3055
4852	64.6361
4848	64.962
4844	64.7637
4840	64.4851
4836	64.6613
4832	64.9379
4828	65.0028
4824	64.9896
4820	65.0826
4816	65.1996
4812	65.0669
4808	64.9684
4804	65.1257
4800	65.1941
4796	65.2606
4792	65.2218
4788	64.9784
4784	64.9501
4780	65.0033
4776	64.8924
4772	64.8301
4768	64.8398
4764	64.6805
4760	64.3554
4756	64.21
4752	64.349
4748	64.5048
4744	64.5797
4740	64.5012
4736	64.3488
4732	64.2591
4728	64.1595
4724	64.2739
4720	64.5595
4716	64.7446
4712	64.9161
4708	64.9304
4704	64.6655
4700	64.4274
4696	64.4559
4692	64.6438
4688	64.7511
4684	64.7069
4680	64.5278
4676	64.39
4672	64.4362
4668	64.627
4664	64.7791
4660	64.5795
4656	64.2931
4652	64.2401
4648	64.3598
4644	64.4903
4640	64.4568
4636	64.4976
4632	64.7811
4628	64.9708
4624	64.8375
4620	64.689
4616	64.7367
4612	64.794
4608	64.7655
4604	64.7933
4600	64.8744
4596	64.8814
4592	64.8606
4588	64.9247
4584	64.9773
4580	64.839
4576	64.7367
4572	64.7924
4568	64.821
4564	64.8341
4560	64.8406
4556	64.773
4552	64.6229
4548	64.5881
4544	64.7323
4540	64.8521
4536	64.9525
4532	64.7819
4528	64.3972
4524	64.4658
4520	64.8888
4516	65.2415
4512	65.4356
4508	65.4481
4504	65.3772
4500	65.2606
4496	65.1004
4492	65.1598
4488	65.3905
4484	65.4258
4480	65.5298
4476	65.6846
4472	65.5282
4468	65.331
4464	65.3787
4460	65.596
4456	65.6716
4452	65.4857
4448	65.4424
4444	65.6269
4440	65.7091
4436	65.7544
4432	65.8347
4428	65.9217
4424	66.0415
4420	65.9238
4416	65.7407
4412	65.806
4408	65.9353
4404	66.2243
4400	66.4851
4396	66.564
4392	66.4667
4388	65.9672
4384	65.6386
4380	65.7862
4376	65.8076
4372	65.8383
4368	64.4676
4364	59.3972
4360	51.9526
4356	47.9672
4352	55.2686
4348	66.8144
4344	70.611
4340	69.0165
4336	67.0598
4332	66.5453
4328	66.5497
4324	66.4764
4320	66.4812
4316	66.1885
4312	65.8104
4308	65.6909
4304	65.6278
4300	65.7066
4296	66.0401
4292	66.1461
4288	66.0617
4284	66.0729
4280	66.0352
4276	65.9795
4272	65.8561
4268	65.5774
4264	65.6111
4260	65.9782
4256	65.9885
4252	65.7433
4248	65.632
4244	65.5749
4240	65.7182
4236	65.7493
4232	65.3821
4228	65.1668
4224	65.197
4220	65.2305
4216	65.3402
4212	65.4331
4208	65.3711
4204	65.1526
4200	65.0038
4196	65.092
4192	65.2923
4188	65.3321
4184	64.9683
4180	64.7109
4176	64.8931
4172	65.1112
4168	65.1929
4164	65.0823
4160	65.1288
4156	65.3462
4152	65.2837
4148	65.1682
4144	65.1238
4140	65.1129
4136	65.1443
4132	65.0432
4128	64.9319
4124	64.8906
4120	64.7665
4116	64.628
4112	64.5595
4108	64.5435
4104	64.6438
4100	64.8484
4096	64.9916
4092	65.0211
4088	65.0147
4084	64.9739
4080	65.0323
4076	65.1011
4072	64.9312
4068	64.7779
4064	64.7966
4060	64.8002
4056	64.7711
4052	64.8159
4048	64.8298
4044	64.8016
4040	64.8483
4036	64.8551
4032	64.7679
4028	64.6655
4024	64.7242
4020	64.9401
4016	65.0667
4012	65.0226
4008	64.9016
4004	64.8018
4000	64.7926
3996	64.8686
3992	64.889
3988	64.8351
3984	64.873
3980	64.9863
3976	64.9704
3972	64.8644
3968	64.8181
3964	64.8383
3960	64.8997
3956	64.9413
3952	65.0299
3948	65.2074
3944	65.2779
3940	65.249
3936	65.1957
3932	65.0537
3928	64.8246
3924	64.632
3920	64.6368
3916	64.7939
3912	64.9951
3908	65.0738
3904	64.9832
3900	64.9863
3896	65.1571
3892	65.2561
3888	65.1348
3884	65.0223
3880	65.1394
3876	65.3196
3872	65.44
3868	65.4758
3864	65.3507
3860	65.2594
3856	65.3328
3852	65.3869
3848	65.3471
3844	65.242
3840	65.1421
3836	65.0676
3832	64.9382
3828	64.8855
3824	65.0151
3820	65.1725
3816	65.2032
3812	65.1889
3808	65.2761
3804	65.3321
3800	65.2913
3796	65.311
3792	65.4102
3788	65.4756
3784	65.4731
3780	65.4726
3776	65.4123
3772	65.2061
3768	65.0624
3764	65.1334
3760	65.2223
3756	65.1762
3752	65.1174
3748	65.0982
3744	65.108
3740	65.1563
3736	65.179
3732	65.2554
3728	65.3706
3724	65.3814
3720	65.2846
3716	65.2062
3712	65.222
3708	65.1805
3704	65.028
3700	65.0052
3696	65.1497
3692	65.2105
3688	65.2168
3684	65.2403
3680	65.1996
3676	65.196
3672	65.2552
3668	65.2707
3664	65.2063
3660	65.1224
3656	65.1329
3652	65.166
3648	65.16
3644	65.2096
3640	65.2868
3636	65.2877
3632	65.166
3628	64.9889
3624	64.9628
3620	65.0827
3616	65.062
3612	64.9161
3608	64.8669
3604	64.8731
3600	64.8799
3596	64.8627
3592	64.8864
3588	65.0635
3584	65.2163
3580	65.2518
3576	65.2797
3572	65.3046
3568	65.3032
3564	65.2538
3560	65.152
3556	65.1163
3552	65.2172
3548	65.2737
3544	65.1654
3540	65.0715
3536	65.0882
3532	65.0845
3528	65.0676
3524	65.0997
3520	65.0536
3516	64.9432
3512	64.9158
3508	64.9409
3504	64.9474
3500	64.9559
3496	64.97
3492	64.9923
3488	65.0387
3484	65.0908
3480	65.1445
3476	65.1711
3472	65.1889
3468	65.1838
3464	65.0913
3460	65.0689
3456	65.1973
3452	65.3047
3448	65.2619
3444	65.1523
3440	65.1684
3436	65.2591
3432	65.2109
3428	65.1187
3424	65.1781
3420	65.2393
3416	65.1691
3412	65.0808
3408	65.0283
3404	65.0471
3400	65.2128
3396	65.3669
3392	65.3581
3388	65.2672
3384	65.2104
3380	65.25
3376	65.2386
3372	65.0896
3368	65.0001
3364	65.0471
3360	65.1261
3356	65.1471
3352	65.0911
3348	65.0607
3344	65.1337
3340	65.2651
3336	65.3064
3332	65.2597
3328	65.2123
3324	65.1788
3320	65.2557
3316	65.3019
3312	65.1958
3308	65.1036
3304	65.0497
3300	65.0317
3296	65.1199
3292	65.2142
3288	65.2482
3284	65.2801
3280	65.2594
3276	65.1545
3272	65.0438
3268	65.021
3264	65.0671
3260	65.1612
3256	65.2927
3252	65.3269
3248	65.2628
3244	65.2014
3240	65.1453
3236	65.1315
3232	65.2108
3228	65.1873
3224	65.0912
3220	65.1788
3216	65.2401
3212	65.1379
3208	65.0518
3204	65.054
3200	65.1043
3196	65.1107
3192	65.1171
3188	65.1663
3184	65.1351
3180	65.1171
3176	65.2124
3172	65.2336
3168	65.119
3164	64.9958
3160	64.99
3156	65.1004
3152	65.1938
3148	65.1922
3144	65.1654
3140	65.192
3136	65.2131
3132	65.1028
3128	64.8897
3124	64.7839
3120	64.7555
3116	64.7069
3112	64.8381
3108	65.1099
3104	65.2644
3100	65.2236
3096	65.1411
3092	65.241
3088	65.3357
3084	65.2011
3080	65.1045
3076	65.1696
3072	65.171
3068	65.1362
3064	65.1335
3060	65.126
3056	65.2277
3052	65.3717
3048	65.3551
3044	65.216
3040	65.1963
3036	65.3126
3032	65.3182
3028	65.2402
3024	65.2347
3020	65.2849
3016	65.3002
3012	65.2345
3008	65.1502
3004	65.102
3000	65.1259
2996	65.1691
2992	65.1628
2988	65.1436
2984	65.1061
2980	65.1057
2976	65.1582
2972	65.119
2968	65.0288
2964	65.0299
2960	65.1402
2956	65.202
2952	65.1156
2948	65.0515
2944	65.0601
2940	65.0721
2936	65.1035
2932	65.0269
2928	64.8882
2924	64.8926
2920	64.8497
2916	64.7985
2912	64.9458
2908	65.0789
2904	65.1165
2900	65.1294
2896	65.0832
2892	65.0563
2888	65.0831
2884	65.1227
2880	65.1271
2876	65.0898
2872	65.097
2868	65.1131
2864	65.1089
2860	65.1593
2856	65.1658
2852	65.0478
2848	65.0087
2844	65.0522
2840	65.0402
2836	65.0515
2832	65.0651
2828	65.0144
2824	64.9906
2820	65.0575
2816	65.0981
2812	65.0645
2808	65.0818
2804	65.1401
2800	65.1656
2796	65.152
2792	65.1138
2788	65.069
2784	65.0146
2780	65.0147
2776	65.0893
2772	65.1674
2768	65.2385
2764	65.2587
2760	65.2091
2756	65.1188
2752	65.0403
2748	65.0515
2744	65.1078
2740	65.132
2736	65.1101
2732	65.0762
2728	65.1006
2724	65.1681
2720	65.1494
2716	65.0678
2712	65.0814
2708	65.1484
2704	65.1392
2700	65.0914
2696	65.053
2692	65.0454
2688	65.1134
2684	65.1694
2680	65.1328
2676	65.0798
2672	65.1051
2668	65.1608
2664	65.2335
2660	65.3266
2656	65.3189
2652	65.2518
2648	65.2095
2644	65.1594
2640	65.1237
2636	65.1313
2632	65.1453
2628	65.147
2624	65.1713
2620	65.2168
2616	65.3048
2612	65.4126
2608	65.3864
2604	65.24
2600	65.1791
2596	65.2632
2592	65.3044
2588	65.2178
2584	65.204
2580	65.2972
2576	65.3034
2572	65.2747
2568	65.3123
2564	65.3157
2560	65.2659
2556	65.2555
2552	65.2777
2548	65.267
2544	65.2468
2540	65.2446
2536	65.2162
2532	65.1322
2528	65.0686
2524	65.1283
2520	65.3027
2516	65.4469
2512	65.4792
2508	65.455
2504	65.3398
2500	65.1878
2496	65.1238
2492	65.0939
2488	65.1069
2484	65.2134
2480	65.312
2476	65.3172
2472	65.2384
2468	65.2209
2464	65.3179
2460	65.3794
2456	65.3275
2452	65.2495
2448	65.2591
2444	65.2706
2440	65.2269
2436	65.2409
2432	65.3462
2428	65.4908
2424	65.5693
2420	65.629
2416	65.6914
2412	65.4912
2408	65.2742
2404	65.3788
2400	65.4638
2396	65.3904
2392	65.355
2388	65.3719
2384	65.3606
2380	65.3429
2376	65.2856
2372	65.2272
2368	65.2452
2364	65.2382
2360	65.2091
2356	65.2299
2352	65.2967
2348	65.3023
2344	65.2758
2340	65.3062
2336	65.2794
2332	65.222
2328	65.2315
2324	65.2584
2320	65.2425
2316	65.1957
2312	65.1828
2308	65.2562
2304	65.3322
2300	65.3163
2296	65.2681
2292	65.2002
2288	65.1261
2284	65.0739
2280	65.0645
2276	65.1793
2272	65.3371
2268	65.3891
2264	65.3522
2260	65.3035
2256	65.3235
2252	65.3686
2248	65.3706
2244	65.3528
2240	65.2961
2236	65.2338
2232	65.2178
2228	65.2263
2224	65.2223
2220	65.2302
2216	65.268
2212	65.2753
2208	65.2111
2204	65.1191
2200	65.0747
2196	65.1024
2192	65.1778
2188	65.2505
2184	65.2935
2180	65.3418
2176	65.3693
2172	65.2805
2168	65.1615
2164	65.1918
2160	65.2617
2156	65.2274
2152	65.2823
2148	65.4378
2144	65.4246
2140	65.2735
2136	65.2023
2132	65.2415
2128	65.2528
2124	65.2153
2120	65.2402
2116	65.288
2112	65.2697
2108	65.2248
2104	65.2631
2100	65.3343
2096	65.2998
2092	65.2865
2088	65.3794
2084	65.4468
2080	65.5517
2076	65.6325
2072	65.4174
2068	65.0954
2064	64.9689
2060	65.0586
2056	65.2185
2052	65.2779
2048	65.259
2044	65.2174
2040	65.2032
2036	65.2344
2032	65.2593
2028	65.2719
2024	65.2503
2020	65.1291
2016	65.0166
2012	65.0846
2008	65.1955
2004	65.232
2000	65.2198
1996	65.2031
1992	65.2543
1988	65.3041
1984	65.2983
1980	65.2834
1976	65.2972
1972	65.3257
1968	65.2783
1964	65.1825
1960	65.1624
1956	65.2156
1952	65.2593
1948	65.291
1944	65.2782
1940	65.2097
1936	65.2336
1932	65.3197
1928	65.3023
1924	65.2409
1920	65.2231
1916	65.186
1912	65.1571
1908	65.1998
1904	65.2922
1900	65.3715
1896	65.3804
1892	65.3455
1888	65.2728
1884	65.229
1880	65.2982
1876	65.3462
1872	65.252
1868	65.1438
1864	65.1481
1860	65.1976
1856	65.2267
1852	65.253
1848	65.2842
1844	65.2959
1840	65.2713
1836	65.2823
1832	65.3315
1828	65.3093
1824	65.2415
1820	65.2344
1816	65.2771
1812	65.3132
1808	65.3203
1804	65.298
1800	65.2582
1796	65.2479
1792	65.2501
1788	65.1763
1784	65.1322
1780	65.1816
1776	65.2244
1772	65.2401
1768	65.1927
1764	65.1351
1760	65.1811
1756	65.2298
1752	65.1939
1748	65.1275
1744	65.0492
1740	64.983
1736	64.9154
1732	64.8925
1728	64.9665
1724	65.0423
1720	65.0499
1716	65.0237
1712	65.0271
1708	65.0791
1704	65.1577
1700	65.2036
1696	65.2044
1692	65.1839
1688	65.1487
1684	65.1759
1680	65.2644
1676	65.3162
1672	65.3452
1668	65.3968
1664	65.4033
1660	65.2974
1656	65.1583
1652	65.1133
1648	65.1952
1644	65.3191
1640	65.3354
1636	65.2117
1632	65.1107
1628	65.1007
1624	65.1065
1620	65.0895
1616	65.0501
1612	65.0372
1608	65.1008
1604	65.1653
1600	65.1249
1596	65.0241
1592	64.9763
1588	65.0065
1584	65.0637
1580	65.154
1576	65.2225
1572	65.1849
1568	65.1068
1564	64.9852
1560	64.8931
1556	64.9968
1552	65.1365
1548	65.1513
1544	65.0954
1540	65.003
1536	64.9323
1532	64.9656
1528	65.0459
1524	65.0748
1520	65.0856
1516	65.0738
1512	65.0381
1508	65.054
1504	65.1162
1500	65.1916
1496	65.2563
1492	65.2551
1488	65.1749
1484	65.0493
1480	64.9846
1476	64.9729
1472	64.9809
1468	65.0874
1464	65.1998
1460	65.1659
1456	65.0181
1452	64.9074
1448	64.7707
1444	64.6336
1440	64.6992
1436	64.787
1432	64.7612
1428	64.806
1424	64.9017
1420	64.9413
1416	65.0309
1412	65.1365
1408	65.1864
1404	65.2357
1400	65.1774
1396	65.0522
1392	65.0197
1388	65.0593
1384	65.1385
1380	65.2041
1376	65.1967
1372	65.1329
1368	65.0783
1364	65.0464
1360	64.9696
1356	64.9027
1352	64.9163
1348	64.9218
1344	64.8495
1340	64.7893
1336	64.8559
1332	64.9827
1328	65.0709
1324	65.0482
1320	64.9409
1316	65.0017
1312	65.178
1308	65.1984
1304	65.1193
1300	65.0409
1296	65.0076
1292	65.0132
1288	65.0306
1284	65.0618
1280	65.0046
1276	64.8961
1272	64.826
1268	64.8338
1264	64.9281
1260	64.9839
1256	65.0039
1252	65.0829
1248	65.1367
1244	65.1109
1240	65.0144
1236	64.869
1232	64.8045
1228	64.8692
1224	64.8811
1220	64.8025
1216	64.8389
1212	64.8986
1208	64.8584
1204	64.7967
1200	64.7372
1196	64.7588
1192	64.9514
1188	65.1418
1184	65.0863
1180	64.9505
1176	64.8786
1172	64.8149
1168	64.814
1164	64.8713
1160	64.9133
1156	64.8279
1152	64.7187
1148	64.8538
1144	64.9568
1140	64.6716
1136	64.4201
1132	64.531
1128	64.6054
1124	64.4296
1120	64.3239
1116	64.4366
1112	64.5854
1108	64.7627
1104	65.0905
1100	65.1748
1096	64.7524
1092	64.6282
1088	65.0383
1084	65.2006
1080	65.031
1076	64.9026
1072	64.9168
1068	65.0223
1064	65.1112
1060	65.0814
1056	64.8536
1052	64.6516
1048	64.6173
1044	64.5889
1040	64.5888
1036	64.5902
1032	64.4757
1028	64.3979
1024	64.4924
1020	64.5848
1016	64.5964
1012	64.7184
1008	64.7956
1004	64.6488
1000	64.5699
996	 64.5194
992	 64.4495
988	 64.4995
984	 64.5231
980	 64.5134
976	 64.4953
972	 64.4332
968	 64.4224
964	 64.4849
960	 64.5164
956	 64.5603
952	 64.6217
948	 64.5638
944	 64.3979
940	 64.3042
936	 64.3831
932	 64.5185
928	 64.5397
924	 64.4516
920	 64.3929
916	 64.3727
912	 64.3662
908	 64.3364
904	 64.1847
900	 64.006
896	 63.9663
892	 64.0195
888	 64.1007
884	 64.1914
880	 64.1907
876	 64.1549
872	 64.1642
868	 64.1359
864	 64.1762
860	 64.2472
856	 64.2255
852	 64.252
848	 64.2282
844	 64.1661
840	 64.275
836	 64.2503
832	 63.9892
828	 63.8563
824	 63.8832
820	 63.9322
816	 63.9911
812	 64.0434
808	 64.0196
804	 63.939
800	 64.0149
796	 64.1073
792	 63.8214
788	 63.5557
784	 63.7276
780	 63.9195
776	 63.9189
772	 63.9182
768	 63.9216
764	 63.8913
760	 63.6616
756	 63.2498
752	 63.3528
748	 63.6566
744	 63.3942
740	 63.0955
736	 63.028
732	 62.9774
728	 62.9639
724	 62.9462
720	 62.9757
716	 63.1427
712	 63.2695
708	 63.2488
704	 63.1538
700	 62.9493
696	 62.8303
692	 62.8072
688	 62.6479
684	 62.4961
680	 62.4468
676	 62.5581
672	 62.5564
668	 62.195
664	 62.1568
660	 62.6473
656	 62.9181
652	 62.7284
648	 62.3645
644	 62.1127
640	 62.0528
636	 61.9674
632	 62.0326
628	 62.3548
624	 62.518
620	 62.5185
616	 62.5294
612	 62.2818
608	 61.7247
604	 61.3554
600	 61.2747
596	 61.267
592	 61.2442
588	 61.1402
584	 61.1122
580	 61.1216
576	 61.1159
572	 61.2395
568	 61.3459
564	 61.3948
560	 61.3279
556	 61.0047
552	 60.7495
548	 60.9251
544	 61.0588
540	 60.7742
536	 60.6939
532	 60.8345
528	 60.8593
524	 60.771
520	 60.3201
516	 60.0225
512	 60.501
508	 60.7387
504	 60.1893
500	 59.7476
496	 59.5617
492	 59.2156
488	 58.7296
484	 58.4146
480	 58.4886
476	 58.6715
472	 58.5488
468	 58.0385
464	 57.0595
460	 56.1569
456	 57.1018
452	 58.3465
448	 57.944
444	 58.883
440	 59.8715
436	 58.8606
432	 58.2316
428	 57.383
424	 57.7792
420	 61.6521
416	 64.5573
412	 65.6956
408	 67.1633
404	 65.9476
400	 60.9903
396	 50.0488
392	 30.1943
388	 23.3041
384	 29.8731
380	 47.2581
376	 83.511
372	 88.0526
370	 75.9145