File: Bakgrunnsmateriale/MATLAB/FTIR/ftir_data/subBb/Mapping_121/C-4040-8_t43.asc
PE IR       SPECTRUM    SPECTRUM    ASCII       PEDS        1.60
  -1
C-A536~1.ASC
17/03/27
17:57:44.00
17/03/27
17:58:10.00
tln
$C-4040-8_t0043$<tbV0>[-10.4,-5.2,8.0,0.0,27,1,0]
27.028
64

2002,4.07
MIRTGS : RIGHTBACK : INTERNAL 2
MIR : ON : INTERNAL 2
OPTKBR

0.200000
8
8.000000
FILLER
RATIO
SPECTRUM
UNLOCKED 256

DOUBLE
64
COMBINED
1
0
0

0.002000
RATIO

1
0
TRUE
51149
0
LEFT NOT FITTED RIGHT NOT FITTED 0
NONE
NONE
15600
12
4.427000
51148
TRUE
1 0 8 72 0 0 0 0

15798

#HDR
-1
-1
#GR
µM
%T
2.38419e-05
0.0
2.000000
0.002000
12515
8
76.0595
40.9366
#DATA
2.000000	 64.6763
2.018000	 64.2637
2.036000	 64.3283
2.054000	 64.994
2.072000	 65.0979
2.090000	 64.7004
2.108000	 65.0374
2.126000	 64.9107
2.144000	 64.6891
2.162000	 64.8127
2.180000	 64.9805
2.198000	 65.3693
2.216000	 65.0578
2.234000	 64.6553
2.252000	 64.9245
2.270000	 65.0211
2.288000	 66.4316
2.306000	 65.7367
2.324000	 65.3634
2.342000	 64.9743
2.360000	 64.983
2.378000	 65.0698
2.396000	 65.1354
2.414000	 65.5398
2.432000	 65.1522
2.450000	 65.2612
2.468000	 64.914
2.486000	 65.1171
2.504000	 64.8345
2.522000	 64.9371
2.540000	 64.9871
2.558000	 65.1232
2.576000	 65.3734
2.594000	 65.2258
2.612000	 65.0306
2.630000	 65.1154
2.648000	 65.0856
2.666000	 65.2302
2.684000	 65.2513
2.702000	 65.1615
2.720000	 65.0623
2.738000	 65.1293
2.756000	 65.199
2.774000	 65.082
2.792000	 65.2885
2.810000	 64.9319
2.828000	 65.0313
2.846000	 65.2422
2.864000	 65.2967
2.882000	 65.3312
2.900000	 65.1843
2.918000	 65.1618
2.936000	 64.9721
2.954000	 65.114
2.972000	 65.064
2.990000	 65.0922
3.008000	 65.0952
3.026000	 65.1895
3.044000	 65.1606
3.062000	 65.3061
3.080000	 65.2276
3.098000	 64.9009
3.116000	 65.0592
3.134000	 65.2714
3.152000	 65.1745
3.170000	 64.9722
3.188000	 65.2421
3.206000	 65.2369
3.224000	 65.1119
3.242000	 65.0657
3.260000	 65.2542
3.278000	 65.0453
3.296000	 65.4747
3.314000	 65.1032
3.332000	 64.9887
3.350000	 65.1385
3.368000	 65.2383
3.386000	 65.1053
3.404000	 65.0234
3.422000	 64.7204
3.440000	 65.0482
3.458000	 65.1572
3.476000	 65.1354
3.494000	 65.0608
3.512000	 65.1711
3.530000	 65.1556
3.548000	 65.2532
3.566000	 65.3975
3.584000	 65.398
3.602000	 65.2129
3.620000	 65.2291
3.638000	 65.4603
3.656000	 65.3301
3.674000	 65.2397
3.692000	 65.2364
3.710000	 65.2277
3.728000	 65.2262
3.746000	 65.1869
3.764000	 65.1736
3.782000	 65.1208
3.800000	 65.1869
3.818000	 65.2445
3.836000	 65.2855
3.854000	 65.2536
3.872000	 65.2293
3.890000	 65.367
3.908000	 65.1794
3.926000	 65.2801
3.944000	 65.2372
3.962000	 65.4758
3.980000	 65.1658
3.998000	 65.4305
4.016000	 65.0599
4.034000	 65.2471
4.052000	 65.0144
4.070000	 65.253
4.088000	 65.255
4.106000	 64.9078
4.124000	 64.8264
4.141999	 65.436
4.160000	 65.1175
4.178000	 65.3533
4.196000	 65.3338
4.214000	 65.265
4.232000	 65.3983
4.250000	 65.116
4.268000	 65.2463
4.286000	 65.2705
4.304000	 65.191
4.322000	 65.3656
4.340000	 65.3146
4.358000	 65.2667
4.375999	 65.3612
4.394000	 65.2569
4.412000	 65.2696
4.430000	 65.2137
4.448000	 65.2178
4.466000	 65.3005
4.484000	 65.3288
4.502000	 65.1205
4.520000	 65.1751
4.538000	 65.3113
4.556000	 65.315
4.574000	 65.4269
4.592000	 65.399
4.609999	 65.2508
4.628000	 65.2695
4.646000	 65.2474
4.664000	 65.2823
4.682000	 65.3475
4.700000	 65.3765
4.718000	 65.3211
4.736000	 65.2865
4.754000	 65.244
4.772000	 65.2036
4.790000	 65.4203
4.808000	 65.2981
4.826000	 65.1114
4.843999	 65.3675
4.862000	 65.269
4.880000	 65.046
4.898000	 65.2085
4.916000	 65.3028
4.934000	 65.4195
4.952000	 65.3368
4.970000	 65.3296
4.988000	 65.3235
5.006000	 65.4044
5.024000	 65.3598
5.042000	 65.3132
5.060000	 65.2593
5.077999	 65.2294
5.096000	 65.3069
5.114000	 65.3299
5.132000	 65.2159
5.150000	 65.1455
5.168000	 65.2098
5.186000	 65.3372
5.204000	 65.3023
5.222000	 65.3208
5.240000	 65.2904
5.258000	 65.2605
5.276000	 65.3063
5.294000	 65.2158
5.312000	 65.1895
5.330000	 65.2354
5.348000	 65.228
5.366000	 65.227
5.384000	 65.2562
5.402000	 65.2108
5.420000	 65.299
5.438000	 65.3434
5.456000	 65.3499
5.474000	 65.2904
5.492000	 65.2963
5.510000	 65.2656
5.528000	 65.2135
5.546000	 65.1684
5.564000	 65.2487
5.582000	 65.249
5.600000	 65.3146
5.618000	 65.2882
5.636000	 65.2942
5.654000	 65.228
5.672000	 65.23
5.690000	 65.2413
5.708000	 65.2386
5.726000	 65.188
5.744000	 65.1529
5.762000	 65.1163
5.780000	 65.0041
5.798000	 64.9861
5.816000	 65.0263
5.834000	 65.1018
5.852000	 65.2453
5.870000	 65.372
5.888000	 65.2542
5.906000	 65.1598
5.923999	 65.2578
5.942000	 65.2441
5.960000	 65.1431
5.978000	 65.119
5.996000	 65.1521
6.014000	 65.1559
6.032000	 65.1438
6.050000	 65.1672
6.068000	 65.158
6.086000	 65.1715
6.104000	 65.1887
6.122000	 65.1881
6.140000	 65.1755
6.158000	 65.1324
6.176000	 65.0881
6.194000	 65.0647
6.212000	 65.0976
6.230000	 65.0438
6.248000	 64.968
6.266000	 65.1058
6.284000	 65.1974
6.302000	 65.1362
6.320000	 65.1041
6.338000	 65.0776
6.356000	 65.0687
6.374000	 65.1045
6.392000	 65.0885
6.410000	 65.0673
6.428000	 65.0893
6.446000	 65.099
6.464000	 65.116
6.482000	 65.0997
6.500000	 65.072
6.518000	 65.1301
6.536000	 65.2061
6.554000	 65.2527
6.572000	 65.268
6.590000	 65.2601
6.608000	 65.2909
6.626000	 65.3439
6.644000	 65.3218
6.662000	 65.2186
6.680000	 65.1756
6.698000	 65.2378
6.716000	 65.2886
6.734000	 65.3125
6.752000	 65.2636
6.770000	 65.1017
6.788000	 64.9382
6.806000	 64.8908
6.824000	 64.9617
6.842000	 65.1099
6.860000	 65.1604
6.878000	 65.0221
6.896000	 65.0125
6.914000	 65.1832
6.932000	 65.2068
6.950000	 65.1313
6.968000	 65.1174
6.986000	 65.0744
7.004000	 65.0224
7.022000	 65.0624
7.040000	 65.1255
7.058000	 65.2003
7.076000	 65.2725
7.094000	 65.2065
7.112000	 65.061
7.130000	 65.0185
7.148000	 65.0848
7.166000	 65.1714
7.184000	 65.2044
7.202000	 65.1553
7.220000	 65.0867
7.238000	 65.0861
7.256000	 65.149
7.274000	 65.1668
7.292000	 65.0872
7.310000	 65.0041
7.328000	 64.9998
7.346000	 65.0482
7.364000	 65.1043
7.382000	 65.123
7.400000	 65.0555
7.418000	 64.9361
7.436000	 64.8778
7.454000	 64.9456
7.472000	 65.0577
7.490000	 65.0698
7.508000	 64.9892
7.526000	 64.9592
7.544000	 65.014
7.562000	 65.0727
7.580000	 65.1103
7.598000	 65.1451
7.616000	 65.1675
7.634000	 65.169
7.652000	 65.1499
7.670000	 65.1063
7.688000	 65.0488
7.706000	 65.0069
7.724000	 65.0055
7.742000	 65.0233
7.760000	 65.01
7.778000	 64.9646
7.796000	 64.942
7.814000	 64.9625
7.832000	 64.9724
7.850000	 64.9348
7.868000	 64.8979
7.886000	 64.9234
7.904000	 64.9965
7.922000	 65.0576
7.940000	 65.0718
7.958000	 65.0384
7.976000	 64.9898
7.994000	 64.9733
8.012000	 64.9973
8.030000	 65.0241
8.048000	 65.032
8.065999	 65.0356
8.084000	 65.0502
8.102000	 65.0809
8.120000	 65.1153
8.138000	 65.1172
8.155999	 65.07
8.173999	 65.0234
8.192000	 65.0391
8.210000	 65.1049
8.228000	 65.1513
8.246000	 65.1295
8.263999	 65.0451
8.282000	 64.952
8.300000	 64.9172
8.318000	 64.964
8.336000	 65.0513
8.353999	 65.1147
8.372000	 65.1165
8.390000	 65.0498
8.408000	 64.9245
8.426000	 64.7743
8.443999	 64.659
8.462000	 64.6246
8.480000	 64.6591
8.498000	 64.7094
8.516000	 64.7347
8.533999	 64.7321
8.552000	 64.7186
8.570000	 64.7035
8.588000	 64.675
8.606000	 64.6172
8.624000	 64.5508
8.641999	 64.5405
8.660000	 64.6244
8.678000	 64.748
8.696000	 64.8122
8.714000	 64.7937
8.731999	 64.7746
8.750000	 64.8371
8.768000	 64.9628
8.786000	 65.0637
8.804000	 65.0821
8.821999	 65.0363
8.840000	 64.9775
8.858000	 64.9275
8.876000	 64.8678
8.894000	 64.7781
8.911999	 64.6757
8.930000	 64.6091
8.948000	 64.6007
8.966000	 64.6141
8.984000	 64.601
9.001999	 64.5735
9.020000	 64.5931
9.038000	 64.6906
9.056000	 64.8291
9.074000	 64.9483
9.092000	 65.0239
9.109999	 65.0654
9.128000	 65.0778
9.146000	 65.0554
9.164000	 65.0105
9.182000	 64.9735
9.199999	 64.9631
9.218000	 64.9642
9.236000	 64.9453
9.254000	 64.8936
9.272000	 64.8284
9.289999	 64.7801
9.308000	 64.7543
9.326000	 64.7279
9.344000	 64.6837
9.362000	 64.6374
9.379999	 64.6278
9.398000	 64.6743
9.416000	 64.752
9.434000	 64.814
9.452000	 64.838
9.469999	 64.8455
9.488000	 64.8767
9.506000	 64.9483
9.524000	 65.0385
9.542000	 65.1058
9.560000	 65.1181
9.577999	 65.0684
9.596000	 64.97
9.614000	 64.8494
9.632000	 64.7387
9.650000	 64.6645
9.667999	 64.6343
9.686000	 64.6355
9.704000	 64.649
9.722000	 64.6689
9.740000	 64.7079
9.757999	 64.7843
9.776000	 64.8986
9.794000	 65.0189
9.812000	 65.0928
9.830000	 65.0786
9.847999	 64.9712
9.866000	 64.8025
9.884000	 64.6196
9.902000	 64.4612
9.920000	 64.3477
9.937999	 64.2846
9.956000	 64.2664
9.974000	 64.2777
9.992000	 64.2919
10.01	64.2813
10.028	64.2371
10.046	64.1828
10.064	64.1668
10.082	64.2309
10.1	64.3783
10.118	64.5602
10.136	64.7005
10.154	64.7396
10.172	64.6674
10.19	64.5307
10.208	64.4048
10.226	64.3501
10.244	64.3859
10.262	64.4835
10.28	64.5904
10.298	64.66
10.316	64.6702
10.334	64.6306
10.352	64.5683
10.37	64.5129
10.388	64.4826
10.406	64.4837
10.424	64.5157
10.442	64.5742
10.46	64.6503
10.478	64.7273
10.496	64.7833
10.514	64.8027
10.532	64.7843
10.55	64.7416
10.568	64.6932
10.586	64.6509
10.604	64.6124
10.622	64.5672
10.64	64.5108
10.658	64.4505
10.676	64.4042
10.694	64.3865
10.712	64.3997
10.73	64.431
10.748	64.4615
10.766	64.4772
10.784	64.4749
10.802	64.4622
10.82	64.4506
10.838	64.4495
10.856	64.4622
10.874	64.4864
10.892	64.5166
10.91	64.5458
10.928	64.5678
10.946	64.5794
10.964	64.5826
10.982	64.5832
11	64.5881
11.018	64.6019
11.036	64.6225
11.054	64.6421
11.072	64.6512
11.09	64.6432
11.108	64.6184
11.126	64.5852
11.144	64.5565
11.162	64.5453
11.18	64.5586
11.198	64.5944
11.216	64.6422
11.234	64.6859
11.252	64.7081
11.27	64.6979
11.288	64.6541
11.306	64.5868
11.324	64.5167
11.342	64.4673
11.36	64.4555
11.378	64.4842
11.396	64.5398
11.414	64.596
11.432	64.6255
11.45	64.612
11.468	64.5557
11.486	64.4726
11.504	64.3869
11.522	64.322
11.54	64.29
11.558	64.2909
11.576	64.3132
11.594	64.3414
11.612	64.3613
11.63	64.366
11.648	64.3578
11.666	64.3447
11.684	64.3376
11.702	64.345
11.72	64.3699
11.738	64.409
11.756	64.4539
11.774	64.4942
11.792	64.5213
11.81	64.531
11.828	64.5243
11.846	64.5062
11.864	64.4837
11.882	64.4632
11.9	64.4492
11.918	64.4438
11.936	64.4468
11.954	64.4558
11.972	64.4668
11.99	64.475
12.008	64.4758
12.026	64.4652
12.044	64.4409
12.062	64.4031
12.08	64.3546
12.098	64.2997
12.116	64.2432
12.134	64.189
12.152	64.1399
12.17	64.0977
12.188	64.0639
12.206	64.0402
12.224	64.0282
12.242	64.0288
12.26	64.0411
12.278	64.0616
12.296	64.085
12.314	64.1052
12.332	64.1171
12.35	64.1181
12.368	64.1084
12.386	64.0915
12.404	64.0726
12.422	64.0575
12.44	64.05
12.458	64.0521
12.476	64.0632
12.494	64.0814
12.512	64.1035
12.53	64.1276
12.548	64.1527
12.566	64.1795
12.584	64.2088
12.602	64.2409
12.62	64.2755
12.638	64.3113
12.656	64.3462
12.674	64.3784
12.692	64.4066
12.71	64.4308
12.728	64.4514
12.746	64.4688
12.764	64.4826
12.782	64.4913
12.8	64.4917
12.818	64.4799
12.836	64.4522
12.854	64.406
12.872	64.3417
12.89	64.2626
12.908	64.1741
12.926	64.0843
12.944	64.0023
12.962	63.9366
12.98	63.8939
12.998	63.8778
13.016	63.8882
13.034	63.9207
13.052	63.9675
13.07	64.0183
13.088	64.063
13.106	64.0933
13.124	64.1035
13.142	64.0918
13.16	64.0604
13.178	64.0152
13.196	63.9631
13.214	63.9121
13.232	63.8693
13.25	63.8405
13.268	63.8298
13.286	63.8401
13.304	63.8732
13.322	63.9302
13.34	64.0102
13.358	64.1109
13.376	64.2271
13.394	64.3518
13.412	64.4763
13.43	64.5911
13.448	64.688
13.466	64.761
13.484	64.8075
13.502	64.8269
13.52	64.8208
13.538	64.7923
13.556	64.7445
13.574	64.6799
13.592	64.6
13.61	64.5068
13.628	64.4021
13.646	64.2895
13.664	64.1736
13.682	64.0601
13.7	63.9549
13.718	63.8625
13.736	63.7858
13.754	63.7242
13.772	63.6756
13.79	63.636
13.808	63.6022
13.826	63.571
13.844	63.5418
13.862	63.516
13.88	63.4966
13.898	63.4867
13.916	63.4888
13.934	63.504
13.952	63.5317
13.97	63.569
13.988	63.6116
14.006	63.6547
14.024	63.6942
14.042	63.727
14.06	63.7515
14.078	63.7677
14.096	63.7767
14.114	63.7798
14.132	63.7789
14.15	63.7749
14.168	63.7683
14.186	63.7593
14.204	63.7482
14.222	63.7354
14.24	63.7212
14.258	63.7057
14.276	63.6895
14.294	63.673
14.312	63.6556
14.33	63.636
14.348	63.6121
14.366	63.582
14.384	63.5439
14.402	63.4972
14.42	63.4427
14.438	63.3827
14.456	63.3205
14.474	63.2606
14.492	63.2073
14.51	63.1649
14.528	63.1355
14.546	63.1197
14.564	63.1164
14.582	63.1231
14.6	63.1362
14.618	63.1517
14.636	63.1657
14.654	63.1759
14.672	63.181
14.69	63.1811
14.708	63.1774
14.726	63.1721
14.744	63.1687
14.762	63.1703
14.78	63.1795
14.798	63.1988
14.816	63.2294
14.834	63.2715
14.852	63.3241
14.87	63.3843
14.888	63.4482
14.906	63.5109
14.924	63.5665
14.942	63.6085
14.96	63.6316
14.978	63.632
14.996	63.608
15.014	63.56
15.032	63.4912
15.05	63.4076
15.068	63.3164
15.086	63.2248
15.104	63.1404
15.122	63.07
15.14	63.0174
15.158	62.9838
15.176	62.9686
15.194	62.9691
15.212	62.9799
15.23	62.9961
15.248	63.0131
15.266	63.0272
15.284	63.0355
15.302	63.0383
15.32	63.037
15.338	63.034
15.356	63.0327
15.374	63.0368
15.392	63.0479
15.41	63.0673
15.428	63.0945
15.446	63.1268
15.464	63.1606
15.482	63.1923
15.5	63.2171
15.518	63.2306
15.536	63.2301
15.554	63.2143
15.572	63.1827
15.59	63.1371
15.608	63.0801
15.626	63.0144
15.644	62.9438
15.662	62.872
15.68	62.8013
15.698	62.7336
15.716	62.6699
15.734	62.6103
15.752	62.5549
15.77	62.5034
15.788	62.4554
15.806	62.4112
15.824	62.3712
15.842	62.3364
15.86	62.3089
15.878	62.2899
15.896	62.2808
15.914	62.283
15.932	62.2965
15.95	62.3208
15.968	62.3547
15.986	62.3954
16.004	62.4407
16.022	62.4878
16.04	62.5328
16.058	62.5733
16.076	62.6075
16.094	62.6336
16.112	62.6515
16.13	62.6614
16.148	62.6641
16.166	62.6615
16.184	62.6551
16.202	62.6465
16.22	62.6379
16.238	62.6305
16.256	62.6253
16.274	62.6238
16.292	62.6266
16.31	62.6346
16.328	62.6488
16.346	62.6702
16.364	62.6995
16.382	62.7378
16.4	62.7855
16.418	62.8428
16.436	62.9092
16.454	62.9832
16.472	63.0635
16.49	63.1466
16.508	63.2288
16.526	63.3071
16.544	63.3759
16.562	63.4318
16.58	63.4717
16.598	63.4922
16.616	63.4925
16.634	63.4716
16.652	63.4313
16.67	63.3738
16.688	63.3016
16.706	63.2201
16.724	63.1323
16.742	63.0425
16.76	62.9553
16.778	62.8726
16.796	62.7976
16.814	62.7315
16.832	62.6752
16.85	62.6286
16.868	62.591
16.886	62.5619
16.904	62.5394
16.922	62.5225
16.94	62.51
16.958	62.5007
16.976	62.4941
16.994	62.4889
17.012	62.4851
17.03	62.4825
17.048	62.481
17.066	62.4808
17.084	62.4821
17.102	62.485
17.12	62.4895
17.138	62.4955
17.156	62.5027
17.174	62.5109
17.192	62.5192
17.21	62.5273
17.228	62.5342
17.246	62.5395
17.264	62.5428
17.282	62.5438
17.3	62.5424
17.318	62.5389
17.336	62.5337
17.354	62.5271
17.372	62.5202
17.39	62.5135
17.408	62.508
17.426	62.5043
17.444	62.5028
17.462	62.5037
17.48	62.5066
17.498	62.5109
17.516	62.5154
17.534	62.5192
17.552	62.5201
17.57	62.5174
17.588	62.5089
17.606	62.4942
17.624	62.4722
17.642	62.4432
17.66	62.4072
17.678	62.3662
17.696	62.3207
17.714	62.2736
17.732	62.2265
17.75	62.1812
17.768	62.1403
17.786	62.1048
17.804	62.0764
17.822	62.0555
17.84	62.0428
17.858	62.0377
17.876	62.0403
17.894	62.049
17.912	62.0636
17.93	62.0821
17.948	62.104
17.966	62.1272
17.984	62.1512
18.002	62.1746
18.02	62.1964
18.038	62.2159
18.056	62.2321
18.074	62.2445
18.092	62.2525
18.11	62.2558
18.128	62.2542
18.146	62.2479
18.164	62.2372
18.182	62.2225
18.2	62.2045
18.218	62.1846
18.236	62.1633
18.254	62.1428
18.272	62.1233
18.29	62.1076
18.308	62.096
18.326	62.0902
18.344	62.0903
18.362	62.0971
18.38	62.11
18.398	62.1285
18.416	62.1513
18.434	62.1771
18.452	62.2037
18.47	62.2297
18.488	62.2524
18.506	62.2706
18.524	62.282
18.542	62.286
18.56	62.2816
18.578	62.2685
18.596	62.2477
18.614	62.2193
18.632	62.1858
18.65	62.1475
18.668	62.1079
18.686	62.0674
18.704	62.0294
18.722	61.9941
18.74	61.9641
18.758	61.9391
18.776	61.9202
18.794	61.9067
18.812	61.8981
18.83	61.8936
18.848	61.8916
18.866	61.8909
18.884	61.8897
18.902	61.8871
18.92	61.8815
18.938	61.8725
18.956	61.859
18.974	61.8415
18.992	61.8199
19.01	61.795
19.028	61.7676
19.046	61.739
19.064	61.711
19.082	61.6843
19.1	61.6608
19.118	61.6411
19.136	61.6267
19.154	61.6176
19.172	61.6149
19.19	61.6184
19.208	61.6285
19.226	61.6447
19.244	61.6665
19.262	61.6938
19.28	61.7254
19.298	61.7612
19.316	61.8002
19.334	61.8424
19.352	61.8866
19.37	61.9331
19.388	61.9811
19.406	62.0306
19.424	62.0809
19.442	62.132
19.46	62.1827
19.478	62.2331
19.496	62.2816
19.514	62.328
19.532	62.3708
19.55	62.4093
19.568	62.4427
19.586	62.4696
19.604	62.49
19.622	62.5029
19.64	62.5084
19.658	62.5061
19.676	62.4961
19.694	62.4798
19.712	62.4568
19.73	62.4291
19.748	62.3964
19.766	62.361
19.784	62.3234
19.802	62.2845
19.82	62.2455
19.838	62.2063
19.856	62.1681
19.874	62.1304
19.892	62.0936
19.91	62.0575
19.928	62.0215
19.946	61.9859
19.964	61.9496
19.982	61.9125
20	61.8741
20.018	61.8339
20.036	61.7917
20.054	61.7471
20.072	61.7002
20.09	61.6509
20.108	61.5993
20.126	61.5457
20.144	61.49
20.162	61.4327
20.18	61.3741
20.198	61.3145
20.216	61.2542
20.234	61.1933
20.252	61.1329
20.27	61.0726
20.288	61.0134
20.306	60.9549
20.324	60.8982
20.342	60.8437
20.36	60.7917
20.378	60.7436
20.396	60.6991
20.414	60.6604
20.432	60.6272
20.45	60.6013
20.468	60.5833
20.486	60.5737
20.504	60.5741
20.522	60.584
20.54	60.6046
20.558	60.636
20.576	60.6775
20.594	60.7294
20.612	60.7906
20.63	60.8594
20.648	60.9361
20.666	61.0165
20.684	61.1013
20.702	61.187
20.72	61.2713
20.738	61.3539
20.756	61.4295
20.774	61.4994
20.792	61.5594
20.81	61.6088
20.828	61.6466
20.846	61.6699
20.864	61.6796
20.882	61.674
20.9	61.6528
20.918	61.6167
20.936	61.5651
20.954	61.4988
20.972	61.4196
20.99	61.3269
21.008	61.2236
21.026	61.1104
21.044	60.9884
21.062	60.8613
21.08	60.7281
21.098	60.5933
21.116	60.4576
21.134	60.3222
21.152	60.1916
21.17	60.0643
21.188	59.9443
21.206	59.8322
21.224	59.7285
21.242	59.636
21.26	59.5537
21.278	59.4829
21.296	59.4242
21.314	59.3771
21.332	59.3417
21.35	59.318
21.368	59.3045
21.386	59.3012
21.404	59.3072
21.422	59.3203
21.44	59.3414
21.458	59.3673
21.476	59.3973
21.494	59.431
21.512	59.4653
21.53	59.5009
21.548	59.5358
21.566	59.5683
21.584	59.599
21.602	59.6259
21.62	59.6493
21.638	59.6687
21.656	59.6831
21.674	59.6927
21.692	59.6977
21.71	59.6979
21.728	59.6937
21.746	59.6856
21.764	59.6733
21.782	59.6577
21.8	59.6398
21.818	59.6191
21.836	59.5971
21.854	59.5737
21.872	59.5495
21.89	59.5257
21.908	59.502
21.926	59.4793
21.944	59.4584
21.962	59.4388
21.98	59.4219
21.998	59.4075
22.016	59.3958
22.034	59.3875
22.052	59.3825
22.07	59.3809
22.088	59.3832
22.106	59.3891
22.124	59.3989
22.142	59.4127
22.16	59.4304
22.178	59.4518
22.196	59.4771
22.214	59.5057
22.232	59.5373
22.25	59.572
22.268	59.6092
22.286	59.6485
22.304	59.6902
22.322	59.7334
22.34	59.7781
22.358	59.8243
22.376	59.8712
22.394	59.9191
22.412	59.9676
22.43	60.0163
22.448	60.0654
22.466	60.1143
22.484	60.1627
22.502	60.2109
22.52	60.2578
22.538	60.3032
22.556	60.3471
22.574	60.3887
22.592	60.428
22.61	60.4647
22.628	60.4977
22.646	60.5275
22.664	60.5533
22.682	60.5738
22.7	60.5895
22.718	60.5993
22.736	60.6018
22.754	60.5974
22.772	60.5859
22.79	60.5665
22.808	60.5397
22.826	60.5054
22.844	60.4639
22.862	60.4151
22.88	60.3592
22.898	60.2963
22.916	60.2264
22.934	60.1505
22.952	60.0687
22.97	59.9811
22.988	59.8894
23.006	59.7937
23.024	59.6941
23.042	59.5934
23.06	59.4912
23.078	59.388
23.096	59.2876
23.114	59.1895
23.132	59.0942
23.15	59.0052
23.168	58.922
23.186	58.8452
23.204	58.7778
23.222	58.7199
23.24	58.6713
23.258	58.6332
23.276	58.6063
23.294	58.5896
23.312	58.5821
23.33	58.5848
23.348	58.5965
23.366	58.614
23.384	58.6384
23.402	58.6685
23.42	58.7002
23.438	58.7341
23.456	58.7697
23.474	58.8022
23.492	58.8316
23.51	58.8581
23.528	58.877
23.546	58.8874
23.564	58.8904
23.582	58.8833
23.6	58.8648
23.618	58.836
23.636	58.7968
23.654	58.747
23.672	58.6864
23.69	58.617
23.708	58.5397
23.726	58.4533
23.744	58.3609
23.762	58.265
23.78	58.1638
23.798	58.0599
23.816	57.9563
23.834	57.8514
23.852	57.7469
23.87	57.6453
23.888	57.5455
23.906	57.4485
23.924	57.3573
23.942	57.2713
23.96	57.1907
23.978	57.1189
23.996	57.0566
24.014	57.0027
24.032	56.9605
24.05	56.9316
24.068	56.914
24.086	56.9111
24.104	56.9257
24.122	56.9551
24.14	57.0025
24.158	57.0726
24.176	57.1635
24.194	57.2763
24.212	57.4153
24.23	57.5809
24.248	57.7719
24.266	57.9917
24.284	58.2428
24.302	58.5237
24.32	58.8336
24.338	59.1724
24.356	59.5424
24.374	59.9391
24.392	60.3565
24.41	60.7986
24.428	61.2624
24.446	61.7363
24.464	62.218
24.482	62.7134
24.5	63.2057
24.518	63.6816
24.536	64.1529
24.554	64.6077
24.572	65.0289
24.59	65.4207
24.608	65.7831
24.626	66.1025
24.644	66.3721
24.662	66.5987
24.68	66.778
24.698	66.9048
24.716	66.9794
24.734	67.0052
24.752	66.9861
24.77	66.918
24.788	66.8027
24.806	66.6537
24.824	66.4787
24.842	66.2664
24.86	66.0331
24.878	65.7981
24.896	65.5521
24.914	65.299
24.932	65.0612
24.95	64.8491
24.968	64.6488
24.986	64.4775
25.004	64.354
25.022	64.2706
25.04	64.2287
25.058	64.2404
25.076	64.3124
25.094	64.4381
25.112	64.6192
25.13	64.8582
25.148	65.1586
25.166	65.5145
25.184	65.9172
25.202	66.3646
25.22	66.8632
25.238	67.3988
25.256	67.9574
25.274	68.5521
25.292	69.174
25.31	69.798
25.328	70.4128
25.346	71.0376
25.364	71.6469
25.382	72.2112
25.4	72.7393
25.418	73.2335
25.436	73.6682
25.454	74.0235
25.472	74.3163
25.49	74.5376
25.508	74.6727
25.526	74.7172
25.544	74.6791
25.562	74.5534
25.58	74.3351
25.598	74.022
25.616	73.6198
25.634	73.1357
25.652	72.5705
25.67	71.914
25.688	71.1866
25.706	70.4117
25.724	69.5828
25.742	68.6937
25.76	67.7776
25.778	66.8645
25.796	65.9296
25.814	64.9858
25.832	64.0685
25.85	63.2
25.868	62.3529
25.886	61.5482
25.904	60.8143
25.922	60.158
25.94	59.5634
25.958	59.0459
25.976	58.6211
25.994	58.2897
26.012	58.0448
26.03	57.8846
26.048	57.8086
26.066	57.8263
26.084	57.9254
26.102	58.0877
26.12	58.305
26.138	58.5974
26.156	58.94
26.174	59.3023
26.192	59.6773
26.21	60.0864
26.228	60.5007
26.246	60.8899
26.264	61.2581
26.282	61.617
26.3	61.9393
26.318	62.1981
26.336	62.4052
26.354	62.5633
26.372	62.6516
26.39	62.6513
26.408	62.5709
26.426	62.4128
26.444	62.1705
26.462	61.8384
26.48	61.419
26.498	60.9144
26.516	60.3256
26.534	59.6509
26.552	58.8813
26.57	58.0321
26.588	57.1217
26.606	56.1586
26.624	55.1204
26.642	54.0319
26.66	52.9241
26.678	51.8095
26.696	50.6562
26.714	49.4979
26.732	48.3747
26.75	47.302
26.768	46.2427
26.786	45.2328
26.804	44.3136
26.822	43.5027
26.84	42.7651
26.858	42.1278
26.876	41.6228
26.894	41.2665
26.912	41.0356
26.93	40.9388
26.948	40.9874
26.966	41.236
26.984	41.7467
27.002	42.3411
27.02	42.8263
27.028	42.9446