File: Bakgrunnsmateriale/MATLAB/FTIR/ftir_data/subBb/Mapping_121/C-4040-8_t85_cm-1.asc
PE IR       SPECTRUM    SPECTRUM    ASCII       PEDS        1.60
  -1
C-9DEE~1.ASC
17/03/27
21:26:29.00
17/03/27
21:26:29.00
tln
$C-4040-8_t0085$<tbV0>[-5.2,5.2,8.0,0.0,27,1,0]
370
64

2002,4.07
MIRTGS : RIGHTBACK : INTERNAL 2
MIR : ON : INTERNAL 2
OPTKBR

0.200000
8
8.000000
FILLER
RATIO
SPECTRUM
UNLOCKED 256

DOUBLE
64
COMBINED
1
0
0

1.000000
RATIO

1
0
TRUE
51149
0
LEFT NOT FITTED RIGHT NOT FITTED 0
NONE
NONE
15600
12
4.427000
51148
TRUE
1 0 8 72 0 0 0 0

15798

#HDR
-1
-1
#GR
CM-1
%T
2.38419e-05
0.0
5000
-1.000000
4631
8
73.1815
7.049942
#DATA
5000	65.412
4996	65.5138
4992	65.3774
4988	65.1524
4984	65.0473
4980	65.047
4976	65.2972
4972	65.4229
4968	65.0122
4964	64.4164
4960	64.529
4956	65.4868
4952	66.0214
4948	65.6373
4944	65.102
4940	64.7853
4936	64.7516
4932	64.9946
4928	65.0913
4924	64.9975
4920	65.203
4916	65.6488
4912	65.8808
4908	65.7319
4904	65.2719
4900	64.7281
4896	64.3991
4892	64.2306
4888	64.0096
4884	64.2559
4880	65.011
4876	65.4408
4872	65.3916
4868	65.1757
4864	65.018
4860	65.1037
4856	65.3012
4852	65.2586
4848	65.162
4844	65.1644
4840	65.1937
4836	65.451
4832	65.499
4828	65.0366
4824	64.7543
4820	64.8401
4816	64.8258
4812	64.7697
4808	64.9902
4804	65.2595
4800	65.1912
4796	64.8219
4792	64.533
4788	64.5165
4784	64.6661
4780	64.6913
4776	64.6152
4772	64.8258
4768	65.0443
4764	64.9156
4760	64.7305
4756	64.591
4752	64.4139
4748	64.4371
4744	64.7281
4740	64.956
4736	64.9826
4732	64.9362
4728	64.783
4724	64.5315
4720	64.4631
4716	64.6933
4712	65.0246
4708	65.051
4704	64.5663
4700	64.2165
4696	64.487
4692	64.8356
4688	64.8763
4684	64.7691
4680	64.7312
4676	64.908
4672	65.1848
4668	65.1122
4664	64.724
4660	64.6775
4656	64.8991
4652	64.9855
4648	64.8593
4644	64.7763
4640	65.0264
4636	65.2033
4632	65.1634
4628	65.1141
4624	65.085
4620	64.9652
4616	64.7058
4612	64.8009
4608	65.2798
4604	65.3827
4600	64.9839
4596	64.7177
4592	64.877
4588	65.1624
4584	65.2332
4580	65.1891
4576	65.2305
4572	65.2136
4568	65.175
4564	65.1997
4560	65.2229
4556	65.327
4552	65.4654
4548	65.591
4544	65.791
4540	65.9025
4536	65.8271
4532	66.0826
4528	66.5126
4524	66.2326
4520	65.7898
4516	65.6678
4512	65.4744
4508	65.5027
4504	65.6088
4500	65.5355
4496	65.6211
4492	65.8022
4488	65.8993
4484	65.8175
4480	65.6776
4476	65.7069
4472	65.8201
4468	65.9808
4464	66.1391
4460	66.127
4456	65.9674
4452	65.7884
4448	65.6481
4444	65.7099
4440	65.937
4436	65.9785
4432	65.5505
4428	65.3527
4424	65.5161
4420	65.5105
4416	65.5209
4412	65.6193
4408	65.7318
4404	65.8157
4400	65.8297
4396	65.0647
4392	62.7369
4388	50.4858
4384	32.0482
4380	46.2445
4376	70.805
4372	72.4533
4368	69.4548
4364	66.2643
4360	65.2559
4356	64.89
4352	65.0297
4348	65.4447
4344	66.0239
4340	66.4873
4336	66.4626
4332	66.3121
4328	66.4783
4324	66.5476
4320	66.2948
4316	66.0935
4312	66.1348
4308	66.2728
4304	66.3387
4300	66.4329
4296	66.5216
4292	66.214
4288	65.7589
4284	65.755
4280	66.0484
4276	66.0475
4272	65.5923
4268	65.281
4264	65.5312
4260	65.8066
4256	65.6353
4252	65.456
4248	65.6632
4244	65.8666
4240	65.7497
4236	65.6021
4232	65.5017
4228	65.3781
4224	65.313
4220	65.3375
4216	65.2875
4212	65.1408
4208	65.1752
4204	65.3005
4200	65.2705
4196	65.0433
4192	64.9768
4188	65.3549
4184	65.3265
4180	64.5583
4176	64.3154
4172	64.6142
4168	64.7094
4164	64.9179
4160	64.9748
4156	64.6962
4152	64.7509
4148	65.1374
4144	65.3765
4140	65.3482
4136	65.1813
4132	65.0002
4128	64.9521
4124	65.0473
4120	65.0193
4116	64.7971
4112	64.5329
4108	64.4898
4104	64.7556
4100	64.9553
4096	64.8931
4092	64.7931
4088	64.8546
4084	64.8984
4080	64.8474
4076	64.842
4072	64.8427
4068	64.9391
4064	65.0256
4060	64.9599
4056	64.9268
4052	64.8341
4048	64.6732
4044	64.7358
4040	64.9528
4036	65.093
4032	65.1626
4028	65.1718
4024	65.1389
4020	65.1893
4016	65.3054
4012	65.3222
4008	65.1762
4004	65.0527
4000	65.1234
3996	65.2377
3992	65.1991
3988	65.0754
3984	65.0452
3980	65.1363
3976	65.1661
3972	65.0887
3968	65.0681
3964	65.0451
3960	65.054
3956	65.0951
3952	65.0025
3948	64.9448
3944	65.0063
3940	65.1106
3936	65.2229
3932	65.3241
3928	65.4057
3924	65.3814
3920	65.3112
3916	65.3131
3912	65.3287
3908	65.3644
3904	65.4545
3900	65.4055
3896	65.2066
3892	65.1862
3888	65.3192
3884	65.268
3880	65.1011
3876	65.1549
3872	65.3966
3868	65.5488
3864	65.4752
3860	65.2564
3856	65.1083
3852	65.0749
3848	65.0889
3844	65.1503
3840	65.1526
3836	65.0504
3832	65.0741
3828	65.2288
3824	65.3285
3820	65.4602
3816	65.4915
3812	65.3007
3808	65.1381
3804	65.107
3800	65.202
3796	65.2776
3792	65.2908
3788	65.331
3784	65.2852
3780	65.1878
3776	65.1719
3772	65.1784
3768	65.122
3764	65.0976
3760	65.1316
3756	65.1345
3752	65.148
3748	65.2441
3744	65.4025
3740	65.4067
3736	65.1638
3732	65.0003
3728	65.0944
3724	65.2291
3720	65.2515
3716	65.2858
3712	65.3838
3708	65.4012
3704	65.3327
3700	65.2156
3696	65.1499
3692	65.2237
3688	65.1812
3684	65.0381
3680	65.0682
3676	65.2088
3672	65.2549
3668	65.1613
3664	65.073
3660	65.0735
3656	65.0575
3652	65.0073
3648	65.0451
3644	65.1307
3640	65.1959
3636	65.2507
3632	65.2545
3628	65.2265
3624	65.2714
3620	65.303
3616	65.1731
3612	65.0054
3608	64.962
3604	65.0326
3600	65.1196
3596	65.141
3592	65.1349
3588	65.1764
3584	65.2347
3580	65.2832
3576	65.2658
3572	65.227
3568	65.2859
3564	65.2743
3560	65.1926
3556	65.2771
3552	65.4044
3548	65.3648
3544	65.2168
3540	65.115
3536	65.145
3532	65.2184
3528	65.2762
3524	65.2925
3520	65.2644
3516	65.2714
3512	65.1757
3508	65.0274
3504	65.0774
3500	65.1814
3496	65.1795
3492	65.1967
3488	65.2488
3484	65.296
3480	65.326
3476	65.3367
3472	65.4463
3468	65.5715
3464	65.5812
3460	65.5354
3456	65.4367
3452	65.3416
3448	65.2948
3444	65.2803
3440	65.3242
3436	65.3656
3432	65.3756
3428	65.2914
3424	65.1989
3420	65.2963
3416	65.3611
3412	65.3147
3408	65.2571
3404	65.102
3400	65.025
3396	65.0954
3392	65.2284
3388	65.4338
3384	65.481
3380	65.3755
3376	65.4062
3372	65.4539
3368	65.3662
3364	65.2403
3360	65.1183
3356	65.0685
3352	65.1581
3348	65.2015
3344	65.139
3340	65.2026
3336	65.3105
3332	65.2401
3328	65.1816
3324	65.2878
3320	65.3535
3316	65.2827
3312	65.25
3308	65.2859
3304	65.2681
3300	65.2862
3296	65.3195
3292	65.265
3288	65.2221
3284	65.2344
3280	65.298
3276	65.3195
3272	65.3081
3268	65.3865
3264	65.3958
3260	65.2624
3256	65.2005
3252	65.2619
3248	65.3029
3244	65.1775
3240	65.017
3236	65.0627
3232	65.1321
3228	65.0985
3224	65.0765
3220	65.0843
3216	65.1281
3212	65.169
3208	65.1559
3204	65.0465
3200	64.9467
3196	65.0289
3192	65.1143
3188	65.1001
3184	65.1279
3180	65.0975
3176	64.9348
3172	64.842
3168	64.9573
3164	65.1589
3160	65.2523
3156	65.23
3152	65.2012
3148	65.1701
3144	65.2033
3140	65.3597
3136	65.4873
3132	65.3838
3128	65.1755
3124	65.2791
3120	65.3722
3116	65.0823
3112	64.9232
3108	65.0461
3104	65.1048
3100	65.0887
3096	65.1138
3092	65.1979
3088	65.3137
3084	65.3256
3080	65.2441
3076	65.2458
3072	65.2884
3068	65.256
3064	65.1801
3060	65.1505
3056	65.2519
3052	65.3934
3048	65.3294
3044	65.1548
3040	65.1491
3036	65.2529
3032	65.3321
3028	65.3054
3024	65.2086
3020	65.1621
3016	65.1116
3012	65.0767
3008	65.1322
3004	65.1512
3000	65.113
2996	65.1671
2992	65.2225
2988	65.1832
2984	65.1867
2980	65.2034
2976	65.1038
2972	64.9565
2968	64.942
2964	65.0494
2960	65.0693
2956	64.9957
2952	65.0032
2948	65.109
2944	65.184
2940	65.1636
2936	65.1263
2932	65.1111
2928	65.0498
2924	64.9805
2920	64.9297
2916	64.8918
2912	64.9232
2908	65.0313
2904	65.1678
2900	65.2502
2896	65.2216
2892	65.1357
2888	65.0817
2884	65.0921
2880	65.1469
2876	65.2578
2872	65.3815
2868	65.3987
2864	65.3605
2860	65.3226
2856	65.1372
2852	64.9434
2848	65.0223
2844	65.1698
2840	65.1517
2836	65.0761
2832	65.0707
2828	65.1452
2824	65.2526
2820	65.3343
2816	65.3093
2812	65.2447
2808	65.2886
2804	65.3635
2800	65.3801
2796	65.3267
2792	65.2434
2788	65.2316
2784	65.2731
2780	65.3073
2776	65.3198
2772	65.3295
2768	65.2996
2764	65.2339
2760	65.2188
2756	65.1892
2752	65.1633
2748	65.2611
2744	65.3573
2740	65.3241
2736	65.236
2732	65.1867
2728	65.2306
2724	65.2957
2720	65.3288
2716	65.3813
2712	65.4399
2708	65.4584
2704	65.3913
2700	65.3394
2696	65.3914
2692	65.4509
2688	65.4768
2684	65.4634
2680	65.3747
2676	65.3059
2672	65.3462
2668	65.3644
2664	65.3002
2660	65.2432
2656	65.1922
2652	65.1765
2648	65.2195
2644	65.2369
2640	65.2658
2636	65.3307
2632	65.3424
2628	65.3081
2624	65.2688
2620	65.2404
2616	65.2384
2612	65.276
2608	65.3131
2604	65.2575
2600	65.162
2596	65.1573
2592	65.2169
2588	65.2459
2584	65.2623
2580	65.3103
2576	65.3228
2572	65.268
2568	65.229
2564	65.2713
2560	65.3413
2556	65.3375
2552	65.285
2548	65.2437
2544	65.1979
2540	65.1657
2536	65.2431
2532	65.4047
2528	65.4685
2524	65.4119
2520	65.3064
2516	65.1721
2512	65.1225
2508	65.1493
2504	65.171
2500	65.1967
2496	65.1954
2492	65.2329
2488	65.3012
2484	65.3356
2480	65.4256
2476	65.5045
2472	65.4728
2468	65.3463
2464	65.2499
2460	65.3127
2456	65.3942
2452	65.3786
2448	65.345
2444	65.365
2440	65.3536
2436	65.2939
2432	65.233
2428	65.1712
2424	65.231
2420	65.2469
2416	65.0908
2412	65.1017
2408	65.3101
2404	65.3236
2400	65.2159
2396	65.2861
2392	65.3826
2388	65.4308
2384	65.5234
2380	65.5918
2376	65.5002
2372	65.3276
2368	65.2937
2364	65.3177
2360	65.3168
2356	65.407
2352	65.5227
2348	65.5053
2344	65.4249
2340	65.4163
2336	65.4127
2332	65.4051
2328	65.4118
2324	65.3754
2320	65.3925
2316	65.4485
2312	65.4356
2308	65.4389
2304	65.4364
2300	65.3691
2296	65.3177
2292	65.2891
2288	65.3102
2284	65.3833
2280	65.4233
2276	65.3913
2272	65.3321
2268	65.315
2264	65.3232
2260	65.3144
2256	65.3176
2252	65.3716
2248	65.4013
2244	65.382
2240	65.3426
2236	65.3313
2232	65.3891
2228	65.4096
2224	65.3984
2220	65.4424
2216	65.483
2212	65.4538
2208	65.3679
2204	65.2864
2200	65.2762
2196	65.2863
2192	65.2412
2188	65.2364
2184	65.3171
2180	65.3902
2176	65.3832
2172	65.3241
2168	65.3718
2164	65.4617
2160	65.3853
2156	65.2626
2152	65.1928
2148	65.0828
2144	65.0576
2140	65.1372
2136	65.1534
2132	65.1979
2128	65.3144
2124	65.3922
2120	65.4215
2116	65.3978
2112	65.3718
2108	65.3636
2104	65.3599
2100	65.4237
2096	65.4723
2092	65.3877
2088	65.3097
2084	65.3983
2080	65.4259
2076	65.2788
2072	65.2878
2068	65.4506
2064	65.3903
2060	65.2886
2056	65.3567
2052	65.3154
2048	65.2537
2044	65.3257
2040	65.3744
2036	65.3754
2032	65.3995
2028	65.3885
2024	65.2443
2020	65.1248
2016	65.2307
2012	65.3831
2008	65.4
2004	65.3434
2000	65.3121
1996	65.3814
1992	65.4143
1988	65.3488
1984	65.3466
1980	65.3863
1976	65.3861
1972	65.4176
1968	65.4667
1964	65.4248
1960	65.3769
1956	65.4138
1952	65.4592
1948	65.4395
1944	65.4049
1940	65.3851
1936	65.3135
1932	65.2701
1928	65.3214
1924	65.347
1920	65.3522
1916	65.391
1912	65.3763
1908	65.3283
1904	65.3165
1900	65.3182
1896	65.3274
1892	65.3462
1888	65.3763
1884	65.3879
1880	65.3491
1876	65.3461
1872	65.4031
1868	65.3892
1864	65.3102
1860	65.2873
1856	65.2939
1852	65.2391
1848	65.2055
1844	65.3193
1840	65.4412
1836	65.3765
1832	65.2922
1828	65.3316
1824	65.3666
1820	65.4005
1816	65.4205
1812	65.3649
1808	65.3085
1804	65.3038
1800	65.3052
1796	65.2959
1792	65.3219
1788	65.3787
1784	65.4122
1780	65.3665
1776	65.2883
1772	65.2285
1768	65.1777
1764	65.2088
1760	65.3281
1756	65.3984
1752	65.3642
1748	65.2616
1744	65.1727
1740	65.1555
1736	65.2321
1732	65.3616
1728	65.3634
1724	65.2366
1720	65.2053
1716	65.3095
1712	65.3184
1708	65.2263
1704	65.2121
1700	65.1979
1696	65.1496
1692	65.1855
1688	65.269
1684	65.277
1680	65.2338
1676	65.2456
1672	65.3053
1668	65.3552
1664	65.3271
1660	65.2318
1656	65.205
1652	65.2758
1648	65.3436
1644	65.3718
1640	65.3456
1636	65.3027
1632	65.318
1628	65.3029
1624	65.2234
1620	65.1672
1616	65.1581
1612	65.1573
1608	65.1262
1604	65.1034
1600	65.0935
1596	65.0867
1592	65.104
1588	65.1052
1584	65.0401
1580	64.9915
1576	65.0054
1572	65.0086
1568	65.0255
1564	65.0645
1560	65.0405
1556	64.9487
1552	64.8949
1548	64.9451
1544	65.138
1540	65.3168
1536	65.2829
1532	65.1638
1528	65.1357
1524	65.1612
1520	65.1621
1516	65.1742
1512	65.1712
1508	65.1054
1504	65.0699
1500	65.107
1496	65.1116
1492	65.0315
1488	64.98
1484	65.0555
1480	65.1901
1476	65.2457
1472	65.2006
1468	65.1516
1464	65.0988
1460	64.99
1456	64.8361
1452	64.6257
1448	64.5502
1444	64.8037
1440	65.1011
1436	65.129
1432	65.0206
1428	64.9676
1424	64.94
1420	64.9678
1416	65.1025
1412	65.203
1408	65.1864
1404	65.1017
1400	65.0176
1396	64.9997
1392	65.0202
1388	65.0453
1384	65.0675
1380	65.0987
1376	65.0875
1372	65.0096
1368	64.9773
1364	64.9929
1360	65.0164
1356	65.0127
1352	65.0116
1348	65.0722
1344	65.0856
1340	65.0413
1336	65.0187
1332	65.0151
1328	65.0141
1324	65.0263
1320	65.0546
1316	65.0563
1312	65.0451
1308	65.0628
1304	65.1245
1300	65.1757
1296	65.184
1292	65.2488
1288	65.2761
1284	65.2023
1280	65.1844
1276	65.2066
1272	65.1963
1268	65.2038
1264	65.2649
1260	65.2907
1256	65.2731
1252	65.263
1248	65.1681
1244	65.0697
1240	65.112
1236	65.1835
1232	65.1653
1228	65.0346
1224	64.9329
1220	64.9492
1216	64.9556
1212	64.9373
1208	65.0126
1204	65.1432
1200	65.0893
1196	64.8967
1192	64.8654
1188	64.9716
1184	65.0342
1180	65.0168
1176	64.9536
1172	64.9017
1168	64.8837
1164	64.8868
1160	64.8921
1156	64.8655
1152	64.8054
1148	64.7719
1144	64.8562
1140	65.009
1136	65.0388
1132	64.9348
1128	64.8552
1124	64.8534
1120	64.8654
1116	64.8766
1112	64.8842
1108	64.8417
1104	64.8252
1100	64.7832
1096	64.5894
1092	64.5386
1088	64.6699
1084	64.7521
1080	64.8897
1076	65.0449
1072	65.0872
1068	65.0196
1064	64.89
1060	64.8199
1056	64.8586
1052	64.9099
1048	65.017
1044	65.1904
1040	65.1661
1036	64.9208
1032	64.7412
1028	64.6572
1024	64.5554
1020	64.6662
1016	64.8593
1012	64.6923
1008	64.449
1004	64.548
1000	64.713
996	 64.7142
992	 64.7912
988	 64.9204
984	 64.8407
980	 64.727
976	 64.8258
972	 64.9535
968	 64.8697
964	 64.5942
960	 64.5092
956	 64.6445
952	 64.716
948	 64.8877
944	 65.098
940	 65.0229
936	 64.8336
932	 64.9108
928	 65.1887
924	 65.0801
920	 64.5638
916	 64.2432
912	 64.2548
908	 64.3776
904	 64.3149
900	 64.1621
896	 64.2745
892	 64.3834
888	 64.2512
884	 64.2195
880	 64.3141
876	 64.4079
872	 64.4651
868	 64.4236
864	 64.5344
860	 64.6239
856	 64.4315
852	 64.3221
848	 64.3251
844	 64.2565
840	 64.2782
836	 64.3209
832	 64.3539
828	 64.4835
824	 64.4531
820	 64.3094
816	 64.4175
812	 64.5193
808	 64.3478
804	 64.2268
800	 64.269
796	 64.2881
792	 64.2895
788	 64.2164
784	 64.069
780	 64.0675
776	 64.0984
772	 63.9992
768	 64.0557
764	 64.3373
760	 64.338
756	 64.0229
752	 63.816
748	 63.559
744	 63.3506
740	 63.4607
736	 63.6217
732	 63.6452
728	 63.6647
724	 63.8044
720	 63.943
716	 63.9118
712	 63.7094
708	 63.5106
704	 63.7173
700	 64.1968
696	 64.225
692	 63.9214
688	 63.7013
684	 63.5136
680	 63.4664
676	 63.4175
672	 63.1472
668	 63.0605
664	 63.2716
660	 63.2342
656	 62.9726
652	 62.9448
648	 63.0968
644	 63.1271
640	 62.8825
636	 62.5699
632	 62.5948
628	 62.7573
624	 62.5967
620	 62.2912
616	 62.358
612	 62.8667
608	 63.2301
604	 63.2216
600	 63.1011
596	 62.8638
592	 62.7367
588	 62.854
584	 62.7268
580	 62.5449
576	 62.4877
572	 62.165
568	 61.921
564	 62.0787
560	 62.4249
556	 62.719
552	 63.01
548	 63.1918
544	 62.7074
540	 61.919
536	 61.4238
532	 61.2368
528	 61.5426
524	 61.7912
520	 61.7978
516	 61.995
512	 61.8019
508	 61.2853
504	 61.0804
500	 60.7207
496	 59.79
492	 59.2367
488	 60.0452
484	 61.487
480	 61.7704
476	 60.915
472	 60.2354
468	 59.679
464	 59.2189
460	 58.9387
456	 58.5321
452	 58.9105
448	 59.6001
444	 59.4143
440	 59.6709
436	 60.2596
432	 59.5715
428	 58.493
424	 57.0469
420	 55.5233
416	 56.8492
412	 58.2943
408	 55.9589
404	 55.5288
400	 55.4203
396	 41.5899
392	 21.5067
388	 12.9441
384	 14.9653
380	 11.2395
376	 7.847976
372	 23.6859
370	 32.2693