File: Bakgrunnsmateriale/MATLAB/FTIR/ftir_data/subBb/Mapping_121/C-4040-8_t33_cm-1.asc
PE IR       SPECTRUM    SPECTRUM    ASCII       PEDS        1.60
  -1
C-1BE1~1.ASC
17/03/27
17:10:59.00
17/03/27
17:10:59.00
tln
$C-4040-8_t0033$<tbV0>[-13.0,-7.8,8.0,0.0,27,1,0]
370
64

2002,4.07
MIRTGS : RIGHTBACK : INTERNAL 2
MIR : ON : INTERNAL 2
OPTKBR

0.200000
8
8.000000
FILLER
RATIO
SPECTRUM
UNLOCKED 256

DOUBLE
64
COMBINED
1
0
0

1.000000
RATIO

1
0
TRUE
51149
0
LEFT NOT FITTED RIGHT NOT FITTED 0
NONE
NONE
15600
12
4.427000
51148
TRUE
1 0 8 72 0 0 0 0

15798

#HDR
-1
-1
#GR
CM-1
%T
2.38419e-05
0.0
5000
-1.000000
4631
8
89.6532
33.0258
#DATA
5000	64.6348
4996	64.5746
4992	64.5666
4988	64.4635
4984	64.2451
4980	64.2511
4976	64.5554
4972	64.6595
4968	64.7314
4964	64.8144
4960	64.5937
4956	64.482
4952	64.7331
4948	64.8307
4944	64.7559
4940	64.9963
4936	65.124
4932	64.978
4928	65.0467
4924	65.0423
4920	65.0145
4916	65.308
4912	65.5455
4908	65.429
4904	65.0509
4900	64.9342
4896	65.1959
4892	65.2835
4888	65.2826
4884	65.342
4880	65.3401
4876	65.3075
4872	65.1826
4868	65.1407
4864	65.2117
4860	65.1991
4856	65.0335
4852	64.6892
4848	64.5895
4844	64.8211
4840	64.885
4836	64.8454
4832	64.9751
4828	65.187
4824	65.2345
4820	64.9952
4816	64.8176
4812	64.8598
4808	64.8099
4804	64.7545
4800	64.9508
4796	65.2275
4792	65.2009
4788	64.8731
4784	64.6302
4780	64.5986
4776	64.732
4772	65.018
4768	65.2454
4764	65.1785
4760	64.9237
4756	64.736
4752	64.7003
4748	64.8054
4744	64.9422
4740	65.0361
4736	65.1908
4732	65.1949
4728	64.9463
4724	64.8044
4720	64.7956
4716	64.7
4712	64.5853
4708	64.6962
4704	64.9539
4700	65.0881
4696	65.0427
4692	64.8859
4688	64.7567
4684	64.6934
4680	64.6456
4676	64.6651
4672	64.7032
4668	64.725
4664	64.7581
4660	64.7803
4656	64.8452
4652	64.8958
4648	64.8938
4644	64.7266
4640	64.537
4636	64.7159
4632	65.0131
4628	65.0165
4624	64.8492
4620	64.7941
4616	64.8074
4612	64.8438
4608	64.9884
4604	65.212
4600	65.323
4596	65.1364
4592	64.9249
4588	64.8283
4584	64.7326
4580	64.8664
4576	65.211
4572	65.3148
4568	65.1882
4564	65.2357
4560	65.2144
4556	64.9299
4552	64.866
4548	65.024
4544	64.9057
4540	64.5197
4536	64.4782
4532	64.9518
4528	65.2839
4524	65.2208
4520	65.149
4516	65.1855
4512	65.2159
4508	65.1536
4504	65.0885
4500	65.1546
4496	65.1372
4492	64.9503
4488	64.9389
4484	65.1119
4480	65.1329
4476	65.0805
4472	65.081
4468	65.133
4464	65.2449
4460	65.3081
4456	65.3207
4452	65.2212
4448	64.9809
4444	64.8017
4440	64.8352
4436	64.8666
4432	64.6323
4428	64.4541
4424	64.7544
4420	65.2779
4416	65.4305
4412	65.1384
4408	64.8858
4404	64.9874
4400	65.5054
4396	66.294
4392	66.2422
4388	66.5149
4384	66.0714
4380	64.8691
4376	67.6239
4372	69.8731
4368	66.4147
4364	60.131
4360	59.3274
4356	61.0622
4352	60.1537
4348	63.9086
4344	66.9431
4340	65.3533
4336	64.7012
4332	64.7019
4328	64.7691
4324	64.9625
4320	65.1912
4316	65.6116
4312	65.705
4308	65.3849
4304	65.2475
4300	65.2833
4296	65.2564
4292	65.217
4288	65.1573
4284	65.0173
4280	65.0915
4276	65.3857
4272	65.4044
4268	65.3131
4264	65.4286
4260	65.3959
4256	65.1452
4252	64.9923
4248	65.0687
4244	65.0948
4240	65.0048
4236	65.1676
4232	65.4926
4228	65.546
4224	65.2571
4220	64.9783
4216	64.8888
4212	64.8929
4208	64.8641
4204	64.6914
4200	64.5273
4196	64.4586
4192	64.3821
4188	64.2606
4184	64.2156
4180	64.5384
4176	65.1115
4172	65.2858
4168	65.156
4164	65.3249
4160	65.4195
4156	65.1448
4152	64.9439
4148	64.9702
4144	65.1067
4140	65.2269
4136	65.1912
4132	65.0411
4128	65.0165
4124	65.087
4120	64.9487
4116	64.7547
4112	64.7902
4108	64.8644
4104	64.7906
4100	64.7631
4096	64.8532
4092	64.8827
4088	64.9527
4084	65.1521
4080	65.2132
4076	65.1191
4072	65.1004
4068	65.1278
4064	65.0031
4060	64.7497
4056	64.6632
4052	64.7908
4048	64.8757
4044	64.8861
4040	64.9054
4036	64.9299
4032	65.0112
4028	65.0896
4024	65.0689
4020	65.0364
4016	65.0169
4012	64.9271
4008	64.8386
4004	64.8552
4000	64.9652
3996	65.0689
3992	65.079
3988	65.0044
3984	64.9166
3980	64.94
3976	65.0074
3972	64.9919
3968	65.0495
3964	65.2103
3960	65.2677
3956	65.1489
3952	64.9731
3948	64.835
3944	64.7879
3940	64.8867
3936	64.9904
3932	64.953
3928	64.9738
3924	65.1288
3920	65.1741
3916	65.133
3912	65.111
3908	65.146
3904	65.3152
3900	65.4707
3896	65.3831
3892	65.1666
3888	65.1188
3884	65.2608
3880	65.4284
3876	65.4551
3872	65.2249
3868	65.0126
3864	65.1361
3860	65.3119
3856	65.3337
3852	65.303
3848	65.2118
3844	65.0705
3840	64.9684
3836	64.9421
3832	64.9075
3828	64.8913
3824	64.939
3820	64.9846
3816	65.0831
3812	65.2487
3808	65.3396
3804	65.3062
3800	65.1436
3796	64.9445
3792	64.8365
3788	64.7633
3784	64.7863
3780	64.9251
3776	65.0352
3772	65.0998
3768	65.2104
3764	65.3443
3760	65.3295
3756	65.2398
3752	65.2439
3748	65.2489
3744	65.1968
3740	65.1172
3736	65.0689
3732	65.1271
3728	65.2037
3724	65.2063
3720	65.1257
3716	65.0823
3712	65.1689
3708	65.2441
3704	65.2834
3700	65.3438
3696	65.3304
3692	65.2346
3688	65.1451
3684	65.1338
3680	65.1561
3676	65.0794
3672	64.9353
3668	64.894
3664	64.9882
3660	65.0929
3656	65.1123
3652	65.0811
3648	65.0631
3644	65.0893
3640	65.1064
3636	65.0354
3632	64.9918
3628	65.0619
3624	65.1649
3620	65.2185
3616	65.2202
3612	65.2079
3608	65.1512
3604	65.0058
3600	64.888
3596	64.9596
3592	65.132
3588	65.1963
3584	65.1481
3580	65.0686
3576	65.0617
3572	65.2176
3568	65.3189
3564	65.1668
3560	65.0059
3556	65.0838
3552	65.2087
3548	65.1914
3544	65.0978
3540	65.0876
3536	65.2001
3532	65.2831
3528	65.279
3524	65.1949
3520	65.11
3516	65.0896
3512	65.0791
3508	65.1252
3504	65.2276
3500	65.2898
3496	65.2056
3492	65.0002
3488	64.9805
3484	65.1961
3480	65.2112
3476	65.0309
3472	64.9815
3468	65.0958
3464	65.3119
3460	65.4478
3456	65.3893
3452	65.236
3448	65.1337
3444	65.1701
3440	65.2626
3436	65.3337
3432	65.3867
3428	65.3024
3424	65.0933
3420	64.9971
3416	65.0905
3412	65.1935
3408	65.1623
3404	65.1239
3400	65.1757
3396	65.2621
3392	65.2501
3388	65.0996
3384	65.0644
3380	65.1446
3376	65.0893
3372	65.0473
3368	65.1201
3364	65.0664
3360	64.9603
3356	65.093
3352	65.3193
3348	65.2982
3344	65.1269
3340	65.0721
3336	65.1105
3332	65.1104
3328	65.1123
3324	65.2382
3320	65.3991
3316	65.4632
3312	65.3421
3308	65.0918
3304	64.9474
3300	65.0269
3296	65.2566
3292	65.4186
3288	65.369
3284	65.2426
3280	65.2505
3276	65.2849
3272	65.2101
3268	65.1587
3264	65.1602
3260	65.2028
3256	65.2644
3252	65.303
3248	65.3574
3244	65.3494
3240	65.2889
3236	65.2972
3232	65.2504
3228	65.133
3224	65.1517
3220	65.2187
3216	65.1689
3212	65.154
3208	65.2107
3204	65.1979
3200	65.1872
3196	65.2448
3192	65.314
3188	65.3375
3184	65.3572
3180	65.3963
3176	65.3481
3172	65.2376
3168	65.142
3164	65.119
3160	65.1677
3156	65.1275
3152	65.0389
3148	65.0559
3144	65.1339
3140	65.0962
3136	64.9605
3132	64.9689
3128	65.035
3124	65.0175
3120	65.0409
3116	65.2002
3112	65.3851
3108	65.376
3104	65.2737
3100	65.2761
3096	65.3228
3092	65.3226
3088	65.273
3084	65.2255
3080	65.261
3076	65.2877
3072	65.2248
3068	65.192
3064	65.1651
3060	65.1479
3056	65.2156
3052	65.2434
3048	65.207
3044	65.2294
3040	65.2996
3036	65.3172
3032	65.2783
3028	65.2072
3024	65.0922
3020	65.0413
3016	65.0853
3012	65.1108
3008	65.1369
3004	65.2017
3000	65.2247
2996	65.2106
2992	65.18
2988	65.1056
2984	65.1082
2980	65.1994
2976	65.2653
2972	65.3509
2968	65.3864
2964	65.2785
2960	65.1801
2956	65.1062
2952	65.0109
2948	65.0034
2944	65.0011
2940	64.9307
2936	64.9535
2932	65.0205
2928	64.9425
2924	64.7996
2920	64.7851
2916	64.8707
2912	64.9416
2908	64.9901
2904	65.0244
2900	65.0951
2896	65.1624
2892	65.1429
2888	65.1386
2884	65.1494
2880	65.1012
2876	65.153
2872	65.279
2868	65.2191
2864	65.0259
2860	64.9492
2856	64.9761
2852	64.9635
2848	64.9743
2844	65.0669
2840	65.1256
2836	65.0997
2832	65.1181
2828	65.2001
2824	65.2418
2820	65.2698
2816	65.2296
2812	65.1215
2808	65.1055
2804	65.1279
2800	65.1053
2796	65.1282
2792	65.243
2788	65.3547
2784	65.3685
2780	65.3282
2776	65.3323
2772	65.3076
2768	65.2089
2764	65.1443
2760	65.1622
2756	65.2115
2752	65.2477
2748	65.3055
2744	65.3752
2740	65.3131
2736	65.1453
2732	65.0714
2728	65.0732
2724	65.0616
2720	65.0944
2716	65.1493
2712	65.1883
2708	65.2382
2704	65.2633
2700	65.2754
2696	65.2958
2692	65.2972
2688	65.2663
2684	65.2336
2680	65.2549
2676	65.278
2672	65.2888
2668	65.3098
2664	65.2906
2660	65.2261
2656	65.1678
2652	65.1659
2648	65.1828
2644	65.1852
2640	65.2076
2636	65.2372
2632	65.2323
2628	65.1847
2624	65.1587
2620	65.1813
2616	65.1993
2612	65.2409
2608	65.3066
2604	65.3325
2600	65.3447
2596	65.3142
2592	65.2008
2588	65.1311
2584	65.1943
2580	65.2807
2576	65.2539
2572	65.1688
2568	65.1575
2564	65.1999
2560	65.1966
2556	65.1889
2552	65.2303
2548	65.3113
2544	65.3402
2540	65.3063
2536	65.2951
2532	65.3263
2528	65.3869
2524	65.4638
2520	65.4956
2516	65.4044
2512	65.2632
2508	65.1928
2504	65.2365
2500	65.2806
2496	65.1902
2492	65.1355
2488	65.2742
2484	65.4165
2480	65.383
2476	65.2591
2472	65.2001
2468	65.2378
2464	65.2697
2460	65.2611
2456	65.2844
2452	65.3319
2448	65.3627
2444	65.3582
2440	65.281
2436	65.2007
2432	65.1785
2428	65.1599
2424	65.2427
2420	65.4753
2416	65.5625
2412	65.4484
2408	65.3584
2404	65.3013
2400	65.2829
2396	65.3001
2392	65.2959
2388	65.3229
2384	65.3986
2380	65.4434
2376	65.4027
2372	65.3351
2368	65.311
2364	65.3032
2360	65.2747
2356	65.245
2352	65.2316
2348	65.2103
2344	65.229
2340	65.323
2336	65.3793
2332	65.3584
2328	65.321
2324	65.3084
2320	65.3184
2316	65.3188
2312	65.3306
2308	65.3702
2304	65.3676
2300	65.311
2296	65.293
2292	65.3202
2288	65.3583
2284	65.3966
2280	65.3908
2276	65.3397
2272	65.293
2268	65.3054
2264	65.3407
2260	65.3547
2256	65.3975
2252	65.4309
2248	65.3862
2244	65.3338
2240	65.3165
2236	65.3257
2232	65.3648
2228	65.3589
2224	65.3143
2220	65.3387
2216	65.3983
2212	65.4176
2208	65.4307
2204	65.4338
2200	65.3815
2196	65.3999
2192	65.4954
2188	65.447
2184	65.3605
2180	65.424
2176	65.4471
2172	65.3627
2168	65.3131
2164	65.2792
2160	65.2142
2156	65.1463
2152	65.1545
2148	65.2655
2144	65.3718
2140	65.3923
2136	65.3585
2132	65.3628
2128	65.382
2124	65.3584
2120	65.3673
2116	65.4117
2112	65.3944
2108	65.34
2104	65.3584
2100	65.4222
2096	65.4405
2092	65.4482
2088	65.5227
2084	65.5765
2080	65.4485
2076	65.2602
2072	65.2379
2068	65.346
2064	65.4727
2060	65.6112
2056	65.6518
2052	65.5118
2048	65.3381
2044	65.2622
2040	65.2606
2036	65.2614
2032	65.2857
2028	65.3464
2024	65.4186
2020	65.4868
2016	65.4751
2012	65.4041
2008	65.3962
2004	65.4199
2000	65.4076
1996	65.4372
1992	65.4829
1988	65.4275
1984	65.3708
1980	65.3771
1976	65.3538
1972	65.2956
1968	65.2601
1964	65.3125
1960	65.4131
1956	65.4044
1952	65.294
1948	65.2166
1944	65.2089
1940	65.2409
1936	65.2916
1932	65.358
1928	65.398
1924	65.3878
1920	65.3318
1916	65.2702
1912	65.2987
1908	65.3379
1904	65.3116
1900	65.3204
1896	65.3476
1892	65.323
1888	65.2987
1884	65.3139
1880	65.3147
1876	65.2797
1872	65.2717
1868	65.3136
1864	65.3747
1860	65.4066
1856	65.3709
1852	65.3158
1848	65.2755
1844	65.258
1840	65.3034
1836	65.3633
1832	65.3758
1828	65.3628
1824	65.352
1820	65.3363
1816	65.2901
1812	65.2343
1808	65.2116
1804	65.2333
1800	65.2741
1796	65.3014
1792	65.333
1788	65.3416
1784	65.2742
1780	65.2273
1776	65.2687
1772	65.3223
1768	65.3659
1764	65.3918
1760	65.3747
1756	65.3643
1752	65.3622
1748	65.2932
1744	65.2033
1740	65.1867
1736	65.1482
1732	65.0222
1728	64.9656
1724	65.0249
1720	65.0772
1716	65.1203
1712	65.1757
1708	65.214
1704	65.2318
1700	65.1944
1696	65.1391
1692	65.1473
1688	65.1951
1684	65.2267
1680	65.2739
1676	65.3065
1672	65.2412
1668	65.1754
1664	65.2044
1660	65.2343
1656	65.1912
1652	65.1587
1648	65.1732
1644	65.2038
1640	65.2741
1636	65.3142
1632	65.2232
1628	65.1036
1624	65.0691
1620	65.079
1616	65.1144
1612	65.1844
1608	65.2445
1604	65.2355
1600	65.2079
1596	65.2218
1592	65.2227
1588	65.1811
1584	65.1239
1580	65.0779
1576	65.0407
1572	65.027
1568	65.0393
1564	65.0841
1560	65.1365
1556	65.1275
1552	65.1199
1548	65.1278
1544	65.092
1540	65.069
1536	65.0812
1532	65.1011
1528	65.1482
1524	65.2027
1520	65.1808
1516	65.1155
1512	65.1161
1508	65.1403
1504	65.1368
1500	65.1384
1496	65.1392
1492	65.1406
1488	65.1992
1484	65.238
1480	65.1427
1476	65.0162
1472	64.9888
1468	65.0389
1464	65.0866
1460	65.1038
1456	65.1274
1452	65.1538
1448	65.1908
1444	65.2153
1440	65.1834
1436	65.1828
1432	65.1901
1428	65.1183
1424	65.1027
1420	65.168
1416	65.202
1412	65.1868
1408	65.0774
1404	64.9669
1400	64.998
1396	65.0506
1392	65.0424
1388	65.0161
1384	64.9655
1380	64.9631
1376	65.0231
1372	65.0125
1368	64.9669
1364	65.0069
1360	65.0953
1356	65.1479
1352	65.1385
1348	65.1075
1344	65.1336
1340	65.2398
1336	65.3175
1332	65.2356
1328	65.0982
1324	65.061
1320	65.1125
1316	65.1582
1312	65.1582
1308	65.1479
1304	65.0905
1300	65.0132
1296	65.0105
1292	65.0747
1288	65.1068
1284	65.0886
1280	65.0896
1276	65.1213
1272	65.1683
1268	65.2135
1264	65.215
1260	65.1641
1256	65.1279
1252	65.1663
1248	65.193
1244	65.1111
1240	65.0015
1236	64.9691
1232	64.9834
1228	64.9859
1224	65.0238
1220	65.1325
1216	65.1758
1212	65.1067
1208	65.0431
1204	65.0136
1200	65.0357
1196	65.0796
1192	65.0113
1188	64.8593
1184	64.8101
1180	64.9261
1176	65.0503
1172	65.0544
1168	65.0145
1164	64.967
1160	64.8759
1156	64.8677
1152	64.9862
1148	65.0682
1144	65.0552
1140	64.9544
1136	64.8945
1132	64.9968
1128	65.0633
1124	65.0373
1120	65.0203
1116	64.8969
1112	64.7394
1108	64.9157
1104	65.2191
1100	65.0656
1096	64.6644
1092	64.6882
1088	65.2078
1084	65.4379
1080	65.1596
1076	65.0871
1072	65.2744
1068	65.1551
1064	64.8019
1060	64.6545
1056	64.5405
1052	64.3707
1048	64.5006
1044	64.7509
1040	64.879
1036	65.0928
1032	65.2207
1028	65.0903
1024	65.0535
1020	65.1688
1016	65.0347
1012	64.6956
1008	64.5216
1004	64.512
1000	64.5408
996	 64.5757
992	 64.7044
988	 64.9563
984	 65.1188
980	 65.0497
976	 64.9143
972	 64.8775
968	 64.82
964	 64.6827
960	 64.5898
956	 64.6687
952	 64.8534
948	 64.8998
944	 64.8139
940	 64.6999
936	 64.67
932	 64.729
928	 64.6797
924	 64.6742
920	 64.9024
916	 65.1073
912	 64.9964
908	 64.7614
904	 64.659
900	 64.5445
896	 64.4706
892	 64.5545
888	 64.6298
884	 64.6258
880	 64.5805
876	 64.5681
872	 64.6068
868	 64.7156
864	 64.8902
860	 64.9365
856	 64.8911
852	 64.8571
848	 64.7703
844	 64.6465
840	 64.5219
836	 64.5451
832	 64.6306
828	 64.4767
824	 64.3797
820	 64.4611
816	 64.335
812	 64.1812
808	 64.2057
804	 64.2532
800	 64.2264
796	 64.2098
792	 64.3498
788	 64.4974
784	 64.4924
780	 64.4887
776	 64.3985
772	 64.1955
768	 64.1406
764	 64.2282
760	 64.2762
756	 64.1041
752	 63.8958
748	 63.9543
744	 64.0936
740	 64.1189
736	 64.079
732	 64.0465
728	 64.0326
724	 63.9962
720	 64.0656
716	 64.1093
712	 63.9661
708	 63.9657
704	 64.0878
700	 64.0306
696	 63.8476
692	 63.7741
688	 63.7794
684	 63.7305
680	 63.6621
676	 63.5565
672	 63.5499
668	 63.6982
664	 63.6509
660	 63.4327
656	 63.3652
652	 63.3559
648	 63.475
644	 63.5939
640	 63.2981
636	 63.0553
632	 63.1701
628	 63.2669
624	 63.3815
620	 63.5075
616	 63.3994
612	 63.3153
608	 63.3548
604	 63.3057
600	 63.2492
596	 63.1275
592	 62.9365
588	 62.8624
584	 63.0468
580	 63.4387
576	 63.5751
572	 63.1558
568	 62.7742
564	 62.8539
560	 62.9749
556	 62.9899
552	 63.0959
548	 63.1814
544	 63.1102
540	 62.976
536	 62.6489
532	 62.3248
528	 62.5196
524	 62.8544
520	 62.7209
516	 62.2252
512	 61.8967
508	 61.8149
504	 61.7715
500	 61.6737
496	 61.5948
492	 61.8212
488	 62.1196
484	 62.1343
480	 62.1829
476	 62.3617
472	 62.2107
468	 61.9956
464	 62.1809
460	 62.1951
456	 61.8565
452	 61.6482
448	 61.1893
444	 60.8701
440	 61.0526
436	 61.2469
432	 61.5679
428	 60.9992
424	 59.4196
420	 58.4072
416	 57.2624
412	 53.0419
408	 45.9891
404	 39.2337
400	 35.358
396	 36.3014
392	 54.4583
388	 82.5037
384	 89.4869
380	 85.9818
376	 71.4512
372	 44.0422
370	 33.0258