File: Bakgrunnsmateriale/MATLAB/FTIR/ftir_data/subBb/Mapping_121/C-4040-8_t06.asc
PE IR       SPECTRUM    SPECTRUM    ASCII       PEDS        1.60
  -1
C-B522~1.ASC
17/03/27
14:58:38.00
17/03/27
14:59:05.00
tln
$C-4040-8_t0006$<tbV0>[0.0,-13.0,8.0,0.0,27,1,0]
27.028
64

2002,4.07
MIRTGS : RIGHTBACK : INTERNAL 2
MIR : ON : INTERNAL 2
OPTKBR

0.200000
8
8.000000
FILLER
RATIO
SPECTRUM
UNLOCKED 256

DOUBLE
64
COMBINED
1
0
0

0.002000
RATIO

1
0
TRUE
51149
0
LEFT NOT FITTED RIGHT NOT FITTED 0
NONE
NONE
15600
12
4.427000
51148
TRUE
1 0 8 72 0 0 0 0

15798

#HDR
-1
-1
#GR
µM
%T
2.38419e-05
0.0
2.000000
0.002000
12515
8
70.5742
-7.871649
#DATA
2.000000	 64.118
2.018000	 62.8419
2.036000	 64.6034
2.054000	 63.6553
2.072000	 63.8177
2.090000	 63.912
2.108000	 63.849
2.126000	 63.6533
2.144000	 63.6333
2.162000	 64.0254
2.180000	 63.8907
2.198000	 63.0645
2.216000	 63.9304
2.234000	 64.6081
2.252000	 67.6489
2.270000	 58.7299
2.288000	 64.2189
2.306000	 64.5694
2.324000	 64.0329
2.342000	 63.9711
2.360000	 63.4629
2.378000	 63.4413
2.396000	 62.7674
2.414000	 63.1567
2.432000	 63.3957
2.450000	 63.4977
2.468000	 63.3133
2.486000	 63.6496
2.504000	 63.4411
2.522000	 63.2839
2.540000	 63.3341
2.558000	 63.3859
2.576000	 63.0676
2.594000	 63.5853
2.612000	 63.2013
2.630000	 63.2746
2.648000	 63.225
2.666000	 63.6586
2.684000	 63.3781
2.702000	 63.1034
2.720000	 63.1802
2.738000	 63.1271
2.756000	 63.1456
2.774000	 62.8627
2.792000	 62.9411
2.810000	 62.5977
2.828000	 62.5079
2.846000	 62.5802
2.864000	 62.752
2.882000	 62.8448
2.900000	 62.8547
2.918000	 62.3939
2.936000	 62.5057
2.954000	 62.3802
2.972000	 62.3538
2.990000	 62.2017
3.008000	 62.2719
3.026000	 62.1004
3.044000	 62.0608
3.062000	 62.0133
3.080000	 62.0524
3.098000	 61.9606
3.116000	 62.0547
3.134000	 61.8493
3.152000	 61.6004
3.170000	 61.8585
3.188000	 61.5329
3.206000	 61.7883
3.224000	 61.5797
3.242000	 61.5894
3.260000	 61.5124
3.278000	 61.4488
3.296000	 61.3344
3.314000	 61.4497
3.332000	 61.1597
3.350000	 61.2378
3.368000	 61.0536
3.386000	 60.965
3.404000	 60.792
3.422000	 60.8824
3.440000	 60.6288
3.458000	 60.8688
3.476000	 60.6217
3.494000	 60.7587
3.512000	 60.8412
3.530000	 60.6999
3.548000	 60.6719
3.566000	 60.5746
3.584000	 60.4679
3.602000	 60.3758
3.620000	 60.4163
3.638000	 60.3824
3.656000	 60.2221
3.674000	 60.3011
3.692000	 60.1308
3.710000	 60.1911
3.728000	 60.1588
3.746000	 60.0404
3.764000	 59.9127
3.782000	 59.9176
3.800000	 59.8558
3.818000	 59.7898
3.836000	 59.6563
3.854000	 59.6971
3.872000	 59.7249
3.890000	 59.5113
3.908000	 59.51
3.926000	 59.5858
3.944000	 59.4932
3.962000	 59.4264
3.980000	 59.2976
3.998000	 59.2633
4.016000	 59.344
4.034000	 59.2149
4.052000	 59.2588
4.070000	 59.0908
4.088000	 59.2241
4.106000	 59.1152
4.124000	 59.0959
4.141999	 58.8283
4.160000	 58.7887
4.178000	 58.7291
4.196000	 58.7594
4.214000	 58.8314
4.232000	 58.7218
4.250000	 58.5924
4.268000	 58.469
4.286000	 58.5589
4.304000	 58.4375
4.322000	 58.3554
4.340000	 58.4686
4.358000	 58.3162
4.375999	 58.2893
4.394000	 58.2354
4.412000	 58.2589
4.430000	 58.1736
4.448000	 58.1299
4.466000	 57.9871
4.484000	 57.9396
4.502000	 57.9212
4.520000	 57.8079
4.538000	 57.7402
4.556000	 57.7775
4.574000	 57.5239
4.592000	 57.6042
4.609999	 57.5628
4.628000	 57.6504
4.646000	 57.7011
4.664000	 57.4892
4.682000	 57.3726
4.700000	 57.2953
4.718000	 57.3055
4.736000	 57.2013
4.754000	 57.2118
4.772000	 57.3013
4.790000	 57.3152
4.808000	 57.3364
4.826000	 57.1459
4.843999	 57.0189
4.862000	 56.9213
4.880000	 56.9842
4.898000	 56.9856
4.916000	 56.9304
4.934000	 56.7809
4.952000	 56.64
4.970000	 56.739
4.988000	 56.6939
5.006000	 56.6275
5.024000	 56.6179
5.042000	 56.5973
5.060000	 56.5036
5.077999	 56.566
5.096000	 56.5082
5.114000	 56.3627
5.132000	 56.3945
5.150000	 56.4416
5.168000	 56.3282
5.186000	 56.2926
5.204000	 56.324
5.222000	 56.3483
5.240000	 56.195
5.258000	 56.1252
5.276000	 56.1286
5.294000	 56.0293
5.312000	 55.9664
5.330000	 55.8928
5.348000	 55.9018
5.366000	 55.8296
5.384000	 55.8211
5.402000	 55.7839
5.420000	 55.7856
5.438000	 55.6225
5.456000	 55.6138
5.474000	 55.7153
5.492000	 55.6662
5.510000	 55.613
5.528000	 55.5351
5.546000	 55.4787
5.564000	 55.583
5.582000	 55.5527
5.600000	 55.4622
5.618000	 55.4958
5.636000	 55.5565
5.654000	 55.4652
5.672000	 55.4369
5.690000	 55.4135
5.708000	 55.2781
5.726000	 55.2349
5.744000	 55.2008
5.762000	 55.2045
5.780000	 55.1891
5.798000	 55.0544
5.816000	 55.1956
5.834000	 55.2333
5.852000	 55.0397
5.870000	 55.1125
5.888000	 55.1279
5.906000	 55.0087
5.923999	 55.0579
5.942000	 55.0468
5.960000	 54.8761
5.978000	 54.8803
5.996000	 54.797
6.014000	 54.7233
6.032000	 54.9124
6.050000	 55.0967
6.068000	 54.8651
6.086000	 54.5995
6.104000	 54.5581
6.122000	 54.5094
6.140000	 54.3814
6.158000	 54.3887
6.176000	 54.4259
6.194000	 54.353
6.212000	 54.2608
6.230000	 54.2599
6.248000	 54.1683
6.266000	 54.1338
6.284000	 54.2132
6.302000	 54.2511
6.320000	 54.2474
6.338000	 54.2455
6.356000	 54.1919
6.374000	 54.1362
6.392000	 54.2238
6.410000	 54.3427
6.428000	 54.2528
6.446000	 54.1197
6.464000	 54.06
6.482000	 54.116
6.500000	 54.1187
6.518000	 53.9454
6.536000	 53.8661
6.554000	 53.982
6.572000	 54.0393
6.590000	 53.8969
6.608000	 53.8675
6.626000	 54.0133
6.644000	 53.954
6.662000	 53.7005
6.680000	 53.5772
6.698000	 53.6592
6.716000	 53.7103
6.734000	 53.6286
6.752000	 53.5693
6.770000	 53.5621
6.788000	 53.5575
6.806000	 53.5025
6.824000	 53.4044
6.842000	 53.4222
6.860000	 53.5104
6.878000	 53.4614
6.896000	 53.383
6.914000	 53.3795
6.932000	 53.3336
6.950000	 53.2581
6.968000	 53.1508
6.986000	 52.9992
7.004000	 52.902
7.022000	 52.921
7.040000	 53.0022
7.058000	 53.0274
7.076000	 52.9681
7.094000	 52.8825
7.112000	 52.826
7.130000	 52.8407
7.148000	 52.8834
7.166000	 52.888
7.184000	 52.8634
7.202000	 52.8141
7.220000	 52.7515
7.238000	 52.7261
7.256000	 52.7268
7.274000	 52.7027
7.292000	 52.6632
7.310000	 52.6522
7.328000	 52.6585
7.346000	 52.6248
7.364000	 52.5561
7.382000	 52.5176
7.400000	 52.5166
7.418000	 52.5167
7.436000	 52.4968
7.454000	 52.4508
7.472000	 52.408
7.490000	 52.4078
7.508000	 52.4329
7.526000	 52.4423
7.544000	 52.4254
7.562000	 52.3979
7.580000	 52.3772
7.598000	 52.3557
7.616000	 52.308
7.634000	 52.2407
7.652000	 52.192
7.670000	 52.1708
7.688000	 52.1485
7.706000	 52.1175
7.724000	 52.1119
7.742000	 52.1527
7.760000	 52.1975
7.778000	 52.1766
7.796000	 52.0819
7.814000	 51.9741
7.832000	 51.8988
7.850000	 51.8507
7.868000	 51.83
7.886000	 51.8551
7.904000	 51.899
7.922000	 51.9083
7.940000	 51.8895
7.958000	 51.8864
7.976000	 51.8954
7.994000	 51.8756
8.012000	 51.8166
8.030000	 51.7361
8.048000	 51.6569
8.065999	 51.6153
8.084000	 51.6367
8.102000	 51.6879
8.120000	 51.6991
8.138000	 51.6509
8.155999	 51.5972
8.173999	 51.586
8.192000	 51.5983
8.210000	 51.5937
8.228000	 51.5729
8.246000	 51.559
8.263999	 51.5511
8.282000	 51.5354
8.300000	 51.5155
8.318000	 51.4964
8.336000	 51.4662
8.353999	 51.4235
8.372000	 51.3922
8.390000	 51.3837
8.408000	 51.3759
8.426000	 51.3499
8.443999	 51.3209
8.462000	 51.3126
8.480000	 51.3229
8.498000	 51.3293
8.516000	 51.3211
8.533999	 51.3066
8.552000	 51.2962
8.570000	 51.2903
8.588000	 51.2811
8.606000	 51.2607
8.624000	 51.2309
8.641999	 51.2089
8.660000	 51.2151
8.678000	 51.2452
8.696000	 51.2625
8.714000	 51.232
8.731999	 51.1633
8.750000	 51.1075
8.768000	 51.1007
8.786000	 51.125
8.804000	 51.1334
8.821999	 51.1058
8.840000	 51.0599
8.858000	 51.0162
8.876000	 50.9731
8.894000	 50.9279
8.911999	 50.8959
8.930000	 50.8856
8.948000	 50.8711
8.966000	 50.8141
8.984000	 50.7134
9.001999	 50.6158
9.020000	 50.5727
9.038000	 50.5959
9.056000	 50.6572
9.074000	 50.7143
9.092000	 50.7352
9.109999	 50.7147
9.128000	 50.678
9.146000	 50.6583
9.164000	 50.6638
9.182000	 50.6689
9.199999	 50.6453
9.218000	 50.5941
9.236000	 50.5394
9.254000	 50.4948
9.272000	 50.4539
9.289999	 50.4121
9.308000	 50.3829
9.326000	 50.3824
9.344000	 50.4075
9.362000	 50.4346
9.379999	 50.4447
9.398000	 50.4392
9.416000	 50.4328
9.434000	 50.4347
9.452000	 50.4436
9.469999	 50.4533
9.488000	 50.4586
9.506000	 50.4539
9.524000	 50.4339
9.542000	 50.3991
9.560000	 50.3593
9.577999	 50.3281
9.596000	 50.3108
9.614000	 50.2982
9.632000	 50.2758
9.650000	 50.2388
9.667999	 50.1983
9.686000	 50.1728
9.704000	 50.1759
9.722000	 50.2096
9.740000	 50.265
9.757999	 50.3259
9.776000	 50.3704
9.794000	 50.375
9.812000	 50.3263
9.830000	 50.2318
9.847999	 50.1197
9.866000	 50.024
9.884000	 49.9634
9.902000	 49.9345
9.920000	 49.9211
9.937999	 49.9107
9.956000	 49.9042
9.974000	 49.9084
9.992000	 49.9245
10.01	49.9407
10.028	49.9393
10.046	49.9108
10.064	49.8662
10.082	49.831
10.1	49.8303
10.118	49.8718
10.136	49.9377
10.154	49.9968
10.172	50.0215
10.19	50.0013
10.208	49.9448
10.226	49.8685
10.244	49.7883
10.262	49.7155
10.28	49.6581
10.298	49.6201
10.316	49.5986
10.334	49.5819
10.352	49.556
10.37	49.5131
10.388	49.462
10.406	49.4223
10.424	49.4125
10.442	49.4338
10.46	49.469
10.478	49.492
10.496	49.4861
10.514	49.4531
10.532	49.4099
10.55	49.374
10.568	49.3538
10.586	49.3454
10.604	49.34
10.622	49.3319
10.64	49.3208
10.658	49.3079
10.676	49.2909
10.694	49.2641
10.712	49.2223
10.73	49.1665
10.748	49.1062
10.766	49.0553
10.784	49.024
10.802	49.0132
10.82	49.0151
10.838	49.0177
10.856	49.0131
10.874	49.0006
10.892	48.9857
10.91	48.9734
10.928	48.9633
10.946	48.9492
10.964	48.923
10.982	48.8832
11	48.8416
11.018	48.8202
11.036	48.8381
11.054	48.9016
11.072	48.9968
11.09	49.0937
11.108	49.1632
11.126	49.1877
11.144	49.1698
11.162	49.1306
11.18	49.096
11.198	49.0872
11.216	49.111
11.234	49.159
11.252	49.2111
11.27	49.2454
11.288	49.2427
11.306	49.1936
11.324	49.1009
11.342	48.9799
11.36	48.8528
11.378	48.7456
11.396	48.6777
11.414	48.6581
11.432	48.6831
11.45	48.7385
11.468	48.8047
11.486	48.8663
11.504	48.9147
11.522	48.9491
11.54	48.9737
11.558	48.9931
11.576	49.0078
11.594	49.0135
11.612	49.004
11.63	48.973
11.648	48.9186
11.666	48.8442
11.684	48.7601
11.702	48.6791
11.72	48.6123
11.738	48.565
11.756	48.5343
11.774	48.5112
11.792	48.4845
11.81	48.4466
11.828	48.3967
11.846	48.3411
11.864	48.291
11.882	48.2576
11.9	48.2495
11.918	48.2692
11.936	48.3125
11.954	48.3715
11.972	48.4346
11.99	48.4886
12.008	48.519
12.026	48.5123
12.044	48.4586
12.062	48.3565
12.08	48.2146
12.098	48.051
12.116	47.8865
12.134	47.7391
12.152	47.6188
12.17	47.5271
12.188	47.46
12.206	47.4119
12.224	47.3796
12.242	47.3634
12.26	47.3648
12.278	47.3847
12.296	47.4193
12.314	47.4608
12.332	47.4995
12.35	47.526
12.368	47.5344
12.386	47.5251
12.404	47.5029
12.422	47.4751
12.44	47.4483
12.458	47.4276
12.476	47.416
12.494	47.4151
12.512	47.4254
12.53	47.4458
12.548	47.4738
12.566	47.5055
12.584	47.5347
12.602	47.5547
12.62	47.5605
12.638	47.5502
12.656	47.5269
12.674	47.4979
12.692	47.4741
12.71	47.4668
12.728	47.4849
12.746	47.532
12.764	47.605
12.782	47.695
12.8	47.7891
12.818	47.8736
12.836	47.9375
12.854	47.9748
12.872	47.9845
12.89	47.9707
12.908	47.941
12.926	47.9036
12.944	47.8656
12.962	47.8313
12.98	47.8021
12.998	47.777
13.016	47.7542
13.034	47.7319
13.052	47.7098
13.07	47.6884
13.088	47.6694
13.106	47.6543
13.124	47.6438
13.142	47.6368
13.16	47.6316
13.178	47.6256
13.196	47.6163
13.214	47.6014
13.232	47.5804
13.25	47.5538
13.268	47.5229
13.286	47.4894
13.304	47.4548
13.322	47.42
13.34	47.385
13.358	47.3494
13.376	47.3126
13.394	47.274
13.412	47.2339
13.43	47.1942
13.448	47.158
13.466	47.1289
13.484	47.1108
13.502	47.1066
13.52	47.1172
13.538	47.1415
13.556	47.1754
13.574	47.213
13.592	47.2468
13.61	47.2692
13.628	47.2735
13.646	47.2552
13.664	47.2131
13.682	47.1493
13.7	47.0694
13.718	46.981
13.736	46.8939
13.754	46.8174
13.772	46.7597
13.79	46.7266
13.808	46.7198
13.826	46.7378
13.844	46.775
13.862	46.8228
13.88	46.8714
13.898	46.9109
13.916	46.9326
13.934	46.9309
13.952	46.9039
13.97	46.8531
13.988	46.7839
14.006	46.7035
14.024	46.6201
14.042	46.5414
14.06	46.4731
14.078	46.4181
14.096	46.3767
14.114	46.3471
14.132	46.3262
14.15	46.3106
14.168	46.2975
14.186	46.2851
14.204	46.2729
14.222	46.2621
14.24	46.2542
14.258	46.2508
14.276	46.2526
14.294	46.2591
14.312	46.2688
14.33	46.279
14.348	46.2865
14.366	46.2885
14.384	46.2829
14.402	46.269
14.42	46.2476
14.438	46.2203
14.456	46.1897
14.474	46.1583
14.492	46.1284
14.51	46.1014
14.528	46.0771
14.546	46.055
14.564	46.034
14.582	46.0131
14.6	45.992
14.618	45.9711
14.636	45.9518
14.654	45.9367
14.672	45.9282
14.69	45.9287
14.708	45.9398
14.726	45.9619
14.744	45.9936
14.762	46.032
14.78	46.0734
14.798	46.1136
14.816	46.1486
14.834	46.1748
14.852	46.19
14.87	46.1935
14.888	46.1864
14.906	46.1706
14.924	46.1488
14.942	46.1245
14.96	46.1006
14.978	46.079
14.996	46.061
15.014	46.0472
15.032	46.037
15.05	46.0293
15.068	46.0229
15.086	46.0165
15.104	46.009
15.122	45.9993
15.14	45.9869
15.158	45.9714
15.176	45.9525
15.194	45.93
15.212	45.9037
15.23	45.8736
15.248	45.8397
15.266	45.8023
15.284	45.7621
15.302	45.7204
15.32	45.6784
15.338	45.6375
15.356	45.5993
15.374	45.5649
15.392	45.5349
15.41	45.5094
15.428	45.4878
15.446	45.4689
15.464	45.4512
15.482	45.433
15.5	45.4131
15.518	45.3906
15.536	45.366
15.554	45.3402
15.572	45.3144
15.59	45.2911
15.608	45.2722
15.626	45.2593
15.644	45.2536
15.662	45.2552
15.68	45.263
15.698	45.2752
15.716	45.2888
15.734	45.3003
15.752	45.3071
15.77	45.3065
15.788	45.2965
15.806	45.277
15.824	45.2487
15.842	45.2133
15.86	45.1743
15.878	45.1347
15.896	45.0976
15.914	45.0669
15.932	45.0445
15.95	45.0316
15.968	45.0288
15.986	45.0351
16.004	45.0488
16.022	45.068
16.04	45.0895
16.058	45.1108
16.076	45.1298
16.094	45.1437
16.112	45.1508
16.13	45.1501
16.148	45.1406
16.166	45.1226
16.184	45.0967
16.202	45.0636
16.22	45.0254
16.238	44.9841
16.256	44.9416
16.274	44.9008
16.292	44.8635
16.31	44.8315
16.328	44.8065
16.346	44.7891
16.364	44.7796
16.382	44.7775
16.4	44.781
16.418	44.789
16.436	44.7984
16.454	44.8067
16.472	44.8123
16.49	44.8121
16.508	44.8051
16.526	44.7904
16.544	44.7675
16.562	44.7376
16.58	44.7012
16.598	44.6607
16.616	44.618
16.634	44.5747
16.652	44.5333
16.67	44.4948
16.688	44.4603
16.706	44.4305
16.724	44.4054
16.742	44.3846
16.76	44.3673
16.778	44.3529
16.796	44.3401
16.814	44.3279
16.832	44.3157
16.85	44.3026
16.868	44.2885
16.886	44.2731
16.904	44.2572
16.922	44.2412
16.94	44.2257
16.958	44.2123
16.976	44.2018
16.994	44.1953
17.012	44.1937
17.03	44.1977
17.048	44.208
17.066	44.2243
17.084	44.2467
17.102	44.274
17.12	44.3057
17.138	44.3399
17.156	44.3753
17.174	44.4106
17.192	44.4436
17.21	44.4735
17.228	44.4984
17.246	44.5178
17.264	44.531
17.282	44.5377
17.3	44.5381
17.318	44.5326
17.336	44.522
17.354	44.5067
17.372	44.488
17.39	44.466
17.408	44.4417
17.426	44.4152
17.444	44.3866
17.462	44.3559
17.48	44.3229
17.498	44.2876
17.516	44.25
17.534	44.2102
17.552	44.169
17.57	44.1267
17.588	44.0849
17.606	44.0446
17.624	44.0073
17.642	43.975
17.66	43.9486
17.678	43.9301
17.696	43.9199
17.714	43.9189
17.732	43.9268
17.75	43.9438
17.768	43.9676
17.786	43.9979
17.804	44.0311
17.822	44.0661
17.84	44.0989
17.858	44.1275
17.876	44.1491
17.894	44.1612
17.912	44.1624
17.93	44.1507
17.948	44.126
17.966	44.0883
17.984	44.0387
18.002	43.9788
18.02	43.9113
18.038	43.838
18.056	43.7633
18.074	43.6884
18.092	43.6181
18.11	43.553
18.128	43.4966
18.146	43.449
18.164	43.4118
18.182	43.3841
18.2	43.3659
18.218	43.3551
18.236	43.3512
18.254	43.3509
18.272	43.3535
18.29	43.3557
18.308	43.3571
18.326	43.3551
18.344	43.3495
18.362	43.3388
18.38	43.3234
18.398	43.3033
18.416	43.2792
18.434	43.2515
18.452	43.2217
18.47	43.1906
18.488	43.1596
18.506	43.1294
18.524	43.1011
18.542	43.0753
18.56	43.0526
18.578	43.0331
18.596	43.0168
18.614	43.0036
18.632	42.9928
18.65	42.9843
18.668	42.9768
18.686	42.9702
18.704	42.9632
18.722	42.9556
18.74	42.9461
18.758	42.9344
18.776	42.9194
18.794	42.901
18.812	42.8785
18.83	42.852
18.848	42.821
18.866	42.7862
18.884	42.7477
18.902	42.7062
18.92	42.6624
18.938	42.6173
18.956	42.5722
18.974	42.528
18.992	42.4865
19.01	42.4484
19.028	42.4154
19.046	42.3881
19.064	42.3677
19.082	42.3543
19.1	42.3485
19.118	42.3498
19.136	42.3581
19.154	42.3727
19.172	42.3923
19.19	42.4164
19.208	42.4431
19.226	42.472
19.244	42.5008
19.262	42.5293
19.28	42.5554
19.298	42.5793
19.316	42.5998
19.334	42.6171
19.352	42.631
19.37	42.6414
19.388	42.6492
19.406	42.6543
19.424	42.6575
19.442	42.659
19.46	42.6592
19.478	42.6583
19.496	42.6563
19.514	42.6534
19.532	42.6489
19.55	42.6428
19.568	42.6345
19.586	42.6236
19.604	42.6098
19.622	42.5923
19.64	42.5713
19.658	42.5469
19.676	42.5192
19.694	42.4895
19.712	42.4576
19.73	42.4265
19.748	42.3957
19.766	42.3686
19.784	42.3455
19.802	42.3287
19.82	42.3198
19.838	42.3194
19.856	42.3294
19.874	42.3495
19.892	42.3805
19.91	42.4222
19.928	42.4731
19.946	42.5337
19.964	42.6004
19.982	42.6734
20	42.7488
20.018	42.825
20.036	42.8999
20.054	42.9692
20.072	43.0333
20.09	43.0868
20.108	43.1305
20.126	43.1606
20.144	43.1771
20.162	43.1787
20.18	43.1644
20.198	43.1348
20.216	43.0895
20.234	43.029
20.252	42.955
20.27	42.8672
20.288	42.7686
20.306	42.6588
20.324	42.5409
20.342	42.4162
20.36	42.2858
20.378	42.1531
20.396	42.0176
20.414	41.8838
20.432	41.751
20.45	41.6226
20.468	41.4997
20.486	41.3833
20.504	41.2766
20.522	41.1789
20.54	41.0936
20.558	41.0203
20.576	40.9609
20.594	40.9166
20.612	40.8871
20.63	40.8735
20.648	40.8756
20.666	40.8931
20.684	40.9263
20.702	40.9736
20.72	41.0347
20.738	41.1088
20.756	41.1927
20.774	41.2875
20.792	41.3881
20.81	41.4948
20.828	41.6046
20.846	41.7134
20.864	41.8222
20.882	41.9247
20.9	42.0217
20.918	42.1096
20.936	42.1855
20.954	42.2499
20.972	42.2988
20.99	42.3328
21.008	42.3506
21.026	42.3513
21.044	42.3357
21.062	42.304
21.08	42.256
21.098	42.1945
21.116	42.1195
21.134	42.0327
21.152	41.9379
21.17	41.8338
21.188	41.726
21.206	41.6147
21.224	41.5019
21.242	41.3924
21.26	41.2847
21.278	41.1831
21.296	41.0884
21.314	41.0011
21.332	40.9237
21.35	40.8555
21.368	40.7976
21.386	40.7504
21.404	40.7134
21.422	40.6861
21.44	40.6689
21.458	40.6601
21.476	40.6592
21.494	40.6658
21.512	40.6774
21.53	40.6946
21.548	40.7155
21.566	40.7386
21.584	40.7644
21.602	40.7903
21.62	40.8164
21.638	40.8421
21.656	40.8658
21.674	40.8881
21.692	40.9078
21.71	40.9246
21.728	40.9383
21.746	40.9477
21.764	40.953
21.782	40.9536
21.8	40.9488
21.818	40.9391
21.836	40.9232
21.854	40.9012
21.872	40.8731
21.89	40.8386
21.908	40.7978
21.926	40.7512
21.944	40.6985
21.962	40.64
21.98	40.5775
21.998	40.5103
22.016	40.4398
22.034	40.3684
22.052	40.2949
22.07	40.2221
22.088	40.1521
22.106	40.0837
22.124	40.021
22.142	39.9645
22.16	39.9141
22.178	39.873
22.196	39.8405
22.214	39.8172
22.232	39.8044
22.25	39.8019
22.268	39.8084
22.286	39.824
22.304	39.8486
22.322	39.8786
22.34	39.9147
22.358	39.9553
22.376	39.9954
22.394	40.0367
22.412	40.0759
22.43	40.108
22.448	40.1354
22.466	40.154
22.484	40.1599
22.502	40.1553
22.52	40.1368
22.538	40.1026
22.556	40.0538
22.574	39.9895
22.592	39.9088
22.61	39.8128
22.628	39.7038
22.646	39.5802
22.664	39.4448
22.682	39.3019
22.7	39.1489
22.718	38.9905
22.736	38.8321
22.754	38.6706
22.772	38.5114
22.79	38.3593
22.808	38.2114
22.826	38.0729
22.844	37.9475
22.862	37.8328
22.88	37.7326
22.898	37.649
22.916	37.5805
22.934	37.5286
22.952	37.4941
22.97	37.4763
22.988	37.4743
23.006	37.4888
23.024	37.5191
23.042	37.562
23.06	37.6182
23.078	37.6868
23.096	37.7633
23.114	37.8484
23.132	37.9413
23.15	38.0366
23.168	38.1354
23.186	38.2366
23.204	38.3347
23.222	38.4307
23.24	38.5237
23.258	38.6095
23.276	38.6884
23.294	38.7603
23.312	38.8229
23.33	38.8762
23.348	38.9205
23.366	38.9548
23.384	38.9793
23.402	38.994
23.42	38.9987
23.438	38.9931
23.456	38.9776
23.474	38.9534
23.492	38.9203
23.51	38.8785
23.528	38.8298
23.546	38.7739
23.564	38.711
23.582	38.6437
23.6	38.5728
23.618	38.4974
23.636	38.4209
23.654	38.345
23.672	38.268
23.69	38.1937
23.708	38.1243
23.726	38.0579
23.744	37.9974
23.762	37.9456
23.78	37.9006
23.798	37.8645
23.816	37.8399
23.834	37.8257
23.852	37.8226
23.87	37.8321
23.888	37.8547
23.906	37.8894
23.924	37.9351
23.942	37.993
23.96	38.062
23.978	38.1387
23.996	38.223
24.014	38.3158
24.032	38.4108
24.05	38.5042
24.068	38.6003
24.086	38.6918
24.104	38.7722
24.122	38.8459
24.14	38.9088
24.158	38.9544
24.176	38.9841
24.194	38.9979
24.212	38.9926
24.23	38.9679
24.248	38.9246
24.266	38.8612
24.284	38.7758
24.302	38.669
24.32	38.5435
24.338	38.4011
24.356	38.2374
24.374	38.0596
24.392	37.8776
24.41	37.6876
24.428	37.4915
24.446	37.302
24.464	37.1225
24.482	36.9467
24.5	36.789
24.518	36.6615
24.536	36.5565
24.554	36.4787
24.572	36.4366
24.59	36.4316
24.608	36.46
24.626	36.5206
24.644	36.6154
24.662	36.7459
24.68	36.9004
24.698	37.0696
24.716	37.2655
24.734	37.4738
24.752	37.6724
24.77	37.8635
24.788	38.051
24.806	38.2119
24.824	38.3305
24.842	38.4215
24.86	38.472
24.878	38.4651
24.896	38.4024
24.914	38.2873
24.932	38.1148
24.95	37.8786
24.968	37.5793
24.986	37.229
25.004	36.8393
25.022	36.3992
25.04	35.9178
25.058	35.416
25.076	34.9016
25.094	34.3617
25.112	33.8159
25.13	33.2841
25.148	32.7541
25.166	32.2322
25.184	31.738
25.202	31.281
25.22	30.8499
25.238	30.4541
25.256	30.1039
25.274	29.7942
25.292	29.5262
25.31	29.3081
25.328	29.1446
25.346	29.0304
25.364	28.969
25.382	28.9647
25.4	29.0164
25.418	29.1231
25.436	29.288
25.454	29.5134
25.472	29.7977
25.49	30.1406
25.508	30.5422
25.526	31.008
25.544	31.5367
25.562	32.1136
25.58	32.7255
25.598	33.3895
25.616	34.0921
25.634	34.8036
25.652	35.511
25.67	36.243
25.688	36.9608
25.706	37.6194
25.724	38.2253
25.742	38.7938
25.76	39.2754
25.778	39.6247
25.796	39.8725
25.814	40.0083
25.832	39.9925
25.85	39.7981
25.868	39.4515
25.886	38.9414
25.904	38.2502
25.922	37.3652
25.94	36.2962
25.958	35.0593
25.976	33.6703
25.994	32.1073
26.012	30.3823
26.03	28.5395
26.048	26.615
26.066	24.5646
26.084	22.4205
26.102	20.2429
26.12	18.0658
26.138	15.8356
26.156	13.6014
26.174	11.4265
26.192	9.329543
26.21	7.268300
26.228	5.286846
26.246	3.432352
26.264	1.704058
26.282	0.081519
26.3	-1.406874
26.318	-2.733198
26.336	-3.899913
26.354	-4.917535
26.372	-5.784075
26.39	-6.497156
26.408	-7.050829
26.426	-7.453807
26.444	-7.719199
26.462	-7.856797
26.48	-7.850925
26.498	-7.714998
26.516	-7.470859
26.534	-7.133916
26.552	-6.685554
26.57	-6.138149
26.588	-5.510669
26.606	-4.815353
26.624	-4.037887
26.642	-3.186503
26.66	-2.272881
26.678	-1.304806
26.696	-0.275526
26.714	0.814090
26.732	1.962090
26.75	3.166597
26.768	4.427654
26.786	5.747098
26.804	7.126806
26.822	8.567427
26.84	10.0669
26.858	11.6265
26.876	13.2477
26.894	14.9332
26.912	16.6846
26.93	18.494
26.948	20.3531
26.966	22.3553
26.984	24.6511
27.002	26.8704
27.02	28.6108
27.028	29.0739