File: Bakgrunnsmateriale/MATLAB/FTIR/ftir_data/subBb/Mapping_121/C-4040-8_t97_cm-1.asc
PE IR       SPECTRUM    SPECTRUM    ASCII       PEDS        1.60
  -1
C-1EEF~1.ASC
17/03/27
22:28:20.00
17/03/27
22:28:20.00
tln
$C-4040-8_t0097$<tbV0>[-7.8,7.8,8.0,0.0,27,1,0]
370
64

2002,4.07
MIRTGS : RIGHTBACK : INTERNAL 2
MIR : ON : INTERNAL 2
OPTKBR

0.200000
8
8.000000
FILLER
RATIO
SPECTRUM
UNLOCKED 256

DOUBLE
64
COMBINED
1
0
0

1.000000
RATIO

1
0
TRUE
51149
0
LEFT NOT FITTED RIGHT NOT FITTED 0
NONE
NONE
15600
12
4.427000
51148
TRUE
1 0 8 72 0 0 0 0

15798

#HDR
-1
-1
#GR
CM-1
%T
2.38419e-05
0.0
5000
-1.000000
4631
8
200
27.3991
#DATA
5000	65.2413
4996	65.0916
4992	65.0939
4988	65.2543
4984	65.2524
4980	64.7976
4976	64.535
4972	64.6886
4968	64.9868
4964	65.2275
4960	65.2477
4956	65.2749
4952	65.2404
4948	64.994
4944	64.8421
4940	64.9469
4936	65.0165
4932	64.8342
4928	64.7167
4924	64.8861
4920	65.1929
4916	65.3676
4912	65.1778
4908	64.8344
4904	64.7141
4900	64.8201
4896	64.8899
4892	64.8329
4888	64.9552
4884	65.3837
4880	65.5847
4876	65.3806
4872	65.5684
4868	66.1318
4864	66.1139
4860	65.6009
4856	65.1551
4852	65.1075
4848	65.3761
4844	65.3188
4840	64.9335
4836	64.7613
4832	64.9118
4828	65.138
4824	65.2488
4820	65.1714
4816	65.0131
4812	64.9405
4808	64.9734
4804	65.0691
4800	65.137
4796	65.2633
4792	65.4658
4788	65.4516
4784	65.2077
4780	65.0125
4776	64.9803
4772	65.0243
4768	65.0091
4764	64.9508
4760	64.9732
4756	65.0292
4752	65.0177
4748	64.8597
4744	64.6592
4740	64.6768
4736	64.8615
4732	65.0698
4728	65.2213
4724	65.2306
4720	65.0844
4716	64.9304
4712	64.917
4708	64.9701
4704	64.9975
4700	64.9511
4696	64.9049
4692	64.9804
4688	65.1036
4684	65.1406
4680	65.0294
4676	64.9842
4672	65.1395
4668	65.2466
4664	65.1526
4660	65.0535
4656	65.2352
4652	65.4854
4648	65.5368
4644	65.5056
4640	65.3872
4636	65.2254
4632	65.1937
4628	65.2425
4624	65.3097
4620	65.4186
4616	65.4665
4612	65.3499
4608	65.0565
4604	64.7087
4600	64.6009
4596	64.8278
4592	65.1439
4588	65.3888
4584	65.5453
4580	65.5192
4576	65.3742
4572	65.2965
4568	65.3319
4564	65.4971
4560	65.7887
4556	65.9818
4552	65.929
4548	65.8377
4544	65.6915
4540	65.2139
4536	64.7449
4532	64.9083
4528	65.1871
4524	65.2042
4520	65.4585
4516	65.6507
4512	65.5449
4508	65.4142
4504	65.2821
4500	65.2958
4496	65.3851
4492	65.3111
4488	65.2672
4484	65.4464
4480	65.6983
4476	65.7377
4472	65.5195
4468	65.2971
4464	65.2071
4460	65.1182
4456	65.0041
4452	65.2072
4448	65.4794
4444	65.3994
4440	65.4529
4436	65.7402
4432	65.8287
4428	65.6637
4424	65.1079
4420	64.0966
4416	63.8944
4412	64.8438
4408	65.924
4404	66.4064
4400	66.1595
4396	65.9916
4392	69.33
4388	70.4
4384	59.6892
4380	55.9945
4376	63.0136
4372	65.9119
4368	66.0746
4364	65.4713
4360	65.1831
4356	65.1907
4352	65.4386
4348	65.735
4344	65.7716
4340	65.5096
4336	65.5032
4332	65.8389
4328	66.0679
4324	66.2754
4320	66.147
4316	65.6054
4312	65.1973
4308	64.9923
4304	65.0322
4300	65.2435
4296	65.2552
4292	65.0391
4288	65.0007
4284	65.0952
4280	65.075
4276	65.2691
4272	65.5714
4268	65.7491
4264	65.7955
4260	65.5226
4256	65.0922
4252	64.719
4248	64.7135
4244	65.079
4240	65.2758
4236	65.2772
4232	65.1458
4228	64.9318
4224	64.9256
4220	65.0758
4216	65.1653
4212	65.0907
4208	64.876
4204	64.637
4200	64.4569
4196	64.2655
4192	64.0354
4188	64.2799
4184	65.1261
4180	65.571
4176	65.484
4172	65.5296
4168	65.534
4164	65.3116
4160	64.918
4156	64.7651
4152	65.066
4148	65.274
4144	65.4021
4140	65.5176
4136	65.2617
4132	64.9128
4128	64.9279
4124	65.1189
4120	65.1778
4116	65.223
4112	65.2458
4108	65.2151
4104	65.243
4100	65.2308
4096	65.0983
4092	64.8901
4088	64.8273
4084	64.9195
4080	64.8887
4076	64.7374
4072	64.7549
4068	64.91
4064	64.8782
4060	64.8555
4056	65.0424
4052	65.1174
4048	64.9533
4044	64.8925
4040	65.0646
4036	65.1919
4032	65.2353
4028	65.341
4024	65.5319
4020	65.5778
4016	65.3106
4012	65.0943
4008	65.173
4004	65.2627
4000	65.1503
3996	65.0464
3992	65.1376
3988	65.2765
3984	65.4009
3980	65.3998
3976	65.2046
3972	65.1374
3968	65.2585
3964	65.3606
3960	65.2824
3956	65.0086
3952	64.864
3948	64.9819
3944	65.1725
3940	65.2372
3936	65.0922
3932	65.0291
3928	65.0914
3924	65.0629
3920	65.0734
3916	65.2849
3912	65.6047
3908	65.7125
3904	65.5163
3900	65.2414
3896	65.0215
3892	64.9001
3888	64.9612
3884	65.1287
3880	65.2291
3876	65.3122
3872	65.2886
3868	65.1447
3864	65.1783
3860	65.2778
3856	65.2704
3852	65.2217
3848	65.1856
3844	65.2801
3840	65.3613
3836	65.2327
3832	65.0295
3828	64.9366
3824	65.0944
3820	65.4029
3816	65.5116
3812	65.3682
3808	65.1815
3804	65.0923
3800	65.1771
3796	65.3478
3792	65.4139
3788	65.3421
3784	65.2432
3780	65.1957
3776	65.2591
3772	65.4094
3768	65.4076
3764	65.2555
3760	65.2492
3756	65.3038
3752	65.2128
3748	65.1585
3744	65.198
3740	65.1591
3736	65.054
3732	65.0728
3728	65.2759
3724	65.3312
3720	65.1402
3716	65.0194
3712	65.043
3708	65.1486
3704	65.2385
3700	65.2144
3696	65.1918
3692	65.2613
3688	65.3468
3684	65.2994
3680	65.1114
3676	64.9715
3672	65.0744
3668	65.3268
3664	65.3843
3660	65.2515
3656	65.1957
3652	65.2261
3648	65.2575
3644	65.252
3640	65.1977
3636	65.1572
3632	65.1266
3628	65.1098
3624	65.1454
3620	65.229
3616	65.2917
3612	65.2353
3608	65.1236
3604	65.0866
3600	65.1461
3596	65.2529
3592	65.3011
3588	65.2784
3584	65.2922
3580	65.2495
3576	65.1071
3572	65.139
3568	65.332
3564	65.4009
3560	65.2655
3556	65.0619
3552	65.0812
3548	65.2295
3544	65.2023
3540	65.1217
3536	65.1363
3532	65.1126
3528	65.0493
3524	65.1399
3520	65.2678
3516	65.2622
3512	65.2917
3508	65.3899
3504	65.3636
3500	65.215
3496	65.1142
3492	65.1858
3488	65.2349
3484	65.0459
3480	64.9661
3476	65.1641
3472	65.3154
3468	65.4298
3464	65.5911
3460	65.581
3456	65.319
3452	65.037
3448	65.1231
3444	65.3662
3440	65.353
3436	65.2985
3432	65.3731
3428	65.4263
3424	65.3405
3420	65.2347
3416	65.2506
3412	65.3179
3408	65.3863
3404	65.4395
3400	65.3848
3396	65.2542
3392	65.192
3388	65.2016
3384	65.1887
3380	65.212
3376	65.3355
3372	65.4345
3368	65.4145
3364	65.3365
3360	65.2405
3356	65.1904
3352	65.3628
3348	65.5489
3344	65.4177
3340	65.1952
3336	65.0872
3332	65.0373
3328	65.097
3324	65.1834
3320	65.1484
3316	65.0767
3312	65.0518
3308	65.0256
3304	65.0459
3300	65.1279
3296	65.1933
3292	65.1843
3288	65.0941
3284	65.0467
3280	65.0949
3276	65.2062
3272	65.2625
3268	65.2258
3264	65.2269
3260	65.2499
3256	65.263
3252	65.255
3248	65.2561
3244	65.2997
3240	65.2505
3236	65.1542
3232	65.088
3228	65.0642
3224	65.1998
3220	65.3499
3216	65.3582
3212	65.3464
3208	65.3014
3204	65.1689
3200	65.0591
3196	64.9979
3192	65.0327
3188	65.1102
3184	65.1236
3180	65.1605
3176	65.1948
3172	65.173
3168	65.1414
3164	65.1916
3160	65.3476
3156	65.3853
3152	65.2297
3148	65.1127
3144	65.1914
3140	65.2403
3136	65.0499
3132	65.0871
3128	65.426
3124	65.4547
3120	65.2526
3116	65.1587
3112	65.2472
3108	65.4869
3104	65.6062
3100	65.5508
3096	65.4355
3092	65.2645
3088	65.1278
3084	65.0876
3080	65.1459
3076	65.2925
3072	65.3795
3068	65.3181
3064	65.2204
3060	65.1193
3056	65.0454
3052	65.0852
3048	65.2353
3044	65.3931
3040	65.4179
3036	65.3308
3032	65.2746
3028	65.3069
3024	65.2984
3020	65.2695
3016	65.3824
3012	65.4772
3008	65.3894
3004	65.2574
3000	65.2378
2996	65.3102
2992	65.3723
2988	65.3642
2984	65.2987
2980	65.2802
2976	65.2948
2972	65.215
2968	65.1018
2964	65.0692
2960	65.1001
2956	65.1378
2952	65.1508
2948	65.1643
2944	65.222
2940	65.2499
2936	65.1505
2932	65.0319
2928	64.9716
2924	64.8781
2920	64.8111
2916	64.8742
2912	65.0122
2908	65.1343
2904	65.1752
2900	65.1607
2896	65.1736
2892	65.2378
2888	65.2387
2884	65.1617
2880	65.1562
2876	65.1752
2872	65.1218
2868	65.1136
2864	65.256
2860	65.3646
2856	65.2806
2852	65.1838
2848	65.2021
2844	65.2679
2840	65.3446
2836	65.3938
2832	65.3607
2828	65.3008
2824	65.324
2820	65.4067
2816	65.417
2812	65.3586
2808	65.3126
2804	65.2822
2800	65.2928
2796	65.3684
2792	65.4209
2788	65.3398
2784	65.257
2780	65.3022
2776	65.2722
2772	65.1738
2768	65.1595
2764	65.1645
2760	65.1892
2756	65.2752
2752	65.3955
2748	65.4576
2744	65.3949
2740	65.2982
2736	65.2444
2732	65.2228
2728	65.2717
2724	65.356
2720	65.3594
2716	65.314
2712	65.298
2708	65.2943
2704	65.2676
2700	65.2619
2696	65.3341
2692	65.3813
2688	65.3377
2684	65.3175
2680	65.3191
2676	65.3209
2672	65.3848
2668	65.4669
2664	65.5267
2660	65.5435
2656	65.4501
2652	65.2755
2648	65.1891
2644	65.2469
2640	65.2953
2636	65.252
2632	65.2201
2628	65.2421
2624	65.2577
2620	65.2703
2616	65.2487
2612	65.232
2608	65.3234
2604	65.3747
2600	65.2711
2596	65.1872
2592	65.2071
2588	65.2466
2584	65.3057
2580	65.3442
2576	65.3275
2572	65.3472
2568	65.3898
2564	65.364
2560	65.2998
2556	65.2913
2552	65.3334
2548	65.4366
2544	65.5295
2540	65.427
2536	65.2578
2532	65.1939
2528	65.239
2524	65.37
2520	65.4162
2516	65.33
2512	65.2424
2508	65.2016
2504	65.2251
2500	65.2998
2496	65.3942
2492	65.5122
2488	65.5247
2484	65.4461
2480	65.4696
2476	65.5229
2472	65.4732
2468	65.3307
2464	65.2431
2460	65.3415
2456	65.4752
2452	65.4634
2448	65.3939
2444	65.3112
2440	65.195
2436	65.2186
2432	65.3592
2428	65.451
2424	65.5605
2420	65.5832
2416	65.3789
2412	65.2096
2408	65.2431
2404	65.3116
2400	65.3389
2396	65.3422
2392	65.3332
2388	65.2833
2384	65.2241
2380	65.2384
2376	65.2386
2372	65.2561
2368	65.3507
2364	65.3986
2360	65.3773
2356	65.3228
2352	65.2857
2348	65.3475
2344	65.3872
2340	65.3342
2336	65.3261
2332	65.3553
2328	65.3397
2324	65.3578
2320	65.4456
2316	65.4175
2312	65.2544
2308	65.1792
2304	65.2413
2300	65.29
2296	65.2763
2292	65.2825
2288	65.3218
2284	65.3601
2280	65.3798
2276	65.3747
2272	65.3559
2268	65.3574
2264	65.3936
2260	65.3935
2256	65.3338
2252	65.3267
2248	65.3786
2244	65.3381
2240	65.2242
2236	65.2113
2232	65.2998
2228	65.3367
2224	65.3183
2220	65.3485
2216	65.3643
2212	65.2949
2208	65.2507
2204	65.2948
2200	65.3423
2196	65.3531
2192	65.3214
2188	65.2595
2184	65.2709
2180	65.3117
2176	65.3223
2172	65.4011
2168	65.4695
2164	65.4803
2160	65.4595
2156	65.3912
2152	65.2415
2148	65.109
2144	65.2354
2140	65.4123
2136	65.4431
2132	65.4433
2128	65.3985
2124	65.3316
2120	65.3412
2116	65.4016
2112	65.4803
2108	65.4708
2104	65.3311
2100	65.2515
2096	65.3146
2092	65.4148
2088	65.4493
2084	65.4486
2080	65.4465
2076	65.4187
2072	65.4909
2068	65.6449
2064	65.5282
2060	65.1998
2056	65.0512
2052	65.2071
2048	65.4718
2044	65.5486
2040	65.4258
2036	65.3094
2032	65.2884
2028	65.2827
2024	65.3387
2020	65.4569
2016	65.4845
2012	65.468
2008	65.445
2004	65.3411
2000	65.2784
1996	65.3875
1992	65.5053
1988	65.5404
1984	65.5254
1980	65.4413
1976	65.3712
1972	65.3853
1968	65.4496
1964	65.4272
1960	65.3131
1956	65.2787
1952	65.2842
1948	65.2443
1944	65.2385
1940	65.3003
1936	65.3745
1932	65.3861
1928	65.3447
1924	65.331
1920	65.3485
1916	65.3241
1912	65.2466
1908	65.2026
1904	65.2301
1900	65.3012
1896	65.341
1892	65.3352
1888	65.3314
1884	65.3047
1880	65.2951
1876	65.3501
1872	65.3918
1868	65.3544
1864	65.3307
1860	65.3463
1856	65.3183
1852	65.2866
1848	65.2906
1844	65.3382
1840	65.4044
1836	65.4495
1832	65.4689
1828	65.4526
1824	65.4338
1820	65.4398
1816	65.4047
1812	65.3221
1808	65.3081
1804	65.3672
1800	65.3878
1796	65.3482
1792	65.3156
1788	65.3162
1784	65.3095
1780	65.2838
1776	65.3068
1772	65.3393
1768	65.2979
1764	65.261
1760	65.2263
1756	65.1502
1752	65.1415
1748	65.2084
1744	65.1946
1740	65.0688
1736	64.9568
1732	64.9591
1728	65.0634
1724	65.1575
1720	65.172
1716	65.156
1712	65.2254
1708	65.3551
1704	65.3309
1700	65.1962
1696	65.1686
1692	65.233
1688	65.2992
1684	65.3238
1680	65.2923
1676	65.2134
1672	65.1756
1668	65.212
1664	65.2435
1660	65.2513
1656	65.1976
1652	65.1705
1648	65.2798
1644	65.3644
1640	65.2992
1636	65.1812
1632	65.1154
1628	65.0992
1624	65.1627
1620	65.2806
1616	65.2646
1612	65.1092
1608	65.0644
1604	65.1651
1600	65.2201
1596	65.1691
1592	65.1173
1588	65.1232
1584	65.1301
1580	65.137
1576	65.1172
1572	65.0534
1568	65.0376
1564	65.0246
1560	64.9655
1556	64.9959
1552	65.1754
1548	65.2931
1544	65.2453
1540	65.2026
1536	65.2297
1532	65.2136
1528	65.1409
1524	65.1442
1520	65.208
1516	65.1974
1512	65.1997
1508	65.3051
1504	65.3704
1500	65.3641
1496	65.3348
1492	65.1815
1488	65.0165
1484	65.029
1480	65.1086
1476	65.1187
1472	65.1043
1468	65.116
1464	65.1265
1460	65.1324
1456	65.0737
1452	64.9805
1448	65.0624
1444	65.2707
1440	65.3079
1436	65.1492
1432	65.0165
1428	65.0231
1424	65.0915
1420	65.1071
1416	65.104
1412	65.1776
1408	65.2486
1404	65.1651
1400	65.0007
1396	64.9732
1392	65.0585
1388	65.1378
1384	65.2085
1380	65.194
1376	65.1215
1372	65.0763
1368	65.0453
1364	65.0079
1360	64.98
1356	64.9951
1352	65.0903
1348	65.2269
1344	65.2085
1340	65.0391
1336	64.9055
1332	64.8972
1328	64.9957
1324	65.0957
1320	65.0572
1316	64.8635
1312	64.745
1308	64.8385
1304	65.0208
1300	65.1589
1296	65.2009
1292	65.1454
1288	65.042
1284	64.9699
1280	64.979
1276	64.9959
1272	64.9313
1268	64.8485
1264	64.8566
1260	64.9574
1256	65.0107
1252	64.9622
1248	64.9431
1244	65.0233
1240	65.0895
1236	65.0017
1232	64.8415
1228	64.7798
1224	64.8823
1220	65.0336
1216	65.0126
1212	64.9068
1208	64.9001
1204	64.9416
1200	64.9848
1196	65.0127
1192	64.9986
1188	64.9882
1184	64.989
1180	65.0174
1176	65.0247
1172	64.9655
1168	64.9077
1164	64.8834
1160	64.9431
1156	64.961
1152	64.846
1148	64.8133
1144	64.8563
1140	64.8345
1136	64.7687
1132	64.7296
1128	64.8157
1124	64.9464
1120	64.9395
1116	64.8871
1112	64.9062
1108	64.8834
1104	64.7781
1100	64.7475
1096	64.8781
1092	64.9671
1088	64.8199
1084	64.6517
1080	64.699
1076	64.8068
1072	64.7933
1068	64.749
1064	64.6826
1060	64.5887
1056	64.6127
1052	64.6991
1048	64.7393
1044	64.7527
1040	64.7902
1036	64.8948
1032	64.9675
1028	65.0017
1024	65.0814
1020	64.9426
1016	64.5577
1012	64.3808
1008	64.4629
1004	64.6103
1000	64.7591
996	 64.8193
992	 64.8162
988	 64.7415
984	 64.6403
980	 64.6252
976	 64.5106
972	 64.3957
968	 64.458
964	 64.5503
960	 64.6374
956	 64.57
952	 64.4356
948	 64.4515
944	 64.5089
940	 64.5752
936	 64.6338
932	 64.7932
928	 65.1935
924	 65.6802
920	 65.8497
916	 65.2618
912	 64.5514
908	 64.4552
904	 64.3591
900	 64.2232
896	 64.5426
892	 64.7924
888	 64.7231
884	 64.7639
880	 64.8606
876	 64.7034
872	 64.5015
868	 64.4956
864	 64.5099
860	 64.4742
856	 64.4334
852	 64.3384
848	 64.2374
844	 64.2373
840	 64.2458
836	 64.1817
832	 64.2474
828	 64.3987
824	 64.4271
820	 64.424
816	 64.3789
812	 64.2733
808	 64.1635
804	 64.0075
800	 63.9234
796	 64.0042
792	 63.9684
788	 63.7395
784	 63.6002
780	 63.6825
776	 63.8387
772	 63.8581
768	 63.8275
764	 63.7337
760	 63.5791
756	 63.6
752	 63.5948
748	 63.6092
744	 63.7827
740	 63.6076
736	 63.1701
732	 63.1499
728	 63.42
724	 63.4019
720	 63.2308
716	 63.2055
712	 63.1829
708	 63.2346
704	 63.4794
700	 63.5292
696	 63.2448
692	 63.0646
688	 63.1285
684	 63.2969
680	 63.4371
676	 63.45
672	 63.2912
668	 62.9393
664	 62.7679
660	 62.7265
656	 62.5552
652	 62.4761
648	 62.549
644	 62.77
640	 62.9175
636	 62.82
632	 62.6959
628	 62.6219
624	 62.6373
620	 62.6426
616	 62.5035
612	 62.5016
608	 62.7072
604	 62.7607
600	 62.4745
596	 62.0903
592	 61.9202
588	 61.7488
584	 61.6545
580	 62.1287
576	 62.661
572	 62.6434
568	 62.3972
564	 62.3644
560	 62.5209
556	 62.6399
552	 62.5926
548	 62.263
544	 61.7099
540	 61.3422
536	 61.346
532	 61.3858
528	 61.5791
524	 62.0495
520	 62.1392
516	 61.6572
512	 61.2697
508	 61.1547
504	 60.8558
500	 60.7392
496	 61.1516
492	 61.8268
488	 62.1966
484	 61.4453
480	 60.0248
476	 58.9449
472	 58.8072
468	 59.0011
464	 59.0394
460	 59.6666
456	 60.5067
452	 60.2425
448	 58.9159
444	 57.7625
440	 57.8708
436	 59.6164
432	 61.0436
428	 60.6287
424	 59.1049
420	 58.095
416	 57.3639
412	 56.1811
408	 55.9983
404	 61.217
400	 72.3432
396	 67.9903
392	 49.2841
388	 31.2683
384	 32.0779
380	 65.6431
376	 158.856
372	 200
370	 195.956