File: Bakgrunnsmateriale/MATLAB/FTIR/ftir_data/subBb/Mapping_121/C-4040-8_t45.asc
PE IR       SPECTRUM    SPECTRUM    ASCII       PEDS        1.60
  -1
C-B53E~1.ASC
17/03/27
18:13:55.00
17/03/27
18:14:21.00
tln
$C-4040-8_t0045$<tbV0>[13.0,-2.6,8.0,0.0,27,1,0]
27.028
64

2002,4.07
MIRTGS : RIGHTBACK : INTERNAL 2
MIR : ON : INTERNAL 2
OPTKBR

0.200000
8
8.000000
FILLER
RATIO
SPECTRUM
UNLOCKED 256

DOUBLE
64
COMBINED
1
0
0

0.002000
RATIO

1
0
TRUE
51149
0
LEFT NOT FITTED RIGHT NOT FITTED 0
NONE
NONE
15600
12
4.427000
51148
TRUE
1 0 8 72 0 0 0 0

15798

#HDR
-1
-1
#GR
µM
%T
2.38419e-05
0.0
2.000000
0.002000
12515
8
75.8802
-14.9779
#DATA
2.000000	 64.9082
2.018000	 64.746
2.036000	 64.4931
2.054000	 64.597
2.072000	 64.6218
2.090000	 65.2793
2.108000	 64.7094
2.126000	 65.1189
2.144000	 64.4838
2.162000	 64.8146
2.180000	 64.6785
2.198000	 64.5616
2.216000	 65.7097
2.234000	 65.0611
2.252000	 64.9819
2.270000	 65.3646
2.288000	 67.824
2.306000	 65.6002
2.324000	 65.5194
2.342000	 65.4203
2.360000	 64.807
2.378000	 65.2403
2.396000	 64.0541
2.414000	 64.7316
2.432000	 65.1919
2.450000	 64.9688
2.468000	 64.9962
2.486000	 65.2081
2.504000	 64.929
2.522000	 64.8998
2.540000	 64.981
2.558000	 65.0345
2.576000	 64.9905
2.594000	 64.9726
2.612000	 64.9648
2.630000	 65.2945
2.648000	 65.2711
2.666000	 65.1191
2.684000	 65.2683
2.702000	 64.9848
2.720000	 65.1465
2.738000	 65.3031
2.756000	 65.1547
2.774000	 65.0773
2.792000	 65.1976
2.810000	 64.9693
2.828000	 65.3723
2.846000	 65.2042
2.864000	 65.1406
2.882000	 65.2331
2.900000	 65.3425
2.918000	 65.1364
2.936000	 65.1335
2.954000	 65.1742
2.972000	 65.2365
2.990000	 64.9659
3.008000	 65.5314
3.026000	 64.7432
3.044000	 65.1506
3.062000	 65.1552
3.080000	 65.1708
3.098000	 65.2134
3.116000	 65.1918
3.134000	 64.8189
3.152000	 65.3176
3.170000	 65.1814
3.188000	 65.0272
3.206000	 65.0087
3.224000	 65.2383
3.242000	 65.1567
3.260000	 65.1487
3.278000	 65.2179
3.296000	 65.0321
3.314000	 65.1459
3.332000	 65.2134
3.350000	 65.1037
3.368000	 65.2073
3.386000	 65.1965
3.404000	 65.1599
3.422000	 65.0086
3.440000	 65.1543
3.458000	 65.1368
3.476000	 65.0448
3.494000	 65.0363
3.512000	 65.0332
3.530000	 65.0929
3.548000	 65.3356
3.566000	 65.305
3.584000	 65.124
3.602000	 65.2117
3.620000	 65.2914
3.638000	 65.2949
3.656000	 65.198
3.674000	 65.2441
3.692000	 65.3896
3.710000	 65.1699
3.728000	 65.2416
3.746000	 65.2967
3.764000	 65.332
3.782000	 65.1385
3.800000	 65.3371
3.818000	 65.3845
3.836000	 65.3285
3.854000	 65.3712
3.872000	 65.3595
3.890000	 65.2995
3.908000	 65.2808
3.926000	 65.4209
3.944000	 65.3666
3.962000	 65.1548
3.980000	 65.4392
3.998000	 65.05
4.016000	 65.0717
4.034000	 65.0699
4.052000	 65.2293
4.070000	 65.3151
4.088000	 65.3484
4.106000	 65.2792
4.124000	 65.6275
4.141999	 64.7719
4.160000	 65.2152
4.178000	 65.1859
4.196000	 65.0794
4.214000	 65.1461
4.232000	 65.3727
4.250000	 65.1349
4.268000	 65.1492
4.286000	 65.2618
4.304000	 65.2225
4.322000	 65.0619
4.340000	 65.3583
4.358000	 65.3121
4.375999	 65.2379
4.394000	 65.104
4.412000	 65.1791
4.430000	 65.264
4.448000	 65.3764
4.466000	 65.2581
4.484000	 65.2028
4.502000	 65.1935
4.520000	 65.3529
4.538000	 65.174
4.556000	 65.123
4.574000	 65.239
4.592000	 65.1266
4.609999	 65.1488
4.628000	 65.428
4.646000	 65.2991
4.664000	 65.3119
4.682000	 65.3718
4.700000	 65.1996
4.718000	 65.2883
4.736000	 65.2178
4.754000	 65.2834
4.772000	 65.3936
4.790000	 65.2263
4.808000	 65.163
4.826000	 65.3243
4.843999	 64.976
4.862000	 65.2404
4.880000	 65.2031
4.898000	 65.3285
4.916000	 65.3758
4.934000	 65.5081
4.952000	 65.2866
4.970000	 65.203
4.988000	 65.286
5.006000	 65.2793
5.024000	 65.343
5.042000	 65.3775
5.060000	 65.3844
5.077999	 65.3777
5.096000	 65.1845
5.114000	 65.1903
5.132000	 65.34
5.150000	 65.403
5.168000	 65.4689
5.186000	 65.3513
5.204000	 65.2926
5.222000	 65.3373
5.240000	 65.2794
5.258000	 65.1887
5.276000	 65.312
5.294000	 65.4435
5.312000	 65.3582
5.330000	 65.3346
5.348000	 65.2453
5.366000	 65.3279
5.384000	 65.2731
5.402000	 65.2516
5.420000	 65.3502
5.438000	 65.417
5.456000	 65.4108
5.474000	 65.3667
5.492000	 65.2096
5.510000	 65.2645
5.528000	 65.3885
5.546000	 65.2604
5.564000	 65.1307
5.582000	 65.242
5.600000	 65.2581
5.618000	 65.3192
5.636000	 65.3484
5.654000	 65.3827
5.672000	 65.2309
5.690000	 65.0812
5.708000	 65.1174
5.726000	 65.0619
5.744000	 65.0198
5.762000	 64.956
5.780000	 64.9259
5.798000	 64.8973
5.816000	 64.8961
5.834000	 64.8401
5.852000	 64.9822
5.870000	 65.2835
5.888000	 65.417
5.906000	 65.3186
5.923999	 65.2832
5.942000	 65.3364
5.960000	 65.212
5.978000	 65.1912
5.996000	 65.2668
6.014000	 65.2432
6.032000	 65.1973
6.050000	 65.2309
6.068000	 65.1989
6.086000	 65.0697
6.104000	 64.9847
6.122000	 64.9954
6.140000	 65.0624
6.158000	 65.1518
6.176000	 65.2381
6.194000	 65.1629
6.212000	 65.1
6.230000	 65.2392
6.248000	 65.2567
6.266000	 65.1182
6.284000	 65.0307
6.302000	 65.016
6.320000	 65.0146
6.338000	 65.0357
6.356000	 65.1597
6.374000	 65.2135
6.392000	 65.0949
6.410000	 65.0035
6.428000	 65.0182
6.446000	 65.0695
6.464000	 65.0756
6.482000	 65.0768
6.500000	 65.089
6.518000	 65.0632
6.536000	 64.9974
6.554000	 64.9259
6.572000	 64.9944
6.590000	 65.1146
6.608000	 65.0918
6.626000	 65.0349
6.644000	 65.0465
6.662000	 65.0526
6.680000	 65.0038
6.698000	 65.0079
6.716000	 65.1297
6.734000	 65.2193
6.752000	 65.1855
6.770000	 65.108
6.788000	 65.046
6.806000	 65.0221
6.824000	 65.034
6.842000	 64.9241
6.860000	 64.6424
6.878000	 64.5598
6.896000	 64.861
6.914000	 65.064
6.932000	 64.9508
6.950000	 64.8424
6.968000	 64.8679
6.986000	 64.9138
7.004000	 64.9835
7.022000	 65.078
7.040000	 65.1041
7.058000	 65.0636
7.076000	 65.0193
7.094000	 64.9657
7.112000	 64.8919
7.130000	 64.8696
7.148000	 64.9495
7.166000	 65.0518
7.184000	 65.0981
7.202000	 65.1269
7.220000	 65.1806
7.238000	 65.1963
7.256000	 65.0983
7.274000	 64.9491
7.292000	 64.8855
7.310000	 64.9291
7.328000	 64.9926
7.346000	 65.0176
7.364000	 64.9976
7.382000	 64.9334
7.400000	 64.8438
7.418000	 64.7936
7.436000	 64.8253
7.454000	 64.8964
7.472000	 64.9623
7.490000	 65.0224
7.508000	 65.049
7.526000	 65.0032
7.544000	 64.9072
7.562000	 64.8242
7.580000	 64.8062
7.598000	 64.8673
7.616000	 64.9581
7.634000	 65.0116
7.652000	 65.0323
7.670000	 65.0654
7.688000	 65.1029
7.706000	 65.1022
7.724000	 65.0596
7.742000	 65.0111
7.760000	 64.9887
7.778000	 64.9902
7.796000	 64.9852
7.814000	 64.9699
7.832000	 64.9799
7.850000	 65.014
7.868000	 65.0183
7.886000	 64.9752
7.904000	 64.9326
7.922000	 64.9251
7.940000	 64.9383
7.958000	 64.9427
7.976000	 64.9174
7.994000	 64.8747
8.012000	 64.8658
8.030000	 64.9107
8.048000	 64.9546
8.065999	 64.9487
8.084000	 64.9141
8.102000	 64.8833
8.120000	 64.861
8.138000	 64.8598
8.155999	 64.8928
8.173999	 64.9372
8.192000	 64.9627
8.210000	 64.9698
8.228000	 64.9623
8.246000	 64.937
8.263999	 64.9144
8.282000	 64.9159
8.300000	 64.9196
8.318000	 64.8978
8.336000	 64.8769
8.353999	 64.9066
8.372000	 64.9887
8.390000	 65.0716
8.408000	 65.0959
8.426000	 65.0407
8.443999	 64.9509
8.462000	 64.8941
8.480000	 64.8834
8.498000	 64.8801
8.516000	 64.8585
8.533999	 64.8302
8.552000	 64.8113
8.570000	 64.8003
8.588000	 64.7994
8.606000	 64.8232
8.624000	 64.8703
8.641999	 64.9092
8.660000	 64.9081
8.678000	 64.878
8.696000	 64.8541
8.714000	 64.8307
8.731999	 64.7412
8.750000	 64.5439
8.768000	 64.3054
8.786000	 64.1622
8.804000	 64.1876
8.821999	 64.3305
8.840000	 64.4958
8.858000	 64.6496
8.876000	 64.8219
8.894000	 65.0339
8.911999	 65.2481
8.930000	 65.3855
8.948000	 65.3856
8.966000	 65.2436
8.984000	 65.0112
9.001999	 64.7632
9.020000	 64.5706
9.038000	 64.482
9.056000	 64.506
9.074000	 64.5916
9.092000	 64.644
9.109999	 64.6002
9.128000	 64.497
9.146000	 64.4474
9.164000	 64.5382
9.182000	 64.7484
9.199999	 64.9628
9.218000	 65.0571
9.236000	 64.9774
9.254000	 64.7659
9.272000	 64.5247
9.289999	 64.3548
9.308000	 64.3061
9.326000	 64.3692
9.344000	 64.5096
9.362000	 64.701
9.379999	 64.9253
9.398000	 65.1437
9.416000	 65.2907
9.434000	 65.312
9.452000	 65.2121
9.469999	 65.0638
9.488000	 64.9537
9.506000	 64.9174
9.524000	 64.9229
9.542000	 64.9168
9.560000	 64.8811
9.577999	 64.836
9.596000	 64.8044
9.614000	 64.7892
9.632000	 64.7854
9.650000	 64.7983
9.667999	 64.8401
9.686000	 64.9124
9.704000	 64.9942
9.722000	 65.0425
9.740000	 65.009
9.757999	 64.8612
9.776000	 64.6046
9.794000	 64.297
9.812000	 64.0397
9.830000	 63.9355
9.847999	 64.0295
9.866000	 64.2763
9.884000	 64.5601
9.902000	 64.7591
9.920000	 64.8148
9.937999	 64.7591
9.956000	 64.6796
9.974000	 64.6527
9.992000	 64.6975
10.01	64.7774
10.028	64.8365
10.046	64.8451
10.064	64.8133
10.082	64.772
10.1	64.743
10.118	64.7246
10.136	64.7008
10.154	64.6622
10.172	64.6164
10.19	64.5799
10.208	64.5592
10.226	64.5462
10.244	64.5241
10.262	64.4865
10.28	64.4461
10.298	64.4264
10.316	64.446
10.334	64.5023
10.352	64.5749
10.37	64.6371
10.388	64.6748
10.406	64.6909
10.424	64.6981
10.442	64.7057
10.46	64.7144
10.478	64.7181
10.496	64.711
10.514	64.6905
10.532	64.6578
10.55	64.6159
10.568	64.5683
10.586	64.5203
10.604	64.478
10.622	64.4466
10.64	64.4287
10.658	64.4231
10.676	64.4263
10.694	64.4346
10.712	64.4456
10.73	64.4575
10.748	64.4683
10.766	64.4771
10.784	64.4856
10.802	64.4985
10.82	64.5199
10.838	64.5503
10.856	64.5834
10.874	64.6068
10.892	64.6088
10.91	64.582
10.928	64.5301
10.946	64.4647
10.964	64.4009
10.982	64.3515
11	64.3217
11.018	64.3087
11.036	64.3046
11.054	64.3001
11.072	64.2889
11.09	64.2694
11.108	64.2445
11.126	64.2205
11.144	64.2036
11.162	64.1987
11.18	64.2071
11.198	64.2276
11.216	64.2581
11.234	64.2965
11.252	64.3417
11.27	64.3915
11.288	64.4405
11.306	64.4801
11.324	64.4983
11.342	64.4853
11.36	64.4389
11.378	64.3682
11.396	64.2914
11.414	64.2309
11.432	64.2049
11.45	64.22
11.468	64.2706
11.486	64.3436
11.504	64.4237
11.522	64.4971
11.54	64.5541
11.558	64.5879
11.576	64.5943
11.594	64.5722
11.612	64.5245
11.63	64.4596
11.648	64.3893
11.666	64.3267
11.684	64.28
11.702	64.2493
11.72	64.2261
11.738	64.1967
11.756	64.1494
11.774	64.0794
11.792	63.9927
11.81	63.9046
11.828	63.8349
11.846	63.8022
11.864	63.8176
11.882	63.8812
11.9	63.9827
11.918	64.1032
11.936	64.2207
11.954	64.3158
11.972	64.3739
11.99	64.3885
12.008	64.3622
12.026	64.3049
12.044	64.2316
12.062	64.1586
12.08	64.0992
12.098	64.0619
12.116	64.0483
12.134	64.0538
12.152	64.0702
12.17	64.0898
12.188	64.108
12.206	64.1247
12.224	64.1438
12.242	64.1697
12.26	64.2055
12.278	64.2502
12.296	64.2973
12.314	64.3381
12.332	64.3629
12.35	64.3645
12.368	64.3394
12.386	64.289
12.404	64.219
12.422	64.1371
12.44	64.0517
12.458	63.9691
12.476	63.894
12.494	63.8281
12.512	63.7709
12.53	63.7206
12.548	63.675
12.566	63.6323
12.584	63.5919
12.602	63.5547
12.62	63.5231
12.638	63.5004
12.656	63.4905
12.674	63.4964
12.692	63.5196
12.71	63.5594
12.728	63.6138
12.746	63.679
12.764	63.7504
12.782	63.8229
12.8	63.8926
12.818	63.9567
12.836	64.0132
12.854	64.0597
12.872	64.0947
12.89	64.1156
12.908	64.1203
12.926	64.1072
12.944	64.0764
12.962	64.0304
12.98	63.9744
12.998	63.9161
13.016	63.8642
13.034	63.8255
13.052	63.8042
13.07	63.8
13.088	63.8073
13.106	63.8177
13.124	63.8207
13.142	63.8096
13.16	63.7826
13.178	63.7455
13.196	63.7096
13.214	63.6902
13.232	63.702
13.25	63.7542
13.268	63.8469
13.286	63.9696
13.304	64.1037
13.322	64.2247
13.34	64.3088
13.358	64.338
13.376	64.3043
13.394	64.2116
13.412	64.0748
13.43	63.9162
13.448	63.7609
13.466	63.6316
13.484	63.5452
13.502	63.5105
13.52	63.5279
13.538	63.5907
13.556	63.6865
13.574	63.8003
13.592	63.9157
13.61	64.0178
13.628	64.0943
13.646	64.136
13.664	64.1382
13.682	64.1001
13.7	64.025
13.718	63.9199
13.736	63.7945
13.754	63.6601
13.772	63.5284
13.79	63.4104
13.808	63.3148
13.826	63.2477
13.844	63.2119
13.862	63.2074
13.88	63.2314
13.898	63.2784
13.916	63.3414
13.934	63.4123
13.952	63.4826
13.97	63.5441
13.988	63.5897
14.006	63.6144
14.024	63.6156
14.042	63.5945
14.06	63.5553
14.078	63.5042
14.096	63.4488
14.114	63.3971
14.132	63.3559
14.15	63.3297
14.168	63.3208
14.186	63.3285
14.204	63.3493
14.222	63.3774
14.24	63.4067
14.258	63.4308
14.276	63.445
14.294	63.4459
14.312	63.4319
14.33	63.4036
14.348	63.3629
14.366	63.3128
14.384	63.257
14.402	63.1988
14.42	63.141
14.438	63.0858
14.456	63.0351
14.474	62.9898
14.492	62.9503
14.51	62.9164
14.528	62.8882
14.546	62.8654
14.564	62.8477
14.582	62.8347
14.6	62.8259
14.618	62.821
14.636	62.819
14.654	62.8194
14.672	62.8211
14.69	62.8231
14.708	62.8247
14.726	62.8252
14.744	62.8245
14.762	62.8225
14.78	62.8196
14.798	62.8159
14.816	62.8121
14.834	62.8083
14.852	62.8043
14.87	62.7994
14.888	62.7927
14.906	62.7827
14.924	62.7683
14.942	62.7478
14.96	62.7207
14.978	62.6873
14.996	62.6487
15.014	62.6072
15.032	62.5662
15.05	62.5298
15.068	62.5017
15.086	62.4854
15.104	62.4836
15.122	62.4984
15.14	62.5295
15.158	62.5755
15.176	62.6337
15.194	62.7005
15.212	62.7706
15.23	62.8392
15.248	62.9013
15.266	62.9524
15.284	62.9881
15.302	63.0056
15.32	63.0034
15.338	62.9806
15.356	62.9375
15.374	62.8762
15.392	62.7994
15.41	62.7102
15.428	62.6127
15.446	62.5118
15.464	62.4117
15.482	62.3165
15.5	62.2299
15.518	62.1553
15.536	62.0944
15.554	62.048
15.572	62.0166
15.59	61.9993
15.608	61.9947
15.626	62.0011
15.644	62.0168
15.662	62.0396
15.68	62.0678
15.698	62.1004
15.716	62.1355
15.734	62.1723
15.752	62.2097
15.77	62.2471
15.788	62.2836
15.806	62.3184
15.824	62.351
15.842	62.3808
15.86	62.4071
15.878	62.4295
15.896	62.4478
15.914	62.4621
15.932	62.4727
15.95	62.4798
15.968	62.4838
15.986	62.4859
16.004	62.4868
16.022	62.4873
16.04	62.4883
16.058	62.4904
16.076	62.4941
16.094	62.5
16.112	62.5084
16.13	62.5192
16.148	62.5326
16.166	62.5481
16.184	62.5653
16.202	62.5837
16.22	62.6026
16.238	62.6215
16.256	62.64
16.274	62.6579
16.292	62.6751
16.31	62.6915
16.328	62.7073
16.346	62.723
16.364	62.7388
16.382	62.7551
16.4	62.7717
16.418	62.7887
16.436	62.8051
16.454	62.82
16.472	62.8322
16.49	62.8399
16.508	62.8414
16.526	62.8357
16.544	62.8212
16.562	62.7974
16.58	62.7639
16.598	62.7212
16.616	62.6704
16.634	62.6125
16.652	62.5501
16.67	62.4851
16.688	62.4194
16.706	62.3559
16.724	62.2956
16.742	62.2401
16.76	62.1903
16.778	62.1462
16.796	62.1076
16.814	62.0735
16.832	62.043
16.85	62.0145
16.868	61.9871
16.886	61.9598
16.904	61.9318
16.922	61.9034
16.94	61.8747
16.958	61.8472
16.976	61.8216
16.994	61.7998
17.012	61.7827
17.03	61.7711
17.048	61.7656
17.066	61.7656
17.084	61.7705
17.102	61.7777
17.12	61.786
17.138	61.7921
17.156	61.7939
17.174	61.7893
17.192	61.7762
17.21	61.7541
17.228	61.7226
17.246	61.683
17.264	61.6361
17.282	61.5855
17.3	61.533
17.318	61.4823
17.336	61.4365
17.354	61.3975
17.372	61.3686
17.39	61.3503
17.408	61.3442
17.426	61.3491
17.444	61.3651
17.462	61.3895
17.48	61.4213
17.498	61.4575
17.516	61.4961
17.534	61.5352
17.552	61.5727
17.57	61.6078
17.588	61.6389
17.606	61.6659
17.624	61.6882
17.642	61.7059
17.66	61.7193
17.678	61.7285
17.696	61.7337
17.714	61.7353
17.732	61.7334
17.75	61.7283
17.768	61.7198
17.786	61.7082
17.804	61.6936
17.822	61.6764
17.84	61.6566
17.858	61.6348
17.876	61.6112
17.894	61.5866
17.912	61.5612
17.93	61.5363
17.948	61.512
17.966	61.4896
17.984	61.4696
18.002	61.453
18.02	61.4402
18.038	61.432
18.056	61.4286
18.074	61.4303
18.092	61.4369
18.11	61.4482
18.128	61.4633
18.146	61.4816
18.164	61.5015
18.182	61.5216
18.2	61.5403
18.218	61.5555
18.236	61.566
18.254	61.5694
18.272	61.5649
18.29	61.5508
18.308	61.527
18.326	61.4929
18.344	61.4491
18.362	61.3964
18.38	61.336
18.398	61.2698
18.416	61.1999
18.434	61.1286
18.452	61.0584
18.47	60.9914
18.488	60.93
18.506	60.8756
18.524	60.8298
18.542	60.7932
18.56	60.7658
18.578	60.7476
18.596	60.7372
18.614	60.7344
18.632	60.7366
18.65	60.7435
18.668	60.7523
18.686	60.7629
18.704	60.7728
18.722	60.7819
18.74	60.7891
18.758	60.7945
18.776	60.7979
18.794	60.7998
18.812	60.8007
18.83	60.8011
18.848	60.8018
18.866	60.803
18.884	60.8054
18.902	60.8085
18.92	60.8125
18.938	60.8165
18.956	60.8198
18.974	60.8213
18.992	60.8198
19.01	60.8145
19.028	60.8036
19.046	60.787
19.064	60.7633
19.082	60.7329
19.1	60.6956
19.118	60.6523
19.136	60.6041
19.154	60.5521
19.172	60.4988
19.19	60.4451
19.208	60.3943
19.226	60.347
19.244	60.3066
19.262	60.2731
19.28	60.2491
19.298	60.2344
19.316	60.2302
19.334	60.2362
19.352	60.2514
19.37	60.276
19.388	60.3072
19.406	60.3453
19.424	60.3861
19.442	60.43
19.46	60.473
19.478	60.5147
19.496	60.5521
19.514	60.5844
19.532	60.61
19.55	60.6275
19.568	60.6369
19.586	60.6373
19.604	60.6292
19.622	60.6127
19.64	60.5884
19.658	60.5578
19.676	60.521
19.694	60.4807
19.712	60.4365
19.73	60.3915
19.748	60.3454
19.766	60.3004
19.784	60.2569
19.802	60.216
19.82	60.1785
19.838	60.1443
19.856	60.1143
19.874	60.0883
19.892	60.0663
19.91	60.0484
19.928	60.0343
19.946	60.0241
19.964	60.0173
19.982	60.0141
20	60.0141
20.018	60.0174
20.036	60.0238
20.054	60.0335
20.072	60.0464
20.09	60.0625
20.108	60.0819
20.126	60.1043
20.144	60.1298
20.162	60.158
20.18	60.1887
20.198	60.2214
20.216	60.2553
20.234	60.2904
20.252	60.3248
20.27	60.3589
20.288	60.3905
20.306	60.4198
20.324	60.4452
20.342	60.4655
20.36	60.4807
20.378	60.4891
20.396	60.491
20.414	60.4852
20.432	60.4715
20.45	60.4503
20.468	60.421
20.486	60.3844
20.504	60.3409
20.522	60.2905
20.54	60.235
20.558	60.174
20.576	60.1094
20.594	60.0418
20.612	59.9718
20.63	59.9015
20.648	59.8304
20.666	59.7608
20.684	59.6924
20.702	59.6266
20.72	59.5642
20.738	59.5053
20.756	59.4511
20.774	59.4013
20.792	59.3565
20.81	59.3166
20.828	59.2818
20.846	59.252
20.864	59.2272
20.882	59.2073
20.9	59.1924
20.918	59.1821
20.936	59.1763
20.954	59.1749
20.972	59.177
20.99	59.183
21.008	59.192
21.026	59.2037
21.044	59.2178
21.062	59.2334
21.08	59.2507
21.098	59.2686
21.116	59.2868
21.134	59.3052
21.152	59.3227
21.17	59.3396
21.188	59.3549
21.206	59.3686
21.224	59.3803
21.242	59.3895
21.26	59.3962
21.278	59.4004
21.296	59.402
21.314	59.401
21.332	59.3977
21.35	59.3921
21.368	59.3845
21.386	59.3751
21.404	59.3639
21.422	59.3515
21.44	59.3377
21.458	59.3229
21.476	59.3072
21.494	59.2906
21.512	59.2733
21.53	59.2552
21.548	59.2364
21.566	59.217
21.584	59.197
21.602	59.1763
21.62	59.1548
21.638	59.1327
21.656	59.1098
21.674	59.0862
21.692	59.0619
21.71	59.0366
21.728	59.0106
21.746	58.9843
21.764	58.9576
21.782	58.9307
21.8	58.9036
21.818	58.8764
21.836	58.8492
21.854	58.8223
21.872	58.7952
21.89	58.7677
21.908	58.74
21.926	58.7113
21.944	58.6814
21.962	58.6503
21.98	58.6166
21.998	58.5805
22.016	58.5414
22.034	58.4978
22.052	58.4503
22.07	58.3979
22.088	58.3398
22.106	58.2765
22.124	58.2072
22.142	58.1315
22.16	58.0498
22.178	57.963
22.196	57.8703
22.214	57.7735
22.232	57.6742
22.25	57.5713
22.268	57.4683
22.286	57.3667
22.304	57.2658
22.322	57.1703
22.34	57.0802
22.358	56.9963
22.376	56.9232
22.394	56.8599
22.412	56.8081
22.43	56.7708
22.448	56.7469
22.466	56.7378
22.484	56.7451
22.502	56.7681
22.52	56.8067
22.538	56.8613
22.556	56.9314
22.574	57.0148
22.592	57.112
22.61	57.2218
22.628	57.3401
22.646	57.4686
22.664	57.6042
22.682	57.7417
22.7	57.8836
22.718	58.0257
22.736	58.1626
22.754	58.2968
22.772	58.4245
22.79	58.542
22.808	58.6515
22.826	58.7495
22.844	58.8341
22.862	58.9066
22.88	58.9646
22.898	59.0068
22.916	59.0342
22.934	59.0457
22.952	59.0408
22.97	59.0199
22.988	58.9843
23.006	58.9335
23.024	58.8681
23.042	58.7902
23.06	58.6994
23.078	58.5965
23.096	58.4847
23.114	58.3637
23.132	58.2342
23.15	58.0998
23.168	57.9604
23.186	57.8161
23.204	57.6697
23.222	57.5205
23.24	57.3692
23.258	57.2187
23.276	57.0682
23.294	56.9186
23.312	56.7736
23.33	56.6324
23.348	56.4959
23.366	56.368
23.384	56.2481
23.402	56.1368
23.42	56.0376
23.438	55.9502
23.456	55.8748
23.474	55.8147
23.492	55.7699
23.51	55.7402
23.528	55.7279
23.546	55.734
23.564	55.7576
23.582	55.7989
23.6	55.8586
23.618	55.9362
23.636	56.0295
23.654	56.1379
23.672	56.2626
23.69	56.3983
23.708	56.5424
23.726	56.6979
23.744	56.8581
23.762	57.0173
23.78	57.1802
23.798	57.3405
23.816	57.4908
23.834	57.6352
23.852	57.7699
23.87	57.8886
23.888	57.9932
23.906	58.0826
23.924	58.1515
23.942	58.1993
23.96	58.2273
23.978	58.2346
23.996	58.2194
24.014	58.1825
24.032	58.1283
24.05	58.058
24.068	57.9684
24.086	57.8686
24.104	57.7663
24.122	57.6534
24.14	57.5409
24.158	57.444
24.176	57.3552
24.194	57.2801
24.212	57.236
24.23	57.2233
24.248	57.2383
24.266	57.298
24.284	57.4124
24.302	57.5728
24.32	57.7862
24.338	58.0606
24.356	58.3939
24.374	58.7838
24.392	59.2291
24.41	59.736
24.428	60.298
24.446	60.8996
24.464	61.5397
24.482	62.226
24.5	62.9296
24.518	63.6284
24.536	64.3447
24.554	65.0528
24.572	65.7164
24.59	66.3456
24.608	66.9387
24.626	67.4654
24.644	67.9126
24.662	68.2965
24.68	68.597
24.698	68.7948
24.716	68.8988
24.734	68.9076
24.752	68.8141
24.77	68.6137
24.788	68.3117
24.806	67.9148
24.824	67.4258
24.842	66.8368
24.86	66.1639
24.878	65.4253
24.896	64.6102
24.914	63.725
24.932	62.7963
24.95	61.8359
24.968	60.8271
24.986	59.7936
25.004	58.7603
25.022	57.7128
25.04	56.6588
25.058	55.624
25.076	54.6186
25.094	53.6276
25.112	52.6703
25.13	51.7665
25.148	50.9056
25.166	50.0916
25.184	49.3405
25.202	48.6594
25.22	48.0384
25.238	47.4875
25.256	47.0177
25.274	46.6262
25.292	46.3112
25.31	46.0761
25.328	45.9241
25.346	45.8541
25.364	45.8619
25.382	45.9435
25.4	46.1025
25.418	46.3367
25.436	46.6366
25.454	46.9957
25.472	47.4225
25.49	47.9077
25.508	48.4386
25.526	49.0148
25.544	49.6416
25.562	50.3052
25.58	50.9926
25.598	51.713
25.616	52.4616
25.634	53.2248
25.652	53.9937
25.67	54.7773
25.688	55.5699
25.706	56.3641
25.724	57.1594
25.742	57.9589
25.76	58.7577
25.778	59.5512
25.796	60.3416
25.814	61.1288
25.832	61.9105
25.85	62.6863
25.868	63.4603
25.886	64.2259
25.904	64.9749
25.922	65.7088
25.94	66.4324
25.958	67.1318
25.976	67.7933
25.994	68.4302
26.012	69.0379
26.03	69.5908
26.048	70.0677
26.066	70.4934
26.084	70.852
26.102	71.1123
26.12	71.2573
26.138	71.3159
26.156	71.2619
26.174	71.0615
26.192	70.7052
26.21	70.2166
26.228	69.5714
26.246	68.7435
26.264	67.7316
26.282	66.5484
26.3	65.183
26.318	63.6244
26.336	61.8682
26.354	59.9235
26.372	57.8011
26.39	55.5095
26.408	53.0276
26.426	50.3737
26.444	47.5829
26.462	44.6817
26.48	41.6284
26.498	38.4557
26.516	35.2181
26.534	31.9513
26.552	28.597
26.57	25.2025
26.588	21.8353
26.606	18.5333
26.624	15.2309
26.642	11.9819
26.66	8.856355
26.678	5.889929
26.696	3.021464
26.714	0.296701
26.732	-2.227637
26.75	-4.523009
26.768	-6.634116
26.786	-8.535549
26.804	-10.1958
26.822	-11.5961
26.84	-12.7573
26.858	-13.6798
26.876	-14.3615
26.894	-14.794
26.912	-14.9706
26.93	-14.9194
26.948	-14.6698
26.966	-14.1706
26.984	-13.3003
27.002	-12.3245
27.02	-11.5339
27.028	-11.3379