File: Bakgrunnsmateriale/MATLAB/FTIR/ftir_data/subBb/Mapping_121/C-4040-8_t11_cm-1.asc
PE IR       SPECTRUM    SPECTRUM    ASCII       PEDS        1.60
  -1
C-1AE4~1.ASC
17/03/27
15:21:42.00
17/03/27
15:21:42.00
tln
$C-4040-8_t0011$<tbV0>[-13.0,-13.0,8.0,0.0,27,1,0]
370
64

2002,4.07
MIRTGS : RIGHTBACK : INTERNAL 2
MIR : ON : INTERNAL 2
OPTKBR

0.200000
8
8.000000
FILLER
RATIO
SPECTRUM
UNLOCKED 256

DOUBLE
64
COMBINED
1
0
0

1.000000
RATIO

1
0
TRUE
51149
0
LEFT NOT FITTED RIGHT NOT FITTED 0
NONE
NONE
15600
12
4.427000
51148
TRUE
1 0 8 72 0 0 0 0

15798

#HDR
-1
-1
#GR
CM-1
%T
2.38419e-05
0.0
5000
-1.000000
4631
8
86.5051
40.4225
#DATA
5000	64.5423
4996	64.2999
4992	64.6623
4988	65.2341
4984	65.2213
4980	64.8373
4976	64.4967
4972	64.4759
4968	64.7858
4964	64.4563
4960	63.991
4956	64.2615
4952	64.3985
4948	63.915
4944	62.9589
4940	62.7724
4936	63.8041
4932	64.4824
4928	64.1898
4924	64.0328
4920	64.5119
4916	65.0601
4912	65.4336
4908	65.5108
4904	65.5018
4900	65.351
4896	64.9421
4892	64.877
4888	64.8229
4884	64.5368
4880	64.7187
4876	65.1189
4872	65.0423
4868	64.8041
4864	64.7849
4860	64.7696
4856	64.8542
4852	64.9475
4848	64.8486
4844	64.9255
4840	65.1241
4836	65.0767
4832	64.822
4828	64.6086
4824	64.5893
4820	64.7097
4816	64.8262
4812	64.7972
4808	64.6842
4804	64.7202
4800	64.8745
4796	64.8378
4792	64.7288
4788	64.8836
4784	65.0389
4780	65.0282
4776	65.0768
4772	65.0666
4768	64.8918
4764	64.7569
4760	64.707
4756	64.8096
4752	65.0537
4748	65.2317
4744	65.2048
4740	64.9592
4736	64.7455
4732	64.6782
4728	64.6624
4724	64.7919
4720	65.0655
4716	65.1314
4712	64.9612
4708	64.8978
4704	64.8048
4700	64.5793
4696	64.5631
4692	64.8205
4688	65.0099
4684	64.9391
4680	64.8766
4676	64.9615
4672	65.0245
4668	65.0459
4664	64.9741
4660	64.8819
4656	64.8967
4652	64.8646
4648	64.7995
4644	64.8125
4640	64.9656
4636	65.1531
4632	65.1554
4628	65.1011
4624	65.1152
4620	65.189
4616	65.2645
4612	65.2831
4608	65.1997
4604	65.0072
4600	64.9508
4596	64.9983
4592	64.8795
4588	64.7583
4584	64.6863
4580	64.6554
4576	64.809
4572	64.8913
4568	64.7829
4564	64.681
4560	64.718
4556	64.7614
4552	64.5698
4548	64.416
4544	64.4181
4540	64.4377
4536	64.5063
4532	64.3729
4528	64.2111
4524	64.4568
4520	64.7575
4516	64.6376
4512	64.4454
4508	64.6421
4504	64.7836
4500	64.4651
4496	64.0987
4492	63.9788
4488	64.205
4484	64.463
4480	64.824
4476	64.8372
4472	64.3021
4468	64.1849
4464	64.4655
4460	64.9309
4456	65.7953
4452	68.3415
4448	70.8407
4444	70.2024
4440	67.124
4436	63.5656
4432	62.3989
4428	63.0111
4424	63.1052
4420	63.0494
4416	62.7824
4412	62.0536
4408	61.9244
4404	61.8398
4400	61.2532
4396	60.6209
4392	63.418
4388	73.3665
4384	78.5252
4380	71.6017
4376	65.2128
4372	64.5989
4368	65.528
4364	66.08
4360	66.005
4356	65.4422
4352	64.8255
4348	64.7987
4344	64.9308
4340	64.8856
4336	64.9278
4332	64.8258
4328	64.6213
4324	64.6766
4320	64.6865
4316	64.4306
4312	64.3192
4308	64.3349
4304	64.2366
4300	64.2496
4296	64.4791
4292	64.6788
4288	64.7716
4284	64.8353
4280	64.7002
4276	64.4362
4272	64.3799
4268	64.4643
4264	64.5384
4260	64.5589
4256	64.4652
4252	64.4359
4248	64.4597
4244	64.3901
4240	64.521
4236	64.7803
4232	64.7617
4228	64.5772
4224	64.3931
4220	64.3589
4216	64.4996
4212	64.5604
4208	64.5951
4204	64.5864
4200	64.4266
4196	64.2817
4192	64.2434
4188	64.2882
4184	64.3057
4180	64.4594
4176	64.7791
4172	64.9284
4168	64.9774
4164	65.076
4160	65.1244
4156	65.0006
4152	64.788
4148	64.6693
4144	64.8016
4140	65.0223
4136	65.0786
4132	65.1101
4128	65.1869
4124	65.19
4120	65.1564
4116	65.2338
4112	65.3166
4108	65.2258
4104	65.0153
4100	64.8503
4096	64.8487
4092	64.9815
4088	65.0496
4084	65.0404
4080	65.0822
4076	65.0216
4072	64.9341
4068	65.0487
4064	65.1884
4060	65.2497
4056	65.2868
4052	65.2601
4048	65.1252
4044	65.0026
4040	65.0653
4036	65.1672
4032	65.1281
4028	65.0435
4024	65.1192
4020	65.3162
4016	65.3797
4012	65.3317
4008	65.327
4004	65.3026
4000	65.2472
3996	65.2122
3992	65.1602
3988	65.1246
3984	65.065
3980	64.9469
3976	64.8711
3972	64.8681
3968	64.9508
3964	65.0177
3960	64.9915
3956	65.0483
3952	65.1011
3948	65.0597
3944	65.0465
3940	64.9187
3936	64.7363
3932	64.7929
3928	65.0718
3924	65.3084
3920	65.3003
3916	65.1754
3912	65.1553
3908	65.2634
3904	65.3155
3900	65.2152
3896	65.135
3892	65.0982
3888	65.0201
3884	64.9837
3880	64.9953
3876	65.0813
3872	65.2295
3868	65.2123
3864	65.1112
3860	65.1387
3856	65.2844
3852	65.3029
3848	65.15
3844	65.1597
3840	65.302
3836	65.3619
3832	65.2318
3828	64.9833
3824	64.8533
3820	64.926
3816	65.0404
3812	65.0835
3808	65.206
3804	65.3482
3800	65.2415
3796	64.9803
3792	64.8168
3788	64.7354
3784	64.7132
3780	64.7893
3776	64.931
3772	65.1789
3768	65.3942
3764	65.3435
3760	65.1673
3756	65.2256
3752	65.4256
3748	65.4206
3744	65.2642
3740	65.1535
3736	65.188
3732	65.1924
3728	65.1132
3724	65.1723
3720	65.3011
3716	65.4038
3712	65.4149
3708	65.2589
3704	65.1881
3700	65.2467
3696	65.2469
3692	65.2675
3688	65.2452
3684	65.1599
3680	65.246
3676	65.4199
3672	65.4134
3668	65.261
3664	65.2001
3660	65.228
3656	65.2535
3652	65.3663
3648	65.34
3644	65.0788
3640	64.9659
3636	65.067
3632	65.2122
3628	65.2028
3624	65.0969
3620	65.1173
3616	65.155
3612	65.1323
3608	65.0056
3604	64.8553
3600	64.8741
3596	65.0229
3592	65.2204
3588	65.2931
3584	65.1149
3580	64.9482
3576	64.9289
3572	64.9091
3568	64.9096
3564	65.0015
3560	65.1416
3556	65.1958
3552	65.1003
3548	64.9683
3544	64.8929
3540	64.8805
3536	64.8915
3532	64.8829
3528	64.9174
3524	65.0157
3520	65.0315
3516	64.8842
3512	64.6641
3508	64.5476
3504	64.6331
3500	64.7583
3496	64.7521
3492	64.6511
3488	64.581
3484	64.7297
3480	64.911
3476	64.8947
3472	64.9481
3468	65.0889
3464	65.1025
3460	65.1226
3456	65.1964
3452	65.1473
3448	65.0057
3444	64.9409
3440	64.9574
3436	64.9451
3432	64.9093
3428	64.8499
3424	64.7795
3420	64.783
3416	64.8222
3412	64.8469
3408	64.8582
3404	64.8682
3400	64.8891
3396	64.8681
3392	64.7765
3388	64.7432
3384	64.8643
3380	64.9896
3376	64.9341
3372	64.7932
3368	64.788
3364	64.8846
3360	64.913
3356	64.8164
3352	64.6851
3348	64.6658
3344	64.7053
3340	64.7679
3336	64.8875
3332	64.9415
3328	64.885
3324	64.7514
3320	64.6505
3316	64.732
3312	64.836
3308	64.8303
3304	64.8117
3300	64.7821
3296	64.7939
3292	64.8582
3288	64.8097
3284	64.7331
3280	64.8188
3276	64.9314
3272	64.9613
3268	64.9364
3264	64.8329
3260	64.7575
3256	64.7447
3252	64.7257
3248	64.7495
3244	64.7182
3240	64.5822
3236	64.5943
3232	64.7477
3228	64.7914
3224	64.802
3220	64.852
3216	64.8144
3212	64.7138
3208	64.623
3204	64.6026
3200	64.7097
3196	64.7799
3192	64.7387
3188	64.782
3184	64.8642
3180	64.8073
3176	64.6629
3172	64.6127
3168	64.6951
3164	64.7892
3160	64.8959
3156	64.9945
3152	64.9769
3148	64.8621
3144	64.7382
3140	64.7039
3136	64.8362
3132	64.9959
3128	65.0276
3124	65.0121
3120	64.9957
3116	64.9374
3112	64.8428
3108	64.8353
3104	64.9613
3100	65.0208
3096	64.8986
3092	64.768
3088	64.7819
3084	64.7915
3080	64.7176
3076	64.6917
3072	64.726
3068	64.773
3064	64.8071
3060	64.814
3056	64.8206
3052	64.8339
3048	64.8453
3044	64.8251
3040	64.7584
3036	64.6833
3032	64.6212
3028	64.6373
3024	64.7915
3020	64.9518
3016	64.9576
3012	64.8703
3008	64.7845
3004	64.779
3000	64.8435
2996	64.7824
2992	64.6937
2988	64.7598
2984	64.8036
2980	64.7651
2976	64.7327
2972	64.6814
2968	64.6296
2964	64.5976
2960	64.5598
2956	64.5023
2952	64.4813
2948	64.5551
2944	64.6424
2940	64.6628
2936	64.6784
2932	64.6787
2928	64.6069
2924	64.523
2920	64.4686
2916	64.4708
2912	64.5075
2908	64.5428
2904	64.5729
2900	64.5693
2896	64.51
2892	64.4667
2888	64.5252
2884	64.6397
2880	64.6208
2876	64.4612
2872	64.4703
2868	64.6776
2864	64.7444
2860	64.5673
2856	64.4017
2852	64.4141
2848	64.5494
2844	64.79
2840	64.9995
2836	64.9584
2832	64.7712
2828	64.6971
2824	64.7835
2820	64.828
2816	64.7408
2812	64.6693
2808	64.6762
2804	64.6698
2800	64.6329
2796	64.608
2792	64.6319
2788	64.6851
2784	64.7007
2780	64.6906
2776	64.6818
2772	64.689
2768	64.708
2764	64.7042
2760	64.6913
2756	64.6908
2752	64.6941
2748	64.6945
2744	64.7116
2740	64.7213
2736	64.7028
2732	64.7006
2728	64.6923
2724	64.6293
2720	64.605
2716	64.6663
2712	64.6952
2708	64.6714
2704	64.6583
2700	64.6703
2696	64.7488
2692	64.8466
2688	64.8395
2684	64.7546
2680	64.665
2676	64.6076
2672	64.6359
2668	64.7207
2664	64.7373
2660	64.6348
2656	64.5265
2652	64.5291
2648	64.5894
2644	64.613
2640	64.6224
2636	64.6057
2632	64.6133
2628	64.7024
2624	64.6884
2620	64.5378
2616	64.4625
2612	64.4973
2608	64.4862
2604	64.4531
2600	64.4819
2596	64.5438
2592	64.5869
2588	64.5409
2584	64.5047
2580	64.5529
2576	64.5991
2572	64.61
2568	64.6121
2564	64.6087
2560	64.5967
2556	64.5914
2552	64.5395
2548	64.4748
2544	64.4843
2540	64.5241
2536	64.5093
2532	64.4843
2528	64.4985
2524	64.4991
2520	64.4876
2516	64.5232
2512	64.6101
2508	64.6197
2504	64.5227
2500	64.4442
2496	64.4355
2492	64.4842
2488	64.4847
2484	64.3892
2480	64.3704
2476	64.448
2472	64.5028
2468	64.5685
2464	64.6631
2460	64.6898
2456	64.5676
2452	64.4451
2448	64.4841
2444	64.5644
2440	64.4927
2436	64.3486
2432	64.4022
2428	64.5681
2424	64.5936
2420	64.5299
2416	64.4393
2412	64.3494
2408	64.3252
2404	64.3464
2400	64.4121
2396	64.4881
2392	64.5264
2388	64.5331
2384	64.5182
2380	64.5308
2376	64.5494
2372	64.5252
2368	64.5074
2364	64.5328
2360	64.5282
2356	64.4289
2352	64.3554
2348	64.3665
2344	64.4003
2340	64.4821
2336	64.5523
2332	64.5279
2328	64.4874
2324	64.497
2320	64.5296
2316	64.5072
2312	64.4508
2308	64.4549
2304	64.4753
2300	64.4527
2296	64.4163
2292	64.3693
2288	64.3175
2284	64.3193
2280	64.3692
2276	64.404
2272	64.4153
2268	64.3963
2264	64.3582
2260	64.3526
2256	64.3567
2252	64.3482
2248	64.355
2244	64.338
2240	64.29
2236	64.2938
2232	64.3272
2228	64.2944
2224	64.2337
2220	64.2567
2216	64.3494
2212	64.402
2208	64.4115
2204	64.403
2200	64.3618
2196	64.3524
2192	64.3528
2188	64.2651
2184	64.1848
2180	64.2129
2176	64.3081
2172	64.3683
2168	64.3341
2164	64.321
2160	64.3614
2156	64.3479
2152	64.2611
2148	64.2137
2144	64.2573
2140	64.3173
2136	64.3197
2132	64.2456
2128	64.187
2124	64.1918
2120	64.2346
2116	64.277
2112	64.2503
2108	64.2045
2104	64.2193
2100	64.2633
2096	64.2697
2092	64.2017
2088	64.1485
2084	64.2049
2080	64.3301
2076	64.3597
2072	64.2349
2068	64.1793
2064	64.2222
2060	64.2167
2056	64.2139
2052	64.1925
2048	64.1446
2044	64.1726
2040	64.2182
2036	64.1983
2032	64.1766
2028	64.1665
2024	64.0972
2020	64.0389
2016	64.0584
2012	64.0889
2008	64.0993
2004	64.0806
2000	64.1021
1996	64.1786
1992	64.1689
1988	64.0985
1984	64.0748
1980	64.0903
1976	64.1149
1972	64.1131
1968	64.066
1964	64.008
1960	63.9962
1956	64.0318
1952	64.0591
1948	64.0675
1944	64.0676
1940	64.0674
1936	64.0743
1932	64.0582
1928	64.079
1924	64.1719
1920	64.2267
1916	64.204
1912	64.1724
1908	64.1583
1904	64.1268
1900	64.0906
1896	64.1069
1892	64.149
1888	64.1532
1884	64.1476
1880	64.1403
1876	64.1292
1872	64.127
1868	64.092
1864	64.0827
1860	64.1035
1856	64.0627
1852	64.0578
1848	64.1209
1844	64.1102
1840	64.0045
1836	63.9479
1832	64.0432
1828	64.1604
1824	64.1499
1820	64.0824
1816	64.0457
1812	64.0077
1808	63.915
1804	63.8294
1800	63.8703
1796	63.9912
1792	64.0345
1788	64.0056
1784	64.0148
1780	64.0273
1776	64.0291
1772	64.0513
1768	64.018
1764	63.9614
1760	63.9472
1756	63.925
1752	63.9103
1748	63.9103
1744	63.8783
1740	63.8692
1736	63.8842
1732	63.8458
1728	63.8299
1724	63.8953
1720	64.0144
1716	64.0557
1712	63.9372
1708	63.9009
1704	64.0975
1700	64.2628
1696	64.1132
1692	63.9212
1688	64.0291
1684	64.143
1680	64.0389
1676	64.019
1672	64.1076
1668	64.0534
1664	63.9078
1660	63.9592
1656	64.2749
1652	64.4371
1648	64.2824
1644	64.0817
1640	64.0043
1636	64.005
1632	63.9012
1628	63.8239
1624	63.8776
1620	63.8711
1616	63.7625
1612	63.6653
1608	63.7151
1604	63.7816
1600	63.7218
1596	63.6687
1592	63.6736
1588	63.698
1584	63.7056
1580	63.7696
1576	63.8559
1572	63.8177
1568	63.767
1564	63.9118
1560	64.1041
1556	63.9741
1552	63.7357
1548	63.7426
1544	63.9945
1540	64.1444
1536	63.9534
1532	63.8023
1528	63.8597
1524	63.9451
1520	63.9261
1516	63.835
1512	63.8918
1508	64.0261
1504	63.9753
1500	63.7925
1496	63.6564
1492	63.6842
1488	63.7395
1484	63.658
1480	63.6236
1476	63.7089
1472	63.7406
1468	63.7159
1464	63.7449
1460	63.8412
1456	63.8813
1452	63.7439
1448	63.5943
1444	63.5755
1440	63.6812
1436	63.7472
1432	63.6396
1428	63.5139
1424	63.5193
1420	63.5771
1416	63.5557
1412	63.5206
1408	63.5065
1404	63.518
1400	63.5537
1396	63.5441
1392	63.5346
1388	63.5195
1384	63.4379
1380	63.3608
1376	63.4027
1372	63.4854
1368	63.4924
1364	63.471
1360	63.4171
1356	63.3735
1352	63.4184
1348	63.4518
1344	63.434
1340	63.4029
1336	63.3409
1332	63.2596
1328	63.2313
1324	63.3077
1320	63.4191
1316	63.3781
1312	63.2037
1308	63.1559
1304	63.2503
1300	63.2588
1296	63.1897
1292	63.1979
1288	63.2187
1284	63.1407
1280	63.0448
1276	63.0033
1272	63.0292
1268	63.1364
1264	63.2183
1260	63.1703
1256	63.0923
1252	63.0217
1248	62.9814
1244	63.0289
1240	63.0393
1236	63.0239
1232	63.0835
1228	63.1635
1224	63.2092
1220	63.1424
1216	62.9994
1212	62.9701
1208	63.0646
1204	63.17
1200	63.1824
1196	63.1194
1192	63.095
1188	63.068
1184	63.0135
1180	63.0068
1176	63.072
1172	63.1362
1168	63.1733
1164	63.187
1160	63.1119
1156	62.9898
1152	62.947
1148	62.9878
1144	62.9586
1140	62.8638
1136	62.8082
1132	62.7905
1128	62.8744
1124	63.0288
1120	63.0672
1116	62.9546
1112	62.8106
1108	62.7393
1104	62.7618
1100	62.7887
1096	62.8107
1092	62.9553
1088	63.0428
1084	62.9125
1080	62.8165
1076	62.858
1072	62.9368
1068	62.9471
1064	62.8808
1060	62.8846
1056	62.8652
1052	62.7538
1048	62.7911
1044	62.9295
1040	62.9237
1036	62.781
1032	62.7105
1028	62.8495
1024	62.9982
1020	62.9486
1016	62.8198
1012	62.8379
1008	62.861
1004	62.7569
1000	62.7999
996	 62.8515
992	 62.7311
988	 62.7248
984	 62.7397
980	 62.6008
976	 62.4882
972	 62.5342
968	 62.614
964	 62.5558
960	 62.5276
956	 62.5865
952	 62.5623
948	 62.5393
944	 62.5671
940	 62.5573
936	 62.4292
932	 62.257
928	 62.1339
924	 62.115
920	 62.2773
916	 62.3845
912	 62.4845
908	 62.6603
904	 62.6697
900	 62.6301
896	 62.7851
892	 62.805
888	 62.3166
884	 62.051
880	 62.3401
876	 62.469
872	 62.3339
868	 62.1849
864	 62.0909
860	 62.1594
856	 62.2856
852	 62.3248
848	 62.2983
844	 62.2084
840	 62.0786
836	 61.9561
832	 61.9064
828	 61.9604
824	 61.9637
820	 61.914
816	 61.9382
812	 61.9539
808	 61.9706
804	 61.9333
800	 61.834
796	 61.8186
792	 61.8564
788	 61.8761
784	 61.9117
780	 61.9688
776	 61.9726
772	 61.8971
768	 61.6919
764	 61.5241
760	 61.7382
756	 62.0699
752	 62.0277
748	 61.908
744	 61.9141
740	 61.692
736	 61.4365
732	 61.3801
728	 61.2575
724	 61.0839
720	 61.2098
716	 61.4281
712	 61.2925
708	 61.1196
704	 61.2096
700	 61.34
696	 61.3272
692	 61.1142
688	 60.9236
684	 60.9414
680	 60.947
676	 60.9124
672	 60.8874
668	 60.8397
664	 60.868
660	 60.9508
656	 60.9927
652	 60.9152
648	 60.8842
644	 61.0155
640	 61.0817
636	 61.0696
632	 60.9816
628	 60.8838
624	 60.8146
620	 60.6892
616	 60.8068
612	 61.0939
608	 61.0672
604	 60.8153
600	 60.5784
596	 60.3915
592	 60.4687
588	 60.6548
584	 60.7128
580	 60.8151
576	 60.8572
572	 60.7283
568	 60.5514
564	 60.5927
560	 60.7716
556	 60.5795
552	 60.0552
548	 59.8183
544	 59.8972
540	 59.7394
536	 59.43
532	 59.5947
528	 60.0037
524	 59.6526
520	 58.9457
516	 59.0281
512	 59.5133
508	 59.445
504	 59.106
500	 59.7549
496	 60.5826
492	 60.0361
488	 59.2367
484	 59.4216
480	 59.9499
476	 59.7584
472	 58.6666
468	 57.6408
464	 57.3667
460	 57.2497
456	 57.233
452	 57.2423
448	 57.0913
444	 57.4796
440	 57.2508
436	 55.6375
432	 54.9835
428	 56.0371
424	 57.4143
420	 58.8313
416	 59.4354
412	 57.1399
408	 53.4901
404	 53.4629
400	 54.493
396	 56.4108
392	 64.9058
388	 81.8818
384	 81.437
380	 51.1611
376	 41.4889
372	 63.9259
370	 85.3617