File: Bakgrunnsmateriale/MATLAB/FTIR/ftir_data/subBb/Mapping_121/C-4040-8_t53.asc
PE IR       SPECTRUM    SPECTRUM    ASCII       PEDS        1.60
  -1
C-A936~1.ASC
17/03/27
18:50:50.00
17/03/27
18:51:16.00
tln
$C-4040-8_t0053$<tbV0>[-7.8,-2.6,8.0,0.0,27,1,0]
27.028
64

2002,4.07
MIRTGS : RIGHTBACK : INTERNAL 2
MIR : ON : INTERNAL 2
OPTKBR

0.200000
8
8.000000
FILLER
RATIO
SPECTRUM
UNLOCKED 256

DOUBLE
64
COMBINED
1
0
0

0.002000
RATIO

1
0
TRUE
51149
0
LEFT NOT FITTED RIGHT NOT FITTED 0
NONE
NONE
15600
12
4.427000
51148
TRUE
1 0 8 72 0 0 0 0

15798

#HDR
-1
-1
#GR
µM
%T
2.38419e-05
0.0
2.000000
0.002000
12515
8
70.9348
19.7822
#DATA
2.000000	 64.8052
2.018000	 65.9518
2.036000	 65.1037
2.054000	 64.7291
2.072000	 65.0711
2.090000	 64.8784
2.108000	 64.777
2.126000	 64.5575
2.144000	 64.3113
2.162000	 64.8833
2.180000	 65.1266
2.198000	 64.4996
2.216000	 65.4912
2.234000	 65.6161
2.252000	 65.6477
2.270000	 66.659
2.288000	 66.8414
2.306000	 65.261
2.324000	 65.6838
2.342000	 66.4175
2.360000	 65.2339
2.378000	 65.4525
2.396000	 64.9241
2.414000	 65.1396
2.432000	 64.8602
2.450000	 65.3602
2.468000	 64.7003
2.486000	 65.2586
2.504000	 65.0158
2.522000	 64.8482
2.540000	 65.1574
2.558000	 65.1328
2.576000	 65.0995
2.594000	 65.2327
2.612000	 65.4
2.630000	 65.3703
2.648000	 65.528
2.666000	 65.2114
2.684000	 65.3392
2.702000	 65.0449
2.720000	 65.3335
2.738000	 65.2715
2.756000	 64.9503
2.774000	 65.0605
2.792000	 65.1301
2.810000	 64.9296
2.828000	 64.8844
2.846000	 65.1443
2.864000	 65.2564
2.882000	 65.5428
2.900000	 65.1187
2.918000	 65.4005
2.936000	 65.2092
2.954000	 65.3902
2.972000	 65.4867
2.990000	 65.1641
3.008000	 65.3153
3.026000	 65.2269
3.044000	 65.3187
3.062000	 65.2828
3.080000	 65.0083
3.098000	 65.2893
3.116000	 65.2379
3.134000	 65.2749
3.152000	 65.0162
3.170000	 65.0798
3.188000	 64.9585
3.206000	 65.0373
3.224000	 65.3621
3.242000	 65.2494
3.260000	 65.1607
3.278000	 65.3572
3.296000	 65.2746
3.314000	 65.3838
3.332000	 65.1637
3.350000	 65.116
3.368000	 65.3614
3.386000	 65.3042
3.404000	 65.2457
3.422000	 64.9967
3.440000	 65.0815
3.458000	 65.1983
3.476000	 65.248
3.494000	 65.0501
3.512000	 65.1923
3.530000	 65.0834
3.548000	 65.3776
3.566000	 65.341
3.584000	 65.3316
3.602000	 65.2258
3.620000	 65.2781
3.638000	 65.2916
3.656000	 65.3975
3.674000	 65.1893
3.692000	 65.3566
3.710000	 65.2634
3.728000	 65.2762
3.746000	 65.3395
3.764000	 65.3499
3.782000	 65.2664
3.800000	 65.3458
3.818000	 65.4446
3.836000	 65.5053
3.854000	 65.3633
3.872000	 65.2429
3.890000	 65.3202
3.908000	 65.3641
3.926000	 65.487
3.944000	 65.3714
3.962000	 65.1958
3.980000	 65.1447
3.998000	 64.9584
4.016000	 65.1812
4.034000	 65.3548
4.052000	 65.2737
4.070000	 65.5472
4.088000	 65.5097
4.106000	 65.5752
4.124000	 65.8581
4.141999	 65.4097
4.160000	 65.7698
4.178000	 65.3935
4.196000	 65.3857
4.214000	 65.2512
4.232000	 65.2774
4.250000	 65.2946
4.268000	 65.3997
4.286000	 65.4125
4.304000	 65.4199
4.322000	 65.3862
4.340000	 65.4356
4.358000	 65.4621
4.375999	 65.3809
4.394000	 65.3337
4.412000	 65.4371
4.430000	 65.3785
4.448000	 65.4846
4.466000	 65.3848
4.484000	 65.5014
4.502000	 65.3383
4.520000	 65.3442
4.538000	 65.2269
4.556000	 65.2729
4.574000	 65.3207
4.592000	 65.4376
4.609999	 65.4636
4.628000	 65.6073
4.646000	 65.8299
4.664000	 65.716
4.682000	 65.4344
4.700000	 65.3225
4.718000	 65.3794
4.736000	 65.3958
4.754000	 65.345
4.772000	 65.4053
4.790000	 65.199
4.808000	 65.0814
4.826000	 65.0781
4.843999	 65.0688
4.862000	 65.1932
4.880000	 65.2339
4.898000	 65.3172
4.916000	 65.259
4.934000	 65.407
4.952000	 65.3404
4.970000	 65.3415
4.988000	 65.4321
5.006000	 65.2775
5.024000	 65.3254
5.042000	 65.3492
5.060000	 65.2262
5.077999	 65.2002
5.096000	 65.0934
5.114000	 65.3661
5.132000	 65.4217
5.150000	 65.4103
5.168000	 65.5081
5.186000	 65.4007
5.204000	 65.2971
5.222000	 65.2832
5.240000	 65.3078
5.258000	 65.3251
5.276000	 65.3717
5.294000	 65.3878
5.312000	 65.352
5.330000	 65.3669
5.348000	 65.2919
5.366000	 65.2824
5.384000	 65.1584
5.402000	 65.164
5.420000	 65.3418
5.438000	 65.425
5.456000	 65.4865
5.474000	 65.4009
5.492000	 65.2223
5.510000	 65.2619
5.528000	 65.2848
5.546000	 65.3168
5.564000	 65.2398
5.582000	 65.2357
5.600000	 65.2251
5.618000	 65.2427
5.636000	 65.3141
5.654000	 65.3337
5.672000	 65.2929
5.690000	 65.2633
5.708000	 65.2902
5.726000	 65.3048
5.744000	 65.1866
5.762000	 65.144
5.780000	 65.0552
5.798000	 65.1546
5.816000	 65.0878
5.834000	 65.0223
5.852000	 65.209
5.870000	 65.3239
5.888000	 65.329
5.906000	 65.2645
5.923999	 65.205
5.942000	 65.24
5.960000	 65.2749
5.978000	 65.2655
5.996000	 65.3668
6.014000	 65.3943
6.032000	 65.1982
6.050000	 65.1416
6.068000	 65.1557
6.086000	 65.1588
6.104000	 65.1891
6.122000	 65.1358
6.140000	 65.1115
6.158000	 65.1621
6.176000	 65.127
6.194000	 65.0813
6.212000	 65.0924
6.230000	 65.117
6.248000	 65.1758
6.266000	 65.2156
6.284000	 65.1873
6.302000	 65.221
6.320000	 65.321
6.338000	 65.4362
6.356000	 65.4176
6.374000	 65.2187
6.392000	 65.1415
6.410000	 65.207
6.428000	 65.2157
6.446000	 65.1867
6.464000	 65.2257
6.482000	 65.3237
6.500000	 65.2759
6.518000	 65.1781
6.536000	 65.1757
6.554000	 65.174
6.572000	 65.1854
6.590000	 65.1873
6.608000	 65.1152
6.626000	 65.0268
6.644000	 65.069
6.662000	 65.2419
6.680000	 65.3005
6.698000	 65.2029
6.716000	 65.1641
6.734000	 65.225
6.752000	 65.2924
6.770000	 65.3051
6.788000	 65.2384
6.806000	 65.156
6.824000	 65.1261
6.842000	 65.0081
6.860000	 64.7301
6.878000	 64.613
6.896000	 64.8067
6.914000	 64.9513
6.932000	 64.9501
6.950000	 65.0384
6.968000	 65.2115
6.986000	 65.2589
7.004000	 65.1716
7.022000	 65.1203
7.040000	 65.132
7.058000	 65.14
7.076000	 65.1428
7.094000	 65.1339
7.112000	 65.1362
7.130000	 65.2035
7.148000	 65.2606
7.166000	 65.2133
7.184000	 65.1266
7.202000	 65.0744
7.220000	 65.0389
7.238000	 65.0206
7.256000	 65.043
7.274000	 65.0717
7.292000	 65.0716
7.310000	 65.0605
7.328000	 65.0475
7.346000	 65.0399
7.364000	 65.0785
7.382000	 65.1473
7.400000	 65.1676
7.418000	 65.1552
7.436000	 65.1827
7.454000	 65.2319
7.472000	 65.2344
7.490000	 65.1786
7.508000	 65.1235
7.526000	 65.1257
7.544000	 65.1366
7.562000	 65.0704
7.580000	 64.9878
7.598000	 65.0101
7.616000	 65.0875
7.634000	 65.0875
7.652000	 65.0285
7.670000	 65.0027
7.688000	 65.0057
7.706000	 64.9951
7.724000	 64.9773
7.742000	 64.9788
7.760000	 65.0147
7.778000	 65.0724
7.796000	 65.1055
7.814000	 65.0937
7.832000	 65.0703
7.850000	 65.0696
7.868000	 65.0916
7.886000	 65.1062
7.904000	 65.0826
7.922000	 65.0273
7.940000	 64.9827
7.958000	 64.9751
7.976000	 65.0084
7.994000	 65.0748
8.012000	 65.1344
8.030000	 65.1359
8.048000	 65.0659
8.065999	 64.9634
8.084000	 64.8909
8.102000	 64.8916
8.120000	 64.9522
8.138000	 65.0146
8.155999	 65.0325
8.173999	 65.005
8.192000	 64.9675
8.210000	 64.9745
8.228000	 65.0707
8.246000	 65.2297
8.263999	 65.3514
8.282000	 65.3559
8.300000	 65.2766
8.318000	 65.2064
8.336000	 65.1862
8.353999	 65.1854
8.372000	 65.1679
8.390000	 65.1212
8.408000	 65.0424
8.426000	 64.9582
8.443999	 64.9388
8.462000	 65.0082
8.480000	 65.0733
8.498000	 65.0282
8.516000	 64.8965
8.533999	 64.7997
8.552000	 64.8046
8.570000	 64.8556
8.588000	 64.854
8.606000	 64.7664
8.624000	 64.6544
8.641999	 64.6151
8.660000	 64.6962
8.678000	 64.8654
8.696000	 65.0515
8.714000	 65.1888
8.731999	 65.2292
8.750000	 65.1609
8.768000	 65.025
8.786000	 64.9011
8.804000	 64.8582
8.821999	 64.9128
8.840000	 65.0228
8.858000	 65.1136
8.876000	 65.1243
8.894000	 65.0576
8.911999	 64.9773
8.930000	 64.939
8.948000	 64.921
8.966000	 64.8435
8.984000	 64.6705
9.001999	 64.4713
9.020000	 64.3685
9.038000	 64.4381
9.056000	 64.6541
9.074000	 64.9045
9.092000	 65.0456
9.109999	 64.9854
9.128000	 64.7573
9.146000	 64.5192
9.164000	 64.4429
9.182000	 64.5729
9.199999	 64.798
9.218000	 64.961
9.236000	 64.9917
9.254000	 64.9354
9.272000	 64.8755
9.289999	 64.8508
9.308000	 64.8477
9.326000	 64.845
9.344000	 64.8457
9.362000	 64.8636
9.379999	 64.9006
9.398000	 64.9384
9.416000	 64.954
9.434000	 64.9459
9.452000	 64.9401
9.469999	 64.9636
9.488000	 65.0036
9.506000	 65.0025
9.524000	 64.9056
9.542000	 64.72
9.560000	 64.5273
9.577999	 64.4262
9.596000	 64.4565
9.614000	 64.5778
9.632000	 64.7137
9.650000	 64.8102
9.667999	 64.8542
9.686000	 64.8545
9.704000	 64.8178
9.722000	 64.7448
9.740000	 64.6486
9.757999	 64.5682
9.776000	 64.553
9.794000	 64.6246
9.812000	 64.7541
9.830000	 64.8834
9.847999	 64.9686
9.866000	 64.9989
9.884000	 64.9841
9.902000	 64.9346
9.920000	 64.8556
9.937999	 64.7606
9.956000	 64.6779
9.974000	 64.6352
9.992000	 64.6396
10.01	64.6714
10.028	64.7042
10.046	64.7269
10.064	64.7455
10.082	64.7705
10.1	64.8065
10.118	64.8515
10.136	64.9029
10.154	64.9571
10.172	65.0047
10.19	65.0275
10.208	65.0074
10.226	64.9387
10.244	64.8337
10.262	64.7155
10.28	64.6037
10.298	64.5123
10.316	64.4531
10.334	64.435
10.352	64.4581
10.37	64.5074
10.388	64.556
10.406	64.5813
10.424	64.5787
10.442	64.5677
10.46	64.5764
10.478	64.6231
10.496	64.7
10.514	64.7801
10.532	64.8318
10.55	64.8391
10.568	64.8065
10.586	64.7552
10.604	64.7082
10.622	64.6815
10.64	64.6785
10.658	64.6942
10.676	64.7178
10.694	64.7392
10.712	64.7505
10.73	64.7492
10.748	64.7369
10.766	64.7177
10.784	64.6947
10.802	64.6691
10.82	64.6402
10.838	64.608
10.856	64.5737
10.874	64.5391
10.892	64.5046
10.91	64.4684
10.928	64.4287
10.946	64.39
10.964	64.3641
10.982	64.3659
11	64.4018
11.018	64.4628
11.036	64.5265
11.054	64.5657
11.072	64.565
11.09	64.5258
11.108	64.4658
11.126	64.4108
11.144	64.3796
11.162	64.38
11.18	64.4087
11.198	64.4559
11.216	64.5113
11.234	64.5653
11.252	64.608
11.27	64.6304
11.288	64.6251
11.306	64.5906
11.324	64.5335
11.342	64.4672
11.36	64.4071
11.378	64.367
11.396	64.354
11.414	64.3689
11.432	64.4084
11.45	64.4676
11.468	64.5392
11.486	64.6142
11.504	64.6805
11.522	64.7252
11.54	64.739
11.558	64.72
11.576	64.6751
11.594	64.617
11.612	64.5602
11.63	64.516
11.648	64.4887
11.666	64.4768
11.684	64.4749
11.702	64.4781
11.72	64.4838
11.738	64.492
11.756	64.5032
11.774	64.5172
11.792	64.5314
11.81	64.543
11.828	64.549
11.846	64.5483
11.864	64.5422
11.882	64.5327
11.9	64.5221
11.918	64.5103
11.936	64.4955
11.954	64.4737
11.972	64.4416
11.99	64.399
12.008	64.3507
12.026	64.3059
12.044	64.2759
12.062	64.2689
12.08	64.2862
12.098	64.3212
12.116	64.3597
12.134	64.3848
12.152	64.3827
12.17	64.3476
12.188	64.2842
12.206	64.206
12.224	64.132
12.242	64.0809
12.26	64.0651
12.278	64.0898
12.296	64.1517
12.314	64.2409
12.332	64.3442
12.35	64.4472
12.368	64.5364
12.386	64.6011
12.404	64.6348
12.422	64.636
12.44	64.6084
12.458	64.5592
12.476	64.4979
12.494	64.4344
12.512	64.377
12.53	64.33
12.548	64.294
12.566	64.2666
12.584	64.2422
12.602	64.2145
12.62	64.1776
12.638	64.1283
12.656	64.0677
12.674	63.9999
12.692	63.9321
12.71	63.8728
12.728	63.8308
12.746	63.8124
12.764	63.82
12.782	63.8518
12.8	63.9018
12.818	63.9616
12.836	64.0216
12.854	64.0738
12.872	64.1124
12.89	64.1359
12.908	64.1462
12.926	64.1492
12.944	64.1518
12.962	64.1615
12.98	64.1838
12.998	64.222
13.016	64.2748
13.034	64.3369
13.052	64.3992
13.07	64.4503
13.088	64.4782
13.106	64.473
13.124	64.4285
13.142	64.3451
13.16	64.2297
13.178	64.0961
13.196	63.9622
13.214	63.8476
13.232	63.7694
13.25	63.7387
13.268	63.7588
13.286	63.8242
13.304	63.9215
13.322	64.0326
13.34	64.1384
13.358	64.2229
13.376	64.2759
13.394	64.2944
13.412	64.2821
13.43	64.2477
13.448	64.2015
13.466	64.1531
13.484	64.1087
13.502	64.0707
13.52	64.0379
13.538	64.0067
13.556	63.9731
13.574	63.9344
13.592	63.8905
13.61	63.8434
13.628	63.7969
13.646	63.7556
13.664	63.7234
13.682	63.7022
13.7	63.692
13.718	63.6904
13.736	63.6939
13.754	63.6991
13.772	63.7037
13.79	63.7063
13.808	63.7077
13.826	63.7098
13.844	63.7155
13.862	63.7277
13.88	63.7479
13.898	63.7761
13.916	63.8103
13.934	63.8468
13.952	63.8807
13.97	63.9064
13.988	63.9186
14.006	63.9132
14.024	63.8883
14.042	63.8444
14.06	63.7844
14.078	63.7133
14.096	63.6376
14.114	63.5646
14.132	63.5012
14.15	63.4536
14.168	63.4263
14.186	63.4216
14.204	63.4396
14.222	63.4781
14.24	63.5335
14.258	63.6012
14.276	63.6756
14.294	63.7512
14.312	63.8231
14.33	63.8872
14.348	63.9404
14.366	63.9806
14.384	64.0065
14.402	64.018
14.42	64.0154
14.438	64.0001
14.456	63.9734
14.474	63.9367
14.492	63.8915
14.51	63.839
14.528	63.781
14.546	63.7189
14.564	63.6545
14.582	63.5899
14.6	63.5272
14.618	63.4691
14.636	63.4182
14.654	63.3768
14.672	63.3465
14.69	63.3277
14.708	63.3198
14.726	63.3208
14.744	63.3268
14.762	63.3329
14.78	63.3338
14.798	63.3243
14.816	63.2996
14.834	63.2563
14.852	63.1926
14.87	63.1101
14.888	63.0121
14.906	62.9039
14.924	62.7928
14.942	62.6874
14.96	62.5961
14.978	62.5259
14.996	62.4822
15.014	62.4687
15.032	62.4858
15.05	62.5311
15.068	62.6002
15.086	62.6875
15.104	62.786
15.122	62.8877
15.14	62.9857
15.158	63.0744
15.176	63.1494
15.194	63.2078
15.212	63.2487
15.23	63.2728
15.248	63.2817
15.266	63.2774
15.284	63.2631
15.302	63.2417
15.32	63.2151
15.338	63.185
15.356	63.1522
15.374	63.1172
15.392	63.0803
15.41	63.0418
15.428	63.002
15.446	62.9618
15.464	62.9229
15.482	62.8873
15.5	62.8573
15.518	62.8359
15.536	62.825
15.554	62.8258
15.572	62.8389
15.59	62.863
15.608	62.8951
15.626	62.9318
15.644	62.9685
15.662	62.9994
15.68	63.0209
15.698	63.0299
15.716	63.024
15.734	63.0042
15.752	62.9728
15.77	62.9329
15.788	62.8907
15.806	62.8514
15.824	62.8192
15.842	62.7986
15.86	62.7917
15.878	62.7986
15.896	62.8189
15.914	62.8498
15.932	62.8874
15.95	62.9284
15.968	62.9684
15.986	63.0039
16.004	63.0334
16.022	63.0557
16.04	63.0708
16.058	63.0804
16.076	63.0859
16.094	63.0896
16.112	63.0933
16.13	63.0983
16.148	63.1055
16.166	63.1149
16.184	63.1259
16.202	63.1376
16.22	63.1484
16.238	63.1573
16.256	63.1637
16.274	63.167
16.292	63.1675
16.31	63.1658
16.328	63.1632
16.346	63.1611
16.364	63.1608
16.382	63.1642
16.4	63.1722
16.418	63.1853
16.436	63.2036
16.454	63.2256
16.472	63.2503
16.49	63.2745
16.508	63.2949
16.526	63.3092
16.544	63.3123
16.562	63.3017
16.58	63.2749
16.598	63.2294
16.616	63.1654
16.634	63.0828
16.652	62.9846
16.67	62.8743
16.688	62.7553
16.706	62.6348
16.724	62.5168
16.742	62.4068
16.76	62.3109
16.778	62.2314
16.796	62.1721
16.814	62.1336
16.832	62.1159
16.85	62.1176
16.868	62.1353
16.886	62.1667
16.904	62.206
16.922	62.2505
16.94	62.296
16.958	62.3392
16.976	62.3788
16.994	62.4124
17.012	62.4404
17.03	62.4625
17.048	62.4802
17.066	62.4941
17.084	62.5056
17.102	62.5155
17.12	62.5241
17.138	62.5315
17.156	62.5368
17.174	62.5393
17.192	62.5371
17.21	62.5294
17.228	62.5143
17.246	62.4915
17.264	62.4604
17.282	62.4213
17.3	62.3753
17.318	62.3241
17.336	62.2708
17.354	62.2171
17.372	62.1677
17.39	62.124
17.408	62.0899
17.426	62.067
17.444	62.0566
17.462	62.0596
17.48	62.0756
17.498	62.1036
17.516	62.1414
17.534	62.1874
17.552	62.2375
17.57	62.2905
17.588	62.342
17.606	62.3904
17.624	62.4327
17.642	62.4673
17.66	62.4932
17.678	62.5095
17.696	62.5162
17.714	62.514
17.732	62.5038
17.75	62.4866
17.768	62.4644
17.786	62.438
17.804	62.4098
17.822	62.3803
17.84	62.3515
17.858	62.324
17.876	62.2988
17.894	62.2765
17.912	62.2574
17.93	62.2417
17.948	62.2292
17.966	62.2201
17.984	62.2143
18.002	62.2123
18.02	62.2141
18.038	62.22
18.056	62.2302
18.074	62.2448
18.092	62.2643
18.11	62.2886
18.128	62.3181
18.146	62.3523
18.164	62.3909
18.182	62.4329
18.2	62.4774
18.218	62.5226
18.236	62.5678
18.254	62.6103
18.272	62.6497
18.29	62.683
18.308	62.7099
18.326	62.7283
18.344	62.7382
18.362	62.7384
18.38	62.7296
18.398	62.7118
18.416	62.6865
18.434	62.655
18.452	62.6194
18.47	62.581
18.488	62.5425
18.506	62.5049
18.524	62.4702
18.542	62.4388
18.56	62.4123
18.578	62.3908
18.596	62.3736
18.614	62.3607
18.632	62.3502
18.65	62.3418
18.668	62.3322
18.686	62.3212
18.704	62.3055
18.722	62.285
18.74	62.2568
18.758	62.221
18.776	62.176
18.794	62.1221
18.812	62.059
18.83	61.9875
18.848	61.9085
18.866	61.823
18.884	61.7326
18.902	61.6384
18.92	61.5421
18.938	61.4447
18.956	61.3478
18.974	61.2518
18.992	61.1581
19.01	61.0665
19.028	60.9776
19.046	60.891
19.064	60.8067
19.082	60.724
19.1	60.6423
19.118	60.5614
19.136	60.4806
19.154	60.4
19.172	60.3191
19.19	60.2385
19.208	60.159
19.226	60.081
19.244	60.0059
19.262	59.9342
19.28	59.8689
19.298	59.81
19.316	59.7611
19.334	59.722
19.352	59.6969
19.37	59.6854
19.388	59.6903
19.406	59.7115
19.424	59.75
19.442	59.8062
19.46	59.8785
19.478	59.9674
19.496	60.0695
19.514	60.1848
19.532	60.309
19.55	60.4406
19.568	60.5762
19.586	60.7121
19.604	60.8468
19.622	60.975
19.64	61.0967
19.658	61.2066
19.676	61.3054
19.694	61.3897
19.712	61.4596
19.73	61.5143
19.748	61.5536
19.766	61.5786
19.784	61.5892
19.802	61.5876
19.82	61.5748
19.838	61.5524
19.856	61.5231
19.874	61.4873
19.892	61.4492
19.91	61.4082
19.928	61.3685
19.946	61.3297
19.964	61.2949
19.982	61.2644
20	61.2397
20.018	61.2219
20.036	61.2107
20.054	61.2068
20.072	61.2097
20.09	61.2183
20.108	61.2329
20.126	61.2509
20.144	61.2727
20.162	61.2955
20.18	61.3187
20.198	61.3409
20.216	61.3594
20.234	61.3746
20.252	61.3834
20.27	61.3863
20.288	61.3816
20.306	61.3689
20.324	61.3485
20.342	61.3201
20.36	61.2843
20.378	61.2424
20.396	61.1943
20.414	61.1431
20.432	61.0884
20.45	61.0333
20.468	60.9789
20.486	60.9264
20.504	60.879
20.522	60.8361
20.54	60.8011
20.558	60.7739
20.576	60.7557
20.594	60.7475
20.612	60.7488
20.63	60.76
20.648	60.7809
20.666	60.8094
20.684	60.8461
20.702	60.8886
20.72	60.9358
20.738	60.987
20.756	61.0384
20.774	61.0908
20.792	61.1399
20.81	61.1852
20.828	61.2251
20.846	61.2565
20.864	61.2804
20.882	61.2942
20.9	61.2978
20.918	61.2912
20.936	61.2738
20.954	61.2461
20.972	61.2092
20.99	61.1624
21.008	61.1087
21.026	61.0485
21.044	60.983
21.062	60.9162
21.08	60.8468
21.098	60.7796
21.116	60.7153
21.134	60.6552
21.152	60.6033
21.17	60.5583
21.188	60.5236
21.206	60.4999
21.224	60.4871
21.242	60.4868
21.26	60.4986
21.278	60.5217
21.296	60.5566
21.314	60.6019
21.332	60.6551
21.35	60.7174
21.368	60.7841
21.386	60.8547
21.404	60.9279
21.422	60.9984
21.44	61.068
21.458	61.1319
21.476	61.1883
21.494	61.2373
21.512	61.2748
21.53	61.3014
21.548	61.3161
21.566	61.3173
21.584	61.3059
21.602	61.2821
21.62	61.245
21.638	61.1967
21.656	61.1388
21.674	61.0705
21.692	60.9953
21.71	60.9134
21.728	60.8255
21.746	60.7352
21.764	60.6417
21.782	60.5466
21.8	60.4513
21.818	60.3553
21.836	60.2597
21.854	60.165
21.872	60.0706
21.89	59.9761
21.908	59.8818
21.926	59.7865
21.944	59.6894
21.962	59.5908
21.98	59.4891
21.998	59.3842
22.016	59.276
22.034	59.1642
22.052	59.0484
22.07	58.9299
22.088	58.809
22.106	58.6854
22.124	58.5623
22.142	58.4394
22.16	58.3176
22.178	58.2011
22.196	58.0887
22.214	57.9829
22.232	57.8873
22.25	57.8002
22.268	57.7245
22.286	57.6624
22.304	57.6126
22.322	57.5765
22.34	57.555
22.358	57.5469
22.376	57.5516
22.394	57.5699
22.412	57.5997
22.43	57.6385
22.448	57.6879
22.466	57.744
22.484	57.8042
22.502	57.8701
22.52	57.9371
22.538	58.0032
22.556	58.0695
22.574	58.1321
22.592	58.1904
22.61	58.2448
22.628	58.2931
22.646	58.3353
22.664	58.3717
22.682	58.4021
22.7	58.426
22.718	58.4445
22.736	58.4587
22.754	58.4679
22.772	58.4737
22.79	58.4774
22.808	58.4782
22.826	58.4778
22.844	58.4774
22.862	58.4761
22.88	58.4755
22.898	58.4761
22.916	58.4776
22.934	58.4803
22.952	58.4848
22.97	58.4906
22.988	58.497
23.006	58.504
23.024	58.5116
23.042	58.5184
23.06	58.5242
23.078	58.5292
23.096	58.5329
23.114	58.5351
23.132	58.536
23.15	58.5358
23.168	58.5341
23.186	58.5312
23.204	58.5283
23.222	58.5249
23.24	58.5214
23.258	58.5194
23.276	58.5186
23.294	58.5193
23.312	58.5224
23.33	58.5278
23.348	58.5356
23.366	58.5468
23.384	58.5614
23.402	58.5792
23.42	58.601
23.438	58.6268
23.456	58.6563
23.474	58.6897
23.492	58.7272
23.51	58.7684
23.528	58.8123
23.546	58.8583
23.564	58.9068
23.582	58.9572
23.6	59.0088
23.618	59.062
23.636	59.1172
23.654	59.1742
23.672	59.2329
23.69	59.294
23.708	59.3576
23.726	59.4234
23.744	59.492
23.762	59.5637
23.78	59.6382
23.798	59.7158
23.816	59.7969
23.834	59.8815
23.852	59.9693
23.87	60.0602
23.888	60.1545
23.906	60.2519
23.924	60.352
23.942	60.4552
23.96	60.5612
23.978	60.6691
23.996	60.7786
24.014	60.89
24.032	61.0028
24.05	61.1167
24.068	61.2322
24.086	61.3481
24.104	61.4639
24.122	61.5803
24.14	61.6961
24.158	61.8091
24.176	61.921
24.194	62.0303
24.212	62.1335
24.23	62.2307
24.248	62.3226
24.266	62.405
24.284	62.4762
24.302	62.5385
24.32	62.5876
24.338	62.6194
24.356	62.6364
24.374	62.6369
24.392	62.6173
24.41	62.5784
24.428	62.5204
24.446	62.4409
24.464	62.3392
24.482	62.2165
24.5	62.0711
24.518	61.9014
24.536	61.7077
24.554	61.491
24.572	61.2521
24.59	60.989
24.608	60.7038
24.626	60.4009
24.644	60.0814
24.662	59.7423
24.68	59.3917
24.698	59.0366
24.716	58.6721
24.734	58.3021
24.752	57.9344
24.77	57.5671
24.788	57.1995
24.806	56.8427
24.824	56.5037
24.842	56.1742
24.86	55.8639
24.878	55.5849
24.896	55.3315
24.914	55.1057
24.932	54.9207
24.95	54.7822
24.968	54.6816
24.986	54.6303
25.004	54.6405
25.022	54.7076
25.04	54.8317
25.058	55.0192
25.076	55.2746
25.094	55.5948
25.112	55.9766
25.13	56.4175
25.148	56.9235
25.166	57.4877
25.184	58.0976
25.202	58.7505
25.22	59.4553
25.238	60.1927
25.256	60.9433
25.274	61.7201
25.292	62.5163
25.31	63.3076
25.328	64.0816
25.346	64.8561
25.364	65.6107
25.382	66.322
25.4	66.9945
25.418	67.632
25.436	68.2193
25.454	68.7444
25.472	69.2146
25.49	69.6297
25.508	69.9868
25.526	70.2838
25.544	70.5227
25.562	70.7065
25.58	70.838
25.598	70.9127
25.616	70.9348
25.634	70.9126
25.652	70.8492
25.67	70.7361
25.688	70.5865
25.706	70.4151
25.724	70.2198
25.742	69.996
25.76	69.7602
25.778	69.5274
25.796	69.2838
25.814	69.0374
25.832	68.8081
25.85	68.6089
25.868	68.4255
25.886	68.2674
25.904	68.1477
25.922	68.0707
25.94	68.0291
25.958	68.0271
25.976	68.0691
25.994	68.1613
26.012	68.2972
26.03	68.4646
26.048	68.654
26.066	68.8811
26.084	69.1324
26.102	69.3846
26.12	69.6264
26.138	69.8826
26.156	70.1251
26.174	70.3198
26.192	70.4609
26.21	70.574
26.228	70.6205
26.246	70.5601
26.264	70.3969
26.282	70.1473
26.3	69.7793
26.318	69.2613
26.336	68.6039
26.354	67.8132
26.372	66.8722
26.39	65.7647
26.408	64.4885
26.426	63.0561
26.444	61.4796
26.462	59.7669
26.48	57.8955
26.498	55.8885
26.516	53.7811
26.534	51.5934
26.552	49.2794
26.57	46.8848
26.588	44.4717
26.606	42.0722
26.624	39.6198
26.642	37.1774
26.66	34.8245
26.678	32.5994
26.696	30.4291
26.714	28.3752
26.732	26.5124
26.75	24.8753
26.768	23.4009
26.786	22.1353
26.804	21.1335
26.822	20.4258
26.84	19.9734
26.858	19.7863
26.876	19.8788
26.894	20.2687
26.912	20.9571
26.93	21.9096
26.948	23.0905
26.966	24.5984
26.984	26.6333
27.002	28.7387
27.02	30.4158
27.028	30.8473