File: Bakgrunnsmateriale/MATLAB/FTIR/ftir_data/subBb/Mapping_121/C-4040-8_t100_cm-1.asc
PE IR       SPECTRUM    SPECTRUM    ASCII       PEDS        1.60
  -1
C-458C~1.ASC
17/03/27
22:42:47.00
17/03/27
22:42:47.00
tln
$C-4040-8_t0100$<tbV0>[13.0,10.4,8.0,0.0,27,1,0]
370
64

2002,4.07
MIRTGS : RIGHTBACK : INTERNAL 2
MIR : ON : INTERNAL 2
OPTKBR

0.200000
8
8.000000
FILLER
RATIO
SPECTRUM
UNLOCKED 256

DOUBLE
64
COMBINED
1
0
0

1.000000
RATIO

1
0
TRUE
51149
0
LEFT NOT FITTED RIGHT NOT FITTED 0
NONE
NONE
15600
12
4.427000
51148
TRUE
1 0 8 72 0 0 0 0

15798

#HDR
-1
-1
#GR
CM-1
%T
2.38419e-05
0.0
5000
-1.000000
4631
8
185.515
49.7656
#DATA
5000	64.9681
4996	64.7394
4992	64.5021
4988	64.7039
4984	64.8911
4980	64.7608
4976	64.7116
4972	65.006
4968	65.4936
4964	65.655
4960	65.7789
4956	65.8463
4952	65.2546
4948	64.719
4944	64.5312
4940	64.3365
4936	64.4109
4932	64.6713
4928	64.8031
4924	64.9763
4920	65.084
4916	64.8544
4912	64.6895
4908	64.8756
4904	64.8912
4900	64.5622
4896	64.6308
4892	65.1366
4888	65.6969
4884	66.3141
4880	66.3739
4876	65.6772
4872	65.0697
4868	64.9702
4864	65.0547
4860	65.0815
4856	64.8806
4852	64.6559
4848	64.6358
4844	64.5447
4840	64.4089
4836	64.2443
4832	64.1239
4828	64.2437
4824	64.5675
4820	65.0314
4816	65.3705
4812	65.4045
4808	65.3017
4804	65.1752
4800	65.064
4796	65.1775
4792	65.3433
4788	65.2548
4784	65.24
4780	65.4675
4776	65.6767
4772	65.6708
4768	65.5307
4764	65.4851
4760	65.5361
4756	65.5056
4752	65.3759
4748	65.2588
4744	65.0678
4740	64.8134
4736	64.7897
4732	65.0851
4728	65.391
4724	65.5444
4720	65.6299
4716	65.6427
4712	65.4835
4708	65.1494
4704	64.9975
4700	65.2532
4696	65.5117
4692	65.5038
4688	65.3652
4684	65.251
4680	65.1739
4676	65.1391
4672	65.3047
4668	65.5635
4664	65.6439
4660	65.6069
4656	65.7417
4652	65.8864
4648	65.8465
4644	65.7012
4640	65.3279
4636	65.0382
4632	65.1089
4628	65.1389
4624	65.1128
4620	65.2398
4616	65.323
4612	65.3199
4608	65.2532
4604	65.0958
4600	64.9499
4596	64.9164
4592	64.9951
4588	65.1281
4584	65.3177
4580	65.3784
4576	65.2969
4572	65.2822
4568	65.2329
4564	65.0786
4560	64.9054
4556	64.8902
4552	65.0038
4548	64.9724
4544	64.902
4540	64.8221
4536	64.4944
4532	64.1937
4528	64.2691
4524	64.4621
4520	64.3268
4516	64.0023
4512	63.9996
4508	64.1301
4504	64.0875
4500	64.1303
4496	64.271
4492	64.2864
4488	64.1808
4484	64.1785
4480	64.3485
4476	64.4261
4472	64.1606
4468	63.8711
4464	63.921
4460	63.9943
4456	63.848
4452	63.689
4448	63.836
4444	64.0985
4440	64.2077
4436	64.1629
4432	64.106
4428	64.1283
4424	64.0464
4420	63.5877
4416	63.2076
4412	63.3061
4408	63.7631
4404	63.9322
4400	63.8846
4396	63.6231
4392	64.1408
4388	88.3481
4384	108.849
4380	88.1141
4376	70.667
4372	66.7191
4368	65.383
4364	64.5879
4360	63.8002
4356	63.3467
4352	63.196
4348	63.3992
4344	63.5109
4340	63.3745
4336	63.4922
4332	63.8623
4328	64.3352
4324	64.846
4320	64.8442
4316	64.521
4312	64.3183
4308	64.2116
4304	64.1534
4300	64.1178
4296	64.2781
4292	64.4816
4288	64.4474
4284	64.3565
4280	64.334
4276	64.3888
4272	64.5425
4268	64.8703
4264	65.0409
4260	64.6811
4256	64.192
4252	63.8819
4248	63.953
4244	64.4012
4240	64.712
4236	64.7902
4232	64.7512
4228	64.7106
4224	64.812
4220	64.9494
4216	65.0049
4212	64.9184
4208	64.7709
4204	64.7295
4200	64.6345
4196	64.3182
4192	63.9161
4188	63.7928
4184	64.3409
4180	65.2916
4176	65.9362
4172	65.7656
4168	65.185
4164	65.0482
4160	65.2068
4156	65.1431
4152	64.9445
4148	64.983
4144	65.1185
4140	65.1699
4136	65.1812
4132	65.047
4128	65.0089
4124	65.1561
4120	65.2315
4116	65.1998
4112	65.0232
4108	64.8952
4104	65.1536
4100	65.4964
4096	65.4515
4092	65.1413
4088	64.9831
4084	65.0915
4080	65.1867
4076	65.158
4072	65.1417
4068	65.1463
4064	65.1296
4060	65.1689
4056	65.1803
4052	65.0894
4048	65.0337
4044	65.0508
4040	65.1457
4036	65.222
4032	65.2215
4028	65.2606
4024	65.3909
4020	65.4731
4016	65.3894
4012	65.206
4008	65.1013
4004	65.1567
4000	65.1966
3996	65.2191
3992	65.2986
3988	65.3674
3984	65.4051
3980	65.3417
3976	65.2422
3972	65.2956
3968	65.3436
3964	65.2045
3960	65.0096
3956	64.9151
3952	64.9482
3948	65.009
3944	64.9752
3940	64.9438
3936	65.0005
3932	64.8367
3928	64.6007
3924	64.7712
3920	65.0645
3916	65.178
3912	65.2215
3908	65.1804
3904	65.0581
3900	64.961
3896	64.9385
3892	64.919
3888	64.9285
3884	65.0514
3880	65.106
3876	65.0598
3872	64.9693
3868	64.8305
3864	64.8248
3860	64.978
3856	65.0678
3852	65.0109
3848	65.0023
3844	65.1166
3840	65.1968
3836	65.0756
3832	64.8059
3828	64.6258
3824	64.6888
3820	64.9997
3816	65.262
3812	65.2585
3808	65.1326
3804	65.0515
3800	65.0528
3796	65.0581
3792	65.0069
3788	65.0117
3784	65.1527
3780	65.2657
3776	65.3013
3772	65.3131
3768	65.2308
3764	65.1392
3760	65.1799
3756	65.268
3752	65.2103
3748	65.0794
3744	65.0374
3740	65.0141
3736	65.0247
3732	65.1165
3728	65.3393
3724	65.5625
3720	65.5204
3716	65.3708
3712	65.2684
3708	65.185
3704	65.1848
3700	65.2019
3696	65.2154
3692	65.2699
3688	65.315
3684	65.368
3680	65.3732
3676	65.3047
3672	65.3313
3668	65.4398
3664	65.4389
3660	65.4039
3656	65.3971
3652	65.3131
3648	65.2493
3644	65.256
3640	65.1802
3636	65.0572
3632	65.0642
3628	65.1966
3624	65.3704
3620	65.4755
3616	65.3871
3612	65.1699
3608	65.0425
3604	65.0788
3600	65.1733
3596	65.321
3592	65.4135
3588	65.3069
3584	65.2185
3580	65.2774
3576	65.3054
3572	65.2799
3568	65.3525
3564	65.506
3560	65.5413
3556	65.3648
3552	65.1878
3548	65.1205
3544	65.0863
3540	65.1301
3536	65.1932
3532	65.2275
3528	65.2465
3524	65.2175
3520	65.2004
3516	65.3183
3512	65.5158
3508	65.5102
3504	65.2518
3500	65.0054
3496	64.9574
3492	65.102
3488	65.2249
3484	65.0769
3480	64.9571
3476	65.1784
3472	65.5197
3468	65.747
3464	65.7212
3460	65.5069
3456	65.3515
3452	65.2666
3448	65.0953
3444	64.9682
3440	65.054
3436	65.2297
3432	65.3619
3428	65.32
3424	65.1698
3420	65.123
3416	65.2052
3412	65.2849
3408	65.2262
3404	65.0972
3400	65.0578
3396	65.0851
3392	65.0939
3388	65.0341
3384	64.9123
3380	64.9155
3376	65.0033
3372	64.9659
3368	64.9355
3364	65.0019
3360	65
3356	64.9956
3352	65.1616
3348	65.351
3344	65.3611
3340	65.2774
3336	65.2182
3332	65.1864
3328	65.2391
3324	65.3028
3320	65.2176
3316	65.085
3312	65.07
3308	65.1177
3304	65.1241
3300	65.1087
3296	65.086
3292	65.0771
3288	65.1107
3284	65.1544
3280	65.1826
3276	65.2218
3272	65.2765
3268	65.2573
3264	65.1787
3260	65.1215
3256	65.0628
3252	65.0185
3248	65.0653
3244	65.0945
3240	65.0139
3236	64.9703
3232	64.989
3228	65.0028
3224	65.0771
3220	65.1653
3216	65.2002
3212	65.2648
3208	65.3356
3204	65.2961
3200	65.0535
3196	64.8023
3192	64.8452
3188	64.9866
3184	65.076
3180	65.211
3176	65.2684
3172	65.2516
3168	65.2239
3164	65.2242
3160	65.352
3156	65.4153
3152	65.3125
3148	65.1788
3144	65.1748
3140	65.2669
3136	65.2816
3132	65.467
3128	65.7322
3124	65.7115
3120	65.6179
3116	65.4826
3112	65.3625
3108	65.4488
3104	65.4555
3100	65.2224
3096	65.0607
3092	65.1216
3088	65.1915
3084	65.1568
3080	65.1186
3076	65.1571
3072	65.2209
3068	65.2147
3064	65.1311
3060	65.096
3056	65.1469
3052	65.2193
3048	65.3535
3044	65.4226
3040	65.4066
3036	65.4552
3032	65.4404
3028	65.3767
3024	65.369
3020	65.3654
3016	65.3206
3012	65.2649
3008	65.2928
3004	65.3494
3000	65.3606
2996	65.3705
2992	65.3404
2988	65.2128
2984	65.0953
2980	65.1182
2976	65.199
2972	65.2245
2968	65.2572
2964	65.3085
2960	65.281
2956	65.1964
2952	65.1654
2948	65.156
2944	65.1471
2940	65.1986
2936	65.2328
2932	65.1463
2928	65.04
2924	65.0213
2920	65.0284
2916	64.9958
2912	64.9601
2908	64.9893
2904	65.0481
2900	65.0936
2896	65.1484
2892	65.156
2888	65.0962
2884	65.0863
2880	65.1676
2876	65.2283
2872	65.1813
2868	65.1318
2864	65.2336
2860	65.294
2856	65.184
2852	65.1605
2848	65.2262
2844	65.1622
2840	65.1217
2836	65.2678
2832	65.3707
2828	65.3526
2824	65.3561
2820	65.3609
2816	65.3048
2812	65.2695
2808	65.2756
2804	65.2331
2800	65.2039
2796	65.2838
2792	65.3664
2788	65.3435
2784	65.2994
2780	65.3
2776	65.3153
2772	65.3443
2768	65.3345
2764	65.2523
2760	65.2024
2756	65.2244
2752	65.2489
2748	65.2488
2744	65.233
2740	65.2227
2736	65.2765
2732	65.3695
2728	65.4037
2724	65.3909
2720	65.3452
2716	65.2736
2712	65.2531
2708	65.2688
2704	65.2542
2700	65.234
2696	65.2468
2692	65.2479
2688	65.2335
2684	65.2625
2680	65.284
2676	65.2798
2672	65.3643
2668	65.4844
2664	65.471
2660	65.404
2656	65.3971
2652	65.3911
2648	65.3525
2644	65.2529
2640	65.1141
2636	65.093
2632	65.2585
2628	65.4005
2624	65.3621
2620	65.2829
2616	65.2753
2612	65.3299
2608	65.3747
2604	65.3174
2600	65.2309
2596	65.2695
2592	65.3629
2588	65.3817
2584	65.4217
2580	65.4609
2576	65.3953
2572	65.3136
2568	65.2338
2564	65.1845
2560	65.2648
2556	65.3732
2552	65.3594
2548	65.3127
2544	65.3394
2540	65.3602
2536	65.3733
2532	65.3744
2528	65.2964
2524	65.2564
2520	65.2889
2516	65.3049
2512	65.289
2508	65.2714
2504	65.3271
2500	65.4497
2496	65.5221
2492	65.5191
2488	65.4781
2484	65.4006
2480	65.3854
2476	65.4017
2472	65.3022
2468	65.1651
2464	65.1558
2460	65.2616
2456	65.3419
2452	65.358
2448	65.3607
2444	65.3564
2440	65.2937
2436	65.2291
2432	65.2819
2428	65.3931
2424	65.4858
2420	65.5034
2416	65.4078
2412	65.2212
2408	65.1162
2404	65.2569
2400	65.4002
2396	65.3951
2392	65.388
2388	65.3693
2384	65.2951
2380	65.2374
2376	65.2617
2372	65.3134
2368	65.3138
2364	65.347
2360	65.3995
2356	65.3891
2352	65.3839
2348	65.3582
2344	65.2795
2340	65.3044
2336	65.3833
2332	65.3876
2328	65.4371
2324	65.4712
2320	65.392
2316	65.3571
2312	65.3927
2308	65.3767
2304	65.3557
2300	65.3617
2296	65.3586
2292	65.3671
2288	65.3658
2284	65.359
2280	65.4076
2276	65.4418
2272	65.3966
2268	65.3544
2264	65.3496
2260	65.374
2256	65.3698
2252	65.3373
2248	65.322
2244	65.2731
2240	65.2253
2236	65.2582
2232	65.3347
2228	65.3686
2224	65.3694
2220	65.4033
2216	65.4179
2212	65.3717
2208	65.3512
2204	65.3652
2200	65.3344
2196	65.2824
2192	65.2838
2188	65.3347
2184	65.4428
2180	65.4931
2176	65.3941
2172	65.332
2168	65.3541
2164	65.3687
2160	65.3887
2156	65.3961
2152	65.309
2148	65.1788
2144	65.1591
2140	65.2624
2136	65.3642
2132	65.3479
2128	65.2877
2124	65.309
2120	65.432
2116	65.5481
2112	65.5816
2108	65.5468
2104	65.4193
2100	65.2971
2096	65.2609
2092	65.2948
2088	65.364
2084	65.4124
2080	65.374
2076	65.4062
2072	65.6203
2068	65.6613
2064	65.5076
2060	65.2927
2056	64.9888
2052	64.9542
2048	65.2043
2044	65.3471
2040	65.364
2036	65.3293
2032	65.3222
2028	65.3979
2024	65.4458
2020	65.4464
2016	65.4356
2012	65.4335
2008	65.4457
2004	65.4554
2000	65.4297
1996	65.3327
1992	65.2491
1988	65.2796
1984	65.3461
1980	65.3386
1976	65.3234
1972	65.3825
1968	65.4693
1964	65.4694
1960	65.3751
1956	65.335
1952	65.3405
1948	65.3209
1944	65.318
1940	65.3575
1936	65.4331
1932	65.4992
1928	65.4817
1924	65.4354
1920	65.4251
1916	65.3281
1912	65.2038
1908	65.2413
1904	65.3844
1900	65.4742
1896	65.4564
1892	65.3987
1888	65.3983
1884	65.4329
1880	65.4577
1876	65.4868
1872	65.485
1868	65.464
1864	65.4467
1860	65.4056
1856	65.4002
1852	65.4644
1848	65.4936
1844	65.473
1840	65.4498
1836	65.4046
1832	65.3803
1828	65.4253
1824	65.4301
1820	65.3451
1816	65.2902
1812	65.295
1808	65.3409
1804	65.3639
1800	65.3158
1796	65.2663
1792	65.2306
1788	65.2372
1784	65.3321
1780	65.3881
1776	65.3215
1772	65.3125
1768	65.3729
1764	65.3065
1760	65.1908
1756	65.1388
1752	65.1228
1748	65.1364
1744	65.1848
1740	65.2
1736	65.1059
1732	64.997
1728	64.9823
1724	65.0719
1720	65.2172
1716	65.331
1712	65.4145
1708	65.4591
1704	65.3783
1700	65.294
1696	65.314
1692	65.3582
1688	65.3621
1684	65.3003
1680	65.2431
1676	65.2544
1672	65.3206
1668	65.3562
1664	65.3397
1660	65.3304
1656	65.3154
1652	65.27
1648	65.2159
1644	65.206
1640	65.2332
1636	65.2459
1632	65.2296
1628	65.215
1624	65.2254
1620	65.2412
1616	65.2107
1612	65.1764
1608	65.1896
1604	65.1566
1600	65.0859
1596	65.1114
1592	65.2369
1588	65.3085
1584	65.2956
1580	65.2974
1576	65.2925
1572	65.2538
1568	65.1997
1564	65.1537
1560	65.1172
1556	65.0874
1552	65.1085
1548	65.1522
1544	65.2443
1540	65.3082
1536	65.2354
1532	65.1652
1528	65.1533
1524	65.1633
1520	65.209
1516	65.2249
1512	65.1591
1508	65.1149
1504	65.1501
1500	65.2297
1496	65.3025
1492	65.2623
1488	65.1711
1484	65.1497
1480	65.1488
1476	65.1787
1472	65.2477
1468	65.2506
1464	65.2132
1460	65.1832
1456	65.1281
1452	65.1127
1448	65.2017
1444	65.2615
1440	65.1609
1436	65.0029
1432	64.9294
1428	65.0273
1424	65.2228
1420	65.3553
1416	65.4014
1412	65.4428
1408	65.5086
1404	65.4395
1400	65.2649
1396	65.148
1392	65.0933
1388	65.1293
1384	65.2157
1380	65.22
1376	65.1756
1372	65.1793
1368	65.1643
1364	65.1271
1360	65.1573
1356	65.2174
1352	65.2256
1348	65.2209
1344	65.1884
1340	65.0589
1336	64.9711
1332	65.0184
1328	65.1186
1324	65.1569
1320	65.0766
1316	64.9381
1312	64.8541
1308	64.9327
1304	65.1112
1300	65.2003
1296	65.174
1292	65.1269
1288	65.1183
1284	65.1564
1280	65.2124
1276	65.1965
1272	65.0773
1268	64.9464
1264	64.8976
1260	64.9962
1256	65.1261
1252	65.1276
1248	65.0764
1244	65.0513
1240	65.0202
1236	65.0116
1232	65.0506
1228	65.0817
1224	65.0915
1220	65.1124
1216	65.1581
1212	65.1649
1208	65.0938
1204	65.0051
1200	64.9528
1196	64.9881
1192	65.0896
1188	65.1139
1184	65.0647
1180	65.0887
1176	65.1377
1172	65.1334
1168	65.15
1164	65.1657
1160	65.1051
1156	64.9904
1152	64.8881
1148	64.8717
1144	64.9925
1140	65.1536
1136	65.1344
1132	64.9441
1128	64.8761
1124	65.0101
1120	65.1643
1116	65.1879
1112	65.0538
1108	65.0138
1104	65.1392
1100	65.1663
1096	64.9932
1092	64.7878
1088	64.7553
1084	64.7703
1080	64.6779
1076	64.6114
1072	64.6775
1068	64.7685
1064	64.7886
1060	64.7607
1056	64.7708
1052	64.9768
1048	65.2256
1044	65.1906
1040	64.8935
1036	64.663
1032	64.6555
1028	64.6744
1024	64.6996
1020	64.741
1016	64.6786
1012	64.6058
1008	64.6116
1004	64.6421
1000	64.7297
996	 64.8012
992	 64.8812
988	 65.0952
984	 65.1527
980	 64.9252
976	 64.7894
972	 64.8447
968	 64.9034
964	 64.8933
960	 64.8524
956	 64.8188
952	 64.8089
948	 64.8801
944	 64.8836
940	 64.859
936	 64.9613
932	 65.0918
928	 65.1747
924	 65.2711
920	 65.5339
916	 65.4818
912	 64.9922
908	 64.7676
904	 64.5319
900	 64.227
896	 64.393
892	 64.5801
888	 64.6554
884	 64.741
880	 64.6731
876	 64.7111
872	 64.7662
868	 64.6788
864	 64.7199
860	 64.8647
856	 64.9376
852	 64.9302
848	 64.6425
844	 64.1951
840	 64.0495
836	 64.318
832	 64.7266
828	 64.7157
824	 64.338
820	 64.1397
816	 64.2658
812	 64.5668
808	 64.7752
804	 64.6922
800	 64.5575
796	 64.6751
792	 64.6949
788	 64.4847
784	 64.3565
780	 64.3518
776	 64.3455
772	 64.4083
768	 64.5171
764	 64.3301
760	 63.9731
756	 64.0733
752	 64.4576
748	 64.3525
744	 63.8198
740	 63.5274
736	 63.6472
732	 63.9154
728	 64.0121
724	 63.8823
720	 63.8317
716	 63.8762
712	 63.9785
708	 64.0766
704	 64.0133
700	 63.9506
696	 63.9878
692	 64.1643
688	 64.3286
684	 64.2316
680	 64.0303
676	 63.9372
672	 63.9198
668	 63.697
664	 63.2859
660	 63.0032
656	 63.0165
652	 63.2697
648	 63.5167
644	 63.5563
640	 63.5094
636	 63.4623
632	 63.3693
628	 63.3836
624	 63.4355
620	 63.3431
616	 63.2522
612	 63.4145
608	 63.5099
604	 63.2427
600	 63.0147
596	 62.8539
592	 62.6996
588	 62.6578
584	 62.6887
580	 62.9369
576	 63.2265
572	 63.1594
568	 62.9816
564	 63.0823
560	 63.272
556	 63.458
552	 63.2545
548	 62.4718
544	 62.0792
540	 62.4848
536	 62.7805
532	 62.3538
528	 61.8369
524	 61.6575
520	 61.8018
516	 62.2079
512	 62.5007
508	 62.4091
504	 62.0651
500	 62.2101
496	 62.6291
492	 62.7222
488	 62.7698
484	 62.2661
480	 61.254
476	 60.9368
472	 61.2048
468	 61.0153
464	 60.4153
460	 60.3506
456	 60.8735
452	 60.9641
448	 60.526
444	 60.0993
440	 59.481
436	 58.2449
432	 57.2197
428	 58.0474
424	 59.0732
420	 57.4855
416	 53.576
412	 49.9583
408	 52.1459
404	 63.4939
400	 76.8237
396	 67.6757
392	 51.8339
388	 56.1846
384	 61.4585
380	 56.8135
376	 126.66
372	 185.515
370	 166.323