File: Bakgrunnsmateriale/MATLAB/FTIR/ftir_data/subBb/Mapping_121/C-4040-8_t74_cm-1.asc
PE IR       SPECTRUM    SPECTRUM    ASCII       PEDS        1.60
  -1
C-1D6F~1.ASC
17/03/27
20:35:06.00
17/03/27
20:35:06.00
tln
$C-4040-8_t0074$<tbV0>[-5.2,2.6,8.0,0.0,27,1,0]
370
64

2002,4.07
MIRTGS : RIGHTBACK : INTERNAL 2
MIR : ON : INTERNAL 2
OPTKBR

0.200000
8
8.000000
FILLER
RATIO
SPECTRUM
UNLOCKED 256

DOUBLE
64
COMBINED
1
0
0

1.000000
RATIO

1
0
TRUE
51149
0
LEFT NOT FITTED RIGHT NOT FITTED 0
NONE
NONE
15600
12
4.427000
51148
TRUE
1 0 8 72 0 0 0 0

15798

#HDR
-1
-1
#GR
CM-1
%T
2.38419e-05
0.0
5000
-1.000000
4631
8
75.587
4.694247
#DATA
5000	64.9391
4996	64.8848
4992	64.7635
4988	64.8854
4984	65.4353
4980	65.5521
4976	65.3184
4972	65.349
4968	65.1685
4964	64.9836
4960	65.5771
4956	66.2658
4952	66.2104
4948	65.7257
4944	65.2646
4940	65.0708
4936	64.9989
4932	64.8171
4928	64.7534
4924	64.9335
4920	65.1906
4916	65.3849
4912	65.4532
4908	65.4231
4904	65.4703
4900	65.4668
4896	65.129
4892	64.9334
4888	65.45
4884	65.9392
4880	65.6654
4876	65.5983
4872	65.9521
4868	65.716
4864	65.1966
4860	65.0104
4856	64.8799
4852	64.759
4848	64.8714
4844	64.9527
4840	64.9561
4836	65.1871
4832	65.37
4828	65.2077
4824	65.0474
4820	65.0413
4816	64.9971
4812	64.9976
4808	65.0969
4804	65.2178
4800	65.3836
4796	65.5045
4792	65.4256
4788	65.243
4784	65.192
4780	65.1995
4776	65.1167
4772	65.0275
4768	65.0203
4764	65.0657
4760	65.0923
4756	65.0059
4752	64.8864
4748	64.9611
4744	65.0773
4740	65.0439
4736	64.9577
4732	64.8484
4728	64.8298
4724	65.0124
4720	65.0778
4716	64.9879
4712	65.0832
4708	65.1971
4704	65.1026
4700	65.1296
4696	65.3846
4692	65.4243
4688	65.3242
4684	65.4114
4680	65.4963
4676	65.3507
4672	65.1957
4668	65.2334
4664	65.1629
4660	64.9531
4656	65.0233
4652	65.3826
4648	65.4001
4644	65.1384
4640	65.258
4636	65.5482
4632	65.7013
4628	65.7012
4624	65.5353
4620	65.2972
4616	64.9849
4612	64.8419
4608	64.9786
4604	65.0012
4600	64.8241
4596	64.7995
4592	65.0498
4588	65.2741
4584	65.2572
4580	65.1296
4576	65.1056
4572	65.091
4568	64.9896
4564	65.0738
4560	65.2126
4556	65.1261
4552	65.1667
4548	65.3388
4544	65.2472
4540	65.3099
4536	65.7691
4532	66.0475
4528	65.9413
4524	65.6278
4520	65.3873
4516	65.2449
4512	65.1527
4508	65.0763
4504	64.8548
4500	64.8889
4496	65.2401
4492	65.2885
4488	65.0053
4484	64.7476
4480	64.6285
4476	64.7111
4472	65.0114
4468	65.3736
4464	65.5309
4460	65.2987
4456	65.0092
4452	65.0354
4448	65.2654
4444	65.5295
4440	65.6846
4436	65.3987
4432	64.8666
4428	64.8512
4424	65.1525
4420	65.3544
4416	65.2179
4412	64.7786
4408	63.9889
4404	63.6855
4400	64.3239
4396	64.9621
4392	63.5526
4388	62.6883
4384	65.8266
4380	62.4586
4376	60.0631
4372	65.1507
4368	65.6254
4364	64.7236
4360	65.0018
4356	65.1113
4352	65.2336
4348	65.6995
4344	66.3256
4340	66.2827
4336	66.0335
4332	66.0336
4328	65.9085
4324	65.5599
4320	65.298
4316	65.3927
4312	65.5991
4308	65.6412
4304	65.6885
4300	65.8275
4296	65.8308
4292	65.6396
4288	65.5051
4284	65.423
4280	65.4479
4276	65.6125
4272	65.6085
4268	65.3503
4264	65.1267
4260	65.0819
4256	65.1122
4252	65.1752
4248	65.1197
4244	64.8869
4240	64.8454
4236	65.139
4232	65.3648
4228	65.2691
4224	65.1361
4220	65.1827
4216	65.2105
4212	65.2222
4208	65.2926
4204	65.3812
4200	65.2313
4196	64.7626
4192	64.7448
4188	65.397
4184	65.644
4180	65.1784
4176	65.1019
4172	65.5164
4168	65.5931
4164	65.4172
4160	65.3873
4156	65.3929
4152	65.2411
4148	65.0655
4144	64.9791
4140	64.9835
4136	65.012
4132	65.0178
4128	65.0888
4124	65.2174
4120	65.2122
4116	65.0677
4112	65.0559
4108	65.1071
4104	64.9736
4100	64.8682
4096	65.017
4092	65.1105
4088	65.0057
4084	64.9754
4080	64.9759
4076	64.9207
4072	64.9725
4068	65.1037
4064	65.1446
4060	65.0943
4056	65.0324
4052	65.0477
4048	65.1834
4044	65.2719
4040	65.2897
4036	65.2528
4032	65.1392
4028	65.1786
4024	65.2817
4020	65.209
4016	65.1323
4012	65.2323
4008	65.3403
4004	65.2907
4000	65.2578
3996	65.3617
3992	65.3823
3988	65.1509
3984	64.9003
3980	64.8828
3976	64.9517
3972	64.9559
3968	65.0569
3964	65.2266
3960	65.278
3956	65.2796
3952	65.2115
3948	65.0973
3944	65.0674
3940	65.0539
3936	65.1228
3932	65.2392
3928	65.2455
3924	65.2299
3920	65.2847
3916	65.3784
3912	65.4231
3908	65.3791
3904	65.3461
3900	65.3703
3896	65.3496
3892	65.3793
3888	65.4664
3884	65.2855
3880	64.9958
3876	64.9954
3872	65.1695
3868	65.3315
3864	65.3549
3860	65.1321
3856	64.8674
3852	64.8917
3848	65.1827
3844	65.4356
3840	65.4424
3836	65.2436
3832	65.1951
3828	65.3263
3824	65.31
3820	65.2101
3816	65.1738
3812	65.2602
3808	65.3746
3804	65.3111
3800	65.2362
3796	65.2031
3792	65.0675
3788	65.0173
3784	65.114
3780	65.1131
3776	65.0712
3772	65.2176
3768	65.4506
3764	65.5822
3760	65.571
3756	65.5122
3752	65.4567
3748	65.4107
3744	65.3956
3740	65.3206
3736	65.2395
3732	65.1977
3728	65.1999
3724	65.2753
3720	65.2766
3716	65.2647
3712	65.3736
3708	65.4141
3704	65.2788
3700	65.1227
3696	65.1283
3692	65.2908
3688	65.3823
3684	65.3623
3680	65.3934
3676	65.4466
3672	65.4061
3668	65.3171
3664	65.3651
3660	65.4873
3656	65.4179
3652	65.2742
3648	65.22
3644	65.1726
3640	65.1522
3636	65.1731
3632	65.1996
3628	65.2681
3624	65.3466
3620	65.3156
3616	65.2607
3612	65.3045
3608	65.3152
3604	65.2859
3600	65.2924
3596	65.3221
3592	65.3678
3588	65.3899
3584	65.3946
3580	65.3694
3576	65.3382
3572	65.319
3568	65.2757
3564	65.1792
3560	65.1389
3556	65.3207
3552	65.4921
3548	65.415
3544	65.2725
3540	65.2647
3536	65.3339
3532	65.3547
3528	65.3521
3524	65.3088
3520	65.3117
3516	65.3356
3512	65.1547
3508	65.0643
3504	65.2211
3500	65.2838
3496	65.2743
3492	65.2832
3488	65.2656
3484	65.3607
3480	65.4757
3476	65.4182
3472	65.3059
3468	65.2639
3464	65.3464
3460	65.5416
3456	65.6916
3452	65.6252
3448	65.4019
3444	65.3561
3440	65.527
3436	65.5017
3432	65.1655
3428	64.9091
3424	64.9508
3420	65.1662
3416	65.3406
3412	65.3192
3408	65.1423
3404	64.9846
3400	65.0229
3396	65.219
3392	65.4602
3388	65.6106
3384	65.5098
3380	65.344
3376	65.2906
3372	65.2846
3368	65.2996
3364	65.2595
3360	65.156
3356	65.1083
3352	65.1656
3348	65.2529
3344	65.311
3340	65.3824
3336	65.3997
3332	65.3081
3328	65.2066
3324	65.2074
3320	65.3106
3316	65.3122
3312	65.1569
3308	65.0612
3304	65.1964
3300	65.4217
3296	65.4428
3292	65.3188
3288	65.277
3284	65.247
3280	65.1475
3276	65.1426
3272	65.2537
3268	65.347
3264	65.3434
3260	65.3169
3256	65.3702
3252	65.3264
3248	65.1519
3244	65.0337
3240	64.9696
3236	65.0025
3232	65.1799
3228	65.3188
3224	65.2569
3220	65.1486
3216	65.1524
3212	65.1492
3208	65.0915
3204	65.1048
3200	65.27
3196	65.4595
3192	65.4836
3188	65.382
3184	65.3241
3180	65.3011
3176	65.2442
3172	65.2095
3168	65.2624
3164	65.3015
3160	65.2697
3156	65.2708
3152	65.2609
3148	65.2459
3144	65.2811
3140	65.1228
3136	64.8665
3132	64.9097
3128	65.0121
3124	65.0301
3120	65.2215
3116	65.4155
3112	65.3349
3108	65.1666
3104	65.2297
3100	65.396
3096	65.4378
3092	65.4138
3088	65.3816
3084	65.333
3080	65.2944
3076	65.2661
3072	65.2998
3068	65.3831
3064	65.3422
3060	65.282
3056	65.3641
3052	65.3711
3048	65.1858
3044	65.0522
3040	65.104
3036	65.2326
3032	65.3639
3028	65.4126
3024	65.3496
3020	65.2574
3016	65.1918
3012	65.1766
3008	65.1813
3004	65.1806
3000	65.2085
2996	65.2616
2992	65.2647
2988	65.1917
2984	65.1272
2980	65.1401
2976	65.1539
2972	65.17
2968	65.2342
2964	65.2409
2960	65.1603
2956	65.0911
2952	65.0919
2948	65.1277
2944	65.1311
2940	65.0783
2936	65.0288
2932	64.9827
2928	64.9035
2924	64.8245
2920	64.7451
2916	64.7825
2912	64.934
2908	65.076
2904	65.1721
2900	65.191
2896	65.2189
2892	65.2396
2888	65.1968
2884	65.1256
2880	65.0147
2876	65.0028
2872	65.1932
2868	65.4224
2864	65.4527
2860	65.2599
2856	65.133
2852	65.2333
2848	65.295
2844	65.1946
2840	65.1516
2836	65.2028
2832	65.2717
2828	65.3321
2824	65.3111
2820	65.2859
2816	65.3195
2812	65.3101
2808	65.3112
2804	65.3655
2800	65.3754
2796	65.3666
2792	65.4077
2788	65.4727
2784	65.4525
2780	65.3596
2776	65.3429
2772	65.3872
2768	65.3723
2764	65.3259
2760	65.3261
2756	65.3542
2752	65.3369
2748	65.319
2744	65.3894
2740	65.4113
2736	65.3341
2732	65.2797
2728	65.259
2724	65.2876
2720	65.3832
2716	65.4835
2712	65.537
2708	65.5426
2704	65.525
2700	65.5227
2696	65.542
2692	65.5041
2688	65.4318
2684	65.3988
2680	65.3797
2676	65.4108
2672	65.4673
2668	65.4264
2664	65.321
2660	65.3249
2656	65.4056
2652	65.3844
2648	65.2886
2644	65.2016
2640	65.2216
2636	65.409
2632	65.5512
2628	65.496
2624	65.3966
2620	65.3499
2616	65.3377
2612	65.3411
2608	65.3033
2604	65.2841
2600	65.314
2596	65.3356
2592	65.3801
2588	65.4194
2584	65.427
2580	65.4509
2576	65.4268
2572	65.3214
2568	65.2822
2564	65.3707
2560	65.4575
2556	65.4863
2552	65.4607
2548	65.3709
2544	65.3021
2540	65.3067
2536	65.3688
2532	65.4272
2528	65.4345
2524	65.4147
2520	65.3904
2516	65.4423
2512	65.5152
2508	65.44
2504	65.3654
2500	65.4528
2496	65.5483
2492	65.5115
2488	65.405
2484	65.3398
2480	65.3395
2476	65.3903
2472	65.4031
2468	65.3551
2464	65.3758
2460	65.41
2456	65.3914
2452	65.4231
2448	65.4354
2444	65.426
2440	65.4874
2436	65.4114
2432	65.1474
2428	65.0976
2424	65.4288
2420	65.7127
2416	65.6237
2412	65.3852
2408	65.2882
2404	65.3425
2400	65.3862
2396	65.3417
2392	65.2979
2388	65.3373
2384	65.4315
2380	65.4907
2376	65.4678
2372	65.4358
2368	65.4076
2364	65.3228
2360	65.2925
2356	65.3301
2352	65.3503
2348	65.3716
2344	65.3783
2340	65.4017
2336	65.4212
2332	65.4057
2328	65.4258
2324	65.463
2320	65.4638
2316	65.3705
2312	65.2831
2308	65.3339
2304	65.3655
2300	65.3179
2296	65.3036
2292	65.3424
2288	65.4094
2284	65.4503
2280	65.4384
2276	65.4208
2272	65.4047
2268	65.3935
2264	65.4174
2260	65.4026
2256	65.3559
2252	65.3971
2248	65.4839
2244	65.5379
2240	65.5419
2236	65.4768
2232	65.4364
2228	65.4535
2224	65.4213
2220	65.3399
2216	65.2941
2212	65.3336
2208	65.4074
2204	65.4266
2200	65.4158
2196	65.4399
2192	65.4924
2188	65.5046
2184	65.4521
2180	65.3942
2176	65.3353
2172	65.2867
2168	65.2944
2164	65.3367
2160	65.388
2156	65.4472
2152	65.428
2148	65.3119
2144	65.3524
2140	65.5144
2136	65.502
2132	65.4107
2128	65.3936
2124	65.3614
2120	65.3442
2116	65.4142
2112	65.4838
2108	65.4771
2104	65.4
2100	65.3474
2096	65.325
2092	65.2995
2088	65.3974
2084	65.6014
2080	65.764
2076	65.8442
2072	65.7854
2068	65.5622
2064	65.447
2060	65.5655
2056	65.6041
2052	65.5268
2048	65.5215
2044	65.5319
2040	65.445
2036	65.3157
2032	65.3083
2028	65.4119
2024	65.4631
2020	65.4615
2016	65.5169
2012	65.5819
2008	65.5683
2004	65.4904
2000	65.3889
1996	65.3379
1992	65.3831
1988	65.4353
1984	65.4041
1980	65.3829
1976	65.3864
1972	65.3488
1968	65.3664
1964	65.3973
1960	65.4059
1956	65.4682
1952	65.4943
1948	65.4542
1944	65.4276
1940	65.3841
1936	65.3182
1932	65.3483
1928	65.4296
1924	65.4134
1920	65.3606
1916	65.3765
1912	65.4288
1908	65.4526
1904	65.4269
1900	65.3871
1896	65.4138
1892	65.4621
1888	65.4109
1884	65.3093
1880	65.3247
1876	65.44
1872	65.4493
1868	65.3679
1864	65.3643
1860	65.4105
1856	65.4121
1852	65.3818
1848	65.3317
1844	65.3075
1840	65.3708
1836	65.4246
1832	65.3969
1828	65.4025
1824	65.5001
1820	65.5331
1816	65.461
1812	65.4535
1808	65.4678
1804	65.3842
1800	65.3092
1796	65.28
1792	65.2277
1788	65.2333
1784	65.3129
1780	65.3371
1776	65.3031
1772	65.2921
1768	65.3606
1764	65.4579
1760	65.5063
1756	65.4967
1752	65.4065
1748	65.3226
1744	65.3011
1740	65.2586
1736	65.2203
1732	65.2179
1728	65.2712
1724	65.3197
1720	65.2401
1716	65.2556
1712	65.3885
1708	65.3828
1704	65.3578
1700	65.3891
1696	65.4083
1692	65.4325
1688	65.4445
1684	65.4654
1680	65.4887
1676	65.4367
1672	65.3701
1668	65.3893
1664	65.4044
1660	65.3519
1656	65.3424
1652	65.3838
1648	65.4044
1644	65.4339
1640	65.4191
1636	65.3204
1632	65.2403
1628	65.2136
1624	65.2333
1620	65.2233
1616	65.116
1612	65.0067
1608	65.0035
1604	65.0809
1600	65.0986
1596	65.084
1592	65.1646
1588	65.2943
1584	65.3257
1580	65.2687
1576	65.2106
1572	65.1299
1568	65.0833
1564	65.1641
1560	65.2381
1556	65.0916
1552	64.9063
1548	64.9696
1544	65.2121
1540	65.3431
1536	65.235
1532	65.1232
1528	65.1489
1524	65.1978
1520	65.1868
1516	65.126
1512	65.0933
1508	65.1246
1504	65.1887
1500	65.2226
1496	65.1853
1492	65.1662
1488	65.1891
1484	65.2329
1480	65.2885
1476	65.2917
1472	65.2384
1468	65.2188
1464	65.2775
1460	65.2675
1456	65.1653
1452	65.1103
1448	65.0943
1444	65.0701
1440	65.0584
1436	65.0672
1432	65.0756
1428	65.112
1424	65.1559
1420	65.1632
1416	65.207
1412	65.2609
1408	65.2658
1404	65.2384
1400	65.2037
1396	65.2072
1392	65.1875
1388	65.1234
1384	65.1569
1380	65.3193
1376	65.3814
1372	65.2501
1368	65.1441
1364	65.1504
1360	65.1703
1356	65.1589
1352	65.1513
1348	65.1421
1344	65.1083
1340	65.1451
1336	65.2014
1332	65.1654
1328	65.1503
1324	65.1922
1320	65.1434
1316	64.9992
1312	64.9601
1308	65.0216
1304	65.0414
1300	65.0858
1296	65.1305
1292	65.1245
1288	65.1722
1284	65.233
1280	65.2078
1276	65.1204
1272	65.0508
1268	65.0448
1264	65.1045
1260	65.1617
1256	65.1503
1252	65.125
1248	65.087
1244	65.0472
1240	65.0595
1236	65.0738
1232	65.0518
1228	64.9727
1224	64.8962
1220	64.9389
1216	65.0439
1212	65.1695
1208	65.2718
1204	65.2523
1200	65.1542
1196	65.07
1192	65.0745
1188	65.1474
1184	65.1885
1180	65.1619
1176	65.0436
1172	64.9031
1168	64.827
1164	64.7947
1160	64.7938
1156	64.8323
1152	64.8465
1148	64.7692
1144	64.6869
1140	64.7406
1136	64.8421
1132	64.8535
1128	64.8763
1124	64.9379
1120	64.9533
1116	64.9555
1112	64.9593
1108	64.9115
1104	64.7894
1100	64.6753
1096	64.5926
1092	64.5383
1088	64.5999
1084	64.837
1080	65.1075
1076	65.0935
1072	64.8696
1068	64.7647
1064	64.7959
1060	64.8778
1056	64.9377
1052	64.8959
1048	64.8384
1044	64.876
1040	64.9476
1036	64.9295
1032	64.847
1028	64.7523
1024	64.6156
1020	64.5948
1016	64.6739
1012	64.6605
1008	64.6937
1004	64.8471
1000	65.0432
996	 65.1999
992	 65.1977
988	 65.0967
984	 64.9536
980	 64.7737
976	 64.799
972	 65.182
968	 65.2771
964	 64.7787
960	 64.5882
956	 64.8545
952	 64.969
948	 64.8836
944	 64.7323
940	 64.6686
936	 64.6988
932	 64.694
928	 64.6998
924	 64.8152
920	 65.0403
916	 65.1678
912	 65.0472
908	 64.8962
904	 64.9246
900	 65.0938
896	 65.2303
892	 65.0876
888	 64.7995
884	 64.7804
880	 64.9706
876	 64.9872
872	 64.8093
868	 64.7099
864	 64.7125
860	 64.6009
856	 64.3074
852	 64.1378
848	 64.3357
844	 64.6584
840	 64.8461
836	 64.877
832	 64.7856
828	 64.6134
824	 64.419
820	 64.3978
816	 64.5641
812	 64.5921
808	 64.462
804	 64.5056
800	 64.6062
796	 64.466
792	 64.386
788	 64.512
784	 64.5351
780	 64.4297
776	 64.3697
772	 64.3781
768	 64.5287
764	 64.7549
760	 64.5964
756	 64.2275
752	 64.2272
748	 64.3848
744	 64.2825
740	 63.887
736	 63.6109
732	 63.6626
728	 63.6611
724	 63.6226
720	 63.7592
716	 63.7583
712	 63.5914
708	 63.6097
704	 63.7753
700	 63.8376
696	 63.6185
692	 63.3376
688	 63.3154
684	 63.4858
680	 63.5456
676	 63.3044
672	 63.2214
668	 63.2462
664	 62.8149
660	 62.5426
656	 62.794
652	 62.9367
648	 62.9229
644	 62.9916
640	 62.8283
636	 62.5375
632	 62.8033
628	 63.2099
624	 62.9912
620	 62.6971
616	 62.7097
612	 62.7025
608	 62.9161
604	 63.4188
600	 63.4811
596	 62.885
592	 62.3974
588	 62.5587
584	 62.9655
580	 63.0944
576	 62.965
572	 62.8798
568	 62.7824
564	 62.6171
560	 62.3926
556	 62.1147
552	 62.1899
548	 62.3868
544	 62.3156
540	 62.3361
536	 62.2062
532	 61.6538
528	 61.3986
524	 61.4907
520	 61.3748
516	 61.2249
512	 61.4907
508	 61.8649
504	 61.6263
500	 61.0833
496	 60.8552
492	 61.0095
488	 61.3087
484	 61.1921
480	 60.7545
476	 60.3089
472	 60.0046
468	 59.9352
464	 60.3402
460	 61.3818
456	 61.6003
452	 60.9869
448	 60.634
444	 60.1539
440	 59.6407
436	 59.911
432	 61.479
428	 61.6203
424	 58.5612
420	 56.2205
416	 56.4329
412	 56.5017
408	 55.8704
404	 49.4304
400	 33.7365
396	 30.9398
392	 47.664
388	 62.9306
384	 75.0693
380	 61.4123
376	 17.5668
372	 7.504773
370	 23.1457