File: Bakgrunnsmateriale/MATLAB/FTIR/ftir_data/subBb/Mapping_121/C-4040-8_t18_cm-1.asc
PE IR       SPECTRUM    SPECTRUM    ASCII       PEDS        1.60
  -1
C-1A65~1.ASC
17/03/27
15:54:37.00
17/03/27
15:54:37.00
tln
$C-4040-8_t0018$<tbV0>[-2.6,-10.4,8.0,0.0,27,1,0]
370
64

2002,4.07
MIRTGS : RIGHTBACK : INTERNAL 2
MIR : ON : INTERNAL 2
OPTKBR

0.200000
8
8.000000
FILLER
RATIO
SPECTRUM
UNLOCKED 256

DOUBLE
64
COMBINED
1
0
0

1.000000
RATIO

1
0
TRUE
51149
0
LEFT NOT FITTED RIGHT NOT FITTED 0
NONE
NONE
15600
12
4.427000
51148
TRUE
1 0 8 72 0 0 0 0

15798

#HDR
-1
-1
#GR
CM-1
%T
2.38419e-05
0.0
5000
-1.000000
4631
8
71.7344
28.7167
#DATA
5000	63.8184
4996	63.7485
4992	64.1244
4988	64.4891
4984	64.4498
4980	64.1986
4976	63.7784
4972	63.4879
4968	63.7727
4964	63.8292
4960	63.4755
4956	63.4598
4952	63.5487
4948	63.2537
4944	62.6031
4940	62.7148
4936	63.8657
4932	64.4316
4928	63.9089
4924	63.6507
4920	64.0245
4916	64.3683
4912	64.6161
4908	64.7852
4904	64.8555
4900	64.5323
4896	63.9427
4892	63.9093
4888	64.2652
4884	64.5646
4880	64.3272
4876	63.6812
4872	63.7079
4868	64.0336
4864	64.0512
4860	64.2838
4856	64.6321
4852	64.6312
4848	64.4224
4844	64.2477
4840	64.1844
4836	64.2475
4832	64.3258
4828	64.3419
4824	64.202
4820	63.9814
4816	63.8087
4812	63.6841
4808	63.8224
4804	64.1754
4800	64.299
4796	64.1715
4792	64.2195
4788	64.3989
4784	64.2753
4780	63.9626
4776	63.8929
4772	63.9715
4768	63.9732
4764	64.015
4760	64.0714
4756	64.1199
4752	64.2237
4748	64.2997
4744	64.2291
4740	64.0284
4736	63.851
4732	63.7568
4728	63.7297
4724	63.7378
4720	63.8065
4716	63.9286
4712	63.9931
4708	64.0253
4704	64.0542
4700	64.0199
4696	63.8936
4692	63.7448
4688	63.7158
4684	63.7255
4680	63.716
4676	63.7938
4672	63.8724
4668	63.8731
4664	63.8617
4660	63.9487
4656	64.0281
4652	63.9285
4648	63.8273
4644	63.8854
4640	64.0309
4636	64.1035
4632	64.1129
4628	64.1088
4624	63.9329
4620	63.7855
4616	64.0362
4612	64.4959
4608	64.7329
4604	64.6497
4600	64.4601
4596	64.3408
4592	64.3168
4588	64.2028
4584	63.9225
4580	63.9436
4576	64.2614
4572	64.2794
4568	64.1079
4564	64.152
4560	64.3295
4556	64.4686
4552	64.3766
4548	64.0549
4544	63.708
4540	63.5747
4536	63.8159
4532	64.1332
4528	64.4464
4524	64.6584
4520	64.4522
4516	64.0298
4512	63.9895
4508	64.2886
4504	64.4508
4500	64.5037
4496	64.4497
4492	64.0629
4488	63.8343
4484	64.0445
4480	64.4728
4476	64.447
4472	64.2838
4468	64.7706
4464	65.1838
4460	65.5458
4456	66.3433
4452	68.7817
4448	71.4656
4444	71.1203
4440	67.9665
4436	64.0372
4432	62.5327
4428	63.0786
4424	63.1051
4420	62.8564
4416	62.7717
4412	62.8796
4408	63.1192
4404	63.0662
4400	63.1049
4396	63.8869
4392	63.9642
4388	59.7276
4384	57.0006
4380	58.6556
4376	54.818
4372	52.4046
4368	58.7689
4364	63.691
4360	64.4206
4356	64.4182
4352	64.394
4348	64.5367
4344	64.6947
4340	64.7385
4336	64.6814
4332	64.5394
4328	64.4117
4324	64.4576
4320	64.5595
4316	64.3347
4312	64.1344
4308	64.2947
4304	64.2983
4300	64.2867
4296	64.637
4292	64.8174
4288	64.5489
4284	64.2751
4280	64.2457
4276	64.386
4272	64.5253
4268	64.4381
4264	64.2511
4260	64.2091
4256	64.1376
4252	63.88
4248	63.6684
4244	63.7226
4240	63.9084
4236	64.0398
4232	64.1168
4228	64.1498
4224	64.1256
4220	64.0562
4216	63.9616
4212	63.9153
4208	63.9738
4204	63.9778
4200	63.8654
4196	63.8983
4192	64.0214
4188	64.1033
4184	64.0445
4180	63.8719
4176	63.9313
4172	63.9216
4168	63.6047
4164	63.4539
4160	63.6588
4156	63.8878
4152	63.8352
4148	63.6315
4144	63.5837
4140	63.6393
4136	63.6479
4132	63.6178
4128	63.5965
4124	63.6801
4120	63.9057
4116	64.1833
4112	64.3056
4108	64.1749
4104	63.8859
4100	63.5931
4096	63.4453
4092	63.5353
4088	63.7356
4084	63.8791
4080	63.9551
4076	63.9648
4072	63.9477
4068	63.8888
4064	63.7588
4060	63.6403
4056	63.5452
4052	63.4738
4048	63.5442
4044	63.8005
4040	64.0484
4036	64.1051
4032	64.1025
4028	64.1301
4024	64.1009
4020	64.0792
4016	64.1157
4012	64.1492
4008	64.1499
4004	64.097
4000	64.0163
3996	63.962
3992	63.9088
3988	63.8104
3984	63.6894
3980	63.5799
3976	63.5551
3972	63.6361
3968	63.7335
3964	63.7373
3960	63.7042
3956	63.8293
3952	63.9547
3948	63.9268
3944	63.8657
3940	63.7368
3936	63.5996
3932	63.6274
3928	63.8265
3924	64.0019
3920	63.9421
3916	63.853
3912	63.8835
3908	63.9022
3904	63.9455
3900	63.9745
3896	63.9112
3892	63.8043
3888	63.6815
3884	63.5634
3880	63.5207
3876	63.671
3872	63.8983
3868	63.9348
3864	63.7929
3860	63.6836
3856	63.8214
3852	63.9654
3848	63.8937
3844	63.9024
3840	63.9233
3836	63.7284
3832	63.495
3828	63.4389
3824	63.4415
3820	63.4745
3816	63.5638
3812	63.6
3808	63.7405
3804	63.915
3800	63.8291
3796	63.5936
3792	63.4451
3788	63.4511
3784	63.4821
3780	63.4234
3776	63.4177
3772	63.5488
3768	63.6956
3764	63.6968
3760	63.5881
3756	63.684
3752	63.9484
3748	64.0395
3744	63.9065
3740	63.7667
3736	63.7531
3732	63.6829
3728	63.6133
3724	63.6668
3720	63.7079
3716	63.7511
3712	63.6645
3708	63.5257
3704	63.6552
3700	63.7688
3696	63.6819
3692	63.7048
3688	63.7163
3684	63.5772
3680	63.6121
3676	63.7691
3672	63.7718
3668	63.594
3664	63.3999
3660	63.3632
3656	63.4375
3652	63.5689
3648	63.5693
3644	63.3761
3640	63.2714
3636	63.3484
3632	63.4833
3628	63.4603
3624	63.3286
3620	63.3113
3616	63.359
3612	63.3473
3608	63.2361
3604	63.1459
3600	63.1695
3596	63.2541
3592	63.377
3588	63.4478
3584	63.36
3580	63.2401
3576	63.1888
3572	63.1448
3568	63.1478
3564	63.2379
3560	63.2836
3556	63.2271
3552	63.1051
3548	62.9389
3544	62.8833
3540	62.9883
3536	63.1281
3532	63.2284
3528	63.2351
3524	63.1824
3520	63.1142
3516	63.0368
3512	62.9394
3508	62.8671
3504	62.9704
3500	63.1326
3496	63.1555
3492	63.1321
3488	63.1135
3484	63.0925
3480	63.1129
3476	63.167
3472	63.1071
3468	62.9029
3464	62.8427
3460	62.9391
3456	62.9756
3452	62.9817
3448	62.9701
3444	62.9337
3440	62.9813
3436	63.1198
3432	63.2013
3428	63.2025
3424	63.197
3420	63.1074
3416	62.8957
3412	62.7388
3408	62.7058
3404	62.7167
3400	62.8028
3396	62.9084
3392	62.9345
3388	62.8943
3384	62.9019
3380	63.0008
3376	63.0177
3372	62.9433
3368	62.9274
3364	62.8899
3360	62.7752
3356	62.7655
3352	62.8269
3348	62.8887
3344	62.9772
3340	62.9286
3336	62.7479
3332	62.6415
3328	62.6232
3324	62.569
3320	62.503
3316	62.5453
3312	62.636
3308	62.6174
3304	62.563
3300	62.5721
3296	62.6321
3292	62.7082
3288	62.6706
3284	62.5791
3280	62.6246
3276	62.7064
3272	62.6421
3268	62.5177
3264	62.4502
3260	62.4017
3256	62.3535
3252	62.3762
3248	62.4554
3244	62.4317
3240	62.3349
3236	62.3237
3232	62.3234
3228	62.3075
3224	62.3408
3220	62.3768
3216	62.4266
3212	62.4555
3208	62.423
3204	62.3696
3200	62.3062
3196	62.2126
3192	62.1322
3188	62.1507
3184	62.1697
3180	62.1348
3176	62.0667
3172	61.983
3168	62.0418
3164	62.1702
3160	62.2143
3156	62.2158
3152	62.2108
3148	62.1621
3144	62.0296
3140	61.9799
3136	62.0229
3132	62.007
3128	62.0144
3124	62.1271
3120	62.267
3116	62.2688
3112	62.0997
3108	61.9671
3104	61.9913
3100	62.0672
3096	62.0686
3092	61.9769
3088	61.8813
3084	61.815
3080	61.847
3076	61.9642
3072	61.9791
3068	61.9503
3064	61.9611
3060	61.9466
3056	61.9488
3052	61.9935
3048	62.0044
3044	61.9399
3040	61.8364
3036	61.7591
3032	61.7784
3028	61.8531
3024	61.8731
3020	61.8635
3016	61.8769
3012	61.8954
3008	61.8432
3004	61.714
3000	61.6536
2996	61.6572
2992	61.6357
2988	61.6389
2984	61.6411
2980	61.5954
2976	61.5381
2972	61.497
2968	61.5069
2964	61.5159
2960	61.4909
2956	61.4392
2952	61.3837
2948	61.4206
2944	61.5511
2940	61.6873
2936	61.6959
2932	61.5736
2928	61.4533
2924	61.3681
2920	61.2963
2916	61.2552
2912	61.232
2908	61.1845
2904	61.1919
2900	61.2973
2896	61.3541
2892	61.2937
2888	61.2002
2884	61.1818
2880	61.1971
2876	61.1512
2872	61.1509
2868	61.2311
2864	61.2492
2860	61.1758
2856	61.1473
2852	61.1777
2848	61.2319
2844	61.3211
2840	61.3218
2836	61.2235
2832	61.163
2828	61.1679
2824	61.1998
2820	61.2266
2816	61.2254
2812	61.1876
2808	61.1471
2804	61.1562
2800	61.1801
2796	61.1256
2792	61.0621
2788	61.0683
2784	61.0754
2780	61.0394
2776	60.9862
2772	60.9322
2768	60.8962
2764	60.8764
2760	60.8834
2756	60.9211
2752	60.9343
2748	60.8977
2744	60.8464
2740	60.8478
2736	60.8748
2732	60.8772
2728	60.8963
2724	60.928
2720	60.9039
2716	60.8128
2712	60.7284
2708	60.7699
2704	60.906
2700	60.9624
2696	60.9309
2692	60.8464
2688	60.7311
2684	60.6535
2680	60.5996
2676	60.568
2672	60.5414
2668	60.4998
2664	60.5255
2660	60.5929
2656	60.6124
2652	60.5985
2648	60.5558
2644	60.4789
2640	60.3635
2636	60.261
2632	60.2741
2628	60.3884
2624	60.4916
2620	60.4591
2616	60.3414
2612	60.3091
2608	60.3215
2604	60.306
2600	60.305
2596	60.3262
2592	60.3311
2588	60.2757
2584	60.2295
2580	60.2374
2576	60.2358
2572	60.2335
2568	60.1977
2564	60.0985
2560	60.0812
2556	60.1562
2552	60.1366
2548	60.0743
2544	60.0804
2540	60.0895
2536	60.097
2532	60.1226
2528	60.1239
2524	60.0756
2520	59.9905
2516	59.9396
2512	59.9894
2508	60.0809
2504	60.1017
2500	59.9907
2496	59.842
2492	59.7487
2488	59.6405
2484	59.5744
2480	59.6805
2476	59.7926
2472	59.7669
2468	59.7163
2464	59.6967
2460	59.6901
2456	59.6736
2452	59.6852
2448	59.7757
2444	59.8601
2440	59.864
2436	59.7881
2432	59.7234
2428	59.7505
2424	59.6815
2420	59.5314
2416	59.4684
2412	59.409
2408	59.3176
2404	59.2514
2400	59.292
2396	59.3885
2392	59.4594
2388	59.4718
2384	59.3947
2380	59.3723
2376	59.4497
2372	59.4686
2368	59.4168
2364	59.3707
2360	59.3156
2356	59.2622
2352	59.2583
2348	59.2678
2344	59.2275
2340	59.2015
2336	59.2239
2332	59.1885
2328	59.1142
2324	59.0673
2320	58.9796
2316	58.8781
2312	58.8678
2308	58.9184
2304	58.9583
2300	58.9415
2296	58.8678
2292	58.8398
2288	58.8955
2284	58.9156
2280	58.8881
2276	58.8922
2272	58.8974
2268	58.8764
2264	58.8174
2260	58.7356
2256	58.6804
2252	58.7178
2248	58.7813
2244	58.7045
2240	58.5894
2236	58.582
2232	58.6084
2228	58.591
2224	58.5654
2220	58.5853
2216	58.6035
2212	58.5752
2208	58.5747
2204	58.5949
2200	58.5519
2196	58.5094
2192	58.4894
2188	58.4124
2184	58.3556
2180	58.3578
2176	58.3377
2172	58.2862
2168	58.2532
2164	58.2976
2160	58.3615
2156	58.282
2152	58.0967
2148	58.023
2144	58.0305
2140	58.0527
2136	58.0796
2132	58.098
2128	58.1398
2124	58.1278
2120	58.1022
2116	58.1209
2112	58.11
2108	58.0477
2104	57.9947
2100	57.9825
2096	57.9595
2092	57.9285
2088	58.0014
2084	58.1398
2080	58.1136
2076	57.898
2072	57.7532
2068	57.7732
2064	57.7758
2060	57.6898
2056	57.6425
2052	57.6941
2048	57.7142
2044	57.6481
2040	57.5673
2036	57.5042
2032	57.4715
2028	57.4536
2024	57.4628
2020	57.4878
2016	57.5313
2012	57.6037
2008	57.6153
2004	57.5287
2000	57.4339
1996	57.4113
1992	57.3801
1988	57.2926
1984	57.2374
1980	57.2028
1976	57.164
1972	57.2088
1968	57.2919
1964	57.2503
1960	57.1394
1956	57.1114
1952	57.165
1948	57.2083
1944	57.1719
1940	57.1001
1936	57.0108
1932	56.8898
1928	56.832
1924	56.8764
1920	56.9593
1916	56.9805
1912	56.9174
1908	56.8379
1904	56.7734
1900	56.767
1896	56.7967
1892	56.7765
1888	56.7118
1884	56.6469
1880	56.6465
1876	56.7198
1872	56.761
1868	56.7169
1864	56.6433
1860	56.6063
1856	56.575
1852	56.538
1848	56.5737
1844	56.5994
1840	56.4916
1836	56.3746
1832	56.3847
1828	56.4573
1824	56.492
1820	56.4686
1816	56.4338
1812	56.3852
1808	56.3174
1804	56.3153
1800	56.3556
1796	56.372
1792	56.3527
1788	56.3297
1784	56.3057
1780	56.2336
1776	56.2067
1772	56.2636
1768	56.2728
1764	56.2178
1760	56.1418
1756	56.0783
1752	56.0704
1748	56.0103
1744	55.9135
1740	55.9639
1736	56.057
1732	56.0002
1728	55.8748
1724	55.8165
1720	55.8227
1716	55.784
1712	55.6833
1708	55.7249
1704	55.9911
1700	56.1681
1696	56.004
1692	55.7719
1688	55.7353
1684	55.7537
1680	55.7375
1676	55.7726
1672	55.7772
1668	55.6424
1664	55.458
1660	55.4559
1656	55.7354
1652	55.9366
1648	55.8321
1644	55.5952
1640	55.4689
1636	55.4921
1632	55.3762
1628	55.1946
1624	55.1628
1620	55.197
1616	55.2313
1612	55.2033
1608	55.1252
1604	55.0398
1600	54.9382
1596	54.8775
1592	54.8967
1588	54.9411
1584	54.9774
1580	55.0067
1576	54.9943
1572	54.9405
1568	54.9139
1564	55.0505
1560	55.2373
1556	55.1124
1552	54.8474
1548	54.8332
1544	55.0285
1540	55.0748
1536	54.8644
1532	54.7002
1528	54.7166
1524	54.7536
1520	54.6651
1516	54.5511
1512	54.6099
1508	54.7476
1504	54.7041
1500	54.5408
1496	54.4311
1492	54.4098
1488	54.3536
1484	54.2113
1480	54.1495
1476	54.2195
1472	54.2818
1468	54.2462
1464	54.2182
1460	54.2107
1456	54.1006
1452	53.9478
1448	53.8978
1444	53.8831
1440	53.8749
1436	53.9218
1432	53.8604
1428	53.7205
1424	53.7617
1420	53.8488
1416	53.7866
1412	53.7191
1408	53.6523
1404	53.5889
1400	53.6611
1396	53.7616
1392	53.7856
1388	53.7495
1384	53.6436
1380	53.5227
1376	53.4643
1372	53.4534
1368	53.4838
1364	53.4974
1360	53.3976
1356	53.2796
1352	53.2378
1348	53.266
1344	53.3018
1340	53.2767
1336	53.2504
1332	53.2234
1328	53.1686
1324	53.1569
1320	53.1562
1316	53.1013
1312	53.0534
1308	53.0197
1304	52.9765
1300	52.9245
1296	52.8839
1292	52.886
1288	52.9029
1284	52.8619
1280	52.7372
1276	52.5999
1272	52.5766
1268	52.6403
1264	52.6152
1260	52.5563
1256	52.5939
1252	52.6325
1248	52.5813
1244	52.4791
1240	52.4312
1236	52.4536
1232	52.5004
1228	52.5038
1224	52.4508
1220	52.4143
1216	52.3951
1212	52.4131
1208	52.4165
1204	52.3369
1200	52.2526
1196	52.1975
1192	52.1593
1188	52.1542
1184	52.1631
1180	52.1477
1176	52.1137
1172	52.0503
1168	52.0003
1164	52.024
1160	52.0516
1156	52.0006
1152	51.9711
1148	52.0307
1144	52.0032
1140	51.9044
1136	51.8746
1132	51.8428
1128	51.7991
1124	51.7432
1120	51.6332
1116	51.6187
1112	51.669
1108	51.6488
1104	51.6349
1100	51.5352
1096	51.3539
1092	51.3708
1088	51.4872
1084	51.4176
1080	51.2068
1076	51.0887
1072	51.1987
1068	51.3113
1064	51.241
1060	51.1692
1056	51.154
1052	51.1723
1048	51.2348
1044	51.2197
1040	51.1178
1036	51.0469
1032	51.0561
1028	51.1247
1024	51.1479
1020	51.0944
1016	51.0427
1012	50.9844
1008	50.8676
1004	50.6693
1000	50.5229
996	 50.5151
992	 50.586
988	 50.7109
984	 50.7095
980	 50.5435
976	 50.427
972	 50.4949
968	 50.6464
964	 50.6384
960	 50.6067
956	 50.5838
952	 50.3644
948	 50.2
944	 50.2614
940	 50.2946
936	 50.2451
932	 50.2005
928	 50.0719
924	 49.772
920	 49.5588
916	 49.7168
912	 49.8073
908	 49.6037
904	 49.4529
900	 49.4362
896	 49.5403
892	 49.6815
888	 49.6278
884	 49.3962
880	 49.3531
876	 49.551
872	 49.5352
868	 49.2325
864	 49.0893
860	 49.2617
856	 49.4314
852	 49.4165
848	 49.2907
844	 49.1918
840	 49.1767
836	 49.0814
832	 48.8977
828	 48.7954
824	 48.8077
820	 48.8378
816	 48.7398
812	 48.5833
808	 48.6593
804	 48.8797
800	 48.9415
796	 48.9191
792	 48.8193
788	 48.6587
784	 48.6938
780	 48.8003
776	 48.7268
772	 48.5748
768	 48.4552
764	 48.3191
760	 48.1777
756	 48.1031
752	 48.1229
748	 48.1466
744	 48.0134
740	 47.7131
736	 47.5514
732	 47.755
728	 47.9139
724	 47.7249
720	 47.5855
716	 47.6595
712	 47.6678
708	 47.495
704	 47.2655
700	 47.1252
696	 47.0149
692	 46.8347
688	 46.6851
684	 46.7562
680	 46.8848
676	 46.8295
672	 46.7353
668	 46.7599
664	 46.7821
660	 46.6432
656	 46.5005
652	 46.5887
648	 46.7803
644	 46.7137
640	 46.3698
636	 46.1955
632	 46.3198
628	 46.2919
624	 45.9178
620	 45.6057
616	 45.6677
612	 45.8812
608	 45.8777
604	 45.6732
600	 45.4958
596	 45.2815
592	 45.0891
588	 45.1472
584	 45.3542
580	 45.3719
576	 45.2739
572	 45.3712
568	 45.2074
564	 44.8112
560	 44.5433
556	 44.0609
552	 43.8448
548	 44.2066
544	 44.2634
540	 43.9117
536	 43.8834
532	 44.2063
528	 44.1145
524	 43.3434
520	 42.8348
516	 42.8611
512	 42.5866
508	 42.0588
504	 42.3021
500	 43.6155
496	 44.4718
492	 43.8882
488	 43.2836
484	 43.6764
480	 43.9126
476	 43.2572
472	 42.3072
468	 41.3921
464	 41.1237
460	 40.9817
456	 40.0442
452	 39.3738
448	 39.8528
444	 40.3142
440	 39.7327
436	 39.4537
432	 39.086
428	 37.9658
424	 38.2769
420	 39.4211
416	 40.3436
412	 40.4587
408	 38.1531
404	 35.9159
400	 31.6946
396	 28.7976
392	 35.9694
388	 55.8655
384	 59.1665
380	 34.7718
376	 32.1401
372	 50.0772
370	 67.1461