File: Bakgrunnsmateriale/MATLAB/FTIR/ftir_data/subBb/Mapping_121/C-4040-8_t95.asc
PE IR       SPECTRUM    SPECTRUM    ASCII       PEDS        1.60
  -1
C-B94E~1.ASC
17/03/27
22:19:06.00
17/03/27
22:19:32.00
tln
$C-4040-8_t0095$<tbV0>[-2.6,7.8,8.0,0.0,27,1,0]
27.028
64

2002,4.07
MIRTGS : RIGHTBACK : INTERNAL 2
MIR : ON : INTERNAL 2
OPTKBR

0.200000
8
8.000000
FILLER
RATIO
SPECTRUM
UNLOCKED 256

DOUBLE
64
COMBINED
1
0
0

0.002000
RATIO

1
0
TRUE
51149
0
LEFT NOT FITTED RIGHT NOT FITTED 0
NONE
NONE
15600
12
4.427000
51148
TRUE
1 0 8 72 0 0 0 0

15798

#HDR
-1
-1
#GR
µM
%T
2.38419e-05
0.0
2.000000
0.002000
12515
8
101.921
-17.6355
#DATA
2.000000	 65.4427
2.018000	 65.2153
2.036000	 65.6324
2.054000	 64.9568
2.072000	 65.1115
2.090000	 65.3597
2.108000	 64.8572
2.126000	 64.9276
2.144000	 65.319
2.162000	 65.5393
2.180000	 65.0389
2.198000	 65.5344
2.216000	 65.2309
2.234000	 65.2181
2.252000	 65.1585
2.270000	 65.5614
2.288000	 64.8869
2.306000	 65.0714
2.324000	 64.9851
2.342000	 65.1887
2.360000	 65.2678
2.378000	 64.7595
2.396000	 64.6662
2.414000	 65.3384
2.432000	 65.1709
2.450000	 65.1306
2.468000	 65.0612
2.486000	 65.2558
2.504000	 65.2358
2.522000	 65.1792
2.540000	 65.2031
2.558000	 65.5601
2.576000	 65.0574
2.594000	 65.2546
2.612000	 64.9735
2.630000	 65.1674
2.648000	 65.2179
2.666000	 65.4014
2.684000	 65.3117
2.702000	 65.2264
2.720000	 65.0965
2.738000	 65.3432
2.756000	 65.2708
2.774000	 65.063
2.792000	 65.4824
2.810000	 65.4321
2.828000	 65.3675
2.846000	 65.2676
2.864000	 65.4149
2.882000	 65.319
2.900000	 65.2466
2.918000	 65.5197
2.936000	 65.5156
2.954000	 65.025
2.972000	 65.1363
2.990000	 65.394
3.008000	 65.2754
3.026000	 65.2077
3.044000	 65.1708
3.062000	 65.4016
3.080000	 65.2504
3.098000	 65.2083
3.116000	 65.1958
3.134000	 64.8879
3.152000	 65.2985
3.170000	 65.3971
3.188000	 65.2643
3.206000	 65.0736
3.224000	 65.2132
3.242000	 65.2975
3.260000	 65.3031
3.278000	 65.3012
3.296000	 65.3738
3.314000	 65.2682
3.332000	 65.424
3.350000	 65.4015
3.368000	 65.3648
3.386000	 65.189
3.404000	 65.1428
3.422000	 64.9108
3.440000	 65.0845
3.458000	 65.1423
3.476000	 65.2455
3.494000	 65.3981
3.512000	 64.9611
3.530000	 65.2558
3.548000	 65.2943
3.566000	 65.2699
3.584000	 65.3658
3.602000	 65.2946
3.620000	 65.2313
3.638000	 65.2413
3.656000	 65.2503
3.674000	 65.2857
3.692000	 65.2739
3.710000	 65.2067
3.728000	 65.2745
3.746000	 65.291
3.764000	 65.3393
3.782000	 65.232
3.800000	 65.3211
3.818000	 65.2785
3.836000	 65.3083
3.854000	 65.2422
3.872000	 65.3708
3.890000	 65.3911
3.908000	 65.3856
3.926000	 65.5489
3.944000	 65.3571
3.962000	 65.1657
3.980000	 65.2783
3.998000	 65.2416
4.016000	 65.5061
4.034000	 65.412
4.052000	 65.4097
4.070000	 65.2489
4.088000	 65.302
4.106000	 65.5021
4.124000	 65.4328
4.141999	 65.2779
4.160000	 65.4393
4.178000	 65.1653
4.196000	 65.2883
4.214000	 65.1307
4.232000	 65.3217
4.250000	 65.3898
4.268000	 65.3332
4.286000	 65.3057
4.304000	 65.3806
4.322000	 65.4022
4.340000	 65.3907
4.358000	 65.374
4.375999	 65.3555
4.394000	 65.367
4.412000	 65.3336
4.430000	 65.3686
4.448000	 65.2868
4.466000	 65.2331
4.484000	 65.324
4.502000	 65.4476
4.520000	 65.2816
4.538000	 65.3076
4.556000	 65.2838
4.574000	 65.4093
4.592000	 65.3366
4.609999	 65.4271
4.628000	 65.3625
4.646000	 65.3299
4.664000	 65.3654
4.682000	 65.5162
4.700000	 65.3633
4.718000	 65.3281
4.736000	 65.4669
4.754000	 65.4775
4.772000	 65.433
4.790000	 65.5056
4.808000	 65.7098
4.826000	 66.074
4.843999	 65.9891
4.862000	 65.5786
4.880000	 65.4863
4.898000	 65.5269
4.916000	 65.3317
4.934000	 65.3009
4.952000	 65.4839
4.970000	 65.4484
4.988000	 65.2988
5.006000	 65.3778
5.024000	 65.3289
5.042000	 65.306
5.060000	 65.2947
5.077999	 65.4758
5.096000	 65.51
5.114000	 65.4621
5.132000	 65.4625
5.150000	 65.4848
5.168000	 65.4623
5.186000	 65.298
5.204000	 65.3979
5.222000	 65.3469
5.240000	 65.2153
5.258000	 65.4005
5.276000	 65.3692
5.294000	 65.3688
5.312000	 65.4334
5.330000	 65.4092
5.348000	 65.3169
5.366000	 65.3014
5.384000	 65.3186
5.402000	 65.2951
5.420000	 65.3212
5.438000	 65.4722
5.456000	 65.5237
5.474000	 65.4846
5.492000	 65.3556
5.510000	 65.3461
5.528000	 65.3441
5.546000	 65.4277
5.564000	 65.3694
5.582000	 65.3571
5.600000	 65.3773
5.618000	 65.2872
5.636000	 65.2841
5.654000	 65.3758
5.672000	 65.3523
5.690000	 65.2159
5.708000	 65.2021
5.726000	 65.1863
5.744000	 65.0486
5.762000	 64.983
5.780000	 65.0019
5.798000	 64.9867
5.816000	 65.0367
5.834000	 65.1503
5.852000	 65.3626
5.870000	 65.4205
5.888000	 65.3481
5.906000	 65.316
5.923999	 65.2766
5.942000	 65.2304
5.960000	 65.2558
5.978000	 65.3207
5.996000	 65.4184
6.014000	 65.3687
6.032000	 65.3283
6.050000	 65.2282
6.068000	 65.1835
6.086000	 65.2703
6.104000	 65.3419
6.122000	 65.3487
6.140000	 65.2908
6.158000	 65.2075
6.176000	 65.2063
6.194000	 65.2357
6.212000	 65.2479
6.230000	 65.2278
6.248000	 65.1883
6.266000	 65.1341
6.284000	 65.1489
6.302000	 65.2375
6.320000	 65.2459
6.338000	 65.199
6.356000	 65.1221
6.374000	 65.0404
6.392000	 65.0655
6.410000	 65.166
6.428000	 65.188
6.446000	 65.1932
6.464000	 65.2109
6.482000	 65.1978
6.500000	 65.171
6.518000	 65.1698
6.536000	 65.1684
6.554000	 65.1531
6.572000	 65.1997
6.590000	 65.2931
6.608000	 65.2824
6.626000	 65.198
6.644000	 65.2242
6.662000	 65.294
6.680000	 65.2841
6.698000	 65.2205
6.716000	 65.1238
6.734000	 65.0553
6.752000	 65.0333
6.770000	 65.0299
6.788000	 65.0844
6.806000	 65.1977
6.824000	 65.3271
6.842000	 65.3654
6.860000	 65.3001
6.878000	 65.2929
6.896000	 65.3203
6.914000	 65.2941
6.932000	 65.2476
6.950000	 65.1838
6.968000	 65.1132
6.986000	 65.0553
7.004000	 65.0436
7.022000	 65.0896
7.040000	 65.1381
7.058000	 65.1552
7.076000	 65.1914
7.094000	 65.3018
7.112000	 65.4054
7.130000	 65.3854
7.148000	 65.3022
7.166000	 65.2573
7.184000	 65.2247
7.202000	 65.1998
7.220000	 65.2195
7.238000	 65.2076
7.256000	 65.0968
7.274000	 64.9789
7.292000	 64.9212
7.310000	 64.8806
7.328000	 64.8755
7.346000	 64.974
7.364000	 65.1013
7.382000	 65.1311
7.400000	 65.1043
7.418000	 65.1066
7.436000	 65.1129
7.454000	 65.1005
7.472000	 65.0946
7.490000	 65.0975
7.508000	 65.1248
7.526000	 65.2053
7.544000	 65.2839
7.562000	 65.2588
7.580000	 65.1149
7.598000	 64.9443
7.616000	 64.85
7.634000	 64.8515
7.652000	 64.9118
7.670000	 65.0046
7.688000	 65.0963
7.706000	 65.1352
7.724000	 65.1257
7.742000	 65.1296
7.760000	 65.1705
7.778000	 65.2162
7.796000	 65.2408
7.814000	 65.2464
7.832000	 65.2356
7.850000	 65.1887
7.868000	 65.0901
7.886000	 64.9828
7.904000	 64.9405
7.922000	 64.9698
7.940000	 65.0097
7.958000	 65.0284
7.976000	 65.0416
7.994000	 65.0543
8.012000	 65.0509
8.030000	 65.0249
8.048000	 64.9839
8.065999	 64.9345
8.084000	 64.8832
8.102000	 64.8469
8.120000	 64.8448
8.138000	 64.8742
8.155999	 64.9104
8.173999	 64.9378
8.192000	 64.9642
8.210000	 64.9896
8.228000	 64.9871
8.246000	 64.9455
8.263999	 64.9014
8.282000	 64.8983
8.300000	 64.9315
8.318000	 64.9713
8.336000	 65.0132
8.353999	 65.0552
8.372000	 65.0658
8.390000	 65.0304
8.408000	 64.9821
8.426000	 64.9545
8.443999	 64.9384
8.462000	 64.9089
8.480000	 64.8679
8.498000	 64.8443
8.516000	 64.8637
8.533999	 64.927
8.552000	 64.9991
8.570000	 65.0315
8.588000	 65.0094
8.606000	 64.9656
8.624000	 64.9374
8.641999	 64.9264
8.660000	 64.9099
8.678000	 64.8821
8.696000	 64.8645
8.714000	 64.8812
8.731999	 64.935
8.750000	 65.0004
8.768000	 65.0407
8.786000	 65.0327
8.804000	 64.9855
8.821999	 64.9292
8.840000	 64.8892
8.858000	 64.8675
8.876000	 64.8531
8.894000	 64.8409
8.911999	 64.839
8.930000	 64.8547
8.948000	 64.8823
8.966000	 64.9039
8.984000	 64.904
9.001999	 64.8779
9.020000	 64.8225
9.038000	 64.7268
9.056000	 64.5817
9.074000	 64.414
9.092000	 64.2981
9.109999	 64.3145
9.128000	 64.4787
9.146000	 64.7107
9.164000	 64.8895
9.182000	 64.9469
9.199999	 64.9096
9.218000	 64.8585
9.236000	 64.8586
9.254000	 64.9225
9.272000	 65.0122
9.289999	 65.0685
9.308000	 65.0464
9.326000	 64.944
9.344000	 64.8042
9.362000	 64.6874
9.379999	 64.6316
9.398000	 64.6325
9.416000	 64.6575
9.434000	 64.6738
9.452000	 64.6724
9.469999	 64.6713
9.488000	 64.703
9.506000	 64.7801
9.524000	 64.8723
9.542000	 64.9243
9.560000	 64.8996
9.577999	 64.8078
9.596000	 64.6919
9.614000	 64.5955
9.632000	 64.5416
9.650000	 64.5337
9.667999	 64.5697
9.686000	 64.649
9.704000	 64.7663
9.722000	 64.9054
9.740000	 65.0392
9.757999	 65.1369
9.776000	 65.1736
9.794000	 65.1377
9.812000	 65.0364
9.830000	 64.8962
9.847999	 64.7552
9.866000	 64.6504
9.884000	 64.6036
9.902000	 64.6134
9.920000	 64.6569
9.937999	 64.7018
9.956000	 64.7187
9.974000	 64.6917
9.992000	 64.6231
10.01	64.533
10.028	64.4549
10.046	64.4232
10.064	64.4567
10.082	64.5465
10.1	64.6571
10.118	64.7427
10.136	64.7739
10.154	64.7534
10.172	64.709
10.19	64.6722
10.208	64.6542
10.226	64.6429
10.244	64.6181
10.262	64.5744
10.28	64.5305
10.298	64.5162
10.316	64.5509
10.334	64.6238
10.352	64.6983
10.37	64.732
10.388	64.7039
10.406	64.6245
10.424	64.5291
10.442	64.4547
10.46	64.4206
10.478	64.4235
10.496	64.4454
10.514	64.4717
10.532	64.4998
10.55	64.5407
10.568	64.6071
10.586	64.7025
10.604	64.8169
10.622	64.9286
10.64	65.0128
10.658	65.0537
10.676	65.0499
10.694	65.0127
10.712	64.9599
10.73	64.9036
10.748	64.8478
10.766	64.7891
10.784	64.7243
10.802	64.6529
10.82	64.5744
10.838	64.4854
10.856	64.3795
10.874	64.2522
10.892	64.1113
10.91	63.9838
10.928	63.9069
10.946	63.9177
10.964	64.0295
10.982	64.223
11	64.4531
11.018	64.6625
11.036	64.809
11.054	64.8765
11.072	64.8773
11.09	64.8407
11.108	64.7954
11.126	64.7609
11.144	64.7408
11.162	64.7307
11.18	64.7231
11.198	64.7116
11.216	64.693
11.234	64.6641
11.252	64.6212
11.27	64.5614
11.288	64.4831
11.306	64.39
11.324	64.2896
11.342	64.1914
11.36	64.1038
11.378	64.0351
11.396	63.9915
11.414	63.9773
11.432	63.9966
11.45	64.0495
11.468	64.1303
11.486	64.2289
11.504	64.331
11.522	64.4206
11.54	64.4862
11.558	64.5231
11.576	64.5342
11.594	64.5284
11.612	64.5185
11.63	64.5164
11.648	64.5294
11.666	64.5595
11.684	64.6017
11.702	64.6465
11.72	64.6817
11.738	64.696
11.756	64.6825
11.774	64.6402
11.792	64.5744
11.81	64.4947
11.828	64.4125
11.846	64.3388
11.864	64.2809
11.882	64.2428
11.9	64.2259
11.918	64.23
11.936	64.2535
11.954	64.2946
11.972	64.3495
11.99	64.4116
12.008	64.4716
12.026	64.5189
12.044	64.5434
12.062	64.5383
12.08	64.5025
12.098	64.4414
12.116	64.3646
12.134	64.2837
12.152	64.2097
12.17	64.151
12.188	64.1126
12.206	64.0961
12.224	64.0991
12.242	64.1161
12.26	64.1394
12.278	64.1601
12.296	64.1699
12.314	64.1629
12.332	64.1376
12.35	64.0964
12.368	64.0457
12.386	63.9941
12.404	63.9508
12.422	63.9236
12.44	63.9166
12.458	63.9312
12.476	63.966
12.494	64.0165
12.512	64.076
12.53	64.136
12.548	64.1875
12.566	64.2218
12.584	64.233
12.602	64.2192
12.62	64.1831
12.638	64.1316
12.656	64.0731
12.674	64.017
12.692	63.9708
12.71	63.9393
12.728	63.9243
12.746	63.9257
12.764	63.9419
12.782	63.97
12.8	64.0063
12.818	64.0467
12.836	64.0855
12.854	64.117
12.872	64.1366
12.89	64.1418
12.908	64.1333
12.926	64.1148
12.944	64.0919
12.962	64.0698
12.98	64.0514
12.998	64.0352
13.016	64.0166
13.034	63.9898
13.052	63.9506
13.07	63.8988
13.088	63.84
13.106	63.785
13.124	63.7466
13.142	63.7367
13.16	63.761
13.178	63.8189
13.196	63.9013
13.214	63.9956
13.232	64.0885
13.25	64.1703
13.268	64.2376
13.286	64.2928
13.304	64.3422
13.322	64.3919
13.34	64.4452
13.358	64.499
13.376	64.5443
13.394	64.5682
13.412	64.5573
13.43	64.5016
13.448	64.3984
13.466	64.253
13.484	64.0789
13.502	63.8946
13.52	63.7203
13.538	63.574
13.556	63.4685
13.574	63.4096
13.592	63.3963
13.61	63.4214
13.628	63.4736
13.646	63.5394
13.664	63.6056
13.682	63.6602
13.7	63.6957
13.718	63.7085
13.736	63.7005
13.754	63.6769
13.772	63.6457
13.79	63.6157
13.808	63.5945
13.826	63.587
13.844	63.5942
13.862	63.6139
13.88	63.6405
13.898	63.6671
13.916	63.6867
13.934	63.6937
13.952	63.685
13.97	63.6606
13.988	63.6236
14.006	63.5795
14.024	63.5349
14.042	63.4962
14.06	63.4685
14.078	63.4546
14.096	63.4546
14.114	63.4667
14.132	63.4874
14.15	63.5121
14.168	63.5356
14.186	63.5527
14.204	63.5592
14.222	63.5524
14.24	63.5314
14.258	63.4978
14.276	63.4541
14.294	63.4047
14.312	63.3549
14.33	63.3107
14.348	63.278
14.366	63.2614
14.384	63.2639
14.402	63.2866
14.42	63.3281
14.438	63.385
14.456	63.4523
14.474	63.5239
14.492	63.5937
14.51	63.6556
14.528	63.705
14.546	63.7392
14.564	63.7577
14.582	63.7614
14.6	63.753
14.618	63.7361
14.636	63.7152
14.654	63.6941
14.672	63.6761
14.69	63.6636
14.708	63.6578
14.726	63.659
14.744	63.6657
14.762	63.6764
14.78	63.6884
14.798	63.6991
14.816	63.7058
14.834	63.7057
14.852	63.6967
14.87	63.6772
14.888	63.6466
14.906	63.6045
14.924	63.5516
14.942	63.4895
14.96	63.4201
14.978	63.3457
14.996	63.2688
15.014	63.1915
15.032	63.1165
15.05	63.0454
15.068	62.9796
15.086	62.9202
15.104	62.8678
15.122	62.8232
15.14	62.7867
15.158	62.7587
15.176	62.7397
15.194	62.7298
15.212	62.7291
15.23	62.7375
15.248	62.7543
15.266	62.7787
15.284	62.8091
15.302	62.8435
15.32	62.8797
15.338	62.9153
15.356	62.9483
15.374	62.9765
15.392	62.9992
15.41	63.0163
15.428	63.0282
15.446	63.0365
15.464	63.0431
15.482	63.0501
15.5	63.0589
15.518	63.0709
15.536	63.0856
15.554	63.102
15.572	63.1188
15.59	63.1327
15.608	63.1414
15.626	63.1429
15.644	63.1354
15.662	63.1186
15.68	63.0936
15.698	63.0621
15.716	63.0275
15.734	62.9941
15.752	62.9653
15.77	62.9444
15.788	62.9349
15.806	62.9377
15.824	62.9531
15.842	62.9806
15.86	63.0173
15.878	63.0608
15.896	63.1084
15.914	63.156
15.932	63.2012
15.95	63.2419
15.968	63.2762
15.986	63.303
16.004	63.322
16.022	63.3332
16.04	63.3367
16.058	63.3329
16.076	63.3224
16.094	63.3061
16.112	63.2848
16.13	63.2597
16.148	63.2322
16.166	63.2037
16.184	63.1755
16.202	63.1491
16.22	63.1258
16.238	63.1061
16.256	63.0906
16.274	63.0786
16.292	63.0689
16.31	63.0605
16.328	63.0511
16.346	63.0386
16.364	63.0218
16.382	62.9986
16.4	62.9687
16.418	62.9317
16.436	62.8886
16.454	62.8415
16.472	62.7919
16.49	62.7431
16.508	62.6977
16.526	62.6575
16.544	62.6251
16.562	62.601
16.58	62.5857
16.598	62.5784
16.616	62.5775
16.634	62.5818
16.652	62.5878
16.67	62.5939
16.688	62.598
16.706	62.5984
16.724	62.5948
16.742	62.587
16.76	62.5761
16.778	62.5627
16.796	62.5486
16.814	62.5356
16.832	62.5249
16.85	62.5183
16.868	62.5159
16.886	62.5181
16.904	62.5239
16.922	62.5327
16.94	62.5431
16.958	62.5532
16.976	62.5622
16.994	62.5687
17.012	62.5722
17.03	62.5726
17.048	62.5702
17.066	62.5661
17.084	62.5612
17.102	62.5579
17.12	62.557
17.138	62.5609
17.156	62.5705
17.174	62.5869
17.192	62.6106
17.21	62.6414
17.228	62.6787
17.246	62.7212
17.264	62.7681
17.282	62.8168
17.3	62.8663
17.318	62.9141
17.336	62.9585
17.354	62.9982
17.372	63.0306
17.39	63.0551
17.408	63.0699
17.426	63.074
17.444	63.0669
17.462	63.0476
17.48	63.0161
17.498	62.9726
17.516	62.9175
17.534	62.8512
17.552	62.7759
17.57	62.6922
17.588	62.6031
17.606	62.5099
17.624	62.4151
17.642	62.3213
17.66	62.2299
17.678	62.1442
17.696	62.065
17.714	61.9951
17.732	61.9352
17.75	61.8869
17.768	61.8509
17.786	61.8279
17.804	61.8178
17.822	61.8205
17.84	61.8351
17.858	61.8606
17.876	61.8956
17.894	61.9376
17.912	61.9855
17.93	62.0352
17.948	62.0858
17.966	62.1328
17.984	62.175
18.002	62.2087
18.02	62.2324
18.038	62.2441
18.056	62.2424
18.074	62.2264
18.092	62.1961
18.11	62.1515
18.128	62.0939
18.146	62.0243
18.164	61.9451
18.182	61.8581
18.2	61.7658
18.218	61.6712
18.236	61.5759
18.254	61.4835
18.272	61.3949
18.29	61.3132
18.308	61.2387
18.326	61.1738
18.344	61.1187
18.362	61.0746
18.38	61.0415
18.398	61.0201
18.416	61.01
18.434	61.0114
18.452	61.0235
18.47	61.0463
18.488	61.0783
18.506	61.119
18.524	61.1664
18.542	61.2202
18.56	61.2773
18.578	61.3373
18.596	61.3974
18.614	61.4571
18.632	61.5133
18.65	61.5659
18.668	61.6125
18.686	61.6532
18.704	61.6867
18.722	61.7131
18.74	61.7323
18.758	61.7446
18.776	61.7509
18.794	61.7515
18.812	61.7478
18.83	61.7403
18.848	61.7303
18.866	61.7185
18.884	61.7061
18.902	61.6937
18.92	61.6824
18.938	61.6725
18.956	61.6648
18.974	61.6593
18.992	61.6564
19.01	61.6563
19.028	61.659
19.046	61.6646
19.064	61.6733
19.082	61.6849
19.1	61.6993
19.118	61.7164
19.136	61.7358
19.154	61.7573
19.172	61.7802
19.19	61.8043
19.208	61.8289
19.226	61.8536
19.244	61.8772
19.262	61.8999
19.28	61.9204
19.298	61.9389
19.316	61.9549
19.334	61.9685
19.352	61.98
19.37	61.9896
19.388	61.9984
19.406	62.0064
19.424	62.0152
19.442	62.0249
19.46	62.0369
19.478	62.0516
19.496	62.0694
19.514	62.0908
19.532	62.1153
19.55	62.1435
19.568	62.1741
19.586	62.2064
19.604	62.2396
19.622	62.2719
19.64	62.3029
19.658	62.3294
19.676	62.3518
19.694	62.3672
19.712	62.3759
19.73	62.3754
19.748	62.3658
19.766	62.3459
19.784	62.3157
19.802	62.275
19.82	62.2235
19.838	62.162
19.856	62.0911
19.874	62.011
19.892	61.9234
19.91	61.8281
19.928	61.7277
19.946	61.6217
19.964	61.5128
19.982	61.401
20	61.2882
20.018	61.1753
20.036	61.0632
20.054	60.9539
20.072	60.8472
20.09	60.7455
20.108	60.6483
20.126	60.5579
20.144	60.4741
20.162	60.398
20.18	60.3302
20.198	60.2704
20.216	60.2191
20.234	60.1758
20.252	60.1396
20.27	60.1109
20.288	60.0871
20.306	60.0684
20.324	60.0526
20.342	60.0386
20.36	60.0256
20.378	60.0106
20.396	59.9942
20.414	59.9738
20.432	59.9496
20.45	59.9207
20.468	59.8863
20.486	59.8471
20.504	59.8037
20.522	59.756
20.54	59.7063
20.558	59.6539
20.576	59.6019
20.594	59.5515
20.612	59.5034
20.63	59.4607
20.648	59.4227
20.666	59.3927
20.684	59.3707
20.702	59.3581
20.72	59.3564
20.738	59.365
20.756	59.3848
20.774	59.4158
20.792	59.4565
20.81	59.5075
20.828	59.5668
20.846	59.6326
20.864	59.705
20.882	59.7798
20.9	59.8578
20.918	59.9354
20.936	60.0103
20.954	60.0827
20.972	60.148
20.99	60.2071
21.008	60.2575
21.026	60.298
21.044	60.329
21.062	60.3492
21.08	60.3589
21.098	60.3592
21.116	60.3498
21.134	60.3319
21.152	60.3078
21.17	60.2766
21.188	60.2423
21.206	60.2051
21.224	60.1665
21.242	60.1301
21.26	60.0947
21.278	60.0638
21.296	60.038
21.314	60.0176
21.332	60.0049
21.35	59.9992
21.368	60.0011
21.386	60.011
21.404	60.0285
21.422	60.0529
21.44	60.0846
21.458	60.1222
21.476	60.1655
21.494	60.2141
21.512	60.2664
21.53	60.3226
21.548	60.382
21.566	60.4441
21.584	60.5089
21.602	60.5754
21.62	60.6437
21.638	60.7134
21.656	60.7839
21.674	60.8555
21.692	60.9265
21.71	60.9968
21.728	61.0661
21.746	61.1324
21.764	61.1966
21.782	61.2564
21.8	61.3102
21.818	61.3587
21.836	61.3977
21.854	61.4274
21.872	61.4468
21.89	61.4524
21.908	61.4452
21.926	61.4237
21.944	61.3861
21.962	61.3335
21.98	61.2656
21.998	61.1816
22.016	61.0833
22.034	60.9734
22.052	60.8504
22.07	60.7185
22.088	60.5804
22.106	60.4348
22.124	60.2881
22.142	60.1412
22.16	59.9946
22.178	59.8544
22.196	59.7191
22.214	59.5913
22.232	59.4748
22.25	59.3685
22.268	59.273
22.286	59.1897
22.304	59.1179
22.322	59.0551
22.34	59.0023
22.358	58.9578
22.376	58.917
22.394	58.8815
22.412	58.8481
22.43	58.8118
22.448	58.7749
22.466	58.7338
22.484	58.6852
22.502	58.6308
22.52	58.5689
22.538	58.4979
22.556	58.419
22.574	58.3338
22.592	58.2414
22.61	58.1432
22.628	58.0438
22.646	57.9414
22.664	57.8387
22.682	57.7411
22.7	57.6467
22.718	57.558
22.736	57.4789
22.754	57.408
22.772	57.3466
22.79	57.2967
22.808	57.2579
22.826	57.2282
22.844	57.2075
22.862	57.1964
22.88	57.1887
22.898	57.1828
22.916	57.18
22.934	57.171
22.952	57.1538
22.97	57.1299
22.988	57.0907
23.006	57.0347
23.024	56.9631
23.042	56.8698
23.06	56.7542
23.078	56.6169
23.096	56.4551
23.114	56.267
23.132	56.0549
23.15	55.8217
23.168	55.565
23.186	55.2882
23.204	55.0001
23.222	54.6973
23.24	54.384
23.258	54.0736
23.276	53.7631
23.294	53.4556
23.312	53.1639
23.33	52.8856
23.348	52.6229
23.366	52.3884
23.384	52.1812
23.402	52.0014
23.42	51.858
23.438	51.7515
23.456	51.6807
23.474	51.6497
23.492	51.6604
23.51	51.7105
23.528	51.7987
23.546	51.9261
23.564	52.0917
23.582	52.2894
23.6	52.5183
23.618	52.7798
23.636	53.0647
23.654	53.3694
23.672	53.6979
23.69	54.0391
23.708	54.3864
23.726	54.7459
23.744	55.107
23.762	55.4605
23.78	55.813
23.798	56.1568
23.816	56.4827
23.834	56.7952
23.852	57.0908
23.87	57.3624
23.888	57.612
23.906	57.8387
23.924	58.0385
23.942	58.2106
23.96	58.3563
23.978	58.4749
23.996	58.5651
24.014	58.6278
24.032	58.6656
24.05	58.6796
24.068	58.6677
24.086	58.6356
24.104	58.5883
24.122	58.5215
24.14	58.4405
24.158	58.3531
24.176	58.2552
24.194	58.1502
24.212	58.0478
24.23	57.9482
24.248	57.8495
24.266	57.7618
24.284	57.6897
24.302	57.6277
24.32	57.5847
24.338	57.5693
24.356	57.5757
24.374	57.6087
24.392	57.6762
24.41	57.776
24.428	57.9085
24.446	58.0812
24.464	58.298
24.482	58.5553
24.5	58.8543
24.518	59.1963
24.536	59.5806
24.554	60.0068
24.572	60.4752
24.59	60.9839
24.608	61.5342
24.626	62.13
24.644	62.7733
24.662	63.4619
24.68	64.1966
24.698	64.9786
24.716	65.8108
24.734	66.6871
24.752	67.6001
24.77	68.5522
24.788	69.5434
24.806	70.561
24.824	71.5973
24.842	72.6623
24.86	73.7425
24.878	74.8213
24.896	75.9067
24.914	76.9953
24.932	78.0677
24.95	79.1145
24.968	80.1477
24.986	81.153
25.004	82.1153
25.022	83.0432
25.04	83.9327
25.058	84.7689
25.076	85.5461
25.094	86.2734
25.112	86.9393
25.13	87.5321
25.148	88.0561
25.166	88.5117
25.184	88.894
25.202	89.1998
25.22	89.4314
25.238	89.5913
25.256	89.6814
25.274	89.6941
25.292	89.6374
25.31	89.5274
25.328	89.3701
25.346	89.1511
25.364	88.8946
25.382	88.6279
25.4	88.3393
25.418	88.0298
25.436	87.7312
25.454	87.4664
25.472	87.2108
25.49	86.9845
25.508	86.8169
25.526	86.7169
25.544	86.6699
25.562	86.6853
25.58	86.7725
25.598	86.9348
25.616	87.1634
25.634	87.4491
25.652	87.7895
25.67	88.1971
25.688	88.6493
25.706	89.1203
25.724	89.6149
25.742	90.1411
25.76	90.6675
25.778	91.1649
25.796	91.6447
25.814	92.1088
25.832	92.5466
25.85	92.9497
25.868	93.3224
25.886	93.6678
25.904	93.9883
25.922	94.2748
25.94	94.5251
25.958	94.7686
25.976	95.0346
25.994	95.3128
26.012	95.6002
26.03	95.9175
26.048	96.284
26.066	96.6962
26.084	97.1455
26.102	97.6261
26.12	98.1416
26.138	98.7121
26.156	99.2985
26.174	99.8556
26.192	100.388
26.21	100.936
26.228	101.409
26.246	101.713
26.264	101.871
26.282	101.917
26.3	101.748
26.318	101.267
26.336	100.521
26.354	99.5171
26.372	98.1746
26.39	96.4182
26.408	94.279
26.426	91.7699
26.444	88.8721
26.462	85.564
26.48	81.82
26.498	77.6917
26.516	73.244
26.534	68.5115
26.552	63.3998
26.57	58.0108
26.588	52.481
26.606	46.8795
26.624	41.0579
26.642	35.1608
26.66	29.3706
26.678	23.774
26.696	18.2022
26.714	12.8017
26.732	7.750474
26.75	3.132007
26.768	-1.200425
26.786	-5.142659
26.804	-8.569604
26.822	-11.4153
26.84	-13.7708
26.858	-15.603
26.876	-16.8682
26.894	-17.5277
26.912	-17.5952
26.93	-17.1197
26.948	-16.1501
26.966	-14.5254
26.984	-11.9335
27.002	-9.099864
27.02	-6.815663
27.028	-6.242990