File: Bakgrunnsmateriale/MATLAB/FTIR/ftir_data/subBb/Mapping_121/C-4040-8_t91.asc
PE IR       SPECTRUM    SPECTRUM    ASCII       PEDS        1.60
  -1
C-A94E~1.ASC
17/03/27
22:00:38.00
17/03/27
22:01:04.00
tln
$C-4040-8_t0091$<tbV0>[7.8,7.8,8.0,0.0,27,1,0]
27.028
64

2002,4.07
MIRTGS : RIGHTBACK : INTERNAL 2
MIR : ON : INTERNAL 2
OPTKBR

0.200000
8
8.000000
FILLER
RATIO
SPECTRUM
UNLOCKED 256

DOUBLE
64
COMBINED
1
0
0

0.002000
RATIO

1
0
TRUE
51149
0
LEFT NOT FITTED RIGHT NOT FITTED 0
NONE
NONE
15600
12
4.427000
51148
TRUE
1 0 8 72 0 0 0 0

15798

#HDR
-1
-1
#GR
µM
%T
2.38419e-05
0.0
2.000000
0.002000
12515
8
123.752
45.3768
#DATA
2.000000	 65.3317
2.018000	 64.843
2.036000	 65.2317
2.054000	 65.5463
2.072000	 64.8932
2.090000	 65.257
2.108000	 64.6287
2.126000	 64.9077
2.144000	 65.0343
2.162000	 65.4375
2.180000	 65.5138
2.198000	 65.3713
2.216000	 64.9307
2.234000	 64.9856
2.252000	 64.7395
2.270000	 65.0891
2.288000	 65.1829
2.306000	 64.7101
2.324000	 64.7216
2.342000	 65.2417
2.360000	 65.2662
2.378000	 64.7621
2.396000	 64.6538
2.414000	 65.3407
2.432000	 65.3989
2.450000	 65.1598
2.468000	 65.165
2.486000	 65.5173
2.504000	 65.1288
2.522000	 65.3554
2.540000	 65.2197
2.558000	 65.4145
2.576000	 65.1882
2.594000	 65.1252
2.612000	 64.7611
2.630000	 64.9611
2.648000	 65.2401
2.666000	 65.2584
2.684000	 65.391
2.702000	 65.2281
2.720000	 65.0726
2.738000	 65.3061
2.756000	 65.1998
2.774000	 65.2195
2.792000	 65.3777
2.810000	 65.3528
2.828000	 65.0954
2.846000	 65.1769
2.864000	 65.2823
2.882000	 65.2463
2.900000	 65.081
2.918000	 65.1892
2.936000	 65.2784
2.954000	 65.1956
2.972000	 65.112
2.990000	 65.2156
3.008000	 65.2045
3.026000	 65.1278
3.044000	 65.2189
3.062000	 65.1296
3.080000	 65.3837
3.098000	 65.2973
3.116000	 65.344
3.134000	 65.0064
3.152000	 65.3334
3.170000	 65.4511
3.188000	 65.4089
3.206000	 65.3186
3.224000	 65.5141
3.242000	 65.2314
3.260000	 65.2709
3.278000	 65.2256
3.296000	 65.4519
3.314000	 65.4038
3.332000	 65.3125
3.350000	 65.1777
3.368000	 65.2283
3.386000	 65.1896
3.404000	 65.2389
3.422000	 64.8632
3.440000	 65.1138
3.458000	 65.0082
3.476000	 65.2646
3.494000	 65.3786
3.512000	 65.1143
3.530000	 65.2741
3.548000	 65.1878
3.566000	 65.3119
3.584000	 65.5301
3.602000	 65.3415
3.620000	 65.2733
3.638000	 65.3022
3.656000	 65.3116
3.674000	 65.2788
3.692000	 65.3036
3.710000	 65.4222
3.728000	 65.27
3.746000	 65.4197
3.764000	 65.3469
3.782000	 65.323
3.800000	 65.278
3.818000	 65.43
3.836000	 65.2267
3.854000	 65.2109
3.872000	 65.3805
3.890000	 65.2971
3.908000	 65.3305
3.926000	 65.3499
3.944000	 65.3301
3.962000	 65.2741
3.980000	 65.125
3.998000	 65.3395
4.016000	 65.6112
4.034000	 65.4074
4.052000	 65.4784
4.070000	 65.3487
4.088000	 65.1539
4.106000	 65.1954
4.124000	 65.296
4.141999	 65.6173
4.160000	 65.3886
4.178000	 65.297
4.196000	 65.3232
4.214000	 65.3225
4.232000	 65.4033
4.250000	 65.254
4.268000	 65.2822
4.286000	 65.4026
4.304000	 65.3516
4.322000	 65.3662
4.340000	 65.2344
4.358000	 65.2126
4.375999	 65.3356
4.394000	 65.3797
4.412000	 65.37
4.430000	 65.3566
4.448000	 65.302
4.466000	 65.3167
4.484000	 65.2881
4.502000	 65.3019
4.520000	 65.3276
4.538000	 65.348
4.556000	 65.4485
4.574000	 65.4309
4.592000	 65.3112
4.609999	 65.3561
4.628000	 65.4138
4.646000	 65.5713
4.664000	 65.315
4.682000	 65.322
4.700000	 65.172
4.718000	 65.1904
4.736000	 65.6243
4.754000	 65.4677
4.772000	 65.3364
4.790000	 65.3301
4.808000	 65.306
4.826000	 65.7714
4.843999	 65.5405
4.862000	 65.2597
4.880000	 65.3108
4.898000	 65.4306
4.916000	 65.4438
4.934000	 65.3367
4.952000	 65.2268
4.970000	 65.2758
4.988000	 65.4009
5.006000	 65.4354
5.024000	 65.3867
5.042000	 65.586
5.060000	 65.489
5.077999	 65.4617
5.096000	 65.4579
5.114000	 65.3878
5.132000	 65.4072
5.150000	 65.4417
5.168000	 65.4365
5.186000	 65.4032
5.204000	 65.4022
5.222000	 65.3277
5.240000	 65.3385
5.258000	 65.385
5.276000	 65.3248
5.294000	 65.4187
5.312000	 65.4636
5.330000	 65.4088
5.348000	 65.3658
5.366000	 65.3783
5.384000	 65.4183
5.402000	 65.3053
5.420000	 65.3434
5.438000	 65.4657
5.456000	 65.4926
5.474000	 65.5019
5.492000	 65.4095
5.510000	 65.3354
5.528000	 65.2736
5.546000	 65.2907
5.564000	 65.226
5.582000	 65.2563
5.600000	 65.2438
5.618000	 65.2906
5.636000	 65.4456
5.654000	 65.4543
5.672000	 65.3509
5.690000	 65.3674
5.708000	 65.3906
5.726000	 65.337
5.744000	 65.2514
5.762000	 65.1758
5.780000	 65.1937
5.798000	 65.2347
5.816000	 65.2786
5.834000	 65.3547
5.852000	 65.453
5.870000	 65.2796
5.888000	 65.1305
5.906000	 65.218
5.923999	 65.2688
5.942000	 65.2147
5.960000	 65.2859
5.978000	 65.3532
5.996000	 65.4021
6.014000	 65.3687
6.032000	 65.2516
6.050000	 65.1896
6.068000	 65.2575
6.086000	 65.3277
6.104000	 65.3594
6.122000	 65.2906
6.140000	 65.1939
6.158000	 65.1754
6.176000	 65.1668
6.194000	 65.1499
6.212000	 65.1613
6.230000	 65.2366
6.248000	 65.3156
6.266000	 65.2862
6.284000	 65.2629
6.302000	 65.2869
6.320000	 65.28
6.338000	 65.2031
6.356000	 65.0203
6.374000	 64.9546
6.392000	 65.0021
6.410000	 65.0031
6.428000	 65.0576
6.446000	 65.1829
6.464000	 65.2836
6.482000	 65.2635
6.500000	 65.1559
6.518000	 65.0956
6.536000	 65.1479
6.554000	 65.2251
6.572000	 65.2154
6.590000	 65.1599
6.608000	 65.1203
6.626000	 65.1649
6.644000	 65.2643
6.662000	 65.3162
6.680000	 65.3394
6.698000	 65.2813
6.716000	 65.1466
6.734000	 65.0858
6.752000	 65.096
6.770000	 65.115
6.788000	 65.1365
6.806000	 65.1544
6.824000	 65.1664
6.842000	 65.1756
6.860000	 65.1719
6.878000	 65.1485
6.896000	 65.1161
6.914000	 65.1302
6.932000	 65.1757
6.950000	 65.1831
6.968000	 65.1791
6.986000	 65.1816
7.004000	 65.1652
7.022000	 65.1307
7.040000	 65.1057
7.058000	 65.1267
7.076000	 65.1617
7.094000	 65.1824
7.112000	 65.227
7.130000	 65.2734
7.148000	 65.2662
7.166000	 65.2156
7.184000	 65.1774
7.202000	 65.209
7.220000	 65.2845
7.238000	 65.3101
7.256000	 65.2706
7.274000	 65.2251
7.292000	 65.2107
7.310000	 65.2093
7.328000	 65.1856
7.346000	 65.1662
7.364000	 65.1918
7.382000	 65.2321
7.400000	 65.2714
7.418000	 65.3164
7.436000	 65.2993
7.454000	 65.1641
7.472000	 64.9993
7.490000	 64.9489
7.508000	 65.0373
7.526000	 65.1591
7.544000	 65.2287
7.562000	 65.2448
7.580000	 65.2011
7.598000	 65.0861
7.616000	 64.9748
7.634000	 64.965
7.652000	 65.0478
7.670000	 65.1314
7.688000	 65.1558
7.706000	 65.1337
7.724000	 65.1088
7.742000	 65.1076
7.760000	 65.1301
7.778000	 65.153
7.796000	 65.1427
7.814000	 65.102
7.832000	 65.064
7.850000	 65.0241
7.868000	 64.9552
7.886000	 64.8908
7.904000	 64.8865
7.922000	 64.9391
7.940000	 65.0098
7.958000	 65.0647
7.976000	 65.0751
7.994000	 65.0438
8.012000	 65.0188
8.030000	 65.0263
8.048000	 65.0403
8.065999	 65.0337
8.084000	 65.0113
8.102000	 64.9987
8.120000	 65.0176
8.138000	 65.0629
8.155999	 65.1032
8.173999	 65.1165
8.192000	 65.1164
8.210000	 65.125
8.228000	 65.1436
8.246000	 65.1583
8.263999	 65.1543
8.282000	 65.1168
8.300000	 65.0447
8.318000	 64.973
8.336000	 64.9532
8.353999	 64.9921
8.372000	 65.0361
8.390000	 65.0283
8.408000	 64.9605
8.426000	 64.8715
8.443999	 64.8119
8.462000	 64.8112
8.480000	 64.8564
8.498000	 64.9059
8.516000	 64.9316
8.533999	 64.9377
8.552000	 64.9383
8.570000	 64.9372
8.588000	 64.9399
8.606000	 64.9655
8.624000	 65.0168
8.641999	 65.0556
8.660000	 65.0325
8.678000	 64.9477
8.696000	 64.8569
8.714000	 64.8118
8.731999	 64.8113
8.750000	 64.8222
8.768000	 64.8233
8.786000	 64.8142
8.804000	 64.8008
8.821999	 64.788
8.840000	 64.7851
8.858000	 64.8026
8.876000	 64.8435
8.894000	 64.8982
8.911999	 64.9467
8.930000	 64.9647
8.948000	 64.9429
8.966000	 64.9048
8.984000	 64.8926
9.001999	 64.9214
9.020000	 64.9572
9.038000	 64.944
9.056000	 64.8541
9.074000	 64.7162
9.092000	 64.594
9.109999	 64.5389
9.128000	 64.5586
9.146000	 64.6189
9.164000	 64.6731
9.182000	 64.6927
9.199999	 64.6731
9.218000	 64.6257
9.236000	 64.574
9.254000	 64.5522
9.272000	 64.5839
9.289999	 64.6574
9.308000	 64.7316
9.326000	 64.7718
9.344000	 64.782
9.362000	 64.7934
9.379999	 64.8264
9.398000	 64.8716
9.416000	 64.9084
9.434000	 64.9305
9.452000	 64.9496
9.469999	 64.9837
9.488000	 65.0475
9.506000	 65.145
9.524000	 65.2583
9.542000	 65.3443
9.560000	 65.3521
9.577999	 65.2586
9.596000	 65.0912
9.614000	 64.9118
9.632000	 64.7728
9.650000	 64.6858
9.667999	 64.629
9.686000	 64.5801
9.704000	 64.5382
9.722000	 64.5179
9.740000	 64.5264
9.757999	 64.5517
9.776000	 64.5724
9.794000	 64.5751
9.812000	 64.5608
9.830000	 64.5378
9.847999	 64.5112
9.866000	 64.4826
9.884000	 64.4591
9.902000	 64.4553
9.920000	 64.485
9.937999	 64.5473
9.956000	 64.6203
9.974000	 64.6745
9.992000	 64.6932
10.01	64.684
10.028	64.6721
10.046	64.6811
10.064	64.7139
10.082	64.7521
10.1	64.77
10.118	64.7533
10.136	64.7103
10.154	64.6656
10.172	64.6442
10.19	64.6561
10.208	64.6905
10.226	64.7276
10.244	64.7541
10.262	64.7765
10.28	64.8156
10.298	64.8891
10.316	64.9916
10.334	65.0878
10.352	65.1313
10.37	65.0887
10.388	64.9643
10.406	64.7981
10.424	64.6448
10.442	64.545
10.46	64.5082
10.478	64.5171
10.496	64.5456
10.514	64.5757
10.532	64.6019
10.55	64.6262
10.568	64.6468
10.586	64.6536
10.604	64.6347
10.622	64.585
10.64	64.5145
10.658	64.447
10.676	64.416
10.694	64.4484
10.712	64.5548
10.73	64.7242
10.748	64.9266
10.766	65.1229
10.784	65.2812
10.802	65.3836
10.82	65.4289
10.838	65.4262
10.856	65.388
10.874	65.3263
10.892	65.2532
10.91	65.1867
10.928	65.1486
10.946	65.1584
10.964	65.2199
10.982	65.3132
11	65.3976
11.018	65.4245
11.036	65.3632
11.054	65.2145
11.072	65.0127
11.09	64.8125
11.108	64.6586
11.126	64.5722
11.144	64.5425
11.162	64.535
11.18	64.5146
11.198	64.4602
11.216	64.374
11.234	64.2771
11.252	64.1994
11.27	64.1625
11.288	64.1734
11.306	64.2236
11.324	64.2929
11.342	64.3594
11.36	64.4084
11.378	64.4361
11.396	64.45
11.414	64.4623
11.432	64.4821
11.45	64.5102
11.468	64.5387
11.486	64.5542
11.504	64.5465
11.522	64.5123
11.54	64.4563
11.558	64.391
11.576	64.3325
11.594	64.2943
11.612	64.2855
11.63	64.3082
11.648	64.3578
11.666	64.4243
11.684	64.4951
11.702	64.5588
11.72	64.6061
11.738	64.6336
11.756	64.6434
11.774	64.6417
11.792	64.6368
11.81	64.6351
11.828	64.6389
11.846	64.6458
11.864	64.6505
11.882	64.6471
11.9	64.6325
11.918	64.6082
11.936	64.5794
11.954	64.5546
11.972	64.5412
11.99	64.5415
12.008	64.551
12.026	64.5586
12.044	64.551
12.062	64.5183
12.08	64.4586
12.098	64.3792
12.116	64.2949
12.134	64.2218
12.152	64.1716
12.17	64.1485
12.188	64.1493
12.206	64.1645
12.224	64.1833
12.242	64.1968
12.26	64.2004
12.278	64.1933
12.296	64.1774
12.314	64.1551
12.332	64.1282
12.35	64.0981
12.368	64.0663
12.386	64.0352
12.404	64.0079
12.422	63.9876
12.44	63.9773
12.458	63.9793
12.476	63.9947
12.494	64.0233
12.512	64.0628
12.53	64.1082
12.548	64.1524
12.566	64.1878
12.584	64.2069
12.602	64.2054
12.62	64.1834
12.638	64.1455
12.656	64.0989
12.674	64.0516
12.692	64.0098
12.71	63.9766
12.728	63.9512
12.746	63.93
12.764	63.9095
12.782	63.888
12.8	63.8671
12.818	63.851
12.836	63.8441
12.854	63.8497
12.872	63.8674
12.89	63.8939
12.908	63.9235
12.926	63.9506
12.944	63.9709
12.962	63.9834
12.98	63.9903
12.998	63.9959
13.016	64.0043
13.034	64.0187
13.052	64.0395
13.07	64.064
13.088	64.0879
13.106	64.1051
13.124	64.1108
13.142	64.1008
13.16	64.0721
13.178	64.024
13.196	63.9572
13.214	63.8757
13.232	63.7863
13.25	63.6979
13.268	63.6213
13.286	63.5654
13.304	63.5361
13.322	63.5333
13.34	63.5515
13.358	63.5803
13.376	63.6065
13.394	63.6174
13.412	63.6036
13.43	63.5609
13.448	63.4913
13.466	63.4023
13.484	63.3051
13.502	63.2123
13.52	63.1355
13.538	63.0832
13.556	63.0599
13.574	63.066
13.592	63.098
13.61	63.1499
13.628	63.214
13.646	63.2814
13.664	63.3439
13.682	63.3939
13.7	63.4271
13.718	63.4421
13.736	63.4417
13.754	63.4315
13.772	63.4186
13.79	63.4097
13.808	63.4092
13.826	63.4185
13.844	63.4354
13.862	63.4548
13.88	63.4706
13.898	63.477
13.916	63.4706
13.934	63.4502
13.952	63.4179
13.97	63.3784
13.988	63.3374
14.006	63.3008
14.024	63.2734
14.042	63.2579
14.06	63.2548
14.078	63.2625
14.096	63.2783
14.114	63.2996
14.132	63.3237
14.15	63.3487
14.168	63.373
14.186	63.3954
14.204	63.4143
14.222	63.4283
14.24	63.4359
14.258	63.436
14.276	63.4275
14.294	63.4102
14.312	63.3846
14.33	63.3524
14.348	63.3159
14.366	63.278
14.384	63.2421
14.402	63.2113
14.42	63.1882
14.438	63.175
14.456	63.1728
14.474	63.182
14.492	63.2018
14.51	63.2301
14.528	63.2643
14.546	63.3012
14.564	63.3372
14.582	63.3692
14.6	63.3945
14.618	63.4109
14.636	63.4174
14.654	63.414
14.672	63.4018
14.69	63.3826
14.708	63.3584
14.726	63.3317
14.744	63.304
14.762	63.2765
14.78	63.2493
14.798	63.222
14.816	63.1936
14.834	63.1632
14.852	63.1293
14.87	63.092
14.888	63.0517
14.906	63.0102
14.924	62.9697
14.942	62.9332
14.96	62.9039
14.978	62.8842
14.996	62.8757
15.014	62.8791
15.032	62.8935
15.05	62.9168
15.068	62.9461
15.086	62.9782
15.104	63.01
15.122	63.0384
15.14	63.0621
15.158	63.0803
15.176	63.0937
15.194	63.1033
15.212	63.1114
15.23	63.12
15.248	63.1308
15.266	63.1452
15.284	63.1638
15.302	63.1858
15.32	63.21
15.338	63.2346
15.356	63.2574
15.374	63.2759
15.392	63.2884
15.41	63.2933
15.428	63.2895
15.446	63.2766
15.464	63.2549
15.482	63.2252
15.5	63.1885
15.518	63.1465
15.536	63.1004
15.554	63.0518
15.572	63.002
15.59	62.9525
15.608	62.9039
15.626	62.8569
15.644	62.812
15.662	62.7694
15.68	62.7293
15.698	62.6922
15.716	62.6583
15.734	62.6283
15.752	62.6028
15.77	62.5822
15.788	62.5674
15.806	62.5591
15.824	62.5576
15.842	62.5631
15.86	62.5751
15.878	62.5928
15.896	62.6153
15.914	62.641
15.932	62.6683
15.95	62.6957
15.968	62.7216
15.986	62.7446
16.004	62.764
16.022	62.7792
16.04	62.7902
16.058	62.7973
16.076	62.8009
16.094	62.8017
16.112	62.8003
16.13	62.7971
16.148	62.7926
16.166	62.7871
16.184	62.7809
16.202	62.7741
16.22	62.7671
16.238	62.7602
16.256	62.7535
16.274	62.7474
16.292	62.7419
16.31	62.7369
16.328	62.7321
16.346	62.7266
16.364	62.7198
16.382	62.7103
16.4	62.6966
16.418	62.6778
16.436	62.6524
16.454	62.6201
16.472	62.5807
16.49	62.5349
16.508	62.4843
16.526	62.4302
16.544	62.376
16.562	62.3243
16.58	62.2775
16.598	62.239
16.616	62.2101
16.634	62.1924
16.652	62.1863
16.67	62.1909
16.688	62.2057
16.706	62.2282
16.724	62.2569
16.742	62.2898
16.76	62.3245
16.778	62.3599
16.796	62.3941
16.814	62.4266
16.832	62.4568
16.85	62.4843
16.868	62.5092
16.886	62.5313
16.904	62.5505
16.922	62.5664
16.94	62.5785
16.958	62.5858
16.976	62.5878
16.994	62.5836
17.012	62.5725
17.03	62.5542
17.048	62.5284
17.066	62.4956
17.084	62.4564
17.102	62.4127
17.12	62.3655
17.138	62.3177
17.156	62.2713
17.174	62.2283
17.192	62.1917
17.21	62.1625
17.228	62.143
17.246	62.1335
17.264	62.1349
17.282	62.1465
17.3	62.1677
17.318	62.1972
17.336	62.2325
17.354	62.2725
17.372	62.3134
17.39	62.3538
17.408	62.3904
17.426	62.4212
17.444	62.4444
17.462	62.4579
17.48	62.4615
17.498	62.4542
17.516	62.4371
17.534	62.4105
17.552	62.3769
17.57	62.3372
17.588	62.2951
17.606	62.2523
17.624	62.2116
17.642	62.1757
17.66	62.1459
17.678	62.1247
17.696	62.1123
17.714	62.1099
17.732	62.117
17.75	62.1337
17.768	62.1586
17.786	62.1912
17.804	62.2291
17.822	62.2717
17.84	62.3163
17.858	62.362
17.876	62.4072
17.894	62.4506
17.912	62.4914
17.93	62.5285
17.948	62.5616
17.966	62.5903
17.984	62.6146
18.002	62.6347
18.02	62.651
18.038	62.6638
18.056	62.6735
18.074	62.6802
18.092	62.6844
18.11	62.6861
18.128	62.6854
18.146	62.6821
18.164	62.676
18.182	62.6669
18.2	62.6545
18.218	62.6383
18.236	62.6182
18.254	62.5938
18.272	62.5648
18.29	62.5314
18.308	62.4937
18.326	62.4522
18.344	62.4073
18.362	62.3603
18.38	62.3118
18.398	62.2634
18.416	62.2159
18.434	62.1709
18.452	62.129
18.47	62.0914
18.488	62.0584
18.506	62.0305
18.524	62.0071
18.542	61.9885
18.56	61.973
18.578	61.9606
18.596	61.9492
18.614	61.9387
18.632	61.9269
18.65	61.9139
18.668	61.8978
18.686	61.8786
18.704	61.8559
18.722	61.8296
18.74	61.7997
18.758	61.7665
18.776	61.7305
18.794	61.6919
18.812	61.6512
18.83	61.6086
18.848	61.5644
18.866	61.5186
18.884	61.4715
18.902	61.4229
18.92	61.3729
18.938	61.3215
18.956	61.2688
18.974	61.2151
18.992	61.1608
19.01	61.1063
19.028	61.0526
19.046	61.0003
19.064	60.9508
19.082	60.9048
19.1	60.8637
19.118	60.8282
19.136	60.7996
19.154	60.778
19.172	60.7641
19.19	60.7575
19.208	60.7583
19.226	60.7658
19.244	60.7786
19.262	60.7962
19.28	60.8165
19.298	60.8392
19.316	60.8615
19.334	60.8837
19.352	60.9034
19.37	60.9209
19.388	60.9351
19.406	60.9461
19.424	60.9542
19.442	60.9593
19.46	60.9628
19.478	60.9645
19.496	60.9661
19.514	60.968
19.532	60.9709
19.55	60.9754
19.568	60.9818
19.586	60.9906
19.604	61.0013
19.622	61.0136
19.64	61.0274
19.658	61.0413
19.676	61.0554
19.694	61.068
19.712	61.0794
19.73	61.0878
19.748	61.0934
19.766	61.0956
19.784	61.0941
19.802	61.0891
19.82	61.0807
19.838	61.0694
19.856	61.056
19.874	61.0409
19.892	61.0258
19.91	61.0105
19.928	60.9971
19.946	60.9854
19.964	60.9769
19.982	60.9718
20	60.9704
20.018	60.9731
20.036	60.9795
20.054	60.9896
20.072	61.0032
20.09	61.0191
20.108	61.0376
20.126	61.0572
20.144	61.0779
20.162	61.0987
20.18	61.1191
20.198	61.1388
20.216	61.1573
20.234	61.1746
20.252	61.1908
20.27	61.2056
20.288	61.2198
20.306	61.2333
20.324	61.2466
20.342	61.26
20.36	61.2739
20.378	61.2888
20.396	61.3047
20.414	61.3218
20.432	61.3401
20.45	61.3591
20.468	61.3791
20.486	61.3993
20.504	61.4189
20.522	61.4379
20.54	61.4546
20.558	61.4692
20.576	61.4802
20.594	61.4871
20.612	61.4896
20.63	61.4866
20.648	61.4783
20.666	61.4644
20.684	61.4446
20.702	61.42
20.72	61.3907
20.738	61.3572
20.756	61.3213
20.774	61.2826
20.792	61.2437
20.81	61.2049
20.828	61.1672
20.846	61.1324
20.864	61.1
20.882	61.0716
20.9	61.0473
20.918	61.0267
20.936	61.0102
20.954	60.9972
20.972	60.9861
20.99	60.9777
21.008	60.9693
21.026	60.9604
21.044	60.9504
21.062	60.9366
21.08	60.9196
21.098	60.8973
21.116	60.869
21.134	60.8348
21.152	60.7934
21.17	60.745
21.188	60.6902
21.206	60.6284
21.224	60.5607
21.242	60.4885
21.26	60.4112
21.278	60.3315
21.296	60.2493
21.314	60.1659
21.332	60.0838
21.35	60.0021
21.368	59.9232
21.386	59.8478
21.404	59.7759
21.422	59.7093
21.44	59.6477
21.458	59.5915
21.476	59.5412
21.494	59.4965
21.512	59.4572
21.53	59.4236
21.548	59.395
21.566	59.371
21.584	59.3516
21.602	59.3358
21.62	59.3238
21.638	59.3149
21.656	59.3084
21.674	59.3044
21.692	59.3022
21.71	59.3017
21.728	59.3029
21.746	59.3052
21.764	59.3086
21.782	59.3131
21.8	59.3187
21.818	59.3254
21.836	59.3331
21.854	59.3417
21.872	59.3512
21.89	59.3619
21.908	59.3736
21.926	59.3864
21.944	59.4001
21.962	59.4148
21.98	59.4304
21.998	59.4469
22.016	59.4641
22.034	59.4819
22.052	59.5003
22.07	59.519
22.088	59.5374
22.106	59.5559
22.124	59.5736
22.142	59.5905
22.16	59.6065
22.178	59.6204
22.196	59.6325
22.214	59.6422
22.232	59.6484
22.25	59.6517
22.268	59.651
22.286	59.6457
22.304	59.6363
22.322	59.622
22.34	59.6029
22.358	59.579
22.376	59.5505
22.394	59.5172
22.412	59.4796
22.43	59.4386
22.448	59.3935
22.466	59.3459
22.484	59.2969
22.502	59.2457
22.52	59.1948
22.538	59.1448
22.556	59.0953
22.574	59.0492
22.592	59.0064
22.61	58.9671
22.628	58.9337
22.646	58.9059
22.664	58.8839
22.682	58.8691
22.7	58.8613
22.718	58.8604
22.736	58.8665
22.754	58.8798
22.772	58.8993
22.79	58.9243
22.808	58.9554
22.826	58.9907
22.844	59.029
22.862	59.0713
22.88	59.1145
22.898	59.1573
22.916	59.2006
22.934	59.2413
22.952	59.2785
22.97	59.3128
22.988	59.3425
23.006	59.3671
23.024	59.387
23.042	59.402
23.06	59.4118
23.078	59.4167
23.096	59.4168
23.114	59.4117
23.132	59.402
23.15	59.389
23.168	59.372
23.186	59.352
23.204	59.3314
23.222	59.3098
23.24	59.2878
23.258	59.2677
23.276	59.2491
23.294	59.2324
23.312	59.2203
23.33	59.2128
23.348	59.2095
23.366	59.2111
23.384	59.2183
23.402	59.23
23.42	59.2443
23.438	59.2618
23.456	59.2818
23.474	59.3009
23.492	59.319
23.51	59.3363
23.528	59.3498
23.546	59.3592
23.564	59.365
23.582	59.364
23.6	59.3551
23.618	59.3395
23.636	59.3147
23.654	59.2796
23.672	59.2351
23.69	59.1803
23.708	59.1143
23.726	59.0374
23.744	58.9503
23.762	58.8529
23.78	58.7448
23.798	58.6277
23.816	58.5035
23.834	58.3707
23.852	58.2314
23.87	58.0893
23.888	57.9422
23.906	57.7922
23.924	57.6443
23.942	57.4978
23.96	57.3529
23.978	57.2148
23.996	57.0851
24.014	56.962
24.032	56.849
24.05	56.7485
24.068	56.6588
24.086	56.5812
24.104	56.5176
24.122	56.4679
24.14	56.4306
24.158	56.404
24.176	56.389
24.194	56.3847
24.212	56.388
24.23	56.3993
24.248	56.4189
24.266	56.4427
24.284	56.468
24.302	56.4966
24.32	56.528
24.338	56.5611
24.356	56.5953
24.374	56.6324
24.392	56.6748
24.41	56.7197
24.428	56.7693
24.446	56.8306
24.464	56.9039
24.482	56.9856
24.5	57.0887
24.518	57.2234
24.536	57.3812
24.554	57.5698
24.572	57.8007
24.59	58.0725
24.608	58.3836
24.626	58.7393
24.644	59.1444
24.662	59.5966
24.68	60.0897
24.698	60.6185
24.716	61.1904
24.734	61.796
24.752	62.4215
24.77	63.0727
24.788	63.7494
24.806	64.4246
24.824	65.0827
24.842	65.7448
24.86	66.383
24.878	66.963
24.896	67.4995
24.914	67.9878
24.932	68.3934
24.95	68.6992
24.968	68.9266
24.986	69.0524
25.004	69.0513
25.022	68.9297
25.04	68.6908
25.058	68.3267
25.076	67.8297
25.094	67.2026
25.112	66.4588
25.13	65.6099
25.148	64.6375
25.166	63.56
25.184	62.4138
25.202	61.2082
25.22	59.9172
25.238	58.5924
25.256	57.2862
25.274	55.9703
25.292	54.6555
25.31	53.3928
25.328	52.2111
25.346	51.0773
25.364	50.0193
25.382	49.0707
25.4	48.2298
25.418	47.4872
25.436	46.854
25.454	46.3409
25.472	45.9483
25.49	45.6637
25.508	45.474
25.526	45.3829
25.544	45.3953
25.562	45.4849
25.58	45.6276
25.598	45.8432
25.616	46.1198
25.634	46.4262
25.652	46.7443
25.67	47.0966
25.688	47.4632
25.706	47.8193
25.724	48.1625
25.742	48.503
25.76	48.828
25.778	49.1257
25.796	49.4027
25.814	49.6577
25.832	49.8831
25.85	50.0721
25.868	50.2269
25.886	50.3525
25.904	50.4536
25.922	50.5328
25.94	50.5877
25.958	50.6175
25.976	50.6211
25.994	50.5935
26.012	50.539
26.03	50.4673
26.048	50.3854
26.066	50.2752
26.084	50.1546
26.102	50.0523
26.12	49.9829
26.138	49.9161
26.156	49.8849
26.174	49.9302
26.192	50.0589
26.21	50.2407
26.228	50.5205
26.246	50.9455
26.264	51.5123
26.282	52.2008
26.3	53.046
26.318	54.0822
26.336	55.3015
26.354	56.6946
26.372	58.2726
26.39	60.0471
26.408	62.027
26.426	64.1954
26.444	66.5299
26.462	69.0159
26.48	71.6924
26.498	74.521
26.516	77.4428
26.534	80.4199
26.552	83.5168
26.57	86.6795
26.588	89.8309
26.606	92.9286
26.624	96.0483
26.642	99.1261
26.66	102.08
26.678	104.864
26.696	107.548
26.714	110.087
26.732	112.424
26.75	114.529
26.768	116.444
26.786	118.15
26.804	119.627
26.822	120.852
26.84	121.83
26.858	122.592
26.876	123.17
26.894	123.564
26.912	123.731
26.93	123.742
26.948	123.675
26.966	123.555
26.984	123.301
27.002	123
27.02	122.754
27.028	122.695