File: Bakgrunnsmateriale/MATLAB/FTIR/ftir_data/subBb/Mapping_121/C-4040-8_t15_cm-1.asc
PE IR       SPECTRUM    SPECTRUM    ASCII       PEDS        1.60
  -1
C-1AEE~1.ASC
17/03/27
15:40:46.00
17/03/27
15:40:46.00
tln
$C-4040-8_t0015$<tbV0>[5.2,-10.4,8.0,0.0,27,1,0]
370
64

2002,4.07
MIRTGS : RIGHTBACK : INTERNAL 2
MIR : ON : INTERNAL 2
OPTKBR

0.200000
8
8.000000
FILLER
RATIO
SPECTRUM
UNLOCKED 256

DOUBLE
64
COMBINED
1
0
0

1.000000
RATIO

1
0
TRUE
51149
0
LEFT NOT FITTED RIGHT NOT FITTED 0
NONE
NONE
15600
12
4.427000
51148
TRUE
1 0 8 72 0 0 0 0

15798

#HDR
-1
-1
#GR
CM-1
%T
2.38419e-05
0.0
5000
-1.000000
4631
8
79.1623
0.604295
#DATA
5000	63.2925
4996	63.4225
4992	64.0049
4988	64.3304
4984	63.9683
4980	63.4218
4976	63.0781
4972	63.0723
4968	63.3405
4964	63.051
4960	62.6472
4956	62.9506
4952	63.1285
4948	62.6534
4944	61.9268
4940	62.0005
4936	63.0406
4932	63.6221
4928	63.138
4924	62.7441
4920	63.0498
4916	63.4978
4912	63.8063
4908	64.0095
4904	64.1953
4900	64.0953
4896	63.6591
4892	63.4262
4888	63.6007
4884	63.8831
4880	63.8469
4876	63.7219
4872	63.6395
4868	63.455
4864	63.5209
4860	63.6528
4856	63.5294
4852	63.4312
4848	63.5269
4844	63.6349
4840	63.6924
4836	63.7989
4832	63.6822
4828	63.3664
4824	63.2486
4820	63.2278
4816	63.1065
4812	63.0495
4808	63.1354
4804	63.2095
4800	63.3481
4796	63.6005
4792	63.7989
4788	63.8929
4784	63.8077
4780	63.5309
4776	63.2822
4772	63.2651
4768	63.367
4764	63.4224
4760	63.5199
4756	63.5753
4752	63.5378
4748	63.62
4744	63.6444
4740	63.4584
4736	63.2936
4732	63.2292
4728	63.2033
4724	63.1809
4720	63.2021
4716	63.3265
4712	63.6021
4708	63.875
4704	63.9174
4700	63.8649
4696	63.7684
4692	63.5705
4688	63.4077
4684	63.2334
4680	63.0936
4676	63.2693
4672	63.4973
4668	63.399
4664	63.2702
4660	63.3978
4656	63.5252
4652	63.3828
4648	63.2079
4644	63.2168
4640	63.3016
4636	63.342
4632	63.3577
4628	63.4641
4624	63.5572
4620	63.601
4616	63.6036
4612	63.4307
4608	63.2603
4604	63.3051
4600	63.3325
4596	63.2071
4592	63.1505
4588	63.2277
4584	63.2691
4580	63.34
4576	63.3971
4572	63.1074
4568	62.8829
4564	63.0476
4560	63.2052
4556	63.22
4552	63.1836
4548	63.2306
4544	63.1316
4540	62.9042
4536	62.7831
4532	62.559
4528	62.4203
4524	62.5022
4520	62.6807
4516	62.7365
4512	62.5429
4508	62.4964
4504	62.7737
4500	62.8002
4496	62.4583
4492	62.2298
4488	62.3072
4484	62.4992
4480	62.9347
4476	63.1511
4472	62.9254
4468	62.9472
4464	63.1262
4460	63.4811
4456	64.2911
4452	66.5834
4448	69.0513
4444	68.7321
4440	65.6772
4436	61.9578
4432	60.6483
4428	61.1329
4424	61.0958
4420	60.8684
4416	61.0041
4412	61.1996
4408	61.1621
4404	60.6326
4400	60.4132
4396	60.493
4392	65.5431
4388	76.7374
4384	77.3274
4380	68.2496
4376	64.6789
4372	64.0096
4368	63.273
4364	62.8886
4360	62.7501
4356	63.2547
4352	63.1679
4348	62.5719
4344	62.3283
4340	62.3765
4336	62.3726
4332	62.2481
4328	61.9948
4324	62.1243
4320	62.5309
4316	62.5523
4312	62.3956
4308	62.332
4304	62.2313
4300	62.2604
4296	62.4596
4292	62.7329
4288	62.8703
4284	62.6154
4280	62.3084
4276	62.2148
4272	62.2571
4268	62.466
4264	62.7314
4260	62.83
4256	62.7503
4252	62.6609
4248	62.5596
4244	62.325
4240	62.1216
4236	62.2019
4232	62.4235
4228	62.5531
4224	62.6763
4220	62.8639
4216	62.9366
4212	62.8987
4208	62.8821
4204	62.8135
4200	62.6585
4196	62.6318
4192	62.7254
4188	62.7062
4184	62.573
4180	62.2379
4176	61.8495
4172	61.8819
4168	62.3592
4164	62.6589
4160	62.569
4156	62.5471
4152	62.5696
4148	62.444
4144	62.3889
4140	62.537
4136	62.6743
4132	62.695
4128	62.7032
4124	62.6039
4120	62.4323
4116	62.3913
4112	62.3777
4108	62.3689
4104	62.543
4100	62.6814
4096	62.6388
4092	62.7123
4088	62.8228
4084	62.7674
4080	62.6889
4076	62.6432
4072	62.6086
4068	62.6292
4064	62.7671
4060	62.9386
4056	62.9249
4052	62.7095
4048	62.4461
4044	62.4137
4040	62.6487
4036	62.7719
4032	62.7065
4028	62.6931
4024	62.7329
4020	62.7165
4016	62.705
4012	62.752
4008	62.7949
4004	62.6918
4000	62.5255
3996	62.5348
3992	62.5995
3988	62.5607
3984	62.3856
3980	62.0924
3976	61.9489
3972	62.0352
3968	62.2214
3964	62.4242
3960	62.4678
3956	62.3776
3952	62.3365
3948	62.3943
3944	62.4817
3940	62.4478
3936	62.2842
3932	62.1551
3928	62.2207
3924	62.3403
3920	62.2977
3916	62.2385
3912	62.2323
3908	62.2455
3904	62.3198
3900	62.3351
3896	62.2303
3892	62.141
3888	62.0603
3884	61.9663
3880	61.9549
3876	61.9903
3872	62.0182
3868	62.0573
3864	62.0942
3860	62.1225
3856	62.2778
3852	62.4014
3848	62.2445
3844	62.0326
3840	62.0124
3836	62.1318
3832	62.1424
3828	62.0287
3824	61.9557
3820	61.9791
3816	62.0202
3812	62.0796
3808	62.2191
3804	62.2367
3800	62.0578
3796	61.812
3792	61.6709
3788	61.6931
3784	61.6616
3780	61.5718
3776	61.5899
3772	61.715
3768	61.8294
3764	61.9028
3760	61.9884
3756	62.1168
3752	62.3022
3748	62.4219
3744	62.3171
3740	62.1326
3736	62.0346
3732	61.8377
3728	61.6962
3724	61.8082
3720	61.8797
3716	61.8585
3712	61.8429
3708	61.7363
3704	61.6152
3700	61.5829
3696	61.6591
3692	61.853
3688	61.8684
3684	61.6418
3680	61.609
3676	61.8049
3672	61.8412
3668	61.6415
3664	61.4665
3660	61.5212
3656	61.6998
3652	61.7809
3648	61.6953
3644	61.4893
3640	61.2836
3636	61.2382
3632	61.4217
3628	61.4873
3624	61.3039
3620	61.2271
3616	61.1996
3612	61.1224
3608	61.159
3604	61.2609
3600	61.2885
3596	61.2928
3592	61.4144
3588	61.4695
3584	61.2909
3580	61.1835
3576	61.216
3572	61.1763
3568	61.1071
3564	61.0996
3560	61.1134
3556	61.0943
3552	61.0518
3548	61.0437
3544	61.0532
3540	61.0441
3536	60.9903
3532	60.9303
3528	60.9294
3524	60.9095
3520	60.7975
3516	60.6944
3512	60.6533
3508	60.6879
3504	60.7045
3500	60.5649
3496	60.4827
3492	60.6191
3488	60.8119
3484	60.9323
3480	60.8405
3476	60.6271
3472	60.5633
3468	60.5055
3464	60.4095
3460	60.4151
3456	60.453
3452	60.5397
3448	60.576
3444	60.4472
3440	60.3182
3436	60.3173
3432	60.3811
3428	60.3739
3424	60.2637
3420	60.2015
3416	60.262
3412	60.2858
3408	60.2207
3404	60.1378
3400	59.9872
3396	59.8726
3392	59.9334
3388	60.0569
3384	60.1721
3380	60.2582
3376	60.2366
3372	60.1283
3368	60.0921
3364	60.1438
3360	60.1331
3356	60.0459
3352	59.993
3348	59.9708
3344	59.9502
3340	59.9936
3336	60.069
3332	60.0811
3328	60.008
3324	59.904
3320	59.8301
3316	59.8712
3312	59.9821
3308	59.9831
3304	59.8198
3300	59.6234
3296	59.6277
3292	59.749
3288	59.738
3284	59.6442
3280	59.6071
3276	59.6396
3272	59.6053
3268	59.4616
3264	59.3045
3260	59.2224
3256	59.287
3252	59.386
3248	59.3722
3244	59.3206
3240	59.3029
3236	59.2828
3232	59.2649
3228	59.2541
3224	59.2484
3220	59.2182
3216	59.1901
3212	59.2546
3208	59.3412
3204	59.3048
3200	59.1527
3196	59.01
3192	58.9842
3188	59.0839
3184	59.142
3180	59.0739
3176	58.963
3172	58.8656
3168	58.8889
3164	59.0073
3160	59.0523
3156	59.0297
3152	59.0212
3148	58.9705
3144	58.8061
3140	58.6751
3136	58.627
3132	58.5904
3128	58.6614
3124	58.8052
3120	58.8563
3116	58.8269
3112	58.8554
3108	58.8721
3104	58.6928
3100	58.4601
3096	58.4224
3092	58.5397
3088	58.6303
3084	58.6
3080	58.5065
3076	58.4921
3072	58.5447
3068	58.5253
3064	58.4639
3060	58.4133
3056	58.3046
3052	58.2034
3048	58.1894
3044	58.1706
3040	58.1546
3036	58.1658
3032	58.1125
3028	58.1201
3024	58.2591
3020	58.3046
3016	58.1893
3012	58.0724
3008	58.0073
3004	57.9162
3000	57.8676
2996	57.8794
2992	57.8547
2988	57.8617
2984	57.8758
2980	57.8086
2976	57.6913
2972	57.5916
2968	57.5433
2964	57.5028
2960	57.46
2956	57.4122
2952	57.364
2948	57.3456
2944	57.3156
2940	57.2797
2936	57.3049
2932	57.301
2928	57.1981
2924	57.1227
2920	57.1541
2916	57.1725
2912	57.1129
2908	57.0572
2904	57.0789
2900	57.1962
2896	57.2632
2892	57.2055
2888	57.1278
2884	57.0728
2880	57.0127
2876	56.9655
2872	56.9482
2868	56.954
2864	56.985
2860	56.9602
2856	56.8882
2852	56.8389
2848	56.7765
2844	56.7777
2840	56.8142
2836	56.7047
2832	56.5614
2828	56.5548
2824	56.607
2820	56.6193
2816	56.608
2812	56.5762
2808	56.5079
2804	56.4698
2800	56.4485
2796	56.4062
2792	56.4252
2788	56.4623
2784	56.4187
2780	56.3501
2776	56.2775
2772	56.2081
2768	56.1923
2764	56.1772
2760	56.141
2756	56.1452
2752	56.1692
2748	56.1505
2744	56.1213
2740	56.1013
2736	56.0396
2732	55.9638
2728	55.9157
2724	55.836
2720	55.7508
2716	55.7495
2712	55.7612
2708	55.7373
2704	55.7467
2700	55.8116
2696	55.8361
2692	55.7528
2688	55.6577
2684	55.5866
2680	55.5159
2676	55.5091
2672	55.5119
2668	55.477
2664	55.4317
2660	55.283
2656	55.1312
2652	55.1374
2648	55.1634
2644	55.1413
2640	55.1553
2636	55.1721
2632	55.1826
2628	55.1793
2624	55.1147
2620	55.0168
2616	54.9046
2612	54.8054
2608	54.7402
2604	54.7732
2600	54.8359
2596	54.7947
2592	54.7606
2588	54.7166
2584	54.6301
2580	54.6491
2576	54.6918
2572	54.6238
2568	54.5117
2564	54.3879
2560	54.2907
2556	54.3235
2552	54.4083
2548	54.4134
2544	54.3561
2540	54.2814
2536	54.2203
2532	54.1624
2528	54.0861
2524	54.0608
2520	54.1574
2516	54.2813
2512	54.2572
2508	54.0779
2504	53.903
2500	53.8026
2496	53.746
2492	53.7566
2488	53.757
2484	53.6636
2480	53.6137
2476	53.6539
2472	53.6652
2468	53.5975
2464	53.5271
2460	53.4934
2456	53.4556
2452	53.4661
2448	53.4641
2444	53.4151
2440	53.4553
2436	53.4564
2432	53.3481
2428	53.3088
2424	53.2486
2420	53.0622
2416	52.9905
2412	53.1001
2408	53.0861
2404	52.9508
2400	52.9411
2396	52.9689
2392	52.9415
2388	52.9407
2384	52.9435
2380	52.9114
2376	52.8925
2372	52.8949
2368	52.8615
2364	52.8026
2360	52.7133
2356	52.5964
2352	52.527
2348	52.5227
2344	52.5316
2340	52.4948
2336	52.4203
2332	52.3164
2328	52.213
2324	52.1927
2320	52.2061
2316	52.1396
2312	52.0814
2308	52.1366
2304	52.1425
2300	51.9981
2296	51.8693
2292	51.8521
2288	51.8822
2284	51.8802
2280	51.802
2276	51.7321
2272	51.6923
2268	51.6424
2264	51.6551
2260	51.6817
2256	51.6464
2252	51.5586
2248	51.4314
2244	51.3183
2240	51.2546
2236	51.2514
2232	51.2509
2228	51.2186
2224	51.2209
2220	51.2367
2216	51.2046
2212	51.1557
2208	51.1286
2204	51.1015
2200	51.0419
2196	50.9799
2192	50.9475
2188	50.8686
2184	50.7349
2180	50.6485
2176	50.6147
2172	50.5872
2168	50.5519
2164	50.5579
2160	50.6087
2156	50.5838
2152	50.4429
2148	50.33
2144	50.3941
2140	50.4675
2136	50.3721
2132	50.2587
2128	50.21
2124	50.1791
2120	50.1526
2116	50.0643
2112	49.959
2108	49.9653
2104	49.9898
2100	49.9449
2096	49.8661
2092	49.785
2088	49.7766
2084	49.7619
2080	49.6964
2076	49.6299
2072	49.5886
2068	49.6299
2064	49.5912
2060	49.4646
2056	49.4138
2052	49.3501
2048	49.2866
2044	49.29
2040	49.2873
2036	49.258
2032	49.2315
2028	49.1667
2024	49.1024
2020	49.0943
2016	49.067
2012	49.0204
2008	48.9626
2004	48.8538
2000	48.7659
1996	48.7798
1992	48.8229
1988	48.8089
1984	48.7395
1980	48.6228
1976	48.5135
1972	48.4875
1968	48.5156
1964	48.4902
1960	48.3623
1956	48.2068
1952	48.1305
1948	48.1669
1944	48.2191
1940	48.1978
1936	48.1487
1932	48.1176
1928	48.0766
1924	48.0164
1920	47.959
1916	47.9016
1912	47.855
1908	47.8033
1904	47.7319
1900	47.6692
1896	47.6384
1892	47.6372
1888	47.6169
1884	47.5462
1880	47.4289
1876	47.3486
1872	47.3818
1868	47.4158
1864	47.3665
1860	47.2966
1856	47.2398
1852	47.2109
1848	47.1971
1844	47.1199
1840	46.9863
1836	46.94
1832	47.0043
1828	47.0234
1824	46.9434
1820	46.85
1816	46.8072
1812	46.7942
1808	46.7496
1804	46.6844
1800	46.6321
1796	46.595
1792	46.5617
1788	46.5383
1784	46.4954
1780	46.4016
1776	46.3556
1772	46.3676
1768	46.3229
1764	46.2536
1760	46.221
1756	46.1612
1752	46.0647
1748	45.994
1744	45.9689
1740	45.9922
1736	46.0117
1732	45.8907
1728	45.6656
1724	45.5556
1720	45.6447
1716	45.6961
1712	45.5523
1708	45.4844
1704	45.6321
1700	45.7454
1696	45.634
1692	45.4846
1688	45.4551
1684	45.3939
1680	45.2948
1676	45.3139
1672	45.3265
1668	45.1972
1664	45.0707
1660	45.0936
1656	45.2503
1652	45.3274
1648	45.1943
1644	44.9541
1640	44.7931
1636	44.7319
1632	44.6092
1628	44.5091
1624	44.5264
1620	44.5639
1616	44.5292
1612	44.4252
1608	44.3938
1604	44.4234
1600	44.3666
1596	44.2627
1592	44.189
1588	44.1139
1584	44.042
1580	44.0356
1576	44.0133
1572	43.9176
1568	43.8795
1564	43.977
1560	44.0871
1556	43.9859
1552	43.7735
1548	43.7195
1544	43.8317
1540	43.8179
1536	43.5984
1532	43.4698
1528	43.5345
1524	43.6249
1520	43.5938
1516	43.513
1512	43.4931
1508	43.4601
1504	43.2887
1500	43.0717
1496	42.9434
1492	42.8885
1488	42.8797
1484	42.8529
1480	42.8273
1476	42.892
1472	42.9507
1468	42.9138
1464	42.8453
1460	42.7392
1456	42.5859
1452	42.4855
1448	42.4707
1444	42.4113
1440	42.3654
1436	42.4235
1432	42.384
1428	42.2447
1424	42.1907
1420	42.1736
1416	42.0726
1412	41.96
1408	41.9334
1404	41.949
1400	41.9722
1396	42.0065
1392	41.9564
1388	41.7912
1384	41.6651
1380	41.6646
1376	41.6947
1372	41.6547
1368	41.576
1364	41.498
1360	41.3884
1356	41.302
1352	41.2925
1348	41.3183
1344	41.3673
1340	41.3651
1336	41.2739
1332	41.2138
1328	41.1726
1324	41.0976
1320	41.0415
1316	40.9597
1312	40.8384
1308	40.7349
1304	40.6594
1300	40.6289
1296	40.6126
1292	40.5884
1288	40.5573
1284	40.4963
1280	40.4124
1276	40.3131
1272	40.242
1268	40.2154
1264	40.1779
1260	40.1602
1256	40.1445
1252	40.026
1248	39.9274
1244	39.9397
1240	39.9148
1236	39.839
1232	39.8074
1228	39.7667
1224	39.7104
1220	39.7096
1216	39.6891
1212	39.5862
1208	39.4653
1204	39.4137
1200	39.4546
1196	39.4783
1192	39.4516
1188	39.3882
1184	39.2756
1180	39.202
1176	39.157
1172	39.1035
1168	39.0668
1164	38.9954
1160	38.868
1156	38.7594
1152	38.7525
1148	38.8357
1144	38.8026
1140	38.5397
1136	38.3542
1132	38.3934
1128	38.4269
1124	38.4155
1120	38.4325
1116	38.439
1112	38.4343
1108	38.4017
1104	38.2658
1100	38.0511
1096	37.9185
1092	37.955
1088	37.9811
1084	37.9535
1080	37.9825
1076	37.9501
1072	37.8507
1068	37.7881
1064	37.7507
1060	37.7304
1056	37.6893
1052	37.6263
1048	37.6174
1044	37.6075
1040	37.4927
1036	37.3411
1032	37.2705
1028	37.2873
1024	37.2918
1020	37.247
1016	37.1772
1012	37.0632
1008	36.9392
1004	36.8258
1000	36.768
996	 36.7918
992	 36.8472
988	 36.9081
984	 36.828
980	 36.6379
976	 36.4981
972	 36.3245
968	 36.1277
964	 35.9992
960	 36.0329
956	 36.2214
952	 36.2344
948	 36.0214
944	 35.8189
940	 35.7811
936	 35.8463
932	 35.6211
928	 35.3206
924	 35.4815
920	 35.7177
916	 35.5426
912	 34.9985
908	 34.4725
904	 34.3625
900	 34.5972
896	 34.8989
892	 35.0256
888	 35.0311
884	 34.9631
880	 34.7612
876	 34.6743
872	 34.7017
868	 34.6685
864	 34.6831
860	 34.7274
856	 34.6426
852	 34.5359
848	 34.4858
844	 34.3327
840	 34.1706
836	 34.1474
832	 34.1105
828	 33.9438
824	 33.8011
820	 33.7321
816	 33.6055
812	 33.4196
808	 33.2657
804	 33.3298
800	 33.5141
796	 33.562
792	 33.5452
788	 33.4373
784	 33.2396
780	 33.097
776	 33.0403
772	 33.1054
768	 33.0717
764	 32.8628
760	 32.7344
756	 32.7235
752	 32.6919
748	 32.5214
744	 32.2601
740	 31.8931
736	 31.5196
732	 31.4353
728	 31.6617
724	 31.8796
720	 31.8158
716	 31.6026
712	 31.4416
708	 31.4303
704	 31.5458
700	 31.6753
696	 31.6612
692	 31.3328
688	 30.9272
684	 30.7889
680	 30.7991
676	 30.7829
672	 30.7981
668	 30.8522
664	 30.8238
660	 30.6362
656	 30.3641
652	 30.2045
648	 30.2743
644	 30.3574
640	 30.1851
636	 29.8856
632	 29.6797
628	 29.5385
624	 29.3305
620	 29.0692
616	 28.9345
612	 28.95
608	 28.9169
604	 28.8107
600	 28.8276
596	 28.9006
592	 28.8153
588	 28.6654
584	 28.5612
580	 28.4753
576	 28.3223
572	 28.0291
568	 27.7436
564	 27.6559
560	 27.5604
556	 27.2224
552	 26.9845
548	 27.0903
544	 27.0898
540	 26.8606
536	 26.7821
532	 26.7891
528	 26.5393
524	 26.0288
520	 25.6973
516	 25.5781
512	 25.2978
508	 24.8915
504	 24.6453
500	 24.8249
496	 25.2696
492	 25.1027
488	 24.3904
484	 24.227
480	 24.3068
476	 24.2182
472	 24.1788
468	 23.7038
464	 22.9318
460	 22.2179
456	 21.845
452	 22.0232
448	 22.1655
444	 21.7309
440	 20.2056
436	 19.137
432	 20.0845
428	 21.3998
424	 22.5003
420	 22.9568
416	 22.5626
412	 23.3671
408	 24.5395
404	 24.2561
400	 15.9027
396	 4.484367
392	 6.673121
388	 27.1498
384	 59.7351
380	 66.8205
376	 44.1239
372	 15.7323
370	 0.604295