File: Bakgrunnsmateriale/MATLAB/FTIR/ftir_data/subBb/Mapping_121/C-4040-8_t05.asc
PE IR       SPECTRUM    SPECTRUM    ASCII       PEDS        1.60
  -1
C-B52E~1.ASC
17/03/27
14:54:02.00
17/03/27
14:54:28.00
tln
$C-4040-8_t0005$<tbV0>[2.6,-13.0,8.0,0.0,27,1,0]
27.028
64

2002,4.07
MIRTGS : RIGHTBACK : INTERNAL 2
MIR : ON : INTERNAL 2
OPTKBR

0.200000
8
8.000000
FILLER
RATIO
SPECTRUM
UNLOCKED 256

DOUBLE
64
COMBINED
1
0
0

0.002000
RATIO

1
0
TRUE
51149
0
LEFT NOT FITTED RIGHT NOT FITTED 0
NONE
NONE
15600
12
4.427000
51148
TRUE
1 0 8 72 0 0 0 0

15798

#HDR
-1
-1
#GR
µM
%T
2.38419e-05
0.0
2.000000
0.002000
12515
8
70.2186
16.9963
#DATA
2.000000	 63.3142
2.018000	 63.2313
2.036000	 64.3693
2.054000	 63.3766
2.072000	 63.1508
2.090000	 63.7522
2.108000	 63.5796
2.126000	 63.451
2.144000	 63.0623
2.162000	 63.9613
2.180000	 63.9369
2.198000	 63.8296
2.216000	 63.4686
2.234000	 64.2294
2.252000	 67.685
2.270000	 56.5329
2.288000	 65.5937
2.306000	 63.8722
2.324000	 63.4827
2.342000	 63.6991
2.360000	 63.5427
2.378000	 63.599
2.396000	 62.6106
2.414000	 62.8766
2.432000	 63.1419
2.450000	 63.4754
2.468000	 63.3127
2.486000	 63.2689
2.504000	 63.0715
2.522000	 63.2873
2.540000	 63.0437
2.558000	 63.2724
2.576000	 62.7325
2.594000	 63.5224
2.612000	 62.7916
2.630000	 63.1425
2.648000	 62.6038
2.666000	 63.0573
2.684000	 62.8623
2.702000	 62.6204
2.720000	 62.7503
2.738000	 62.7947
2.756000	 62.5607
2.774000	 62.5731
2.792000	 62.395
2.810000	 62.4391
2.828000	 62.2577
2.846000	 62.0182
2.864000	 62.1664
2.882000	 62.051
2.900000	 62.1462
2.918000	 61.6448
2.936000	 61.8317
2.954000	 61.8045
2.972000	 61.6726
2.990000	 61.6905
3.008000	 61.3821
3.026000	 61.4352
3.044000	 61.2845
3.062000	 61.2551
3.080000	 61.3318
3.098000	 61.0023
3.116000	 61.2575
3.134000	 60.9036
3.152000	 60.8379
3.170000	 60.9413
3.188000	 60.7087
3.206000	 60.974
3.224000	 60.5799
3.242000	 60.6915
3.260000	 60.6432
3.278000	 60.653
3.296000	 60.4869
3.314000	 60.5609
3.332000	 60.2877
3.350000	 60.2348
3.368000	 60.0913
3.386000	 59.9007
3.404000	 60.0716
3.422000	 59.8711
3.440000	 59.6805
3.458000	 59.7124
3.476000	 59.6391
3.494000	 59.6386
3.512000	 59.481
3.530000	 59.5685
3.548000	 59.5734
3.566000	 59.3815
3.584000	 59.3081
3.602000	 59.1849
3.620000	 59.1122
3.638000	 59.1037
3.656000	 59.0522
3.674000	 58.9809
3.692000	 58.7534
3.710000	 59.0033
3.728000	 58.7632
3.746000	 58.6177
3.764000	 58.556
3.782000	 58.4725
3.800000	 58.4636
3.818000	 58.3106
3.836000	 58.2597
3.854000	 58.0915
3.872000	 58.1522
3.890000	 58.0726
3.908000	 57.9012
3.926000	 58.011
3.944000	 57.8787
3.962000	 57.7959
3.980000	 57.7906
3.998000	 57.7332
4.016000	 57.5061
4.034000	 57.5083
4.052000	 57.5313
4.070000	 57.357
4.088000	 57.3389
4.106000	 57.2804
4.124000	 56.9297
4.141999	 56.8414
4.160000	 56.8835
4.178000	 57.0608
4.196000	 56.9987
4.214000	 56.9462
4.232000	 56.8517
4.250000	 56.7033
4.268000	 56.6896
4.286000	 56.6639
4.304000	 56.4962
4.322000	 56.4833
4.340000	 56.5316
4.358000	 56.3514
4.375999	 56.1795
4.394000	 56.1426
4.412000	 56.2506
4.430000	 56.0999
4.448000	 55.9992
4.466000	 55.999
4.484000	 55.8962
4.502000	 55.791
4.520000	 55.8624
4.538000	 55.7253
4.556000	 55.6195
4.574000	 55.616
4.592000	 55.6192
4.609999	 55.486
4.628000	 55.4296
4.646000	 55.3756
4.664000	 55.4762
4.682000	 55.4145
4.700000	 55.2417
4.718000	 55.149
4.736000	 55.2079
4.754000	 55.1192
4.772000	 55.0102
4.790000	 55.0592
4.808000	 55.1239
4.826000	 54.8473
4.843999	 54.7181
4.862000	 54.6474
4.880000	 54.6698
4.898000	 54.7983
4.916000	 54.6856
4.934000	 54.4426
4.952000	 54.3099
4.970000	 54.3418
4.988000	 54.3791
5.006000	 54.4327
5.024000	 54.3309
5.042000	 54.1934
5.060000	 54.0984
5.077999	 54.0286
5.096000	 54.0569
5.114000	 54.0222
5.132000	 53.9279
5.150000	 53.8207
5.168000	 53.7442
5.186000	 53.7931
5.204000	 53.7678
5.222000	 53.7617
5.240000	 53.7225
5.258000	 53.6019
5.276000	 53.6609
5.294000	 53.5605
5.312000	 53.4101
5.330000	 53.3981
5.348000	 53.3131
5.366000	 53.3256
5.384000	 53.2976
5.402000	 53.2579
5.420000	 53.2387
5.438000	 53.1297
5.456000	 53.079
5.474000	 53.1163
5.492000	 53.049
5.510000	 53.0088
5.528000	 52.9143
5.546000	 52.8654
5.564000	 52.9057
5.582000	 52.9039
5.600000	 52.7711
5.618000	 52.6621
5.636000	 52.6101
5.654000	 52.5899
5.672000	 52.5913
5.690000	 52.5978
5.708000	 52.5583
5.726000	 52.4827
5.744000	 52.4034
5.762000	 52.4043
5.780000	 52.3361
5.798000	 52.3042
5.816000	 52.3059
5.834000	 52.2199
5.852000	 52.0951
5.870000	 52.198
5.888000	 52.317
5.906000	 52.0902
5.923999	 52.0923
5.942000	 52.1137
5.960000	 51.998
5.978000	 51.9872
5.996000	 51.8558
6.014000	 51.7825
6.032000	 51.9631
6.050000	 52.1114
6.068000	 51.9584
6.086000	 51.7472
6.104000	 51.6399
6.122000	 51.5738
6.140000	 51.4483
6.158000	 51.4152
6.176000	 51.4194
6.194000	 51.4348
6.212000	 51.3921
6.230000	 51.3452
6.248000	 51.2228
6.266000	 51.087
6.284000	 51.0937
6.302000	 51.1758
6.320000	 51.1929
6.338000	 51.2235
6.356000	 51.1241
6.374000	 50.9776
6.392000	 51.047
6.410000	 51.1832
6.428000	 51.1047
6.446000	 50.9651
6.464000	 50.9917
6.482000	 51.1246
6.500000	 51.08
6.518000	 50.9047
6.536000	 50.8183
6.554000	 50.8074
6.572000	 50.8457
6.590000	 50.7986
6.608000	 50.6934
6.626000	 50.7634
6.644000	 50.8044
6.662000	 50.6686
6.680000	 50.5588
6.698000	 50.5056
6.716000	 50.4273
6.734000	 50.3336
6.752000	 50.3097
6.770000	 50.3478
6.788000	 50.33
6.806000	 50.2756
6.824000	 50.2753
6.842000	 50.2877
6.860000	 50.2324
6.878000	 50.0817
6.896000	 49.9682
6.914000	 49.9456
6.932000	 49.8944
6.950000	 49.8944
6.968000	 49.9247
6.986000	 49.7939
7.004000	 49.6701
7.022000	 49.7847
7.040000	 49.9349
7.058000	 49.8836
7.076000	 49.7317
7.094000	 49.633
7.112000	 49.5877
7.130000	 49.5551
7.148000	 49.5333
7.166000	 49.5382
7.184000	 49.5598
7.202000	 49.5632
7.220000	 49.5322
7.238000	 49.4698
7.256000	 49.3761
7.274000	 49.275
7.292000	 49.2138
7.310000	 49.2108
7.328000	 49.2351
7.346000	 49.2255
7.364000	 49.1662
7.382000	 49.1173
7.400000	 49.1032
7.418000	 49.0826
7.436000	 49.0412
7.454000	 48.9956
7.472000	 48.9558
7.490000	 48.9314
7.508000	 48.9203
7.526000	 48.9094
7.544000	 48.9006
7.562000	 48.9195
7.580000	 48.9543
7.598000	 48.9315
7.616000	 48.8261
7.634000	 48.7204
7.652000	 48.6839
7.670000	 48.689
7.688000	 48.6877
7.706000	 48.672
7.724000	 48.6427
7.742000	 48.6011
7.760000	 48.5583
7.778000	 48.5165
7.796000	 48.4734
7.814000	 48.4377
7.832000	 48.4204
7.850000	 48.4209
7.868000	 48.4287
7.886000	 48.4299
7.904000	 48.4101
7.922000	 48.3719
7.940000	 48.3395
7.958000	 48.3238
7.976000	 48.3135
7.994000	 48.3102
8.012000	 48.3228
8.030000	 48.3199
8.048000	 48.2517
8.065999	 48.1413
8.084000	 48.0806
8.102000	 48.1045
8.120000	 48.1489
8.138000	 48.1584
8.155999	 48.1467
8.173999	 48.1329
8.192000	 48.1005
8.210000	 48.0446
8.228000	 47.9924
8.246000	 47.9609
8.263999	 47.9387
8.282000	 47.91
8.300000	 47.8768
8.318000	 47.8506
8.336000	 47.8348
8.353999	 47.8235
8.372000	 47.81
8.390000	 47.7888
8.408000	 47.7517
8.426000	 47.6953
8.443999	 47.6341
8.462000	 47.5887
8.480000	 47.5574
8.498000	 47.5187
8.516000	 47.467
8.533999	 47.4283
8.552000	 47.4301
8.570000	 47.4673
8.588000	 47.5087
8.606000	 47.5271
8.624000	 47.5135
8.641999	 47.4725
8.660000	 47.4215
8.678000	 47.385
8.696000	 47.3743
8.714000	 47.3728
8.731999	 47.3529
8.750000	 47.3071
8.768000	 47.2577
8.786000	 47.2358
8.804000	 47.2532
8.821999	 47.2924
8.840000	 47.3164
8.858000	 47.295
8.876000	 47.2291
8.894000	 47.1453
8.911999	 47.0735
8.930000	 47.0263
8.948000	 46.997
8.966000	 46.9687
8.984000	 46.93
9.001999	 46.8882
9.020000	 46.8671
9.038000	 46.8818
9.056000	 46.9177
9.074000	 46.9447
9.092000	 46.954
9.109999	 46.9639
9.128000	 46.9877
9.146000	 47.009
9.164000	 47.0014
9.182000	 46.9632
9.199999	 46.9186
9.218000	 46.8813
9.236000	 46.8382
9.254000	 46.772
9.272000	 46.6926
9.289999	 46.6334
9.308000	 46.6212
9.326000	 46.6522
9.344000	 46.6971
9.362000	 46.7233
9.379999	 46.7139
9.398000	 46.6705
9.416000	 46.6097
9.434000	 46.5518
9.452000	 46.5116
9.469999	 46.4925
9.488000	 46.4907
9.506000	 46.5015
9.524000	 46.523
9.542000	 46.5544
9.560000	 46.5922
9.577999	 46.6271
9.596000	 46.6446
9.614000	 46.6294
9.632000	 46.5735
9.650000	 46.4852
9.667999	 46.3916
9.686000	 46.3247
9.704000	 46.3029
9.722000	 46.3183
9.740000	 46.343
9.757999	 46.3498
9.776000	 46.3298
9.794000	 46.2951
9.812000	 46.2648
9.830000	 46.2493
9.847999	 46.2443
9.866000	 46.2367
9.884000	 46.2154
9.902000	 46.1805
9.920000	 46.1432
9.937999	 46.1179
9.956000	 46.1105
9.974000	 46.1134
9.992000	 46.1104
10.01	46.0877
10.028	46.0441
10.046	45.991
10.064	45.9431
10.082	45.9092
10.1	45.8898
10.118	45.8811
10.136	45.8794
10.154	45.8802
10.172	45.8757
10.19	45.8553
10.208	45.8111
10.226	45.7454
10.244	45.6717
10.262	45.6096
10.28	45.5727
10.298	45.5634
10.316	45.5724
10.334	45.5865
10.352	45.5966
10.37	45.5982
10.388	45.5892
10.406	45.5678
10.424	45.5333
10.442	45.488
10.46	45.4371
10.478	45.3858
10.496	45.3362
10.514	45.2891
10.532	45.247
10.55	45.2167
10.568	45.2067
10.586	45.22
10.604	45.2507
10.622	45.2852
10.64	45.3119
10.658	45.3272
10.676	45.3351
10.694	45.3389
10.712	45.3359
10.73	45.3175
10.748	45.277
10.766	45.2179
10.784	45.1542
10.802	45.1056
10.82	45.0842
10.838	45.0896
10.856	45.1087
10.874	45.1229
10.892	45.1183
10.91	45.0885
10.928	45.0366
10.946	44.9714
10.964	44.9047
10.982	44.8477
11	44.8078
11.018	44.7859
11.036	44.7758
11.054	44.7654
11.072	44.7431
11.09	44.7041
11.108	44.6537
11.126	44.6051
11.144	44.5717
11.162	44.56
11.18	44.5671
11.198	44.5835
11.216	44.5998
11.234	44.6114
11.252	44.6205
11.27	44.6326
11.288	44.6513
11.306	44.6749
11.324	44.6953
11.342	44.7011
11.36	44.6847
11.378	44.6438
11.396	44.5835
11.414	44.5132
11.432	44.4422
11.45	44.3752
11.468	44.3111
11.486	44.2444
11.504	44.1693
11.522	44.0848
11.54	43.9986
11.558	43.9255
11.576	43.8845
11.594	43.891
11.612	43.9515
11.63	44.0595
11.648	44.1982
11.666	44.3425
11.684	44.4666
11.702	44.5518
11.72	44.5886
11.738	44.5782
11.756	44.5299
11.774	44.4569
11.792	44.3725
11.81	44.2861
11.828	44.2026
11.846	44.1233
11.864	44.0473
11.882	43.9739
11.9	43.9038
11.918	43.8394
11.936	43.784
11.954	43.7403
11.972	43.7111
11.99	43.6985
12.008	43.7054
12.026	43.7349
12.044	43.7891
12.062	43.8669
12.08	43.9616
12.098	44.0608
12.116	44.1503
12.134	44.218
12.152	44.2566
12.17	44.2647
12.188	44.2461
12.206	44.2076
12.224	44.1549
12.242	44.0911
12.26	44.018
12.278	43.9362
12.296	43.8461
12.314	43.7509
12.332	43.6574
12.35	43.5746
12.368	43.5129
12.386	43.481
12.404	43.4833
12.422	43.5177
12.44	43.5755
12.458	43.6421
12.476	43.6993
12.494	43.7286
12.512	43.7162
12.53	43.6566
12.548	43.5541
12.566	43.4216
12.584	43.2792
12.602	43.1498
12.62	43.0535
12.638	43.0047
12.656	43.0106
12.674	43.0697
12.692	43.1724
12.71	43.3032
12.728	43.4429
12.746	43.5715
12.764	43.6725
12.782	43.7347
12.8	43.7553
12.818	43.7392
12.836	43.6967
12.854	43.6416
12.872	43.5879
12.89	43.5465
12.908	43.5238
12.926	43.52
12.944	43.5306
12.962	43.5469
12.98	43.5584
12.998	43.555
13.016	43.5283
13.034	43.4738
13.052	43.3907
13.07	43.2826
13.088	43.1566
13.106	43.0226
13.124	42.8924
13.142	42.7768
13.16	42.6846
13.178	42.6209
13.196	42.5865
13.214	42.5789
13.232	42.5932
13.25	42.6238
13.268	42.6644
13.286	42.7102
13.304	42.7577
13.322	42.8043
13.34	42.8478
13.358	42.886
13.376	42.9165
13.394	42.937
13.412	42.9449
13.43	42.9375
13.448	42.9128
13.466	42.8697
13.484	42.8088
13.502	42.7319
13.52	42.6427
13.538	42.5465
13.556	42.4499
13.574	42.3603
13.592	42.2851
13.61	42.2305
13.628	42.2001
13.646	42.1942
13.664	42.2096
13.682	42.2399
13.7	42.277
13.718	42.3117
13.736	42.3364
13.754	42.3463
13.772	42.3399
13.79	42.3193
13.808	42.289
13.826	42.2547
13.844	42.2218
13.862	42.1948
13.88	42.1757
13.898	42.1644
13.916	42.1589
13.934	42.1562
13.952	42.1534
13.97	42.1478
13.988	42.1382
14.006	42.1239
14.024	42.1054
14.042	42.0833
14.06	42.0577
14.078	42.0287
14.096	41.9959
14.114	41.9591
14.132	41.9185
14.15	41.8754
14.168	41.8318
14.186	41.7908
14.204	41.7561
14.222	41.7315
14.24	41.7196
14.258	41.7216
14.276	41.7368
14.294	41.7625
14.312	41.7946
14.33	41.8279
14.348	41.857
14.366	41.8772
14.384	41.885
14.402	41.8793
14.42	41.8605
14.438	41.8311
14.456	41.7942
14.474	41.7529
14.492	41.7099
14.51	41.6669
14.528	41.6243
14.546	41.5816
14.564	41.5374
14.582	41.4902
14.6	41.4386
14.618	41.3819
14.636	41.3202
14.654	41.2544
14.672	41.1861
14.69	41.1172
14.708	41.05
14.726	40.9867
14.744	40.9301
14.762	40.8821
14.78	40.8443
14.798	40.8178
14.816	40.8032
14.834	40.8005
14.852	40.8081
14.87	40.8243
14.888	40.8469
14.906	40.8732
14.924	40.901
14.942	40.9276
14.96	40.9518
14.978	40.9735
14.996	40.9934
15.014	41.0133
15.032	41.0355
15.05	41.0625
15.068	41.0959
15.086	41.1362
15.104	41.183
15.122	41.234
15.14	41.2858
15.158	41.334
15.176	41.3745
15.194	41.4031
15.212	41.4165
15.23	41.4132
15.248	41.3932
15.266	41.3574
15.284	41.309
15.302	41.2522
15.32	41.1911
15.338	41.1298
15.356	41.072
15.374	41.0212
15.392	40.9784
15.41	40.9438
15.428	40.9168
15.446	40.8946
15.464	40.8745
15.482	40.8538
15.5	40.8294
15.518	40.7986
15.536	40.7606
15.554	40.7152
15.572	40.6629
15.59	40.6067
15.608	40.5497
15.626	40.4953
15.644	40.4478
15.662	40.4108
15.68	40.3865
15.698	40.3761
15.716	40.3799
15.734	40.3959
15.752	40.4211
15.77	40.4523
15.788	40.4841
15.806	40.513
15.824	40.536
15.842	40.55
15.86	40.5538
15.878	40.5477
15.896	40.5324
15.914	40.51
15.932	40.483
15.95	40.4533
15.968	40.4232
15.986	40.3946
16.004	40.3681
16.022	40.3441
16.04	40.3225
16.058	40.3023
16.076	40.2829
16.094	40.2634
16.112	40.2431
16.13	40.2217
16.148	40.1994
16.166	40.1769
16.184	40.1548
16.202	40.134
16.22	40.1157
16.238	40.1002
16.256	40.0879
16.274	40.0787
16.292	40.0721
16.31	40.0676
16.328	40.0637
16.346	40.0592
16.364	40.0531
16.382	40.0437
16.4	40.03
16.418	40.0112
16.436	39.9864
16.454	39.9557
16.472	39.9191
16.49	39.8774
16.508	39.8316
16.526	39.7828
16.544	39.7329
16.562	39.6834
16.58	39.6355
16.598	39.5914
16.616	39.5519
16.634	39.518
16.652	39.4901
16.67	39.468
16.688	39.4516
16.706	39.4394
16.724	39.4304
16.742	39.4235
16.76	39.4168
16.778	39.4095
16.796	39.4002
16.814	39.3881
16.832	39.3728
16.85	39.354
16.868	39.332
16.886	39.3069
16.904	39.2794
16.922	39.2497
16.94	39.2181
16.958	39.1847
16.976	39.1494
16.994	39.1118
17.012	39.0717
17.03	39.0287
17.048	38.9828
17.066	38.9344
17.084	38.8836
17.102	38.832
17.12	38.7802
17.138	38.7301
17.156	38.6831
17.174	38.6406
17.192	38.6044
17.21	38.5747
17.228	38.5527
17.246	38.5376
17.264	38.5295
17.282	38.5266
17.3	38.5278
17.318	38.5311
17.336	38.5346
17.354	38.5371
17.372	38.5363
17.39	38.5317
17.408	38.5224
17.426	38.5088
17.444	38.4909
17.462	38.4706
17.48	38.4486
17.498	38.4273
17.516	38.4083
17.534	38.393
17.552	38.3834
17.57	38.38
17.588	38.3838
17.606	38.3943
17.624	38.4113
17.642	38.4328
17.66	38.4579
17.678	38.4835
17.696	38.5086
17.714	38.5296
17.732	38.5448
17.75	38.5523
17.768	38.5499
17.786	38.5369
17.804	38.5123
17.822	38.4764
17.84	38.4297
17.858	38.3733
17.876	38.3082
17.894	38.2373
17.912	38.1614
17.93	38.0841
17.948	38.0063
17.966	37.9314
17.984	37.8604
18.002	37.7958
18.02	37.7384
18.038	37.6895
18.056	37.6495
18.074	37.6187
18.092	37.5968
18.11	37.5836
18.128	37.5782
18.146	37.5801
18.164	37.588
18.182	37.6009
18.2	37.6176
18.218	37.637
18.236	37.6583
18.254	37.6804
18.272	37.7029
18.29	37.7245
18.308	37.7452
18.326	37.7641
18.344	37.7812
18.362	37.7957
18.38	37.8078
18.398	37.8172
18.416	37.8238
18.434	37.8275
18.452	37.8284
18.47	37.8264
18.488	37.822
18.506	37.8151
18.524	37.8065
18.542	37.7963
18.56	37.7856
18.578	37.7745
18.596	37.7644
18.614	37.7552
18.632	37.7485
18.65	37.7444
18.668	37.7438
18.686	37.7465
18.704	37.7533
18.722	37.7636
18.74	37.777
18.758	37.7927
18.776	37.8095
18.794	37.8264
18.812	37.841
18.83	37.8526
18.848	37.8586
18.866	37.8583
18.884	37.8492
18.902	37.8308
18.92	37.8012
18.938	37.7605
18.956	37.7076
18.974	37.6434
18.992	37.5681
19.01	37.483
19.028	37.3894
19.046	37.2887
19.064	37.1832
19.082	37.0743
19.1	36.9645
19.118	36.8549
19.136	36.7482
19.154	36.6449
19.172	36.5476
19.19	36.4564
19.208	36.373
19.226	36.2974
19.244	36.2304
19.262	36.1716
19.28	36.1209
19.298	36.0783
19.316	36.0432
19.334	36.0155
19.352	35.9944
19.37	35.9799
19.388	35.9707
19.406	35.967
19.424	35.9673
19.442	35.9719
19.46	35.979
19.478	35.9885
19.496	35.999
19.514	36.0103
19.532	36.0209
19.55	36.03
19.568	36.0369
19.586	36.041
19.604	36.0419
19.622	36.0385
19.64	36.0313
19.658	36.0204
19.676	36.0059
19.694	35.9892
19.712	35.9701
19.73	35.9513
19.748	35.9327
19.766	35.9171
19.784	35.905
19.802	35.8982
19.82	35.8983
19.838	35.9056
19.856	35.922
19.874	35.9469
19.892	35.9807
19.91	36.0234
19.928	36.0731
19.946	36.1303
19.964	36.191
19.982	36.2556
20	36.3201
20.018	36.3827
20.036	36.4415
20.054	36.4921
20.072	36.5348
20.09	36.5645
20.108	36.582
20.126	36.5837
20.144	36.5695
20.162	36.5387
20.18	36.4903
20.198	36.4253
20.216	36.3438
20.234	36.2465
20.252	36.1361
20.27	36.0121
20.288	35.8789
20.306	35.7361
20.324	35.5877
20.342	35.4361
20.36	35.2822
20.378	35.131
20.396	34.9817
20.414	34.8399
20.432	34.705
20.45	34.5809
20.468	34.4689
20.486	34.37
20.504	34.2874
20.522	34.2201
20.54	34.1703
20.558	34.1379
20.576	34.1227
20.594	34.1253
20.612	34.1447
20.63	34.1797
20.648	34.2305
20.666	34.294
20.684	34.3708
20.702	34.4577
20.72	34.5528
20.738	34.6556
20.756	34.7617
20.774	34.872
20.792	34.9819
20.81	35.0907
20.828	35.1968
20.846	35.2965
20.864	35.3909
20.882	35.4758
20.9	35.5517
20.918	35.6169
20.936	35.6697
20.954	35.7107
20.972	35.7383
20.99	35.7528
21.008	35.7542
21.026	35.7423
21.044	35.7177
21.062	35.6815
21.08	35.6332
21.098	35.5754
21.116	35.508
21.134	35.4323
21.152	35.351
21.17	35.2631
21.188	35.1723
21.206	35.0789
21.224	34.984
21.242	34.8905
21.26	34.7974
21.278	34.7075
21.296	34.6211
21.314	34.5384
21.332	34.4609
21.35	34.3882
21.368	34.3201
21.386	34.2569
21.404	34.198
21.422	34.1423
21.44	34.0905
21.458	34.0405
21.476	33.9915
21.494	33.9436
21.512	33.895
21.53	33.8461
21.548	33.7964
21.566	33.7454
21.584	33.6933
21.602	33.6417
21.62	33.5898
21.638	33.5393
21.656	33.4923
21.674	33.4477
21.692	33.4094
21.71	33.378
21.728	33.3539
21.746	33.3403
21.764	33.3364
21.782	33.3436
21.8	33.3634
21.818	33.3951
21.836	33.4384
21.854	33.4941
21.872	33.5608
21.89	33.6363
21.908	33.7221
21.926	33.8139
21.944	33.9095
21.962	34.0098
21.98	34.1089
21.998	34.207
22.016	34.3027
22.034	34.3913
22.052	34.4744
22.07	34.5495
22.088	34.6141
22.106	34.6694
22.124	34.7143
22.142	34.7482
22.16	34.7716
22.178	34.7853
22.196	34.7888
22.214	34.7834
22.232	34.7708
22.25	34.7503
22.268	34.724
22.286	34.6932
22.304	34.6573
22.322	34.6186
22.34	34.5775
22.358	34.5339
22.376	34.4888
22.394	34.4423
22.412	34.3941
22.43	34.344
22.448	34.2921
22.466	34.2381
22.484	34.1819
22.502	34.1236
22.52	34.0633
22.538	34.0009
22.556	33.9365
22.574	33.8712
22.592	33.8049
22.61	33.7379
22.628	33.672
22.646	33.6066
22.664	33.5428
22.682	33.4827
22.7	33.4256
22.718	33.3725
22.736	33.3252
22.754	33.2832
22.772	33.2465
22.79	33.2154
22.808	33.19
22.826	33.169
22.844	33.1521
22.862	33.1398
22.88	33.1292
22.898	33.1193
22.916	33.1109
22.934	33.1011
22.952	33.0894
22.97	33.0761
22.988	33.0585
23.006	33.0355
23.024	33.0079
23.042	32.9754
23.06	32.937
23.078	32.8938
23.096	32.848
23.114	32.7983
23.132	32.7465
23.15	32.6975
23.168	32.6502
23.186	32.6059
23.204	32.5704
23.222	32.5425
23.24	32.5235
23.258	32.5192
23.276	32.5288
23.294	32.5528
23.312	32.5959
23.33	32.6583
23.348	32.739
23.366	32.8393
23.384	32.9603
23.402	33.1003
23.42	33.2562
23.438	33.4298
23.456	33.6192
23.474	33.8173
23.492	34.0248
23.51	34.2413
23.528	34.4571
23.546	34.6714
23.564	34.8856
23.582	35.0892
23.6	35.2789
23.618	35.4582
23.636	35.6186
23.654	35.7558
23.672	35.8737
23.69	35.9664
23.708	36.0299
23.726	36.0669
23.744	36.0755
23.762	36.0532
23.78	36.0006
23.798	35.9193
23.816	35.8104
23.834	35.672
23.852	35.5078
23.87	35.3228
23.888	35.1148
23.906	34.886
23.924	34.6427
23.942	34.3842
23.96	34.1105
23.978	33.8273
23.996	33.5358
24.014	33.2342
24.032	32.9282
24.05	32.621
24.068	32.3097
24.086	31.9983
24.104	31.691
24.122	31.3855
24.14	31.0833
24.158	30.7871
24.176	30.4966
24.194	30.2113
24.212	29.9324
24.23	29.6597
24.248	29.393
24.266	29.1335
24.284	28.8818
24.302	28.6374
24.32	28.4006
24.338	28.1718
24.356	27.9507
24.374	27.7375
24.392	27.5325
24.41	27.3361
24.428	27.1478
24.446	26.9669
24.464	26.7934
24.482	26.6277
24.5	26.4678
24.518	26.3119
24.536	26.1622
24.554	26.0158
24.572	25.8694
24.59	25.7244
24.608	25.5801
24.626	25.4322
24.644	25.279
24.662	25.123
24.68	24.9602
24.698	24.7873
24.716	24.6073
24.734	24.4174
24.752	24.2134
24.77	23.9944
24.788	23.7621
24.806	23.515
24.824	23.2518
24.842	22.9726
24.86	22.6791
24.878	22.3727
24.896	22.0508
24.914	21.7157
24.932	21.3734
24.95	21.0261
24.968	20.6693
24.986	20.3113
25.004	19.9604
25.022	19.6106
25.04	19.2659
25.058	18.9369
25.076	18.628
25.094	18.3328
25.112	18.0593
25.13	17.816
25.148	17.598
25.166	17.4072
25.184	17.2513
25.202	17.1339
25.22	17.0507
25.238	17.0046
25.256	16.9992
25.274	17.0331
25.292	17.1061
25.31	17.2199
25.328	17.3758
25.346	17.5727
25.364	17.8099
25.382	18.087
25.4	18.4044
25.418	18.7614
25.436	19.1567
25.454	19.5893
25.472	20.0604
25.49	20.5683
25.508	21.1107
25.526	21.6873
25.544	22.2988
25.562	22.9434
25.58	23.6193
25.598	24.3278
25.616	25.0678
25.634	25.8369
25.652	26.6335
25.67	27.4592
25.688	28.3123
25.706	29.1909
25.724	30.0959
25.742	31.0275
25.76	31.9817
25.778	32.9551
25.796	33.9525
25.814	34.97
25.832	35.9997
25.85	37.0378
25.868	38.0926
25.886	39.1537
25.904	40.2077
25.922	41.2546
25.94	42.3017
25.958	43.3334
25.976	44.3342
25.994	45.3134
26.012	46.2699
26.03	47.1853
26.048	48.0439
26.066	48.8599
26.084	49.6266
26.102	50.3284
26.12	50.9561
26.138	51.5226
26.156	52.0185
26.174	52.4308
26.192	52.7542
26.21	52.9967
26.228	53.1553
26.246	53.2263
26.264	53.2082
26.282	53.1035
26.3	52.9146
26.318	52.6434
26.336	52.2879
26.354	51.8494
26.372	51.3329
26.39	50.7429
26.408	50.072
26.426	49.326
26.444	48.5164
26.462	47.6525
26.48	46.7219
26.498	45.7335
26.516	44.7028
26.534	43.639
26.552	42.5241
26.57	41.3747
26.588	40.2137
26.606	39.053
26.624	37.8677
26.642	36.6816
26.66	35.5244
26.678	34.41
26.696	33.3097
26.714	32.2496
26.732	31.2607
26.75	30.3552
26.768	29.504
26.786	28.7346
26.804	28.0785
26.822	27.5513
26.84	27.1282
26.858	26.8226
26.876	26.6506
26.894	26.6232
26.912	26.7313
26.93	26.9697
26.948	27.3343
26.966	27.8771
26.984	28.6811
27.002	29.5398
27.02	30.2286
27.028	30.4032