File: Bakgrunnsmateriale/MATLAB/FTIR/ftir_data/subBb/Mapping_121/C-4040-8_t44.asc
PE IR       SPECTRUM    SPECTRUM    ASCII       PEDS        1.60
  -1
C-B53A~1.ASC
17/03/27
18:02:21.00
17/03/27
18:02:47.00
tln
$C-4040-8_t0044$<tbV0>[-13.0,-5.2,8.0,0.0,27,1,0]
27.028
64

2002,4.07
MIRTGS : RIGHTBACK : INTERNAL 2
MIR : ON : INTERNAL 2
OPTKBR

0.200000
8
8.000000
FILLER
RATIO
SPECTRUM
UNLOCKED 256

DOUBLE
64
COMBINED
1
0
0

0.002000
RATIO

1
0
TRUE
51149
0
LEFT NOT FITTED RIGHT NOT FITTED 0
NONE
NONE
15600
12
4.427000
51148
TRUE
1 0 8 72 0 0 0 0

15798

#HDR
-1
-1
#GR
µM
%T
2.38419e-05
0.0
2.000000
0.002000
12515
8
77.6732
26.0158
#DATA
2.000000	 64.718
2.018000	 65.028
2.036000	 64.9123
2.054000	 65.4703
2.072000	 65.2415
2.090000	 64.8311
2.108000	 65.1851
2.126000	 65.0922
2.144000	 64.8027
2.162000	 64.8127
2.180000	 65.1811
2.198000	 65.2137
2.216000	 64.6353
2.234000	 65.0907
2.252000	 65.4981
2.270000	 65.2771
2.288000	 67.1589
2.306000	 64.7082
2.324000	 65.0348
2.342000	 65.2269
2.360000	 64.7205
2.378000	 65.0792
2.396000	 64.0244
2.414000	 65.5173
2.432000	 64.7646
2.450000	 65.1027
2.468000	 64.894
2.486000	 65.1686
2.504000	 64.9516
2.522000	 65.184
2.540000	 64.8966
2.558000	 64.9209
2.576000	 65.2751
2.594000	 65.0653
2.612000	 65.0394
2.630000	 65.2131
2.648000	 65.0888
2.666000	 65.2186
2.684000	 65.3029
2.702000	 65.1258
2.720000	 65.0711
2.738000	 65.1684
2.756000	 65.2291
2.774000	 64.9802
2.792000	 65.062
2.810000	 65.1457
2.828000	 65.1169
2.846000	 65.4087
2.864000	 65.2187
2.882000	 65.177
2.900000	 65.2532
2.918000	 65.2437
2.936000	 65.0878
2.954000	 65.2453
2.972000	 65.3022
2.990000	 65.2133
3.008000	 65.1607
3.026000	 65.2262
3.044000	 65.1318
3.062000	 65.1755
3.080000	 65.4213
3.098000	 65.2415
3.116000	 64.9303
3.134000	 65.2426
3.152000	 65.1406
3.170000	 65.0806
3.188000	 65.1341
3.206000	 65.2782
3.224000	 65.026
3.242000	 65.3263
3.260000	 65.2464
3.278000	 65.072
3.296000	 65.2885
3.314000	 65.1336
3.332000	 65.0884
3.350000	 65.2471
3.368000	 65.228
3.386000	 65.1465
3.404000	 65.1179
3.422000	 64.9295
3.440000	 65.0997
3.458000	 65.4141
3.476000	 65.0537
3.494000	 65.2193
3.512000	 65.2225
3.530000	 65.2544
3.548000	 65.2261
3.566000	 65.2506
3.584000	 65.1947
3.602000	 65.4422
3.620000	 65.287
3.638000	 65.3023
3.656000	 65.2716
3.674000	 65.1867
3.692000	 65.3683
3.710000	 65.3031
3.728000	 65.1662
3.746000	 65.2581
3.764000	 65.3246
3.782000	 65.2501
3.800000	 65.328
3.818000	 65.2009
3.836000	 65.2064
3.854000	 65.2473
3.872000	 65.3358
3.890000	 65.1732
3.908000	 65.2444
3.926000	 65.3431
3.944000	 65.3779
3.962000	 65.43
3.980000	 65.1806
3.998000	 65.2612
4.016000	 65.1419
4.034000	 65.2956
4.052000	 65.2413
4.070000	 65.3492
4.088000	 65.2931
4.106000	 64.9051
4.124000	 65.2864
4.141999	 65.5174
4.160000	 65.141
4.178000	 65.3694
4.196000	 65.17
4.214000	 65.2866
4.232000	 65.4465
4.250000	 65.1893
4.268000	 65.1446
4.286000	 65.1509
4.304000	 65.3786
4.322000	 65.3563
4.340000	 65.3424
4.358000	 65.1978
4.375999	 65.2333
4.394000	 65.2202
4.412000	 65.2877
4.430000	 65.1872
4.448000	 65.3985
4.466000	 65.2847
4.484000	 65.3889
4.502000	 65.2193
4.520000	 65.2967
4.538000	 65.4145
4.556000	 65.3487
4.574000	 65.4518
4.592000	 65.4001
4.609999	 65.4443
4.628000	 65.3106
4.646000	 64.8606
4.664000	 65.0695
4.682000	 65.3675
4.700000	 65.3231
4.718000	 65.3241
4.736000	 65.3168
4.754000	 65.3288
4.772000	 65.3098
4.790000	 65.4555
4.808000	 65.5083
4.826000	 65.5393
4.843999	 64.8723
4.862000	 65.3023
4.880000	 65.5618
4.898000	 65.2823
4.916000	 65.3241
4.934000	 65.3852
4.952000	 65.2892
4.970000	 65.381
4.988000	 65.3888
5.006000	 65.4213
5.024000	 65.4368
5.042000	 65.3468
5.060000	 65.2624
5.077999	 65.2068
5.096000	 65.2714
5.114000	 65.4415
5.132000	 65.3397
5.150000	 65.2958
5.168000	 65.3478
5.186000	 65.4288
5.204000	 65.3319
5.222000	 65.2656
5.240000	 65.2993
5.258000	 65.3103
5.276000	 65.309
5.294000	 65.3236
5.312000	 65.315
5.330000	 65.2938
5.348000	 65.3597
5.366000	 65.4148
5.384000	 65.3988
5.402000	 65.244
5.420000	 65.1855
5.438000	 65.2544
5.456000	 65.457
5.474000	 65.4621
5.492000	 65.4131
5.510000	 65.3169
5.528000	 65.3218
5.546000	 65.3428
5.564000	 65.3583
5.582000	 65.2544
5.600000	 65.1487
5.618000	 65.1929
5.636000	 65.2653
5.654000	 65.2622
5.672000	 65.2724
5.690000	 65.3584
5.708000	 65.3407
5.726000	 65.2078
5.744000	 65.1711
5.762000	 65.2453
5.780000	 65.2177
5.798000	 65.0713
5.816000	 65.0633
5.834000	 65.2695
5.852000	 65.351
5.870000	 65.3186
5.888000	 65.3115
5.906000	 65.2636
5.923999	 65.3226
5.942000	 65.289
5.960000	 65.2821
5.978000	 65.2824
5.996000	 65.1876
6.014000	 65.1681
6.032000	 65.2355
6.050000	 65.2313
6.068000	 65.2254
6.086000	 65.2255
6.104000	 65.2778
6.122000	 65.3232
6.140000	 65.2687
6.158000	 65.3162
6.176000	 65.36
6.194000	 65.3601
6.212000	 65.3905
6.230000	 65.2848
6.248000	 65.2015
6.266000	 65.2604
6.284000	 65.327
6.302000	 65.3157
6.320000	 65.2707
6.338000	 65.1173
6.356000	 65.071
6.374000	 65.1366
6.392000	 65.1033
6.410000	 65.0553
6.428000	 65.0322
6.446000	 65.0692
6.464000	 65.1431
6.482000	 65.1412
6.500000	 65.0513
6.518000	 65.0224
6.536000	 65.067
6.554000	 65.1563
6.572000	 65.2014
6.590000	 65.1222
6.608000	 65.1181
6.626000	 65.2361
6.644000	 65.3053
6.662000	 65.3463
6.680000	 65.3926
6.698000	 65.3095
6.716000	 65.1986
6.734000	 65.2349
6.752000	 65.2645
6.770000	 65.196
6.788000	 65.117
6.806000	 65.0568
6.824000	 65.0316
6.842000	 65.1214
6.860000	 65.2889
6.878000	 65.3529
6.896000	 65.3322
6.914000	 65.3306
6.932000	 65.2531
6.950000	 65.1499
6.968000	 65.1964
6.986000	 65.2898
7.004000	 65.2387
7.022000	 65.1538
7.040000	 65.197
7.058000	 65.2601
7.076000	 65.2275
7.094000	 65.149
7.112000	 65.0776
7.130000	 65.0459
7.148000	 65.0649
7.166000	 65.0859
7.184000	 65.0876
7.202000	 65.0801
7.220000	 65.0399
7.238000	 64.9784
7.256000	 64.958
7.274000	 64.9712
7.292000	 64.9641
7.310000	 64.9281
7.328000	 64.9014
7.346000	 64.9372
7.364000	 65.0253
7.382000	 65.088
7.400000	 65.0915
7.418000	 65.0572
7.436000	 65.0375
7.454000	 65.1068
7.472000	 65.2495
7.490000	 65.337
7.508000	 65.3055
7.526000	 65.227
7.544000	 65.1899
7.562000	 65.197
7.580000	 65.1787
7.598000	 65.1053
7.616000	 65.056
7.634000	 65.0991
7.652000	 65.175
7.670000	 65.1959
7.688000	 65.1625
7.706000	 65.1242
7.724000	 65.1144
7.742000	 65.1221
7.760000	 65.1054
7.778000	 65.0514
7.796000	 64.9995
7.814000	 64.9961
7.832000	 65.0392
7.850000	 65.0879
7.868000	 65.112
7.886000	 65.1176
7.904000	 65.1222
7.922000	 65.121
7.940000	 65.092
7.958000	 65.0355
7.976000	 64.9945
7.994000	 65.0087
8.012000	 65.0618
8.030000	 65.1022
8.048000	 65.1032
8.065999	 65.0765
8.084000	 65.0511
8.102000	 65.0543
8.120000	 65.0869
8.138000	 65.115
8.155999	 65.1127
8.173999	 65.0948
8.192000	 65.0839
8.210000	 65.0724
8.228000	 65.0503
8.246000	 65.0379
8.263999	 65.0521
8.282000	 65.0671
8.300000	 65.0489
8.318000	 65.0084
8.336000	 64.9829
8.353999	 64.9779
8.372000	 64.9633
8.390000	 64.9226
8.408000	 64.878
8.426000	 64.8596
8.443999	 64.8706
8.462000	 64.8969
8.480000	 64.9349
8.498000	 64.9872
8.516000	 65.0421
8.533999	 65.0761
8.552000	 65.0782
8.570000	 65.0614
8.588000	 65.0429
8.606000	 65.0194
8.624000	 64.9765
8.641999	 64.9172
8.660000	 64.8663
8.678000	 64.8461
8.696000	 64.8618
8.714000	 64.903
8.731999	 64.9456
8.750000	 64.9572
8.768000	 64.9216
8.786000	 64.8616
8.804000	 64.8248
8.821999	 64.8362
8.840000	 64.8758
8.858000	 64.9072
8.876000	 64.914
8.894000	 64.892
8.911999	 64.8287
8.930000	 64.7269
8.948000	 64.6428
8.966000	 64.6695
8.984000	 64.857
9.001999	 65.1489
9.020000	 65.4101
9.038000	 65.523
9.056000	 65.4763
9.074000	 65.3605
9.092000	 65.2832
9.109999	 65.2867
9.128000	 65.332
9.146000	 65.3531
9.164000	 65.3119
9.182000	 65.2094
9.199999	 65.0662
9.218000	 64.9101
9.236000	 64.7744
9.254000	 64.6915
9.272000	 64.6794
9.289999	 64.7296
9.308000	 64.8111
9.326000	 64.883
9.344000	 64.9074
9.362000	 64.8659
9.379999	 64.7694
9.398000	 64.659
9.416000	 64.585
9.434000	 64.5809
9.452000	 64.6495
9.469999	 64.7682
9.488000	 64.9057
9.506000	 65.0369
9.524000	 65.1491
9.542000	 65.2359
9.560000	 65.2918
9.577999	 65.3116
9.596000	 65.2967
9.614000	 65.2612
9.632000	 65.2282
9.650000	 65.2147
9.667999	 65.2167
9.686000	 65.2079
9.704000	 65.1612
9.722000	 65.079
9.740000	 65.0007
9.757999	 64.9794
9.776000	 65.0405
9.794000	 65.1612
9.812000	 65.2845
9.830000	 65.3572
9.847999	 65.3595
9.866000	 65.3061
9.884000	 65.2265
9.902000	 65.1473
9.920000	 65.0848
9.937999	 65.0424
9.956000	 65.0118
9.974000	 64.9789
9.992000	 64.9333
10.01	64.8754
10.028	64.8169
10.046	64.7738
10.064	64.7628
10.082	64.7961
10.1	64.878
10.118	64.9965
10.136	65.1174
10.154	65.1946
10.172	65.192
10.19	65.111
10.208	64.9949
10.226	64.8997
10.244	64.8635
10.262	64.8837
10.28	64.9267
10.298	64.9537
10.316	64.9407
10.334	64.8887
10.352	64.814
10.37	64.7374
10.388	64.6763
10.406	64.6441
10.424	64.65
10.442	64.6954
10.46	64.774
10.478	64.8723
10.496	64.9739
10.514	65.0641
10.532	65.1314
10.55	65.1658
10.568	65.1592
10.586	65.106
10.604	65.0076
10.622	64.8772
10.64	64.7415
10.658	64.6318
10.676	64.5735
10.694	64.5736
10.712	64.6183
10.73	64.6799
10.748	64.7293
10.766	64.7507
10.784	64.7461
10.802	64.7337
10.82	64.7354
10.838	64.7664
10.856	64.8276
10.874	64.9044
10.892	64.9739
10.91	65.0128
10.928	65.0092
10.946	64.9661
10.964	64.9019
10.982	64.8428
11	64.8091
11.018	64.8082
11.036	64.8313
11.054	64.8592
11.072	64.8748
11.09	64.8705
11.108	64.8516
11.126	64.8317
11.144	64.8226
11.162	64.8284
11.18	64.8435
11.198	64.857
11.216	64.8598
11.234	64.8485
11.252	64.8255
11.27	64.7961
11.288	64.7656
11.306	64.7364
11.324	64.7085
11.342	64.6822
11.36	64.6595
11.378	64.6443
11.396	64.6411
11.414	64.653
11.432	64.679
11.45	64.714
11.468	64.7493
11.486	64.7761
11.504	64.7883
11.522	64.7843
11.54	64.7689
11.558	64.7519
11.576	64.7444
11.594	64.7538
11.612	64.7819
11.63	64.8225
11.648	64.8648
11.666	64.8958
11.684	64.907
11.702	64.8975
11.72	64.8739
11.738	64.8468
11.756	64.8254
11.774	64.8143
11.792	64.8108
11.81	64.8069
11.828	64.7932
11.846	64.763
11.864	64.7156
11.882	64.6573
11.9	64.5996
11.918	64.5559
11.936	64.5363
11.954	64.5444
11.972	64.5764
11.99	64.6212
12.008	64.6636
12.026	64.6891
12.044	64.6874
12.062	64.6572
12.08	64.6063
12.098	64.5483
12.116	64.4981
12.134	64.4661
12.152	64.4546
12.17	64.4588
12.188	64.4689
12.206	64.4749
12.224	64.4693
12.242	64.4495
12.26	64.4172
12.278	64.3783
12.296	64.3412
12.314	64.315
12.332	64.3067
12.35	64.3201
12.368	64.3548
12.386	64.4055
12.404	64.4634
12.422	64.5185
12.44	64.5615
12.458	64.5865
12.476	64.592
12.494	64.5811
12.512	64.5607
12.53	64.5385
12.548	64.5213
12.566	64.513
12.584	64.514
12.602	64.5214
12.62	64.5299
12.638	64.5338
12.656	64.5292
12.674	64.5133
12.692	64.4861
12.71	64.4504
12.728	64.4106
12.746	64.3717
12.764	64.338
12.782	64.3118
12.8	64.2933
12.818	64.2808
12.836	64.2703
12.854	64.2572
12.872	64.2382
12.89	64.2124
12.908	64.1817
12.926	64.1508
12.944	64.1256
12.962	64.1122
12.98	64.1144
12.998	64.1322
13.016	64.1607
13.034	64.1902
13.052	64.2085
13.07	64.2032
13.088	64.1638
13.106	64.084
13.124	63.9632
13.142	63.8078
13.16	63.6289
13.178	63.4427
13.196	63.2669
13.214	63.1198
13.232	63.0171
13.25	62.9708
13.268	62.9864
13.286	63.062
13.304	63.1881
13.322	63.3483
13.34	63.5209
13.358	63.683
13.376	63.8135
13.394	63.8973
13.412	63.9275
13.43	63.9072
13.448	63.8489
13.466	63.7716
13.484	63.6972
13.502	63.6454
13.52	63.6307
13.538	63.6596
13.556	63.7299
13.574	63.8321
13.592	63.9517
13.61	64.0732
13.628	64.1821
13.646	64.2673
13.664	64.323
13.682	64.3478
13.7	64.3448
13.718	64.3193
13.736	64.278
13.754	64.228
13.772	64.1745
13.79	64.1212
13.808	64.0692
13.826	64.0191
13.844	63.9698
13.862	63.9206
13.88	63.8707
13.898	63.8201
13.916	63.7698
13.934	63.7219
13.952	63.6793
13.97	63.6451
13.988	63.6216
14.006	63.6105
14.024	63.6129
14.042	63.6281
14.06	63.6545
14.078	63.6896
14.096	63.7301
14.114	63.773
14.132	63.8149
14.15	63.8525
14.168	63.8828
14.186	63.9028
14.204	63.9097
14.222	63.9012
14.24	63.8762
14.258	63.8352
14.276	63.7801
14.294	63.7146
14.312	63.6438
14.33	63.5739
14.348	63.5112
14.366	63.4618
14.384	63.4299
14.402	63.4176
14.42	63.4241
14.438	63.4468
14.456	63.4811
14.474	63.5214
14.492	63.562
14.51	63.5976
14.528	63.6248
14.546	63.6421
14.564	63.6494
14.582	63.648
14.6	63.6397
14.618	63.6267
14.636	63.6107
14.654	63.5923
14.672	63.5718
14.69	63.5487
14.708	63.5228
14.726	63.4941
14.744	63.4633
14.762	63.4326
14.78	63.4044
14.798	63.3811
14.816	63.3654
14.834	63.359
14.852	63.362
14.87	63.3727
14.888	63.3884
14.906	63.4052
14.924	63.419
14.942	63.4253
14.96	63.4214
14.978	63.4062
14.996	63.3802
15.014	63.3454
15.032	63.306
15.05	63.267
15.068	63.2328
15.086	63.2074
15.104	63.1935
15.122	63.1924
15.14	63.2029
15.158	63.2224
15.176	63.2474
15.194	63.2735
15.212	63.2959
15.23	63.3114
15.248	63.3179
15.266	63.3142
15.284	63.3011
15.302	63.2812
15.32	63.2571
15.338	63.2319
15.356	63.209
15.374	63.1911
15.392	63.1794
15.41	63.1746
15.428	63.1764
15.446	63.1829
15.464	63.1923
15.482	63.2023
15.5	63.2108
15.518	63.2158
15.536	63.2163
15.554	63.212
15.572	63.203
15.59	63.1903
15.608	63.1749
15.626	63.1581
15.644	63.1411
15.662	63.1252
15.68	63.1107
15.698	63.0981
15.716	63.0873
15.734	63.0782
15.752	63.0704
15.77	63.0637
15.788	63.0578
15.806	63.0529
15.824	63.0493
15.842	63.0478
15.86	63.0494
15.878	63.0554
15.896	63.0668
15.914	63.0851
15.932	63.1109
15.95	63.1444
15.968	63.1853
15.986	63.232
16.004	63.2822
16.022	63.3334
16.04	63.3813
16.058	63.4224
16.076	63.4534
16.094	63.4702
16.112	63.4704
16.13	63.453
16.148	63.4173
16.166	63.3654
16.184	63.2997
16.202	63.2234
16.22	63.1424
16.238	63.0609
16.256	62.9833
16.274	62.9149
16.292	62.8583
16.31	62.8158
16.328	62.7886
16.346	62.7758
16.364	62.7767
16.382	62.7886
16.4	62.8091
16.418	62.8363
16.436	62.8674
16.454	62.9007
16.472	62.935
16.49	62.9693
16.508	63.0032
16.526	63.0363
16.544	63.0684
16.562	63.0991
16.58	63.1281
16.598	63.1543
16.616	63.1771
16.634	63.1958
16.652	63.2094
16.67	63.2176
16.688	63.2201
16.706	63.2178
16.724	63.2115
16.742	63.2022
16.76	63.1926
16.778	63.1837
16.796	63.1776
16.814	63.176
16.832	63.1796
16.85	63.1891
16.868	63.2037
16.886	63.223
16.904	63.2444
16.922	63.2665
16.94	63.2871
16.958	63.3033
16.976	63.3138
16.994	63.3164
17.012	63.3107
17.03	63.2959
17.048	63.2726
17.066	63.2414
17.084	63.2034
17.102	63.1609
17.12	63.1148
17.138	63.0678
17.156	63.021
17.174	62.9757
17.192	62.9334
17.21	62.8945
17.228	62.86
17.246	62.8299
17.264	62.8045
17.282	62.7833
17.3	62.7663
17.318	62.7531
17.336	62.7432
17.354	62.7363
17.372	62.7316
17.39	62.729
17.408	62.7277
17.426	62.7269
17.444	62.7262
17.462	62.7242
17.48	62.7206
17.498	62.7141
17.516	62.7044
17.534	62.691
17.552	62.6737
17.57	62.6522
17.588	62.6271
17.606	62.5988
17.624	62.5682
17.642	62.5367
17.66	62.5051
17.678	62.4754
17.696	62.4481
17.714	62.4252
17.732	62.4072
17.75	62.3952
17.768	62.3895
17.786	62.3903
17.804	62.3971
17.822	62.4098
17.84	62.4272
17.858	62.4484
17.876	62.4722
17.894	62.497
17.912	62.5221
17.93	62.546
17.948	62.5685
17.966	62.5887
17.984	62.6069
18.002	62.6231
18.02	62.6379
18.038	62.652
18.056	62.6665
18.074	62.682
18.092	62.6995
18.11	62.7193
18.128	62.7416
18.146	62.766
18.164	62.7922
18.182	62.819
18.2	62.8453
18.218	62.8691
18.236	62.8894
18.254	62.9035
18.272	62.9108
18.29	62.9091
18.308	62.8982
18.326	62.8769
18.344	62.8457
18.362	62.8048
18.38	62.7552
18.398	62.6984
18.416	62.6361
18.434	62.5701
18.452	62.5028
18.47	62.4358
18.488	62.3715
18.506	62.3107
18.524	62.2554
18.542	62.2061
18.56	62.1635
18.578	62.1279
18.596	62.0991
18.614	62.0773
18.632	62.0617
18.65	62.0525
18.668	62.0489
18.686	62.0509
18.704	62.0582
18.722	62.0707
18.74	62.0886
18.758	62.1115
18.776	62.1396
18.794	62.1727
18.812	62.2105
18.83	62.2525
18.848	62.2979
18.866	62.3461
18.884	62.3959
18.902	62.4464
18.92	62.4962
18.938	62.5444
18.956	62.5893
18.974	62.6301
18.992	62.6653
19.01	62.6944
19.028	62.7164
19.046	62.7313
19.064	62.7385
19.082	62.7384
19.1	62.7311
19.118	62.7171
19.136	62.697
19.154	62.6714
19.172	62.6414
19.19	62.6075
19.208	62.5711
19.226	62.5325
19.244	62.4933
19.262	62.4535
19.28	62.4147
19.298	62.377
19.316	62.3421
19.334	62.31
19.352	62.2822
19.37	62.2588
19.388	62.2414
19.406	62.2298
19.424	62.2251
19.442	62.2273
19.46	62.2364
19.478	62.2526
19.496	62.2749
19.514	62.3035
19.532	62.3366
19.55	62.3737
19.568	62.4134
19.586	62.4543
19.604	62.4956
19.622	62.5354
19.64	62.5736
19.658	62.6081
19.676	62.6394
19.694	62.6662
19.712	62.6888
19.73	62.7069
19.748	62.7203
19.766	62.7297
19.784	62.735
19.802	62.7365
19.82	62.7345
19.838	62.729
19.856	62.7201
19.874	62.7079
19.892	62.6921
19.91	62.6726
19.928	62.6491
19.946	62.6215
19.964	62.5893
19.982	62.5524
20	62.5108
20.018	62.4644
20.036	62.4132
20.054	62.3575
20.072	62.2973
20.09	62.2336
20.108	62.1661
20.126	62.0965
20.144	62.0244
20.162	61.9516
20.18	61.8783
20.198	61.8055
20.216	61.7343
20.234	61.6648
20.252	61.5986
20.27	61.5354
20.288	61.4764
20.306	61.4215
20.324	61.3713
20.342	61.326
20.36	61.2856
20.378	61.2505
20.396	61.2205
20.414	61.1955
20.432	61.1758
20.45	61.1608
20.468	61.1507
20.486	61.1451
20.504	61.1435
20.522	61.1459
20.54	61.1514
20.558	61.1602
20.576	61.171
20.594	61.1837
20.612	61.1977
20.63	61.2115
20.648	61.2253
20.666	61.2373
20.684	61.2477
20.702	61.2555
20.72	61.2599
20.738	61.2609
20.756	61.2578
20.774	61.2506
20.792	61.2392
20.81	61.2235
20.828	61.2039
20.846	61.1807
20.864	61.154
20.882	61.1249
20.9	61.0933
20.918	61.0602
20.936	61.0264
20.954	60.9918
20.972	60.9581
20.99	60.9247
21.008	60.8931
21.026	60.8637
21.044	60.8366
21.062	60.8131
21.08	60.7929
21.098	60.7771
21.116	60.766
21.134	60.7597
21.152	60.7591
21.17	60.7639
21.188	60.7747
21.206	60.7915
21.224	60.8142
21.242	60.8426
21.26	60.8768
21.278	60.916
21.296	60.9602
21.314	61.0087
21.332	61.0602
21.35	61.1152
21.368	61.1715
21.386	61.2289
21.404	61.2866
21.422	61.3422
21.44	61.3964
21.458	61.4467
21.476	61.4923
21.494	61.5331
21.512	61.5664
21.53	61.5928
21.548	61.6109
21.566	61.6197
21.584	61.6197
21.602	61.6098
21.62	61.5898
21.638	61.5602
21.656	61.521
21.674	61.4722
21.692	61.415
21.71	61.3495
21.728	61.2763
21.746	61.1975
21.764	61.1123
21.782	61.0229
21.8	60.9308
21.818	60.8354
21.836	60.7401
21.854	60.6448
21.872	60.5503
21.89	60.4595
21.908	60.3713
21.926	60.2877
21.944	60.2101
21.962	60.1378
21.98	60.0725
21.998	60.0143
22.016	59.9632
22.034	59.92
22.052	59.8847
22.07	59.8567
22.088	59.8361
22.106	59.8229
22.124	59.8155
22.142	59.814
22.16	59.8179
22.178	59.8252
22.196	59.8365
22.214	59.8504
22.232	59.8649
22.25	59.8808
22.268	59.8967
22.286	59.9114
22.304	59.9254
22.322	59.9381
22.34	59.9489
22.358	59.9583
22.376	59.9663
22.394	59.9727
22.412	59.978
22.43	59.9828
22.448	59.9865
22.466	59.9904
22.484	59.9953
22.502	60.0006
22.52	60.0077
22.538	60.0171
22.556	60.0285
22.574	60.0417
22.592	60.0574
22.61	60.0748
22.628	60.0923
22.646	60.1105
22.664	60.1285
22.682	60.144
22.7	60.1583
22.718	60.1694
22.736	60.1753
22.754	60.1773
22.772	60.173
22.79	60.1603
22.808	60.1404
22.826	60.1114
22.844	60.0718
22.862	60.0224
22.88	59.9633
22.898	59.894
22.916	59.8148
22.934	59.7278
22.952	59.6334
22.97	59.5314
22.988	59.425
23.006	59.3141
23.024	59.1991
23.042	59.0844
23.06	58.9697
23.078	58.8556
23.096	58.7472
23.114	58.6441
23.132	58.5467
23.15	58.46
23.168	58.3833
23.186	58.3172
23.204	58.2647
23.222	58.226
23.24	58.2006
23.258	58.1902
23.276	58.1954
23.294	58.2149
23.312	58.2478
23.33	58.2947
23.348	58.3546
23.366	58.4247
23.384	58.5055
23.402	58.5963
23.42	58.6944
23.438	58.8004
23.456	58.9136
23.474	59.0301
23.492	59.1501
23.51	59.2735
23.528	59.3954
23.546	59.5149
23.564	59.633
23.582	59.7451
23.6	59.8497
23.618	59.9484
23.636	60.0379
23.654	60.1169
23.672	60.1868
23.69	60.2449
23.708	60.2892
23.726	60.3213
23.744	60.3394
23.762	60.3419
23.78	60.3305
23.798	60.3027
23.816	60.256
23.834	60.1924
23.852	60.1097
23.87	60.0042
23.888	59.8765
23.906	59.7269
23.924	59.5544
23.942	59.3582
23.96	59.1393
23.978	58.8992
23.996	58.6379
24.014	58.3551
24.032	58.0541
24.05	57.7368
24.068	57.4012
24.086	57.0511
24.104	56.6901
24.122	56.3158
24.14	55.9307
24.158	55.5387
24.176	55.1389
24.194	54.7316
24.212	54.3198
24.23	53.9037
24.248	53.4827
24.266	53.0592
24.284	52.6345
24.302	52.2076
24.32	51.7795
24.338	51.3518
24.356	50.9238
24.374	50.4956
24.392	50.0673
24.41	49.6389
24.428	49.2104
24.446	48.7824
24.464	48.3547
24.482	47.9273
24.5	47.501
24.518	47.0764
24.536	46.6519
24.554	46.2302
24.572	45.8151
24.59	45.406
24.608	45.0025
24.626	44.6068
24.644	44.2185
24.662	43.836
24.68	43.4657
24.698	43.1132
24.716	42.7734
24.734	42.4508
24.752	42.1531
24.77	41.8777
24.788	41.6241
24.806	41.4047
24.824	41.2273
24.842	41.0831
24.86	40.9814
24.878	40.9335
24.896	40.9342
24.914	40.9851
24.932	41.0985
24.95	41.2808
24.968	41.5244
24.986	41.8361
25.004	42.2236
25.022	42.685
25.04	43.2189
25.058	43.827
25.076	44.5114
25.094	45.2716
25.112	46.1023
25.13	46.9987
25.148	47.9701
25.166	49.0068
25.184	50.0902
25.202	51.2153
25.22	52.3949
25.238	53.6042
25.256	54.8182
25.274	56.06
25.292	57.3141
25.31	58.5368
25.328	59.7081
25.346	60.8626
25.364	61.9543
25.382	62.93
25.4	63.8078
25.418	64.5906
25.436	65.2283
25.454	65.6835
25.472	65.9901
25.49	66.1282
25.508	66.0647
25.526	65.7881
25.544	65.3157
25.562	64.6437
25.58	63.7671
25.598	62.6732
25.616	61.3807
25.634	59.9181
25.652	58.2939
25.67	56.4752
25.688	54.5186
25.706	52.4893
25.724	50.3725
25.742	48.1492
25.76	45.9051
25.778	43.7182
25.796	41.5297
25.814	39.3661
25.832	37.3079
25.85	35.4065
25.868	33.6009
25.886	31.9351
25.904	30.4685
25.922	29.2213
25.94	28.1608
25.958	27.3018
25.976	26.6606
25.994	26.2458
26.012	26.0433
26.03	26.0348
26.048	26.2061
26.066	26.5807
26.084	27.1367
26.102	27.8372
26.12	28.6619
26.138	29.6449
26.156	30.7512
26.174	31.9373
26.192	33.1893
26.21	34.5357
26.228	35.9466
26.246	37.3897
26.264	38.8657
26.282	40.3878
26.3	41.9347
26.318	43.4855
26.336	45.046
26.354	46.6201
26.372	48.1979
26.39	49.7701
26.408	51.3418
26.426	52.9129
26.444	54.4783
26.462	56.0354
26.48	57.596
26.498	59.1478
26.516	60.6722
26.534	62.1566
26.552	63.6194
26.57	65.0476
26.588	66.4222
26.606	67.7325
26.624	68.9973
26.642	70.2017
26.66	71.3263
26.678	72.3604
26.696	73.3206
26.714	74.1966
26.732	74.9756
26.75	75.6495
26.768	76.2264
26.786	76.7072
26.804	77.092
26.822	77.3781
26.84	77.5623
26.858	77.6557
26.876	77.6698
26.894	77.607
26.912	77.4545
26.93	77.2302
26.948	76.9536
26.966	76.6099
26.984	76.1467
27.002	75.6672
27.02	75.2853
27.028	75.187