File: Bakgrunnsmateriale/MATLAB/FTIR/ftir_data/subBb/Mapping_121/C-4040-8_t92.asc
PE IR       SPECTRUM    SPECTRUM    ASCII       PEDS        1.60
  -1
C-A942~1.ASC
17/03/27
22:05:15.00
17/03/27
22:05:41.00
tln
$C-4040-8_t0092$<tbV0>[5.2,7.8,8.0,0.0,27,1,0]
27.028
64

2002,4.07
MIRTGS : RIGHTBACK : INTERNAL 2
MIR : ON : INTERNAL 2
OPTKBR

0.200000
8
8.000000
FILLER
RATIO
SPECTRUM
UNLOCKED 256

DOUBLE
64
COMBINED
1
0
0

0.002000
RATIO

1
0
TRUE
51149
0
LEFT NOT FITTED RIGHT NOT FITTED 0
NONE
NONE
15600
12
4.427000
51148
TRUE
1 0 8 72 0 0 0 0

15798

#HDR
-1
-1
#GR
µM
%T
2.38419e-05
0.0
2.000000
0.002000
12515
8
82.3207
10.7249
#DATA
2.000000	 65.2253
2.018000	 64.8603
2.036000	 65.0432
2.054000	 65.1978
2.072000	 64.9764
2.090000	 65.127
2.108000	 65.0219
2.126000	 65.1223
2.144000	 65.2511
2.162000	 65.4226
2.180000	 65.6051
2.198000	 65.248
2.216000	 65.008
2.234000	 64.6453
2.252000	 64.2449
2.270000	 66.4403
2.288000	 64.2844
2.306000	 64.6062
2.324000	 64.1035
2.342000	 64.7567
2.360000	 64.7214
2.378000	 64.7064
2.396000	 64.6385
2.414000	 65.0109
2.432000	 65.1482
2.450000	 65.1147
2.468000	 65.1199
2.486000	 65.7857
2.504000	 65.0909
2.522000	 65.2328
2.540000	 65.1294
2.558000	 65.2877
2.576000	 65.096
2.594000	 65.1742
2.612000	 64.9681
2.630000	 65.1711
2.648000	 65.103
2.666000	 65.4611
2.684000	 65.2743
2.702000	 65.2823
2.720000	 65.3073
2.738000	 65.3139
2.756000	 65.2365
2.774000	 65.2434
2.792000	 65.376
2.810000	 65.5165
2.828000	 65.2301
2.846000	 65.067
2.864000	 65.2784
2.882000	 65.6429
2.900000	 64.9996
2.918000	 65.1074
2.936000	 65.2582
2.954000	 65.1014
2.972000	 65.1233
2.990000	 65.2617
3.008000	 65.2559
3.026000	 65.0993
3.044000	 65.0029
3.062000	 65.2765
3.080000	 65.2573
3.098000	 65.1899
3.116000	 65.1796
3.134000	 65.0847
3.152000	 65.2508
3.170000	 65.3465
3.188000	 65.279
3.206000	 65.434
3.224000	 65.4246
3.242000	 65.1646
3.260000	 65.3536
3.278000	 65.289
3.296000	 65.3358
3.314000	 65.1922
3.332000	 65.1804
3.350000	 65.2918
3.368000	 65.1054
3.386000	 65.3072
3.404000	 65.2134
3.422000	 64.8107
3.440000	 65.1381
3.458000	 65.0661
3.476000	 65.2853
3.494000	 65.3494
3.512000	 64.8603
3.530000	 65.1856
3.548000	 65.2317
3.566000	 65.2653
3.584000	 65.4453
3.602000	 65.3168
3.620000	 65.2139
3.638000	 65.2813
3.656000	 65.2954
3.674000	 65.443
3.692000	 65.337
3.710000	 65.2961
3.728000	 65.3163
3.746000	 65.3768
3.764000	 65.2974
3.782000	 65.2587
3.800000	 65.2523
3.818000	 65.3982
3.836000	 65.1986
3.854000	 65.218
3.872000	 65.2211
3.890000	 65.1962
3.908000	 65.3219
3.926000	 65.365
3.944000	 65.26
3.962000	 65.2
3.980000	 65.2735
3.998000	 65.5265
4.016000	 65.564
4.034000	 65.5137
4.052000	 65.3911
4.070000	 65.2808
4.088000	 65.2115
4.106000	 65.207
4.124000	 64.9439
4.141999	 65.5161
4.160000	 65.2375
4.178000	 65.3621
4.196000	 65.3218
4.214000	 65.3206
4.232000	 65.3372
4.250000	 65.3865
4.268000	 65.3662
4.286000	 65.4253
4.304000	 65.371
4.322000	 65.3466
4.340000	 65.3337
4.358000	 65.2884
4.375999	 65.4485
4.394000	 65.4121
4.412000	 65.3725
4.430000	 65.4613
4.448000	 65.5616
4.466000	 65.3739
4.484000	 65.3513
4.502000	 65.3319
4.520000	 65.2228
4.538000	 65.2563
4.556000	 65.2357
4.574000	 65.3272
4.592000	 65.3473
4.609999	 65.2984
4.628000	 65.4458
4.646000	 65.5687
4.664000	 65.3153
4.682000	 65.2326
4.700000	 65.3761
4.718000	 65.3753
4.736000	 65.5283
4.754000	 65.283
4.772000	 65.318
4.790000	 65.2537
4.808000	 65.2765
4.826000	 65.7987
4.843999	 65.6099
4.862000	 65.1077
4.880000	 65.1596
4.898000	 65.4909
4.916000	 65.3617
4.934000	 65.355
4.952000	 65.2953
4.970000	 65.3687
4.988000	 65.3565
5.006000	 65.3701
5.024000	 65.3228
5.042000	 65.4189
5.060000	 65.3704
5.077999	 65.3764
5.096000	 65.3931
5.114000	 65.4126
5.132000	 65.3513
5.150000	 65.3952
5.168000	 65.3799
5.186000	 65.3389
5.204000	 65.3168
5.222000	 65.2296
5.240000	 65.2705
5.258000	 65.2913
5.276000	 65.3458
5.294000	 65.3984
5.312000	 65.3182
5.330000	 65.2849
5.348000	 65.2869
5.366000	 65.3207
5.384000	 65.3838
5.402000	 65.452
5.420000	 65.3721
5.438000	 65.4302
5.456000	 65.4377
5.474000	 65.4016
5.492000	 65.3827
5.510000	 65.379
5.528000	 65.2965
5.546000	 65.3137
5.564000	 65.3173
5.582000	 65.2877
5.600000	 65.3054
5.618000	 65.2964
5.636000	 65.3615
5.654000	 65.4322
5.672000	 65.504
5.690000	 65.3295
5.708000	 65.1982
5.726000	 65.1632
5.744000	 65.1564
5.762000	 65.1675
5.780000	 65.1929
5.798000	 65.132
5.816000	 65.248
5.834000	 65.3232
5.852000	 65.3146
5.870000	 65.1881
5.888000	 65.207
5.906000	 65.2305
5.923999	 65.1463
5.942000	 65.1751
5.960000	 65.1921
5.978000	 65.1749
5.996000	 65.2417
6.014000	 65.2106
6.032000	 65.1901
6.050000	 65.2067
6.068000	 65.2087
6.086000	 65.2395
6.104000	 65.2768
6.122000	 65.2299
6.140000	 65.1356
6.158000	 65.1224
6.176000	 65.2202
6.194000	 65.281
6.212000	 65.2068
6.230000	 65.1028
6.248000	 65.0644
6.266000	 65.0724
6.284000	 65.0947
6.302000	 65.0999
6.320000	 65.0967
6.338000	 65.1406
6.356000	 65.1202
6.374000	 64.9885
6.392000	 64.9287
6.410000	 64.9863
6.428000	 65.0659
6.446000	 65.1812
6.464000	 65.2513
6.482000	 65.2029
6.500000	 65.1395
6.518000	 65.0846
6.536000	 65.0676
6.554000	 65.1339
6.572000	 65.1537
6.590000	 65.0894
6.608000	 65.0729
6.626000	 65.0566
6.644000	 65.0476
6.662000	 65.1056
6.680000	 65.1419
6.698000	 65.14
6.716000	 65.1737
6.734000	 65.2274
6.752000	 65.1966
6.770000	 65.1211
6.788000	 65.1109
6.806000	 65.1133
6.824000	 65.1306
6.842000	 65.1843
6.860000	 65.1761
6.878000	 65.1977
6.896000	 65.3467
6.914000	 65.4236
6.932000	 65.3451
6.950000	 65.2143
6.968000	 65.0817
6.986000	 65.0172
7.004000	 65.0984
7.022000	 65.207
7.040000	 65.2253
7.058000	 65.2378
7.076000	 65.261
7.094000	 65.2262
7.112000	 65.1439
7.130000	 65.0682
7.148000	 65.0635
7.166000	 65.0961
7.184000	 65.075
7.202000	 65.055
7.220000	 65.0784
7.238000	 65.0515
7.256000	 64.9828
7.274000	 64.9911
7.292000	 65.0707
7.310000	 65.0988
7.328000	 65.0347
7.346000	 64.9858
7.364000	 65.0304
7.382000	 65.1082
7.400000	 65.1586
7.418000	 65.1661
7.436000	 65.1273
7.454000	 65.0775
7.472000	 65.034
7.490000	 64.9883
7.508000	 64.984
7.526000	 65.0313
7.544000	 65.0782
7.562000	 65.1075
7.580000	 65.103
7.598000	 65.0183
7.616000	 64.8875
7.634000	 64.8154
7.652000	 64.8505
7.670000	 64.9567
7.688000	 65.0696
7.706000	 65.1338
7.724000	 65.1135
7.742000	 65.0114
7.760000	 64.8977
7.778000	 64.8655
7.796000	 64.9259
7.814000	 65.0149
7.832000	 65.0841
7.850000	 65.1
7.868000	 65.0325
7.886000	 64.9336
7.904000	 64.9062
7.922000	 64.9554
7.940000	 65.0058
7.958000	 65.0446
7.976000	 65.102
7.994000	 65.1605
8.012000	 65.1923
8.030000	 65.1968
8.048000	 65.1696
8.065999	 65.1054
8.084000	 65.035
8.102000	 65.001
8.120000	 65.0014
8.138000	 65
8.155999	 64.9846
8.173999	 64.9838
8.192000	 65.029
8.210000	 65.1103
8.228000	 65.176
8.246000	 65.1789
8.263999	 65.1231
8.282000	 65.0535
8.300000	 65.0005
8.318000	 64.9695
8.336000	 64.9761
8.353999	 65.0262
8.372000	 65.0736
8.390000	 65.0658
8.408000	 65.0107
8.426000	 64.9634
8.443999	 64.956
8.462000	 64.9719
8.480000	 64.9815
8.498000	 64.9826
8.516000	 64.995
8.533999	 65.0226
8.552000	 65.032
8.570000	 64.9989
8.588000	 64.9577
8.606000	 64.9634
8.624000	 65.008
8.641999	 65.0201
8.660000	 64.952
8.678000	 64.8385
8.696000	 64.7569
8.714000	 64.7536
8.731999	 64.8216
8.750000	 64.9195
8.768000	 64.9962
8.786000	 65.0128
8.804000	 64.9703
8.821999	 64.9131
8.840000	 64.8964
8.858000	 64.9328
8.876000	 64.9832
8.894000	 65.0061
8.911999	 65.0034
8.930000	 65.0077
8.948000	 65.0362
8.966000	 65.0717
8.984000	 65.0774
9.001999	 65.0205
9.020000	 64.8884
9.038000	 64.7043
9.056000	 64.5295
9.074000	 64.425
9.092000	 64.3987
9.109999	 64.4037
9.128000	 64.3926
9.146000	 64.3703
9.164000	 64.3856
9.182000	 64.4797
9.199999	 64.6452
9.218000	 64.8281
9.236000	 64.9591
9.254000	 64.9907
9.272000	 64.9261
9.289999	 64.8229
9.308000	 64.7537
9.326000	 64.7543
9.344000	 64.7989
9.362000	 64.8324
9.379999	 64.8218
9.398000	 64.7782
9.416000	 64.7358
9.434000	 64.7169
9.452000	 64.7255
9.469999	 64.7624
9.488000	 64.8319
9.506000	 64.9282
9.524000	 65.0224
9.542000	 65.0751
9.560000	 65.068
9.577999	 65.0167
9.596000	 64.953
9.614000	 64.8957
9.632000	 64.8446
9.650000	 64.798
9.667999	 64.7697
9.686000	 64.7846
9.704000	 64.8537
9.722000	 64.9547
9.740000	 65.0421
9.757999	 65.0782
9.776000	 65.0543
9.794000	 64.9804
9.812000	 64.8647
9.830000	 64.7125
9.847999	 64.5438
9.866000	 64.4011
9.884000	 64.3299
9.902000	 64.3454
9.920000	 64.4184
9.937999	 64.4959
9.956000	 64.5411
9.974000	 64.5516
9.992000	 64.5481
10.01	64.5529
10.028	64.5797
10.046	64.6348
10.064	64.7161
10.082	64.8084
10.1	64.8821
10.118	64.9041
10.136	64.8584
10.154	64.7585
10.172	64.6394
10.19	64.5365
10.208	64.4664
10.226	64.4267
10.244	64.4081
10.262	64.407
10.28	64.4256
10.298	64.4679
10.316	64.5329
10.334	64.6116
10.352	64.6896
10.37	64.7506
10.388	64.7817
10.406	64.7776
10.424	64.7444
10.442	64.7015
10.46	64.6713
10.478	64.6693
10.496	64.6936
10.514	64.7266
10.532	64.7458
10.55	64.7361
10.568	64.6971
10.586	64.6431
10.604	64.5911
10.622	64.5517
10.64	64.5242
10.658	64.4993
10.676	64.4681
10.694	64.4311
10.712	64.399
10.73	64.3897
10.748	64.4175
10.766	64.4857
10.784	64.5868
10.802	64.7077
10.82	64.8393
10.838	64.979
10.856	65.1261
10.874	65.2728
10.892	65.3975
10.91	65.4665
10.928	65.4509
10.946	65.3393
10.964	65.1485
10.982	64.9179
11	64.6899
11.018	64.4965
11.036	64.3495
11.054	64.2469
11.072	64.1818
11.09	64.1515
11.108	64.1555
11.126	64.1908
11.144	64.2476
11.162	64.3078
11.18	64.3561
11.198	64.3863
11.216	64.4026
11.234	64.4149
11.252	64.429
11.27	64.4422
11.288	64.4455
11.306	64.4318
11.324	64.4004
11.342	64.3578
11.36	64.3153
11.378	64.2809
11.396	64.2566
11.414	64.2393
11.432	64.2242
11.45	64.2102
11.468	64.2011
11.486	64.2017
11.504	64.2145
11.522	64.2364
11.54	64.2608
11.558	64.28
11.576	64.2887
11.594	64.2874
11.612	64.2813
11.63	64.2793
11.648	64.29
11.666	64.3182
11.684	64.3614
11.702	64.4107
11.72	64.4533
11.738	64.478
11.756	64.4808
11.774	64.4656
11.792	64.4431
11.81	64.4257
11.828	64.4217
11.846	64.4314
11.864	64.4462
11.882	64.4546
11.9	64.4479
11.918	64.4252
11.936	64.3942
11.954	64.3675
11.972	64.3572
11.99	64.3688
12.008	64.4004
12.026	64.4434
12.044	64.4851
12.062	64.513
12.08	64.5187
12.098	64.4984
12.116	64.4553
12.134	64.3985
12.152	64.3414
12.17	64.2991
12.188	64.2852
12.206	64.3076
12.224	64.3649
12.242	64.4457
12.26	64.5316
12.278	64.6011
12.296	64.636
12.314	64.6273
12.332	64.577
12.35	64.4955
12.368	64.3984
12.386	64.3008
12.404	64.213
12.422	64.1393
12.44	64.0793
12.458	64.0302
12.476	63.9907
12.494	63.9615
12.512	63.945
12.53	63.9432
12.548	63.9548
12.566	63.9748
12.584	63.9954
12.602	64.0087
12.62	64.0093
12.638	63.9959
12.656	63.9717
12.674	63.9429
12.692	63.9163
12.71	63.8983
12.728	63.8929
12.746	63.9011
12.764	63.921
12.782	63.948
12.8	63.9764
12.818	64.0002
12.836	64.0147
12.854	64.0177
12.872	64.0094
12.89	63.9933
12.908	63.9746
12.926	63.9599
12.944	63.9556
12.962	63.966
12.98	63.9921
12.998	64.0315
13.016	64.0781
13.034	64.1233
13.052	64.1579
13.07	64.174
13.088	64.1665
13.106	64.1345
13.124	64.0811
13.142	64.0137
13.16	63.9425
13.178	63.8788
13.196	63.8329
13.214	63.812
13.232	63.8189
13.25	63.8509
13.268	63.9008
13.286	63.9578
13.304	64.0102
13.322	64.0468
13.34	64.0596
13.358	64.045
13.376	64.0046
13.394	63.944
13.412	63.8719
13.43	63.7987
13.448	63.7344
13.466	63.6872
13.484	63.6616
13.502	63.6592
13.52	63.6778
13.538	63.7127
13.556	63.7579
13.574	63.8066
13.592	63.8532
13.61	63.8927
13.628	63.9222
13.646	63.9402
13.664	63.9468
13.682	63.9433
13.7	63.9315
13.718	63.9138
13.736	63.8925
13.754	63.8706
13.772	63.8499
13.79	63.8327
13.808	63.8195
13.826	63.8108
13.844	63.8056
13.862	63.8021
13.88	63.7979
13.898	63.7903
13.916	63.777
13.934	63.757
13.952	63.7308
13.97	63.7002
13.988	63.6685
14.006	63.6392
14.024	63.6156
14.042	63.6003
14.06	63.5943
14.078	63.5972
14.096	63.6074
14.114	63.6225
14.132	63.64
14.15	63.6576
14.168	63.6736
14.186	63.6871
14.204	63.6976
14.222	63.7052
14.24	63.7103
14.258	63.7134
14.276	63.7146
14.294	63.7141
14.312	63.7115
14.33	63.7063
14.348	63.6977
14.366	63.685
14.384	63.6677
14.402	63.645
14.42	63.6167
14.438	63.5823
14.456	63.5423
14.474	63.4975
14.492	63.4496
14.51	63.4012
14.528	63.3549
14.546	63.3139
14.564	63.2805
14.582	63.2569
14.6	63.244
14.618	63.2419
14.636	63.2495
14.654	63.265
14.672	63.2861
14.69	63.3102
14.708	63.3351
14.726	63.3581
14.744	63.3775
14.762	63.3919
14.78	63.401
14.798	63.4053
14.816	63.4061
14.834	63.4057
14.852	63.4069
14.87	63.4119
14.888	63.4224
14.906	63.4393
14.924	63.4618
14.942	63.488
14.96	63.5143
14.978	63.5367
14.996	63.5512
15.014	63.554
15.032	63.542
15.05	63.5142
15.068	63.4712
15.086	63.4152
15.104	63.3494
15.122	63.2791
15.14	63.2091
15.158	63.1436
15.176	63.0863
15.194	63.0401
15.212	63.0064
15.23	62.9854
15.248	62.9764
15.266	62.978
15.284	62.9883
15.302	63.0052
15.32	63.0265
15.338	63.0501
15.356	63.0738
15.374	63.095
15.392	63.1119
15.41	63.1231
15.428	63.1276
15.446	63.1254
15.464	63.1172
15.482	63.1041
15.5	63.0875
15.518	63.0696
15.536	63.0521
15.554	63.0361
15.572	63.0228
15.59	63.0122
15.608	63.0038
15.626	62.9967
15.644	62.9898
15.662	62.9817
15.68	62.9718
15.698	62.96
15.716	62.9466
15.734	62.9331
15.752	62.9208
15.77	62.9114
15.788	62.9072
15.806	62.9094
15.824	62.9189
15.842	62.936
15.86	62.96
15.878	62.9893
15.896	63.0225
15.914	63.0565
15.932	63.0889
15.95	63.1177
15.968	63.1407
15.986	63.1559
16.004	63.1622
16.022	63.1584
16.04	63.144
16.058	63.1191
16.076	63.0838
16.094	63.0391
16.112	62.9864
16.13	62.927
16.148	62.8631
16.166	62.7977
16.184	62.7333
16.202	62.6729
16.22	62.6205
16.238	62.5781
16.256	62.548
16.274	62.5316
16.292	62.5286
16.31	62.5386
16.328	62.5588
16.346	62.5857
16.364	62.6165
16.382	62.6456
16.4	62.6696
16.418	62.6856
16.436	62.69
16.454	62.6826
16.472	62.6628
16.49	62.6324
16.508	62.5942
16.526	62.5505
16.544	62.5065
16.562	62.4655
16.58	62.4306
16.598	62.4055
16.616	62.3909
16.634	62.3878
16.652	62.3958
16.67	62.4133
16.688	62.439
16.706	62.4696
16.724	62.5036
16.742	62.5382
16.76	62.5713
16.778	62.6019
16.796	62.6282
16.814	62.6494
16.832	62.665
16.85	62.6744
16.868	62.6769
16.886	62.6722
16.904	62.6597
16.922	62.6394
16.94	62.6113
16.958	62.576
16.976	62.5338
16.994	62.4864
17.012	62.4354
17.03	62.3817
17.048	62.328
17.066	62.2753
17.084	62.2253
17.102	62.1792
17.12	62.1375
17.138	62.1009
17.156	62.0693
17.174	62.0426
17.192	62.0203
17.21	62.0024
17.228	61.9883
17.246	61.9784
17.264	61.9728
17.282	61.9728
17.3	61.9789
17.318	61.9926
17.336	62.0149
17.354	62.0466
17.372	62.0885
17.39	62.1401
17.408	62.2011
17.426	62.2693
17.444	62.3438
17.462	62.4201
17.48	62.4968
17.498	62.5694
17.516	62.6354
17.534	62.692
17.552	62.7363
17.57	62.7675
17.588	62.7836
17.606	62.7851
17.624	62.7718
17.642	62.7452
17.66	62.7058
17.678	62.6562
17.696	62.5973
17.714	62.532
17.732	62.4619
17.75	62.3893
17.768	62.3168
17.786	62.2452
17.804	62.1779
17.822	62.1152
17.84	62.0592
17.858	62.0104
17.876	61.9696
17.894	61.9369
17.912	61.9122
17.93	61.8948
17.948	61.8843
17.966	61.879
17.984	61.8784
18.002	61.8804
18.02	61.8841
18.038	61.8881
18.056	61.8911
18.074	61.8925
18.092	61.8916
18.11	61.8883
18.128	61.8827
18.146	61.8753
18.164	61.8669
18.182	61.8582
18.2	61.8501
18.218	61.8434
18.236	61.8386
18.254	61.8359
18.272	61.8356
18.29	61.837
18.308	61.8401
18.326	61.8431
18.344	61.8458
18.362	61.8467
18.38	61.8453
18.398	61.8399
18.416	61.8305
18.434	61.8163
18.452	61.7972
18.47	61.773
18.488	61.7439
18.506	61.7099
18.524	61.6717
18.542	61.6296
18.56	61.5842
18.578	61.5357
18.596	61.4854
18.614	61.4334
18.632	61.3813
18.65	61.3291
18.668	61.2789
18.686	61.231
18.704	61.1878
18.722	61.1495
18.74	61.1186
18.758	61.0951
18.776	61.0808
18.794	61.0755
18.812	61.08
18.83	61.0936
18.848	61.1161
18.866	61.146
18.884	61.1819
18.902	61.2218
18.92	61.2632
18.938	61.3042
18.956	61.3417
18.974	61.3741
18.992	61.3983
19.01	61.4139
19.028	61.4188
19.046	61.4135
19.064	61.3974
19.082	61.3718
19.1	61.3381
19.118	61.2979
19.136	61.2539
19.154	61.2075
19.172	61.1621
19.19	61.1185
19.208	61.0801
19.226	61.0469
19.244	61.0209
19.262	61.0018
19.28	60.9899
19.298	60.985
19.316	60.9857
19.334	60.9918
19.352	61.0009
19.37	61.0133
19.388	61.0265
19.406	61.0407
19.424	61.0545
19.442	61.0679
19.46	61.081
19.478	61.0935
19.496	61.1067
19.514	61.1207
19.532	61.1367
19.55	61.1551
19.568	61.1767
19.586	61.2025
19.604	61.2323
19.622	61.2667
19.64	61.3054
19.658	61.3479
19.676	61.3941
19.694	61.4421
19.712	61.4923
19.73	61.5418
19.748	61.591
19.766	61.6372
19.784	61.6803
19.802	61.7186
19.82	61.7508
19.838	61.7769
19.856	61.7955
19.874	61.8069
19.892	61.8101
19.91	61.8053
19.928	61.7924
19.946	61.7714
19.964	61.7427
19.982	61.7062
20	61.6626
20.018	61.6119
20.036	61.555
20.054	61.4926
20.072	61.4252
20.09	61.3547
20.108	61.2808
20.126	61.2066
20.144	61.1319
20.162	61.0593
20.18	60.9897
20.198	60.9247
20.216	60.8669
20.234	60.8161
20.252	60.7755
20.27	60.7444
20.288	60.7244
20.306	60.7158
20.324	60.7178
20.342	60.7307
20.36	60.7534
20.378	60.7836
20.396	60.8217
20.414	60.8631
20.432	60.9087
20.45	60.9539
20.468	60.9973
20.486	61.0375
20.504	61.0705
20.522	61.0972
20.54	61.1139
20.558	61.1207
20.576	61.1172
20.594	61.1024
20.612	61.0773
20.63	61.0429
20.648	60.9989
20.666	60.9491
20.684	60.8926
20.702	60.8332
20.72	60.7727
20.738	60.7117
20.756	60.6545
20.774	60.6001
20.792	60.5519
20.81	60.5105
20.828	60.4759
20.846	60.4497
20.864	60.4312
20.882	60.4197
20.9	60.4157
20.918	60.4171
20.936	60.4228
20.954	60.4326
20.972	60.443
20.99	60.4549
21.008	60.4655
21.026	60.4735
21.044	60.4789
21.062	60.4795
21.08	60.4757
21.098	60.4668
21.116	60.4523
21.134	60.4328
21.152	60.4086
21.17	60.3796
21.188	60.3468
21.206	60.3104
21.224	60.2706
21.242	60.2287
21.26	60.1842
21.278	60.1375
21.296	60.0889
21.314	60.038
21.332	59.9846
21.35	59.9289
21.368	59.8702
21.386	59.8082
21.404	59.7431
21.422	59.6741
21.44	59.6015
21.458	59.5254
21.476	59.4456
21.494	59.3627
21.512	59.2778
21.53	59.1903
21.548	59.1022
21.566	59.0145
21.584	58.9271
21.602	58.8432
21.62	58.7623
21.638	58.6859
21.656	58.6164
21.674	58.5528
21.692	58.4975
21.71	58.4511
21.728	58.4134
21.746	58.3853
21.764	58.3669
21.782	58.3576
21.8	58.3575
21.818	58.3664
21.836	58.3823
21.854	58.4057
21.872	58.4352
21.89	58.4684
21.908	58.5064
21.926	58.5461
21.944	58.5859
21.962	58.6265
21.98	58.6646
21.998	58.7002
22.016	58.7329
22.034	58.7606
22.052	58.7838
22.07	58.8021
22.088	58.815
22.106	58.8227
22.124	58.8255
22.142	58.8231
22.16	58.8161
22.178	58.8063
22.196	58.793
22.214	58.7779
22.232	58.7633
22.25	58.748
22.268	58.7346
22.286	58.7247
22.304	58.7174
22.322	58.715
22.34	58.7179
22.358	58.7259
22.376	58.74
22.394	58.7604
22.412	58.7865
22.43	58.818
22.448	58.8554
22.466	58.8967
22.484	58.941
22.502	58.989
22.52	59.0374
22.538	59.0853
22.556	59.1331
22.574	59.1764
22.592	59.2152
22.61	59.2489
22.628	59.2732
22.646	59.2889
22.664	59.295
22.682	59.2887
22.7	59.2706
22.718	59.2405
22.736	59.1974
22.754	59.1413
22.772	59.0734
22.79	58.9939
22.808	58.9024
22.826	58.8016
22.844	58.693
22.862	58.5755
22.88	58.4536
22.898	58.3289
22.916	58.2001
22.934	58.0727
22.952	57.9478
22.97	57.8247
22.988	57.7086
23.006	57.6005
23.024	57.4997
23.042	57.4106
23.06	57.3337
23.078	57.2683
23.096	57.2158
23.114	57.1765
23.132	57.1499
23.15	57.1356
23.168	57.1345
23.186	57.1455
23.204	57.1661
23.222	57.1969
23.24	57.2373
23.258	57.2852
23.276	57.3405
23.294	57.4035
23.312	57.4732
23.33	57.5492
23.348	57.6321
23.366	57.7221
23.384	57.8195
23.402	57.924
23.42	58.0353
23.438	58.1529
23.456	58.2772
23.474	58.4094
23.492	58.5491
23.51	58.6965
23.528	58.8532
23.546	59.0199
23.564	59.196
23.582	59.3819
23.6	59.5785
23.618	59.7852
23.636	60.0007
23.654	60.2249
23.672	60.4587
23.69	60.6975
23.708	60.9391
23.726	61.1865
23.744	61.433
23.762	61.6732
23.78	61.9118
23.798	62.1421
23.816	62.3563
23.834	62.5592
23.852	62.7459
23.87	62.9081
23.888	63.0482
23.906	63.165
23.924	63.2524
23.942	63.3101
23.96	63.3392
23.978	63.3376
23.996	63.3037
24.014	63.2387
24.032	63.1439
24.05	63.0197
24.068	62.8648
24.086	62.6834
24.104	62.4791
24.122	62.2492
24.14	61.9971
24.158	61.7274
24.176	61.4377
24.194	61.1303
24.212	60.8114
24.23	60.4817
24.248	60.1398
24.266	59.7913
24.284	59.4384
24.302	59.0777
24.32	58.7162
24.338	58.3599
24.356	58.0027
24.374	57.6518
24.392	57.3177
24.41	56.9966
24.428	56.6901
24.446	56.4104
24.464	56.1601
24.482	55.9328
24.5	55.7449
24.518	55.6101
24.536	55.519
24.554	55.4778
24.572	55.4968
24.59	55.576
24.608	55.7126
24.626	55.9077
24.644	56.1656
24.662	56.4865
24.68	56.8569
24.698	57.266
24.716	57.729
24.734	58.2273
24.752	58.7325
24.77	59.2505
24.788	59.7845
24.806	60.2968
24.824	60.7634
24.842	61.2105
24.86	61.6098
24.878	61.9258
24.896	62.1702
24.914	62.3417
24.932	62.4124
24.95	62.3672
24.968	62.2225
24.986	61.9651
25.004	61.5795
25.022	61.0643
25.04	60.4282
25.058	59.679
25.076	58.8141
25.094	57.8271
25.112	56.7453
25.13	55.5942
25.148	54.3479
25.166	53.0276
25.184	51.6813
25.202	50.3242
25.22	48.9241
25.238	47.5356
25.256	46.2152
25.274	44.935
25.292	43.7035
25.31	42.5695
25.328	41.5618
25.346	40.6497
25.364	39.8549
25.382	39.2044
25.4	38.7016
25.418	38.335
25.436	38.1021
25.454	38.0044
25.472	38.0544
25.49	38.2273
25.508	38.4925
25.526	38.8514
25.544	39.3169
25.562	39.849
25.58	40.4105
25.598	41.0283
25.616	41.6889
25.634	42.3517
25.652	42.992
25.67	43.6372
25.688	44.2677
25.706	44.8577
25.724	45.4027
25.742	45.9143
25.76	46.3842
25.778	46.8052
25.796	47.1835
25.814	47.5164
25.832	47.7955
25.85	48.0146
25.868	48.1771
25.886	48.2856
25.904	48.3414
25.922	48.3484
25.94	48.3063
25.958	48.2073
25.976	48.0438
25.994	47.8137
26.012	47.5218
26.03	47.1726
26.048	46.7673
26.066	46.2841
26.084	45.7497
26.102	45.2037
26.12	44.6671
26.138	44.1004
26.156	43.5448
26.174	43.0514
26.192	42.6226
26.21	42.2172
26.228	41.9121
26.246	41.7879
26.264	41.8451
26.282	42.0485
26.3	42.4427
26.318	43.072
26.336	43.9436
26.354	45.0331
26.372	46.3231
26.39	47.8007
26.408	49.5148
26.426	51.4216
26.444	53.4401
26.462	55.5121
26.48	57.7531
26.498	60.0648
26.516	62.2887
26.534	64.316
26.552	66.2951
26.57	68.1267
26.588	69.6601
26.606	70.8003
26.624	71.6695
26.642	72.2008
26.66	72.2988
26.678	71.8983
26.696	71.0558
26.714	69.7794
26.732	68.0695
26.75	65.8967
26.768	63.224
26.786	60.1641
26.804	56.8386
26.822	53.2768
26.84	49.3518
26.858	45.2268
26.876	41.0835
26.894	36.9865
26.912	32.7662
26.93	28.5904
26.948	24.6506
26.966	20.974
26.984	17.3003
27.002	13.9853
27.02	11.4301
27.028	10.7249