File: Bakgrunnsmateriale/MATLAB/FTIR/ftir_data/subBb/Mapping_121/C-4040-8_t12.asc
PE IR       SPECTRUM    SPECTRUM    ASCII       PEDS        1.60
  -1
C-A922~1.ASC
17/03/27
15:26:56.00
17/03/27
15:27:23.00
tln
$C-4040-8_t0012$<tbV0>[13.0,-10.4,8.0,0.0,27,1,0]
27.028
64

2002,4.07
MIRTGS : RIGHTBACK : INTERNAL 2
MIR : ON : INTERNAL 2
OPTKBR

0.200000
8
8.000000
FILLER
RATIO
SPECTRUM
UNLOCKED 256

DOUBLE
64
COMBINED
1
0
0

0.002000
RATIO

1
0
TRUE
51149
0
LEFT NOT FITTED RIGHT NOT FITTED 0
NONE
NONE
15600
12
4.427000
51148
TRUE
1 0 8 72 0 0 0 0

15798

#HDR
-1
-1
#GR
µM
%T
2.38419e-05
0.0
2.000000
0.002000
12515
8
125.763
43.4785
#DATA
2.000000	 64.4721
2.018000	 63.5108
2.036000	 65.0868
2.054000	 63.855
2.072000	 64.7795
2.090000	 65.373
2.108000	 64.9936
2.126000	 65.0512
2.144000	 65.0276
2.162000	 65.1165
2.180000	 64.7823
2.198000	 64.4575
2.216000	 64.2234
2.234000	 64.6526
2.252000	 67.676
2.270000	 62.2918
2.288000	 69.0804
2.306000	 64.9513
2.324000	 64.2552
2.342000	 64.7636
2.360000	 64.5797
2.378000	 64.7269
2.396000	 63.657
2.414000	 64.6787
2.432000	 64.9714
2.450000	 65.2498
2.468000	 65.2094
2.486000	 65.469
2.504000	 65.1881
2.522000	 65.2434
2.540000	 65.0375
2.558000	 65.2366
2.576000	 64.9792
2.594000	 65.5557
2.612000	 65.0629
2.630000	 65.4622
2.648000	 65.1721
2.666000	 65.6136
2.684000	 65.2335
2.702000	 65.2823
2.720000	 65.6181
2.738000	 65.5377
2.756000	 65.3908
2.774000	 65.1831
2.792000	 65.2908
2.810000	 65.1907
2.828000	 65.3166
2.846000	 65.1537
2.864000	 65.1479
2.882000	 65.4119
2.900000	 65.1261
2.918000	 64.8082
2.936000	 65.2348
2.954000	 65.15
2.972000	 65.3241
2.990000	 65.1869
3.008000	 65.0835
3.026000	 65.3296
3.044000	 65.2612
3.062000	 65.1957
3.080000	 65.319
3.098000	 65.2183
3.116000	 65.4477
3.134000	 64.9565
3.152000	 65.1007
3.170000	 65.1118
3.188000	 65.2144
3.206000	 65.2809
3.224000	 65.066
3.242000	 65.0141
3.260000	 65.3254
3.278000	 65.2752
3.296000	 65.2999
3.314000	 65.3392
3.332000	 65.231
3.350000	 65.2599
3.368000	 65.1572
3.386000	 65.0483
3.404000	 65.1914
3.422000	 65.0151
3.440000	 65.0469
3.458000	 65.1008
3.476000	 65.08
3.494000	 64.952
3.512000	 65.2034
3.530000	 65.2162
3.548000	 65.3294
3.566000	 65.2512
3.584000	 65.1607
3.602000	 65.2026
3.620000	 65.3189
3.638000	 65.4174
3.656000	 65.3392
3.674000	 65.1586
3.692000	 65.2295
3.710000	 65.4134
3.728000	 65.1753
3.746000	 65.3933
3.764000	 65.2425
3.782000	 65.1947
3.800000	 65.4328
3.818000	 65.3198
3.836000	 65.1842
3.854000	 65.3315
3.872000	 65.3281
3.890000	 65.2946
3.908000	 65.1497
3.926000	 65.315
3.944000	 65.3158
3.962000	 65.3981
3.980000	 65.1553
3.998000	 65.3797
4.016000	 65.2915
4.034000	 65.1986
4.052000	 65.2881
4.070000	 65.1405
4.088000	 65.3948
4.106000	 65.3631
4.124000	 64.9163
4.141999	 65.1739
4.160000	 65.251
4.178000	 65.2696
4.196000	 65.2618
4.214000	 65.3095
4.232000	 65.4517
4.250000	 65.4021
4.268000	 65.2995
4.286000	 65.3187
4.304000	 65.3321
4.322000	 65.3611
4.340000	 65.3831
4.358000	 65.3082
4.375999	 65.3339
4.394000	 65.4689
4.412000	 65.4263
4.430000	 65.261
4.448000	 65.3376
4.466000	 65.1971
4.484000	 65.3473
4.502000	 65.3303
4.520000	 65.2952
4.538000	 65.3043
4.556000	 65.2229
4.574000	 65.2334
4.592000	 65.2196
4.609999	 65.2678
4.628000	 65.3532
4.646000	 65.1487
4.664000	 65.3234
4.682000	 65.4496
4.700000	 65.2642
4.718000	 65.2532
4.736000	 65.4607
4.754000	 65.2847
4.772000	 65.3642
4.790000	 65.6204
4.808000	 65.6449
4.826000	 65.2745
4.843999	 65.018
4.862000	 65.3561
4.880000	 65.3963
4.898000	 65.3366
4.916000	 65.394
4.934000	 65.2672
4.952000	 65.0956
4.970000	 65.2418
4.988000	 65.3242
5.006000	 65.3275
5.024000	 65.3535
5.042000	 65.3166
5.060000	 65.2762
5.077999	 65.3862
5.096000	 65.3798
5.114000	 65.2646
5.132000	 65.3091
5.150000	 65.4035
5.168000	 65.3263
5.186000	 65.2928
5.204000	 65.4253
5.222000	 65.4735
5.240000	 65.4562
5.258000	 65.3861
5.276000	 65.4442
5.294000	 65.3687
5.312000	 65.2433
5.330000	 65.3176
5.348000	 65.3561
5.366000	 65.368
5.384000	 65.4226
5.402000	 65.387
5.420000	 65.3358
5.438000	 65.2542
5.456000	 65.3171
5.474000	 65.3774
5.492000	 65.3115
5.510000	 65.4309
5.528000	 65.52
5.546000	 65.5162
5.564000	 65.573
5.582000	 65.5823
5.600000	 65.5363
5.618000	 65.4367
5.636000	 65.4965
5.654000	 65.4528
5.672000	 65.3616
5.690000	 65.4303
5.708000	 65.3769
5.726000	 65.2981
5.744000	 65.2706
5.762000	 65.4082
5.780000	 65.3304
5.798000	 65.209
5.816000	 65.53
5.834000	 65.6421
5.852000	 65.4846
5.870000	 65.7164
5.888000	 65.8325
5.906000	 65.5794
5.923999	 65.6241
5.942000	 65.7013
5.960000	 65.4973
5.978000	 65.4338
5.996000	 65.3658
6.014000	 65.3491
6.032000	 65.5454
6.050000	 65.8799
6.068000	 65.7614
6.086000	 65.4538
6.104000	 65.4193
6.122000	 65.4044
6.140000	 65.2655
6.158000	 65.3178
6.176000	 65.3701
6.194000	 65.3442
6.212000	 65.2922
6.230000	 65.276
6.248000	 65.215
6.266000	 65.1996
6.284000	 65.2634
6.302000	 65.3394
6.320000	 65.388
6.338000	 65.4662
6.356000	 65.4392
6.374000	 65.3569
6.392000	 65.54
6.410000	 65.8398
6.428000	 65.6806
6.446000	 65.3704
6.464000	 65.4697
6.482000	 65.8287
6.500000	 65.8373
6.518000	 65.5393
6.536000	 65.4396
6.554000	 65.5003
6.572000	 65.5203
6.590000	 65.5058
6.608000	 65.568
6.626000	 65.6657
6.644000	 65.6063
6.662000	 65.4405
6.680000	 65.3111
6.698000	 65.2535
6.716000	 65.2811
6.734000	 65.2692
6.752000	 65.2645
6.770000	 65.368
6.788000	 65.4913
6.806000	 65.5057
6.824000	 65.4668
6.842000	 65.5433
6.860000	 65.6576
6.878000	 65.5963
6.896000	 65.4979
6.914000	 65.4631
6.932000	 65.3256
6.950000	 65.1664
6.968000	 65.0952
6.986000	 65.0551
7.004000	 65.0904
7.022000	 65.2658
7.040000	 65.4291
7.058000	 65.3879
7.076000	 65.2253
7.094000	 65.1467
7.112000	 65.1954
7.130000	 65.2821
7.148000	 65.3234
7.166000	 65.305
7.184000	 65.263
7.202000	 65.2199
7.220000	 65.1537
7.238000	 65.0711
7.256000	 65.0445
7.274000	 65.0814
7.292000	 65.0963
7.310000	 65.0717
7.328000	 65.0571
7.346000	 65.0411
7.364000	 65.0115
7.382000	 65.0123
7.400000	 65.0616
7.418000	 65.1538
7.436000	 65.259
7.454000	 65.2875
7.472000	 65.219
7.490000	 65.1644
7.508000	 65.1785
7.526000	 65.2015
7.544000	 65.2058
7.562000	 65.2195
7.580000	 65.2207
7.598000	 65.1554
7.616000	 65.0477
7.634000	 64.9807
7.652000	 64.9855
7.670000	 65.0342
7.688000	 65.0994
7.706000	 65.151
7.724000	 65.1583
7.742000	 65.1317
7.760000	 65.1072
7.778000	 65.0932
7.796000	 65.0816
7.814000	 65.0713
7.832000	 65.0476
7.850000	 65.0032
7.868000	 64.9844
7.886000	 65.0317
7.904000	 65.09
7.922000	 65.0862
7.940000	 65.0499
7.958000	 65.0483
7.976000	 65.0779
7.994000	 65.0921
8.012000	 65.0745
8.030000	 65.0368
8.048000	 64.9983
8.065999	 64.9889
8.084000	 65.03
8.102000	 65.1012
8.120000	 65.1445
8.138000	 65.1238
8.155999	 65.072
8.173999	 65.0501
8.192000	 65.0663
8.210000	 65.0778
8.228000	 65.0613
8.246000	 65.0333
8.263999	 65.0079
8.282000	 64.9865
8.300000	 64.9774
8.318000	 64.9865
8.336000	 64.9995
8.353999	 65.0013
8.372000	 64.9954
8.390000	 64.99
8.408000	 64.9832
8.426000	 64.9728
8.443999	 64.9608
8.462000	 64.9492
8.480000	 64.9411
8.498000	 64.9441
8.516000	 64.9598
8.533999	 64.9752
8.552000	 64.9802
8.570000	 64.9835
8.588000	 64.9965
8.606000	 65.0079
8.624000	 64.991
8.641999	 64.9389
8.660000	 64.886
8.678000	 64.8753
8.696000	 64.9083
8.714000	 64.9491
8.731999	 64.9727
8.750000	 64.9836
8.768000	 64.9891
8.786000	 64.983
8.804000	 64.964
8.821999	 64.9505
8.840000	 64.9599
8.858000	 64.9795
8.876000	 64.9771
8.894000	 64.9416
8.911999	 64.8988
8.930000	 64.8801
8.948000	 64.8925
8.966000	 64.9241
8.984000	 64.9647
9.001999	 65.0072
9.020000	 65.0378
9.038000	 65.0361
9.056000	 64.9912
9.074000	 64.9142
9.092000	 64.8348
9.109999	 64.7911
9.128000	 64.8104
9.146000	 64.8872
9.164000	 64.9771
9.182000	 65.023
9.199999	 64.9964
9.218000	 64.9139
9.236000	 64.8172
9.254000	 64.74
9.272000	 64.6968
9.289999	 64.6917
9.308000	 64.7211
9.326000	 64.7686
9.344000	 64.8075
9.362000	 64.8203
9.379999	 64.8157
9.398000	 64.8203
9.416000	 64.8526
9.434000	 64.9029
9.452000	 64.9406
9.469999	 64.9431
9.488000	 64.9173
9.506000	 64.8948
9.524000	 64.9056
9.542000	 64.9568
9.560000	 65.0282
9.577999	 65.0877
9.596000	 65.1084
9.614000	 65.0771
9.632000	 64.999
9.650000	 64.9016
9.667999	 64.8283
9.686000	 64.8139
9.704000	 64.8591
9.722000	 64.9266
9.740000	 64.964
9.757999	 64.934
9.776000	 64.8323
9.794000	 64.6842
9.812000	 64.5321
9.830000	 64.4191
9.847999	 64.3754
9.866000	 64.4053
9.884000	 64.4833
9.902000	 64.567
9.920000	 64.6216
9.937999	 64.6398
9.956000	 64.6401
9.974000	 64.6458
9.992000	 64.6669
10.01	64.696
10.028	64.7198
10.046	64.735
10.064	64.7537
10.082	64.7932
10.1	64.8615
10.118	64.9505
10.136	65.0417
10.154	65.1169
10.172	65.1653
10.19	65.1808
10.208	65.1573
10.226	65.0885
10.244	64.9767
10.262	64.8413
10.28	64.7152
10.298	64.6285
10.316	64.5919
10.334	64.5917
10.352	64.6038
10.37	64.6099
10.388	64.6082
10.406	64.6055
10.424	64.6054
10.442	64.6001
10.46	64.5792
10.478	64.5416
10.496	64.5014
10.514	64.4789
10.532	64.4866
10.55	64.5172
10.568	64.5511
10.586	64.5688
10.604	64.5649
10.622	64.5503
10.64	64.542
10.658	64.5513
10.676	64.5768
10.694	64.6071
10.712	64.6283
10.73	64.6324
10.748	64.6181
10.766	64.5912
10.784	64.5621
10.802	64.5437
10.82	64.5482
10.838	64.5846
10.856	64.6532
10.874	64.7427
10.892	64.8319
10.91	64.8945
10.928	64.9117
10.946	64.8793
10.964	64.8111
10.982	64.7317
11	64.6644
11.018	64.6201
11.036	64.5903
11.054	64.5523
11.072	64.4846
11.09	64.3796
11.108	64.25
11.126	64.1253
11.144	64.0353
11.162	63.9998
11.18	64.0209
11.198	64.087
11.216	64.1795
11.234	64.28
11.252	64.3721
11.27	64.4428
11.288	64.4813
11.306	64.482
11.324	64.4473
11.342	64.3906
11.36	64.3326
11.378	64.2945
11.396	64.2877
11.414	64.3104
11.432	64.349
11.45	64.3861
11.468	64.4067
11.486	64.4052
11.504	64.3844
11.522	64.3548
11.54	64.328
11.558	64.3141
11.576	64.3187
11.594	64.3412
11.612	64.3773
11.63	64.4206
11.648	64.4652
11.666	64.5059
11.684	64.5396
11.702	64.565
11.72	64.581
11.738	64.5857
11.756	64.5771
11.774	64.5542
11.792	64.5186
11.81	64.4752
11.828	64.4309
11.846	64.3912
11.864	64.3584
11.882	64.3306
11.9	64.3048
11.918	64.279
11.936	64.2538
11.954	64.2328
11.972	64.2203
11.99	64.2185
12.008	64.2259
12.026	64.2376
12.044	64.2467
12.062	64.2496
12.08	64.2473
12.098	64.2452
12.116	64.2513
12.134	64.272
12.152	64.3087
12.17	64.3573
12.188	64.4098
12.206	64.4569
12.224	64.49
12.242	64.5033
12.26	64.4946
12.278	64.4656
12.296	64.4217
12.314	64.3714
12.332	64.3241
12.35	64.2879
12.368	64.2672
12.386	64.2625
12.404	64.2694
12.422	64.2801
12.44	64.2863
12.458	64.2812
12.476	64.2613
12.494	64.2274
12.512	64.1836
12.53	64.1362
12.548	64.0916
12.566	64.0551
12.584	64.0306
12.602	64.0211
12.62	64.0281
12.638	64.0513
12.656	64.0879
12.674	64.1331
12.692	64.1801
12.71	64.2221
12.728	64.2535
12.746	64.2718
12.764	64.2769
12.782	64.2714
12.8	64.2592
12.818	64.2438
12.836	64.2271
12.854	64.209
12.872	64.1886
12.89	64.1643
12.908	64.1351
12.926	64.1009
12.944	64.0631
12.962	64.0237
12.98	63.9847
12.998	63.9474
13.016	63.9123
13.034	63.8802
13.052	63.8527
13.07	63.8324
13.088	63.8229
13.106	63.829
13.124	63.8539
13.142	63.8994
13.16	63.9642
13.178	64.0443
13.196	64.1322
13.214	64.219
13.232	64.2963
13.25	64.3569
13.268	64.3969
13.286	64.4162
13.304	64.4183
13.322	64.4092
13.34	64.3955
13.358	64.3824
13.376	64.3722
13.394	64.3639
13.412	64.3532
13.43	64.3342
13.448	64.3007
13.466	64.2481
13.484	64.175
13.502	64.084
13.52	63.9807
13.538	63.8731
13.556	63.7699
13.574	63.6787
13.592	63.6049
13.61	63.5506
13.628	63.5149
13.646	63.4944
13.664	63.4845
13.682	63.4799
13.7	63.4761
13.718	63.4691
13.736	63.4571
13.754	63.4388
13.772	63.4148
13.79	63.3865
13.808	63.3564
13.826	63.3269
13.844	63.3005
13.862	63.279
13.88	63.2634
13.898	63.2537
13.916	63.249
13.934	63.2476
13.952	63.2475
13.97	63.2465
13.988	63.2431
14.006	63.2356
14.024	63.2231
14.042	63.2047
14.06	63.1802
14.078	63.1495
14.096	63.113
14.114	63.0717
14.132	63.0274
14.15	62.983
14.168	62.9417
14.186	62.9078
14.204	62.8859
14.222	62.8799
14.24	62.8927
14.258	62.9248
14.276	62.9745
14.294	63.0383
14.312	63.1104
14.33	63.1841
14.348	63.2527
14.366	63.3096
14.384	63.3505
14.402	63.3732
14.42	63.3784
14.438	63.3688
14.456	63.3488
14.474	63.3234
14.492	63.2979
14.51	63.2765
14.528	63.2619
14.546	63.2546
14.564	63.2535
14.582	63.256
14.6	63.2586
14.618	63.2577
14.636	63.2497
14.654	63.2324
14.672	63.205
14.69	63.1681
14.708	63.1237
14.726	63.0747
14.744	63.0254
14.762	62.9798
14.78	62.9415
14.798	62.9129
14.816	62.8957
14.834	62.8899
14.852	62.8939
14.87	62.905
14.888	62.9202
14.906	62.9363
14.924	62.9502
14.942	62.9591
14.96	62.962
14.978	62.959
14.996	62.9511
15.014	62.9403
15.032	62.9289
15.05	62.9198
15.068	62.9155
15.086	62.9177
15.104	62.9276
15.122	62.9454
15.14	62.97
15.158	63
15.176	63.0336
15.194	63.0686
15.212	63.1026
15.23	63.1342
15.248	63.1626
15.266	63.1874
15.284	63.2087
15.302	63.2275
15.32	63.245
15.338	63.2622
15.356	63.2804
15.374	63.3005
15.392	63.3222
15.41	63.3453
15.428	63.3689
15.446	63.391
15.464	63.4099
15.482	63.4241
15.5	63.4319
15.518	63.432
15.536	63.4242
15.554	63.4087
15.572	63.3865
15.59	63.3598
15.608	63.3307
15.626	63.3015
15.644	63.2751
15.662	63.2536
15.68	63.2381
15.698	63.2295
15.716	63.2277
15.734	63.2314
15.752	63.2389
15.77	63.2482
15.788	63.2564
15.806	63.2616
15.824	63.2622
15.842	63.2567
15.86	63.2444
15.878	63.2254
15.896	63.2004
15.914	63.1705
15.932	63.1371
15.95	63.1016
15.968	63.0654
15.986	63.0298
16.004	62.9957
16.022	62.964
16.04	62.9354
16.058	62.9104
16.076	62.8893
16.094	62.8725
16.112	62.8603
16.13	62.8526
16.148	62.8495
16.166	62.8506
16.184	62.8553
16.202	62.8628
16.22	62.8715
16.238	62.8802
16.256	62.8874
16.274	62.891
16.292	62.89
16.31	62.8835
16.328	62.8707
16.346	62.8521
16.364	62.8278
16.382	62.799
16.4	62.7667
16.418	62.7319
16.436	62.6959
16.454	62.6596
16.472	62.6235
16.49	62.5879
16.508	62.5526
16.526	62.5173
16.544	62.4815
16.562	62.445
16.58	62.4079
16.598	62.3704
16.616	62.3334
16.634	62.2978
16.652	62.2654
16.67	62.238
16.688	62.2171
16.706	62.205
16.724	62.2026
16.742	62.2113
16.76	62.231
16.778	62.2615
16.796	62.3017
16.814	62.3493
16.832	62.403
16.85	62.4593
16.868	62.5158
16.886	62.5703
16.904	62.6194
16.922	62.6619
16.94	62.6959
16.958	62.7204
16.976	62.7351
16.994	62.7399
17.012	62.7361
17.03	62.7244
17.048	62.7074
17.066	62.6868
17.084	62.665
17.102	62.6449
17.12	62.6277
17.138	62.6163
17.156	62.6113
17.174	62.6141
17.192	62.625
17.21	62.6438
17.228	62.67
17.246	62.7024
17.264	62.7405
17.282	62.7823
17.3	62.8272
17.318	62.8737
17.336	62.9208
17.354	62.9679
17.372	63.0137
17.39	63.0578
17.408	63.099
17.426	63.1367
17.444	63.1701
17.462	63.1981
17.48	63.2202
17.498	63.2358
17.516	63.2444
17.534	63.2456
17.552	63.2399
17.57	63.2272
17.588	63.2083
17.606	63.1836
17.624	63.1543
17.642	63.1212
17.66	63.0847
17.678	63.0462
17.696	63.0058
17.714	62.9641
17.732	62.9212
17.75	62.8772
17.768	62.8318
17.786	62.7848
17.804	62.7357
17.822	62.6844
17.84	62.6304
17.858	62.5739
17.876	62.5148
17.894	62.4537
17.912	62.3909
17.93	62.3276
17.948	62.2641
17.966	62.2023
17.984	62.1427
18.002	62.0872
18.02	62.0366
18.038	61.9919
18.056	61.9539
18.074	61.9228
18.092	61.8991
18.11	61.8826
18.128	61.8731
18.146	61.8701
18.164	61.8726
18.182	61.8798
18.2	61.8905
18.218	61.9032
18.236	61.9174
18.254	61.9312
18.272	61.9443
18.29	61.9549
18.308	61.963
18.326	61.9672
18.344	61.9676
18.362	61.9634
18.38	61.9548
18.398	61.9419
18.416	61.9248
18.434	61.9037
18.452	61.8795
18.47	61.8523
18.488	61.823
18.506	61.7919
18.524	61.7602
18.542	61.7281
18.56	61.6967
18.578	61.6661
18.596	61.6377
18.614	61.6116
18.632	61.5889
18.65	61.5697
18.668	61.5551
18.686	61.5451
18.704	61.5406
18.722	61.5414
18.74	61.5477
18.758	61.5593
18.776	61.5757
18.794	61.5964
18.812	61.6199
18.83	61.6458
18.848	61.6724
18.866	61.6986
18.884	61.7222
18.902	61.7422
18.92	61.756
18.938	61.7627
18.956	61.7602
18.974	61.748
18.992	61.7247
19.01	61.6907
19.028	61.6454
19.046	61.5901
19.064	61.5254
19.082	61.453
19.1	61.3749
19.118	61.2928
19.136	61.2099
19.154	61.1272
19.172	61.0486
19.19	60.9746
19.208	60.9087
19.226	60.851
19.244	60.804
19.262	60.7672
19.28	60.7416
19.298	60.7269
19.316	60.7224
19.334	60.7281
19.352	60.7419
19.37	60.7638
19.388	60.7912
19.406	60.824
19.424	60.8595
19.442	60.8976
19.46	60.9357
19.478	60.9736
19.496	61.0094
19.514	61.0426
19.532	61.0721
19.55	61.0967
19.568	61.1163
19.586	61.1303
19.604	61.1385
19.622	61.1401
19.64	61.1356
19.658	61.1254
19.676	61.1098
19.694	61.0901
19.712	61.0662
19.73	61.041
19.748	61.0143
19.766	60.9897
19.784	60.9674
19.802	60.9505
19.82	60.9404
19.838	60.9383
19.856	60.9469
19.874	60.9659
19.892	60.9969
19.91	61.0395
19.928	61.0929
19.946	61.1574
19.964	61.2291
19.982	61.3084
20	61.3903
20.018	61.4727
20.036	61.5531
20.054	61.626
20.072	61.6917
20.09	61.7436
20.108	61.7829
20.126	61.8053
20.144	61.8105
20.162	61.7984
20.18	61.768
20.198	61.7211
20.216	61.6592
20.234	61.5829
20.252	61.4974
20.27	61.4016
20.288	61.3026
20.306	61.2001
20.324	61.0987
20.342	61.0017
20.36	60.9095
20.378	60.8271
20.396	60.7533
20.414	60.6912
20.432	60.6408
20.45	60.6021
20.468	60.5759
20.486	60.561
20.504	60.5564
20.522	60.5622
20.54	60.5752
20.558	60.5962
20.576	60.6223
20.594	60.6526
20.612	60.6864
20.63	60.7215
20.648	60.7583
20.666	60.7952
20.684	60.832
20.702	60.8686
20.72	60.9046
20.738	60.9401
20.756	60.9751
20.774	61.0097
20.792	61.0438
20.81	61.0775
20.828	61.1104
20.846	61.1421
20.864	61.1725
20.882	61.1999
20.9	61.2248
20.918	61.2451
20.936	61.2596
20.954	61.2684
20.972	61.2685
20.99	61.2607
21.008	61.2429
21.026	61.2139
21.044	61.1739
21.062	61.1215
21.08	61.0568
21.098	60.9804
21.116	60.8916
21.134	60.7918
21.152	60.6828
21.17	60.564
21.188	60.4396
21.206	60.3095
21.224	60.1759
21.242	60.0434
21.26	59.9105
21.278	59.7825
21.296	59.6601
21.314	59.5445
21.332	59.4398
21.35	59.3449
21.368	59.2625
21.386	59.1936
21.404	59.138
21.422	59.0969
21.44	59.0703
21.458	59.0572
21.476	59.0574
21.494	59.0703
21.512	59.0935
21.53	59.1277
21.548	59.1705
21.566	59.2203
21.584	59.2776
21.602	59.3392
21.62	59.4054
21.638	59.4749
21.656	59.5451
21.674	59.6171
21.692	59.6885
21.71	59.7588
21.728	59.8278
21.746	59.8939
21.764	59.9573
21.782	60.0172
21.8	60.0729
21.818	60.1247
21.836	60.1708
21.854	60.2112
21.872	60.2458
21.89	60.2735
21.908	60.2947
21.926	60.3089
21.944	60.3153
21.962	60.3143
21.98	60.3063
21.998	60.2909
22.016	60.2691
22.034	60.2423
22.052	60.2097
22.07	60.1736
22.088	60.1359
22.106	60.0955
22.124	60.0564
22.142	60.0189
22.16	59.9834
22.178	59.954
22.196	59.9297
22.214	59.9123
22.232	59.9049
22.25	59.9063
22.268	59.9179
22.286	59.9408
22.304	59.9743
22.322	60.0177
22.34	60.0719
22.358	60.1354
22.376	60.2051
22.394	60.2827
22.412	60.3648
22.43	60.4472
22.448	60.5322
22.466	60.6151
22.484	60.6922
22.502	60.7656
22.52	60.8303
22.538	60.8843
22.556	60.9287
22.574	60.9595
22.592	60.976
22.61	60.9786
22.628	60.9649
22.646	60.9346
22.664	60.8887
22.682	60.8279
22.7	60.7513
22.718	60.6609
22.736	60.5588
22.754	60.4438
22.772	60.3184
22.79	60.1851
22.808	60.0424
22.826	59.8929
22.844	59.7381
22.862	59.577
22.88	59.4118
22.898	59.2436
22.916	59.0718
22.934	58.8973
22.952	58.7207
22.97	58.5416
22.988	58.3602
23.006	58.1765
23.024	57.9905
23.042	57.8023
23.06	57.6118
23.078	57.4192
23.096	57.2249
23.114	57.0281
23.132	56.8298
23.15	56.6324
23.168	56.4349
23.186	56.2386
23.204	56.0471
23.222	55.8588
23.24	55.6757
23.258	55.5039
23.276	55.3419
23.294	55.1913
23.312	55.0583
23.33	54.9415
23.348	54.8422
23.366	54.767
23.384	54.7153
23.402	54.6873
23.42	54.6877
23.438	54.717
23.456	54.7743
23.474	54.8611
23.492	54.979
23.51	55.1263
23.528	55.2994
23.546	55.4988
23.564	55.7244
23.582	55.9693
23.6	56.232
23.618	56.5145
23.636	56.8084
23.654	57.1107
23.672	57.4252
23.69	57.7412
23.708	58.0526
23.726	58.3655
23.744	58.6687
23.762	58.9523
23.78	59.2231
23.798	59.4738
23.816	59.6952
23.834	59.8914
23.852	60.0598
23.87	60.1948
23.888	60.2988
23.906	60.37
23.924	60.4032
23.942	60.3988
23.96	60.3574
23.978	60.2744
23.996	60.1478
24.014	59.9796
24.032	59.7696
24.05	59.517
24.068	59.2218
24.086	58.8867
24.104	58.5141
24.122	58.1016
24.14	57.6531
24.158	57.1739
24.176	56.6606
24.194	56.1167
24.212	55.5502
24.23	54.9615
24.248	54.3491
24.266	53.7213
24.284	53.0819
24.302	52.426
24.32	51.7626
24.338	51.1
24.356	50.4302
24.374	49.7623
24.392	49.1106
24.41	48.47
24.428	47.8426
24.446	47.2437
24.464	46.6783
24.482	46.1389
24.5	45.6389
24.518	45.1894
24.536	44.7824
24.554	44.4238
24.572	44.1233
24.59	43.8809
24.608	43.694
24.626	43.5641
24.644	43.4932
24.662	43.4805
24.68	43.5218
24.698	43.6141
24.716	43.7644
24.734	43.9623
24.752	44.1928
24.77	44.4564
24.788	44.7561
24.806	45.0777
24.824	45.4117
24.842	45.7669
24.86	46.1352
24.878	46.5064
24.896	46.8809
24.914	47.2611
24.932	47.6447
24.95	48.0291
24.968	48.4145
24.986	48.8055
25.004	49.2066
25.022	49.6125
25.04	50.0276
25.058	50.462
25.076	50.9199
25.094	51.3954
25.112	51.895
25.13	52.4252
25.148	52.9815
25.166	53.5661
25.184	54.1862
25.202	54.8462
25.22	55.5427
25.238	56.2741
25.256	57.0391
25.274	57.8339
25.292	58.6626
25.31	59.532
25.328	60.4443
25.346	61.3925
25.364	62.3881
25.382	63.4443
25.4	64.5531
25.418	65.716
25.436	66.9524
25.454	68.276
25.472	69.6715
25.49	71.1507
25.508	72.731
25.526	74.4179
25.544	76.2025
25.562	78.0883
25.58	80.0794
25.598	82.1841
25.616	84.39
25.634	86.6792
25.652	89.0467
25.67	91.5149
25.688	94.0447
25.706	96.591
25.724	99.1673
25.742	101.786
25.76	104.38
25.778	106.89
25.796	109.367
25.814	111.784
25.832	114.066
25.85	116.169
25.868	118.153
25.886	119.968
25.904	121.547
25.922	122.875
25.94	123.99
25.958	124.853
25.976	125.429
25.994	125.719
26.012	125.738
26.03	125.48
26.048	124.941
26.066	124.105
26.084	122.998
26.102	121.653
26.12	120.086
26.138	118.259
26.156	116.221
26.174	114.033
26.192	111.702
26.21	109.186
26.228	106.558
26.246	103.894
26.264	101.183
26.282	98.3955
26.3	95.6048
26.318	92.8813
26.336	90.1958
26.354	87.5411
26.372	84.968
26.39	82.5234
26.408	80.1808
26.426	77.9407
26.444	75.8281
26.462	73.8652
26.48	72.0407
26.498	70.3505
26.516	68.7963
26.534	67.3816
26.552	66.1119
26.57	64.9744
26.588	63.9537
26.606	63.0414
26.624	62.2521
26.642	61.5721
26.66	60.9839
26.678	60.4795
26.696	60.0747
26.714	59.7541
26.732	59.4993
26.75	59.3001
26.768	59.1689
26.786	59.1002
26.804	59.0867
26.822	59.1263
26.84	59.2265
26.858	59.3775
26.876	59.5684
26.894	59.7968
26.912	60.0746
26.93	60.386
26.948	60.7135
26.966	61.0648
26.984	61.4783
27.002	61.8835
27.02	62.2022
27.028	62.2865