File: Bakgrunnsmateriale/MATLAB/FTIR/ftir_data/subBb/Mapping_121/C-4040-8_t23_cm-1.asc
PE IR       SPECTRUM    SPECTRUM    ASCII       PEDS        1.60
  -1
C-9AE1~1.ASC
17/03/27
16:24:49.00
17/03/27
16:24:49.00
tln
$C-4040-8_t0023$<tbV0>[13.0,-7.8,8.0,0.0,27,1,0]
370
64

2002,4.07
MIRTGS : RIGHTBACK : INTERNAL 2
MIR : ON : INTERNAL 2
OPTKBR

0.200000
8
8.000000
FILLER
RATIO
SPECTRUM
UNLOCKED 256

DOUBLE
64
COMBINED
1
0
0

1.000000
RATIO

1
0
TRUE
51149
0
LEFT NOT FITTED RIGHT NOT FITTED 0
NONE
NONE
15600
12
4.427000
51148
TRUE
1 0 8 72 0 0 0 0

15798

#HDR
-1
-1
#GR
CM-1
%T
2.38419e-05
0.0
5000
-1.000000
4631
8
86.6609
39.1752
#DATA
5000	64.341
4996	64.1448
4992	64.2488
4988	64.4016
4984	64.2367
4980	64.0055
4976	64.1874
4972	64.5785
4968	64.8719
4964	65.0774
4960	65.1315
4956	65.062
4952	65.0957
4948	64.9449
4944	64.5898
4940	64.4919
4936	64.4994
4932	64.3758
4928	64.2379
4924	64.1461
4920	64.1482
4916	64.4465
4912	64.8231
4908	64.9273
4904	64.8216
4900	64.9197
4896	65.2659
4892	65.4328
4888	65.3621
4884	65.0412
4880	64.6722
4876	64.323
4872	64.0009
4868	64.2663
4864	65.0209
4860	65.4795
4856	65.2509
4852	64.7739
4848	64.6079
4844	64.6928
4840	64.6986
4836	64.636
4832	64.784
4828	64.9235
4824	64.8334
4820	64.8115
4816	64.896
4812	64.7553
4808	64.4606
4804	64.4229
4800	64.6414
4796	64.889
4792	65.045
4788	64.9946
4784	64.8362
4780	64.7201
4776	64.6345
4772	64.623
4768	64.6995
4764	64.7426
4760	64.6914
4756	64.6754
4752	64.8184
4748	64.9454
4744	64.8717
4740	64.7656
4736	64.7629
4732	64.7743
4728	64.8326
4724	65.0116
4720	65.1656
4716	65.1421
4712	64.9841
4708	64.8227
4704	64.7493
4700	64.8227
4696	64.8484
4692	64.7028
4688	64.7032
4684	64.8545
4680	64.9036
4676	64.8408
4672	64.719
4668	64.6836
4664	64.7839
4660	64.9789
4656	65.1794
4652	65.0377
4648	64.6751
4644	64.5455
4640	64.6473
4636	64.7154
4632	64.739
4628	64.8559
4624	64.7939
4620	64.6319
4616	64.7678
4612	65.0534
4608	65.1784
4604	65.0885
4600	64.9297
4596	64.825
4592	64.9715
4588	65.0125
4584	64.5011
4580	64.1543
4576	64.3222
4572	64.4115
4568	64.3806
4564	64.6031
4560	64.9032
4556	64.9272
4552	64.8475
4548	64.9453
4544	65.0258
4540	64.7858
4536	64.411
4532	64.2154
4528	64.2823
4524	64.5298
4520	64.5658
4516	64.4204
4512	64.3904
4508	64.3389
4504	64.3107
4500	64.417
4496	64.5607
4492	64.7075
4488	64.8657
4484	64.9032
4480	64.6305
4476	64.2294
4472	63.9351
4468	63.7977
4464	63.8962
4460	64.1873
4456	64.3101
4452	63.9308
4448	63.4273
4444	63.2791
4440	63.6363
4436	64.1675
4432	64.1362
4428	63.6337
4424	63.5068
4420	63.6876
4416	63.4915
4412	63.1619
4408	63.4385
4404	63.9261
4400	64.1984
4396	64.9709
4392	65.7315
4388	65.6947
4384	65.7757
4380	71.3167
4376	81.7018
4372	82.113
4368	75.3355
4364	72.3886
4360	68.7919
4356	65.5232
4352	65.0553
4348	65.2189
4344	65.0313
4340	64.6301
4336	64.3222
4332	64.0224
4328	63.8589
4324	63.8568
4320	63.8921
4316	64.0515
4312	64.0331
4308	63.8129
4304	63.8402
4300	64.0571
4296	64.2808
4292	64.5466
4288	64.5957
4284	64.3851
4280	64.4619
4276	64.7441
4272	64.5537
4268	64.2333
4264	64.2357
4260	64.1625
4256	63.9796
4252	64.0121
4248	64.2607
4244	64.4624
4240	64.5067
4236	64.4911
4232	64.4883
4228	64.5241
4224	64.622
4220	64.6717
4216	64.4759
4212	64.3527
4208	64.488
4204	64.5102
4200	64.3667
4196	64.1223
4192	63.8861
4188	63.7425
4184	63.6153
4180	63.9172
4176	64.7991
4172	65.4008
4168	65.3237
4164	65.0185
4160	64.6975
4156	64.5256
4152	64.7164
4148	65.0505
4144	65.1234
4140	65.0318
4136	64.9786
4132	64.808
4128	64.662
4124	64.7818
4120	64.882
4116	64.8384
4112	64.7492
4108	64.6205
4104	64.617
4100	64.7763
4096	64.9937
4092	65.116
4088	65.0222
4084	64.9628
4080	65.0208
4076	65.0432
4072	64.9776
4068	64.8822
4064	64.9044
4060	65.0213
4056	65.1554
4052	65.2814
4048	65.404
4044	65.4441
4040	65.2956
4036	65.0634
4032	64.8716
4028	64.7647
4024	64.8104
4020	64.969
4016	65.0306
4012	64.9669
4008	64.91
4004	64.8682
4000	64.8102
3996	64.7593
3992	64.8126
3988	64.9106
3984	64.8951
3980	64.8417
3976	64.9068
3972	65.0405
3968	65.0311
3964	64.9277
3960	64.9099
3956	64.8802
3952	64.7549
3948	64.673
3944	64.763
3940	64.909
3936	64.9243
3932	64.8684
3928	64.8937
3924	64.8877
3920	64.7921
3916	64.7099
3912	64.6177
3908	64.6225
3904	64.7718
3900	64.8329
3896	64.7838
3892	64.8184
3888	64.8811
3884	64.9384
3880	65.0613
3876	65.0033
3872	64.8508
3868	64.9215
3864	64.9755
3860	64.8732
3856	64.8466
3852	64.9492
3848	65.0838
3844	65.1021
3840	64.9119
3836	64.7251
3832	64.7015
3828	64.7389
3824	64.7561
3820	64.6958
3816	64.6664
3812	64.7928
3808	64.8657
3804	64.8354
3800	64.8508
3796	64.8603
3792	64.8033
3788	64.7022
3784	64.7316
3780	64.8693
3776	64.8844
3772	64.8535
3768	64.8743
3764	64.8628
3760	64.7647
3756	64.7157
3752	64.8334
3748	64.9183
3744	64.8602
3740	64.8236
3736	64.8809
3732	64.9919
3728	65.0715
3724	65.0666
3720	65.0075
3716	64.9439
3712	64.915
3708	64.9313
3704	64.9807
3700	65.0557
3696	65.1459
3692	65.1307
3688	65.0323
3684	65.0273
3680	65.0654
3676	65.0491
3672	65.0209
3668	64.9868
3664	64.8979
3660	64.8529
3656	64.9448
3652	65.0372
3648	65.072
3644	65.0708
3640	64.9971
3636	65.0366
3632	65.2366
3628	65.3109
3624	65.214
3620	65.1562
3616	65.1723
3612	65.1061
3608	65.0465
3604	65.0904
3600	65.0442
3596	65.0072
3592	65.1056
3588	65.1417
3584	65.1043
3580	65.1196
3576	65.1708
3572	65.18
3568	65.1369
3564	65.0954
3560	65.1618
3556	65.2529
3552	65.1373
3548	65.0091
3544	65.0375
3540	65.0283
3536	65.0025
3532	65.0472
3528	65.0684
3524	65.0729
3520	65.1165
3516	65.152
3512	65.1438
3508	65.0237
3504	64.903
3500	64.9071
3496	64.9191
3492	64.9434
3488	65.0617
3484	65.1668
3480	65.0799
3476	65.0175
3472	65.1267
3468	65.1019
3464	64.9967
3460	65.0195
3456	65.0689
3452	65.078
3448	65.0687
3444	65.1359
3440	65.2484
3436	65.2436
3432	65.1591
3428	65.0612
3424	64.9505
3420	64.8484
3416	64.8203
3412	64.8955
3408	64.899
3404	64.8345
3400	64.9085
3396	65.0529
3392	65.0642
3388	64.9426
3384	64.8833
3380	64.9917
3376	65.0962
3372	65.0771
3368	65.0341
3364	64.9738
3360	64.9641
3356	65.0816
3352	65.1423
3348	65.0143
3344	64.8583
3340	64.8335
3336	64.8886
3332	64.8826
3328	64.8422
3324	65.0216
3320	65.2867
3316	65.319
3312	65.217
3308	65.1251
3304	65.0586
3300	65.0553
3296	65.0513
3292	64.955
3288	64.9121
3284	64.9647
3280	65.0305
3276	65.1243
3272	65.1471
3268	65.112
3264	65.1096
3260	65.0827
3256	65.0346
3252	65.0442
3248	65.0568
3244	65.0581
3240	65.1497
3236	65.2195
3232	65.1609
3228	65.0746
3224	65.0581
3220	65.0823
3216	65.0447
3212	64.9784
3208	64.9845
3204	65.0417
3200	65.1333
3196	65.1983
3192	65.1005
3188	64.9554
3184	64.9656
3180	65.0333
3176	65.0147
3172	64.9865
3168	64.9878
3164	65.0156
3160	65.053
3156	65.0029
3152	64.9741
3148	65.0056
3144	64.9183
3140	64.8804
3136	64.9913
3132	64.9885
3128	64.9126
3124	64.8984
3120	64.946
3116	65.059
3112	65.1738
3108	65.2648
3104	65.2575
3100	65.1472
3096	65.0697
3092	65.082
3088	65.1246
3084	65.1517
3080	65.1962
3076	65.1834
3072	65.1495
3068	65.1608
3064	65.131
3060	65.0783
3056	65.0378
3052	64.9973
3048	64.9772
3044	65.015
3040	65.0532
3036	65.0782
3032	65.1014
3028	65.0674
3024	65.0065
3020	65.0077
3016	65.0705
3012	65.0883
3008	65.0583
3004	65.0295
3000	65.0084
2996	64.9923
2992	64.9361
2988	64.865
2984	64.8676
2980	64.9541
2976	65.0673
2972	65.1291
2968	65.0376
2964	64.8533
2960	64.7994
2956	64.9116
2952	64.9963
2948	64.9557
2944	64.8712
2940	64.8118
2936	64.8142
2932	64.806
2928	64.727
2924	64.6572
2920	64.6423
2916	64.6988
2912	64.8124
2908	64.9377
2904	64.992
2900	64.9675
2896	64.9419
2892	64.8911
2888	64.8496
2884	64.8373
2880	64.8192
2876	64.8998
2872	65.012
2868	64.9877
2864	64.8688
2860	64.7352
2856	64.708
2852	64.8018
2848	64.8932
2844	65.0095
2840	65.1115
2836	65.0429
2832	64.9268
2828	64.9408
2824	65.0141
2820	65.0744
2816	65.1077
2812	65.119
2808	65.1133
2804	65.0653
2800	65.0015
2796	65.0077
2792	65.1288
2788	65.2244
2784	65.1756
2780	65.0939
2776	65.0571
2772	65.0495
2768	65.0721
2764	65.1222
2760	65.1811
2756	65.222
2752	65.2055
2748	65.1685
2744	65.1252
2740	65.0208
2736	64.9224
2732	64.8852
2728	64.9057
2724	65.0092
2720	65.0933
2716	65.0405
2712	64.9963
2708	65.0487
2704	65.0706
2700	65.0987
2696	65.2047
2692	65.229
2688	65.1092
2684	65.0703
2680	65.1422
2676	65.1463
2672	65.1536
2668	65.1875
2664	65.1394
2660	65.0294
2656	64.9622
2652	64.9996
2648	65.0519
2644	65.0819
2640	65.1403
2636	65.2234
2632	65.2692
2628	65.2004
2624	65.0928
2620	65.0373
2616	65.0223
2612	65.0677
2608	65.1212
2604	65.0965
2600	65.0374
2596	65.0005
2592	64.9496
2588	64.9086
2584	64.9236
2580	64.9481
2576	65.0064
2572	65.0959
2568	65.1115
2564	65.0715
2560	65.0498
2556	65.0577
2552	65.1155
2548	65.1873
2544	65.192
2540	65.1587
2536	65.1525
2532	65.1545
2528	65.1391
2524	65.1004
2520	65.0603
2516	65.0674
2512	65.0978
2508	65.108
2504	65.1419
2500	65.1953
2496	65.2137
2492	65.2228
2488	65.2406
2484	65.1946
2480	65.1132
2476	65.0805
2472	65.0911
2468	65.1292
2464	65.1063
2460	64.9995
2456	64.9778
2452	65.0767
2448	65.1696
2444	65.1947
2440	65.1085
2436	65.0839
2432	65.2369
2428	65.3291
2424	65.3994
2420	65.5814
2416	65.554
2412	65.1998
2408	64.9443
2404	64.9895
2400	65.1014
2396	65.11
2392	65.099
2388	65.1655
2384	65.2343
2380	65.2187
2376	65.1666
2372	65.1917
2368	65.2775
2364	65.3235
2360	65.2984
2356	65.2555
2352	65.2769
2348	65.3009
2344	65.2552
2340	65.1899
2336	65.1656
2332	65.1703
2328	65.1734
2324	65.2008
2320	65.2128
2316	65.1922
2312	65.1958
2308	65.2103
2304	65.2114
2300	65.2317
2296	65.2569
2292	65.2382
2288	65.2109
2284	65.2001
2280	65.1889
2276	65.1722
2272	65.1372
2268	65.1241
2264	65.1398
2260	65.1547
2256	65.1728
2252	65.1551
2248	65.1174
2244	65.1252
2240	65.1602
2236	65.1765
2232	65.1378
2228	65.0263
2224	64.9532
2220	65.0089
2216	65.0749
2212	65.0932
2208	65.1281
2204	65.1504
2200	65.1703
2196	65.2775
2192	65.3896
2188	65.3665
2184	65.2654
2180	65.2098
2176	65.1996
2172	65.2317
2168	65.2577
2164	65.161
2160	65.0275
2156	64.9506
2152	64.9872
2148	65.135
2144	65.2165
2140	65.2195
2136	65.2378
2132	65.2865
2128	65.2892
2124	65.2657
2120	65.301
2116	65.2949
2112	65.2329
2108	65.1844
2104	65.1797
2100	65.1859
2096	65.1502
2092	65.1252
2088	65.1386
2084	65.1776
2080	65.1482
2076	65.0538
2072	65.0362
2068	65.1678
2064	65.3833
2060	65.4569
2056	65.3237
2052	65.1711
2048	65.0831
2044	65.0459
2040	65.08
2036	65.1433
2032	65.1909
2028	65.1909
2024	65.153
2020	65.1453
2016	65.1637
2012	65.1837
2008	65.2335
2004	65.3128
2000	65.3936
1996	65.3872
1992	65.2456
1988	65.1445
1984	65.1784
1980	65.2375
1976	65.2568
1972	65.2383
1968	65.2015
1964	65.2033
1960	65.2395
1956	65.2476
1952	65.2428
1948	65.2459
1944	65.2494
1940	65.257
1936	65.2774
1932	65.3033
1928	65.3084
1924	65.2816
1920	65.2193
1916	65.1572
1912	65.1287
1908	65.114
1904	65.0955
1900	65.0738
1896	65.0799
1892	65.1129
1888	65.1774
1884	65.2631
1880	65.2818
1876	65.2372
1872	65.1805
1868	65.1438
1864	65.1671
1860	65.1773
1856	65.1306
1852	65.1466
1848	65.2454
1844	65.2595
1840	65.1698
1836	65.1316
1832	65.1519
1828	65.1688
1824	65.1963
1820	65.2339
1816	65.2291
1812	65.2005
1808	65.1635
1804	65.1202
1800	65.1008
1796	65.0835
1792	65.1022
1788	65.1807
1784	65.2121
1780	65.1233
1776	65.0025
1772	64.995
1768	65.0951
1764	65.1602
1760	65.1709
1756	65.1769
1752	65.108
1748	64.9858
1744	64.9239
1740	64.9115
1736	64.9363
1732	64.9756
1728	64.9885
1724	65.0164
1720	65.065
1716	65.1111
1712	65.1453
1708	65.1385
1704	65.1325
1700	65.2319
1696	65.3362
1692	65.3044
1688	65.2204
1684	65.133
1680	65.0926
1676	65.1195
1672	65.1178
1668	65.0916
1664	65.0942
1660	65.0926
1656	65.032
1652	64.9982
1648	65.0434
1644	65.0507
1640	65.0001
1636	65.0058
1632	65.0703
1628	65.0866
1624	65.0685
1620	65.0575
1616	65.0182
1612	64.9864
1608	65.0187
1604	65.0339
1600	64.9993
1596	65.0306
1592	65.1002
1588	65.1352
1584	65.175
1580	65.1449
1576	65.0124
1572	64.9233
1568	64.9037
1564	64.9258
1560	64.9895
1556	65.0064
1552	64.9287
1548	64.8564
1544	64.9021
1540	64.9991
1536	65.045
1532	65.054
1528	65.0155
1524	64.9385
1520	64.9086
1516	64.9405
1512	65.0054
1508	65.0715
1504	65.1029
1500	65.0837
1496	65.0512
1492	65.0371
1488	65.0724
1484	65.1562
1480	65.1512
1476	65.0815
1472	65.0316
1468	64.9366
1464	64.8089
1460	64.7935
1456	64.9314
1452	65.0723
1448	65.1494
1444	65.1329
1440	64.9996
1436	64.9184
1432	64.9442
1428	64.9279
1424	64.8804
1420	64.905
1416	64.9644
1412	65.0176
1408	65.0389
1404	65.0116
1400	65.0034
1396	65.0345
1392	65.0507
1388	65.0638
1384	65.0643
1380	64.9777
1376	64.8968
1372	64.9029
1368	64.8974
1364	64.902
1360	64.9711
1356	65.0079
1352	64.9453
1348	64.8676
1344	64.8608
1340	64.8664
1336	64.8877
1332	64.936
1328	64.9523
1324	64.9718
1320	64.9494
1316	64.8433
1312	64.7974
1308	64.8895
1304	64.9838
1300	64.9471
1296	64.8986
1292	64.9404
1288	64.9203
1284	64.8604
1280	64.9186
1276	64.9606
1272	64.905
1268	64.9041
1264	64.94
1260	64.9155
1256	64.8921
1252	64.9131
1248	64.929
1244	64.9212
1240	64.9221
1236	64.9031
1232	64.8319
1228	64.7931
1224	64.8466
1220	64.9492
1216	64.9736
1212	64.8726
1208	64.7468
1204	64.6844
1200	64.7266
1196	64.743
1192	64.7092
1188	64.715
1184	64.7222
1180	64.7607
1176	64.8238
1172	64.8491
1168	64.8034
1164	64.7375
1160	64.7792
1156	64.8652
1152	64.8862
1148	64.8303
1144	64.7553
1140	64.7746
1136	64.8161
1132	64.741
1128	64.6468
1124	64.6432
1120	64.6991
1116	64.7044
1112	64.6584
1108	64.7529
1104	64.9094
1100	64.9202
1096	64.8324
1092	64.7922
1088	64.8736
1084	64.8846
1080	64.6389
1076	64.3682
1072	64.3252
1068	64.4445
1064	64.6291
1060	64.7577
1056	64.7469
1052	64.8195
1048	64.8859
1044	64.6865
1040	64.4482
1036	64.3712
1032	64.5041
1028	64.6387
1024	64.6767
1020	64.9627
1016	65.4295
1012	65.5397
1008	65.1031
1004	64.5939
1000	64.4356
996	 64.3789
992	 64.4126
988	 64.8344
984	 65.1717
980	 64.9209
976	 64.5744
972	 64.5447
968	 64.5057
964	 64.3374
960	 64.3208
956	 64.5627
952	 64.7504
948	 64.6409
944	 64.5033
940	 64.4434
936	 64.4906
932	 64.6016
928	 64.4926
924	 64.3468
920	 64.4585
916	 64.5945
912	 64.5053
908	 64.3853
904	 64.3986
900	 64.4556
896	 64.5378
892	 64.5489
888	 64.4336
884	 64.438
880	 64.5561
876	 64.5125
872	 64.3535
868	 64.3289
864	 64.4995
860	 64.5369
856	 64.3673
852	 64.3594
848	 64.448
844	 64.3453
840	 64.1749
836	 64.1706
832	 64.2251
828	 64.1406
824	 64.0622
820	 64.0418
816	 63.9062
812	 63.7631
808	 63.7353
804	 63.7466
800	 63.7981
796	 63.8576
792	 63.8364
788	 63.7904
784	 63.8353
780	 63.9481
776	 63.9482
772	 63.8494
768	 63.8225
764	 63.9685
760	 64.1268
756	 63.9857
752	 63.6976
748	 63.5455
744	 63.4966
740	 63.4477
736	 63.3703
732	 63.3285
728	 63.3136
724	 63.3317
720	 63.4084
716	 63.4421
712	 63.4117
708	 63.3896
704	 63.4194
700	 63.406
696	 63.1462
692	 62.8275
688	 62.8311
684	 62.9304
680	 62.7727
676	 62.5768
672	 62.7008
668	 63.0623
664	 63.1914
660	 63.005
656	 62.7869
652	 62.5239
648	 62.3573
644	 62.4301
640	 62.5611
636	 62.7283
632	 62.9096
628	 62.9729
624	 62.8505
620	 62.5261
616	 62.157
612	 62.0192
608	 61.9819
604	 61.9657
600	 62.1986
596	 62.4422
592	 62.4298
588	 62.2928
584	 62.2515
580	 62.3378
576	 62.364
572	 62.1552
568	 61.9062
564	 61.8981
560	 62.1093
556	 62.3191
552	 62.2407
548	 62.0186
544	 61.7677
540	 61.2708
536	 60.8648
532	 60.7964
528	 60.8534
524	 61.0165
520	 61.2618
516	 61.1675
512	 60.9505
508	 61.1297
504	 61.1567
500	 60.8546
496	 60.4789
492	 60.0356
488	 60.0456
484	 60.5835
480	 60.7598
476	 60.3293
472	 59.9737
468	 59.742
464	 59.3264
460	 58.4603
456	 57.2976
452	 56.8617
448	 57.6937
444	 59.2084
440	 60.4075
436	 61.1297
432	 60.7776
428	 58.7966
424	 56.5457
420	 54.5925
416	 53.2421
412	 53.6516
408	 53.9245
404	 47.2816
400	 39.498
396	 43.5211
392	 62.937
388	 84.8338
384	 80.5955
380	 68.3991
376	 58.4136
372	 56.9897
370	 52.574