File: Bakgrunnsmateriale/MATLAB/FTIR/ftir_data/subBb/Mapping_121/C-4040-8_t15.asc
PE IR       SPECTRUM    SPECTRUM    ASCII       PEDS        1.60
  -1
C-B92E~1.ASC
17/03/27
15:40:46.00
17/03/27
15:41:13.00
tln
$C-4040-8_t0015$<tbV0>[5.2,-10.4,8.0,0.0,27,1,0]
27.028
64

2002,4.07
MIRTGS : RIGHTBACK : INTERNAL 2
MIR : ON : INTERNAL 2
OPTKBR

0.200000
8
8.000000
FILLER
RATIO
SPECTRUM
UNLOCKED 256

DOUBLE
64
COMBINED
1
0
0

0.002000
RATIO

1
0
TRUE
51149
0
LEFT NOT FITTED RIGHT NOT FITTED 0
NONE
NONE
15600
12
4.427000
51148
TRUE
1 0 8 72 0 0 0 0

15798

#HDR
-1
-1
#GR
µM
%T
2.38419e-05
0.0
2.000000
0.002000
12515
8
79.1662
0.604295
#DATA
2.000000	 63.2925
2.018000	 63.0109
2.036000	 63.8302
2.054000	 63.4732
2.072000	 63.2833
2.090000	 63.8389
2.108000	 63.64
2.126000	 63.9136
2.144000	 63.2705
2.162000	 63.5353
2.180000	 63.2429
2.198000	 63.2086
2.216000	 62.5795
2.234000	 63.1573
2.252000	 66.1534
2.270000	 60.8182
2.288000	 63.6982
2.306000	 62.3782
2.324000	 62.2176
2.342000	 62.3489
2.360000	 62.1456
2.378000	 62.8475
2.396000	 61.7984
2.414000	 62.4269
2.432000	 62.376
2.450000	 62.7149
2.468000	 62.7001
2.486000	 62.7332
2.504000	 62.5826
2.522000	 62.3766
2.540000	 62.3302
2.558000	 62.2348
2.576000	 61.9489
2.594000	 62.3254
2.612000	 62.0429
2.630000	 62.1771
2.648000	 61.581
2.666000	 62.3489
2.684000	 61.7417
2.702000	 61.5829
2.720000	 61.7835
2.738000	 61.7806
2.756000	 61.497
2.774000	 61.2412
2.792000	 61.2014
2.810000	 61.1125
2.828000	 60.9915
2.846000	 60.6627
2.864000	 60.6378
2.882000	 60.5451
2.900000	 60.5792
2.918000	 60.3526
2.936000	 60.1831
2.954000	 60.1369
2.972000	 60.1347
2.990000	 59.9503
3.008000	 59.9159
3.026000	 59.8569
3.044000	 59.6699
3.062000	 59.3731
3.080000	 59.3536
3.098000	 59.2539
3.116000	 59.3224
3.134000	 59.0055
3.152000	 58.8752
3.170000	 59.0244
3.188000	 58.6354
3.206000	 58.8519
3.224000	 58.5472
3.242000	 58.6102
3.260000	 58.5172
3.278000	 58.1916
3.296000	 58.1455
3.314000	 58.2425
3.332000	 57.8715
3.350000	 57.8787
3.368000	 57.5539
3.386000	 57.3773
3.404000	 57.2884
3.422000	 57.1273
3.440000	 57.0526
3.458000	 57.2022
3.476000	 56.9728
3.494000	 56.9845
3.512000	 56.7696
3.530000	 56.5827
3.548000	 56.6158
3.566000	 56.4709
3.584000	 56.4491
3.602000	 56.2823
3.620000	 56.1621
3.638000	 56.157
3.656000	 56.0236
3.674000	 55.7823
3.692000	 55.7405
3.710000	 55.8298
3.728000	 55.5552
3.746000	 55.4904
3.764000	 55.1484
3.782000	 55.1416
3.800000	 55.1841
3.818000	 54.9942
3.836000	 54.7374
3.854000	 54.7776
3.872000	 54.6218
3.890000	 54.5879
3.908000	 54.2855
3.926000	 54.4042
3.944000	 54.2138
3.962000	 54.061
3.980000	 54.2725
3.998000	 53.8285
4.016000	 53.7683
4.034000	 53.6196
4.052000	 53.5958
4.070000	 53.4631
4.088000	 53.4381
4.106000	 53.4445
4.124000	 53.2737
4.141999	 53.0307
4.160000	 52.9475
4.178000	 52.9527
4.196000	 52.9393
4.214000	 52.8959
4.232000	 52.7836
4.250000	 52.5367
4.268000	 52.5277
4.286000	 52.3501
4.304000	 52.196
4.322000	 52.0936
4.340000	 52.1454
4.358000	 51.8527
4.375999	 51.8889
4.394000	 51.7304
4.412000	 51.638
4.430000	 51.6646
4.448000	 51.4379
4.466000	 51.2494
4.484000	 51.2363
4.502000	 51.2357
4.520000	 51.1597
4.538000	 51.0973
4.556000	 50.9698
4.574000	 50.8113
4.592000	 50.626
4.609999	 50.5614
4.628000	 50.6008
4.646000	 50.4588
4.664000	 50.3916
4.682000	 50.3665
4.700000	 50.207
4.718000	 50.1468
4.736000	 49.953
4.754000	 49.9873
4.772000	 49.8558
4.790000	 49.7775
4.808000	 49.6941
4.826000	 49.5885
4.843999	 49.6025
4.862000	 49.4203
4.880000	 49.2981
4.898000	 49.2936
4.916000	 49.2472
4.934000	 49.1412
4.952000	 49.093
4.970000	 49.0212
4.988000	 48.8783
5.006000	 48.7636
5.024000	 48.8251
5.042000	 48.723
5.060000	 48.519
5.077999	 48.5071
5.096000	 48.447
5.114000	 48.1886
5.132000	 48.1576
5.150000	 48.2154
5.168000	 48.1394
5.186000	 48.0802
5.204000	 47.9817
5.222000	 47.8882
5.240000	 47.8095
5.258000	 47.6958
5.276000	 47.6372
5.294000	 47.6255
5.312000	 47.5065
5.330000	 47.3497
5.348000	 47.4099
5.366000	 47.3591
5.384000	 47.257
5.402000	 47.2089
5.420000	 47.1485
5.438000	 46.9594
5.456000	 46.9888
5.474000	 47.0072
5.492000	 46.8663
5.510000	 46.8037
5.528000	 46.7641
5.546000	 46.671
5.564000	 46.6058
5.582000	 46.5578
5.600000	 46.5209
5.618000	 46.4014
5.636000	 46.361
5.654000	 46.3349
5.672000	 46.2435
5.690000	 46.19
5.708000	 46.0631
5.726000	 45.9788
5.744000	 45.9828
5.762000	 46.0064
5.780000	 45.7846
5.798000	 45.5591
5.816000	 45.6634
5.834000	 45.6413
5.852000	 45.4784
5.870000	 45.6515
5.888000	 45.7237
5.906000	 45.5165
5.923999	 45.4553
5.942000	 45.3633
5.960000	 45.2906
5.978000	 45.3356
5.996000	 45.1883
6.014000	 45.0587
6.032000	 45.1726
6.050000	 45.3282
6.068000	 45.1937
6.086000	 44.906
6.104000	 44.765
6.122000	 44.662
6.140000	 44.5168
6.158000	 44.5275
6.176000	 44.5648
6.194000	 44.4911
6.212000	 44.3923
6.230000	 44.4195
6.248000	 44.3791
6.266000	 44.2607
6.284000	 44.178
6.302000	 44.0886
6.320000	 44.0316
6.338000	 44.0345
6.356000	 43.9505
6.374000	 43.8764
6.392000	 43.9608
6.410000	 44.0867
6.428000	 43.9697
6.446000	 43.7494
6.464000	 43.7392
6.482000	 43.8553
6.500000	 43.7443
6.518000	 43.5144
6.536000	 43.4859
6.554000	 43.5946
6.572000	 43.621
6.590000	 43.5381
6.608000	 43.4934
6.626000	 43.4817
6.644000	 43.3494
6.662000	 43.1223
6.680000	 42.9672
6.698000	 42.8964
6.716000	 42.8807
6.734000	 42.8633
6.752000	 42.8269
6.770000	 42.867
6.788000	 42.9436
6.806000	 42.9326
6.824000	 42.8712
6.842000	 42.7882
6.860000	 42.653
6.878000	 42.5198
6.896000	 42.4749
6.914000	 42.4558
6.932000	 42.3826
6.950000	 42.3771
6.968000	 42.4302
6.986000	 42.3654
7.004000	 42.2381
7.022000	 42.1909
7.040000	 42.1789
7.058000	 42.0995
7.076000	 41.9872
7.094000	 41.9344
7.112000	 41.9403
7.130000	 41.9554
7.148000	 41.9816
7.166000	 42.0074
7.184000	 41.9558
7.202000	 41.8137
7.220000	 41.6857
7.238000	 41.6531
7.256000	 41.6832
7.274000	 41.6909
7.292000	 41.6427
7.310000	 41.5758
7.328000	 41.5118
7.346000	 41.4262
7.364000	 41.3349
7.382000	 41.2917
7.400000	 41.2951
7.418000	 41.3176
7.436000	 41.3575
7.454000	 41.3792
7.472000	 41.3319
7.490000	 41.2546
7.508000	 41.2131
7.526000	 41.1833
7.544000	 41.127
7.562000	 41.0726
7.580000	 41.0308
7.598000	 40.9635
7.616000	 40.8692
7.634000	 40.7815
7.652000	 40.7097
7.670000	 40.6565
7.688000	 40.6317
7.706000	 40.6208
7.724000	 40.6047
7.742000	 40.5863
7.760000	 40.5641
7.778000	 40.5256
7.796000	 40.4713
7.814000	 40.4065
7.832000	 40.333
7.850000	 40.2684
7.868000	 40.2329
7.886000	 40.2159
7.904000	 40.1904
7.922000	 40.1643
7.940000	 40.161
7.958000	 40.1525
7.976000	 40.0888
7.994000	 39.989
8.012000	 39.9285
8.030000	 39.9313
8.048000	 39.9417
8.065999	 39.9107
8.084000	 39.8556
8.102000	 39.82
8.120000	 39.8048
8.138000	 39.7787
8.155999	 39.7355
8.173999	 39.7066
8.192000	 39.7073
8.210000	 39.7096
8.228000	 39.6775
8.246000	 39.6084
8.263999	 39.5246
8.282000	 39.452
8.300000	 39.4153
8.318000	 39.4255
8.336000	 39.4594
8.353999	 39.4787
8.372000	 39.4714
8.390000	 39.4506
8.408000	 39.4164
8.426000	 39.3568
8.443999	 39.283
8.462000	 39.2261
8.480000	 39.1939
8.498000	 39.1666
8.516000	 39.1327
8.533999	 39.1011
8.552000	 39.0789
8.570000	 39.053
8.588000	 39.006
8.606000	 38.9348
8.624000	 38.8532
8.641999	 38.7828
8.660000	 38.7437
8.678000	 38.7482
8.696000	 38.7924
8.714000	 38.8425
8.731999	 38.8401
8.750000	 38.7439
8.768000	 38.5777
8.786000	 38.4234
8.804000	 38.3525
8.821999	 38.3654
8.840000	 38.4066
8.858000	 38.427
8.876000	 38.4221
8.894000	 38.4154
8.911999	 38.4214
8.930000	 38.4333
8.948000	 38.4394
8.966000	 38.4383
8.984000	 38.4357
9.001999	 38.4313
9.020000	 38.4124
9.038000	 38.3634
9.056000	 38.2772
9.074000	 38.1632
9.092000	 38.0444
9.109999	 37.9529
9.128000	 37.9155
9.146000	 37.9315
9.164000	 37.9676
9.182000	 37.9846
9.199999	 37.9725
9.218000	 37.9553
9.236000	 37.9585
9.254000	 37.9778
9.272000	 37.9845
9.289999	 37.959
9.308000	 37.9088
9.326000	 37.8567
9.344000	 37.8172
9.362000	 37.7898
9.379999	 37.7683
9.398000	 37.7511
9.416000	 37.7395
9.434000	 37.7304
9.452000	 37.7154
9.469999	 37.6888
9.488000	 37.6547
9.506000	 37.6259
9.524000	 37.6137
9.542000	 37.6174
9.560000	 37.622
9.577999	 37.6083
9.596000	 37.5659
9.614000	 37.4985
9.632000	 37.4208
9.650000	 37.3497
9.667999	 37.2983
9.686000	 37.2727
9.704000	 37.271
9.722000	 37.283
9.740000	 37.2948
9.757999	 37.2957
9.776000	 37.283
9.794000	 37.261
9.812000	 37.2348
9.830000	 37.2039
9.847999	 37.1638
9.866000	 37.1127
9.884000	 37.0548
9.902000	 36.9966
9.920000	 36.9411
9.937999	 36.8874
9.956000	 36.8365
9.974000	 36.7952
9.992000	 36.7717
10.01	36.7684
10.028	36.7799
10.046	36.7982
10.064	36.8209
10.082	36.8496
10.1	36.8821
10.118	36.9061
10.136	36.9026
10.154	36.8606
10.172	36.7862
10.19	36.7
10.208	36.6224
10.226	36.5602
10.244	36.5043
10.262	36.4407
10.28	36.363
10.298	36.276
10.316	36.1903
10.334	36.1142
10.352	36.0513
10.37	36.0053
10.388	35.9859
10.406	36.0034
10.424	36.0606
10.442	36.1426
10.46	36.2206
10.478	36.2634
10.496	36.2551
10.514	36.1982
10.532	36.1109
10.55	36.0135
10.568	35.9208
10.586	35.8436
10.604	35.7906
10.622	35.77
10.64	35.7836
10.658	35.819
10.676	35.8458
10.694	35.8306
10.712	35.7516
10.73	35.6179
10.748	35.4677
10.766	35.3532
10.784	35.3137
10.802	35.3585
10.82	35.4646
10.838	35.5867
10.856	35.6823
10.874	35.7212
10.892	35.6927
10.91	35.5968
10.928	35.4413
10.946	35.2393
10.964	35.0103
10.982	34.7821
11	34.5841
11.018	34.4406
11.036	34.363
11.054	34.3502
11.072	34.3912
11.09	34.4715
11.108	34.5774
11.126	34.6944
11.144	34.8084
11.162	34.9049
11.18	34.9737
11.198	35.0127
11.216	35.0286
11.234	35.0323
11.252	35.0323
11.27	35.0287
11.288	35.014
11.306	34.9801
11.324	34.9233
11.342	34.8499
11.36	34.7749
11.378	34.7153
11.396	34.6815
11.414	34.674
11.432	34.6834
11.45	34.6964
11.468	34.7017
11.486	34.6959
11.504	34.6819
11.522	34.6677
11.54	34.6618
11.558	34.668
11.576	34.6853
11.594	34.7071
11.612	34.7238
11.63	34.7269
11.648	34.7121
11.666	34.6804
11.684	34.6383
11.702	34.595
11.72	34.5592
11.738	34.5349
11.756	34.5199
11.774	34.5069
11.792	34.4865
11.81	34.452
11.828	34.402
11.846	34.3409
11.864	34.2775
11.882	34.221
11.9	34.1788
11.918	34.1544
11.936	34.1454
11.954	34.1461
11.972	34.1485
11.99	34.1446
12.008	34.1284
12.026	34.0968
12.044	34.0505
12.062	33.9943
12.08	33.9351
12.098	33.8807
12.116	33.8364
12.134	33.804
12.152	33.7809
12.17	33.7621
12.188	33.7416
12.206	33.7152
12.224	33.681
12.242	33.6394
12.26	33.5914
12.278	33.5386
12.296	33.4821
12.314	33.4237
12.332	33.3666
12.35	33.3157
12.368	33.2773
12.386	33.258
12.404	33.2619
12.422	33.2895
12.44	33.3361
12.458	33.3936
12.476	33.4516
12.494	33.5008
12.512	33.5354
12.53	33.5548
12.548	33.5618
12.566	33.5617
12.584	33.5588
12.602	33.555
12.62	33.5487
12.638	33.5363
12.656	33.5137
12.674	33.4789
12.692	33.4327
12.71	33.3785
12.728	33.3212
12.746	33.2657
12.764	33.2155
12.782	33.1717
12.8	33.1338
12.818	33.1011
12.836	33.0737
12.854	33.0531
12.872	33.0415
12.89	33.0411
12.908	33.0522
12.926	33.0721
12.944	33.0948
12.962	33.1132
12.98	33.1202
12.998	33.1105
13.016	33.0821
13.034	33.0376
13.052	32.9822
13.07	32.9227
13.088	32.8657
13.106	32.8163
13.124	32.7776
13.142	32.7501
13.16	32.7328
13.178	32.7237
13.196	32.7208
13.214	32.7218
13.232	32.7239
13.25	32.7239
13.268	32.7188
13.286	32.7058
13.304	32.6829
13.322	32.6494
13.34	32.6063
13.358	32.5554
13.376	32.4988
13.394	32.438
13.412	32.3735
13.43	32.3045
13.448	32.2294
13.466	32.1469
13.484	32.0563
13.502	31.9584
13.52	31.856
13.538	31.7537
13.556	31.6569
13.574	31.5713
13.592	31.5022
13.61	31.453
13.628	31.4262
13.646	31.422
13.664	31.4392
13.682	31.4757
13.7	31.5281
13.718	31.5916
13.736	31.6607
13.754	31.7291
13.772	31.7909
13.79	31.8407
13.808	31.8744
13.826	31.89
13.844	31.8874
13.862	31.8683
13.88	31.8357
13.898	31.7934
13.916	31.7449
13.934	31.6937
13.952	31.6424
13.97	31.5932
13.988	31.5478
14.006	31.5072
14.024	31.4727
14.042	31.4453
14.06	31.4262
14.078	31.4159
14.096	31.4149
14.114	31.4224
14.132	31.4377
14.15	31.4592
14.168	31.4853
14.186	31.5142
14.204	31.5449
14.222	31.5761
14.24	31.6071
14.258	31.6366
14.276	31.663
14.294	31.6843
14.312	31.6979
14.33	31.701
14.348	31.6907
14.366	31.6647
14.384	31.6217
14.402	31.5618
14.42	31.4869
14.438	31.4
14.456	31.3055
14.474	31.2082
14.492	31.1137
14.51	31.027
14.528	30.9522
14.546	30.8915
14.564	30.846
14.582	30.8152
14.6	30.7972
14.618	30.7894
14.636	30.7883
14.654	30.791
14.672	30.7948
14.69	30.7979
14.708	30.7991
14.726	30.7977
14.744	30.7945
14.762	30.7901
14.78	30.7856
14.798	30.7821
14.816	30.7805
14.834	30.7815
14.852	30.7856
14.87	30.7926
14.888	30.802
14.906	30.8133
14.924	30.8256
14.942	30.8375
14.96	30.8477
14.978	30.855
14.996	30.8583
15.014	30.8565
15.032	30.8488
15.05	30.8347
15.068	30.814
15.086	30.7865
15.104	30.7524
15.122	30.7125
15.14	30.6673
15.158	30.618
15.176	30.5654
15.194	30.5109
15.212	30.4563
15.23	30.4032
15.248	30.3532
15.266	30.308
15.284	30.2694
15.302	30.2386
15.32	30.2167
15.338	30.2043
15.356	30.2017
15.374	30.2083
15.392	30.2228
15.41	30.2436
15.428	30.2685
15.446	30.2946
15.464	30.3192
15.482	30.3397
15.5	30.3537
15.518	30.3588
15.536	30.3538
15.554	30.3383
15.572	30.3122
15.59	30.2764
15.608	30.2325
15.626	30.1822
15.644	30.1275
15.662	30.0708
15.68	30.0139
15.698	29.9583
15.716	29.9058
15.734	29.8572
15.752	29.8129
15.77	29.7732
15.788	29.7378
15.806	29.7062
15.824	29.6779
15.842	29.6519
15.86	29.6273
15.878	29.6033
15.896	29.5789
15.914	29.5531
15.932	29.5251
15.95	29.4944
15.968	29.4606
15.986	29.4234
16.004	29.383
16.022	29.3396
16.04	29.2939
16.058	29.2468
16.076	29.1993
16.094	29.1527
16.112	29.1083
16.13	29.0671
16.148	29.0303
16.166	28.9989
16.184	28.9733
16.202	28.954
16.22	28.9408
16.238	28.9332
16.256	28.9307
16.274	28.932
16.292	28.9359
16.31	28.9415
16.328	28.9469
16.346	28.9511
16.364	28.9533
16.382	28.9521
16.4	28.9474
16.418	28.9388
16.436	28.9264
16.454	28.9108
16.472	28.8927
16.49	28.8733
16.508	28.8539
16.526	28.8355
16.544	28.8196
16.562	28.8073
16.58	28.7993
16.598	28.7965
16.616	28.7985
16.634	28.8055
16.652	28.8164
16.67	28.8303
16.688	28.8461
16.706	28.8618
16.724	28.8764
16.742	28.8886
16.76	28.8968
16.778	28.9006
16.796	28.8992
16.814	28.8927
16.832	28.8812
16.85	28.8652
16.868	28.8456
16.886	28.823
16.904	28.7989
16.922	28.7739
16.94	28.749
16.958	28.7248
16.976	28.7016
16.994	28.6799
17.012	28.6597
17.03	28.6409
17.048	28.6234
17.066	28.6071
17.084	28.5919
17.102	28.5774
17.12	28.5637
17.138	28.5504
17.156	28.5375
17.174	28.525
17.192	28.5123
17.21	28.4995
17.228	28.486
17.246	28.4714
17.264	28.4553
17.282	28.437
17.3	28.4164
17.318	28.3926
17.336	28.3657
17.354	28.3353
17.372	28.3012
17.39	28.2637
17.408	28.2228
17.426	28.1792
17.444	28.1329
17.462	28.085
17.48	28.0359
17.498	27.9869
17.516	27.9388
17.534	27.8924
17.552	27.849
17.57	27.8091
17.588	27.7737
17.606	27.7431
17.624	27.7178
17.642	27.6975
17.66	27.6824
17.678	27.6714
17.696	27.6642
17.714	27.6593
17.732	27.6556
17.75	27.652
17.768	27.6467
17.786	27.6389
17.804	27.6268
17.822	27.61
17.84	27.5874
17.858	27.5589
17.876	27.524
17.894	27.4836
17.912	27.4378
17.93	27.3882
17.948	27.3352
17.966	27.2812
17.984	27.2271
18.002	27.1752
18.02	27.1271
18.038	27.0841
18.056	27.0479
18.074	27.0191
18.092	26.9987
18.11	26.9867
18.128	26.983
18.146	26.9871
18.164	26.9977
18.182	27.0136
18.2	27.0333
18.218	27.0547
18.236	27.0766
18.254	27.0963
18.272	27.1134
18.29	27.1253
18.308	27.1319
18.326	27.1318
18.344	27.1252
18.362	27.112
18.38	27.0927
18.398	27.0682
18.416	27.0396
18.434	27.008
18.452	26.975
18.47	26.9416
18.488	26.9095
18.506	26.8796
18.524	26.853
18.542	26.8301
18.56	26.8116
18.578	26.7977
18.596	26.788
18.614	26.7824
18.632	26.7802
18.65	26.7813
18.668	26.784
18.686	26.7883
18.704	26.7926
18.722	26.7969
18.74	26.7994
18.758	26.7999
18.776	26.797
18.794	26.7906
18.812	26.7794
18.83	26.7633
18.848	26.7415
18.866	26.714
18.884	26.6803
18.902	26.6406
18.92	26.5948
18.938	26.5435
18.956	26.4871
18.974	26.4266
18.992	26.3629
19.01	26.2969
19.028	26.2302
19.046	26.1635
19.064	26.0983
19.082	26.0354
19.1	25.9763
19.118	25.9212
19.136	25.8712
19.154	25.8265
19.172	25.7876
19.19	25.7541
19.208	25.726
19.226	25.7028
19.244	25.6836
19.262	25.6679
19.28	25.6542
19.298	25.6423
19.316	25.6302
19.334	25.618
19.352	25.604
19.37	25.5881
19.388	25.5691
19.406	25.547
19.424	25.5214
19.442	25.492
19.46	25.4592
19.478	25.4226
19.496	25.383
19.514	25.3406
19.532	25.2959
19.55	25.2492
19.568	25.2012
19.586	25.1525
19.604	25.1033
19.622	25.0544
19.64	25.006
19.658	24.9591
19.676	24.9135
19.694	24.8702
19.712	24.829
19.73	24.791
19.748	24.7561
19.766	24.7251
19.784	24.6981
19.802	24.6758
19.82	24.6586
19.838	24.6468
19.856	24.6409
19.874	24.641
19.892	24.6478
19.91	24.6611
19.928	24.6812
19.946	24.708
19.964	24.7411
19.982	24.7805
20	24.8249
20.018	24.8741
20.036	24.9268
20.054	24.9812
20.072	25.0373
20.09	25.0916
20.108	25.1446
20.126	25.1925
20.144	25.2355
20.162	25.2708
20.18	25.2972
20.198	25.314
20.216	25.3191
20.234	25.313
20.252	25.2947
20.27	25.2641
20.288	25.2225
20.306	25.1694
20.324	25.1071
20.342	25.0365
20.36	24.9589
20.378	24.878
20.396	24.7933
20.414	24.7098
20.432	24.6269
20.45	24.5484
20.468	24.4758
20.486	24.4097
20.504	24.3529
20.522	24.3046
20.54	24.2662
20.558	24.2377
20.576	24.2182
20.594	24.2079
20.612	24.2054
20.63	24.2087
20.648	24.2183
20.666	24.2304
20.684	24.2456
20.702	24.2613
20.72	24.2759
20.738	24.2896
20.756	24.2999
20.774	24.3075
20.792	24.3115
20.81	24.3115
20.828	24.3083
20.846	24.3022
20.864	24.2931
20.882	24.2829
20.9	24.2712
20.918	24.2593
20.936	24.2483
20.954	24.2379
20.972	24.2295
20.99	24.223
21.008	24.2182
21.026	24.2157
21.044	24.2148
21.062	24.2145
21.08	24.2154
21.098	24.2153
21.116	24.2141
21.134	24.211
21.152	24.2038
21.17	24.1931
21.188	24.1771
21.206	24.1555
21.224	24.1283
21.242	24.0946
21.26	24.0548
21.278	24.0091
21.296	23.9573
21.314	23.9
21.332	23.8383
21.35	23.7717
21.368	23.702
21.386	23.6294
21.404	23.5544
21.422	23.4787
21.44	23.4018
21.458	23.3248
21.476	23.2481
21.494	23.1716
21.512	23.096
21.53	23.0211
21.548	22.9471
21.566	22.8738
21.584	22.8013
21.602	22.7296
21.62	22.6584
21.638	22.5881
21.656	22.5188
21.674	22.4503
21.692	22.3835
21.71	22.3184
21.728	22.2553
21.746	22.1954
21.764	22.138
21.782	22.0844
21.8	22.0355
21.818	21.9907
21.836	21.9516
21.854	21.9181
21.872	21.8904
21.89	21.8693
21.908	21.8547
21.926	21.8461
21.944	21.8434
21.962	21.8465
21.98	21.8542
21.998	21.8667
22.016	21.8834
22.034	21.9025
22.052	21.9247
22.07	21.9486
22.088	21.973
22.106	21.9985
22.124	22.0233
22.142	22.0473
22.16	22.0704
22.178	22.0913
22.196	22.1102
22.214	22.1269
22.232	22.1408
22.25	22.1523
22.268	22.1607
22.286	22.1658
22.304	22.1677
22.322	22.1654
22.34	22.1592
22.358	22.1486
22.376	22.1321
22.394	22.1104
22.412	22.0825
22.43	22.0468
22.448	22.0042
22.466	21.9532
22.484	21.8925
22.502	21.8228
22.52	21.743
22.538	21.6523
22.556	21.5514
22.574	21.4407
22.592	21.3194
22.61	21.1887
22.628	21.0512
22.646	20.9054
22.664	20.7537
22.682	20.6002
22.7	20.4426
22.718	20.2849
22.736	20.1318
22.754	19.9805
22.772	19.8359
22.79	19.7023
22.808	19.577
22.826	19.4647
22.844	19.3688
22.862	19.287
22.88	19.2223
22.898	19.1762
22.916	19.1476
22.934	19.137
22.952	19.1452
22.97	19.1715
22.988	19.2131
23.006	19.2704
23.024	19.3429
23.042	19.4262
23.06	19.5207
23.078	19.6257
23.096	19.7362
23.114	19.8526
23.132	19.9743
23.15	20.0971
23.168	20.2217
23.186	20.3473
23.204	20.4699
23.222	20.5894
23.24	20.7061
23.258	20.8183
23.276	20.9251
23.294	21.0278
23.312	21.1273
23.33	21.223
23.348	21.3158
23.366	21.4075
23.384	21.4982
23.402	21.5878
23.42	21.6775
23.438	21.7677
23.456	21.8581
23.474	21.9487
23.492	22.0402
23.51	22.132
23.528	22.2228
23.546	22.3126
23.564	22.4016
23.582	22.487
23.6	22.5682
23.618	22.6461
23.636	22.7176
23.654	22.7814
23.672	22.8388
23.69	22.8875
23.708	22.926
23.726	22.9553
23.744	22.9748
23.762	22.9832
23.78	22.9805
23.798	22.9685
23.816	22.9487
23.834	22.919
23.852	22.8829
23.87	22.8453
23.888	22.8043
23.906	22.7614
23.924	22.7212
23.942	22.6838
23.96	22.6486
23.978	22.6186
23.996	22.5945
24.014	22.5752
24.032	22.564
24.05	22.563
24.068	22.5703
24.086	22.5881
24.104	22.6187
24.122	22.6619
24.14	22.7163
24.158	22.7804
24.176	22.8559
24.194	22.9409
24.212	23.0315
24.23	23.1273
24.248	23.2293
24.266	23.3335
24.284	23.4379
24.302	23.5447
24.32	23.6505
24.338	23.752
24.356	23.8501
24.374	23.9451
24.392	24.0367
24.41	24.1251
24.428	24.2102
24.446	24.2909
24.464	24.3666
24.482	24.4377
24.5	24.5046
24.518	24.5681
24.536	24.6297
24.554	24.6858
24.572	24.7326
24.59	24.7733
24.608	24.8057
24.626	24.8216
24.644	24.8191
24.662	24.8032
24.68	24.7623
24.698	24.6862
24.716	24.5849
24.734	24.4488
24.752	24.2618
24.77	24.0238
24.788	23.7389
24.806	23.3958
24.824	22.9854
24.842	22.5127
24.86	21.9789
24.878	21.3836
24.896	20.7222
24.914	19.9999
24.932	19.2277
24.95	18.4086
24.968	17.5339
24.986	16.6229
25.004	15.6952
25.022	14.7362
25.04	13.7559
25.058	12.7819
25.076	11.8236
25.094	10.8645
25.112	9.930069
25.13	9.046193
25.148	8.198539
25.166	7.393095
25.184	6.652149
25.202	5.986945
25.22	5.384735
25.238	4.853958
25.256	4.404011
25.274	4.031476
25.292	3.735765
25.31	3.521654
25.328	3.392339
25.346	3.344975
25.364	3.379217
25.382	3.495092
25.4	3.691579
25.418	3.968728
25.436	4.327712
25.454	4.769097
25.472	5.290755
25.49	5.894507
25.508	6.582891
25.526	7.354476
25.544	8.207693
25.562	9.148579
25.58	10.1827
25.598	11.306
25.616	12.5196
25.634	13.8282
25.652	15.2358
25.67	16.7398
25.688	18.3381
25.706	20.0288
25.724	21.8167
25.742	23.7002
25.76	25.6654
25.778	27.7001
25.796	29.8221
25.814	32.0168
25.832	34.2546
25.85	36.5201
25.868	38.843
25.886	41.1884
25.904	43.5133
25.922	45.8152
25.94	48.1183
25.958	50.3759
25.976	52.5413
25.994	54.6374
26.012	56.6647
26.03	58.5776
26.048	60.3372
26.066	61.9755
26.084	63.4798
26.102	64.8177
26.12	65.9677
26.138	66.9536
26.156	67.7643
26.174	68.3835
26.192	68.7992
26.21	69.0196
26.228	69.0576
26.246	68.926
26.264	68.6172
26.282	68.1292
26.3	67.4882
26.318	66.7196
26.336	65.8048
26.354	64.7484
26.372	63.5849
26.39	62.346
26.408	61.0076
26.426	59.5778
26.444	58.0864
26.462	56.5578
26.48	54.9685
26.498	53.3298
26.516	51.6656
26.534	49.994
26.552	48.2995
26.57	46.5864
26.588	44.8648
26.606	43.1417
26.624	41.4112
26.642	39.6739
26.66	37.9315
26.678	36.1863
26.696	34.4392
26.714	32.6856
26.732	30.9206
26.75	29.1415
26.768	27.3517
26.786	25.55
26.804	23.7344
26.822	21.903
26.84	20.0558
26.858	18.1962
26.876	16.3275
26.894	14.4483
26.912	12.5524
26.93	10.652
26.948	8.760595
26.966	6.804980
26.984	4.655995
27.002	2.620190
27.02	1.031465
27.028	0.604295