File: Bakgrunnsmateriale/MATLAB/FTIR/ftir_data/subBb/Mapping_121/C-4040-8_t73.asc
PE IR       SPECTRUM    SPECTRUM    ASCII       PEDS        1.60
  -1
C-A146~1.ASC
17/03/27
20:30:29.00
17/03/27
20:30:55.00
tln
$C-4040-8_t0073$<tbV0>[-2.6,2.6,8.0,0.0,27,1,0]
27.028
64

2002,4.07
MIRTGS : RIGHTBACK : INTERNAL 2
MIR : ON : INTERNAL 2
OPTKBR

0.200000
8
8.000000
FILLER
RATIO
SPECTRUM
UNLOCKED 256

DOUBLE
64
COMBINED
1
0
0

0.002000
RATIO

1
0
TRUE
51149
0
LEFT NOT FITTED RIGHT NOT FITTED 0
NONE
NONE
15600
12
4.427000
51148
TRUE
1 0 8 72 0 0 0 0

15798

#HDR
-1
-1
#GR
µM
%T
2.38419e-05
0.0
2.000000
0.002000
12515
8
114.414
39.7392
#DATA
2.000000	 64.7812
2.018000	 65.1378
2.036000	 65.5079
2.054000	 65.0487
2.072000	 64.7604
2.090000	 64.9721
2.108000	 64.9687
2.126000	 64.7395
2.144000	 65.2714
2.162000	 64.9813
2.180000	 65.2412
2.198000	 64.9443
2.216000	 64.8831
2.234000	 64.6807
2.252000	 65.2192
2.270000	 64.4291
2.288000	 68.8904
2.306000	 65.75
2.324000	 64.8119
2.342000	 64.6795
2.360000	 64.957
2.378000	 65.5379
2.396000	 65.4495
2.414000	 64.97
2.432000	 65.0576
2.450000	 65.0071
2.468000	 65.0676
2.486000	 65.3567
2.504000	 65.055
2.522000	 65.292
2.540000	 64.9988
2.558000	 65.2234
2.576000	 64.9582
2.594000	 64.9064
2.612000	 65.2091
2.630000	 65.319
2.648000	 65.2065
2.666000	 65.0365
2.684000	 65.3153
2.702000	 64.9773
2.720000	 65.2902
2.738000	 65.1308
2.756000	 65.2055
2.774000	 65.3053
2.792000	 65.471
2.810000	 65.1408
2.828000	 65.2902
2.846000	 65.3128
2.864000	 65.2195
2.882000	 65.0755
2.900000	 65.3587
2.918000	 65.1434
2.936000	 65.1613
2.954000	 65.1641
2.972000	 65.0684
2.990000	 65.0902
3.008000	 65.1083
3.026000	 65.1519
3.044000	 65.1282
3.062000	 65.2733
3.080000	 65.3457
3.098000	 65.284
3.116000	 65.1492
3.134000	 65.1847
3.152000	 64.9914
3.170000	 65.2523
3.188000	 65.3363
3.206000	 65.2026
3.224000	 65.3444
3.242000	 65.2724
3.260000	 65.2632
3.278000	 65.3881
3.296000	 65.3621
3.314000	 65.3295
3.332000	 65.2169
3.350000	 65.1109
3.368000	 64.915
3.386000	 65.0525
3.404000	 65.1147
3.422000	 65.0753
3.440000	 65.0951
3.458000	 65.2152
3.476000	 65.144
3.494000	 65.1955
3.512000	 64.9804
3.530000	 65.1925
3.548000	 65.3179
3.566000	 65.26
3.584000	 65.2132
3.602000	 65.2133
3.620000	 65.2621
3.638000	 65.44
3.656000	 65.3054
3.674000	 65.2436
3.692000	 65.4139
3.710000	 65.4345
3.728000	 65.1881
3.746000	 65.3228
3.764000	 65.3502
3.782000	 65.3564
3.800000	 65.3935
3.818000	 65.3107
3.836000	 65.2222
3.854000	 65.1647
3.872000	 65.2634
3.890000	 65.2475
3.908000	 65.3499
3.926000	 65.2726
3.944000	 65.2087
3.962000	 65.2212
3.980000	 65.3613
3.998000	 65.1921
4.016000	 65.138
4.034000	 65.3999
4.052000	 65.4253
4.070000	 65.3881
4.088000	 65.4114
4.106000	 65.3755
4.124000	 65.0888
4.141999	 65.6804
4.160000	 65.2023
4.178000	 65.3236
4.196000	 65.2904
4.214000	 65.1338
4.232000	 65.3157
4.250000	 65.2539
4.268000	 65.3269
4.286000	 65.3735
4.304000	 65.2725
4.322000	 65.3899
4.340000	 65.3598
4.358000	 65.2768
4.375999	 65.381
4.394000	 65.2883
4.412000	 65.2783
4.430000	 65.3661
4.448000	 65.325
4.466000	 65.4421
4.484000	 65.353
4.502000	 65.3578
4.520000	 65.2962
4.538000	 65.3433
4.556000	 65.5077
4.574000	 65.3778
4.592000	 65.3719
4.609999	 65.402
4.628000	 65.3575
4.646000	 65.0284
4.664000	 65.182
4.682000	 65.4511
4.700000	 65.3716
4.718000	 65.3085
4.736000	 65.3584
4.754000	 65.3568
4.772000	 65.4145
4.790000	 65.6868
4.808000	 65.7028
4.826000	 65.5117
4.843999	 65.2442
4.862000	 65.275
4.880000	 65.4318
4.898000	 65.2923
4.916000	 65.2772
4.934000	 65.1895
4.952000	 65.3513
4.970000	 65.3702
4.988000	 65.2985
5.006000	 65.2352
5.024000	 65.2181
5.042000	 65.2619
5.060000	 65.2943
5.077999	 65.3589
5.096000	 65.4616
5.114000	 65.3852
5.132000	 65.3453
5.150000	 65.1923
5.168000	 65.2022
5.186000	 65.392
5.204000	 65.4457
5.222000	 65.3687
5.240000	 65.3796
5.258000	 65.4017
5.276000	 65.4509
5.294000	 65.4318
5.312000	 65.3971
5.330000	 65.3734
5.348000	 65.4035
5.366000	 65.3273
5.384000	 65.3621
5.402000	 65.3585
5.420000	 65.2637
5.438000	 65.3145
5.456000	 65.3562
5.474000	 65.3772
5.492000	 65.4832
5.510000	 65.4392
5.528000	 65.3564
5.546000	 65.3316
5.564000	 65.3361
5.582000	 65.2889
5.600000	 65.4193
5.618000	 65.421
5.636000	 65.3701
5.654000	 65.3566
5.672000	 65.3697
5.690000	 65.3665
5.708000	 65.2425
5.726000	 65.1778
5.744000	 65.1188
5.762000	 65.1699
5.780000	 65.3029
5.798000	 65.1757
5.816000	 65.1522
5.834000	 65.2839
5.852000	 65.1765
5.870000	 65.1995
5.888000	 65.3394
5.906000	 65.2986
5.923999	 65.306
5.942000	 65.3286
5.960000	 65.27
5.978000	 65.2882
5.996000	 65.35
6.014000	 65.3266
6.032000	 65.3084
6.050000	 65.343
6.068000	 65.4352
6.086000	 65.4286
6.104000	 65.2476
6.122000	 65.1293
6.140000	 65.1694
6.158000	 65.1649
6.176000	 65.1588
6.194000	 65.1874
6.212000	 65.1192
6.230000	 65.0638
6.248000	 65.0957
6.266000	 65.0563
6.284000	 65.0523
6.302000	 65.1243
6.320000	 65.1582
6.338000	 65.1864
6.356000	 65.1541
6.374000	 65.0691
6.392000	 64.9876
6.410000	 64.9479
6.428000	 65.005
6.446000	 65.0289
6.464000	 65.0111
6.482000	 65.0018
6.500000	 65.0285
6.518000	 65.1015
6.536000	 65.1561
6.554000	 65.1772
6.572000	 65.1441
6.590000	 65.1135
6.608000	 65.1582
6.626000	 65.228
6.644000	 65.2347
6.662000	 65.2113
6.680000	 65.1985
6.698000	 65.2013
6.716000	 65.2188
6.734000	 65.2055
6.752000	 65.1918
6.770000	 65.2012
6.788000	 65.2007
6.806000	 65.1775
6.824000	 65.1576
6.842000	 65.131
6.860000	 65.0598
6.878000	 64.9827
6.896000	 64.9826
6.914000	 65.084
6.932000	 65.242
6.950000	 65.3345
6.968000	 65.2518
6.986000	 65.1042
7.004000	 65.0409
7.022000	 65.0692
7.040000	 65.1748
7.058000	 65.2716
7.076000	 65.248
7.094000	 65.1313
7.112000	 64.9849
7.130000	 64.9155
7.148000	 65.0306
7.166000	 65.1794
7.184000	 65.1554
7.202000	 65.0462
7.220000	 65.0198
7.238000	 65.0688
7.256000	 65.092
7.274000	 65.031
7.292000	 64.963
7.310000	 65.0041
7.328000	 65.0874
7.346000	 65.083
7.364000	 65.0187
7.382000	 64.9703
7.400000	 64.9543
7.418000	 64.9647
7.436000	 64.9988
7.454000	 65.0746
7.472000	 65.1778
7.490000	 65.226
7.508000	 65.1944
7.526000	 65.1507
7.544000	 65.1317
7.562000	 65.107
7.580000	 65.0559
7.598000	 65.0175
7.616000	 65.0527
7.634000	 65.1371
7.652000	 65.1646
7.670000	 65.1036
7.688000	 65.0458
7.706000	 65.0597
7.724000	 65.1062
7.742000	 65.1274
7.760000	 65.1203
7.778000	 65.1036
7.796000	 65.0836
7.814000	 65.0663
7.832000	 65.0608
7.850000	 65.0608
7.868000	 65.0461
7.886000	 65.0107
7.904000	 64.9802
7.922000	 64.9802
7.940000	 65.0004
7.958000	 65.0172
7.976000	 65.0226
7.994000	 65.0068
8.012000	 64.9576
8.030000	 64.9029
8.048000	 64.8963
8.065999	 64.948
8.084000	 65.016
8.102000	 65.0622
8.120000	 65.0818
8.138000	 65.0813
8.155999	 65.0667
8.173999	 65.0491
8.192000	 65.0399
8.210000	 65.0431
8.228000	 65.0579
8.246000	 65.0824
8.263999	 65.1104
8.282000	 65.1297
8.300000	 65.1247
8.318000	 65.0824
8.336000	 65.0099
8.353999	 64.947
8.372000	 64.9415
8.390000	 64.9952
8.408000	 65.0592
8.426000	 65.0879
8.443999	 65.0803
8.462000	 65.0563
8.480000	 65.0139
8.498000	 64.9373
8.516000	 64.8371
8.533999	 64.7634
8.552000	 64.7669
8.570000	 64.8446
8.588000	 64.9365
8.606000	 64.9863
8.624000	 64.9896
8.641999	 64.9704
8.660000	 64.9338
8.678000	 64.8719
8.696000	 64.8033
8.714000	 64.7729
8.731999	 64.8052
8.750000	 64.878
8.768000	 64.9463
8.786000	 64.9759
8.804000	 64.963
8.821999	 64.9322
8.840000	 64.9185
8.858000	 64.9392
8.876000	 64.9782
8.894000	 65.0004
8.911999	 64.9834
8.930000	 64.9319
8.948000	 64.869
8.966000	 64.8221
8.984000	 64.8132
9.001999	 64.8508
9.020000	 64.9237
9.038000	 65.0032
9.056000	 65.058
9.074000	 65.0704
9.092000	 65.0412
9.109999	 64.9858
9.128000	 64.9278
9.146000	 64.8861
9.164000	 64.8639
9.182000	 64.8485
9.199999	 64.8297
9.218000	 64.8169
9.236000	 64.8377
9.254000	 64.9067
9.272000	 64.9945
9.289999	 65.0371
9.308000	 64.9893
9.326000	 64.8708
9.344000	 64.7527
9.362000	 64.6971
9.379999	 64.7125
9.398000	 64.7674
9.416000	 64.8332
9.434000	 64.9009
9.452000	 64.9602
9.469999	 64.979
9.488000	 64.9245
9.506000	 64.8072
9.524000	 64.6931
9.542000	 64.654
9.560000	 64.7087
9.577999	 64.8123
9.596000	 64.9016
9.614000	 64.9393
9.632000	 64.9231
9.650000	 64.8701
9.667999	 64.8042
9.686000	 64.7472
9.704000	 64.7087
9.722000	 64.6803
9.740000	 64.6409
9.757999	 64.579
9.776000	 64.5142
9.794000	 64.4961
9.812000	 64.5686
9.830000	 64.7266
9.847999	 64.9086
9.866000	 65.0386
9.884000	 65.0806
9.902000	 65.0568
9.920000	 65.0208
9.937999	 65.0087
9.956000	 65.0177
9.974000	 65.0276
9.992000	 65.0303
10.01	65.0421
10.028	65.0816
10.046	65.1415
10.064	65.188
10.082	65.1809
10.1	65.1013
10.118	64.9655
10.136	64.8167
10.154	64.7026
10.172	64.6587
10.19	64.6994
10.208	64.8174
10.226	64.9943
10.244	65.2059
10.262	65.4275
10.28	65.6314
10.298	65.7782
10.316	65.8187
10.334	65.7201
10.352	65.4931
10.37	65.2021
10.388	64.9416
10.406	64.7878
10.424	64.7661
10.442	64.8389
10.46	64.9378
10.478	64.9983
10.496	64.9941
10.514	64.9381
10.532	64.8663
10.55	64.8151
10.568	64.8049
10.586	64.8331
10.604	64.8806
10.622	64.9224
10.64	64.9441
10.658	64.9475
10.676	64.9477
10.694	64.9616
10.712	64.9988
10.73	65.0542
10.748	65.1143
10.766	65.1605
10.784	65.1772
10.802	65.1545
10.82	65.0885
10.838	64.982
10.856	64.846
10.874	64.7013
10.892	64.5714
10.91	64.4778
10.928	64.4309
10.946	64.4301
10.964	64.4651
10.982	64.5208
11	64.5824
11.018	64.6357
11.036	64.6711
11.054	64.6835
11.072	64.6746
11.09	64.6522
11.108	64.6271
11.126	64.6093
11.144	64.6022
11.162	64.602
11.18	64.6005
11.198	64.5903
11.216	64.5704
11.234	64.5469
11.252	64.5309
11.27	64.5312
11.288	64.5499
11.306	64.581
11.324	64.6126
11.342	64.6324
11.36	64.6345
11.378	64.6216
11.396	64.6032
11.414	64.5916
11.432	64.5962
11.45	64.6194
11.468	64.6567
11.486	64.6999
11.504	64.7397
11.522	64.7675
11.54	64.7772
11.558	64.7653
11.576	64.731
11.594	64.6771
11.612	64.6102
11.63	64.5393
11.648	64.4737
11.666	64.4214
11.684	64.3883
11.702	64.3774
11.72	64.3887
11.738	64.4212
11.756	64.472
11.774	64.5357
11.792	64.6039
11.81	64.6664
11.828	64.7124
11.846	64.7327
11.864	64.7238
11.882	64.6887
11.9	64.6376
11.918	64.5845
11.936	64.5434
11.954	64.525
11.972	64.5336
11.99	64.5652
12.008	64.6089
12.026	64.6498
12.044	64.6731
12.062	64.6678
12.08	64.6301
12.098	64.5636
12.116	64.4784
12.134	64.388
12.152	64.3059
12.17	64.2428
12.188	64.2059
12.206	64.1977
12.224	64.2161
12.242	64.2555
12.26	64.3077
12.278	64.362
12.296	64.4071
12.314	64.4329
12.332	64.433
12.35	64.4061
12.368	64.3578
12.386	64.2992
12.404	64.2443
12.422	64.206
12.44	64.1926
12.458	64.2055
12.476	64.2392
12.494	64.2827
12.512	64.3229
12.53	64.3483
12.548	64.3518
12.566	64.3325
12.584	64.2946
12.602	64.2459
12.62	64.1965
12.638	64.1553
12.656	64.1286
12.674	64.1195
12.692	64.1274
12.71	64.1497
12.728	64.1819
12.746	64.2193
12.764	64.2576
12.782	64.2935
12.8	64.3247
12.818	64.35
12.836	64.3689
12.854	64.3815
12.872	64.3878
12.89	64.3881
12.908	64.3831
12.926	64.3745
12.944	64.3651
12.962	64.3596
12.98	64.3636
12.998	64.3822
13.016	64.4185
13.034	64.472
13.052	64.5375
13.07	64.6058
13.088	64.6654
13.106	64.7054
13.124	64.7183
13.142	64.7022
13.16	64.6616
13.178	64.606
13.196	64.5481
13.214	64.4996
13.232	64.4683
13.25	64.4553
13.268	64.4568
13.286	64.4634
13.304	64.4645
13.322	64.4507
13.34	64.4167
13.358	64.3616
13.376	64.289
13.394	64.2053
13.412	64.1173
13.43	64.0311
13.448	63.9505
13.466	63.8771
13.484	63.8106
13.502	63.7503
13.52	63.6958
13.538	63.6477
13.556	63.6076
13.574	63.5781
13.592	63.5619
13.61	63.5603
13.628	63.5736
13.646	63.6009
13.664	63.6404
13.682	63.6897
13.7	63.7468
13.718	63.8101
13.736	63.8788
13.754	63.9525
13.772	64.0302
13.79	64.1098
13.808	64.1882
13.826	64.2611
13.844	64.3237
13.862	64.3711
13.88	64.3997
13.898	64.4077
13.916	64.3959
13.934	64.3673
13.952	64.3266
13.97	64.2797
13.988	64.2321
14.006	64.1875
14.024	64.1477
14.042	64.1119
14.06	64.0778
14.078	64.0417
14.096	64.0002
14.114	63.9513
14.132	63.8947
14.15	63.8325
14.168	63.7687
14.186	63.7085
14.204	63.657
14.222	63.6189
14.24	63.5963
14.258	63.5897
14.276	63.5968
14.294	63.6139
14.312	63.6367
14.33	63.6611
14.348	63.6839
14.366	63.7027
14.384	63.7166
14.402	63.7262
14.42	63.7328
14.438	63.7371
14.456	63.7393
14.474	63.7393
14.492	63.7361
14.51	63.7285
14.528	63.7154
14.546	63.6963
14.564	63.6717
14.582	63.643
14.6	63.6126
14.618	63.5832
14.636	63.5576
14.654	63.5373
14.672	63.5232
14.69	63.5149
14.708	63.5111
14.726	63.5098
14.744	63.508
14.762	63.5039
14.78	63.4961
14.798	63.4837
14.816	63.4667
14.834	63.4453
14.852	63.4199
14.87	63.3909
14.888	63.358
14.906	63.3206
14.924	63.2776
14.942	63.2281
14.96	63.1715
14.978	63.1086
14.996	63.0409
15.014	62.9711
15.032	62.9031
15.05	62.8414
15.068	62.7902
15.086	62.7528
15.104	62.7315
15.122	62.7271
15.14	62.738
15.158	62.7615
15.176	62.794
15.194	62.8312
15.212	62.8685
15.23	62.9031
15.248	62.9334
15.266	62.9589
15.284	62.9806
15.302	63.0008
15.32	63.0216
15.338	63.0449
15.356	63.0726
15.374	63.1048
15.392	63.1404
15.41	63.1779
15.428	63.215
15.446	63.2482
15.464	63.2756
15.482	63.2953
15.5	63.3061
15.518	63.308
15.536	63.3021
15.554	63.2897
15.572	63.2726
15.59	63.2531
15.608	63.2325
15.626	63.212
15.644	63.1924
15.662	63.174
15.68	63.1567
15.698	63.1405
15.716	63.125
15.734	63.1104
15.752	63.0967
15.77	63.0846
15.788	63.0742
15.806	63.0658
15.824	63.0592
15.842	63.0541
15.86	63.0498
15.878	63.0456
15.896	63.0407
15.914	63.0344
15.932	63.0262
15.95	63.0162
15.968	63.0042
15.986	62.991
16.004	62.977
16.022	62.9627
16.04	62.9485
16.058	62.9343
16.076	62.9201
16.094	62.9053
16.112	62.8894
16.13	62.8718
16.148	62.8521
16.166	62.8298
16.184	62.8049
16.202	62.7773
16.22	62.7477
16.238	62.7165
16.256	62.6845
16.274	62.6528
16.292	62.6221
16.31	62.5932
16.328	62.567
16.346	62.5441
16.364	62.5248
16.382	62.51
16.4	62.5001
16.418	62.4953
16.436	62.4964
16.454	62.5037
16.472	62.5174
16.49	62.5378
16.508	62.5646
16.526	62.5974
16.544	62.635
16.562	62.6759
16.58	62.7189
16.598	62.7612
16.616	62.8011
16.634	62.8367
16.652	62.8653
16.67	62.886
16.688	62.8975
16.706	62.899
16.724	62.891
16.742	62.8736
16.76	62.8486
16.778	62.8172
16.796	62.7817
16.814	62.7449
16.832	62.7085
16.85	62.676
16.868	62.6494
16.886	62.6304
16.904	62.6211
16.922	62.6222
16.94	62.6344
16.958	62.6573
16.976	62.6905
16.994	62.7325
17.012	62.7813
17.03	62.8357
17.048	62.8926
17.066	62.9504
17.084	63.0068
17.102	63.0596
17.12	63.1077
17.138	63.1491
17.156	63.1829
17.174	63.208
17.192	63.2238
17.21	63.2302
17.228	63.2272
17.246	63.2154
17.264	63.195
17.282	63.1671
17.3	63.1323
17.318	63.0922
17.336	63.0482
17.354	63.0013
17.372	62.9541
17.39	62.9073
17.408	62.8631
17.426	62.8227
17.444	62.7871
17.462	62.7577
17.48	62.7346
17.498	62.7187
17.516	62.7093
17.534	62.7063
17.552	62.7083
17.57	62.7147
17.588	62.7227
17.606	62.7314
17.624	62.7388
17.642	62.7429
17.66	62.7427
17.678	62.7356
17.696	62.7214
17.714	62.6986
17.732	62.6676
17.75	62.6279
17.768	62.5813
17.786	62.5281
17.804	62.4711
17.822	62.411
17.84	62.3514
17.858	62.2944
17.876	62.2424
17.894	62.1989
17.912	62.1654
17.93	62.1451
17.948	62.1386
17.966	62.1482
17.984	62.1739
18.002	62.2165
18.02	62.2748
18.038	62.3484
18.056	62.4346
18.074	62.5326
18.092	62.6379
18.11	62.7499
18.128	62.8633
18.146	62.9771
18.164	63.0869
18.182	63.1908
18.2	63.286
18.218	63.3704
18.236	63.4426
18.254	63.5009
18.272	63.5448
18.29	63.574
18.308	63.5885
18.326	63.5889
18.344	63.5755
18.362	63.5498
18.38	63.5123
18.398	63.4639
18.416	63.4057
18.434	63.3393
18.452	63.2655
18.47	63.1849
18.488	63.0989
18.506	63.0079
18.524	62.9128
18.542	62.8138
18.56	62.7121
18.578	62.608
18.596	62.5026
18.614	62.3961
18.632	62.2903
18.65	62.1854
18.668	62.0834
18.686	61.9846
18.704	61.8907
18.722	61.8022
18.74	61.7211
18.758	61.6476
18.776	61.5834
18.794	61.5287
18.812	61.4847
18.83	61.4512
18.848	61.4284
18.866	61.416
18.884	61.4136
18.902	61.4204
18.92	61.4357
18.938	61.4583
18.956	61.4868
18.974	61.52
18.992	61.5561
19.01	61.5941
19.028	61.632
19.046	61.6691
19.064	61.7036
19.082	61.735
19.1	61.762
19.118	61.7845
19.136	61.8018
19.154	61.8142
19.172	61.8217
19.19	61.8249
19.208	61.8248
19.226	61.8218
19.244	61.8177
19.262	61.8127
19.28	61.8087
19.298	61.8059
19.316	61.8065
19.334	61.8104
19.352	61.8189
19.37	61.832
19.388	61.8503
19.406	61.8738
19.424	61.9015
19.442	61.9335
19.46	61.9678
19.478	62.0044
19.496	62.0403
19.514	62.075
19.532	62.1061
19.55	62.1327
19.568	62.153
19.586	62.1649
19.604	62.1684
19.622	62.1612
19.64	62.1437
19.658	62.1147
19.676	62.0744
19.694	62.0237
19.712	61.9624
19.73	61.8925
19.748	61.8137
19.766	61.7283
19.784	61.6365
19.802	61.5403
19.82	61.4406
19.838	61.3386
19.856	61.2361
19.874	61.1332
19.892	61.0325
19.91	60.9336
19.928	60.8389
19.946	60.7481
19.964	60.6635
19.982	60.585
20	60.5139
20.018	60.4511
20.036	60.3969
20.054	60.3525
20.072	60.3176
20.09	60.2933
20.108	60.2793
20.126	60.2753
20.144	60.2815
20.162	60.2965
20.18	60.3203
20.198	60.3514
20.216	60.3882
20.234	60.4305
20.252	60.4752
20.27	60.5229
20.288	60.5698
20.306	60.6161
20.324	60.6596
20.342	60.6991
20.36	60.7343
20.378	60.7635
20.396	60.7871
20.414	60.8046
20.432	60.8159
20.45	60.8221
20.468	60.8231
20.486	60.8199
20.504	60.8141
20.522	60.8055
20.54	60.7964
20.558	60.7865
20.576	60.7776
20.594	60.7703
20.612	60.765
20.63	60.7628
20.648	60.7634
20.666	60.7674
20.684	60.7748
20.702	60.7854
20.72	60.7995
20.738	60.8166
20.756	60.8359
20.774	60.8575
20.792	60.8807
20.81	60.9054
20.828	60.9309
20.846	60.9561
20.864	60.9811
20.882	61.0044
20.9	61.0263
20.918	61.0455
20.936	61.0611
20.954	61.0729
20.972	61.0792
20.99	61.0805
21.008	61.0752
21.026	61.0627
21.044	61.043
21.062	61.0148
21.08	60.9783
21.098	60.9337
21.116	60.8804
21.134	60.8193
21.152	60.7514
21.17	60.6764
21.188	60.5967
21.206	60.5124
21.224	60.4248
21.242	60.3369
21.26	60.2477
21.278	60.1611
21.296	60.0774
21.314	59.9979
21.332	59.9259
21.35	59.8604
21.368	59.8036
21.386	59.7562
21.404	59.718
21.422	59.69
21.44	59.6721
21.458	59.6631
21.476	59.6631
21.494	59.6716
21.512	59.6862
21.53	59.7077
21.548	59.7344
21.566	59.7649
21.584	59.7996
21.602	59.8368
21.62	59.8766
21.638	59.9184
21.656	59.9609
21.674	60.0046
21.692	60.0489
21.71	60.0934
21.728	60.1384
21.746	60.1841
21.764	60.2304
21.782	60.2775
21.8	60.3256
21.818	60.3745
21.836	60.4233
21.854	60.4722
21.872	60.5206
21.89	60.5669
21.908	60.6119
21.926	60.6535
21.944	60.6908
21.962	60.7241
21.98	60.7511
21.998	60.7716
22.016	60.7855
22.034	60.7911
22.052	60.7888
22.07	60.7786
22.088	60.7599
22.106	60.7329
22.124	60.6987
22.142	60.6571
22.16	60.6087
22.178	60.5562
22.196	60.4985
22.214	60.4381
22.232	60.3779
22.25	60.3165
22.268	60.2574
22.286	60.2027
22.304	60.1512
22.322	60.1067
22.34	60.0694
22.358	60.0393
22.376	60.0191
22.394	60.0083
22.412	60.0072
22.43	60.0167
22.448	60.0364
22.466	60.0663
22.484	60.1066
22.502	60.1573
22.52	60.2173
22.538	60.2865
22.556	60.3649
22.574	60.4502
22.592	60.5431
22.61	60.6425
22.628	60.745
22.646	60.8518
22.664	60.9608
22.682	61.0684
22.7	61.1766
22.718	61.2817
22.736	61.3795
22.754	61.4725
22.772	61.556
22.79	61.6258
22.808	61.6848
22.826	61.7273
22.844	61.7497
22.862	61.7544
22.88	61.7362
22.898	61.6926
22.916	61.6254
22.934	61.531
22.952	61.4075
22.97	61.2566
22.988	61.0779
23.006	60.8703
23.024	60.6353
23.042	60.3762
23.06	60.0918
23.078	59.784
23.096	59.4599
23.114	59.1175
23.132	58.7596
23.15	58.3959
23.168	58.0247
23.186	57.6482
23.204	57.277
23.222	56.9087
23.24	56.546
23.258	56.1996
23.276	55.8676
23.294	55.5518
23.312	55.2618
23.33	54.9964
23.348	54.7563
23.366	54.5487
23.384	54.374
23.402	54.2311
23.42	54.1223
23.438	54.0483
23.456	54.008
23.474	54.0013
23.492	54.0287
23.51	54.0894
23.528	54.1808
23.546	54.3031
23.564	54.4561
23.582	54.6351
23.6	54.8392
23.618	55.0694
23.636	55.3197
23.654	55.5876
23.672	55.8759
23.69	56.1766
23.708	56.4851
23.726	56.8061
23.744	57.1306
23.762	57.4513
23.78	57.7744
23.798	58.0912
23.816	58.3923
23.834	58.6836
23.852	58.9589
23.87	59.2077
23.888	59.4342
23.906	59.6353
23.924	59.801
23.942	59.9317
23.96	60.0284
23.978	60.0836
23.996	60.0939
24.014	60.0627
24.032	59.9885
24.05	59.8696
24.068	59.7057
24.086	59.5018
24.104	59.2617
24.122	58.9813
24.14	58.6667
24.158	58.3259
24.176	57.954
24.194	57.5557
24.212	57.1427
24.23	56.7143
24.248	56.2688
24.266	55.8217
24.284	55.3805
24.302	54.9365
24.32	54.5035
24.338	54.0945
24.356	53.7004
24.374	53.3293
24.392	52.9953
24.41	52.6963
24.428	52.4313
24.446	52.2086
24.464	52.032
24.482	51.8973
24.5	51.808
24.518	51.7681
24.536	51.778
24.554	51.8327
24.572	51.9268
24.59	52.0657
24.608	52.245
24.626	52.4509
24.644	52.6802
24.662	52.9408
24.68	53.2133
24.698	53.4806
24.716	53.7568
24.734	54.0293
24.752	54.2761
24.77	54.4982
24.788	54.7005
24.806	54.8625
24.824	54.9709
24.842	55.039
24.86	55.0545
24.878	55.0014
24.896	54.8817
24.914	54.6985
24.932	54.4467
24.95	54.1216
24.968	53.7245
24.986	53.2627
25.004	52.743
25.022	52.1559
25.04	51.5107
25.058	50.826
25.076	50.1071
25.094	49.342
25.112	48.5543
25.13	47.767
25.148	46.9637
25.166	46.1545
25.184	45.3672
25.202	44.6129
25.22	43.8741
25.238	43.1733
25.256	42.5341
25.274	41.9468
25.292	41.4125
25.31	40.9472
25.328	40.5612
25.346	40.2452
25.364	40.0024
25.382	39.8376
25.4	39.7529
25.418	39.7447
25.436	39.8087
25.454	39.9424
25.472	40.1515
25.49	40.4276
25.508	40.7602
25.526	41.1473
25.544	41.5934
25.562	42.0912
25.58	42.6335
25.598	43.2221
25.616	43.8576
25.634	44.5384
25.652	45.2625
25.67	46.0297
25.688	46.8422
25.706	47.7021
25.724	48.6084
25.742	49.5603
25.76	50.5616
25.778	51.6158
25.796	52.7207
25.814	53.8766
25.832	55.0858
25.85	56.3507
25.868	57.6714
25.886	59.044
25.904	60.4642
25.922	61.9352
25.94	63.4594
25.958	65.022
25.976	66.6083
25.994	68.2304
26.012	69.8845
26.03	71.5459
26.048	73.1949
26.066	74.856
26.084	76.5118
26.102	78.1297
26.12	79.6905
26.138	81.2223
26.156	82.7018
26.174	84.0988
26.192	85.4041
26.21	86.6384
26.228	87.7811
26.246	88.8102
26.264	89.7221
26.282	90.528
26.3	91.2238
26.318	91.8055
26.336	92.265
26.354	92.6107
26.372	92.8588
26.39	93.0233
26.408	93.0824
26.426	93.0513
26.444	92.9632
26.462	92.8431
26.48	92.6522
26.498	92.4198
26.516	92.1955
26.534	92.0139
26.552	91.8304
26.57	91.6734
26.588	91.5866
26.606	91.5989
26.624	91.677
26.642	91.8357
26.66	92.0974
26.678	92.4773
26.696	92.9617
26.714	93.5495
26.732	94.2413
26.75	95.0437
26.768	95.9637
26.786	96.9781
26.804	98.0616
26.822	99.2065
26.84	100.437
26.858	101.725
26.876	103.04
26.894	104.366
26.912	105.729
26.93	107.112
26.948	108.489
26.966	109.908
26.984	111.468
27.002	112.949
27.02	114.104
27.028	114.414