File: Bakgrunnsmateriale/MATLAB/FTIR/ftir_data/subBb/Mapping_121/C-4040-8_t50_cm-1.asc
PE IR       SPECTRUM    SPECTRUM    ASCII       PEDS        1.60
  -1
C-1C61~1.ASC
17/03/27
18:36:59.00
17/03/27
18:36:59.00
tln
$C-4040-8_t0050$<tbV0>[0.0,-2.6,8.0,0.0,27,1,0]
370
64

2002,4.07
MIRTGS : RIGHTBACK : INTERNAL 2
MIR : ON : INTERNAL 2
OPTKBR

0.200000
8
8.000000
FILLER
RATIO
SPECTRUM
UNLOCKED 256

DOUBLE
64
COMBINED
1
0
0

1.000000
RATIO

1
0
TRUE
51149
0
LEFT NOT FITTED RIGHT NOT FITTED 0
NONE
NONE
15600
12
4.427000
51148
TRUE
1 0 8 72 0 0 0 0

15798

#HDR
-1
-1
#GR
CM-1
%T
2.38419e-05
0.0
5000
-1.000000
4631
8
76.9396
24.6443
#DATA
5000	63.8391
4996	63.9986
4992	64.2126
4988	64.5906
4984	64.4315
4980	63.7527
4976	63.6966
4972	63.9429
4968	63.6801
4964	63.6055
4960	64.085
4956	64.3831
4952	64.3757
4948	64.4593
4944	64.652
4940	64.7275
4936	64.6834
4932	64.7477
4928	64.8192
4924	64.6096
4920	64.3069
4916	64.27
4912	64.3828
4908	64.398
4904	64.2363
4900	63.8364
4896	63.5609
4892	63.7221
4888	63.707
4884	63.4301
4880	63.4699
4876	63.6595
4872	63.8118
4868	63.9625
4864	63.8338
4860	63.5973
4856	63.6731
4852	64.0124
4848	64.2457
4844	63.9099
4840	63.5128
4836	63.7176
4832	63.9633
4828	63.8888
4824	63.8253
4820	63.7772
4816	63.7785
4812	63.8817
4808	63.8378
4804	63.8593
4800	64.0202
4796	64.1875
4792	64.5213
4788	64.6178
4784	64.3734
4780	64.2354
4776	64.0599
4772	63.7691
4768	63.5653
4764	63.4746
4760	63.4376
4756	63.4852
4752	63.6216
4748	63.6952
4744	63.6989
4740	63.6624
4736	63.6219
4732	63.6081
4728	63.5592
4724	63.5381
4720	63.6859
4716	63.8579
4712	63.9201
4708	63.9308
4704	63.8846
4700	63.8069
4696	63.7734
4692	63.8259
4688	63.7815
4684	63.6555
4680	63.6086
4676	63.5549
4672	63.4766
4668	63.5405
4664	63.7256
4660	63.7805
4656	63.7074
4652	63.6343
4648	63.7787
4644	63.9754
4640	63.8875
4636	63.723
4632	63.7212
4628	63.8026
4624	63.7431
4620	63.6859
4616	63.7856
4612	63.7982
4608	63.6537
4604	63.6377
4600	63.8405
4596	63.8832
4592	63.5673
4588	63.3251
4584	63.4722
4580	63.6081
4576	63.5971
4572	63.6321
4568	63.5969
4564	63.5839
4560	63.6609
4556	63.5605
4552	63.3663
4548	63.4785
4544	63.5442
4540	63.3583
4536	63.5074
4532	63.9085
4528	63.7716
4524	63.2901
4520	63.3939
4516	63.8209
4512	63.9384
4508	63.9258
4504	63.9072
4500	63.8981
4496	63.9091
4492	63.8853
4488	63.9626
4484	64.0249
4480	64.0605
4476	64.1198
4472	63.9669
4468	63.8347
4464	63.8795
4460	63.8347
4456	63.7914
4452	63.9021
4448	63.9946
4444	63.9752
4440	63.7912
4436	63.8553
4432	64.2869
4428	64.3199
4424	63.9997
4420	63.8592
4416	63.9091
4412	64.1532
4408	64.4793
4404	64.6135
4400	64.4333
4396	64.2844
4392	64.2079
4388	63.8476
4384	63.418
4380	63.846
4376	64.6618
4372	64.9817
4368	64.1639
4364	58.6757
4360	50.1631
4356	48.5192
4352	63.7633
4348	76.9163
4344	71.433
4340	64.7938
4336	63.6978
4332	63.5486
4328	64.1668
4324	64.8165
4320	64.9317
4316	64.5586
4312	64.1303
4308	63.7957
4304	63.562
4300	63.5056
4296	63.6028
4292	63.6471
4288	63.7611
4284	63.9457
4280	63.988
4276	63.9358
4272	63.7761
4268	63.5889
4264	63.6181
4260	63.8216
4256	63.9254
4252	63.7679
4248	63.4921
4244	63.2199
4240	63.1968
4236	63.5069
4232	63.664
4228	63.5704
4224	63.4435
4220	63.3293
4216	63.3741
4212	63.3919
4208	63.2479
4204	63.1745
4200	63.1388
4196	62.9244
4192	63.0639
4188	63.6437
4184	63.6752
4180	63.273
4176	63.1684
4172	63.2968
4168	63.2972
4164	63.3925
4160	63.7015
4156	63.6295
4152	63.2924
4148	63.3559
4144	63.6352
4140	63.6256
4136	63.372
4132	63.019
4128	62.8135
4124	62.8572
4120	62.8592
4116	62.8227
4112	62.9495
4108	63.294
4104	63.5762
4100	63.45
4096	63.2401
4092	63.2687
4088	63.3488
4084	63.3058
4080	63.2289
4076	63.316
4072	63.4882
4068	63.5483
4064	63.4577
4060	63.3814
4056	63.2993
4052	63.1747
4048	63.2429
4044	63.3228
4040	63.2695
4036	63.2884
4032	63.2248
4028	63.0247
4024	62.993
4020	63.2058
4016	63.4588
4012	63.4602
4008	63.2652
4004	63.2381
4000	63.3021
3996	63.1745
3992	63.0579
3988	63.0371
3984	62.9237
3980	62.8603
3976	62.9229
3972	63.0248
3968	63.1273
3964	63.1973
3960	63.2268
3956	63.1688
3952	63.0491
3948	63.0162
3944	63.1264
3940	63.3018
3936	63.3929
3932	63.2703
3928	62.9876
3924	62.7422
3920	62.6395
3916	62.7343
3912	62.9988
3908	63.0939
3904	62.9608
3900	62.8726
3896	62.8699
3892	62.961
3888	63.1377
3884	63.1777
3880	63.0924
3876	63.182
3872	63.2768
3868	63.1692
3864	63.0656
3860	63.0586
3856	63.1339
3852	63.207
3848	63.2303
3844	63.2395
3840	63.1785
3836	62.9816
3832	62.7107
3828	62.5905
3824	62.6165
3820	62.5775
3816	62.676
3812	63.0179
3808	63.1171
3804	62.9545
3800	62.8592
3796	62.8589
3792	62.9291
3788	62.9052
3784	62.7611
3780	62.7525
3776	62.88
3772	62.9036
3768	62.8037
3764	62.7601
3760	62.8325
3756	62.8628
3752	62.79
3748	62.7383
3744	62.7383
3740	62.6705
3736	62.6532
3732	62.7703
3728	62.7269
3724	62.5952
3720	62.6217
3716	62.6496
3712	62.6331
3708	62.603
3704	62.4775
3700	62.4961
3696	62.7295
3692	62.7961
3688	62.7111
3684	62.6427
3680	62.5247
3676	62.4529
3672	62.4457
3668	62.4354
3664	62.47
3660	62.5396
3656	62.5654
3652	62.5352
3648	62.5577
3644	62.5712
3640	62.4235
3636	62.306
3632	62.3348
3628	62.326
3624	62.2847
3620	62.2588
3616	62.254
3612	62.2847
3608	62.2964
3604	62.3487
3600	62.4535
3596	62.4962
3592	62.4472
3588	62.3477
3584	62.2827
3580	62.3025
3576	62.2998
3572	62.209
3568	62.0733
3564	62.0616
3560	62.2049
3556	62.2792
3552	62.3166
3548	62.3788
3544	62.3366
3540	62.217
3536	62.1862
3532	62.1697
3528	62.1072
3524	62.1115
3520	62.0956
3516	62.1066
3512	62.2126
3508	62.2118
3504	62.1377
3500	62.0443
3496	61.8541
3492	61.7475
3488	61.8461
3484	62.0306
3480	62.1643
3476	62.2074
3472	62.1824
3468	62.2029
3464	62.2272
3460	62.1451
3456	62.1435
3452	62.2092
3448	62.1227
3444	61.9805
3440	61.9595
3436	62.0114
3432	61.9757
3428	61.8521
3424	61.8276
3420	61.8927
3416	61.8534
3412	61.7343
3408	61.7019
3404	61.7247
3400	61.7601
3396	61.8357
3392	61.8937
3388	61.8803
3384	61.7697
3380	61.6006
3376	61.4767
3372	61.4731
3368	61.5533
3364	61.6379
3360	61.6595
3356	61.6353
3352	61.5992
3348	61.5056
3344	61.4714
3340	61.5362
3336	61.5786
3332	61.6044
3328	61.603
3324	61.567
3320	61.527
3316	61.4813
3312	61.4013
3308	61.3192
3304	61.2792
3300	61.2939
3296	61.4081
3292	61.4147
3288	61.2401
3284	61.1565
3280	61.149
3276	61.1633
3272	61.3023
3268	61.4173
3264	61.3785
3260	61.3735
3256	61.4756
3252	61.4805
3248	61.2677
3244	60.989
3240	60.9015
3236	61.06
3232	61.2564
3228	61.2175
3224	61.0115
3220	60.9431
3216	60.9746
3212	60.9857
3208	61.0018
3204	61.0362
3200	61.0333
3196	60.9377
3192	60.9223
3188	61.0185
3184	61.0386
3180	60.977
3176	60.947
3172	61.0035
3168	61.0455
3164	60.9216
3160	60.8406
3156	60.9504
3152	60.9076
3148	60.7262
3144	60.5749
3140	60.5261
3136	60.7066
3132	60.7789
3128	60.5847
3124	60.4027
3120	60.3745
3116	60.5277
3112	60.6887
3108	60.6701
3104	60.6416
3100	60.6404
3096	60.6072
3092	60.6651
3088	60.7046
3084	60.6054
3080	60.5075
3076	60.5126
3072	60.544
3068	60.5181
3064	60.4393
3060	60.3842
3056	60.4307
3052	60.4758
3048	60.3992
3044	60.2394
3040	60.1629
3036	60.2314
3032	60.2704
3028	60.2562
3024	60.2582
3020	60.2319
3016	60.1906
3012	60.167
3008	60.1089
3004	60.0501
3000	60.0959
2996	60.1528
2992	60.1368
2988	60.1002
2984	60.0874
2980	60.0786
2976	60.0371
2972	60.0499
2968	60.0553
2964	59.9387
2960	59.7976
2956	59.6955
2952	59.6829
2948	59.7472
2944	59.8001
2940	59.8269
2936	59.7925
2932	59.6707
2928	59.5462
2924	59.5085
2920	59.4341
2916	59.3014
2912	59.3289
2908	59.501
2904	59.6121
2900	59.5749
2896	59.4676
2892	59.4614
2888	59.5459
2884	59.5447
2880	59.481
2876	59.4375
2872	59.3926
2868	59.3566
2864	59.2886
2860	59.1314
2856	59.0181
2852	59.0503
2848	59.1635
2844	59.282
2840	59.2791
2836	59.1799
2832	59.1354
2828	59.1442
2824	59.167
2820	59.2052
2816	59.2106
2812	59.1861
2808	59.1725
2804	59.1443
2800	59.0942
2796	59.05
2792	59.0233
2788	59.0043
2784	58.9907
2780	58.9843
2776	58.9895
2772	58.9694
2768	58.9418
2764	58.9631
2760	58.9392
2756	58.8014
2752	58.6847
2748	58.6928
2744	58.7595
2740	58.7817
2736	58.7421
2732	58.7226
2728	58.751
2724	58.7669
2720	58.7069
2716	58.6013
2712	58.5692
2708	58.5963
2704	58.6067
2700	58.6147
2696	58.6187
2692	58.5527
2688	58.4479
2684	58.4233
2680	58.4753
2676	58.522
2672	58.488
2668	58.4192
2664	58.4511
2660	58.45
2656	58.3022
2652	58.2198
2648	58.2445
2644	58.2554
2640	58.2545
2636	58.2283
2632	58.1714
2628	58.1378
2624	58.1105
2620	58.0585
2616	58.0418
2612	58.0623
2608	58.0656
2604	58.0488
2600	57.9964
2596	57.9679
2592	57.9805
2588	57.9412
2584	57.8984
2580	57.8826
2576	57.8334
2572	57.7839
2568	57.773
2564	57.7792
2560	57.7738
2556	57.7286
2552	57.6615
2548	57.6157
2544	57.5953
2540	57.6096
2536	57.6128
2532	57.492
2528	57.3147
2524	57.3578
2520	57.5077
2516	57.4107
2512	57.3159
2508	57.3735
2504	57.3342
2500	57.3218
2496	57.3583
2492	57.3489
2488	57.4114
2484	57.402
2480	57.2826
2476	57.2321
2472	57.1871
2468	57.1505
2464	57.1409
2460	57.0877
2456	57.0657
2452	57.1277
2448	57.1439
2444	56.9857
2440	56.8018
2436	56.8609
2432	57.0338
2428	56.9727
2424	56.9458
2420	57.0795
2416	57.02
2412	56.8566
2408	56.8861
2404	57.061
2400	57.0321
2396	56.8493
2392	56.7473
2388	56.7091
2384	56.7146
2380	56.6965
2376	56.6382
2372	56.5801
2368	56.5015
2364	56.4582
2360	56.479
2356	56.4239
2352	56.2868
2348	56.224
2344	56.2708
2340	56.2817
2336	56.2119
2332	56.1543
2328	56.1027
2324	56.0778
2320	56.1085
2316	56.1028
2312	56.0563
2308	56.0769
2304	56.1255
2300	56.0902
2296	56.0193
2292	55.9846
2288	55.9583
2284	55.9375
2280	55.9254
2276	55.9081
2272	55.8428
2268	55.7534
2264	55.7378
2260	55.742
2256	55.7792
2252	55.8896
2248	55.9269
2244	55.8497
2240	55.7537
2236	55.7124
2232	55.7475
2228	55.7557
2224	55.6505
2220	55.5598
2216	55.5348
2212	55.4537
2208	55.3229
2204	55.2715
2200	55.3193
2196	55.3698
2192	55.3964
2188	55.3782
2184	55.2761
2180	55.1751
2176	55.1179
2172	55.0327
2168	54.9825
2164	55.0564
2160	55.0914
2156	55.0611
2152	55.1299
2148	55.1674
2144	55.0565
2140	54.9329
2136	54.9025
2132	54.8922
2128	54.8379
2124	54.7954
2120	54.8408
2116	54.8982
2112	54.7488
2108	54.5719
2104	54.6263
2100	54.7085
2096	54.6923
2092	54.6841
2088	54.669
2084	54.5586
2080	54.3445
2076	54.2014
2072	54.2804
2068	54.2687
2064	54.0927
2060	54.2377
2056	54.4613
2052	54.2976
2048	54.1321
2044	54.1881
2040	54.2176
2036	54.1632
2032	54.1195
2028	54.1303
2024	54.1359
2020	54.0435
2016	53.9318
2012	53.9457
2008	54.0004
2004	53.9876
2000	53.9495
1996	53.9186
1992	53.9361
1988	53.944
1984	53.895
1980	53.8783
1976	53.8633
1972	53.8244
1968	53.7603
1964	53.6443
1960	53.5921
1956	53.6215
1952	53.5883
1948	53.5476
1944	53.6169
1940	53.6455
1936	53.5367
1932	53.462
1928	53.4547
1924	53.4294
1920	53.4155
1916	53.3945
1912	53.373
1908	53.3426
1904	53.2696
1900	53.2654
1896	53.3206
1892	53.2893
1888	53.1845
1884	53.1157
1880	53.1108
1876	53.1147
1872	53.0367
1868	52.9187
1864	52.8793
1860	52.8795
1856	52.8335
1852	52.7623
1848	52.7343
1844	52.7488
1840	52.726
1836	52.6622
1832	52.6628
1828	52.7049
1824	52.6578
1820	52.5507
1816	52.5087
1812	52.5336
1808	52.5137
1804	52.4148
1800	52.346
1796	52.3479
1792	52.3404
1788	52.3124
1784	52.301
1780	52.2629
1776	52.2012
1772	52.1869
1768	52.1456
1764	52.0793
1760	52.0783
1756	52.0745
1752	52.0347
1748	52.0088
1744	51.9808
1740	51.9182
1736	51.8445
1732	51.7858
1728	51.6791
1724	51.5531
1720	51.5921
1716	51.7216
1712	51.7142
1708	51.6843
1704	51.708
1700	51.6616
1696	51.6129
1692	51.5974
1688	51.5769
1684	51.6055
1680	51.6416
1676	51.5999
1672	51.5239
1668	51.4784
1664	51.4291
1660	51.3569
1656	51.3234
1652	51.3477
1648	51.3261
1644	51.2371
1640	51.1953
1636	51.1804
1632	51.111
1628	51.0181
1624	50.9562
1620	50.9107
1616	50.8799
1612	50.8759
1608	50.8725
1604	50.8806
1600	50.8603
1596	50.7929
1592	50.7458
1588	50.7234
1584	50.7387
1580	50.7996
1576	50.7454
1572	50.5807
1568	50.5002
1564	50.4914
1560	50.5149
1556	50.5347
1552	50.4826
1548	50.4782
1544	50.5093
1540	50.3883
1536	50.242
1532	50.2258
1528	50.2605
1524	50.3189
1520	50.3833
1516	50.3202
1512	50.175
1508	50.1352
1504	50.2055
1500	50.2633
1496	50.2273
1492	50.1852
1488	50.2016
1484	50.139
1480	50.0365
1476	49.9894
1472	49.9355
1468	49.8919
1464	49.8578
1460	49.6804
1456	49.4476
1452	49.524
1448	49.7618
1444	49.771
1440	49.6798
1436	49.7192
1432	49.8084
1428	49.7478
1424	49.6483
1420	49.6346
1416	49.5875
1412	49.5142
1408	49.4162
1404	49.3197
1400	49.3042
1396	49.2629
1392	49.182
1388	49.1632
1384	49.2159
1380	49.3191
1376	49.3776
1372	49.3219
1368	49.2777
1364	49.2803
1360	49.2343
1356	49.1452
1352	49.0309
1348	48.9073
1344	48.8215
1340	48.8105
1336	48.8464
1332	48.8639
1328	48.861
1324	48.7949
1320	48.6757
1316	48.6586
1312	48.6843
1308	48.6251
1304	48.5565
1300	48.5221
1296	48.4938
1292	48.4216
1288	48.3559
1284	48.3912
1280	48.4305
1276	48.3668
1272	48.2593
1268	48.2377
1264	48.3486
1260	48.3851
1256	48.28
1252	48.2927
1248	48.3515
1244	48.2499
1240	48.1033
1236	48.0294
1232	47.9911
1228	47.8969
1224	47.7813
1220	47.8065
1216	47.8317
1212	47.6925
1208	47.6629
1204	47.7586
1200	47.7843
1196	47.866
1192	48.0474
1188	47.9894
1184	47.722
1180	47.6825
1176	47.6916
1172	47.5204
1168	47.4704
1164	47.8286
1160	48.2176
1156	48.0211
1152	47.563
1148	47.4512
1144	47.5042
1140	47.3585
1136	47.1763
1132	47.1094
1128	47.0679
1124	47.0541
1120	47.0853
1116	47.1432
1112	47.2285
1108	47.354
1104	47.2939
1100	47.072
1096	46.9515
1092	46.7902
1088	46.7533
1084	46.912
1080	46.9212
1076	46.84
1072	46.7552
1068	46.6646
1064	46.6533
1060	46.706
1056	46.7088
1052	46.531
1048	46.2853
1044	46.2881
1040	46.4366
1036	46.3463
1032	46.1446
1028	46.1442
1024	46.3007
1020	46.4439
1016	46.4323
1012	46.4202
1008	46.3354
1004	46.0643
1000	45.9443
996	 45.9069
992	 45.8804
988	 45.9809
984	 45.9995
980	 45.9139
976	 45.9006
972	 45.9163
968	 45.8843
964	 45.8248
960	 45.7349
956	 45.611
952	 45.5605
948	 45.5947
944	 45.5804
940	 45.5797
936	 45.6143
932	 45.6093
928	 45.558
924	 45.4702
920	 45.4175
916	 45.3765
912	 45.2839
908	 45.2264
904	 45.1355
900	 44.9522
896	 44.8957
892	 44.8692
888	 44.7497
884	 44.7823
880	 44.9322
876	 44.9824
872	 44.9068
868	 44.7963
864	 44.7146
860	 44.6761
856	 44.6841
852	 44.6883
848	 44.6965
844	 44.676
840	 44.4988
836	 44.2269
832	 44.1387
828	 44.3301
824	 44.4667
820	 44.296
816	 44.1879
812	 44.2943
808	 44.1624
804	 43.9467
800	 43.9983
796	 44.0136
792	 43.9428
788	 43.8825
784	 43.7444
780	 43.7973
776	 43.985
772	 43.8508
768	 43.5699
764	 43.4209
760	 43.4271
756	 43.2838
752	 43.08
748	 43.3578
744	 43.6332
740	 43.3775
736	 43.0294
732	 42.9419
728	 42.954
724	 43.0096
720	 43.074
716	 42.9636
712	 42.6684
708	 42.3784
704	 42.2424
700	 42.3541
696	 42.5969
692	 42.5461
688	 42.2563
684	 42.0735
680	 42.0252
676	 41.9279
672	 41.6385
668	 41.4679
664	 41.5921
660	 41.7454
656	 41.7863
652	 41.7445
648	 41.5284
644	 41.1408
640	 40.8209
636	 40.7079
632	 40.8777
628	 41.0197
624	 40.9361
620	 40.8437
616	 40.8075
612	 40.8566
608	 40.7415
604	 40.367
600	 40.143
596	 40.0846
592	 39.8859
588	 39.6008
584	 39.354
580	 39.2375
576	 39.2494
572	 39.2157
568	 39.2368
564	 39.1711
560	 38.7677
556	 38.3304
552	 38.1704
548	 38.4173
544	 38.4799
540	 38.0479
536	 37.9685
532	 38.0805
528	 37.8968
524	 37.8345
520	 37.7041
516	 37.3509
512	 37.406
508	 37.8003
504	 37.8204
500	 37.5688
496	 37.2631
492	 37.0771
488	 36.9482
484	 36.4701
480	 36.2926
476	 36.3736
472	 36.5558
468	 37.4702
464	 37.5267
460	 35.9944
456	 35.3435
452	 35.8081
448	 35.6714
444	 35.8695
440	 35.9018
436	 34.9637
432	 34.6241
428	 35.2208
424	 36.2999
420	 35.9525
416	 33.9409
412	 34.805
408	 38.936
404	 42.2259
400	 41.2788
396	 33.3995
392	 26.324
388	 25.8063
384	 24.6701
380	 33.8799
376	 50.0359
372	 56.1377
370	 62.9719