File: Bakgrunnsmateriale/MATLAB/FTIR/ftir_data/subBb/Mapping_121/C-4040-8_t30.asc
PE IR       SPECTRUM    SPECTRUM    ASCII       PEDS        1.60
  -1
C-A13A~1.ASC
17/03/27
16:57:08.00
17/03/27
16:57:34.00
tln
$C-4040-8_t0030$<tbV0>[-5.2,-7.8,8.0,0.0,27,1,0]
27.028
64

2002,4.07
MIRTGS : RIGHTBACK : INTERNAL 2
MIR : ON : INTERNAL 2
OPTKBR

0.200000
8
8.000000
FILLER
RATIO
SPECTRUM
UNLOCKED 256

DOUBLE
64
COMBINED
1
0
0

0.002000
RATIO

1
0
TRUE
51149
0
LEFT NOT FITTED RIGHT NOT FITTED 0
NONE
NONE
15600
12
4.427000
51148
TRUE
1 0 8 72 0 0 0 0

15798

#HDR
-1
-1
#GR
µM
%T
2.38419e-05
0.0
2.000000
0.002000
12515
8
66.5354
11.1813
#DATA
2.000000	 63.8222
2.018000	 64.3817
2.036000	 64.67
2.054000	 63.8673
2.072000	 64.0783
2.090000	 64.0012
2.108000	 63.7622
2.126000	 64.3577
2.144000	 64.0075
2.162000	 64.2298
2.180000	 64.385
2.198000	 63.9992
2.216000	 64.1514
2.234000	 64.6035
2.252000	 63.6589
2.270000	 63.3535
2.288000	 66.5354
2.306000	 64.0486
2.324000	 63.8332
2.342000	 63.9892
2.360000	 63.5436
2.378000	 63.9702
2.396000	 63.9271
2.414000	 63.6942
2.432000	 63.2867
2.450000	 63.3724
2.468000	 63.1758
2.486000	 63.1479
2.504000	 63.1533
2.522000	 63.3717
2.540000	 63.2708
2.558000	 63.0922
2.576000	 63.2342
2.594000	 63.3099
2.612000	 63.021
2.630000	 63.0386
2.648000	 63.009
2.666000	 62.8268
2.684000	 62.9715
2.702000	 62.8031
2.720000	 62.6737
2.738000	 62.4928
2.756000	 62.4989
2.774000	 62.5487
2.792000	 62.4696
2.810000	 62.3132
2.828000	 62.4135
2.846000	 62.4182
2.864000	 62.0995
2.882000	 62.0517
2.900000	 62.1248
2.918000	 61.9703
2.936000	 61.6642
2.954000	 61.7051
2.972000	 61.7088
2.990000	 61.7989
3.008000	 61.5818
3.026000	 61.4589
3.044000	 61.4117
3.062000	 61.2864
3.080000	 61.1963
3.098000	 61.0888
3.116000	 61.0429
3.134000	 60.9544
3.152000	 60.8934
3.170000	 60.7096
3.188000	 60.4848
3.206000	 60.5257
3.224000	 60.5315
3.242000	 60.444
3.260000	 60.5114
3.278000	 60.3685
3.296000	 60.2987
3.314000	 60.1664
3.332000	 60.1144
3.350000	 60.1564
3.368000	 59.9296
3.386000	 59.7086
3.404000	 59.7739
3.422000	 59.4916
3.440000	 59.4134
3.458000	 59.6183
3.476000	 59.3939
3.494000	 59.1693
3.512000	 59.2926
3.530000	 59.312
3.548000	 59.2051
3.566000	 59.1553
3.584000	 58.9624
3.602000	 58.9622
3.620000	 58.8588
3.638000	 58.8192
3.656000	 58.5012
3.674000	 58.4086
3.692000	 58.3973
3.710000	 58.3614
3.728000	 58.2532
3.746000	 58.2159
3.764000	 58.1203
3.782000	 58.0906
3.800000	 57.9009
3.818000	 57.7908
3.836000	 57.9094
3.854000	 57.7408
3.872000	 57.6244
3.890000	 57.5165
3.908000	 57.5531
3.926000	 57.505
3.944000	 57.4052
3.962000	 57.297
3.980000	 57.0088
3.998000	 56.9656
4.016000	 56.8447
4.034000	 56.8117
4.052000	 56.6893
4.070000	 56.7921
4.088000	 56.6988
4.106000	 56.5334
4.124000	 56.353
4.141999	 56.5815
4.160000	 56.4739
4.178000	 56.3855
4.196000	 56.2412
4.214000	 56.1622
4.232000	 56.1633
4.250000	 56.0209
4.268000	 55.8949
4.286000	 55.7693
4.304000	 55.7802
4.322000	 55.708
4.340000	 55.6734
4.358000	 55.4806
4.375999	 55.3931
4.394000	 55.3482
4.412000	 55.3318
4.430000	 55.3162
4.448000	 55.2254
4.466000	 55.205
4.484000	 54.9407
4.502000	 54.7923
4.520000	 54.8141
4.538000	 54.8991
4.556000	 54.6682
4.574000	 54.698
4.592000	 54.7003
4.609999	 54.6585
4.628000	 54.4048
4.646000	 54.2897
4.664000	 54.3713
4.682000	 54.324
4.700000	 54.1923
4.718000	 54.0766
4.736000	 53.9327
4.754000	 54.0137
4.772000	 53.9071
4.790000	 53.9008
4.808000	 53.8525
4.826000	 53.9214
4.843999	 53.9079
4.862000	 53.7902
4.880000	 53.6419
4.898000	 53.4544
4.916000	 53.3314
4.934000	 53.3658
4.952000	 53.2502
4.970000	 53.236
4.988000	 53.1638
5.006000	 53.1225
5.024000	 53.0002
5.042000	 52.9163
5.060000	 52.9339
5.077999	 52.7635
5.096000	 52.7551
5.114000	 52.7247
5.132000	 52.5731
5.150000	 52.4799
5.168000	 52.424
5.186000	 52.4254
5.204000	 52.3698
5.222000	 52.3514
5.240000	 52.3043
5.258000	 52.1686
5.276000	 52.1583
5.294000	 52.0944
5.312000	 52.0771
5.330000	 52.0242
5.348000	 51.968
5.366000	 51.8542
5.384000	 51.7537
5.402000	 51.7026
5.420000	 51.6471
5.438000	 51.6734
5.456000	 51.7416
5.474000	 51.6502
5.492000	 51.5181
5.510000	 51.3876
5.528000	 51.3417
5.546000	 51.3222
5.564000	 51.3038
5.582000	 51.2597
5.600000	 51.1463
5.618000	 51.0884
5.636000	 51.1075
5.654000	 51.0254
5.672000	 51.014
5.690000	 51.0153
5.708000	 50.9695
5.726000	 50.8575
5.744000	 50.6926
5.762000	 50.6363
5.780000	 50.6516
5.798000	 50.5814
5.816000	 50.5037
5.834000	 50.3768
5.852000	 50.3026
5.870000	 50.3795
5.888000	 50.5346
5.906000	 50.4887
5.923999	 50.3178
5.942000	 50.2125
5.960000	 50.2335
5.978000	 50.1406
5.996000	 50.0623
6.014000	 50.0937
6.032000	 50.0425
6.050000	 49.9721
6.068000	 49.9499
6.086000	 49.9528
6.104000	 49.838
6.122000	 49.679
6.140000	 49.6187
6.158000	 49.6076
6.176000	 49.5821
6.194000	 49.5606
6.212000	 49.5117
6.230000	 49.406
6.248000	 49.3678
6.266000	 49.4161
6.284000	 49.3941
6.302000	 49.3368
6.320000	 49.2249
6.338000	 49.0464
6.356000	 49.0117
6.374000	 49.0373
6.392000	 48.9882
6.410000	 48.9638
6.428000	 48.9983
6.446000	 48.9843
6.464000	 48.9034
6.482000	 48.7823
6.500000	 48.7143
6.518000	 48.7197
6.536000	 48.7376
6.554000	 48.7248
6.572000	 48.6869
6.590000	 48.7016
6.608000	 48.7499
6.626000	 48.7426
6.644000	 48.6528
6.662000	 48.5606
6.680000	 48.5383
6.698000	 48.5148
6.716000	 48.3977
6.734000	 48.283
6.752000	 48.2348
6.770000	 48.1626
6.788000	 48.0542
6.806000	 48.0167
6.824000	 48.0235
6.842000	 48.033
6.860000	 48.0191
6.878000	 47.8958
6.896000	 47.7849
6.914000	 47.767
6.932000	 47.6773
6.950000	 47.5824
6.968000	 47.6231
6.986000	 47.6732
7.004000	 47.6229
7.022000	 47.5366
7.040000	 47.5207
7.058000	 47.572
7.076000	 47.5809
7.094000	 47.5218
7.112000	 47.4536
7.130000	 47.4318
7.148000	 47.4731
7.166000	 47.4727
7.184000	 47.3618
7.202000	 47.2592
7.220000	 47.2384
7.238000	 47.2341
7.256000	 47.2171
7.274000	 47.189
7.292000	 47.1162
7.310000	 47.0322
7.328000	 47.0442
7.346000	 47.1429
7.364000	 47.1808
7.382000	 47.0948
7.400000	 46.957
7.418000	 46.8359
7.436000	 46.7789
7.454000	 46.8161
7.472000	 46.8922
7.490000	 46.9168
7.508000	 46.8817
7.526000	 46.8399
7.544000	 46.8093
7.562000	 46.7623
7.580000	 46.6757
7.598000	 46.5569
7.616000	 46.4493
7.634000	 46.4041
7.652000	 46.4051
7.670000	 46.387
7.688000	 46.3479
7.706000	 46.3488
7.724000	 46.4001
7.742000	 46.4393
7.760000	 46.4226
7.778000	 46.3741
7.796000	 46.3433
7.814000	 46.3466
7.832000	 46.3501
7.850000	 46.3133
7.868000	 46.2462
7.886000	 46.1979
7.904000	 46.1849
7.922000	 46.1672
7.940000	 46.1118
7.958000	 46.0457
7.976000	 46.0017
7.994000	 45.9653
8.012000	 45.9261
8.030000	 45.921
8.048000	 45.9689
8.065999	 46.0167
8.084000	 46.0029
8.102000	 45.937
8.120000	 45.8744
8.138000	 45.8384
8.155999	 45.8052
8.173999	 45.7573
8.192000	 45.7158
8.210000	 45.704
8.228000	 45.7058
8.246000	 45.6822
8.263999	 45.62
8.282000	 45.5408
8.300000	 45.4752
8.318000	 45.4399
8.336000	 45.4324
8.353999	 45.4391
8.372000	 45.4475
8.390000	 45.4503
8.408000	 45.4424
8.426000	 45.4231
8.443999	 45.4003
8.462000	 45.3799
8.480000	 45.3526
8.498000	 45.3022
8.516000	 45.2235
8.533999	 45.131
8.552000	 45.0511
8.570000	 45.0011
8.588000	 44.9722
8.606000	 44.9432
8.624000	 44.9126
8.641999	 44.9055
8.660000	 44.9367
8.678000	 44.9819
8.696000	 45.002
8.714000	 44.9781
8.731999	 44.9196
8.750000	 44.8554
8.768000	 44.8162
8.786000	 44.8083
8.804000	 44.8056
8.821999	 44.7765
8.840000	 44.7102
8.858000	 44.6207
8.876000	 44.5219
8.894000	 44.4192
8.911999	 44.3229
8.930000	 44.26
8.948000	 44.2559
8.966000	 44.3097
8.984000	 44.3922
9.001999	 44.4755
9.020000	 44.5605
9.038000	 44.6647
9.056000	 44.7823
9.074000	 44.8651
9.092000	 44.8549
9.109999	 44.7415
9.128000	 44.5805
9.146000	 44.4492
9.164000	 44.3859
9.182000	 44.3764
9.199999	 44.3811
9.218000	 44.3668
9.236000	 44.3214
9.254000	 44.2567
9.272000	 44.2006
9.289999	 44.1736
9.308000	 44.1616
9.326000	 44.1173
9.344000	 43.9998
9.362000	 43.8154
9.379999	 43.617
9.398000	 43.4644
9.416000	 43.3885
9.434000	 43.3957
9.452000	 43.4838
9.469999	 43.6358
9.488000	 43.7983
9.506000	 43.8926
9.524000	 43.8682
9.542000	 43.7482
9.560000	 43.6165
9.577999	 43.5561
9.596000	 43.5936
9.614000	 43.6992
9.632000	 43.8249
9.650000	 43.932
9.667999	 43.9933
9.686000	 43.9901
9.704000	 43.9225
9.722000	 43.8181
9.740000	 43.7229
9.757999	 43.6739
9.776000	 43.6731
9.794000	 43.6873
9.812000	 43.6741
9.830000	 43.6141
9.847999	 43.5228
9.866000	 43.4337
9.884000	 43.3729
9.902000	 43.3445
9.920000	 43.3343
9.937999	 43.325
9.956000	 43.309
9.974000	 43.2874
9.992000	 43.2627
10.01	43.2333
10.028	43.1956
10.046	43.1523
10.064	43.1165
10.082	43.1076
10.1	43.1405
10.118	43.2136
10.136	43.3046
10.154	43.3809
10.172	43.4143
10.19	43.3953
10.208	43.3359
10.226	43.258
10.244	43.181
10.262	43.1135
10.28	43.0544
10.298	43.0004
10.316	42.9506
10.334	42.9062
10.352	42.8666
10.37	42.8278
10.388	42.7852
10.406	42.7394
10.424	42.6988
10.442	42.675
10.46	42.6733
10.478	42.6875
10.496	42.7024
10.514	42.7049
10.532	42.6908
10.55	42.6643
10.568	42.6326
10.586	42.5999
10.604	42.5681
10.622	42.5401
10.64	42.5209
10.658	42.5155
10.676	42.5224
10.694	42.5316
10.712	42.5278
10.73	42.5011
10.748	42.4525
10.766	42.3951
10.784	42.345
10.802	42.3146
10.82	42.3075
10.838	42.319
10.856	42.3403
10.874	42.3614
10.892	42.3753
10.91	42.3787
10.928	42.372
10.946	42.3579
10.964	42.3394
10.982	42.318
11	42.2924
11.018	42.26
11.036	42.2191
11.054	42.1709
11.072	42.1203
11.09	42.0743
11.108	42.0375
11.126	42.0108
11.144	41.9904
11.162	41.9708
11.18	41.9477
11.198	41.9197
11.216	41.8888
11.234	41.8593
11.252	41.8352
11.27	41.8185
11.288	41.8089
11.306	41.8043
11.324	41.8023
11.342	41.8012
11.36	41.7998
11.378	41.796
11.396	41.7878
11.414	41.7734
11.432	41.7529
11.45	41.7297
11.468	41.7087
11.486	41.6939
11.504	41.6857
11.522	41.6798
11.54	41.6691
11.558	41.6462
11.576	41.6077
11.594	41.5556
11.612	41.497
11.63	41.4418
11.648	41.3987
11.666	41.3732
11.684	41.3661
11.702	41.3747
11.72	41.3941
11.738	41.418
11.756	41.4402
11.774	41.4542
11.792	41.4547
11.81	41.4383
11.828	41.4038
11.846	41.3531
11.864	41.2914
11.882	41.2258
11.9	41.1651
11.918	41.1175
11.936	41.0878
11.954	41.0765
11.972	41.0793
11.99	41.0882
12.008	41.0941
12.026	41.0899
12.044	41.0726
12.062	41.0444
12.08	41.0116
12.098	40.9816
12.116	40.9589
12.134	40.9427
12.152	40.9268
12.17	40.9028
12.188	40.8631
12.206	40.8049
12.224	40.7312
12.242	40.6491
12.26	40.5673
12.278	40.4941
12.296	40.4351
12.314	40.3925
12.332	40.3656
12.35	40.351
12.368	40.3441
12.386	40.3404
12.404	40.3367
12.422	40.3321
12.44	40.3274
12.458	40.3249
12.476	40.327
12.494	40.3352
12.512	40.3492
12.53	40.3677
12.548	40.3885
12.566	40.4098
12.584	40.4302
12.602	40.449
12.62	40.4662
12.638	40.4817
12.656	40.4941
12.674	40.5012
12.692	40.4999
12.71	40.4876
12.728	40.4626
12.746	40.4255
12.764	40.3788
12.782	40.3267
12.8	40.2739
12.818	40.2238
12.836	40.1777
12.854	40.1345
12.872	40.0916
12.89	40.0456
12.908	39.9941
12.926	39.9367
12.944	39.8757
12.962	39.8158
12.98	39.7627
12.998	39.7218
13.016	39.6965
13.034	39.6871
13.052	39.6905
13.07	39.7011
13.088	39.7117
13.106	39.7149
13.124	39.7045
13.142	39.6763
13.16	39.6287
13.178	39.5627
13.196	39.4814
13.214	39.3903
13.232	39.2962
13.25	39.207
13.268	39.1306
13.286	39.0739
13.304	39.0416
13.322	39.0355
13.34	39.0541
13.358	39.0927
13.376	39.1439
13.394	39.1992
13.412	39.2507
13.43	39.2927
13.448	39.3223
13.466	39.3395
13.484	39.3469
13.502	39.3485
13.52	39.3479
13.538	39.3483
13.556	39.3505
13.574	39.3542
13.592	39.3572
13.61	39.3574
13.628	39.3525
13.646	39.3412
13.664	39.323
13.682	39.2988
13.7	39.2701
13.718	39.2392
13.736	39.2091
13.754	39.1827
13.772	39.1626
13.79	39.151
13.808	39.1485
13.826	39.1552
13.844	39.1689
13.862	39.1862
13.88	39.2018
13.898	39.2101
13.916	39.2055
13.934	39.1836
13.952	39.1426
13.97	39.0834
13.988	39.0096
14.006	38.9275
14.024	38.8451
14.042	38.7705
14.06	38.7103
14.078	38.6686
14.096	38.6467
14.114	38.6426
14.132	38.6519
14.15	38.6681
14.168	38.6843
14.186	38.6939
14.204	38.6916
14.222	38.6747
14.24	38.6428
14.258	38.5979
14.276	38.544
14.294	38.4855
14.312	38.4273
14.33	38.3736
14.348	38.3274
14.366	38.2905
14.384	38.263
14.402	38.2438
14.42	38.2309
14.438	38.2218
14.456	38.2144
14.474	38.207
14.492	38.1986
14.51	38.189
14.528	38.1784
14.546	38.1679
14.564	38.1583
14.582	38.1508
14.6	38.1458
14.618	38.1437
14.636	38.144
14.654	38.146
14.672	38.1487
14.69	38.1513
14.708	38.1526
14.726	38.1519
14.744	38.1486
14.762	38.1424
14.78	38.1337
14.798	38.1232
14.816	38.1121
14.834	38.1018
14.852	38.0936
14.87	38.0887
14.888	38.0878
14.906	38.0915
14.924	38.0996
14.942	38.1111
14.96	38.124
14.978	38.136
14.996	38.1445
15.014	38.1467
15.032	38.1399
15.05	38.1222
15.068	38.0925
15.086	38.0505
15.104	37.9969
15.122	37.9335
15.14	37.8628
15.158	37.7877
15.176	37.7109
15.194	37.6355
15.212	37.5646
15.23	37.5004
15.248	37.4447
15.266	37.3989
15.284	37.3639
15.302	37.3396
15.32	37.3256
15.338	37.321
15.356	37.3238
15.374	37.3313
15.392	37.3402
15.41	37.3473
15.428	37.3488
15.446	37.3405
15.464	37.3195
15.482	37.2836
15.5	37.2311
15.518	37.1621
15.536	37.0782
15.554	36.9821
15.572	36.8774
15.59	36.7701
15.608	36.6651
15.626	36.5672
15.644	36.4816
15.662	36.4124
15.68	36.3618
15.698	36.3311
15.716	36.3205
15.734	36.3283
15.752	36.3522
15.77	36.3895
15.788	36.4362
15.806	36.4892
15.824	36.5459
15.842	36.6032
15.86	36.6588
15.878	36.7113
15.896	36.7595
15.914	36.8024
15.932	36.8393
15.95	36.8697
15.968	36.8931
15.986	36.9085
16.004	36.9155
16.022	36.9132
16.04	36.9013
16.058	36.8801
16.076	36.8499
16.094	36.8121
16.112	36.7685
16.13	36.7212
16.148	36.6728
16.166	36.6264
16.184	36.5839
16.202	36.5476
16.22	36.519
16.238	36.4986
16.256	36.4864
16.274	36.4816
16.292	36.4827
16.31	36.4884
16.328	36.4964
16.346	36.5051
16.364	36.5135
16.382	36.5201
16.4	36.5242
16.418	36.5256
16.436	36.524
16.454	36.5196
16.472	36.5125
16.49	36.5027
16.508	36.4902
16.526	36.4747
16.544	36.456
16.562	36.4337
16.58	36.4073
16.598	36.3769
16.616	36.3426
16.634	36.3047
16.652	36.2645
16.67	36.2226
16.688	36.1801
16.706	36.1386
16.724	36.0987
16.742	36.0616
16.76	36.0274
16.778	35.9963
16.796	35.9682
16.814	35.9423
16.832	35.9181
16.85	35.8946
16.868	35.8715
16.886	35.8482
16.904	35.8247
16.922	35.8013
16.94	35.7784
16.958	35.7572
16.976	35.7383
16.994	35.7232
17.012	35.7124
17.03	35.7066
17.048	35.7059
17.066	35.7097
17.084	35.7175
17.102	35.7271
17.12	35.7377
17.138	35.7462
17.156	35.7509
17.174	35.7501
17.192	35.7412
17.21	35.7236
17.228	35.6959
17.246	35.6584
17.264	35.6111
17.282	35.5558
17.3	35.4935
17.318	35.4266
17.336	35.3578
17.354	35.2887
17.372	35.2234
17.39	35.163
17.408	35.1108
17.426	35.0681
17.444	35.0364
17.462	35.0167
17.48	35.0089
17.498	35.013
17.516	35.0279
17.534	35.0527
17.552	35.0848
17.57	35.1233
17.588	35.1649
17.606	35.2083
17.624	35.2513
17.642	35.292
17.66	35.3295
17.678	35.3621
17.696	35.3897
17.714	35.4116
17.732	35.4282
17.75	35.4396
17.768	35.4464
17.786	35.4489
17.804	35.4479
17.822	35.4437
17.84	35.4366
17.858	35.4268
17.876	35.4142
17.894	35.3987
17.912	35.38
17.93	35.3578
17.948	35.332
17.966	35.3023
17.984	35.2688
18.002	35.2315
18.02	35.1912
18.038	35.1481
18.056	35.1037
18.074	35.0582
18.092	35.0135
18.11	34.97
18.128	34.9295
18.146	34.8922
18.164	34.8592
18.182	34.8303
18.2	34.8059
18.218	34.7852
18.236	34.768
18.254	34.7527
18.272	34.7392
18.29	34.7253
18.308	34.7109
18.326	34.6941
18.344	34.6748
18.362	34.6517
18.38	34.6248
18.398	34.5937
18.416	34.5588
18.434	34.5204
18.452	34.4793
18.47	34.436
18.488	34.3916
18.506	34.3466
18.524	34.3019
18.542	34.2577
18.56	34.2145
18.578	34.1723
18.596	34.131
18.614	34.0905
18.632	34.0501
18.65	34.0098
18.668	33.969
18.686	33.9276
18.704	33.885
18.722	33.8415
18.74	33.7972
18.758	33.7525
18.776	33.7083
18.794	33.6651
18.812	33.6243
18.83	33.5863
18.848	33.5527
18.866	33.5236
18.884	33.5002
18.902	33.4824
18.92	33.4707
18.938	33.4643
18.956	33.4629
18.974	33.4653
18.992	33.4702
19.01	33.4763
19.028	33.4817
19.046	33.4855
19.064	33.4856
19.082	33.4815
19.1	33.4715
19.118	33.4557
19.136	33.4334
19.154	33.4052
19.172	33.3715
19.19	33.3332
19.208	33.2923
19.226	33.2493
19.244	33.2073
19.262	33.1665
19.28	33.1302
19.298	33.0981
19.316	33.073
19.334	33.0547
19.352	33.0443
19.37	33.0418
19.388	33.0467
19.406	33.059
19.424	33.0766
19.442	33.0998
19.46	33.1255
19.478	33.1538
19.496	33.1817
19.514	33.2087
19.532	33.2331
19.55	33.2538
19.568	33.2701
19.586	33.2811
19.604	33.287
19.622	33.2873
19.64	33.2824
19.658	33.273
19.676	33.2592
19.694	33.2428
19.712	33.2236
19.73	33.2034
19.748	33.1822
19.766	33.1611
19.784	33.1404
19.802	33.1203
19.82	33.1011
19.838	33.0824
19.856	33.064
19.874	33.0457
19.892	33.0262
19.91	33.0055
19.928	32.9819
19.946	32.9557
19.964	32.925
19.982	32.8898
20	32.8493
20.018	32.8029
20.036	32.7508
20.054	32.6923
20.072	32.628
20.09	32.5583
20.108	32.4831
20.126	32.4041
20.144	32.321
20.162	32.2357
20.18	32.1488
20.198	32.0612
20.216	31.9747
20.234	31.8892
20.252	31.8072
20.27	31.7282
20.288	31.6542
20.306	31.5853
20.324	31.5222
20.342	31.4658
20.36	31.4158
20.378	31.3731
20.396	31.3374
20.414	31.3089
20.432	31.2876
20.45	31.2729
20.468	31.2647
20.486	31.2626
20.504	31.2657
20.522	31.2743
20.54	31.2867
20.558	31.3033
20.576	31.3227
20.594	31.3449
20.612	31.3691
20.63	31.3942
20.648	31.4203
20.666	31.4463
20.684	31.4721
20.702	31.4972
20.72	31.5211
20.738	31.5437
20.756	31.5645
20.774	31.5837
20.792	31.6007
20.81	31.6156
20.828	31.6283
20.846	31.6384
20.864	31.646
20.882	31.6509
20.9	31.6531
20.918	31.6525
20.936	31.6486
20.954	31.6416
20.972	31.631
20.99	31.617
21.008	31.5989
21.026	31.5765
21.044	31.5499
21.062	31.5183
21.08	31.482
21.098	31.4407
21.116	31.3944
21.134	31.3433
21.152	31.2879
21.17	31.2279
21.188	31.1651
21.206	31.099
21.224	31.031
21.242	30.9626
21.26	30.8934
21.278	30.8261
21.296	30.761
21.314	30.6989
21.332	30.6422
21.35	30.5903
21.368	30.5448
21.386	30.5065
21.404	30.4751
21.422	30.4512
21.44	30.4349
21.458	30.4253
21.476	30.4226
21.494	30.426
21.512	30.4337
21.53	30.4463
21.548	30.4614
21.566	30.4773
21.584	30.4944
21.602	30.5092
21.62	30.522
21.638	30.5315
21.656	30.5354
21.674	30.5345
21.692	30.5274
21.71	30.5134
21.728	30.4931
21.746	30.4665
21.764	30.4332
21.782	30.3946
21.8	30.3512
21.818	30.3029
21.836	30.2521
21.854	30.1987
21.872	30.1434
21.89	30.0885
21.908	30.0332
21.926	29.9788
21.944	29.9262
21.962	29.8749
21.98	29.8258
21.998	29.7791
22.016	29.7343
22.034	29.6912
22.052	29.6498
22.07	29.6097
22.088	29.5704
22.106	29.5322
22.124	29.495
22.142	29.4585
22.16	29.4229
22.178	29.3889
22.196	29.356
22.214	29.3252
22.232	29.2975
22.25	29.2723
22.268	29.2509
22.286	29.2342
22.304	29.2216
22.322	29.2144
22.34	29.2128
22.358	29.2165
22.376	29.2252
22.394	29.2395
22.412	29.2582
22.43	29.2798
22.448	29.3053
22.466	29.3324
22.484	29.3594
22.502	29.3874
22.52	29.4136
22.538	29.4368
22.556	29.4578
22.574	29.4741
22.592	29.4854
22.61	29.492
22.628	29.4931
22.646	29.488
22.664	29.478
22.682	29.4645
22.7	29.4462
22.718	29.4255
22.736	29.4049
22.754	29.383
22.772	29.3626
22.79	29.3462
22.808	29.3325
22.826	29.3238
22.844	29.3219
22.862	29.3257
22.88	29.3366
22.898	29.3556
22.916	29.382
22.934	29.415
22.952	29.455
22.97	29.5015
22.988	29.5509
23.006	29.603
23.024	29.6577
23.042	29.7098
23.06	29.7593
23.078	29.8061
23.096	29.8459
23.114	29.8787
23.132	29.9047
23.15	29.9209
23.168	29.927
23.186	29.9237
23.204	29.9109
23.222	29.8879
23.24	29.8558
23.258	29.8164
23.276	29.7689
23.294	29.7144
23.312	29.656
23.33	29.5929
23.348	29.526
23.366	29.4586
23.384	29.3902
23.402	29.3213
23.42	29.2554
23.438	29.1927
23.456	29.1327
23.474	29.0768
23.492	29.0262
23.51	28.9798
23.528	28.9359
23.546	28.8944
23.564	28.8554
23.582	28.8171
23.6	28.7784
23.618	28.74
23.636	28.7016
23.654	28.6631
23.672	28.6246
23.69	28.5854
23.708	28.5447
23.726	28.5033
23.744	28.4599
23.762	28.4132
23.78	28.3638
23.798	28.3116
23.816	28.2565
23.834	28.1981
23.852	28.1371
23.87	28.0743
23.888	28.0095
23.906	27.9428
23.924	27.8751
23.942	27.8067
23.96	27.7372
23.978	27.6669
23.996	27.5963
24.014	27.5254
24.032	27.4525
24.05	27.3771
24.068	27.3004
24.086	27.2194
24.104	27.1314
24.122	27.0385
24.14	26.9386
24.158	26.8286
24.176	26.7101
24.194	26.5821
24.212	26.4414
24.23	26.2874
24.248	26.1212
24.266	25.9413
24.284	25.747
24.302	25.5389
24.32	25.3168
24.338	25.0799
24.356	24.8287
24.374	24.5632
24.392	24.2834
24.41	23.989
24.428	23.6804
24.446	23.3587
24.464	23.0247
24.482	22.6779
24.5	22.3183
24.518	21.9455
24.536	21.5586
24.554	21.1599
24.572	20.7518
24.59	20.3322
24.608	19.9028
24.626	19.4692
24.644	19.0324
24.662	18.5891
24.68	18.1485
24.698	17.7191
24.716	17.2939
24.734	16.8791
24.752	16.4855
24.77	16.1111
24.788	15.7544
24.806	15.429
24.824	15.144
24.842	14.8906
24.86	14.6765
24.878	14.5115
24.896	14.3908
24.914	14.316
24.932	14.2979
24.95	14.3429
24.968	14.4451
24.986	14.6067
25.004	14.8306
25.022	15.1132
25.04	15.4568
25.058	15.8677
25.076	16.3475
25.094	16.892
25.112	17.5077
25.13	18.2009
25.148	18.9671
25.166	19.8083
25.184	20.7314
25.202	21.7394
25.22	22.8275
25.238	24.0001
25.256	25.2618
25.274	26.6163
25.292	28.0573
25.31	29.5753
25.328	31.1691
25.346	32.849
25.364	34.592
25.382	36.3724
25.4	38.2072
25.418	40.0907
25.436	41.9807
25.454	43.8484
25.472	45.7313
25.49	47.5927
25.508	49.3812
25.526	51.0935
25.544	52.7537
25.562	54.3118
25.58	55.721
25.598	57.0099
25.616	58.1694
25.634	59.1607
25.652	59.9576
25.67	60.5825
25.688	61.0308
25.706	61.2936
25.724	61.361
25.742	61.2407
25.76	60.9526
25.778	60.5136
25.796	59.9002
25.814	59.1319
25.832	58.2484
25.85	57.2721
25.868	56.1666
25.886	54.9712
25.904	53.7355
25.922	52.4671
25.94	51.139
25.958	49.7918
25.976	48.4666
25.994	47.1492
26.012	45.8353
26.03	44.5541
26.048	43.3303
26.066	42.1444
26.084	41.0038
26.102	39.9287
26.12	38.9332
26.138	38.0055
26.156	37.147
26.174	36.3613
26.192	35.6492
26.21	35.0075
26.228	34.4396
26.246	33.9491
26.264	33.541
26.282	33.2117
26.3	32.9514
26.318	32.7502
26.336	32.6214
26.354	32.5587
26.372	32.5379
26.39	32.5373
26.408	32.5794
26.426	32.653
26.444	32.7277
26.462	32.78
26.48	32.8418
26.498	32.8917
26.516	32.8917
26.534	32.8139
26.552	32.6882
26.57	32.5008
26.588	32.2279
26.606	31.8524
26.624	31.389
26.642	30.8373
26.66	30.1936
26.678	29.4513
26.696	28.6056
26.714	27.6751
26.732	26.6797
26.75	25.6202
26.768	24.469
26.786	23.2709
26.804	22.0762
26.822	20.9045
26.84	19.7126
26.858	18.5389
26.876	17.4275
26.894	16.4013
26.912	15.4273
26.93	14.5208
26.948	13.7011
26.966	12.971
26.984	12.3044
27.002	11.7358
27.02	11.3042
27.028	11.1813