File: Bakgrunnsmateriale/MATLAB/FTIR/ftir_data/subBb/Mapping_121/C-4040-8_e126_cm-1.asc
PE IR       SPECTRUM    SPECTRUM    ASCII       PEDS        1.60
  -1
C-3BCF~1.ASC
17/03/27
21:45:55.00
17/03/27
21:45:55.00
tln
$C-4040-8_e0126$<ebV0>[-23.3,12.1,10.0,0.0,27,1,0]
370
64

2002,4.07
MIRTGS : RIGHTBACK : INTERNAL 2
MIR : ON : INTERNAL 2
OPTKBR

0.200000
8
8.000000
FILLER
SINGLE
SPECTRUM
UNLOCKED 256

DOUBLE

COMBINED
1
0
0

1.000000
BACKG

1
0
TRUE
51149
0
LEFT NOT FITTED RIGHT NOT FITTED 0
NONE
NONE
15600
12
4.427000
51148
TRUE
1 0 8 72 0 0 0 0

15798

#HDR
-1
-1
#GR
CM-1
EGY
2.38419e-05
0.0
5000
-1.000000
4631
8
2.458310
0.003147
#DATA
5000	0.763607
4996	0.766849
4992	0.769877
4988	0.770759
4984	0.772309
4980	0.775504
4976	0.777912
4972	0.779795
4968	0.780916
4964	0.779986
4960	0.778555
4956	0.780701
4952	0.785183
4948	0.787091
4944	0.789093
4940	0.792264
4936	0.794124
4932	0.796246
4928	0.798177
4924	0.797581
4920	0.796246
4916	0.796246
4912	0.797700
4908	0.800871
4904	0.804281
4900	0.805926
4896	0.806260
4892	0.806903
4888	0.806784
4884	0.806045
4880	0.808525
4876	0.812482
4872	0.814366
4868	0.815224
4864	0.818300
4860	0.822973
4856	0.827121
4852	0.828957
4848	0.829267
4844	0.832414
4840	0.837731
4836	0.841760
4832	0.843954
4828	0.844836
4824	0.846195
4820	0.848531
4816	0.851058
4812	0.853514
4808	0.856184
4804	0.859594
4800	0.862360
4796	0.863671
4792	0.865197
4788	0.867056
4784	0.869107
4780	0.872755
4776	0.876903
4772	0.879549
4768	0.881218
4764	0.882887
4760	0.883960
4756	0.884842
4752	0.886464
4748	0.888776
4744	0.892782
4740	0.896644
4736	0.897121
4732	0.895714
4728	0.895190
4724	0.895071
4720	0.896668
4716	0.899171
4712	0.898814
4708	0.898456
4704	0.900387
4700	0.901627
4696	0.901412
4692	0.901126
4688	0.901556
4684	0.902271
4680	0.903296
4676	0.905156
4672	0.905656
4668	0.904917
4664	0.905299
4660	0.906229
4656	0.906062
4652	0.905442
4648	0.905799
4644	0.907421
4640	0.910353
4636	0.912928
4632	0.913763
4628	0.914168
4624	0.916266
4620	0.919127
4616	0.921249
4612	0.924849
4608	0.929832
4604	0.933074
4600	0.934171
4596	0.934648
4592	0.935864
4588	0.937938
4584	0.939750
4580	0.942373
4576	0.947260
4572	0.952601
4568	0.956320
4564	0.958347
4560	0.958871
4556	0.960183
4552	0.963568
4548	0.967240
4544	0.972771
4540	0.981712
4536	0.989389
4532	0.990986
4528	0.987768
4524	0.985836
4520	0.988483
4516	0.993227
4512	0.995945
4508	0.997686
4504	1.001238
4500	1.003599
4496	1.003599
4492	1.003932
4488	1.004195
4484	1.003980
4480	1.004219
4476	1.006150
4472	1.008749
4468	1.010084
4464	1.010918
4460	1.012802
4456	1.014852
4452	1.015043
4448	1.013374
4444	1.014184
4440	1.015806
4436	1.014423
4432	1.011204
4428	1.010012
4424	1.011705
4420	1.012277
4416	1.009631
4412	1.006841
4408	1.003623
4404	0.999546
4400	0.992512
4396	0.973892
4392	0.911283
4388	0.762796
4384	0.716423
4380	0.898003
4376	1.044917
4372	1.055073
4368	1.053071
4364	1.060557
4360	1.064181
4356	1.067447
4352	1.071214
4348	1.073908
4344	1.076436
4340	1.081562
4336	1.085472
4332	1.087045
4328	1.087069
4324	1.085734
4320	1.090312
4316	1.100397
4312	1.108622
4308	1.114630
4304	1.119589
4300	1.124024
4296	1.127958
4292	1.131963
4288	1.136040
4284	1.139807
4280	1.143264
4276	1.144218
4272	1.145291
4268	1.147890
4264	1.149940
4260	1.153540
4256	1.159477
4252	1.166224
4248	1.170897
4244	1.172757
4240	1.174664
4236	1.175951
4232	1.177835
4228	1.181554
4224	1.184010
4220	1.185083
4216	1.185870
4212	1.187610
4208	1.189446
4204	1.191139
4200	1.196169
4196	1.201009
4192	1.203489
4188	1.204872
4184	1.203346
4180	1.200938
4176	1.199817
4172	1.203489
4168	1.208829
4164	1.209568
4160	1.209878
4156	1.212143
4152	1.214528
4148	1.215958
4144	1.217269
4140	1.219940
4136	1.223826
4132	1.229476
4128	1.234006
4124	1.235342
4120	1.237440
4116	1.241683
4112	1.246666
4108	1.250410
4104	1.252627
4100	1.256299
4096	1.262211
4092	1.269578
4088	1.276063
4084	1.280379
4080	1.285266
4076	1.292371
4072	1.299214
4068	1.304745
4064	1.310348
4060	1.314949
4056	1.319003
4052	1.324725
4048	1.331734
4044	1.337218
4040	1.340031
4036	1.343369
4032	1.348185
4028	1.352286
4024	1.355576
4020	1.360177
4016	1.366233
4012	1.371669
4008	1.375675
4004	1.379442
4000	1.384258
3996	1.388359
3992	1.390838
3988	1.392197
3984	1.393008
3980	1.396322
3976	1.401257
3972	1.403594
3968	1.403951
3964	1.404762
3960	1.408076
3956	1.412916
3952	1.414608
3948	1.414394
3944	1.415133
3940	1.415514
3936	1.416039
3932	1.418137
3928	1.421117
3924	1.422429
3920	1.422047
3916	1.421999
3912	1.422619
3908	1.422715
3904	1.423072
3900	1.426529
3896	1.430201
3892	1.432108
3888	1.434826
3884	1.437306
3880	1.438975
3876	1.439595
3872	1.439881
3868	1.442122
3864	1.445674
3860	1.446676
3856	1.444768
3852	1.450634
3848	1.462411
3844	1.466131
3840	1.465034
3836	1.470375
3832	1.482486
3828	1.491951
3824	1.492547
3820	1.489615
3816	1.492428
3812	1.500368
3808	1.506638
3804	1.509881
3800	1.514339
3796	1.521682
3792	1.528215
3788	1.532411
3784	1.536107
3780	1.540541
3776	1.542711
3772	1.542472
3768	1.545667
3764	1.551675
3760	1.553630
3756	1.549243
3752	1.543354
3748	1.540994
3744	1.545095
3740	1.552653
3736	1.556253
3732	1.558518
3728	1.561713
3724	1.564621
3720	1.567983
3716	1.568627
3712	1.568245
3708	1.570606
3704	1.572608
3700	1.573133
3696	1.571059
3692	1.565027
3688	1.563096
3684	1.567435
3680	1.567912
3676	1.563143
3672	1.561260
3668	1.565551
3664	1.571011
3660	1.572299
3656	1.569676
3652	1.565837
3648	1.566028
3644	1.570653
3640	1.574993
3636	1.576304
3632	1.573300
3628	1.571393
3624	1.573204
3620	1.575207
3616	1.577997
3612	1.581335
3608	1.584553
3604	1.587748
3600	1.589608
3596	1.590442
3592	1.589989
3588	1.590752
3584	1.595067
3580	1.599597
3576	1.602792
3572	1.603627
3568	1.602387
3564	1.604127
3560	1.609444
3556	1.614379
3552	1.617550
3548	1.620101
3544	1.622104
3540	1.621985
3536	1.620697
3532	1.620388
3528	1.621127
3524	1.621794
3520	1.622915
3516	1.624274
3512	1.623392
3508	1.621627
3504	1.622176
3500	1.623511
3496	1.621699
3492	1.617908
3488	1.616692
3484	1.617956
3480	1.617193
3476	1.612949
3472	1.607298
3468	1.603293
3464	1.602411
3460	1.601243
3456	1.598882
3452	1.597619
3448	1.595830
3444	1.591920
3440	1.587438
3436	1.583790
3432	1.581454
3428	1.581430
3424	1.583480
3420	1.585388
3416	1.586365
3412	1.587152
3408	1.588654
3404	1.591539
3400	1.596164
3396	1.600885
3392	1.604247
3388	1.606583
3384	1.608753
3380	1.611018
3376	1.614046
3372	1.617646
3368	1.621794
3364	1.627564
3360	1.634621
3356	1.641011
3352	1.644992
3348	1.648569
3344	1.654958
3340	1.663231
3336	1.669979
3332	1.674795
3328	1.679611
3324	1.686096
3320	1.694250
3316	1.701569
3312	1.707363
3308	1.712560
3304	1.717686
3300	1.722955
3296	1.728129
3292	1.733684
3288	1.739454
3284	1.743292
3280	1.746559
3276	1.750326
3272	1.753544
3268	1.757383
3264	1.761841
3260	1.765847
3256	1.768636
3252	1.771187
3248	1.774334
3244	1.776814
3240	1.779580
3236	1.782774
3232	1.784920
3228	1.786303
3224	1.785683
3220	1.783323
3216	1.782321
3212	1.782727
3208	1.784968
3204	1.789236
3200	1.793432
3196	1.795983
3192	1.795530
3188	1.794910
3184	1.795840
3180	1.795649
3176	1.794981
3172	1.795220
3168	1.797389
3164	1.800036
3160	1.800131
3156	1.801848
3152	1.808071
3148	1.814079
3144	1.815629
3140	1.815748
3136	1.819753
3132	1.823377
3128	1.826310
3124	1.834750
3120	1.843452
3116	1.849150
3112	1.854109
3108	1.856374
3104	1.859998
3100	1.869940
3096	1.881575
3092	1.890778
3088	1.899147
3084	1.908302
3080	1.916241
3076	1.920771
3072	1.924514
3068	1.930546
3064	1.938009
3060	1.944923
3056	1.951408
3052	1.957750
3048	1.962399
3044	1.966452
3040	1.970291
3036	1.972556
3032	1.973462
3028	1.970362
3024	1.962637
3020	1.957082
3016	1.962041
3012	1.978659
3008	1.998615
3004	2.013349
3000	2.021908
2996	2.026438
2992	2.027535
2988	2.026867
2984	2.024674
2980	2.016973
2976	2.002620
2972	1.982831
2968	1.958012
2964	1.935815
2960	1.924228
2956	1.920866
2952	1.918411
2948	1.908159
2944	1.883172
2940	1.846647
2936	1.811146
2932	1.784014
2928	1.767063
2924	1.770997
2920	1.803421
2916	1.851534
2912	1.895117
2908	1.924800
2904	1.944303
2900	1.960968
2896	1.975107
2892	1.985931
2888	1.995444
2884	2.003073
2880	2.004694
2876	1.998448
2872	1.982617
2868	1.952123
2864	1.915693
2860	1.902103
2856	1.924252
2852	1.964616
2848	2.006411
2844	2.043366
2840	2.069926
2836	2.087521
2832	2.102971
2828	2.117252
2824	2.128958
2820	2.139377
2816	2.149200
2812	2.158164
2808	2.166223
2804	2.173686
2800	2.180433
2796	2.184700
2792	2.188777
2788	2.196598
2784	2.206325
2780	2.215170
2776	2.223062
2772	2.229475
2768	2.234673
2764	2.239680
2760	2.243256
2756	2.244949
2752	2.246856
2748	2.249741
2744	2.252793
2740	2.254104
2736	2.253651
2732	2.253651
2728	2.254033
2724	2.253174
2720	2.251863
2716	2.250885
2712	2.249264
2708	2.246308
2704	2.244067
2700	2.243185
2696	2.241373
2692	2.238941
2688	2.237462
2684	2.235531
2680	2.232980
2676	2.230548
2672	2.226424
2668	2.220654
2664	2.216935
2660	2.216458
2656	2.217030
2652	2.216768
2648	2.215409
2644	2.214860
2640	2.216839
2636	2.218508
2632	2.217483
2628	2.216315
2624	2.216649
2620	2.217721
2616	2.219128
2612	2.220487
2608	2.221775
2604	2.223706
2600	2.226281
2596	2.228260
2592	2.230048
2588	2.232813
2584	2.237176
2580	2.244329
2576	2.252125
2572	2.258777
2568	2.264595
2564	2.268958
2560	2.273511
2556	2.278494
2552	2.283358
2548	2.287983
2544	2.291846
2540	2.296900
2536	2.302694
2532	2.308750
2528	2.314305
2524	2.316904
2520	2.318000
2516	2.318978
2512	2.320623
2508	2.323627
2504	2.324676
2500	2.321720
2496	2.319335
2492	2.319455
2488	2.319931
2484	2.320170
2480	2.318406
2476	2.315545
2472	2.314400
2468	2.314233
2464	2.312707
2460	2.308368
2456	2.303576
2452	2.300024
2448	2.297115
2444	2.294325
2440	2.291274
2436	2.287554
2432	2.283883
2428	2.281975
2424	2.278614
2420	2.270650
2416	2.263545
2412	2.260088
2408	2.255797
2404	2.251505
2400	2.249789
2396	2.249622
2392	2.249050
2388	2.248048
2384	2.246856
2380	2.244329
2376	2.241468
2372	2.238130
2368	2.234315
2364	2.232789
2360	2.236127
2356	2.244615
2352	2.255153
2348	2.261734
2344	2.263569
2340	2.265477
2336	2.269554
2332	2.276635
2328	2.285003
2324	2.292418
2320	2.299904
2316	2.308034
2312	2.316737
2308	2.325344
2304	2.332186
2300	2.337956
2296	2.343320
2292	2.347683
2288	2.352404
2284	2.357459
2280	2.360820
2276	2.363824
2272	2.368521
2268	2.372980
2264	2.375578
2260	2.376961
2256	2.378797
2252	2.380490
2248	2.380537
2244	2.381491
2240	2.383399
2236	2.383136
2232	2.380681
2228	2.378225
2224	2.376008
2220	2.373170
2216	2.371263
2212	2.370500
2208	2.368283
2204	2.364897
2200	2.361845
2196	2.357697
2192	2.352714
2188	2.349209
2184	2.345538
2180	2.342343
2176	2.341175
2172	2.338194
2168	2.334451
2164	2.332544
2160	2.330660
2156	2.328872
2152	2.330160
2148	2.333736
2144	2.334237
2140	2.332925
2136	2.332448
2132	2.332663
2128	2.334809
2124	2.337336
2120	2.337336
2116	2.335548
2112	2.333188
2108	2.333641
2104	2.338719
2100	2.341842
2096	2.340340
2092	2.339863
2088	2.342963
2084	2.345657
2080	2.346873
2076	2.346897
2072	2.344489
2068	2.347874
2064	2.363038
2060	2.382159
2056	2.397847
2052	2.406644
2048	2.410340
2044	2.414917
2040	2.422308
2036	2.430009
2032	2.435278
2028	2.439117
2024	2.443051
2020	2.446103
2016	2.448606
2012	2.451348
2008	2.454257
2004	2.457022
2000	2.458262
1996	2.458214
1992	2.457714
1988	2.455592
1984	2.451968
1980	2.449083
1976	2.446079
1972	2.440977
1968	2.435660
1964	2.432632
1960	2.431654
1956	2.430105
1952	2.427577
1948	2.423882
1944	2.418804
1940	2.413725
1936	2.409362
1932	2.405810
1928	2.402710
1924	2.398848
1920	2.394437
1916	2.392077
1912	2.390646
1908	2.386617
1904	2.380943
1900	2.376103
1896	2.373051
1892	2.371406
1888	2.371311
1884	2.372789
1880	2.375268
1876	2.377533
1872	2.378416
1868	2.380347
1864	2.384090
1860	2.387547
1856	2.391266
1852	2.393698
1848	2.392983
1844	2.393293
1840	2.398419
1836	2.403736
1832	2.405214
1828	2.407073
1824	2.413058
1820	2.420306
1816	2.425241
1812	2.428603
1808	2.430891
1804	2.431392
1800	2.431488
1796	2.430629
1792	2.429819
1788	2.431416
1784	2.431702
1780	2.428197
1776	2.420496
1772	2.413153
1768	2.412390
1764	2.412772
1760	2.410292
1756	2.403068
1752	2.389717
1748	2.375936
1744	2.362489
1740	2.346110
1736	2.331042
1732	2.326488
1728	2.329826
1724	2.326560
1720	2.313184
1716	2.302575
1712	2.298903
1708	2.290630
1704	2.273964
1700	2.258610
1696	2.256035
1692	2.259802
1688	2.252221
1684	2.242064
1680	2.240562
1676	2.235579
1672	2.225685
1668	2.218365
1664	2.212834
1660	2.202296
1656	2.181935
1652	2.165651
1648	2.162981
1644	2.162408
1640	2.153801
1636	2.141690
1632	2.135133
1628	2.126383
1624	2.106547
1620	2.076888
1616	2.039957
1612	2.000737
1608	1.974558
1604	1.976108
1600	1.994347
1596	2.010273
1592	2.017307
1588	2.015161
1584	2.006292
1580	1.993441
1576	1.985025
1572	1.984024
1568	1.978731
1564	1.959013
1560	1.936459
1556	1.936483
1552	1.951837
1548	1.957058
1544	1.956963
1540	1.980590
1536	2.033352
1532	2.082872
1528	2.107977
1524	2.113246
1520	2.109813
1516	2.103924
1512	2.092051
1508	2.064633
1504	1.994824
1500	1.849889
1496	1.700568
1492	1.684093
1488	1.791357
1484	1.903152
1480	1.960825
1476	1.975727
1472	1.973795
1468	1.963210
1464	1.934504
1460	1.878452
1456	1.805567
1452	1.761913
1448	1.781988
1444	1.829600
1440	1.856732
1436	1.866841
1432	1.872634
1428	1.872038
1424	1.865053
1420	1.855325
1416	1.842093
1412	1.812577
1408	1.762652
1404	1.724553
1400	1.728773
1396	1.761031
1392	1.786637
1388	1.787757
1384	1.783514
1380	1.795053
1376	1.809287
1372	1.815247
1368	1.816916
1364	1.817107
1360	1.816654
1356	1.815032
1352	1.812314
1348	1.810050
1344	1.810979
1340	1.817464
1336	1.828837
1332	1.839637
1328	1.845622
1324	1.848983
1320	1.852917
1316	1.858186
1312	1.861238
1308	1.859521
1304	1.855874
1300	1.853775
1296	1.853418
1292	1.853442
1288	1.853156
1284	1.851344
1280	1.845097
1276	1.831173
1272	1.805257
1268	1.764345
1264	1.724624
1260	1.720356
1256	1.755285
1252	1.795983
1248	1.820707
1244	1.831030
1240	1.834201
1236	1.833486
1232	1.829838
1228	1.823806
1224	1.814174
1220	1.798939
1216	1.778602
1212	1.759052
1208	1.747083
1204	1.743507
1200	1.743435
1196	1.742243
1192	1.738286
1188	1.731395
1184	1.721215
1180	1.709127
1176	1.697278
1172	1.683640
1168	1.665806
1164	1.646208
1160	1.627922
1156	1.615810
1152	1.611113
1148	1.606559
1144	1.598000
1140	1.587033
1136	1.574778
1132	1.560401
1128	1.541876
1124	1.519656
1120	1.496815
1116	1.475262
1112	1.455569
1108	1.439976
1104	1.432442
1100	1.430368
1096	1.429009
1092	1.429939
1088	1.432800
1084	1.432943
1080	1.429963
1076	1.429319
1072	1.433658
1068	1.438188
1064	1.437759
1060	1.421999
1056	1.371622
1052	1.310968
1048	1.304936
1044	1.348423
1040	1.381587
1036	1.387858
1032	1.380586
1028	1.368498
1024	1.358938
1020	1.359605
1016	1.370096
1012	1.382827
1008	1.392745
1004	1.399564
1000	1.403141
996	 1.401901
992	 1.396417
988	 1.389527
984	 1.383209
980	 1.376271
976	 1.367402
972	 1.356005
968	 1.341867
964	 1.328229
960	 1.315236
956	 1.300454
952	 1.286363
948	 1.276206
944	 1.268243
940	 1.260805
936	 1.253557
932	 1.242995
928	 1.229572
924	 1.217722
920	 1.207661
916	 1.198267
912	 1.185274
908	 1.170206
904	 1.161670
900	 1.157236
896	 1.149797
892	 1.138448
888	 1.118826
884	 1.087331
880	 1.051807
876	 1.030778
872	 1.036691
868	 1.060032
864	 1.081514
860	 1.090812
856	 1.090049
852	 1.085996
848	 1.082396
844	 1.076865
840	 1.062703
836	 1.028752
832	 0.963521
828	 0.884890
824	 0.846600
820	 0.872707
816	 0.918912
812	 0.943589
808	 0.949311
804	 0.948667
800	 0.948143
796	 0.951552
792	 0.961565
788	 0.974488
784	 0.982403
780	 0.983500
776	 0.980663
772	 0.976181
768	 0.971126
764	 0.967502
760	 0.965261
756	 0.960588
752	 0.953793
748	 0.947308
744	 0.942420
740	 0.939011
736	 0.931668
732	 0.918698
728	 0.904870
724	 0.892329
720	 0.880837
716	 0.871062
712	 0.860166
708	 0.845837
704	 0.829672
700	 0.813245
696	 0.792717
692	 0.762391
688	 0.735473
684	 0.729417
680	 0.733661
676	 0.732302
672	 0.725698
668	 0.717949
664	 0.709486
660	 0.700426
656	 0.690031
652	 0.678014
648	 0.665807
644	 0.654649
640	 0.644469
636	 0.634884
632	 0.624561
628	 0.612783
624	 0.600743
620	 0.589299
616	 0.576829
612	 0.558853
608	 0.538325
604	 0.527024
600	 0.525498
596	 0.523829
592	 0.519084
588	 0.514078
584	 0.509524
580	 0.504827
576	 0.500059
572	 0.495815
568	 0.492072
564	 0.487232
560	 0.480341
556	 0.471925
552	 0.464010
548	 0.457859
544	 0.452399
540	 0.445914
536	 0.437831
532	 0.429463
528	 0.420737
524	 0.411772
520	 0.402140
516	 0.391268
512	 0.380682
508	 0.370597
504	 0.360512
500	 0.348639
496	 0.333356
492	 0.317454
488	 0.303411
484	 0.290131
480	 0.276947
476	 0.264239
472	 0.252699
468	 0.242471
464	 0.231385
460	 0.216078
456	 0.197386
452	 0.181436
448	 0.170946
444	 0.162076
440	 0.151896
436	 0.140595
432	 0.128316
428	 0.114679
424	 0.100898
420	 0.088238
416	 0.077819
412	 0.069284
408	 0.060582
404	 0.048494
400	 0.035023
396	 0.029206
392	 0.026535
388	 0.020742
384	 0.016689
380	 0.011873
376	 0.005674
372	 0.003194
370	 0.003218