File: Bakgrunnsmateriale/MATLAB/FTIR/ftir_data/subBb/Mapping_121/C-4040-8_t102.asc
PE IR       SPECTRUM    SPECTRUM    ASCII       PEDS        1.60
  -1
C-84C6~1.ASC
17/03/27
22:52:01.00
17/03/27
22:52:27.00
tln
$C-4040-8_t0102$<tbV0>[7.8,10.4,8.0,0.0,27,1,0]
27.028
64

2002,4.07
MIRTGS : RIGHTBACK : INTERNAL 2
MIR : ON : INTERNAL 2
OPTKBR

0.200000
8
8.000000
FILLER
RATIO
SPECTRUM
UNLOCKED 256

DOUBLE
64
COMBINED
1
0
0

0.002000
RATIO

1
0
TRUE
51149
0
LEFT NOT FITTED RIGHT NOT FITTED 0
NONE
NONE
15600
12
4.427000
51148
TRUE
1 0 8 72 0 0 0 0

15798

#HDR
-1
-1
#GR
µM
%T
2.38419e-05
0.0
2.000000
0.002000
12515
8
201.568
47.6807
#DATA
2.000000	 65.0988
2.018000	 65.1287
2.036000	 64.9236
2.054000	 65.4305
2.072000	 64.739
2.090000	 65.2385
2.108000	 64.7055
2.126000	 65.2757
2.144000	 65.5996
2.162000	 65.4175
2.180000	 65.2534
2.198000	 65.1664
2.216000	 64.1632
2.234000	 64.1202
2.252000	 63.8302
2.270000	 62.8882
2.288000	 65.969
2.306000	 64.1378
2.324000	 64.0398
2.342000	 64.6966
2.360000	 64.4569
2.378000	 64.7557
2.396000	 65.4173
2.414000	 64.8886
2.432000	 65.0282
2.450000	 65.121
2.468000	 65.1157
2.486000	 65.4955
2.504000	 65.0892
2.522000	 65.1455
2.540000	 64.9326
2.558000	 65.1779
2.576000	 64.9377
2.594000	 64.9373
2.612000	 64.6616
2.630000	 64.9896
2.648000	 64.8237
2.666000	 65.2079
2.684000	 65.4648
2.702000	 65.1959
2.720000	 65.0861
2.738000	 65.0672
2.756000	 65.1646
2.774000	 65.2276
2.792000	 65.4253
2.810000	 65.0661
2.828000	 65.1922
2.846000	 65.0759
2.864000	 64.9888
2.882000	 65.4002
2.900000	 65.0903
2.918000	 65.245
2.936000	 65.1497
2.954000	 65.0772
2.972000	 65.0097
2.990000	 65.0329
3.008000	 64.9665
3.026000	 64.963
3.044000	 65.0615
3.062000	 65.2407
3.080000	 65.0508
3.098000	 65.1922
3.116000	 65.1893
3.134000	 64.9861
3.152000	 65.2283
3.170000	 65.2133
3.188000	 65.3291
3.206000	 65.0527
3.224000	 65.2465
3.242000	 65.1233
3.260000	 65.2264
3.278000	 65.1562
3.296000	 65.1782
3.314000	 65.1353
3.332000	 65.1946
3.350000	 65.0792
3.368000	 65.0254
3.386000	 64.9864
3.404000	 65.2182
3.422000	 64.6809
3.440000	 65.0288
3.458000	 65.1028
3.476000	 65.142
3.494000	 65.2442
3.512000	 64.8344
3.530000	 65.2633
3.548000	 65.1748
3.566000	 65.1342
3.584000	 65.3724
3.602000	 65.1772
3.620000	 65.205
3.638000	 65.137
3.656000	 65.2374
3.674000	 65.1785
3.692000	 65.1653
3.710000	 65.2039
3.728000	 65.1969
3.746000	 65.314
3.764000	 65.2419
3.782000	 65.1554
3.800000	 65.2568
3.818000	 65.1757
3.836000	 65.0754
3.854000	 65.0686
3.872000	 65.2192
3.890000	 65.0841
3.908000	 65.2257
3.926000	 65.2331
3.944000	 65.1734
3.962000	 65.1763
3.980000	 65.0734
3.998000	 64.9549
4.016000	 65.2479
4.034000	 65.2736
4.052000	 65.2644
4.070000	 65.0213
4.088000	 65.0241
4.106000	 65.3264
4.124000	 65.4662
4.141999	 64.9619
4.160000	 65.1769
4.178000	 65.2474
4.196000	 65.1742
4.214000	 65.1922
4.232000	 65.1965
4.250000	 65.2851
4.268000	 65.3665
4.286000	 65.1344
4.304000	 65.316
4.322000	 65.2362
4.340000	 65.1695
4.358000	 65.2678
4.375999	 65.3015
4.394000	 65.3103
4.412000	 65.2777
4.430000	 65.243
4.448000	 65.2719
4.466000	 65.1583
4.484000	 65.1538
4.502000	 65.1947
4.520000	 65.1676
4.538000	 65.1357
4.556000	 65.1115
4.574000	 65.2297
4.592000	 65.1335
4.609999	 65.1216
4.628000	 65.2386
4.646000	 65.2303
4.664000	 65.2008
4.682000	 65.1349
4.700000	 65.1199
4.718000	 65.1849
4.736000	 65.4034
4.754000	 65.1906
4.772000	 65.1628
4.790000	 65.1606
4.808000	 65.3042
4.826000	 66.0833
4.843999	 65.9446
4.862000	 65.2023
4.880000	 64.989
4.898000	 65.241
4.916000	 65.0589
4.934000	 65.1434
4.952000	 65.1443
4.970000	 65.3755
4.988000	 65.3551
5.006000	 65.1841
5.024000	 65.1181
5.042000	 65.3165
5.060000	 65.2916
5.077999	 65.3713
5.096000	 65.2631
5.114000	 65.122
5.132000	 65.1286
5.150000	 65.2751
5.168000	 65.4921
5.186000	 65.3789
5.204000	 65.2503
5.222000	 65.2534
5.240000	 65.1175
5.258000	 65.1367
5.276000	 65.2405
5.294000	 65.2144
5.312000	 65.2341
5.330000	 65.1644
5.348000	 65.1102
5.366000	 65.0988
5.384000	 65.1494
5.402000	 65.2888
5.420000	 65.333
5.438000	 65.2781
5.456000	 65.3167
5.474000	 65.3331
5.492000	 65.1971
5.510000	 65.1446
5.528000	 65.0854
5.546000	 65.1122
5.564000	 65.1236
5.582000	 65.1889
5.600000	 65.1201
5.618000	 65.1477
5.636000	 65.2792
5.654000	 65.1666
5.672000	 65.061
5.690000	 65.0675
5.708000	 65.136
5.726000	 65.199
5.744000	 65.125
5.762000	 64.9499
5.780000	 64.8826
5.798000	 64.7975
5.816000	 64.8528
5.834000	 64.936
5.852000	 64.9489
5.870000	 65.0396
5.888000	 65.0186
5.906000	 64.9826
5.923999	 64.9924
5.942000	 65.0239
5.960000	 65.0748
5.978000	 65.1469
5.996000	 65.129
6.014000	 65.1396
6.032000	 65.1182
6.050000	 65.0322
6.068000	 65.0373
6.086000	 65.0502
6.104000	 65.185
6.122000	 65.2518
6.140000	 65.1079
6.158000	 65.0258
6.176000	 64.9459
6.194000	 64.9025
6.212000	 65.0331
6.230000	 65.1548
6.248000	 65.101
6.266000	 65.0126
6.284000	 65.0303
6.302000	 65.0555
6.320000	 65.0648
6.338000	 65.0254
6.356000	 64.9253
6.374000	 64.8486
6.392000	 64.8132
6.410000	 64.8116
6.428000	 64.9531
6.446000	 65.0869
6.464000	 65.0236
6.482000	 64.9289
6.500000	 64.9502
6.518000	 65.003
6.536000	 65.0185
6.554000	 64.9956
6.572000	 65.0116
6.590000	 65.0211
6.608000	 64.976
6.626000	 65.0059
6.644000	 65.1054
6.662000	 65.1876
6.680000	 65.2219
6.698000	 65.1915
6.716000	 65.1448
6.734000	 65.1202
6.752000	 65.0999
6.770000	 65.0265
6.788000	 64.9421
6.806000	 64.9267
6.824000	 64.9823
6.842000	 65.0639
6.860000	 65.0524
6.878000	 65.0261
6.896000	 65.0645
6.914000	 65.0225
6.932000	 64.934
6.950000	 64.8406
6.968000	 64.7571
6.986000	 64.8091
7.004000	 64.9757
7.022000	 65.0922
7.040000	 65.0884
7.058000	 65.0317
7.076000	 65.0107
7.094000	 65.0626
7.112000	 65.1003
7.130000	 65.0371
7.148000	 64.9656
7.166000	 64.9576
7.184000	 64.9511
7.202000	 64.9594
7.220000	 65.0185
7.238000	 65.0313
7.256000	 64.9353
7.274000	 64.8386
7.292000	 64.8445
7.310000	 64.9276
7.328000	 64.993
7.346000	 65.0057
7.364000	 65.0258
7.382000	 65.0702
7.400000	 65.0884
7.418000	 65.081
7.436000	 65.0659
7.454000	 65.0128
7.472000	 64.9308
7.490000	 64.8982
7.508000	 64.9356
7.526000	 64.9692
7.544000	 64.9511
7.562000	 64.899
7.580000	 64.8392
7.598000	 64.7911
7.616000	 64.767
7.634000	 64.7725
7.652000	 64.8365
7.670000	 64.9618
7.688000	 65.0775
7.706000	 65.1293
7.724000	 65.1413
7.742000	 65.1443
7.760000	 65.1319
7.778000	 65.0963
7.796000	 65.0429
7.814000	 64.9944
7.832000	 64.9771
7.850000	 64.975
7.868000	 64.9393
7.886000	 64.8707
7.904000	 64.8284
7.922000	 64.8475
7.940000	 64.9059
7.958000	 64.966
7.976000	 65.0029
7.994000	 65.0062
8.012000	 64.9855
8.030000	 64.9631
8.048000	 64.957
8.065999	 64.9687
8.084000	 64.9824
8.102000	 64.9823
8.120000	 64.9668
8.138000	 64.9446
8.155999	 64.928
8.173999	 64.933
8.192000	 64.965
8.210000	 65.0021
8.228000	 65.012
8.246000	 64.9893
8.263999	 64.957
8.282000	 64.9377
8.300000	 64.935
8.318000	 64.9372
8.336000	 64.93
8.353999	 64.9079
8.372000	 64.88
8.390000	 64.8573
8.408000	 64.8356
8.426000	 64.8101
8.443999	 64.801
8.462000	 64.8313
8.480000	 64.881
8.498000	 64.9059
8.516000	 64.9033
8.533999	 64.9077
8.552000	 64.9169
8.570000	 64.8869
8.588000	 64.8148
8.606000	 64.7652
8.624000	 64.7852
8.641999	 64.841
8.660000	 64.8662
8.678000	 64.8423
8.696000	 64.801
8.714000	 64.7801
8.731999	 64.8014
8.750000	 64.8602
8.768000	 64.9195
8.786000	 64.9265
8.804000	 64.8637
8.821999	 64.7757
8.840000	 64.7309
8.858000	 64.7577
8.876000	 64.8255
8.894000	 64.8801
8.911999	 64.8932
8.930000	 64.8855
8.948000	 64.9029
8.966000	 64.97
8.984000	 65.0651
9.001999	 65.1413
9.020000	 65.1676
9.038000	 65.141
9.056000	 65.0626
9.074000	 64.9323
9.092000	 64.7737
9.109999	 64.6424
9.128000	 64.5864
9.146000	 64.5972
9.164000	 64.6122
9.182000	 64.5748
9.199999	 64.4856
9.218000	 64.3975
9.236000	 64.3726
9.254000	 64.4398
9.272000	 64.5786
9.289999	 64.7323
9.308000	 64.8444
9.326000	 64.8904
9.344000	 64.8807
9.362000	 64.84
9.379999	 64.788
9.398000	 64.7414
9.416000	 64.7204
9.434000	 64.7425
9.452000	 64.8019
9.469999	 64.8645
9.488000	 64.8934
9.506000	 64.8787
9.524000	 64.8427
9.542000	 64.8149
9.560000	 64.8014
9.577999	 64.7872
9.596000	 64.7586
9.614000	 64.7229
9.632000	 64.7005
9.650000	 64.7039
9.667999	 64.7256
9.686000	 64.7413
9.704000	 64.7329
9.722000	 64.7101
9.740000	 64.7082
9.757999	 64.7566
9.776000	 64.8443
9.794000	 64.9143
9.812000	 64.9001
9.830000	 64.7745
9.847999	 64.5708
9.866000	 64.3596
9.884000	 64.2036
9.902000	 64.1279
9.920000	 64.122
9.937999	 64.1621
9.956000	 64.2286
9.974000	 64.3072
9.992000	 64.3851
10.01	64.4493
10.028	64.4926
10.046	64.5213
10.064	64.5504
10.082	64.5918
10.1	64.6425
10.118	64.6855
10.136	64.7056
10.154	64.704
10.172	64.6971
10.19	64.702
10.208	64.7192
10.226	64.7318
10.244	64.7204
10.262	64.6832
10.28	64.6402
10.298	64.6189
10.316	64.6349
10.334	64.6816
10.352	64.7397
10.37	64.7905
10.388	64.8269
10.406	64.8497
10.424	64.8565
10.442	64.8381
10.46	64.785
10.478	64.6969
10.496	64.5884
10.514	64.4807
10.532	64.3923
10.55	64.3319
10.568	64.2979
10.586	64.2809
10.604	64.2692
10.622	64.2503
10.64	64.2188
10.658	64.1791
10.676	64.1486
10.694	64.1504
10.712	64.2047
10.73	64.3169
10.748	64.4736
10.766	64.6478
10.784	64.8109
10.802	64.9384
10.82	65.0137
10.838	65.0285
10.856	64.983
10.874	64.8882
10.892	64.7629
10.91	64.6294
10.928	64.5082
10.946	64.4165
10.964	64.364
10.982	64.3518
11	64.3689
11.018	64.3935
11.036	64.4001
11.054	64.3683
11.072	64.2959
11.09	64.206
11.108	64.1361
11.126	64.1232
11.144	64.1819
11.162	64.2948
11.18	64.4265
11.198	64.5381
11.216	64.6055
11.234	64.6245
11.252	64.6051
11.27	64.5619
11.288	64.51
11.306	64.4619
11.324	64.4297
11.342	64.4232
11.36	64.4465
11.378	64.4916
11.396	64.5386
11.414	64.5601
11.432	64.5348
11.45	64.4587
11.468	64.3458
11.486	64.2213
11.504	64.1112
11.522	64.0348
11.54	64.0003
11.558	64.0074
11.576	64.0487
11.594	64.1131
11.612	64.1854
11.63	64.2503
11.648	64.2957
11.666	64.3125
11.684	64.2977
11.702	64.2539
11.72	64.189
11.738	64.1137
11.756	64.0388
11.774	63.9745
11.792	63.9287
11.81	63.9061
11.828	63.9075
11.846	63.9286
11.864	63.9602
11.882	63.9923
11.9	64.0162
11.918	64.0287
11.936	64.0321
11.954	64.0315
11.972	64.0315
11.99	64.0334
12.008	64.0343
12.026	64.0287
12.044	64.0115
12.062	63.9815
12.08	63.9431
12.098	63.9044
12.116	63.8757
12.134	63.8653
12.152	63.8768
12.17	63.9092
12.188	63.9568
12.206	64.012
12.224	64.0659
12.242	64.1094
12.26	64.1352
12.278	64.1382
12.296	64.117
12.314	64.0748
12.332	64.0186
12.35	63.957
12.368	63.8979
12.386	63.8472
12.404	63.8078
12.422	63.7799
12.44	63.7624
12.458	63.7539
12.476	63.7535
12.494	63.7608
12.512	63.7751
12.53	63.7947
12.548	63.8167
12.566	63.8373
12.584	63.8528
12.602	63.8605
12.62	63.8603
12.638	63.8545
12.656	63.8476
12.674	63.8441
12.692	63.8479
12.71	63.8617
12.728	63.8861
12.746	63.92
12.764	63.96
12.782	64.0021
12.8	64.0417
12.818	64.0743
12.836	64.0953
12.854	64.1011
12.872	64.0901
12.89	64.0638
12.908	64.0258
12.926	63.982
12.944	63.9393
12.962	63.9047
12.98	63.8832
12.998	63.8763
13.016	63.8819
13.034	63.8948
13.052	63.9082
13.07	63.9146
13.088	63.9083
13.106	63.886
13.124	63.8466
13.142	63.7921
13.16	63.7254
13.178	63.6515
13.196	63.576
13.214	63.5067
13.232	63.4535
13.25	63.4274
13.268	63.4384
13.286	63.4927
13.304	63.5904
13.322	63.7225
13.34	63.8717
13.358	64.0144
13.376	64.125
13.394	64.1811
13.412	64.168
13.43	64.0826
13.448	63.934
13.466	63.742
13.484	63.533
13.502	63.3345
13.52	63.1706
13.538	63.0578
13.556	63.0032
13.574	63.0049
13.592	63.0531
13.61	63.1341
13.628	63.2321
13.646	63.3319
13.664	63.4206
13.682	63.4882
13.7	63.529
13.718	63.5404
13.736	63.5239
13.754	63.4833
13.772	63.4242
13.79	63.3528
13.808	63.275
13.826	63.1963
13.844	63.1205
13.862	63.0505
13.88	62.988
13.898	62.9341
13.916	62.8897
13.934	62.8558
13.952	62.8337
13.97	62.8247
13.988	62.8299
14.006	62.85
14.024	62.8855
14.042	62.9355
14.06	62.9986
14.078	63.0724
14.096	63.1539
14.114	63.2397
14.132	63.3265
14.15	63.4107
14.168	63.4881
14.186	63.5543
14.204	63.6048
14.222	63.6355
14.24	63.6434
14.258	63.6275
14.276	63.589
14.294	63.5312
14.312	63.4597
14.33	63.3822
14.348	63.3068
14.366	63.2421
14.384	63.1952
14.402	63.1702
14.42	63.1684
14.438	63.1884
14.456	63.226
14.474	63.2752
14.492	63.329
14.51	63.3805
14.528	63.4239
14.546	63.4556
14.564	63.4734
14.582	63.4772
14.6	63.4683
14.618	63.4487
14.636	63.4214
14.654	63.3886
14.672	63.3523
14.69	63.3139
14.708	63.2741
14.726	63.2333
14.744	63.1916
14.762	63.1488
14.78	63.1055
14.798	63.0624
14.816	63.021
14.834	62.983
14.852	62.9505
14.87	62.9252
14.888	62.9086
14.906	62.9018
14.924	62.9052
14.942	62.918
14.96	62.9378
14.978	62.9617
14.996	62.9859
15.014	63.0063
15.032	63.0187
15.05	63.02
15.068	63.0088
15.086	62.9848
15.104	62.9491
15.122	62.9054
15.14	62.858
15.158	62.8116
15.176	62.7705
15.194	62.7391
15.212	62.7205
15.23	62.7163
15.248	62.7269
15.266	62.7519
15.284	62.79
15.302	62.8387
15.32	62.8957
15.338	62.9584
15.356	63.0236
15.374	63.0879
15.392	63.148
15.41	63.2011
15.428	63.2438
15.446	63.2729
15.464	63.2862
15.482	63.2821
15.5	63.2598
15.518	63.2206
15.536	63.1671
15.554	63.1028
15.572	63.0325
15.59	62.9625
15.608	62.898
15.626	62.8436
15.644	62.8034
15.662	62.7797
15.68	62.7723
15.698	62.7804
15.716	62.8009
15.734	62.8294
15.752	62.862
15.77	62.8947
15.788	62.9232
15.806	62.9458
15.824	62.9619
15.842	62.9714
15.86	62.9766
15.878	62.9798
15.896	62.9834
15.914	62.9906
15.932	63.0029
15.95	63.0212
15.968	63.0451
15.986	63.0724
16.004	63.1
16.022	63.1243
16.04	63.1401
16.058	63.1437
16.076	63.1319
16.094	63.1017
16.112	63.0527
16.13	62.9854
16.148	62.9014
16.166	62.8052
16.184	62.7006
16.202	62.5921
16.22	62.4863
16.238	62.3872
16.256	62.2984
16.274	62.2243
16.292	62.1661
16.31	62.1251
16.328	62.1011
16.346	62.0924
16.364	62.0979
16.382	62.1142
16.4	62.1382
16.418	62.1677
16.436	62.1985
16.454	62.2284
16.472	62.2553
16.49	62.277
16.508	62.2927
16.526	62.3021
16.544	62.3055
16.562	62.3039
16.58	62.2985
16.598	62.2915
16.616	62.2846
16.634	62.2796
16.652	62.2789
16.67	62.2833
16.688	62.2939
16.706	62.3113
16.724	62.3351
16.742	62.3649
16.76	62.3989
16.778	62.4363
16.796	62.4747
16.814	62.5118
16.832	62.5464
16.85	62.5756
16.868	62.5985
16.886	62.6139
16.904	62.6208
16.922	62.6194
16.94	62.6098
16.958	62.5931
16.976	62.57
16.994	62.5426
17.012	62.5124
17.03	62.4803
17.048	62.4477
17.066	62.4152
17.084	62.3834
17.102	62.3526
17.12	62.323
17.138	62.2945
17.156	62.2669
17.174	62.2402
17.192	62.2144
17.21	62.1897
17.228	62.1668
17.246	62.1464
17.264	62.129
17.282	62.1161
17.3	62.108
17.318	62.1056
17.336	62.1089
17.354	62.1181
17.372	62.1323
17.39	62.1512
17.408	62.1735
17.426	62.1975
17.444	62.2222
17.462	62.245
17.48	62.2651
17.498	62.2806
17.516	62.2909
17.534	62.295
17.552	62.2929
17.57	62.2846
17.588	62.2707
17.606	62.2517
17.624	62.2284
17.642	62.2022
17.66	62.1737
17.678	62.1443
17.696	62.1146
17.714	62.0865
17.732	62.0608
17.75	62.0389
17.768	62.0229
17.786	62.0133
17.804	62.0126
17.822	62.0211
17.84	62.0406
17.858	62.0711
17.876	62.1134
17.894	62.1665
17.912	62.2306
17.93	62.3028
17.948	62.3827
17.966	62.4664
17.984	62.5524
18.002	62.6369
18.02	62.7173
18.038	62.7912
18.056	62.8556
18.074	62.9094
18.092	62.9502
18.11	62.978
18.128	62.9918
18.146	62.992
18.164	62.9792
18.182	62.9547
18.2	62.9194
18.218	62.8753
18.236	62.8232
18.254	62.7655
18.272	62.7027
18.29	62.6373
18.308	62.5696
18.326	62.5019
18.344	62.4344
18.362	62.3697
18.38	62.308
18.398	62.2512
18.416	62.2002
18.434	62.1566
18.452	62.121
18.47	62.0945
18.488	62.0769
18.506	62.0688
18.524	62.0689
18.542	62.0773
18.56	62.0907
18.578	62.1091
18.596	62.1282
18.614	62.1478
18.632	62.1636
18.65	62.1753
18.668	62.1799
18.686	62.1773
18.704	62.1659
18.722	62.1461
18.74	62.1184
18.758	62.0838
18.776	62.0446
18.794	62.0019
18.812	61.9591
18.83	61.9172
18.848	61.8794
18.866	61.8465
18.884	61.8213
18.902	61.8037
18.92	61.7953
18.938	61.7955
18.956	61.8045
18.974	61.8208
18.992	61.8433
19.01	61.8706
19.028	61.9006
19.046	61.9321
19.064	61.9628
19.082	61.992
19.1	62.0178
19.118	62.0401
19.136	62.0577
19.154	62.0709
19.172	62.0796
19.19	62.0843
19.208	62.0858
19.226	62.0845
19.244	62.0816
19.262	62.0773
19.28	62.0729
19.298	62.0685
19.316	62.065
19.334	62.0624
19.352	62.0608
19.37	62.0601
19.388	62.0599
19.406	62.0605
19.424	62.0606
19.442	62.0602
19.46	62.0584
19.478	62.055
19.496	62.0491
19.514	62.0403
19.532	62.0282
19.55	62.0126
19.568	61.9934
19.586	61.9702
19.604	61.9433
19.622	61.9128
19.64	61.8788
19.658	61.8417
19.676	61.8015
19.694	61.7589
19.712	61.714
19.73	61.667
19.748	61.6181
19.766	61.5673
19.784	61.5148
19.802	61.4605
19.82	61.4043
19.838	61.3462
19.856	61.2859
19.874	61.2236
19.892	61.1596
19.91	61.094
19.928	61.0276
19.946	60.9605
19.964	60.8945
19.982	60.8294
20	60.7674
20.018	60.7092
20.036	60.656
20.054	60.6103
20.072	60.572
20.09	60.5443
20.108	60.5267
20.126	60.5213
20.144	60.5282
20.162	60.5473
20.18	60.5791
20.198	60.6225
20.216	60.6765
20.234	60.7408
20.252	60.8117
20.27	60.8902
20.288	60.9706
20.306	61.0534
20.324	61.1342
20.342	61.2103
20.36	61.2811
20.378	61.3417
20.396	61.3931
20.414	61.4314
20.432	61.4567
20.45	61.4683
20.468	61.4654
20.486	61.4488
20.504	61.4193
20.522	61.377
20.54	61.3249
20.558	61.2624
20.576	61.193
20.594	61.1179
20.612	61.0385
20.63	60.9585
20.648	60.8772
20.666	60.7988
20.684	60.723
20.702	60.6521
20.72	60.5878
20.738	60.5297
20.756	60.4799
20.774	60.4378
20.792	60.4043
20.81	60.38
20.828	60.3641
20.846	60.3563
20.864	60.3565
20.882	60.3631
20.9	60.3764
20.918	60.3944
20.936	60.4158
20.954	60.4406
20.972	60.4656
20.99	60.4918
21.008	60.5161
21.026	60.5377
21.044	60.556
21.062	60.5682
21.08	60.5751
21.098	60.5742
21.116	60.565
21.134	60.547
21.152	60.5187
21.17	60.4805
21.188	60.4313
21.206	60.3708
21.224	60.2991
21.242	60.2157
21.26	60.1209
21.278	60.0153
21.296	59.8984
21.314	59.7714
21.332	59.6355
21.35	59.4901
21.368	59.338
21.386	59.1789
21.404	59.0142
21.422	58.847
21.44	58.6762
21.458	58.5057
21.476	58.3366
21.494	58.1693
21.512	58.0088
21.53	57.8535
21.548	57.7074
21.566	57.5734
21.584	57.4504
21.602	57.3432
21.62	57.2517
21.638	57.1769
21.656	57.1212
21.674	57.0837
21.692	57.065
21.71	57.066
21.728	57.0853
21.746	57.1208
21.764	57.1737
21.782	57.2404
21.8	57.3189
21.818	57.41
21.836	57.5067
21.854	57.6091
21.872	57.7153
21.89	57.8195
21.908	57.9237
21.926	58.0238
21.944	58.1166
21.962	58.2038
21.98	58.2827
21.998	58.3526
22.016	58.4144
22.034	58.4686
22.052	58.5143
22.07	58.554
22.088	58.5889
22.106	58.6183
22.124	58.6456
22.142	58.6713
22.16	58.6955
22.178	58.7208
22.196	58.747
22.214	58.7744
22.232	58.8038
22.25	58.8352
22.268	58.8674
22.286	58.9003
22.304	58.934
22.322	58.9654
22.34	58.9946
22.358	59.0211
22.376	59.0416
22.394	59.0567
22.412	59.0656
22.43	59.0659
22.448	59.0583
22.466	59.0428
22.484	59.019
22.502	58.9868
22.52	58.9485
22.538	58.9042
22.556	58.854
22.574	58.8022
22.592	58.7484
22.61	58.6934
22.628	58.642
22.646	58.5932
22.664	58.5484
22.682	58.5111
22.7	58.4806
22.718	58.4575
22.736	58.4433
22.754	58.4379
22.772	58.44
22.79	58.4492
22.808	58.4663
22.826	58.4877
22.844	58.5118
22.862	58.54
22.88	58.567
22.898	58.5908
22.916	58.6129
22.934	58.6278
22.952	58.6337
22.97	58.6321
22.988	58.6195
23.006	58.595
23.024	58.5595
23.042	58.5126
23.06	58.4535
23.078	58.3832
23.096	58.3033
23.114	58.2127
23.132	58.1128
23.15	58.008
23.168	57.897
23.186	57.7813
23.204	57.6663
23.222	57.5506
23.24	57.4358
23.258	57.3275
23.276	57.2248
23.294	57.1286
23.312	57.0437
23.33	56.9697
23.348	56.9067
23.366	56.8576
23.384	56.8231
23.402	56.8021
23.42	56.7945
23.438	56.8006
23.456	56.8199
23.474	56.8505
23.492	56.8925
23.51	56.9457
23.528	57.0081
23.546	57.0794
23.564	57.1599
23.582	57.2466
23.6	57.3385
23.618	57.4367
23.636	57.5381
23.654	57.6414
23.672	57.7479
23.69	57.8544
23.708	57.9588
23.726	58.063
23.744	58.164
23.762	58.2588
23.78	58.3496
23.798	58.434
23.816	58.5088
23.834	58.5759
23.852	58.6337
23.87	58.6794
23.888	58.7138
23.906	58.7366
23.924	58.7462
23.942	58.7422
23.96	58.7251
23.978	58.6945
23.996	58.6499
24.014	58.5915
24.032	58.5204
24.05	58.4368
24.068	58.34
24.086	58.2322
24.104	58.1152
24.122	57.9879
24.14	57.8515
24.158	57.7081
24.176	57.5567
24.194	57.3982
24.212	57.2358
24.23	57.0694
24.248	56.8985
24.266	56.7266
24.284	56.5549
24.302	56.3812
24.32	56.2105
24.338	56.0473
24.356	55.8883
24.374	55.7365
24.392	55.5976
24.41	55.4694
24.428	55.3528
24.446	55.2541
24.464	55.1737
24.482	55.1082
24.5	55.0695
24.518	55.0675
24.536	55.0948
24.554	55.1572
24.572	55.264
24.59	55.4168
24.608	55.6115
24.626	55.8461
24.644	56.1217
24.662	56.4401
24.68	56.7908
24.698	57.1644
24.716	57.5682
24.734	57.9957
24.752	58.4355
24.77	58.8916
24.788	59.3641
24.806	59.834
24.824	60.2896
24.842	60.7459
24.86	61.1839
24.878	61.5806
24.896	61.9458
24.914	62.2764
24.932	62.5491
24.95	62.7535
24.968	62.9052
24.986	62.983
25.004	62.9639
25.022	62.8537
25.04	62.6552
25.058	62.3615
25.076	61.9651
25.094	61.4679
25.112	60.8842
25.13	60.2268
25.148	59.4782
25.166	58.6547
25.184	57.7898
25.202	56.8921
25.22	55.9384
25.238	54.9736
25.256	54.0439
25.274	53.1262
25.292	52.2278
25.31	51.3899
25.328	50.6363
25.346	49.9415
25.364	49.3239
25.382	48.807
25.4	48.3937
25.418	48.0743
25.436	47.8466
25.454	47.7123
25.472	47.6821
25.49	47.7347
25.508	47.844
25.526	48.0074
25.544	48.2366
25.562	48.5075
25.58	48.7973
25.598	49.1187
25.616	49.4676
25.634	49.8262
25.652	50.1813
25.67	50.5409
25.688	50.9076
25.706	51.2829
25.724	51.6611
25.742	52.0437
25.76	52.4447
25.778	52.878
25.796	53.345
25.814	53.837
25.832	54.3463
25.85	54.8686
25.868	55.412
25.886	55.967
25.904	56.522
25.922	57.0884
25.94	57.6739
25.958	58.2315
25.976	58.7143
25.994	59.1347
26.012	59.5008
26.03	59.7871
26.048	59.9678
26.066	60.0347
26.084	60.0156
26.102	59.9422
26.12	59.8228
26.138	59.6086
26.156	59.3729
26.174	59.2025
26.192	59.0956
26.21	58.9798
26.228	59.0042
26.246	59.3247
26.264	59.9175
26.282	60.7219
26.3	61.8809
26.318	63.5339
26.336	65.6317
26.354	68.1508
26.372	71.1725
26.39	74.774
26.408	78.9493
26.426	83.6579
26.444	88.8725
26.462	94.5828
26.48	100.886
26.498	107.666
26.516	114.756
26.534	122.052
26.552	129.748
26.57	137.671
26.588	145.577
26.606	153.357
26.624	161.308
26.642	169.11
26.66	176.361
26.678	182.918
26.696	189.23
26.714	194.791
26.732	199.003
26.75	201.232
26.768	201.496
26.786	200.77
26.804	200.06
26.822	200
26.84	200
26.858	200
26.876	200
26.894	200.065
26.912	200.278
26.93	200.405
26.948	200.194
26.966	199.363
26.984	197.88
27.002	196.218
27.02	194.872
27.028	194.538