File: Bakgrunnsmateriale/MATLAB/FTIR/ftir_data/subBb/Mapping_121/C-4040-8_t50.asc
PE IR       SPECTRUM    SPECTRUM    ASCII       PEDS        1.60
  -1
C-A93A~1.ASC
17/03/27
18:36:59.00
17/03/27
18:37:25.00
tln
$C-4040-8_t0050$<tbV0>[0.0,-2.6,8.0,0.0,27,1,0]
27.028
64

2002,4.07
MIRTGS : RIGHTBACK : INTERNAL 2
MIR : ON : INTERNAL 2
OPTKBR

0.200000
8
8.000000
FILLER
RATIO
SPECTRUM
UNLOCKED 256

DOUBLE
64
COMBINED
1
0
0

0.002000
RATIO

1
0
TRUE
51149
0
LEFT NOT FITTED RIGHT NOT FITTED 0
NONE
NONE
15600
12
4.427000
51148
TRUE
1 0 8 72 0 0 0 0

15798

#HDR
-1
-1
#GR
µM
%T
2.38419e-05
0.0
2.000000
0.002000
12515
8
77.02
24.585
#DATA
2.000000	 63.8391
2.018000	 64.3913
2.036000	 64.3908
2.054000	 63.9524
2.072000	 63.8487
2.090000	 64.4155
2.108000	 63.6981
2.126000	 63.8787
2.144000	 63.7188
2.162000	 63.779
2.180000	 63.329
2.198000	 63.4016
2.216000	 63.9376
2.234000	 64.1212
2.252000	 63.8137
2.270000	 64.6083
2.288000	 64.9723
2.306000	 63.7472
2.324000	 63.5244
2.342000	 63.6607
2.360000	 63.3974
2.378000	 63.1797
2.396000	 63.2462
2.414000	 63.6733
2.432000	 62.9593
2.450000	 63.2482
2.468000	 63.1732
2.486000	 63.0496
2.504000	 63.0847
2.522000	 63.1815
2.540000	 63.3871
2.558000	 63.098
2.576000	 63.1284
2.594000	 63.156
2.612000	 62.593
2.630000	 62.8991
2.648000	 62.8677
2.666000	 62.7688
2.684000	 62.6404
2.702000	 62.4631
2.720000	 62.456
2.738000	 62.5369
2.756000	 62.3307
2.774000	 62.3294
2.792000	 62.2888
2.810000	 62.2419
2.828000	 62.186
2.846000	 62.1681
2.864000	 61.7487
2.882000	 62.1831
2.900000	 62.1332
2.918000	 61.8311
2.936000	 61.713
2.954000	 61.8139
2.972000	 61.6255
2.990000	 61.4681
3.008000	 61.5718
3.026000	 61.2838
3.044000	 61.165
3.062000	 61.4079
3.080000	 61.1749
3.098000	 61.2126
3.116000	 60.995
3.134000	 60.9478
3.152000	 60.9913
3.170000	 60.9659
3.188000	 60.6653
3.206000	 60.393
3.224000	 60.6474
3.242000	 60.6222
3.260000	 60.5101
3.278000	 60.4649
3.296000	 60.2631
3.314000	 60.2039
3.332000	 60.0732
3.350000	 60.0877
3.368000	 60.0656
3.386000	 59.6745
3.404000	 59.8184
3.422000	 59.4905
3.440000	 59.5417
3.458000	 59.4641
3.476000	 59.4462
3.494000	 59.2192
3.512000	 59.1842
3.530000	 59.138
3.548000	 59.2135
3.566000	 59.147
3.584000	 59.0139
3.602000	 58.9894
3.620000	 58.9674
3.638000	 58.6831
3.656000	 58.7341
3.674000	 58.7455
3.692000	 58.5928
3.710000	 58.6146
3.728000	 58.4393
3.746000	 58.438
3.764000	 58.3324
3.782000	 58.2554
3.800000	 58.1662
3.818000	 58.05
3.836000	 58.0635
3.854000	 57.9723
3.872000	 57.8935
3.890000	 57.7765
3.908000	 57.7656
3.926000	 57.609
3.944000	 57.6061
3.962000	 57.3587
3.980000	 57.3154
3.998000	 57.3122
4.016000	 57.3721
4.034000	 57.261
4.052000	 57.1503
4.070000	 57.0626
4.088000	 57.0919
4.106000	 56.8875
4.124000	 56.9293
4.141999	 56.9422
4.160000	 57.0653
4.178000	 56.7746
4.196000	 56.7157
4.214000	 56.5964
4.232000	 56.4617
4.250000	 56.3182
4.268000	 56.2828
4.286000	 56.1688
4.304000	 56.0801
4.322000	 56.0739
4.340000	 56.125
4.358000	 56.0038
4.375999	 55.9423
4.394000	 55.9066
4.412000	 55.7389
4.430000	 55.7563
4.448000	 55.9283
4.466000	 55.7384
4.484000	 55.7644
4.502000	 55.5777
4.520000	 55.4655
4.538000	 55.273
4.556000	 55.3789
4.574000	 55.342
4.592000	 55.1416
4.609999	 54.9841
4.628000	 55.0949
4.646000	 55.1205
4.664000	 55.0595
4.682000	 54.9025
4.700000	 54.8327
4.718000	 54.8513
4.736000	 54.7186
4.754000	 54.6415
4.772000	 54.6896
4.790000	 54.6645
4.808000	 54.3371
4.826000	 54.2775
4.843999	 54.1023
4.862000	 54.4461
4.880000	 54.1529
4.898000	 54.2194
4.916000	 54.1373
4.934000	 54.1382
4.952000	 54.0227
4.970000	 53.9445
4.988000	 53.9942
5.006000	 53.9275
5.024000	 53.9473
5.042000	 53.8887
5.060000	 53.8656
5.077999	 53.7874
5.096000	 53.6072
5.114000	 53.6226
5.132000	 53.5469
5.150000	 53.6519
5.168000	 53.5077
5.186000	 53.4555
5.204000	 53.4192
5.222000	 53.3872
5.240000	 53.3482
5.258000	 53.2529
5.276000	 53.3237
5.294000	 53.209
5.312000	 53.1079
5.330000	 53.1158
5.348000	 52.9689
5.366000	 52.8795
5.384000	 52.8551
5.402000	 52.7512
5.420000	 52.7452
5.438000	 52.7088
5.456000	 52.655
5.474000	 52.7033
5.492000	 52.5709
5.510000	 52.513
5.528000	 52.5276
5.546000	 52.3923
5.564000	 52.3444
5.582000	 52.3369
5.600000	 52.3048
5.618000	 52.2628
5.636000	 52.1906
5.654000	 52.1571
5.672000	 52.0732
5.690000	 52.0818
5.708000	 52.0341
5.726000	 52.0007
5.744000	 51.9359
5.762000	 51.8369
5.780000	 51.7453
5.798000	 51.5686
5.816000	 51.6132
5.834000	 51.7361
5.852000	 51.6829
5.870000	 51.7072
5.888000	 51.6352
5.906000	 51.603
5.923999	 51.577
5.942000	 51.6192
5.960000	 51.6291
5.978000	 51.5373
5.996000	 51.4763
6.014000	 51.4077
6.032000	 51.3296
6.050000	 51.3417
6.068000	 51.3259
6.086000	 51.2212
6.104000	 51.1923
6.122000	 51.1427
6.140000	 51.032
6.158000	 50.955
6.176000	 50.902
6.194000	 50.8768
6.212000	 50.8736
6.230000	 50.878
6.248000	 50.8665
6.266000	 50.7915
6.284000	 50.7411
6.302000	 50.7212
6.320000	 50.766
6.338000	 50.7929
6.356000	 50.6326
6.374000	 50.5083
6.392000	 50.491
6.410000	 50.5143
6.428000	 50.533
6.446000	 50.4745
6.464000	 50.491
6.482000	 50.4891
6.500000	 50.3204
6.518000	 50.221
6.536000	 50.2422
6.554000	 50.2875
6.572000	 50.3651
6.590000	 50.3617
6.608000	 50.2186
6.626000	 50.1314
6.644000	 50.1816
6.662000	 50.256
6.680000	 50.2436
6.698000	 50.1877
6.716000	 50.1996
6.734000	 50.1648
6.752000	 50.0582
6.770000	 49.9999
6.788000	 49.9539
6.806000	 49.9007
6.824000	 49.8781
6.842000	 49.772
6.860000	 49.5295
6.878000	 49.4396
6.896000	 49.6486
6.914000	 49.7972
6.932000	 49.7336
6.950000	 49.6749
6.968000	 49.7428
6.986000	 49.8105
7.004000	 49.7403
7.022000	 49.6495
7.040000	 49.6359
7.058000	 49.6021
7.076000	 49.5368
7.094000	 49.4619
7.112000	 49.3615
7.130000	 49.3071
7.148000	 49.3012
7.166000	 49.2521
7.184000	 49.1817
7.202000	 49.1611
7.220000	 49.1961
7.238000	 49.2754
7.256000	 49.36
7.274000	 49.3695
7.292000	 49.3102
7.310000	 49.2776
7.328000	 49.2814
7.346000	 49.2559
7.364000	 49.1918
7.382000	 49.1094
7.400000	 49.0104
7.418000	 48.9093
7.436000	 48.8336
7.454000	 48.8055
7.472000	 48.8245
7.490000	 48.8527
7.508000	 48.8641
7.526000	 48.8638
7.544000	 48.8324
7.562000	 48.7449
7.580000	 48.662
7.598000	 48.6573
7.616000	 48.6847
7.634000	 48.6621
7.652000	 48.602
7.670000	 48.5538
7.688000	 48.5266
7.706000	 48.5084
7.724000	 48.4757
7.742000	 48.4138
7.760000	 48.3605
7.778000	 48.366
7.796000	 48.4117
7.814000	 48.4297
7.832000	 48.3871
7.850000	 48.3075
7.868000	 48.2405
7.886000	 48.2368
7.904000	 48.3105
7.922000	 48.3883
7.940000	 48.3741
7.958000	 48.2938
7.976000	 48.2651
7.994000	 48.3167
8.012000	 48.3519
8.030000	 48.2988
8.048000	 48.1917
8.065999	 48.0969
8.084000	 48.0415
8.102000	 48.0138
8.120000	 47.9843
8.138000	 47.9223
8.155999	 47.8329
8.173999	 47.7744
8.192000	 47.7928
8.210000	 47.8395
8.228000	 47.817
8.246000	 47.7188
8.263999	 47.6496
8.282000	 47.675
8.300000	 47.7423
8.318000	 47.778
8.336000	 47.7861
8.353999	 47.8288
8.372000	 47.938
8.390000	 48.0504
8.408000	 48.0514
8.426000	 47.9086
8.443999	 47.7357
8.462000	 47.667
8.480000	 47.6947
8.498000	 47.7048
8.516000	 47.6302
8.533999	 47.5107
8.552000	 47.4474
8.570000	 47.5313
8.588000	 47.777
8.606000	 48.0722
8.624000	 48.2286
8.641999	 48.1372
8.660000	 47.8659
8.678000	 47.5925
8.696000	 47.455
8.714000	 47.4581
8.731999	 47.5018
8.750000	 47.4849
8.768000	 47.3862
8.786000	 47.2615
8.804000	 47.172
8.821999	 47.1269
8.840000	 47.1011
8.858000	 47.0767
8.876000	 47.058
8.894000	 47.0534
8.911999	 47.0643
8.930000	 47.0876
8.948000	 47.1191
8.966000	 47.1542
8.984000	 47.1988
9.001999	 47.2652
9.020000	 47.3384
9.038000	 47.3658
9.056000	 47.3053
9.074000	 47.1819
9.092000	 47.0663
9.109999	 46.9954
9.128000	 46.937
9.146000	 46.8513
9.164000	 46.7614
9.182000	 46.7331
9.199999	 46.7904
9.218000	 46.8828
9.236000	 46.9382
9.254000	 46.9315
9.272000	 46.8907
9.289999	 46.8481
9.308000	 46.8081
9.326000	 46.7618
9.344000	 46.7099
9.362000	 46.6669
9.379999	 46.6468
9.398000	 46.6529
9.416000	 46.6771
9.434000	 46.7061
9.452000	 46.7231
9.469999	 46.7081
9.488000	 46.6433
9.506000	 46.5289
9.524000	 46.3933
9.542000	 46.2852
9.560000	 46.2469
9.577999	 46.2861
9.596000	 46.3682
9.614000	 46.4339
9.632000	 46.4338
9.650000	 46.3604
9.667999	 46.2511
9.686000	 46.1586
9.704000	 46.1171
9.722000	 46.1306
9.740000	 46.1853
9.757999	 46.2641
9.776000	 46.3499
9.794000	 46.4201
9.812000	 46.4536
9.830000	 46.4477
9.847999	 46.4261
9.866000	 46.4168
9.884000	 46.4205
9.902000	 46.4057
9.920000	 46.3388
9.937999	 46.2205
9.956000	 46.0907
9.974000	 45.9958
9.992000	 45.9518
10.01	45.9385
10.028	45.924
10.046	45.8976
10.064	45.8762
10.082	45.8821
10.1	45.9204
10.118	45.972
10.136	46.0079
10.154	46.0103
10.172	45.9814
10.19	45.9405
10.208	45.9084
10.226	45.8955
10.244	45.8996
10.262	45.9099
10.28	45.9163
10.298	45.9132
10.316	45.9
10.334	45.8802
10.352	45.8567
10.37	45.8303
10.388	45.7994
10.406	45.7615
10.424	45.715
10.442	45.6624
10.46	45.6116
10.478	45.5746
10.496	45.5598
10.514	45.5663
10.532	45.5829
10.55	45.5953
10.568	45.5953
10.586	45.5852
10.604	45.5744
10.622	45.5722
10.64	45.5809
10.658	45.5962
10.676	45.6101
10.694	45.6174
10.712	45.6166
10.73	45.609
10.748	45.5949
10.766	45.5732
10.784	45.5437
10.802	45.5091
10.82	45.4746
10.838	45.4462
10.856	45.427
10.874	45.4149
10.892	45.4037
10.91	45.3861
10.928	45.3582
10.946	45.3222
10.964	45.2856
10.982	45.2566
11	45.2373
11.018	45.2222
11.036	45.1999
11.054	45.1598
11.072	45.0996
11.09	45.0284
11.108	44.9619
11.126	44.9161
11.144	44.8965
11.162	44.8959
11.18	44.8988
11.198	44.8887
11.216	44.8583
11.234	44.8129
11.252	44.7675
11.27	44.7389
11.288	44.7385
11.306	44.7671
11.324	44.816
11.342	44.8721
11.36	44.9234
11.378	44.961
11.396	44.981
11.414	44.983
11.432	44.9688
11.45	44.9417
11.468	44.9065
11.486	44.8677
11.504	44.8293
11.522	44.794
11.54	44.7627
11.558	44.7355
11.576	44.7124
11.594	44.694
11.612	44.6815
11.63	44.6757
11.648	44.6758
11.666	44.6798
11.684	44.6845
11.702	44.6876
11.72	44.6884
11.738	44.6884
11.756	44.6892
11.774	44.6921
11.792	44.6964
11.81	44.6992
11.828	44.6955
11.846	44.6793
11.864	44.6456
11.882	44.5922
11.9	44.5203
11.918	44.435
11.936	44.3446
11.954	44.2592
11.972	44.1896
11.99	44.1449
12.008	44.1309
12.026	44.1495
12.044	44.1973
12.062	44.2656
12.08	44.3412
12.098	44.4091
12.116	44.4546
12.134	44.4674
12.152	44.445
12.17	44.3928
12.188	44.324
12.206	44.2559
12.224	44.2056
12.242	44.184
12.26	44.1933
12.278	44.2257
12.296	44.2653
12.314	44.2933
12.332	44.2945
12.35	44.2616
12.368	44.1981
12.386	44.1176
12.404	44.0384
12.422	43.9772
12.44	43.9444
12.458	43.941
12.476	43.96
12.494	43.9889
12.512	44.0145
12.53	44.0277
12.548	44.0256
12.566	44.0102
12.584	43.9879
12.602	43.9655
12.62	43.9478
12.638	43.9347
12.656	43.9226
12.674	43.9057
12.692	43.8796
12.71	43.8434
12.728	43.8012
12.746	43.7609
12.764	43.7328
12.782	43.7262
12.8	43.7458
12.818	43.7897
12.836	43.8495
12.854	43.9116
12.872	43.9616
12.89	43.9875
12.908	43.9828
12.926	43.9475
12.944	43.8882
12.962	43.8141
12.98	43.7348
12.998	43.6576
13.016	43.5872
13.034	43.5266
13.052	43.4779
13.07	43.4426
13.088	43.4217
13.106	43.4144
13.124	43.4174
13.142	43.4244
13.16	43.4268
13.178	43.4162
13.196	43.3857
13.214	43.3341
13.232	43.2659
13.25	43.1922
13.268	43.1277
13.286	43.0876
13.304	43.0831
13.322	43.1191
13.34	43.1921
13.358	43.2911
13.376	43.4002
13.394	43.502
13.412	43.5807
13.43	43.6251
13.448	43.6303
13.466	43.5969
13.484	43.5307
13.502	43.4415
13.52	43.3407
13.538	43.2397
13.556	43.1481
13.574	43.0724
13.592	43.0155
13.61	42.9772
13.628	42.9549
13.646	42.9445
13.664	42.9417
13.682	42.9428
13.7	42.9457
13.718	42.9492
13.736	42.9539
13.754	42.9608
13.772	42.9715
13.79	42.9863
13.808	43.005
13.826	43.0258
13.844	43.0461
13.862	43.0628
13.88	43.0726
13.898	43.0728
13.916	43.0614
13.934	43.0376
13.952	43.0014
13.97	42.9533
13.988	42.8948
14.006	42.8279
14.024	42.7555
14.042	42.6806
14.06	42.6062
14.078	42.5348
14.096	42.4687
14.114	42.4091
14.132	42.3571
14.15	42.3137
14.168	42.2793
14.186	42.2552
14.204	42.2426
14.222	42.2427
14.24	42.2569
14.258	42.2853
14.276	42.327
14.294	42.3792
14.312	42.4376
14.33	42.4968
14.348	42.5509
14.366	42.5935
14.384	42.6195
14.402	42.626
14.42	42.6121
14.438	42.5794
14.456	42.5311
14.474	42.472
14.492	42.4069
14.51	42.3412
14.528	42.2787
14.546	42.2223
14.564	42.1735
14.582	42.1329
14.6	42.1005
14.618	42.0757
14.636	42.0576
14.654	42.0449
14.672	42.0363
14.69	42.0301
14.708	42.0245
14.726	42.0168
14.744	42.0044
14.762	41.9845
14.78	41.9552
14.798	41.9155
14.816	41.8656
14.834	41.807
14.852	41.7429
14.87	41.6773
14.888	41.6148
14.906	41.5595
14.924	41.5156
14.942	41.4855
14.96	41.4702
14.978	41.4692
14.996	41.4814
15.014	41.5046
15.032	41.5355
15.05	41.571
15.068	41.6081
15.086	41.6446
15.104	41.6784
15.122	41.7079
15.14	41.7324
15.158	41.7518
15.176	41.7661
15.194	41.776
15.212	41.7822
15.23	41.7855
15.248	41.7862
15.266	41.7843
15.284	41.7799
15.302	41.7723
15.32	41.7607
15.338	41.7438
15.356	41.7204
15.374	41.689
15.392	41.649
15.41	41.6001
15.428	41.5425
15.446	41.4774
15.464	41.4066
15.482	41.3321
15.5	41.2562
15.518	41.1813
15.536	41.1089
15.554	41.0403
15.572	40.9765
15.59	40.918
15.608	40.8652
15.626	40.8185
15.644	40.7786
15.662	40.7464
15.68	40.7229
15.698	40.709
15.716	40.706
15.734	40.7141
15.752	40.7329
15.77	40.7613
15.788	40.7972
15.806	40.8378
15.824	40.8805
15.842	40.9218
15.86	40.958
15.878	40.9872
15.896	41.0075
15.914	41.0179
15.932	41.0192
15.95	41.0122
15.968	40.9986
15.986	40.9809
16.004	40.9608
16.022	40.9401
16.04	40.9203
16.058	40.9018
16.076	40.8849
16.094	40.8697
16.112	40.8557
16.13	40.843
16.148	40.8316
16.166	40.8217
16.184	40.8139
16.202	40.8086
16.22	40.8067
16.238	40.8082
16.256	40.8134
16.274	40.8217
16.292	40.8319
16.31	40.8429
16.328	40.8522
16.346	40.8579
16.364	40.8583
16.382	40.8508
16.4	40.834
16.418	40.8073
16.436	40.77
16.454	40.7232
16.472	40.6677
16.49	40.6061
16.508	40.5408
16.526	40.4739
16.544	40.4091
16.562	40.3485
16.58	40.2937
16.598	40.2469
16.616	40.2083
16.634	40.1783
16.652	40.1561
16.67	40.1405
16.688	40.1301
16.706	40.1224
16.724	40.116
16.742	40.1088
16.76	40.0988
16.778	40.0851
16.796	40.0664
16.814	40.0425
16.832	40.0133
16.85	39.9794
16.868	39.9414
16.886	39.8999
16.904	39.8564
16.922	39.8113
16.94	39.7657
16.958	39.7203
16.976	39.6755
16.994	39.6315
17.012	39.5885
17.03	39.5465
17.048	39.5057
17.066	39.4663
17.084	39.4285
17.102	39.3929
17.12	39.3597
17.138	39.3296
17.156	39.3031
17.174	39.2807
17.192	39.2629
17.21	39.2497
17.228	39.2412
17.246	39.2367
17.264	39.2359
17.282	39.2375
17.3	39.2408
17.318	39.2444
17.336	39.2475
17.354	39.2493
17.372	39.249
17.39	39.2467
17.408	39.2422
17.426	39.2363
17.444	39.2292
17.462	39.2225
17.48	39.2164
17.498	39.2124
17.516	39.2107
17.534	39.2119
17.552	39.2156
17.57	39.2219
17.588	39.2293
17.606	39.237
17.624	39.2434
17.642	39.2464
17.66	39.2451
17.678	39.2374
17.696	39.2227
17.714	39.1996
17.732	39.1682
17.75	39.1283
17.768	39.0807
17.786	39.0258
17.804	38.9656
17.822	38.9007
17.84	38.8333
17.858	38.7644
17.876	38.6954
17.894	38.6277
17.912	38.5619
17.93	38.4992
17.948	38.4399
17.966	38.385
17.984	38.3347
18.002	38.2897
18.02	38.2506
18.038	38.218
18.056	38.193
18.074	38.1758
18.092	38.1674
18.11	38.1681
18.128	38.1782
18.146	38.1974
18.164	38.2249
18.182	38.2595
18.2	38.2999
18.218	38.3433
18.236	38.3882
18.254	38.4305
18.272	38.4694
18.29	38.5
18.308	38.5219
18.326	38.5317
18.344	38.5293
18.362	38.5133
18.38	38.4845
18.398	38.4436
18.416	38.3929
18.434	38.3343
18.452	38.2714
18.47	38.2062
18.488	38.1434
18.506	38.0845
18.524	38.0334
18.542	37.9909
18.56	37.9595
18.578	37.9394
18.596	37.9304
18.614	37.9324
18.632	37.9426
18.65	37.9609
18.668	37.9827
18.686	38.0078
18.704	38.0315
18.722	38.0536
18.74	38.0702
18.758	38.0814
18.776	38.0851
18.794	38.0818
18.812	38.0712
18.83	38.0542
18.848	38.0322
18.866	38.0062
18.884	37.9785
18.902	37.9501
18.92	37.9233
18.938	37.8986
18.956	37.8778
18.974	37.8609
18.992	37.8486
19.01	37.8404
19.028	37.8361
19.046	37.8345
19.064	37.8343
19.082	37.8346
19.1	37.8336
19.118	37.8307
19.136	37.8239
19.154	37.813
19.172	37.7964
19.19	37.7745
19.208	37.7468
19.226	37.7136
19.244	37.6755
19.262	37.633
19.28	37.5879
19.298	37.5405
19.316	37.4938
19.334	37.4478
19.352	37.4061
19.37	37.3685
19.388	37.3381
19.406	37.3148
19.424	37.3005
19.442	37.2954
19.46	37.2998
19.478	37.3142
19.496	37.3372
19.514	37.3691
19.532	37.4077
19.55	37.4524
19.568	37.5012
19.586	37.5521
19.604	37.6042
19.622	37.6543
19.64	37.7024
19.658	37.7454
19.676	37.7837
19.694	37.815
19.712	37.8396
19.73	37.857
19.748	37.8669
19.766	37.8701
19.784	37.8665
19.802	37.8573
19.82	37.8429
19.838	37.8241
19.856	37.8022
19.874	37.7774
19.892	37.7509
19.91	37.7226
19.928	37.6934
19.946	37.6632
19.964	37.6324
19.982	37.6009
20	37.5688
20.018	37.5361
20.036	37.5029
20.054	37.4691
20.072	37.4347
20.09	37.4
20.108	37.3647
20.126	37.3299
20.144	37.2952
20.162	37.2618
20.18	37.23
20.198	37.2001
20.216	37.1731
20.234	37.1489
20.252	37.1283
20.27	37.1111
20.288	37.097
20.306	37.0863
20.324	37.0776
20.342	37.0707
20.36	37.0648
20.378	37.0581
20.396	37.0508
20.414	37.0404
20.432	37.0273
20.45	37.0098
20.468	36.9868
20.486	36.9586
20.504	36.9242
20.522	36.8839
20.54	36.8386
20.558	36.788
20.576	36.7342
20.594	36.6776
20.612	36.6196
20.63	36.5632
20.648	36.5078
20.666	36.457
20.684	36.4108
20.702	36.3706
20.72	36.3379
20.738	36.3123
20.756	36.2944
20.774	36.2845
20.792	36.2806
20.81	36.283
20.828	36.2901
20.846	36.3
20.864	36.3131
20.882	36.326
20.9	36.3389
20.918	36.3507
20.936	36.3598
20.954	36.3669
20.972	36.3714
20.99	36.3731
21.008	36.3736
21.026	36.3732
21.044	36.3727
21.062	36.3752
21.08	36.3798
21.098	36.3901
21.116	36.4068
21.134	36.4307
21.152	36.4645
21.17	36.5076
21.188	36.5608
21.206	36.6252
21.224	36.6994
21.242	36.7822
21.26	36.8743
21.278	36.9712
21.296	37.0733
21.314	37.1779
21.332	37.2795
21.35	37.3801
21.368	37.4725
21.386	37.5558
21.404	37.6285
21.422	37.6843
21.44	37.7251
21.458	37.7471
21.476	37.7481
21.494	37.7293
21.512	37.689
21.53	37.6271
21.548	37.5457
21.566	37.4454
21.584	37.3264
21.602	37.1947
21.62	37.0486
21.638	36.8927
21.656	36.733
21.674	36.5668
21.692	36.4026
21.71	36.2418
21.728	36.0853
21.746	35.9408
21.764	35.8064
21.782	35.6857
21.8	35.5821
21.818	35.494
21.836	35.424
21.854	35.3731
21.872	35.3398
21.89	35.3232
21.908	35.3243
21.926	35.3391
21.944	35.3656
21.962	35.4046
21.98	35.4492
21.998	35.5002
22.016	35.5551
22.034	35.6075
22.052	35.6595
22.07	35.7074
22.088	35.7478
22.106	35.7822
22.124	35.8082
22.142	35.8245
22.16	35.8323
22.178	35.8324
22.196	35.8237
22.214	35.8086
22.232	35.7897
22.25	35.7652
22.268	35.7397
22.286	35.7152
22.304	35.6907
22.322	35.6709
22.34	35.6563
22.358	35.6469
22.376	35.6451
22.394	35.6513
22.412	35.6645
22.43	35.6847
22.448	35.7127
22.466	35.7456
22.484	35.782
22.502	35.8231
22.52	35.864
22.538	35.9033
22.556	35.9418
22.574	35.9745
22.592	36.0009
22.61	36.021
22.628	36.0312
22.646	36.0317
22.664	36.0225
22.682	36.0019
22.7	35.9699
22.718	35.9274
22.736	35.875
22.754	35.8118
22.772	35.7406
22.79	35.6634
22.808	35.5786
22.826	35.4904
22.844	35.4015
22.862	35.3101
22.88	35.2204
22.898	35.134
22.916	35.0497
22.934	34.9711
22.952	34.8992
22.97	34.8332
22.988	34.7752
23.006	34.7256
23.024	34.684
23.042	34.6509
23.06	34.6269
23.078	34.6114
23.096	34.6036
23.114	34.6038
23.132	34.6116
23.15	34.6259
23.168	34.6467
23.186	34.6739
23.204	34.7066
23.222	34.7448
23.24	34.7883
23.258	34.8366
23.276	34.8895
23.294	34.9472
23.312	35.0099
23.33	35.0776
23.348	35.1503
23.366	35.2274
23.384	35.3095
23.402	35.396
23.42	35.4852
23.438	35.5778
23.456	35.6731
23.474	35.768
23.492	35.8629
23.51	35.9575
23.528	36.0479
23.546	36.134
23.564	36.2161
23.582	36.2893
23.6	36.3522
23.618	36.4065
23.636	36.447
23.654	36.471
23.672	36.4809
23.69	36.4736
23.708	36.4466
23.726	36.4013
23.744	36.3378
23.762	36.2555
23.78	36.1537
23.798	36.0354
23.816	35.9033
23.834	35.7545
23.852	35.5935
23.87	35.4267
23.888	35.2506
23.906	35.0686
23.924	34.8901
23.942	34.7135
23.96	34.5391
23.978	34.3769
23.996	34.2296
24.014	34.0937
24.032	33.9768
24.05	33.8836
24.068	33.8102
24.086	33.7605
24.104	33.7386
24.122	33.7427
24.14	33.773
24.158	33.8311
24.176	33.9175
24.194	34.0308
24.212	34.169
24.23	34.3326
24.248	34.5216
24.266	34.7324
24.284	34.9636
24.302	35.2171
24.32	35.4888
24.338	35.7746
24.356	36.0783
24.374	36.3954
24.392	36.7194
24.41	37.0523
24.428	37.3932
24.446	37.7351
24.464	38.0754
24.482	38.4173
24.5	38.7555
24.518	39.0854
24.536	39.4107
24.554	39.7279
24.572	40.0321
24.59	40.3243
24.608	40.6046
24.626	40.8696
24.644	41.118
24.662	41.3519
24.68	41.5677
24.698	41.762
24.716	41.9363
24.734	42.0904
24.752	42.2227
24.77	42.3341
24.788	42.4246
24.806	42.4906
24.824	42.5302
24.842	42.5466
24.86	42.5355
24.878	42.4914
24.896	42.4169
24.914	42.3113
24.932	42.1688
24.95	41.9862
24.968	41.7672
24.986	41.5089
25.004	41.2083
25.022	40.8654
25.04	40.4818
25.058	40.0582
25.076	39.5936
25.094	39.0872
25.112	38.5446
25.13	37.9709
25.148	37.3597
25.166	36.717
25.184	36.0552
25.202	35.3774
25.22	34.6748
25.238	33.9649
25.256	33.2656
25.274	32.5666
25.292	31.8723
25.31	31.2009
25.328	30.5624
25.346	29.9443
25.364	29.3585
25.382	28.8193
25.4	28.3259
25.418	27.8743
25.436	27.4697
25.454	27.1167
25.472	26.8153
25.49	26.5605
25.508	26.3474
25.526	26.1783
25.544	26.055
25.562	25.9649
25.58	25.8966
25.598	25.8597
25.616	25.8485
25.634	25.8479
25.652	25.8492
25.67	25.8641
25.688	25.8813
25.706	25.8873
25.724	25.8804
25.742	25.8664
25.76	25.8388
25.778	25.7914
25.796	25.7235
25.814	25.6391
25.832	25.5423
25.85	25.4336
25.868	25.3059
25.886	25.1714
25.904	25.0447
25.922	24.9259
25.94	24.8068
25.958	24.7052
25.976	24.6391
25.994	24.5991
26.012	24.5854
26.03	24.6168
26.048	24.7095
26.066	24.8498
26.084	25.0435
26.102	25.3046
26.12	25.6428
26.138	26.049
26.156	26.5255
26.174	27.0769
26.192	27.7077
26.21	28.4162
26.228	29.1947
26.246	30.0353
26.264	30.944
26.282	31.9218
26.3	32.9503
26.318	34.0118
26.336	35.1214
26.354	36.2749
26.372	37.4445
26.39	38.605
26.408	39.7777
26.426	40.9547
26.444	42.1098
26.462	43.2217
26.48	44.313
26.498	45.3723
26.516	46.3765
26.534	47.3077
26.552	48.1805
26.57	48.9928
26.588	49.7378
26.606	50.4083
26.624	51.0037
26.642	51.5346
26.66	52.0122
26.678	52.4386
26.696	52.7982
26.714	53.1139
26.732	53.4121
26.75	53.7009
26.768	53.9534
26.786	54.2011
26.804	54.4799
26.822	54.8044
26.84	55.144
26.858	55.5242
26.876	55.9749
26.894	56.5109
26.912	57.1092
26.93	57.7817
26.948	58.5429
26.966	59.4642
26.984	60.6283
27.002	61.8011
27.02	62.7299
27.028	62.9719