File: Bakgrunnsmateriale/MATLAB/FTIR/ftir_data/subBb/Mapping_121/C-4040-8_t31_cm-1.asc
PE IR       SPECTRUM    SPECTRUM    ASCII       PEDS        1.60
  -1
C-1BE4~1.ASC
17/03/27
17:01:45.00
17/03/27
17:01:45.00
tln
$C-4040-8_t0031$<tbV0>[-7.8,-7.8,8.0,0.0,27,1,0]
370
64

2002,4.07
MIRTGS : RIGHTBACK : INTERNAL 2
MIR : ON : INTERNAL 2
OPTKBR

0.200000
8
8.000000
FILLER
RATIO
SPECTRUM
UNLOCKED 256

DOUBLE
64
COMBINED
1
0
0

1.000000
RATIO

1
0
TRUE
51149
0
LEFT NOT FITTED RIGHT NOT FITTED 0
NONE
NONE
15600
12
4.427000
51148
TRUE
1 0 8 72 0 0 0 0

15798

#HDR
-1
-1
#GR
CM-1
%T
2.38419e-05
0.0
5000
-1.000000
4631
8
77.2167
15.1189
#DATA
5000	63.7169
4996	63.9928
4992	64.2359
4988	64.1093
4984	63.6176
4980	63.1968
4976	63.326
4972	63.605
4968	63.5511
4964	63.4902
4960	63.6722
4956	63.9207
4952	64.0527
4948	63.9389
4944	63.8422
4940	64.0203
4936	64.1545
4932	64.0196
4928	63.8323
4924	63.668
4920	63.5957
4916	63.7373
4912	63.9346
4908	64.0096
4904	64.0607
4900	64.2989
4896	64.2885
4892	63.9471
4888	63.9146
4884	64.0072
4880	63.9304
4876	63.8773
4872	63.9559
4868	64.2474
4864	64.3467
4860	63.9188
4856	63.7029
4852	63.9669
4848	64.1476
4844	64.0747
4840	63.9647
4836	64.0018
4832	64.0208
4828	63.9379
4824	63.9373
4820	63.9302
4816	63.8547
4812	63.9297
4808	63.9662
4804	63.8173
4800	63.7265
4796	63.7902
4792	63.9104
4788	63.9242
4784	63.8865
4780	63.8637
4776	63.931
4772	64.0956
4768	64.2263
4764	64.2511
4760	64.0669
4756	63.9502
4752	64.0024
4748	63.9806
4744	63.9854
4740	64.0103
4736	63.9334
4732	63.7335
4728	63.6373
4724	63.8583
4720	64.0812
4716	64.0382
4712	63.8089
4708	63.6847
4704	63.7398
4700	63.7269
4696	63.8144
4692	63.9954
4688	63.9406
4684	63.7497
4680	63.6635
4676	63.797
4672	63.8969
4668	63.9352
4664	64.2388
4660	64.6161
4656	64.665
4652	64.2604
4648	63.775
4644	63.6071
4640	63.7283
4636	63.956
4632	64.058
4628	63.8974
4624	63.749
4620	63.8376
4616	63.9677
4612	64.0764
4608	64.0547
4604	63.9569
4600	63.9918
4596	63.9919
4592	63.8853
4588	63.8266
4584	63.8411
4580	63.7833
4576	63.7271
4572	63.7369
4568	63.716
4564	63.7454
4560	63.7857
4556	63.6964
4552	63.6439
4548	63.8154
4544	63.9823
4540	63.8702
4536	63.519
4532	63.3152
4528	63.3236
4524	63.4551
4520	63.7867
4516	63.8931
4512	63.7496
4508	63.6435
4504	63.4726
4500	63.4039
4496	63.5997
4492	63.7494
4488	63.6896
4484	63.6813
4480	63.7784
4476	63.7336
4472	63.3462
4468	62.9841
4464	63.0351
4460	63.2951
4456	63.4701
4452	63.3005
4448	63.015
4444	63.0751
4440	63.3301
4436	63.5587
4432	63.6082
4428	63.3424
4424	63.1601
4420	63.2383
4416	63.1845
4412	62.9378
4408	62.7203
4404	62.7443
4400	63.0458
4396	63.4119
4392	63.3403
4388	63.6989
4384	63.3226
4380	61.9146
4376	63.3412
4372	63.6551
4368	59.043
4364	50.5413
4360	51.464
4356	67.7835
4352	77.2167
4348	74.1785
4344	69.0229
4340	65.1524
4336	63.7142
4332	62.9619
4328	62.9385
4324	63.6026
4320	63.8052
4316	63.5636
4312	63.2362
4308	63.1093
4304	63.1274
4300	63.1302
4296	63.1441
4292	63.2396
4288	63.4184
4284	63.4377
4280	63.4291
4276	63.5496
4272	63.4242
4268	63.0838
4264	62.9717
4260	63.1559
4256	63.2184
4252	63.0721
4248	63.1156
4244	63.1921
4240	63.0383
4236	62.9956
4232	63.1392
4228	63.1948
4224	63.1667
4220	63.1612
4216	63.1214
4212	62.9723
4208	62.8297
4204	62.7512
4200	62.5838
4196	62.5303
4192	62.7311
4188	62.6877
4184	62.3551
4180	62.4269
4176	62.8694
4172	62.9333
4168	62.9004
4164	63.3311
4160	63.5289
4156	63.2658
4152	63.1801
4148	63.3723
4144	63.3846
4140	63.1619
4136	63.2017
4132	63.3355
4128	63.2258
4124	63.1334
4120	63.139
4116	63.1496
4112	63.195
4108	63.2416
4104	63.2537
4100	63.2517
4096	63.205
4092	63.1026
4088	63.0187
4084	63.0327
4080	63.0471
4076	63.0755
4072	63.2115
4068	63.2296
4064	63.0431
4060	62.8958
4056	62.8974
4052	62.9376
4048	62.9999
4044	63.1048
4040	63.1063
4036	62.9796
4032	62.9473
4028	63.0564
4024	63.1018
4020	63.1233
4016	63.2426
4012	63.218
4008	62.9439
4004	62.7738
4000	62.8845
3996	63.0309
3992	63.045
3988	62.9769
3984	62.979
3980	63.0831
3976	63.1194
3972	63.0703
3968	63.0376
3964	63.0134
3960	62.9671
3956	62.9061
3952	62.8763
3948	62.9007
3944	62.9162
3940	62.8862
3936	62.8618
3932	62.8422
3928	62.795
3924	62.7985
3920	62.8091
3916	62.6676
3912	62.5161
3908	62.5633
3904	62.7255
3900	62.8102
3896	62.8042
3892	62.7992
3888	62.8051
3884	62.8062
3880	62.8228
3876	62.8284
3872	62.7854
3868	62.758
3864	62.783
3860	62.8021
3856	62.7997
3852	62.7473
3848	62.6101
3844	62.5406
3840	62.5507
3836	62.4564
3832	62.2829
3828	62.2939
3824	62.4552
3820	62.4984
3816	62.5127
3812	62.5357
3808	62.4853
3804	62.4652
3800	62.4736
3796	62.3738
3792	62.2488
3788	62.1834
3784	62.1899
3780	62.3095
3776	62.3598
3772	62.3307
3768	62.3993
3764	62.465
3760	62.3729
3756	62.2945
3752	62.3359
3748	62.339
3744	62.326
3740	62.3313
3736	62.2854
3732	62.2203
3728	62.1835
3724	62.1865
3720	62.1774
3716	62.1725
3712	62.2714
3708	62.3775
3704	62.3446
3700	62.2705
3696	62.2635
3692	62.2172
3688	62.1194
3684	62.1353
3680	62.2008
3676	62.1455
3672	62.0813
3668	62.1041
3664	62.1068
3660	62.1008
3656	62.1352
3652	62.1921
3648	62.2067
3644	62.1209
3640	62.025
3636	61.9798
3632	61.9717
3628	62.0531
3624	62.1598
3620	62.1851
3616	62.147
3612	62.0049
3608	61.758
3604	61.5812
3600	61.5999
3596	61.7644
3592	61.9388
3588	62.0064
3584	61.9628
3580	61.9152
3576	61.9786
3572	62.0695
3568	62.0198
3564	61.8504
3560	61.6835
3556	61.6513
3552	61.648
3548	61.5217
3544	61.4147
3540	61.4436
3536	61.5352
3532	61.5564
3528	61.5312
3524	61.5144
3520	61.5045
3516	61.5752
3512	61.6156
3508	61.512
3504	61.4437
3500	61.4994
3496	61.5066
3492	61.4472
3488	61.4491
3484	61.4811
3480	61.4609
3476	61.4281
3472	61.3808
3468	61.3249
3464	61.267
3460	61.1817
3456	61.1812
3452	61.2417
3448	61.2521
3444	61.2967
3440	61.4103
3436	61.4504
3432	61.376
3428	61.2537
3424	61.0924
3420	60.9921
3416	61.0029
3412	61.0211
3408	60.9846
3404	60.9582
3400	60.9853
3396	60.9994
3392	60.9814
3388	60.9514
3384	60.9455
3380	60.9205
3376	60.8639
3372	60.9083
3368	60.9358
3364	60.7148
3360	60.541
3356	60.6895
3352	60.8075
3348	60.7021
3344	60.6642
3340	60.7934
3336	60.81
3332	60.6558
3328	60.5139
3324	60.4776
3320	60.5718
3316	60.7349
3312	60.7854
3308	60.7119
3304	60.6804
3300	60.6976
3296	60.6879
3292	60.5734
3288	60.3789
3284	60.2635
3280	60.2867
3276	60.3902
3272	60.451
3268	60.4602
3264	60.5041
3260	60.5118
3256	60.4636
3252	60.4457
3248	60.3959
3244	60.2679
3240	60.196
3236	60.2509
3232	60.2654
3228	60.1789
3224	60.1844
3220	60.2462
3216	60.1985
3212	60.0753
3208	59.9623
3204	59.9516
3200	60.0446
3196	60.1271
3192	60.1281
3188	60.0574
3184	60.0039
3180	59.9772
3176	59.9005
3172	59.9107
3168	60.0141
3164	59.9424
3160	59.7474
3156	59.6645
3152	59.6938
3148	59.6771
3144	59.5636
3140	59.5122
3136	59.5483
3132	59.5093
3128	59.4487
3124	59.4876
3120	59.5331
3116	59.5816
3112	59.6288
3108	59.5408
3104	59.4228
3100	59.3693
3096	59.3197
3092	59.3383
3088	59.4214
3084	59.4287
3080	59.3712
3076	59.3642
3072	59.3864
3068	59.3045
3064	59.1835
3060	59.1578
3056	59.1676
3052	59.1598
3048	59.1702
3044	59.2007
3040	59.179
3036	59.077
3032	58.9722
3028	58.9695
3024	58.992
3020	58.9156
3016	58.8141
3012	58.7916
3008	58.8562
3004	58.9043
3000	58.8546
2996	58.8112
2992	58.8413
2988	58.8811
2984	58.8574
2980	58.7816
2976	58.7551
2972	58.7784
2968	58.7218
2964	58.5483
2960	58.4428
2956	58.4622
2952	58.4517
2948	58.4092
2944	58.3731
2940	58.3227
2936	58.3559
2932	58.3906
2928	58.2892
2924	58.1588
2920	58.0776
2916	58.0676
2912	58.1148
2908	58.1558
2904	58.1374
2900	58.1186
2896	58.1414
2892	58.1156
2888	58.0486
2884	57.9756
2880	57.8669
2876	57.8178
2872	57.897
2868	57.9546
2864	57.8292
2860	57.6626
2856	57.621
2852	57.6424
2848	57.742
2844	57.8943
2840	57.9467
2836	57.8519
2832	57.7446
2828	57.729
2824	57.7119
2820	57.6718
2816	57.6629
2812	57.6558
2808	57.6378
2804	57.5922
2800	57.5199
2796	57.504
2792	57.5342
2788	57.496
2784	57.4342
2780	57.3835
2776	57.3144
2772	57.2662
2768	57.2548
2764	57.2601
2760	57.2756
2756	57.297
2752	57.2666
2748	57.2344
2744	57.2675
2740	57.2227
2736	57.0646
2732	56.9652
2728	56.96
2724	56.9417
2720	56.909
2716	56.8869
2712	56.8765
2708	56.9121
2704	56.9479
2700	56.9097
2696	56.8364
2692	56.7342
2688	56.6215
2684	56.6104
2680	56.622
2676	56.5843
2672	56.6203
2668	56.6511
2664	56.5746
2660	56.5033
2656	56.4992
2652	56.4694
2648	56.2876
2644	56.1398
2640	56.2172
2636	56.3095
2632	56.2792
2628	56.2217
2624	56.1877
2620	56.1395
2616	56.1006
2612	56.0968
2608	56.0619
2604	55.9962
2600	55.9597
2596	55.9486
2592	55.9115
2588	55.9031
2584	55.9388
2580	55.9109
2576	55.8879
2572	55.9021
2568	55.8134
2564	55.653
2560	55.5439
2556	55.5234
2552	55.5449
2548	55.5448
2544	55.5419
2540	55.5246
2536	55.4667
2532	55.4018
2528	55.3439
2524	55.3218
2520	55.2802
2516	55.1782
2512	55.1394
2508	55.1373
2504	55.0875
2500	55.0416
2496	54.9859
2492	54.9347
2488	54.9387
2484	54.9373
2480	54.932
2476	54.9066
2472	54.8437
2468	54.8207
2464	54.8252
2460	54.7902
2456	54.7295
2452	54.6733
2448	54.6696
2444	54.699
2440	54.5959
2436	54.4491
2432	54.5199
2428	54.7231
2424	54.8315
2420	54.8157
2416	54.7089
2412	54.5724
2408	54.5252
2404	54.5073
2400	54.4136
2396	54.2977
2392	54.2182
2388	54.1812
2384	54.1135
2380	54.0157
2376	53.9677
2372	53.9632
2368	53.9649
2364	53.9352
2360	53.8578
2356	53.7576
2352	53.6986
2348	53.7045
2344	53.7199
2340	53.6775
2336	53.6185
2332	53.612
2328	53.5763
2324	53.5381
2320	53.565
2316	53.5365
2312	53.4492
2308	53.4125
2304	53.4121
2300	53.3826
2296	53.3056
2292	53.2188
2288	53.1855
2284	53.1543
2280	53.0975
2276	53.0724
2272	53.0519
2268	53.0354
2264	52.9866
2260	52.909
2256	52.9009
2252	52.9282
2248	52.894
2244	52.8147
2240	52.7661
2236	52.7632
2232	52.7443
2228	52.6273
2224	52.4949
2220	52.5009
2216	52.5629
2212	52.5307
2208	52.4695
2204	52.4351
2200	52.3675
2196	52.3436
2192	52.3849
2188	52.3654
2184	52.2961
2180	52.2307
2176	52.1257
2172	52.0299
2168	52.044
2164	52.0721
2160	52.0234
2156	51.9582
2152	51.9301
2148	51.8959
2144	51.8131
2140	51.7682
2136	51.75
2132	51.7191
2128	51.6784
2124	51.6356
2120	51.6534
2116	51.6559
2112	51.583
2108	51.5154
2104	51.504
2100	51.4734
2096	51.3789
2092	51.3335
2088	51.3529
2084	51.3271
2080	51.2501
2076	51.1869
2072	51.0747
2068	50.9079
2064	50.8569
2060	50.9291
2056	50.9376
2052	50.8858
2048	50.8779
2044	50.8395
2040	50.7266
2036	50.6241
2032	50.5818
2028	50.5649
2024	50.5232
2020	50.4778
2016	50.5064
2012	50.5806
2008	50.5829
2004	50.485
2000	50.3742
1996	50.2979
1992	50.2409
1988	50.2002
1984	50.1516
1980	50.0824
1976	50
1972	49.9462
1968	49.9447
1964	49.938
1960	49.9327
1956	49.9339
1952	49.8769
1948	49.7712
1944	49.6825
1940	49.6415
1936	49.6157
1932	49.5931
1928	49.6085
1924	49.6125
1920	49.5499
1916	49.4785
1912	49.4184
1908	49.3554
1904	49.2942
1900	49.2215
1896	49.174
1892	49.1475
1888	49.1123
1884	49.0999
1880	49.0823
1876	49.0317
1872	48.9853
1868	48.9593
1864	48.9402
1860	48.8873
1856	48.8097
1852	48.747
1848	48.6767
1844	48.6516
1840	48.7007
1836	48.7019
1832	48.6356
1828	48.556
1824	48.4459
1820	48.3276
1816	48.2508
1812	48.227
1808	48.2167
1804	48.1987
1800	48.1937
1796	48.1746
1792	48.1025
1788	48.0591
1784	48.0509
1780	47.9667
1776	47.8551
1772	47.8394
1768	47.8749
1764	47.8407
1760	47.7639
1756	47.7093
1752	47.6761
1748	47.6317
1744	47.5646
1740	47.4886
1736	47.3787
1732	47.2906
1728	47.2599
1724	47.1892
1720	47.1026
1716	47.1344
1712	47.2489
1708	47.2521
1704	47.1453
1700	47.1028
1696	47.1124
1692	47.0817
1688	46.9888
1684	46.8843
1680	46.87
1676	46.8997
1672	46.8285
1668	46.696
1664	46.6332
1660	46.6203
1656	46.5777
1652	46.5374
1648	46.5666
1644	46.577
1640	46.5064
1636	46.4354
1632	46.3927
1628	46.3686
1624	46.3183
1620	46.1957
1616	46.0876
1612	46.0775
1608	46.0963
1604	46.0417
1600	45.958
1596	45.9099
1592	45.8701
1588	45.8433
1584	45.8617
1580	45.8671
1576	45.7696
1572	45.6585
1568	45.6274
1564	45.6128
1560	45.5872
1556	45.5647
1552	45.5033
1548	45.4006
1544	45.3129
1540	45.2499
1536	45.1925
1532	45.167
1528	45.184
1524	45.125
1520	44.9746
1516	44.9158
1512	44.9696
1508	44.9842
1504	44.9357
1500	44.9143
1496	44.8874
1492	44.7598
1488	44.6477
1484	44.636
1480	44.6165
1476	44.5959
1472	44.6205
1468	44.5779
1464	44.4383
1460	44.2953
1456	44.1988
1452	44.1852
1448	44.2462
1444	44.3309
1440	44.3366
1436	44.1911
1432	43.9856
1428	43.8659
1424	43.8798
1420	43.8896
1416	43.8194
1412	43.7934
1408	43.8265
1404	43.7948
1400	43.7062
1396	43.6191
1392	43.5525
1388	43.5179
1384	43.4512
1380	43.3763
1376	43.3617
1372	43.3104
1368	43.1423
1364	43.0044
1360	43.0619
1356	43.1901
1352	43.1818
1348	43.0417
1344	42.8917
1340	42.8451
1336	42.8705
1332	42.8564
1328	42.814
1324	42.7967
1320	42.7756
1316	42.7347
1312	42.6925
1308	42.6275
1304	42.5428
1300	42.4489
1296	42.3611
1292	42.3121
1288	42.2913
1284	42.3101
1280	42.319
1276	42.2913
1272	42.2962
1268	42.299
1264	42.2275
1260	42.0622
1256	41.9226
1252	41.8985
1248	41.8976
1244	41.9237
1240	41.9318
1236	41.8607
1232	41.7802
1228	41.6741
1224	41.5956
1220	41.6286
1216	41.6405
1212	41.5452
1208	41.4165
1204	41.3446
1200	41.3208
1196	41.2434
1192	41.1302
1188	41.0113
1184	40.9259
1180	40.9731
1176	41.0721
1172	41.1112
1168	41.0992
1164	41.0171
1160	40.9298
1156	40.9151
1152	40.8813
1148	40.7596
1144	40.5716
1140	40.4592
1136	40.5048
1132	40.5383
1128	40.6068
1124	40.8278
1120	41.0127
1116	40.8741
1112	40.3703
1108	39.9717
1104	39.935
1100	39.9893
1096	39.9064
1092	39.7814
1088	39.7369
1084	39.629
1080	39.5444
1076	39.5408
1072	39.5003
1068	39.4414
1064	39.3586
1060	39.3971
1056	39.5335
1052	39.6532
1048	39.6707
1044	39.4479
1040	39.1906
1036	39.1322
1032	39.267
1028	39.463
1024	39.5785
1020	39.4346
1016	39.0575
1012	38.8465
1008	38.9275
1004	38.9401
1000	38.7978
996	 38.743
992	 38.7852
988	 38.808
984	 38.7718
980	 38.6313
976	 38.4925
972	 38.4896
968	 38.4707
964	 38.3228
960	 38.1881
956	 38.2287
952	 38.3369
948	 38.3188
944	 38.2552
940	 38.1756
936	 38.0681
932	 38.0005
928	 37.844
924	 37.6758
920	 37.7353
916	 37.7972
912	 37.6559
908	 37.5253
904	 37.5124
900	 37.4501
896	 37.3395
892	 37.324
888	 37.3397
884	 37.3168
880	 37.2564
876	 37.1576
872	 37.0996
868	 37.0688
864	 37.065
860	 37.0618
856	 36.9379
852	 36.8041
848	 36.799
844	 36.7142
840	 36.5077
836	 36.4784
832	 36.5155
828	 36.3555
824	 36.2017
820	 36.1947
816	 36.1183
812	 36.0044
808	 36.0409
804	 36.06
800	 35.9118
796	 35.7739
792	 35.674
788	 35.5237
784	 35.4819
780	 35.5227
776	 35.3595
772	 35.1319
768	 35.1222
764	 35.1356
760	 34.8468
756	 34.5091
752	 34.4218
748	 34.3185
744	 34.2768
740	 34.3885
736	 34.3408
732	 34.309
728	 34.3633
724	 34.2393
720	 34.0601
716	 33.918
712	 33.8236
708	 33.881
704	 33.9272
700	 33.7815
696	 33.5558
692	 33.4132
688	 33.3967
684	 33.4578
680	 33.4728
676	 33.3101
672	 33.0199
668	 32.7066
664	 32.4566
660	 32.432
656	 32.5107
652	 32.4857
648	 32.4028
644	 32.2461
640	 31.9945
636	 31.8199
632	 31.7672
628	 31.6977
624	 31.5672
620	 31.4106
616	 31.3665
612	 31.4154
608	 31.2436
604	 30.9684
600	 30.7881
596	 30.585
592	 30.4856
588	 30.5557
584	 30.608
580	 30.4515
576	 30.1849
572	 30.0254
568	 29.8161
564	 29.4782
560	 29.2303
556	 29.1538
552	 29.1234
548	 28.9407
544	 28.5073
540	 28.1009
536	 28.1312
532	 28.4841
528	 28.7628
524	 28.6459
520	 28.1364
516	 27.6106
512	 27.1621
508	 26.7372
504	 26.5351
500	 26.6108
496	 26.7602
492	 26.9152
488	 26.9329
484	 26.6023
480	 26.2332
476	 26.0784
472	 25.9107
468	 25.8248
464	 25.5255
460	 24.5299
456	 23.9294
452	 24.4497
448	 24.685
444	 24.0231
440	 23.8731
436	 24.5678
432	 24.3521
428	 22.9017
424	 22.1835
420	 22.2126
416	 21.7659
412	 20.6016
408	 20.3587
404	 23.1943
400	 23.4625
396	 18.2724
392	 15.1189
388	 23.4824
384	 41.8103
380	 49.5425
376	 49.4371
372	 60.608
370	 69.06