File: Bakgrunnsmateriale/MATLAB/FTIR/ftir_data/subBb/Mapping_121/C-4040-8_t91_cm-1.asc
PE IR       SPECTRUM    SPECTRUM    ASCII       PEDS        1.60
  -1
C-1EE4~1.ASC
17/03/27
22:00:38.00
17/03/27
22:00:38.00
tln
$C-4040-8_t0091$<tbV0>[7.8,7.8,8.0,0.0,27,1,0]
370
64

2002,4.07
MIRTGS : RIGHTBACK : INTERNAL 2
MIR : ON : INTERNAL 2
OPTKBR

0.200000
8
8.000000
FILLER
RATIO
SPECTRUM
UNLOCKED 256

DOUBLE
64
COMBINED
1
0
0

1.000000
RATIO

1
0
TRUE
51149
0
LEFT NOT FITTED RIGHT NOT FITTED 0
NONE
NONE
15600
12
4.427000
51148
TRUE
1 0 8 72 0 0 0 0

15798

#HDR
-1
-1
#GR
CM-1
%T
2.38419e-05
0.0
5000
-1.000000
4631
8
123.647
45.4567
#DATA
5000	65.3317
4996	65.3305
4992	65.365
4988	65.3249
4984	64.9285
4980	64.6881
4976	64.7652
4972	64.799
4968	64.8705
4964	64.8879
4960	64.8603
4956	64.848
4952	64.873
4948	65.1287
4944	65.238
4940	65.0476
4936	65.0259
4932	64.9939
4928	64.5838
4924	64.3938
4920	64.7332
4916	65.071
4912	65.2269
4908	65.141
4904	64.9195
4900	64.9398
4896	64.9642
4892	64.926
4888	65.3121
4884	65.84
4880	65.99
4876	65.7415
4872	65.4819
4868	65.5681
4864	65.6183
4860	65.495
4856	65.3906
4852	65.3774
4848	65.3813
4844	65.2113
4840	64.9928
4836	64.8879
4832	64.9469
4828	64.953
4824	64.8198
4820	64.8929
4816	65.1362
4812	65.3398
4808	65.4565
4804	65.3198
4800	65.1005
4796	65.1528
4792	65.3066
4788	65.3483
4784	65.2152
4780	64.8742
4776	64.7625
4772	65.0028
4768	65.0984
4764	65.0072
4760	65.0507
4756	65.1127
4752	65.0351
4748	64.9212
4744	64.6438
4740	64.3504
4736	64.4193
4732	64.7021
4728	65.0474
4724	65.3899
4720	65.2448
4716	64.8306
4712	64.7941
4708	64.8754
4704	64.9018
4700	65.0163
4696	65.1267
4692	65.214
4688	65.3448
4684	65.3595
4680	65.2183
4676	65.0875
4672	65.0195
4668	65.0077
4664	65.0357
4660	65.0558
4656	65.0875
4652	65.1819
4648	65.2849
4644	65.3296
4640	65.2816
4636	65.3143
4632	65.4737
4628	65.5081
4624	65.4035
4620	65.4187
4616	65.4356
4612	65.1207
4608	64.789
4604	64.8065
4600	65.0343
4596	65.3214
4592	65.5323
4588	65.5369
4584	65.3997
4580	65.3047
4576	65.2812
4572	65.164
4568	65.0239
4564	65.0104
4560	65.0676
4556	65.1721
4552	65.3033
4548	65.3828
4544	65.1806
4540	64.8352
4536	64.7909
4532	64.9545
4528	65.1889
4524	65.5266
4520	65.5854
4516	65.1985
4512	64.9107
4508	64.9027
4504	64.8583
4500	64.9571
4496	65.1296
4492	65.088
4488	65.0594
4484	65.095
4480	65.092
4476	64.975
4472	64.8603
4468	64.8296
4464	64.7786
4460	64.7713
4456	64.7886
4452	64.9364
4448	65.0947
4444	64.8828
4440	64.7427
4436	64.9244
4432	65.1095
4428	64.9275
4424	64.5193
4420	64.5742
4416	65.3068
4412	65.8004
4408	65.4384
4404	64.9282
4400	64.6459
4396	64.5195
4392	62.5037
4388	57.3249
4384	59.164
4380	65.996
4376	66.3022
4372	65.259
4368	65.3188
4364	65.12
4360	64.802
4356	65.1518
4352	65.233
4348	65.2677
4344	65.3583
4340	64.9681
4336	64.6992
4332	64.7207
4328	64.9765
4324	65.5772
4320	65.7836
4316	65.4912
4312	65.2181
4308	64.9033
4304	64.7151
4300	64.8058
4296	64.8404
4292	64.7136
4288	64.728
4284	64.9344
4280	65.042
4276	65.1162
4272	65.2049
4268	65.2896
4264	65.4319
4260	65.4084
4256	65.2312
4252	65.1012
4248	65.0547
4244	65.0029
4240	65.0412
4236	65.3947
4232	65.5338
4228	65.2681
4224	65.0809
4220	64.9706
4216	64.8903
4212	64.8052
4208	64.7312
4204	64.7782
4200	64.7221
4196	64.601
4192	64.6839
4188	65.0689
4184	65.359
4180	65.0798
4176	64.7573
4172	64.5857
4168	64.5211
4164	64.6989
4160	64.8926
4156	65.1594
4152	65.2881
4148	65.2402
4144	65.312
4140	65.3401
4136	65.235
4132	65.1113
4128	65.0784
4124	65.1692
4120	65.3343
4116	65.5128
4112	65.4097
4108	65.1213
4104	65.0342
4100	65.1011
4096	65.1579
4092	65.1009
4088	65.0645
4084	65.1369
4080	65.1423
4076	64.9888
4072	64.8874
4068	64.9837
4064	65.054
4060	65.1178
4056	65.224
4052	65.171
4048	64.9284
4044	64.8063
4040	65.0031
4036	65.236
4032	65.3701
4028	65.4628
4024	65.5153
4020	65.4762
4016	65.2891
4012	65.1013
4008	65.0405
4004	64.999
4000	64.9153
3996	65.0018
3992	65.1995
3988	65.2509
3984	65.2594
3980	65.2706
3976	65.2172
3972	65.2546
3968	65.3608
3964	65.3259
3960	65.122
3956	64.8902
3952	64.8082
3948	64.8966
3944	65.0374
3940	65.1596
3936	65.2249
3932	65.1219
3928	64.9496
3924	64.9842
3920	65.1223
3916	65.2684
3912	65.407
3908	65.3997
3904	65.3711
3900	65.3194
3896	65.1479
3892	65.0148
3888	65.0578
3884	65.169
3880	65.1838
3876	65.1708
3872	65.1572
3868	65.1456
3864	65.1952
3860	65.2172
3856	65.1472
3852	65.0703
3848	65.073
3844	65.1414
3840	65.1841
3836	65.1319
3832	64.9496
3828	64.745
3824	64.8074
3820	65.1456
3816	65.3625
3812	65.2786
3808	65.0677
3804	64.9459
3800	65.0327
3796	65.1351
3792	65.0936
3788	65.1455
3784	65.2846
3780	65.2616
3776	65.2471
3772	65.3709
3768	65.4035
3764	65.2588
3760	65.1382
3756	65.1936
3752	65.2582
3748	65.2394
3744	65.1969
3740	65.1808
3736	65.2811
3732	65.3918
3728	65.4193
3724	65.3462
3720	65.2442
3716	65.1626
3712	65.0072
3708	64.9747
3704	65.1364
3700	65.2469
3696	65.3349
3692	65.3771
3688	65.2428
3684	65.1145
3680	65.0767
3676	65.0754
3672	65.1334
3668	65.1741
3664	65.1366
3660	65.116
3656	65.2095
3652	65.3101
3648	65.3255
3644	65.3613
3640	65.3593
3636	65.2797
3632	65.2382
3628	65.1937
3624	65.1799
3620	65.2793
3616	65.3353
3612	65.2844
3608	65.2387
3604	65.2148
3600	65.1968
3596	65.1899
3592	65.2327
3588	65.299
3584	65.3493
3580	65.3908
3576	65.363
3572	65.2913
3568	65.3036
3564	65.3897
3560	65.3797
3556	65.2943
3552	65.2227
3548	65.1165
3544	65.0468
3540	65.028
3536	65.0979
3532	65.2732
3528	65.3146
3524	65.234
3520	65.1767
3516	65.1505
3512	65.2167
3508	65.2802
3504	65.1631
3500	65.0145
3496	65.0953
3492	65.2738
3488	65.2447
3484	65.0911
3480	65.0302
3476	65.0592
3472	65.1709
3468	65.2945
3464	65.3258
3460	65.2778
3456	65.1715
3452	65.0666
3448	65.0889
3444	65.3003
3440	65.4964
3436	65.4251
3432	65.2565
3428	65.194
3424	65.1926
3420	65.2617
3416	65.3446
3412	65.3434
3408	65.3052
3404	65.2347
3400	65.1278
3396	65.1744
3392	65.3447
3388	65.3194
3384	65.145
3380	65.0701
3376	65.0628
3372	65.076
3368	65.1074
3364	65.1112
3360	65.1379
3356	65.2538
3352	65.3465
3348	65.2985
3344	65.2058
3340	65.1545
3336	65.1819
3332	65.2435
3328	65.257
3324	65.1923
3320	65.0778
3316	65.0822
3312	65.1851
3308	65.188
3304	65.119
3300	65.144
3296	65.2425
3292	65.2635
3288	65.2293
3284	65.2157
3280	65.1958
3276	65.1705
3272	65.1229
3268	65.1034
3264	65.1621
3260	65.2454
3256	65.4022
3252	65.507
3248	65.4189
3244	65.342
3240	65.3181
3236	65.2686
3232	65.2805
3228	65.2975
3224	65.2991
3220	65.3757
3216	65.4619
3212	65.4407
3208	65.2972
3204	65.2198
3200	65.1597
3196	65.0185
3192	64.9903
3188	65.0529
3184	65.1367
3180	65.2692
3176	65.341
3172	65.3299
3168	65.3024
3164	65.3043
3160	65.4187
3156	65.4766
3152	65.3764
3148	65.3128
3144	65.3632
3140	65.4249
3136	65.4023
3132	65.421
3128	65.4151
3124	65.2517
3120	65.2838
3116	65.3906
3112	65.293
3108	65.3272
3104	65.4895
3100	65.4882
3096	65.3832
3092	65.3524
3088	65.3295
3084	65.2134
3080	65.1182
3076	65.1975
3072	65.3152
3068	65.2823
3064	65.2003
3060	65.1668
3056	65.1742
3052	65.2031
3048	65.2906
3044	65.3651
3040	65.3702
3036	65.4274
3032	65.4426
3028	65.3474
3024	65.2931
3020	65.345
3016	65.4323
3012	65.43
3008	65.3429
3004	65.3069
3000	65.3108
2996	65.2788
2992	65.253
2988	65.2152
2984	65.1737
2980	65.2354
2976	65.3028
2972	65.2537
2968	65.2358
2964	65.3095
2960	65.336
2956	65.2623
2952	65.1593
2948	65.1437
2944	65.2384
2940	65.291
2936	65.1664
2932	65.0105
2928	64.9614
2924	64.8967
2920	64.8422
2916	64.8772
2912	64.9636
2908	65.0871
2904	65.1453
2900	65.0744
2896	64.9915
2892	65.0058
2888	65.0906
2884	65.1885
2880	65.2627
2876	65.2533
2872	65.1633
2868	65.1558
2864	65.3177
2860	65.3755
2856	65.2211
2852	65.1132
2848	65.1107
2844	65.1495
2840	65.2287
2836	65.2972
2832	65.2544
2828	65.1577
2824	65.1594
2820	65.1912
2816	65.1702
2812	65.165
2808	65.242
2804	65.3131
2800	65.2912
2796	65.3589
2792	65.5061
2788	65.5144
2784	65.44
2780	65.3732
2776	65.3414
2772	65.3643
2768	65.3615
2764	65.2975
2760	65.2516
2756	65.2489
2752	65.2723
2748	65.3072
2744	65.2993
2740	65.2664
2736	65.2983
2732	65.3529
2728	65.3255
2724	65.2836
2720	65.2781
2716	65.2717
2712	65.2789
2708	65.3071
2704	65.3212
2700	65.358
2696	65.4181
2692	65.4054
2688	65.3302
2684	65.2778
2680	65.2604
2676	65.2489
2672	65.3272
2668	65.4699
2664	65.5231
2660	65.4609
2656	65.3175
2652	65.2093
2648	65.2517
2644	65.3234
2640	65.2743
2636	65.2244
2632	65.2709
2628	65.3356
2624	65.4017
2620	65.4339
2616	65.3878
2612	65.3208
2608	65.2503
2604	65.1668
2600	65.1361
2596	65.1871
2592	65.2583
2588	65.3312
2584	65.3844
2580	65.3435
2576	65.2995
2572	65.2991
2568	65.2995
2564	65.3428
2560	65.3454
2556	65.2871
2552	65.2652
2548	65.3265
2544	65.4187
2540	65.3886
2536	65.3317
2532	65.3101
2528	65.2305
2524	65.2735
2520	65.3572
2516	65.2544
2512	65.1085
2508	65.0523
2504	65.1673
2500	65.418
2496	65.5773
2492	65.6185
2488	65.5734
2484	65.4432
2480	65.3979
2476	65.4552
2472	65.5173
2468	65.4805
2464	65.377
2460	65.3563
2456	65.3375
2452	65.2599
2448	65.1751
2444	65.1502
2440	65.1699
2436	65.1925
2432	65.1878
2428	65.1667
2424	65.3532
2420	65.5985
2416	65.6372
2412	65.5816
2408	65.4932
2404	65.392
2400	65.3203
2396	65.294
2392	65.295
2388	65.2648
2384	65.3016
2380	65.4114
2376	65.3955
2372	65.3044
2368	65.32
2364	65.3943
2360	65.3929
2356	65.3236
2352	65.235
2348	65.2093
2344	65.2658
2340	65.3296
2336	65.387
2332	65.3991
2328	65.3629
2324	65.3493
2320	65.3764
2316	65.385
2312	65.3426
2308	65.2771
2304	65.2335
2300	65.225
2296	65.2126
2292	65.2352
2288	65.305
2284	65.3429
2280	65.3687
2276	65.3804
2272	65.3518
2268	65.3571
2264	65.3921
2260	65.3938
2256	65.3287
2252	65.2699
2248	65.3047
2244	65.3327
2240	65.3194
2236	65.3073
2232	65.2919
2228	65.2853
2224	65.2837
2220	65.3159
2216	65.3473
2212	65.3244
2208	65.3104
2204	65.3431
2200	65.3969
2196	65.4403
2192	65.46
2188	65.4457
2184	65.4056
2180	65.3444
2176	65.2995
2172	65.3256
2168	65.3644
2164	65.376
2160	65.4332
2156	65.5703
2152	65.5585
2148	65.3749
2144	65.3151
2140	65.3216
2136	65.3215
2132	65.3054
2128	65.1829
2124	65.1171
2120	65.1783
2116	65.3366
2112	65.5963
2108	65.6817
2104	65.4958
2100	65.3332
2096	65.3307
2092	65.3739
2088	65.3355
2084	65.2837
2080	65.3034
2076	65.4772
2072	65.7777
2068	65.7958
2064	65.5097
2060	65.3045
2056	65.2575
2052	65.2715
2048	65.3353
2044	65.4145
2040	65.4316
2036	65.4394
2032	65.4365
2028	65.3689
2024	65.2654
2020	65.2245
2016	65.2502
2012	65.2766
2008	65.3496
2004	65.4077
2000	65.4286
1996	65.428
1992	65.3843
1988	65.4386
1984	65.5725
1980	65.5804
1976	65.4827
1972	65.4452
1968	65.4722
1964	65.4782
1960	65.4162
1956	65.3846
1952	65.4145
1948	65.4041
1944	65.4131
1940	65.46
1936	65.4485
1932	65.4069
1928	65.4037
1924	65.4077
1920	65.3928
1916	65.3424
1912	65.3068
1908	65.3441
1904	65.386
1900	65.3694
1896	65.3268
1892	65.3548
1888	65.4363
1884	65.4695
1880	65.4407
1876	65.4079
1872	65.3863
1868	65.3495
1864	65.3712
1860	65.4311
1856	65.3938
1852	65.3151
1848	65.3012
1844	65.3655
1840	65.451
1836	65.4833
1832	65.4966
1828	65.5079
1824	65.4651
1820	65.397
1816	65.3493
1812	65.297
1808	65.2734
1804	65.2907
1800	65.2629
1796	65.2186
1792	65.2504
1788	65.2635
1784	65.2361
1780	65.2904
1776	65.4055
1772	65.4745
1768	65.4433
1764	65.3648
1760	65.34
1756	65.386
1752	65.3912
1748	65.3518
1744	65.3082
1740	65.232
1736	65.1778
1732	65.1826
1728	65.2071
1724	65.2421
1720	65.2754
1716	65.3113
1712	65.4135
1708	65.4434
1704	65.2989
1700	65.1513
1696	65.1494
1692	65.2462
1688	65.2683
1684	65.2184
1680	65.2445
1676	65.3173
1672	65.361
1668	65.4007
1664	65.3889
1660	65.3053
1656	65.2139
1652	65.1944
1648	65.2573
1644	65.3174
1640	65.356
1636	65.3405
1632	65.2564
1628	65.1867
1624	65.1754
1620	65.1703
1616	65.1533
1612	65.1508
1608	65.181
1604	65.2623
1600	65.3174
1596	65.2871
1592	65.2615
1588	65.2814
1584	65.2876
1580	65.2559
1576	65.1352
1572	64.9784
1568	64.9634
1564	65.004
1560	65.0033
1556	65.0507
1552	65.1628
1548	65.269
1544	65.2835
1540	65.1961
1536	65.1081
1532	65.1107
1528	65.1912
1524	65.2319
1520	65.1951
1516	65.1412
1512	65.1227
1508	65.1945
1504	65.284
1500	65.3245
1496	65.3364
1492	65.2496
1488	65.1212
1484	65.0852
1480	65.101
1476	65.1208
1472	65.1429
1468	65.1586
1464	65.1706
1460	65.1759
1456	65.1642
1452	65.1303
1448	65.1159
1444	65.1608
1440	65.1848
1436	65.1787
1432	65.182
1428	65.167
1424	65.1298
1420	65.1056
1416	65.1359
1412	65.1688
1408	65.1988
1404	65.2585
1400	65.2744
1396	65.224
1392	65.1774
1388	65.2194
1384	65.3005
1380	65.2966
1376	65.2389
1372	65.2111
1368	65.2094
1364	65.1796
1360	65.1711
1356	65.2165
1352	65.2627
1348	65.3171
1344	65.2759
1340	65.0784
1336	64.9467
1332	65.0339
1328	65.1806
1324	65.2425
1320	65.2184
1316	65.0803
1312	64.958
1308	65.0114
1304	65.1272
1300	65.1531
1296	65.1177
1292	65.1064
1288	65.1365
1284	65.1524
1280	65.1057
1276	65.0547
1272	64.9823
1268	64.8898
1264	64.9033
1260	64.9963
1256	65.0713
1252	65.0578
1248	65.0184
1244	65.0344
1240	65.0351
1236	65.004
1232	65.0118
1228	65.0769
1224	65.1157
1220	65.1172
1216	65.1389
1212	65.1597
1208	65.1282
1204	65.0195
1200	64.9517
1196	65.013
1192	65.0299
1188	64.9128
1184	64.8088
1180	64.8403
1176	64.9165
1172	64.9375
1168	64.9379
1164	64.9422
1160	65.0066
1156	65.054
1152	64.9336
1148	64.8158
1144	64.8174
1140	64.8219
1136	64.8017
1132	64.7843
1128	64.8165
1124	64.9068
1120	64.9648
1116	64.9154
1112	64.9025
1108	64.9607
1104	64.8405
1100	64.5998
1096	64.5493
1092	64.6566
1088	64.6872
1084	64.6041
1080	64.5557
1076	64.674
1072	64.7744
1068	64.795
1064	64.8728
1060	64.9305
1056	64.9829
1052	65.1432
1048	65.3442
1044	65.2544
1040	64.8993
1036	64.6767
1032	64.57
1028	64.5176
1024	64.5622
1020	64.5688
1016	64.5196
1012	64.4616
1008	64.4867
1004	64.6355
1000	64.6912
996	 64.6751
992	 64.7497
988	 64.7465
984	 64.6513
980	 64.6821
976	 64.7564
972	 64.8438
968	 65.0723
964	 65.0706
960	 64.7025
956	 64.508
952	 64.5598
948	 64.6242
944	 64.6497
940	 64.5214
936	 64.4211
932	 64.7202
928	 65.2159
924	 65.4311
920	 65.3431
916	 65.1672
912	 65.224
908	 65.4253
904	 65.1289
900	 64.6387
896	 64.5357
892	 64.4014
888	 64.1744
884	 64.2465
880	 64.4156
876	 64.4636
872	 64.5386
868	 64.5154
864	 64.3379
860	 64.3041
856	 64.4883
852	 64.6327
848	 64.6367
844	 64.6466
840	 64.6269
836	 64.5471
832	 64.5569
828	 64.469
824	 64.2152
820	 64.1541
816	 64.2005
812	 64.1533
808	 64.0518
804	 63.9779
800	 64.0354
796	 64.1826
792	 64.1718
788	 64.0133
784	 63.9198
780	 63.8494
776	 63.8885
772	 63.9783
768	 64.0075
764	 64.089
760	 64.0765
756	 63.8088
752	 63.5429
748	 63.5976
744	 63.5218
740	 63.1605
736	 63.0867
732	 63.335
728	 63.4416
724	 63.4104
720	 63.4753
716	 63.3863
712	 63.2566
708	 63.3132
704	 63.4148
700	 63.4193
696	 63.2743
692	 63.1722
688	 63.2782
684	 63.412
680	 63.3614
676	 63.2298
672	 63.0678
668	 62.8915
664	 62.933
660	 63.0744
656	 63.128
652	 63.2339
648	 63.2874
644	 63.1214
640	 62.8594
636	 62.6457
632	 62.5575
628	 62.6554
624	 62.7818
620	 62.7973
616	 62.7618
612	 62.7285
608	 62.6329
604	 62.3402
600	 62.1893
596	 62.3609
592	 62.5379
588	 62.5765
584	 62.3569
580	 62.1349
576	 62.2885
572	 62.4611
568	 62.2531
564	 62.1161
560	 62.3599
556	 62.6166
552	 62.6861
548	 62.6022
544	 62.3055
540	 62.0138
536	 61.9082
532	 61.6853
528	 61.3174
524	 60.9001
520	 60.7686
516	 60.9292
512	 60.9707
508	 61.0619
504	 61.0672
500	 60.9704
496	 61.0979
492	 61.2475
488	 61.4056
484	 61.4687
480	 61.1567
476	 60.9691
472	 60.6952
468	 59.9252
464	 59.3896
460	 59.3042
456	 59.3892
452	 59.5735
448	 59.6226
444	 59.1878
440	 58.8626
436	 59.2451
432	 59.3905
428	 59.2107
424	 59.363
420	 58.5491
416	 56.8116
412	 56.4507
408	 57.1585
404	 62.4382
400	 69.0631
396	 57.536
392	 45.4567
388	 49.049
384	 50.4163
380	 53.9439
376	 91.1644
372	 123.32
370	 122.695