File: Bakgrunnsmateriale/MATLAB/FTIR/ftir_data/subBb/Mapping_121/C-4040-8_t95_cm-1.asc
PE IR       SPECTRUM    SPECTRUM    ASCII       PEDS        1.60
  -1
C-1EEE~1.ASC
17/03/27
22:19:06.00
17/03/27
22:19:06.00
tln
$C-4040-8_t0095$<tbV0>[-2.6,7.8,8.0,0.0,27,1,0]
370
64

2002,4.07
MIRTGS : RIGHTBACK : INTERNAL 2
MIR : ON : INTERNAL 2
OPTKBR

0.200000
8
8.000000
FILLER
RATIO
SPECTRUM
UNLOCKED 256

DOUBLE
64
COMBINED
1
0
0

1.000000
RATIO

1
0
TRUE
51149
0
LEFT NOT FITTED RIGHT NOT FITTED 0
NONE
NONE
15600
12
4.427000
51148
TRUE
1 0 8 72 0 0 0 0

15798

#HDR
-1
-1
#GR
CM-1
%T
2.38419e-05
0.0
5000
-1.000000
4631
8
101.721
-17.1446
#DATA
5000	65.4427
4996	65.1456
4992	64.825
4988	64.8802
4984	65.0223
4980	65.0489
4976	65.07
4972	64.899
4968	64.6605
4964	64.8783
4960	65.2178
4956	65.2278
4952	65.185
4948	65.1848
4944	65.0222
4940	64.8737
4936	64.9284
4932	64.8489
4928	64.5249
4924	64.5416
4920	64.9397
4916	65.3088
4912	65.6148
4908	65.5338
4904	65.0454
4900	65.004
4896	65.5371
4892	65.817
4888	66.1722
4884	66.7706
4880	66.4104
4876	65.5036
4872	65.0824
4868	64.9451
4864	64.9753
4860	65.1223
4856	65.0938
4852	64.9934
4848	65.1992
4844	65.3595
4840	64.9769
4836	64.6052
4832	64.7197
4828	65.0081
4824	65.2193
4820	65.334
4816	65.286
4812	65.182
4808	65.1747
4804	65.1763
4800	65.2046
4796	65.2556
4792	65.2332
4788	65.2749
4784	65.3657
4780	65.2659
4776	65.088
4772	64.9745
4768	64.9708
4764	65.047
4760	65.0858
4756	64.9971
4752	64.8921
4748	64.9797
4744	64.871
4740	64.4783
4736	64.372
4732	64.5194
4728	64.5879
4724	64.7939
4720	65.0174
4716	65.0128
4712	65.0157
4708	64.9946
4704	64.9276
4700	65.0378
4696	65.2551
4692	65.2013
4688	64.9823
4684	64.9545
4680	64.9395
4676	64.8714
4672	65.0384
4668	65.3112
4664	65.3121
4660	65.099
4656	65.038
4652	65.2306
4648	65.4556
4644	65.3923
4640	65.0965
4636	64.9956
4632	65.1495
4628	65.4094
4624	65.5691
4620	65.5658
4616	65.5923
4612	65.5028
4608	65.2249
4604	65.1677
4600	65.3905
4596	65.5819
4592	65.444
4588	65.0722
4584	65.1974
4580	65.5898
4576	65.4092
4572	65.076
4568	65.1445
4564	65.3219
4560	65.4994
4556	65.6704
4552	65.6205
4548	65.4756
4544	65.2836
4540	65.0761
4536	65.0149
4532	65.092
4528	65.1749
4524	65.1443
4520	65.1679
4516	65.2467
4512	65.2212
4508	65.1195
4504	64.9445
4500	64.9752
4496	65.2672
4492	65.4322
4488	65.4586
4484	65.4279
4480	65.3216
4476	65.2111
4472	65.1222
4468	65.1024
4464	65.1472
4460	65.1013
4456	64.974
4452	65.0375
4448	65.3767
4444	65.4403
4440	65.115
4436	64.9856
4432	65.2851
4428	65.373
4424	65.1935
4420	65.2793
4416	65.5888
4412	65.886
4408	65.9582
4404	65.2072
4400	64.2969
4396	64.0776
4392	63.7776
4388	60.5327
4384	52.624
4380	52.6973
4376	60.8167
4372	64.6154
4368	64.9154
4364	65.2079
4360	65.836
4356	66.3008
4352	66.2432
4348	65.7676
4344	65.4187
4340	65.1376
4336	65.0807
4332	65.1695
4328	65.2989
4324	65.773
4320	65.9512
4316	65.5146
4312	65.0029
4308	64.7872
4304	64.9256
4300	65.1094
4296	65.1981
4292	65.2851
4288	65.2875
4284	65.0814
4280	64.9395
4276	65.1377
4272	65.2129
4268	65.2299
4264	65.532
4260	65.6589
4256	65.3748
4252	64.882
4248	64.6197
4244	64.8653
4240	65.2019
4236	65.2496
4232	65.0423
4228	64.7439
4224	64.6162
4220	64.6918
4216	64.8018
4212	64.8527
4208	64.843
4204	64.6858
4200	64.3503
4196	64.2213
4192	64.5136
4188	64.9325
4184	64.9587
4180	64.7701
4176	64.7595
4172	64.5348
4168	64.3304
4164	64.7582
4160	65.3735
4156	65.5822
4152	65.5346
4148	65.4679
4144	65.3682
4140	65.3085
4136	65.1914
4132	64.9135
4128	64.8915
4124	65.1921
4120	65.2688
4116	65.1629
4112	65.1687
4108	65.2401
4104	65.2698
4100	65.1456
4096	64.9727
4092	64.8586
4088	64.8687
4084	65.0528
4080	65.1241
4076	64.9463
4072	64.8741
4068	64.9286
4064	64.8244
4060	64.8443
4056	65.0296
4052	65.062
4048	65.0643
4044	65.1136
4040	65.0994
4036	65.0169
4032	64.9595
4028	65.028
4024	65.2033
4020	65.2854
4016	65.1931
4012	65.1433
4008	65.2822
4004	65.4121
4000	65.3346
3996	65.2333
3992	65.2533
3988	65.2946
3984	65.3035
3980	65.2577
3976	65.1661
3972	65.0599
3968	65.0768
3964	65.2035
3960	65.0766
3956	64.832
3952	64.9176
3948	65.1458
3944	65.2183
3940	65.2325
3936	65.1731
3932	64.9913
3928	64.9362
3924	65.1
3920	65.2742
3916	65.4083
3912	65.5531
3908	65.5124
3904	65.2246
3900	65.0008
3896	64.9559
3892	64.9995
3888	65.0406
3884	65.0433
3880	65.0897
3876	65.1971
3872	65.282
3868	65.2332
3864	65.1925
3860	65.2888
3856	65.2866
3852	65.115
3848	64.9986
3844	65.0844
3840	65.3148
3836	65.4144
3832	65.2257
3828	64.9452
3824	64.882
3820	65.2157
3816	65.6457
3812	65.6467
3808	65.3258
3804	65.1541
3800	65.2361
3796	65.3561
3792	65.3363
3788	65.2658
3784	65.2042
3780	65.1165
3776	65.2471
3772	65.5312
3768	65.5162
3764	65.2915
3760	65.2145
3756	65.3006
3752	65.3884
3748	65.4059
3744	65.3109
3740	65.2096
3736	65.3088
3732	65.4387
3728	65.3934
3724	65.2375
3720	65.1316
3716	65.1607
3712	65.2012
3708	65.2092
3704	65.2197
3700	65.2313
3696	65.2807
3692	65.3458
3688	65.3474
3684	65.2628
3680	65.1569
3676	65.0913
3672	65.073
3668	65.1378
3664	65.3002
3660	65.4027
3656	65.3862
3652	65.3398
3648	65.3173
3644	65.3618
3640	65.3841
3636	65.3141
3632	65.2297
3628	65.2861
3624	65.4351
3620	65.4063
3616	65.2508
3612	65.1253
3608	65.022
3604	65.1051
3600	65.3393
3596	65.4037
3592	65.3696
3588	65.4443
3584	65.5213
3580	65.4138
3576	65.2359
3572	65.2362
3568	65.3684
3564	65.4729
3560	65.4646
3556	65.3291
3552	65.1665
3548	65.0532
3544	65.0037
3540	65.1042
3536	65.3722
3532	65.5271
3528	65.3988
3524	65.2736
3520	65.2752
3516	65.2591
3512	65.3042
3508	65.4274
3504	65.3768
3500	65.2356
3496	65.3007
3492	65.4129
3488	65.3529
3484	65.2124
3480	65.0587
3476	64.9451
3472	65.1222
3468	65.4459
3464	65.4576
3460	65.4184
3456	65.493
3452	65.3633
3448	65.2465
3444	65.3564
3440	65.4917
3436	65.5408
3432	65.5757
3428	65.5496
3424	65.393
3420	65.2633
3416	65.2616
3412	65.3325
3408	65.4467
3404	65.5597
3400	65.4361
3396	65.1052
3392	64.9534
3388	64.9948
3384	65.035
3380	65.0685
3376	65.1108
3372	65.1548
3368	65.1335
3364	65.1516
3360	65.2933
3356	65.3652
3352	65.3686
3348	65.4093
3344	65.3817
3340	65.2141
3336	65.1312
3332	65.2162
3328	65.2797
3324	65.2723
3320	65.2177
3316	65.1029
3312	65.0439
3308	65.1373
3304	65.2107
3300	65.1757
3296	65.1773
3292	65.2259
3288	65.1963
3284	65.1806
3280	65.3094
3276	65.4245
3272	65.4148
3268	65.3924
3264	65.4013
3260	65.2954
3256	65.1683
3252	65.2282
3248	65.2663
3244	65.2096
3240	65.2039
3236	65.2112
3232	65.2002
3228	65.2071
3224	65.3013
3220	65.4091
3216	65.3778
3212	65.2797
3208	65.1497
3204	65.0098
3200	64.919
3196	64.8101
3192	64.836
3188	65.0402
3184	65.2024
3180	65.2799
3176	65.3102
3172	65.2909
3168	65.2051
3164	65.204
3160	65.3546
3156	65.4171
3152	65.3256
3148	65.1759
3144	65.1034
3140	65.1806
3136	65.2862
3132	65.4466
3128	65.5329
3124	65.3453
3120	65.1024
3116	65.0743
3112	65.261
3108	65.3962
3104	65.3071
3100	65.1639
3096	65.1995
3092	65.3373
3088	65.375
3084	65.2817
3080	65.2001
3076	65.2693
3072	65.3551
3068	65.3149
3064	65.219
3060	65.1758
3056	65.2109
3052	65.2724
3048	65.3697
3044	65.4451
3040	65.444
3036	65.4098
3032	65.3278
3028	65.2442
3024	65.188
3020	65.1886
3016	65.3421
3012	65.5141
3008	65.5076
3004	65.435
3000	65.4274
2996	65.4574
2992	65.5079
2988	65.4872
2984	65.3672
2980	65.2848
2976	65.273
2972	65.3118
2968	65.3781
2964	65.3356
2960	65.2323
2956	65.1953
2952	65.1887
2948	65.2035
2944	65.1917
2940	65.1486
2936	65.1449
2932	65.0981
2928	64.9565
2924	64.8956
2920	64.9359
2916	64.935
2912	64.9436
2908	65.047
2904	65.185
2900	65.2161
2896	65.1433
2892	65.1404
2888	65.1864
2884	65.1701
2880	65.1965
2876	65.2524
2872	65.2488
2868	65.2996
2864	65.3897
2860	65.3722
2856	65.2409
2852	65.0527
2848	64.9587
2844	65.0376
2840	65.1884
2836	65.2851
2832	65.2389
2828	65.2134
2824	65.2797
2820	65.2978
2816	65.2947
2812	65.3091
2808	65.3062
2804	65.2673
2800	65.2744
2796	65.3736
2792	65.4028
2788	65.3057
2784	65.2519
2780	65.2913
2776	65.292
2772	65.2163
2768	65.1549
2764	65.1875
2760	65.3176
2756	65.4166
2752	65.3611
2748	65.2146
2744	65.1481
2740	65.2059
2736	65.2519
2732	65.23
2728	65.2611
2724	65.31
2720	65.2437
2716	65.1875
2712	65.2285
2708	65.2785
2704	65.2777
2700	65.2223
2696	65.2008
2692	65.2732
2688	65.325
2684	65.2946
2680	65.2444
2676	65.2102
2672	65.239
2668	65.3266
2664	65.3896
2660	65.3764
2656	65.3302
2652	65.2807
2648	65.2527
2644	65.2309
2640	65.1789
2636	65.2033
2632	65.3113
2628	65.3607
2624	65.3309
2620	65.2838
2616	65.2884
2612	65.3368
2608	65.3236
2604	65.2653
2600	65.2201
2596	65.2245
2592	65.2949
2588	65.3607
2584	65.3765
2580	65.3492
2576	65.3379
2572	65.3802
2568	65.3954
2564	65.387
2560	65.388
2556	65.3773
2552	65.4068
2548	65.5209
2544	65.6075
2540	65.5337
2536	65.3747
2532	65.2675
2528	65.1971
2524	65.1656
2520	65.2357
2516	65.3097
2512	65.266
2508	65.1796
2504	65.1804
2500	65.2803
2496	65.4152
2492	65.5011
2488	65.484
2484	65.408
2480	65.3995
2476	65.4447
2472	65.4331
2468	65.4098
2464	65.392
2460	65.3021
2456	65.2486
2452	65.3075
2448	65.3136
2444	65.3219
2440	65.4596
2436	65.5095
2432	65.4382
2428	65.4294
2424	65.4314
2420	65.4427
2416	65.3795
2412	65.1266
2408	65.1416
2404	65.4322
2400	65.4128
2396	65.208
2392	65.1761
2388	65.2578
2384	65.2955
2380	65.2078
2376	65.1036
2372	65.1615
2368	65.2928
2364	65.3265
2360	65.3135
2356	65.3543
2352	65.3929
2348	65.3631
2344	65.3322
2340	65.3494
2336	65.3414
2332	65.2944
2328	65.3128
2324	65.3742
2320	65.4013
2316	65.4095
2312	65.3868
2308	65.3533
2304	65.3931
2300	65.429
2296	65.3859
2292	65.3738
2288	65.3789
2284	65.345
2280	65.3412
2276	65.3661
2272	65.3704
2268	65.3438
2264	65.3323
2260	65.37
2256	65.3497
2252	65.2786
2248	65.2885
2244	65.2932
2240	65.2404
2236	65.2375
2232	65.291
2228	65.3662
2224	65.4351
2220	65.4385
2216	65.3545
2212	65.2785
2208	65.3016
2204	65.3121
2200	65.245
2196	65.2583
2192	65.3565
2188	65.4004
2184	65.4206
2180	65.3898
2176	65.3071
2172	65.3489
2168	65.4491
2164	65.4266
2160	65.3546
2156	65.3669
2152	65.3193
2148	65.239
2144	65.3693
2140	65.5065
2136	65.5166
2132	65.4904
2128	65.3757
2124	65.2718
2120	65.3176
2116	65.3955
2112	65.4562
2108	65.5351
2104	65.4933
2100	65.3797
2096	65.4198
2092	65.5245
2088	65.51
2084	65.5016
2080	65.7
2076	65.989
2072	66.0731
2068	66.0107
2064	65.9846
2060	65.8238
2056	65.5276
2052	65.4239
2048	65.5193
2044	65.5646
2040	65.4818
2036	65.3695
2032	65.2981
2028	65.2851
2024	65.366
2020	65.4719
2016	65.5125
2012	65.4464
2008	65.3349
2004	65.2998
2000	65.3445
1996	65.3881
1992	65.352
1988	65.31
1984	65.3091
1980	65.2761
1976	65.3006
1972	65.4173
1968	65.4903
1964	65.508
1960	65.5047
1956	65.4684
1952	65.4423
1948	65.4674
1944	65.4861
1940	65.4851
1936	65.476
1932	65.3883
1928	65.2952
1924	65.3349
1920	65.4274
1916	65.3835
1912	65.2367
1908	65.2234
1904	65.3545
1900	65.4064
1896	65.3727
1892	65.3656
1888	65.372
1884	65.4136
1880	65.4478
1876	65.4066
1872	65.3467
1868	65.2963
1864	65.2979
1860	65.3262
1856	65.3101
1852	65.2961
1848	65.2946
1844	65.3412
1840	65.4476
1836	65.511
1832	65.5249
1828	65.5043
1824	65.4181
1820	65.3478
1816	65.3461
1812	65.3372
1808	65.3557
1804	65.4205
1800	65.4107
1796	65.3552
1792	65.3538
1788	65.3791
1784	65.3607
1780	65.2873
1776	65.2629
1772	65.328
1768	65.38
1764	65.3658
1760	65.2834
1756	65.1898
1752	65.2013
1748	65.2138
1744	65.1232
1740	65.0304
1736	64.9843
1732	64.9952
1728	64.9977
1724	64.9882
1720	65.0281
1716	65.0961
1712	65.2321
1708	65.3876
1704	65.4239
1700	65.3709
1696	65.3256
1692	65.313
1688	65.276
1684	65.2314
1680	65.245
1676	65.2667
1672	65.3416
1668	65.4176
1664	65.3841
1660	65.3464
1656	65.2993
1652	65.2095
1648	65.1834
1644	65.2509
1640	65.3252
1636	65.3513
1632	65.3397
1628	65.2775
1624	65.2085
1620	65.2018
1616	65.2269
1612	65.2457
1608	65.2436
1604	65.2196
1600	65.1826
1596	65.1349
1592	65.1391
1588	65.217
1584	65.2547
1580	65.2244
1576	65.1733
1572	65.0939
1568	65.034
1564	65.0753
1560	65.1671
1556	65.1886
1552	65.19
1548	65.2092
1544	65.2047
1540	65.1793
1536	65.1669
1532	65.1726
1528	65.1588
1524	65.1619
1520	65.2376
1516	65.307
1512	65.2531
1508	65.1911
1504	65.2473
1500	65.2993
1496	65.272
1492	65.1987
1488	65.1015
1484	65.0473
1480	65.0297
1476	65.038
1472	65.1141
1468	65.2426
1464	65.3581
1460	65.3423
1456	65.2844
1452	65.3115
1448	65.3109
1444	65.2664
1440	65.2054
1436	65.1293
1432	65.0623
1428	65.0423
1424	65.0911
1420	65.1417
1416	65.1588
1412	65.2213
1408	65.3599
1404	65.4092
1400	65.3241
1396	65.2618
1392	65.2249
1388	65.2002
1384	65.225
1380	65.1657
1376	65.015
1372	64.9292
1368	64.8807
1364	64.8857
1360	65.0286
1356	65.1321
1352	65.1085
1348	65.1069
1344	65.1107
1340	65.096
1336	65.0959
1332	65.1233
1328	65.2275
1324	65.2885
1320	65.1557
1316	64.9382
1312	64.8414
1308	64.8844
1304	64.9974
1300	65.1118
1296	65.1321
1292	65.1271
1288	65.1817
1284	65.2329
1280	65.2465
1276	65.2275
1272	65.1296
1268	64.9808
1264	64.9467
1260	65.0036
1256	65.031
1252	65.0505
1248	65.0502
1244	65.0067
1240	64.9388
1236	64.867
1232	64.8424
1228	64.8854
1224	64.9321
1220	64.9717
1216	64.9916
1212	64.9316
1208	64.8949
1204	64.9442
1200	65.0066
1196	65.0652
1192	65.0324
1188	64.9645
1184	64.9362
1180	64.88
1176	64.8448
1172	64.9204
1168	65.0235
1164	65.0022
1160	64.9408
1156	64.9204
1152	64.8783
1148	64.8752
1144	64.9695
1140	65.0433
1136	64.9892
1132	64.9003
1128	64.8613
1124	64.8396
1120	64.8528
1116	64.8991
1112	64.8945
1108	64.7994
1104	64.5636
1100	64.3019
1096	64.4332
1092	64.8375
1088	64.9351
1084	64.8505
1080	64.9487
1076	65.0712
1072	64.9266
1068	64.6811
1064	64.6331
1060	64.6738
1056	64.6711
1052	64.7786
1048	64.9243
1044	64.8044
1040	64.5898
1036	64.5361
1032	64.6717
1028	64.9493
1024	65.161
1020	65.0887
1016	64.7959
1012	64.6065
1008	64.6586
1004	64.7166
1000	64.5838
996	 64.4268
992	 64.5386
988	 64.7533
984	 64.733
980	 64.6569
976	 64.6143
972	 64.5187
968	 64.6086
964	 64.7316
960	 64.5673
956	 64.4204
952	 64.4574
948	 64.5365
944	 64.7471
940	 65.0066
936	 65.0369
932	 64.9048
928	 64.7545
924	 64.5627
920	 64.2854
916	 63.9453
912	 64.0375
908	 64.6117
904	 64.8836
900	 64.7884
896	 64.7312
892	 64.6994
888	 64.5927
884	 64.3557
880	 64.0882
876	 63.9776
872	 64.1298
868	 64.415
864	 64.5339
860	 64.516
856	 64.5973
852	 64.696
848	 64.5725
844	 64.3303
840	 64.225
836	 64.3167
832	 64.5033
828	 64.5097
824	 64.2753
820	 64.1035
816	 64.1328
812	 64.1617
808	 64.0216
804	 63.9163
800	 64.0356
796	 64.2174
792	 64.1666
788	 63.9745
784	 63.9322
780	 64.0523
776	 64.1419
772	 64.0799
768	 64.0104
764	 63.8368
760	 63.7564
756	 64.0663
752	 64.3255
748	 64.5286
744	 64.445
740	 63.7805
736	 63.3958
732	 63.5961
728	 63.7003
724	 63.5914
720	 63.6541
716	 63.6664
712	 63.4909
708	 63.4777
704	 63.5592
700	 63.4278
696	 63.2607
692	 63.4325
688	 63.72
684	 63.7341
680	 63.6581
676	 63.6964
672	 63.66
668	 63.3789
664	 63.0072
660	 62.7678
656	 62.7497
652	 62.9143
648	 63.0304
644	 63.0787
640	 63.1431
636	 63.0138
632	 62.9517
628	 63.1805
624	 63.3345
620	 63.2611
616	 63.1104
612	 63.0434
608	 62.8592
604	 62.6076
600	 62.593
596	 62.5623
592	 62.5196
588	 62.5716
584	 62.5574
580	 62.7099
576	 63.0119
572	 63.0108
568	 62.5118
564	 61.9397
560	 61.8592
556	 62.1783
552	 62.134
548	 61.5129
544	 61.0381
540	 61.1513
536	 61.584
532	 61.7512
528	 61.6718
524	 61.6863
520	 61.8599
516	 61.9945
512	 62.1143
508	 62.3604
504	 62.1499
500	 61.2882
496	 60.4009
492	 60.0516
488	 59.8336
484	 59.3999
480	 59.5855
476	 60.2585
472	 60.2453
468	 60.0009
464	 60.3946
460	 61.1074
456	 61.417
452	 60.289
448	 59.057
444	 58.5595
440	 57.5161
436	 57.1694
432	 55.8466
428	 52.4068
424	 52.3239
420	 56.3675
416	 58.6736
412	 57.7373
408	 59.0353
404	 67.6246
400	 81.9054
396	 89.6696
392	 86.8019
388	 91.0355
384	 96.1489
380	 101.345
376	 50.0922
372	 -17.1446
370	 -6.242990