File: Bakgrunnsmateriale/MATLAB/FTIR/ftir_data/subBb/Mapping_121/C-4040-8_t89_cm-1.asc
PE IR       SPECTRUM    SPECTRUM    ASCII       PEDS        1.60
  -1
C-9DE0~1.ASC
17/03/27
21:51:24.00
17/03/27
21:51:24.00
tln
$C-4040-8_t0089$<tbV0>[13.0,7.8,8.0,0.0,27,1,0]
370
64

2002,4.07
MIRTGS : RIGHTBACK : INTERNAL 2
MIR : ON : INTERNAL 2
OPTKBR

0.200000
8
8.000000
FILLER
RATIO
SPECTRUM
UNLOCKED 256

DOUBLE
64
COMBINED
1
0
0

1.000000
RATIO

1
0
TRUE
51149
0
LEFT NOT FITTED RIGHT NOT FITTED 0
NONE
NONE
15600
12
4.427000
51148
TRUE
1 0 8 72 0 0 0 0

15798

#HDR
-1
-1
#GR
CM-1
%T
2.38419e-05
0.0
5000
-1.000000
4631
8
173.319
24.2702
#DATA
5000	64.8829
4996	64.6079
4992	64.5687
4988	64.9767
4984	65.1941
4980	65.2307
4976	65.3752
4972	65.4267
4968	65.7302
4964	66.1755
4960	66.1461
4956	65.7197
4952	65.3676
4948	65.3928
4944	65.3795
4940	65.0645
4936	64.6605
4932	64.2261
4928	64.0683
4924	64.4474
4920	64.9222
4916	65.0033
4912	64.932
4908	65.0801
4904	65.2645
4900	65.2951
4896	65.4533
4892	65.6116
4888	65.8897
4884	66.5352
4880	66.3931
4876	65.5327
4872	65.3024
4868	65.5324
4864	65.4716
4860	65.1464
4856	64.7674
4852	64.5089
4848	64.5838
4844	64.6939
4840	64.536
4836	64.3704
4832	64.5011
4828	64.763
4824	64.9385
4820	65.1355
4816	65.2727
4812	65.2729
4808	65.2589
4804	65.0858
4800	64.7862
4796	64.7162
4792	64.8337
4788	65.0191
4784	65.2845
4780	65.3262
4776	65.1408
4772	64.9975
4768	64.9218
4764	64.947
4760	65.0059
4756	64.9485
4752	65.0592
4748	65.4026
4744	65.3794
4740	64.9647
4736	64.7077
4732	64.6446
4728	64.7264
4724	65.101
4720	65.2385
4716	64.9774
4712	64.8809
4708	65.007
4704	65.1655
4700	65.2677
4696	65.284
4692	65.2011
4688	65.1395
4684	65.2079
4680	65.2448
4676	65.2735
4672	65.4674
4668	65.6956
4664	65.7001
4660	65.6001
4656	65.7047
4652	65.8065
4648	65.5811
4644	65.0902
4640	64.7146
4636	64.7545
4632	65.0053
4628	65.2564
4624	65.4257
4620	65.4874
4616	65.4723
4612	65.1408
4608	64.6534
4604	64.5025
4600	64.565
4596	64.6557
4592	64.7794
4588	64.9217
4584	65.069
4580	65.0768
4576	64.8914
4572	64.5998
4568	64.4835
4564	64.7307
4560	64.9961
4556	64.9698
4552	64.8456
4548	64.8031
4544	64.5169
4540	63.9339
4536	63.5022
4532	63.3292
4528	63.5357
4524	64.2057
4520	64.7492
4516	64.7649
4512	64.6088
4508	64.4224
4504	64.2706
4500	64.4047
4496	64.5895
4492	64.4642
4488	64.1883
4484	64.1261
4480	64.1043
4476	64.1213
4472	64.3858
4468	64.4791
4464	64.4197
4460	64.384
4456	64.3068
4452	64.5949
4448	64.9648
4444	64.5839
4440	64.0534
4436	64.1493
4432	64.3584
4428	64.5164
4424	64.6184
4420	64.5142
4416	64.4628
4412	64.1155
4408	63.7461
4404	64.0823
4400	64.8495
4396	67.1649
4392	73.2851
4388	92.253
4384	98.9325
4380	78.1225
4376	66.0935
4372	64.4936
4368	64.4187
4364	64.4012
4360	64.7019
4356	64.6517
4352	64.3631
4348	64.1087
4344	64.0233
4340	64.0855
4336	64.115
4332	64.3145
4328	64.7357
4324	65.0261
4320	64.7696
4316	64.4539
4312	64.3442
4308	64.2335
4304	64.2695
4300	64.1729
4296	64.095
4292	64.4091
4288	64.6067
4284	64.5251
4280	64.5154
4276	64.6726
4272	64.6958
4268	64.5824
4264	64.6501
4260	64.6664
4256	64.4514
4252	64.2456
4248	64.2466
4244	64.3763
4240	64.3845
4236	64.3397
4232	64.3697
4228	64.3798
4224	64.4871
4220	64.6945
4216	64.8188
4212	64.8995
4208	64.9882
4204	65.0594
4200	64.8717
4196	64.5221
4192	64.4439
4188	64.4536
4184	64.4389
4180	64.8172
4176	65.077
4172	64.7693
4168	64.9045
4164	65.589
4160	65.8945
4156	65.7372
4152	65.3987
4148	65.2066
4144	65.3121
4140	65.408
4136	65.2802
4132	64.9562
4128	64.7516
4124	64.8647
4120	65.0481
4116	65.1311
4112	65.1161
4108	65.0923
4104	65.1713
4100	65.3412
4096	65.3453
4092	65.1209
4088	64.9708
4084	65.0137
4080	65.0911
4076	65.0027
4072	64.8464
4068	64.8086
4064	64.9088
4060	65.0548
4056	65.0651
4052	64.986
4048	64.9357
4044	64.9824
4040	65.155
4036	65.2855
4032	65.2942
4028	65.2673
4024	65.314
4020	65.4526
4016	65.4877
4012	65.2971
4008	65.1144
4004	65.101
4000	65.1076
3996	65.0509
3992	65.0951
3988	65.2189
3984	65.1657
3980	65.0989
3976	65.1477
3972	65.1727
3968	65.2376
3964	65.3065
3960	65.2331
3956	65.0682
3952	65.0073
3948	65.0124
3944	65.0193
3940	65.086
3936	65.0181
3932	64.8817
3928	64.9256
3924	64.9586
3920	64.8674
3916	64.9182
3912	65.0354
3908	64.9203
3904	64.7968
3900	64.8535
3896	64.9566
3892	65.0927
3888	65.155
3884	65.1066
3880	65.0924
3876	65.1365
3872	65.2042
3868	65.2469
3864	65.2594
3860	65.1974
3856	65.0715
3852	65.0638
3848	65.1905
3844	65.3064
3840	65.2893
3836	65.1216
3832	64.9265
3828	64.8739
3824	65.0181
3820	65.2041
3816	65.2731
3812	65.164
3808	64.9695
3804	64.924
3800	65.03
3796	65.0636
3792	65.0208
3788	64.9862
3784	64.8809
3780	64.8226
3776	65.0592
3772	65.3697
3768	65.3982
3764	65.1427
3760	64.9084
3756	65.0504
3752	65.3338
3748	65.3697
3744	65.3194
3740	65.2885
3736	65.2042
3732	65.2655
3728	65.4374
3724	65.4185
3720	65.2733
3716	65.1599
3712	65.1289
3708	65.2242
3704	65.2951
3700	65.2497
3696	65.2519
3692	65.288
3688	65.2562
3684	65.1737
3680	65.0828
3676	65.1273
3672	65.3037
3668	65.4152
3664	65.3729
3660	65.199
3656	65.0202
3652	65.0136
3648	65.1476
3644	65.2153
3640	65.151
3636	65.0876
3632	65.1127
3628	65.2222
3624	65.429
3620	65.4939
3616	65.2587
3612	65.1247
3608	65.2061
3604	65.248
3600	65.2506
3596	65.262
3592	65.2474
3588	65.2419
3584	65.2924
3580	65.3071
3576	65.341
3572	65.4838
3568	65.6188
3564	65.6892
3560	65.6459
3556	65.4833
3552	65.3224
3548	65.1286
3544	64.9975
3540	65.0582
3536	65.1455
3532	65.2016
3528	65.28
3524	65.2937
3520	65.1583
3516	65.0102
3512	65.0489
3508	65.2198
3504	65.3018
3500	65.2122
3496	65.1203
3492	65.2846
3488	65.492
3484	65.3463
3480	65.0946
3476	65.0529
3472	65.2122
3468	65.3424
3464	65.2998
3460	65.2171
3456	65.0942
3452	64.9459
3448	64.8828
3444	65.0146
3440	65.2631
3436	65.3835
3432	65.3313
3428	65.2369
3424	65.1899
3420	65.1281
3416	65.1091
3412	65.2258
3408	65.3054
3404	65.2455
3400	65.1764
3396	65.1339
3392	65.0617
3388	65.0732
3384	65.2134
3380	65.2989
3376	65.2337
3372	65.1677
3368	65.181
3364	65.1533
3360	65.1039
3356	65.1039
3352	65.1505
3348	65.23
3344	65.2197
3340	65.0887
3336	65.017
3332	65.0738
3328	65.1589
3324	65.2154
3320	65.1861
3316	65.0293
3312	64.931
3308	65.0142
3304	65.0706
3300	65.0178
3296	65.0105
3292	65.0608
3288	65.1141
3284	65.1714
3280	65.182
3276	65.1935
3272	65.2579
3268	65.286
3264	65.2668
3260	65.2028
3256	65.0883
3252	65.0864
3248	65.1895
3244	65.1325
3240	64.9773
3236	64.9511
3232	64.9851
3228	65.0178
3224	65.1627
3220	65.2976
3216	65.2692
3212	65.1807
3208	65.0551
3204	64.9641
3200	64.876
3196	64.8054
3192	64.9446
3188	65.0529
3184	65.0528
3180	65.1581
3176	65.2774
3172	65.3013
3168	65.2541
3164	65.2472
3160	65.3547
3156	65.3862
3152	65.1485
3148	64.9138
3144	64.9861
3140	65.1361
3136	65.1294
3132	65.1125
3128	65.13
3124	65.0812
3120	65.051
3116	65.118
3112	65.2639
3108	65.4227
3104	65.4555
3100	65.3587
3096	65.2889
3092	65.2915
3088	65.2866
3084	65.2153
3080	65.2055
3076	65.3016
3072	65.3082
3068	65.2063
3064	65.1303
3060	65.1757
3056	65.2349
3052	65.2314
3048	65.2689
3044	65.2582
3040	65.1769
3036	65.132
3032	65.1376
3028	65.17
3024	65.1508
3020	65.0935
3016	65.119
3012	65.206
3008	65.1798
3004	65.0845
3000	65.0518
2996	65.0406
2992	65.0339
2988	64.9911
2984	64.9107
2980	64.9534
2976	65.046
2972	65.0315
2968	65.0574
2964	65.1131
2960	65.074
2956	65.0189
2952	64.9572
2948	64.9222
2944	65.0196
2940	65.1788
2936	65.2429
2932	65.1844
2928	65.0232
2924	64.8705
2920	64.8791
2916	64.9946
2912	65.1128
2908	65.1785
2904	65.1979
2900	65.1654
2896	65.1368
2892	65.2069
2888	65.2223
2884	65.1252
2880	65.1157
2876	65.2031
2872	65.2166
2868	65.1849
2864	65.2281
2860	65.2276
2856	65.1069
2852	65.0416
2848	65.0059
2844	64.9374
2840	65.0218
2836	65.1854
2832	65.1935
2828	65.1199
2824	65.1241
2820	65.1602
2816	65.1773
2812	65.1996
2808	65.2264
2804	65.218
2800	65.1621
2796	65.2301
2792	65.3781
2788	65.3814
2784	65.2788
2780	65.1843
2776	65.1574
2772	65.1662
2768	65.1472
2764	65.1443
2760	65.2242
2756	65.3075
2752	65.3307
2748	65.3611
2744	65.3431
2740	65.2623
2736	65.2224
2732	65.1859
2728	65.1429
2724	65.1697
2720	65.2093
2716	65.1805
2712	65.1612
2708	65.2341
2704	65.2888
2700	65.2058
2696	65.1025
2692	65.1119
2688	65.1522
2684	65.1373
2680	65.1082
2676	65.1629
2672	65.2903
2668	65.3466
2664	65.3185
2660	65.219
2656	65.0811
2652	65.0694
2648	65.178
2644	65.246
2640	65.1956
2636	65.1358
2632	65.1572
2628	65.1633
2624	65.1618
2620	65.2044
2616	65.2292
2612	65.2249
2608	65.225
2604	65.2315
2600	65.2132
2596	65.2045
2592	65.211
2588	65.2306
2584	65.2662
2580	65.221
2576	65.2019
2572	65.2578
2568	65.2493
2564	65.2872
2560	65.3705
2556	65.3315
2552	65.2677
2548	65.2891
2544	65.2883
2540	65.2139
2536	65.1763
2532	65.1729
2528	65.1631
2524	65.2222
2520	65.2802
2516	65.2399
2512	65.1584
2508	65.089
2504	65.1824
2500	65.4371
2496	65.4724
2492	65.315
2488	65.3216
2484	65.3628
2480	65.2871
2476	65.2253
2472	65.2444
2468	65.2325
2464	65.1619
2460	65.1416
2456	65.1234
2452	65.0877
2448	65.063
2444	65.1267
2440	65.3091
2436	65.3735
2432	65.2649
2428	65.1925
2424	65.2003
2420	65.1249
2416	65.0053
2412	65.0838
2408	65.25
2404	65.2807
2400	65.2401
2396	65.2037
2392	65.2067
2388	65.2575
2384	65.3251
2380	65.3608
2376	65.3475
2372	65.3538
2368	65.3614
2364	65.333
2360	65.3287
2356	65.318
2352	65.2376
2348	65.1776
2344	65.2066
2340	65.2579
2336	65.2988
2332	65.3338
2328	65.3613
2324	65.4025
2320	65.4289
2316	65.4119
2312	65.3589
2308	65.2517
2304	65.1614
2300	65.1395
2296	65.2052
2292	65.3435
2288	65.3851
2284	65.3265
2280	65.3087
2276	65.3305
2272	65.3444
2268	65.3524
2264	65.3946
2260	65.4872
2256	65.4944
2252	65.3826
2248	65.3007
2244	65.2474
2240	65.1882
2236	65.168
2232	65.2129
2228	65.2835
2224	65.3349
2220	65.392
2216	65.3832
2212	65.2725
2208	65.2098
2204	65.2439
2200	65.2552
2196	65.2432
2192	65.2843
2188	65.2984
2184	65.3372
2180	65.4195
2176	65.3723
2172	65.3365
2168	65.4254
2164	65.4757
2160	65.4787
2156	65.5534
2152	65.5333
2148	65.3672
2144	65.408
2140	65.5363
2136	65.5052
2132	65.467
2128	65.4082
2124	65.2977
2120	65.289
2116	65.397
2112	65.5072
2108	65.4968
2104	65.3614
2100	65.2969
2096	65.3775
2092	65.4551
2088	65.4224
2084	65.3746
2080	65.4458
2076	65.6529
2072	65.9018
2068	65.9606
2064	65.7137
2060	65.3314
2056	65.1297
2052	65.1356
2048	65.1688
2044	65.2432
2040	65.2806
2036	65.2408
2032	65.2006
2028	65.1791
2024	65.2433
2020	65.3318
2016	65.3933
2012	65.4473
2008	65.4307
2004	65.364
2000	65.3421
1996	65.402
1992	65.47
1988	65.5163
1984	65.5383
1980	65.4984
1976	65.4651
1972	65.4738
1968	65.4752
1964	65.4129
1960	65.2991
1956	65.2152
1952	65.1897
1948	65.2126
1944	65.2565
1940	65.3461
1936	65.4092
1932	65.3427
1928	65.2629
1924	65.2637
1920	65.297
1916	65.2709
1912	65.2028
1908	65.1798
1904	65.1592
1900	65.161
1896	65.2447
1892	65.2863
1888	65.2775
1884	65.3231
1880	65.3773
1876	65.3852
1872	65.361
1868	65.333
1864	65.3336
1860	65.3312
1856	65.2984
1852	65.3061
1848	65.3343
1844	65.3159
1840	65.3106
1836	65.3194
1832	65.3254
1828	65.3805
1824	65.3971
1820	65.324
1816	65.2943
1812	65.3411
1808	65.3536
1804	65.2977
1800	65.2437
1796	65.2266
1792	65.2257
1788	65.2527
1784	65.3085
1780	65.2981
1776	65.2385
1772	65.2644
1768	65.2804
1764	65.1733
1760	65.0478
1756	64.9839
1752	65.033
1748	65.1595
1744	65.1629
1740	65.0195
1736	64.8698
1732	64.773
1728	64.8012
1724	65.0128
1720	65.2115
1716	65.1982
1712	65.1684
1708	65.2163
1704	65.2042
1700	65.2077
1696	65.2469
1692	65.2216
1688	65.1697
1684	65.1727
1680	65.2109
1676	65.2112
1672	65.2356
1668	65.3059
1664	65.2972
1660	65.1999
1656	65.1405
1652	65.168
1648	65.2254
1644	65.2703
1640	65.2562
1636	65.2239
1632	65.2289
1628	65.2121
1624	65.1937
1620	65.2123
1616	65.1674
1612	65.0458
1608	65.0175
1604	65.0962
1600	65.1212
1596	65.0951
1592	65.1087
1588	65.1353
1584	65.1173
1580	65.0384
1576	64.936
1572	64.9137
1568	64.9576
1564	64.9542
1560	64.9337
1556	64.9689
1552	65.0851
1548	65.1686
1544	65.1518
1540	65.1627
1536	65.2062
1532	65.1921
1528	65.0947
1524	65.0334
1520	65.0557
1516	65.0226
1512	64.9495
1508	64.9692
1504	65.0964
1500	65.179
1496	65.1693
1492	65.1018
1488	65.0409
1484	65.1044
1480	65.1622
1476	65.1858
1472	65.1973
1468	65.1567
1464	65.1666
1460	65.2024
1456	65.246
1452	65.3082
1448	65.2622
1444	65.1952
1440	65.1618
1436	65.0457
1432	64.9537
1428	65.0166
1424	65.124
1420	65.131
1416	65.098
1412	65.1259
1408	65.156
1404	65.1309
1400	65.1604
1396	65.2343
1392	65.2067
1388	65.1278
1384	65.1085
1380	65.1245
1376	65.1122
1372	65.0643
1368	65.0523
1364	65.1426
1360	65.2472
1356	65.243
1352	65.1768
1348	65.1269
1344	65.0399
1340	64.9428
1336	64.9267
1332	64.9462
1328	64.9726
1324	65.033
1320	65.0473
1316	64.9647
1312	64.9142
1308	64.9425
1304	64.9929
1300	65.0113
1296	64.9785
1292	64.9874
1288	65.0158
1284	65.0171
1280	65.0488
1276	65.0612
1272	64.9454
1268	64.7861
1264	64.7553
1260	64.8251
1256	64.9259
1252	64.9776
1248	64.9708
1244	64.9627
1240	64.9233
1236	64.9202
1232	64.9674
1228	64.9871
1224	64.9794
1220	65.0276
1216	65.0873
1212	65.0142
1208	64.8994
1204	64.8547
1200	64.8905
1196	64.9551
1192	64.9557
1188	64.9232
1184	64.8891
1180	64.8847
1176	64.896
1172	64.933
1168	65.0071
1164	65.0194
1160	64.9537
1156	64.8132
1152	64.6629
1148	64.719
1144	64.9339
1140	65.0228
1136	64.9744
1132	64.9093
1128	64.8414
1124	64.8803
1120	65.0832
1116	65.2127
1112	65.1875
1108	65.2094
1104	65.1696
1100	64.9108
1096	64.6885
1092	64.6207
1088	64.5678
1084	64.5017
1080	64.4437
1076	64.4908
1072	64.5998
1068	64.6632
1064	64.7599
1060	64.8067
1056	64.8448
1052	65.1063
1048	65.3015
1044	65.1258
1040	64.8948
1036	64.8186
1032	64.7969
1028	64.869
1024	64.9846
1020	64.7907
1016	64.3884
1012	64.1392
1008	64.1398
1004	64.331
1000	64.4887
996	 64.5854
992	 64.7352
988	 64.8523
984	 64.918
980	 64.9323
976	 64.8383
972	 64.7809
968	 64.8346
964	 64.8396
960	 64.7099
956	 64.6093
952	 64.715
948	 64.8131
944	 64.7822
940	 64.674
936	 64.338
932	 64.1716
928	 64.5684
924	 64.9053
920	 64.6738
916	 64.1713
912	 63.7962
908	 63.9062
904	 64.3722
900	 64.434
896	 64.1155
892	 64.1863
888	 64.6832
884	 64.8617
880	 64.8056
876	 64.9613
872	 65.0486
868	 65.0194
864	 64.8918
860	 64.6874
856	 64.574
852	 64.5513
848	 64.538
844	 64.5036
840	 64.3708
836	 64.1638
832	 64.1563
828	 64.2969
824	 64.3131
820	 64.1758
816	 64.1201
812	 64.1852
808	 64.1917
804	 64.1928
800	 64.2455
796	 64.1849
792	 63.8866
788	 63.6094
784	 63.5596
780	 63.6047
776	 63.5424
772	 63.5427
768	 63.7998
764	 64.0291
760	 64.1482
756	 64.2732
752	 64.2857
748	 64.1678
744	 63.8885
740	 63.4916
736	 63.2889
732	 63.2948
728	 63.3287
724	 63.417
720	 63.6171
716	 63.7614
712	 63.8292
708	 63.8403
704	 63.7214
700	 63.5911
696	 63.3923
692	 63.1345
688	 63.2051
684	 63.5422
680	 63.6187
676	 63.4106
672	 63.184
668	 62.9352
664	 62.6854
660	 62.6783
656	 62.8497
652	 63.0236
648	 63.1761
644	 63.0912
640	 62.8536
636	 62.7669
632	 62.8542
628	 62.985
624	 63.0449
620	 62.9684
616	 62.7689
612	 62.8766
608	 63.1864
604	 63.0246
600	 62.9246
596	 63.0081
592	 62.6557
588	 62.3569
584	 62.4425
580	 62.5942
576	 62.77
572	 62.7663
568	 62.3687
564	 62.0176
560	 61.9425
556	 62.0579
552	 62.0198
548	 61.747
544	 61.6183
540	 61.7504
536	 62.123
532	 62.3312
528	 61.9832
524	 61.2059
520	 60.8001
516	 60.9684
512	 60.9663
508	 60.7282
504	 60.4432
500	 60.3835
496	 60.9621
492	 61.602
488	 61.5231
484	 60.7265
480	 59.9461
476	 59.6955
472	 59.2868
468	 58.3581
464	 57.6318
460	 57.7451
456	 58.5584
452	 59.8657
448	 60.607
444	 59.8041
440	 58.7427
436	 58.3392
432	 58.5012
428	 58.356
424	 57.0781
420	 56.4627
416	 57.7861
412	 58.9483
408	 58.424
404	 56.1932
400	 50.6331
396	 43.2512
392	 40.2701
388	 36.1572
384	 28.0285
380	 25.7508
376	 34.3725
372	 132.978
370	 173.319