File: Bakgrunnsmateriale/MATLAB/FTIR/ftir_data/subBb/Mapping_121/C-4040-8_e124_cm-1.asc
PE IR       SPECTRUM    SPECTRUM    ASCII       PEDS        1.60
  -1
C-39CF~1.ASC
17/03/27
18:08:11.00
17/03/27
18:08:11.00
tln
$C-4040-8_e0124$<ebV0>[-23.3,12.1,10.0,0.0,27,1,0]
370
64

2002,4.07
MIRTGS : RIGHTBACK : INTERNAL 2
MIR : ON : INTERNAL 2
OPTKBR

0.200000
8
8.000000
FILLER
SINGLE
SPECTRUM
UNLOCKED 256

DOUBLE

COMBINED
1
0
0

1.000000
BACKG

1
0
TRUE
51149
0
LEFT NOT FITTED RIGHT NOT FITTED 0
NONE
NONE
15600
12
4.427000
51148
TRUE
1 0 8 72 0 0 0 0

15798

#HDR
-1
-1
#GR
CM-1
EGY
2.38419e-05
0.0
5000
-1.000000
4631
8
2.460765
0.007486
#DATA
5000	0.766897
4996	0.768208
4992	0.770497
4988	0.770545
4984	0.771284
4980	0.776267
4976	0.780296
4972	0.780320
4968	0.780320
4964	0.781130
4960	0.781488
4956	0.784063
4952	0.787615
4948	0.788617
4944	0.787901
4940	0.787734
4936	0.790977
4932	0.795245
4928	0.795555
4924	0.795125
4920	0.797915
4916	0.800466
4912	0.801515
4908	0.801706
4904	0.801610
4900	0.804996
4896	0.808668
4892	0.809407
4888	0.813961
4884	0.820660
4880	0.822424
4876	0.822162
4872	0.822973
4868	0.824642
4864	0.827622
4860	0.830602
4856	0.831508
4852	0.830364
4848	0.830674
4844	0.834846
4840	0.839328
4836	0.841045
4832	0.843024
4828	0.846719
4824	0.849866
4820	0.852131
4816	0.854158
4812	0.856637
4808	0.859284
4804	0.861096
4800	0.863432
4796	0.866365
4792	0.868582
4788	0.870227
4784	0.871610
4780	0.874018
4776	0.878620
4772	0.883412
4768	0.885438
4764	0.887012
4760	0.889778
4756	0.891232
4752	0.892424
4748	0.895452
4744	0.897908
4740	0.899410
4736	0.900530
4732	0.901126
4728	0.901556
4724	0.901317
4720	0.900745
4716	0.900888
4712	0.900912
4708	0.900578
4704	0.901961
4700	0.904321
4696	0.905036
4692	0.905060
4688	0.905537
4684	0.905799
4680	0.906944
4676	0.909066
4672	0.911116
4668	0.912666
4664	0.912690
4660	0.912594
4656	0.913715
4652	0.914788
4648	0.914216
4644	0.913500
4640	0.915074
4636	0.917625
4632	0.919628
4628	0.921058
4624	0.923180
4620	0.926351
4616	0.929021
4612	0.931334
4608	0.933909
4604	0.935029
4600	0.935316
4596	0.938010
4592	0.943136
4588	0.946331
4584	0.946187
4580	0.947403
4576	0.951385
4572	0.955605
4568	0.960135
4564	0.963497
4560	0.965642
4556	0.969910
4552	0.974845
4548	0.977873
4544	0.979852
4540	0.982427
4536	0.985002
4532	0.986146
4528	0.987195
4524	0.988960
4520	0.989770
4516	0.989556
4512	0.988960
4508	0.990414
4504	0.994706
4500	0.998044
4496	0.999021
4492	1.000046
4488	1.001596
4484	1.002526
4480	1.001930
4476	1.001381
4472	1.002669
4468	1.004195
4464	1.004528
4460	1.004242
4456	1.004099
4452	1.004672
4448	1.006054
4444	1.005744
4440	1.004838
4436	1.004767
4432	1.003909
4428	1.002192
4424	1.001715
4420	1.004672
4416	1.006650
4412	1.004648
4408	1.002383
4404	1.001882
4400	1.004981
4396	1.010513
4392	1.014280
4388	1.017451
4384	1.020073
4380	1.017022
4376	1.014018
4372	1.006221
4368	0.993728
4364	1.042389
4360	1.144313
4356	1.159501
4352	1.092243
4348	1.066517
4344	1.067566
4340	1.060318
4336	1.066565
4332	1.076483
4328	1.082515
4324	1.086854
4320	1.090145
4316	1.094532
4312	1.100826
4308	1.106691
4304	1.110959
4300	1.115322
4296	1.118588
4292	1.122426
4288	1.127243
4284	1.129150
4280	1.129579
4276	1.132702
4272	1.138138
4268	1.143312
4264	1.147770
4260	1.152324
4256	1.157760
4252	1.163125
4248	1.166963
4244	1.169300
4240	1.171374
4236	1.173424
4232	1.175594
4228	1.178121
4224	1.179552
4220	1.179981
4216	1.181244
4212	1.184749
4208	1.187920
4204	1.189780
4200	1.192498
4196	1.195001
4192	1.195025
4188	1.197719
4184	1.206254
4180	1.210856
4176	1.209211
4172	1.208257
4168	1.208424
4164	1.208138
4160	1.208281
4156	1.211333
4152	1.215434
4148	1.217651
4144	1.219248
4140	1.222038
4136	1.226687
4132	1.232051
4128	1.235747
4124	1.238012
4120	1.241898
4116	1.247048
4112	1.251554
4108	1.254820
4104	1.257848
4100	1.261973
4096	1.266288
4092	1.270985
4088	1.276159
4084	1.281261
4080	1.286268
4076	1.290941
4072	1.296567
4068	1.304292
4064	1.312708
4060	1.318693
4056	1.322698
4052	1.326727
4048	1.331210
4044	1.336860
4040	1.342844
4036	1.348209
4032	1.354002
4028	1.359891
4024	1.363086
4020	1.364088
4016	1.366710
4012	1.372408
4008	1.379108
4004	1.384210
4000	1.387000
3996	1.389312
3992	1.392340
3988	1.395988
3984	1.399517
3980	1.401519
3976	1.403284
3972	1.406145
3968	1.408433
3964	1.409697
3960	1.410770
3956	1.412010
3952	1.412820
3948	1.413178
3944	1.413917
3940	1.415538
3936	1.416754
3932	1.417756
3928	1.421403
3924	1.425695
3920	1.426768
3916	1.425981
3912	1.425075
3908	1.424241
3904	1.424384
3900	1.425933
3896	1.427817
3892	1.429462
3888	1.430988
3884	1.434135
3880	1.438999
3876	1.439523
3872	1.436400
3868	1.438403
3864	1.446056
3860	1.449680
3856	1.444888
3852	1.446962
3848	1.459193
3844	1.465702
3840	1.466774
3836	1.473093
3832	1.484036
3828	1.490163
3824	1.489019
3820	1.488542
3816	1.493716
3812	1.500010
3808	1.502895
3804	1.505398
3800	1.512241
3796	1.520943
3792	1.526212
3788	1.529884
3784	1.533913
3780	1.537561
3776	1.541709
3772	1.545858
3768	1.549077
3764	1.551485
3760	1.553249
3756	1.551723
3752	1.546072
3748	1.542878
3744	1.546597
3740	1.553797
3736	1.558065
3732	1.560330
3728	1.564192
3724	1.567959
3720	1.570582
3716	1.570534
3712	1.568627
3708	1.570105
3704	1.574659
3700	1.577305
3696	1.574540
3692	1.568222
3688	1.566195
3684	1.569271
3680	1.568412
3676	1.563286
3672	1.562881
3668	1.569652
3664	1.575851
3660	1.575183
3656	1.569986
3652	1.565766
3648	1.567721
3644	1.574301
3640	1.577830
3636	1.576590
3632	1.574301
3628	1.575994
3624	1.579451
3620	1.580548
3616	1.581788
3612	1.583385
3608	1.586294
3604	1.591014
3600	1.593422
3596	1.594877
3592	1.596784
3588	1.598548
3584	1.600980
3580	1.601982
3576	1.602625
3572	1.605033
3568	1.608204
3564	1.611852
3560	1.615357
3556	1.618480
3552	1.620292
3548	1.620960
3544	1.622724
3540	1.624584
3536	1.624274
3532	1.623320
3528	1.623582
3524	1.625227
3520	1.628255
3516	1.630210
3512	1.628708
3508	1.625418
3504	1.623058
3500	1.622796
3496	1.624155
3492	1.624393
3488	1.620697
3484	1.615405
3480	1.611781
3476	1.609802
3472	1.607847
3468	1.605081
3464	1.603865
3460	1.602625
3456	1.598811
3452	1.595711
3448	1.594209
3444	1.591801
3440	1.587724
3436	1.583981
3432	1.582860
3428	1.583313
3424	1.583242
3420	1.584219
3416	1.586818
3412	1.589131
3408	1.590991
3404	1.593089
3400	1.594972
3396	1.596975
3392	1.599860
3388	1.602840
3384	1.605987
3380	1.609325
3376	1.612973
3372	1.617527
3368	1.621723
3364	1.625990
3360	1.632142
3356	1.639437
3352	1.646637
3348	1.653432
3344	1.658463
3340	1.662135
3336	1.667475
3332	1.673889
3328	1.679468
3324	1.684951
3320	1.690459
3316	1.696658
3312	1.704478
3308	1.711988
3304	1.717853
3300	1.723051
3296	1.727271
3292	1.732516
3288	1.740074
3284	1.745676
3280	1.748991
3276	1.752829
3272	1.755833
3268	1.757836
3264	1.761102
3260	1.764011
3256	1.766037
3252	1.769948
3248	1.775169
3244	1.779985
3240	1.783299
3236	1.783013
3232	1.780438
3228	1.781725
3224	1.787066
3220	1.789760
3216	1.789307
3212	1.789546
3208	1.790428
3204	1.791596
3200	1.792097
3196	1.792907
3192	1.795125
3188	1.795339
3184	1.794123
3180	1.793575
3176	1.793408
3172	1.794052
3168	1.796746
3164	1.801443
3160	1.804876
3156	1.806092
3152	1.808714
3148	1.814055
3144	1.820755
3140	1.826190
3136	1.826953
3132	1.827812
3128	1.835465
3124	1.845622
3120	1.852035
3116	1.855111
3112	1.858782
3108	1.863503
3104	1.868200
3100	1.875066
3096	1.883172
3092	1.889610
3088	1.896643
3084	1.907014
3080	1.916790
3076	1.922559
3072	1.926589
3068	1.930928
3064	1.935839
3060	1.941967
3056	1.948714
3052	1.955318
3048	1.962661
3044	1.970195
3040	1.975393
3036	1.977491
3032	1.978230
3028	1.974511
3024	1.964926
3020	1.957988
3016	1.963734
3012	1.981997
3008	2.002954
3004	2.018475
3000	2.025651
2996	2.027344
2992	2.028822
2988	2.029395
2984	2.025198
2980	2.016472
2976	2.003717
2972	1.983404
2968	1.956892
2964	1.934623
2960	1.923370
2956	1.920104
2952	1.917099
2948	1.905965
2944	1.882243
2940	1.848411
2936	1.813864
2932	1.785635
2928	1.766824
2924	1.769232
2920	1.802349
2916	1.851820
2912	1.894283
2908	1.923179
2904	1.943969
2900	1.960778
2896	1.975178
2892	1.986575
2888	1.994919
2884	2.002048
2880	2.005934
2876	2.000975
2872	1.982593
2868	1.950955
2864	1.918029
2860	1.907682
2856	1.928758
2852	1.966071
2848	2.005195
2844	2.040553
2840	2.069115
2836	2.090668
2832	2.107095
2828	2.120447
2824	2.131247
2820	2.139639
2816	2.148699
2812	2.159118
2808	2.167463
2804	2.174067
2800	2.181553
2796	2.189397
2792	2.196335
2788	2.203536
2784	2.211904
2780	2.219581
2776	2.225327
2772	2.230381
2768	2.235364
2764	2.239704
2760	2.244544
2756	2.249288
2752	2.251410
2748	2.251935
2744	2.253103
2740	2.254748
2736	2.255892
2732	2.256417
2728	2.256631
2724	2.256250
2720	2.256345
2716	2.256131
2712	2.253317
2708	2.249479
2704	2.246856
2700	2.245640
2696	2.245020
2692	2.244257
2688	2.242708
2684	2.239370
2680	2.235531
2676	2.232217
2672	2.228593
2668	2.225351
2664	2.222466
2660	2.219128
2656	2.217245
2652	2.216482
2648	2.215981
2644	2.215933
2640	2.215361
2636	2.215170
2632	2.216386
2628	2.217340
2624	2.217006
2620	2.217364
2616	2.218198
2612	2.217936
2608	2.219080
2604	2.222418
2600	2.224779
2596	2.225828
2592	2.228426
2588	2.233624
2584	2.239322
2580	2.245664
2576	2.252936
2572	2.259397
2568	2.264833
2564	2.269935
2560	2.273893
2556	2.277255
2552	2.281332
2548	2.286911
2544	2.292799
2540	2.298235
2536	2.304387
2532	2.310657
2528	2.315807
2524	2.318477
2520	2.318263
2516	2.318549
2512	2.320432
2508	2.322411
2504	2.325844
2500	2.330064
2496	2.331471
2492	2.330780
2488	2.328872
2484	2.325129
2480	2.322053
2476	2.320718
2472	2.319478
2468	2.317070
2464	2.312803
2460	2.307748
2456	2.304029
2452	2.299904
2448	2.294373
2444	2.289676
2440	2.286124
2436	2.282500
2432	2.276563
2428	2.269172
2424	2.263450
2420	2.262568
2416	2.265024
2412	2.263832
2408	2.258205
2404	2.252292
2400	2.249264
2396	2.248597
2392	2.248430
2388	2.248620
2384	2.247357
2380	2.244687
2376	2.242326
2372	2.239441
2368	2.235722
2364	2.233815
2360	2.236294
2356	2.244329
2352	2.254748
2348	2.261829
2344	2.264237
2340	2.266383
2336	2.271056
2332	2.276921
2328	2.284431
2324	2.294087
2320	2.304649
2316	2.314209
2312	2.321004
2308	2.325797
2304	2.330470
2300	2.336597
2296	2.343297
2292	2.349090
2288	2.354240
2284	2.359771
2280	2.365803
2276	2.369642
2272	2.371406
2268	2.373933
2264	2.376890
2260	2.378654
2256	2.378320
2252	2.377009
2248	2.377104
2244	2.379179
2240	2.381157
2236	2.380394
2232	2.377915
2228	2.376437
2224	2.376627
2220	2.375364
2216	2.371716
2212	2.369284
2208	2.368021
2204	2.365612
2200	2.362370
2196	2.358508
2192	2.353787
2188	2.349925
2184	2.347373
2180	2.344632
2176	2.342033
2172	2.340221
2168	2.338385
2164	2.335119
2160	2.331495
2156	2.331495
2152	2.332735
2148	2.332615
2144	2.334308
2140	2.335047
2136	2.333593
2132	2.333569
2128	2.334642
2124	2.335834
2120	2.336859
2116	2.337884
2112	2.339863
2108	2.340698
2104	2.339315
2100	2.338314
2096	2.338528
2092	2.338814
2088	2.339792
2084	2.342796
2080	2.347326
2076	2.353334
2072	2.361392
2068	2.370905
2064	2.380251
2060	2.387285
2056	2.394008
2052	2.402472
2048	2.411198
2044	2.419257
2040	2.425956
2036	2.430772
2032	2.434444
2028	2.438640
2024	2.443766
2020	2.449417
2016	2.454280
2012	2.455735
2008	2.455949
2004	2.457213
2000	2.459287
1996	2.460765
1992	2.458548
1988	2.454900
1984	2.452254
1980	2.449393
1976	2.445673
1972	2.441501
1968	2.439618
1964	2.439379
1960	2.437019
1956	2.432441
1952	2.427315
1948	2.422690
1944	2.419042
1940	2.416610
1936	2.413320
1932	2.408790
1928	2.405261
1924	2.401137
1920	2.395224
1916	2.390575
1912	2.387189
1908	2.383852
1904	2.380561
1900	2.376222
1896	2.371740
1892	2.369165
1888	2.370882
1884	2.374267
1880	2.375340
1876	2.376461
1872	2.378416
1868	2.380919
1864	2.385115
1860	2.389645
1856	2.394080
1852	2.396607
1848	2.395820
1844	2.396941
1840	2.402901
1836	2.407121
1832	2.406620
1828	2.408409
1824	2.415728
1820	2.422451
1816	2.426242
1812	2.429485
1808	2.431464
1804	2.432298
1800	2.432823
1796	2.431488
1792	2.430009
1788	2.431631
1784	2.432680
1780	2.429938
1776	2.422380
1772	2.414321
1768	2.414011
1764	2.416515
1760	2.413058
1756	2.402091
1752	2.387714
1748	2.375459
1744	2.363228
1740	2.346611
1736	2.329874
1732	2.324175
1728	2.327704
1724	2.324533
1720	2.311921
1716	2.304482
1712	2.303910
1708	2.294659
1704	2.274012
1700	2.255344
1696	2.252888
1692	2.259302
1688	2.252531
1684	2.240395
1680	2.238273
1676	2.235364
1672	2.227044
1668	2.218151
1664	2.210950
1660	2.202057
1656	2.181816
1652	2.164125
1648	2.163028
1644	2.164554
1640	2.156472
1636	2.144241
1632	2.136826
1628	2.126431
1624	2.106070
1620	2.076411
1616	2.038788
1612	2.000188
1608	1.975131
1604	1.976561
1600	1.994776
1596	2.011275
1592	2.019286
1588	2.017688
1584	2.008509
1580	1.994132
1576	1.982307
1572	1.978969
1568	1.974701
1564	1.956295
1560	1.933908
1556	1.934504
1552	1.951861
1548	1.959228
1544	1.958918
1540	1.981854
1536	2.034974
1532	2.084994
1528	2.110266
1524	2.115583
1520	2.111649
1516	2.105426
1512	2.093529
1508	2.065920
1504	1.995563
1500	1.850295
1496	1.701569
1492	1.684427
1488	1.789879
1484	1.901364
1480	1.959776
1476	1.975774
1472	1.975488
1468	1.965260
1464	1.936769
1460	1.883459
1456	1.813673
1452	1.769471
1448	1.787567
1444	1.835179
1440	1.859951
1436	1.866078
1432	1.871204
1428	1.871514
1424	1.864767
1420	1.855373
1416	1.843309
1412	1.815247
1408	1.766371
1404	1.727390
1400	1.730895
1396	1.763391
1392	1.787304
1388	1.787352
1384	1.783871
1380	1.794672
1376	1.807355
1372	1.813721
1368	1.816320
1364	1.816248
1360	1.816344
1356	1.815724
1352	1.814436
1348	1.813840
1344	1.813626
1340	1.817393
1336	1.827669
1332	1.839017
1328	1.845550
1324	1.849174
1320	1.852989
1316	1.855015
1312	1.854324
1308	1.854085
1304	1.854419
1300	1.854157
1296	1.854443
1292	1.854825
1288	1.853656
1284	1.850843
1280	1.845312
1276	1.832246
1272	1.805210
1268	1.761960
1264	1.721382
1260	1.718640
1256	1.755762
1252	1.797628
1248	1.821517
1244	1.830410
1240	1.833295
1236	1.833915
1232	1.831293
1228	1.824164
1224	1.813673
1220	1.799464
1216	1.779627
1212	1.759529
1208	1.746916
1204	1.743221
1200	1.744341
1196	1.743960
1192	1.738977
1188	1.731204
1184	1.722097
1180	1.710677
1176	1.698493
1172	1.684975
1168	1.666831
1164	1.645541
1160	1.626205
1156	1.613545
1152	1.606512
1148	1.599216
1144	1.592135
1140	1.586842
1136	1.577377
1132	1.559948
1128	1.539158
1124	1.519227
1120	1.497483
1116	1.474976
1112	1.457595
1108	1.445627
1104	1.435923
1100	1.428103
1096	1.427531
1092	1.430821
1088	1.427960
1084	1.423525
1080	1.423501
1076	1.427221
1072	1.433777
1068	1.438212
1064	1.435208
1060	1.417374
1056	1.369237
1052	1.311683
1048	1.307916
1044	1.352715
1040	1.382398
1036	1.385235
1032	1.379823
1028	1.371407
1024	1.363921
1020	1.363253
1016	1.369166
1012	1.376581
1008	1.386070
1004	1.395106
1000	1.396751
996	 1.395487
992	 1.393985
988	 1.388669
984	 1.381826
980	 1.374530
976	 1.365566
972	 1.355886
968	 1.344585
964	 1.329946
960	 1.314067
956	 1.299500
952	 1.286220
948	 1.275324
944	 1.267576
940	 1.260948
936	 1.252484
932	 1.242208
928	 1.232123
924	 1.223182
920	 1.213717
916	 1.201128
912	 1.186013
908	 1.171541
904	 1.161193
900	 1.155877
896	 1.151323
892	 1.141476
888	 1.120233
884	 1.086163
880	 1.050782
876	 1.032209
872	 1.038718
868	 1.061010
864	 1.081395
860	 1.090860
856	 1.091432
852	 1.086449
848	 1.079535
844	 1.073026
840	 1.059865
836	 1.026630
832	 0.963139
828	 0.884699
824	 0.844812
820	 0.871229
816	 0.918984
812	 0.942730
808	 0.946331
804	 0.945043
800	 0.944876
796	 0.949811
792	 0.961160
788	 0.973343
784	 0.979781
780	 0.980281
776	 0.977158
772	 0.972533
768	 0.968670
764	 0.965428
760	 0.962996
756	 0.961470
752	 0.954389
748	 0.943803
744	 0.938391
740	 0.933122
736	 0.923800
732	 0.913786
728	 0.903797
724	 0.893449
720	 0.881385
716	 0.867199
712	 0.854706
708	 0.843048
704	 0.827670
700	 0.809311
696	 0.786995
692	 0.758051
688	 0.735235
684	 0.732231
680	 0.736498
676	 0.733208
672	 0.725173
668	 0.717353
664	 0.708913
660	 0.697588
656	 0.684952
652	 0.674557
648	 0.666522
644	 0.657892
640	 0.647044
636	 0.635671
632	 0.624346
628	 0.612688
624	 0.601363
620	 0.589442
616	 0.574350
612	 0.554919
608	 0.535297
604	 0.524425
600	 0.524115
596	 0.524830
592	 0.520706
588	 0.515437
584	 0.510978
580	 0.506567
576	 0.503301
572	 0.499963
568	 0.494313
564	 0.487089
560	 0.480055
556	 0.472950
552	 0.465917
548	 0.459241
544	 0.452947
540	 0.446534
536	 0.437879
532	 0.428223
528	 0.418567
524	 0.409126
520	 0.401854
516	 0.393486
512	 0.382232
508	 0.370883
504	 0.359439
500	 0.346636
496	 0.333428
492	 0.319671
488	 0.305247
484	 0.291848
480	 0.279235
476	 0.266408
472	 0.253725
468	 0.240564
464	 0.226831
460	 0.212645
456	 0.196337
452	 0.182509
448	 0.173568
444	 0.163102
440	 0.150728
436	 0.138759
432	 0.126147
428	 0.112342
424	 0.097751
420	 0.084495
416	 0.074744
412	 0.065207
408	 0.053715
404	 0.044751
400	 0.037288
396	 0.027441
392	 0.020742
388	 0.019145
384	 0.016283
380	 0.011253
376	 0.008678
372	 0.008106
370	 0.007486