File: Bakgrunnsmateriale/MATLAB/FTIR/ftir_data/subBb/Mapping_121/C-4040-8_t05_cm-1.asc
PE IR       SPECTRUM    SPECTRUM    ASCII       PEDS        1.60
  -1
C-99EE~1.ASC
17/03/27
14:54:02.00
17/03/27
14:54:02.00
tln
$C-4040-8_t0005$<tbV0>[2.6,-13.0,8.0,0.0,27,1,0]
370
64

2002,4.07
MIRTGS : RIGHTBACK : INTERNAL 2
MIR : ON : INTERNAL 2
OPTKBR

0.200000
8
8.000000
FILLER
RATIO
SPECTRUM
UNLOCKED 256

DOUBLE
64
COMBINED
1
0
0

1.000000
RATIO

1
0
TRUE
51149
0
LEFT NOT FITTED RIGHT NOT FITTED 0
NONE
NONE
15600
12
4.427000
51148
TRUE
1 0 8 72 0 0 0 0

15798

#HDR
-1
-1
#GR
CM-1
%T
2.38419e-05
0.0
5000
-1.000000
4631
8
70.4488
16.997
#DATA
5000	63.3142
4996	63.0594
4992	63.4084
4988	63.9702
4984	63.8811
4980	63.3456
4976	63.0172
4972	63.2367
4968	63.8256
4964	63.6536
4960	63.0137
4956	63.1671
4952	63.4072
4948	62.8952
4944	62.0211
4940	61.9417
4936	62.9945
4932	63.6849
4928	63.2622
4924	62.9793
4920	63.4508
4916	63.953
4912	64.3309
4908	64.6321
4904	64.6278
4900	64.3701
4896	63.955
4892	63.4674
4888	63.2759
4884	63.5391
4880	63.6254
4876	63.5205
4872	63.5288
4868	63.3477
4864	63.3821
4860	63.8132
4856	63.9899
4852	63.6693
4848	63.3507
4844	63.3687
4840	63.4878
4836	63.6286
4832	63.5431
4828	63.2228
4824	63.1753
4820	63.3507
4816	63.34
4812	63.2663
4808	63.2612
4804	63.1928
4800	63.0823
4796	62.9256
4792	63.0666
4788	63.5275
4784	63.7728
4780	63.8179
4776	63.7427
4772	63.5149
4768	63.2891
4764	63.0944
4760	62.9088
4756	62.9514
4752	63.292
4748	63.6243
4744	63.589
4740	63.3574
4736	63.2974
4732	63.1519
4728	62.9801
4724	63.0552
4720	63.1459
4716	63.2216
4712	63.3653
4708	63.4709
4704	63.4573
4700	63.3769
4696	63.4044
4692	63.4906
4688	63.413
4684	63.298
4680	63.3091
4676	63.3224
4672	63.2576
4668	63.12
4664	63.0658
4660	63.3055
4656	63.6065
4652	63.6935
4648	63.6903
4644	63.6594
4640	63.637
4636	63.667
4632	63.7449
4628	63.8982
4624	63.9617
4620	63.8781
4616	63.8345
4612	63.9818
4608	64.188
4604	64.09
4600	63.8542
4596	63.7457
4592	63.6695
4588	63.8641
4584	64.1421
4580	64.1234
4576	64.0206
4572	63.8913
4568	63.7303
4564	63.6414
4560	63.6758
4556	63.756
4552	63.7911
4548	63.8482
4544	63.7525
4540	63.6364
4536	63.7911
4532	63.9683
4528	64.0646
4524	63.9757
4520	63.7574
4516	63.5968
4512	63.4447
4508	63.4246
4504	63.6963
4500	63.9612
4496	63.9555
4492	63.7238
4488	63.5541
4484	63.4763
4480	63.8377
4476	64.2377
4472	64.1748
4468	64.2963
4464	64.4061
4460	64.4539
4456	65.0048
4452	67.2628
4448	69.9923
4444	70.0637
4440	67.2169
4436	63.4064
4432	62.0596
4428	63.0427
4424	63.8055
4420	63.48
4416	61.9397
4412	59.9479
4408	58.082
4404	55.5576
4400	52.433
4396	53.7649
4392	59.2633
4388	62.2176
4384	63.3476
4380	64.7074
4376	65.4197
4372	65.6298
4368	65.3149
4364	64.6177
4360	64.2967
4356	64.4069
4352	64.3574
4348	64.2359
4344	64.2225
4340	64.0606
4336	63.8517
4332	63.7552
4328	63.7467
4324	63.9051
4320	64.0516
4316	63.8842
4312	63.6072
4308	63.4977
4304	63.4866
4300	63.4687
4296	63.5009
4292	63.5523
4288	63.4309
4284	63.3833
4280	63.6569
4276	63.8669
4272	63.7931
4268	63.6362
4264	63.6535
4260	63.6601
4256	63.3819
4252	63.2055
4248	63.272
4244	63.3099
4240	63.4166
4236	63.581
4232	63.467
4228	63.1148
4224	63.024
4220	63.2602
4216	63.4047
4212	63.434
4208	63.5562
4204	63.57
4200	63.3454
4196	63.3004
4192	63.3251
4188	63.134
4184	62.9989
4180	62.9336
4176	62.7938
4172	62.4591
4168	62.2797
4164	62.5275
4160	62.7587
4156	62.7891
4152	62.7532
4148	62.789
4144	62.859
4140	62.9307
4136	63.1601
4132	63.3675
4128	63.2927
4124	63.1578
4120	63.1122
4116	63.1339
4112	63.1435
4108	63.0889
4104	63.0859
4100	63.0004
4096	62.9487
4092	63.1957
4088	63.4503
4084	63.5017
4080	63.4372
4076	63.2491
4072	62.9943
4068	62.8819
4064	62.9714
4060	63.1413
4056	63.305
4052	63.3163
4048	63.1806
4044	63.2101
4040	63.3676
4036	63.4345
4032	63.3739
4028	63.2344
4024	63.2333
4020	63.3103
4016	63.2513
4012	63.1934
4008	63.2491
4004	63.2749
4000	63.2234
3996	63.1396
3992	63.0197
3988	62.8899
3984	62.777
3980	62.7084
3976	62.7833
3972	63.0433
3968	63.2687
3964	63.2669
3960	63.189
3956	63.2215
3952	63.2226
3948	63.1908
3944	63.2418
3940	63.175
3936	63.0064
3932	62.9685
3928	63.109
3924	63.215
3920	63.0864
3916	63.0191
3912	63.163
3908	63.317
3904	63.3873
3900	63.2806
3896	63.1361
3892	63.0565
3888	62.9135
3884	62.77
3880	62.7214
3876	62.8125
3872	63.0458
3868	63.2106
3864	63.2353
3860	63.3174
3856	63.4975
3852	63.4746
3848	63.2159
3844	63.0526
3840	63.0288
3836	63.0286
3832	62.9326
3828	62.7748
3824	62.6958
3820	62.6917
3816	62.6994
3812	62.8388
3808	63.1075
3804	63.1894
3800	63.0382
3796	62.8289
3792	62.7196
3788	62.7732
3784	62.8237
3780	62.7263
3776	62.5955
3772	62.6227
3768	62.7421
3764	62.8244
3760	62.8806
3756	62.9664
3752	63.0463
3748	63.0785
3744	63.1221
3740	63.1528
3736	63.186
3732	63.1361
3728	62.9444
3724	62.8317
3720	62.8488
3716	62.9389
3712	62.9349
3708	62.7362
3704	62.6294
3700	62.6105
3696	62.5677
3692	62.7017
3688	62.8408
3684	62.7494
3680	62.6916
3676	62.7573
3672	62.7395
3668	62.6078
3664	62.5351
3660	62.6112
3656	62.7192
3652	62.7959
3648	62.6407
3644	62.2883
3640	62.2353
3636	62.4448
3632	62.5668
3628	62.5555
3624	62.513
3620	62.549
3616	62.6127
3612	62.6177
3608	62.5959
3604	62.5643
3600	62.4997
3596	62.4112
3592	62.41
3588	62.4631
3584	62.4335
3580	62.3661
3576	62.2982
3572	62.2991
3568	62.3601
3564	62.4151
3560	62.4495
3556	62.368
3552	62.2332
3548	62.193
3544	62.2021
3540	62.2218
3536	62.2582
3532	62.2576
3528	62.164
3524	62.0897
3520	62.0715
3516	62.0323
3512	62.0187
3508	62.0478
3504	62.0946
3500	62.0918
3496	62.1068
3492	62.1663
3488	62.1022
3484	62.0389
3480	62.0319
3476	62.0049
3472	62.0302
3468	62.0591
3464	62.0507
3460	62.0314
3456	62.061
3452	62.1322
3448	62.1436
3444	62.0603
3440	61.9857
3436	61.9287
3432	61.7707
3428	61.6533
3424	61.6485
3420	61.6969
3416	61.7971
3412	61.8839
3408	61.8752
3404	61.7837
3400	61.7263
3396	61.6925
3392	61.6921
3388	61.7556
3384	61.8281
3380	61.9061
3376	61.8831
3372	61.7491
3368	61.6769
3364	61.6732
3360	61.6801
3356	61.6852
3352	61.6587
3348	61.6416
3344	61.6994
3340	61.7327
3336	61.6587
3332	61.5634
3328	61.482
3324	61.3676
3320	61.2856
3316	61.3593
3312	61.4898
3308	61.5061
3304	61.4172
3300	61.3518
3296	61.3862
3292	61.405
3288	61.3321
3284	61.2791
3280	61.3315
3276	61.4139
3272	61.3975
3268	61.2997
3264	61.2321
3260	61.2199
3256	61.2378
3252	61.2988
3248	61.3461
3244	61.2365
3240	61.0609
3236	61.0283
3232	61.0423
3228	61.0027
3224	61.065
3220	61.2307
3216	61.2833
3212	61.2484
3208	61.2679
3204	61.2534
3200	61.1021
3196	60.9294
3192	60.893
3188	60.9312
3184	60.9494
3180	60.9807
3176	60.9484
3172	60.8208
3168	60.7945
3164	60.8478
3160	60.864
3156	60.9167
3152	60.9735
3148	60.9799
3144	60.8744
3140	60.707
3136	60.7256
3132	60.7739
3128	60.7343
3124	60.8354
3120	60.9666
3116	60.9283
3112	60.7792
3108	60.6501
3104	60.5786
3100	60.6102
3096	60.716
3092	60.74
3088	60.7228
3084	60.6843
3080	60.657
3076	60.7158
3072	60.7056
3068	60.6455
3064	60.662
3060	60.6884
3056	60.6798
3052	60.6649
3048	60.6
3044	60.4646
3040	60.4223
3036	60.4868
3032	60.4482
3028	60.3617
3024	60.4353
3020	60.5546
3016	60.5401
3012	60.4545
3008	60.3687
3004	60.2905
3000	60.3072
2996	60.3975
2992	60.3703
2988	60.2686
2984	60.2311
2980	60.2237
2976	60.17
2972	60.0958
2968	60.0999
2964	60.1181
2960	60.0627
2956	59.9647
2952	59.8762
2948	59.8711
2944	59.9902
2940	60.0931
2936	60.0257
2932	59.9608
2928	60.0033
2924	59.9362
2920	59.8033
2916	59.7785
2912	59.76
2908	59.6952
2904	59.6582
2900	59.6866
2896	59.7313
2892	59.714
2888	59.6793
2884	59.6653
2880	59.6414
2876	59.6446
2872	59.688
2868	59.6959
2864	59.6584
2860	59.6231
2856	59.6057
2852	59.5469
2848	59.4795
2844	59.5573
2840	59.6407
2836	59.601
2832	59.5626
2828	59.5284
2824	59.5294
2820	59.5752
2816	59.5305
2812	59.4201
2808	59.366
2804	59.3848
2800	59.444
2796	59.4281
2792	59.3377
2788	59.2943
2784	59.2975
2780	59.2668
2776	59.1789
2772	59.0949
2768	59.0867
2764	59.1096
2760	59.1136
2756	59.1238
2752	59.1192
2748	59.0995
2744	59.0683
2740	59.0417
2736	59.0516
2732	59.0324
2728	58.9987
2724	58.9969
2720	58.9516
2716	58.8711
2712	58.8039
2708	58.7468
2704	58.7369
2700	58.8344
2696	58.9887
2692	59.0038
2688	58.8865
2684	58.7916
2680	58.7273
2676	58.7025
2672	58.6727
2668	58.5803
2664	58.5314
2660	58.5503
2656	58.5539
2652	58.5253
2648	58.4779
2644	58.4734
2640	58.52
2636	58.5053
2632	58.4646
2628	58.4713
2624	58.4342
2620	58.3306
2616	58.2685
2612	58.2809
2608	58.2705
2604	58.2272
2600	58.1669
2596	58.102
2592	58.0889
2588	58.1132
2584	58.1485
2580	58.139
2576	58.1071
2572	58.0888
2568	58.0138
2564	57.9094
2560	57.8863
2556	57.9588
2552	58.0167
2548	58.0154
2544	57.9898
2540	57.9449
2536	57.8849
2532	57.8512
2528	57.8251
2524	57.796
2520	57.7768
2516	57.7649
2512	57.7944
2508	57.7683
2504	57.7239
2500	57.7311
2496	57.6418
2492	57.5358
2488	57.4776
2484	57.4428
2480	57.4907
2476	57.538
2472	57.5426
2468	57.5318
2464	57.4904
2460	57.4217
2456	57.337
2452	57.3057
2448	57.3372
2444	57.3249
2440	57.3072
2436	57.2878
2432	57.2135
2428	57.092
2424	56.8843
2420	56.7599
2416	56.8157
2412	56.8411
2408	56.8002
2404	56.8779
2400	57.0237
2396	57.0746
2392	57.0435
2388	56.9914
2384	56.9921
2380	57.019
2376	56.992
2372	56.9299
2368	56.8869
2364	56.8641
2360	56.7906
2356	56.7035
2352	56.7138
2348	56.7437
2344	56.7018
2340	56.6702
2336	56.6718
2332	56.6539
2328	56.5837
2324	56.504
2320	56.4694
2316	56.4687
2312	56.4982
2308	56.5209
2304	56.5318
2300	56.5063
2296	56.3987
2292	56.2685
2288	56.1975
2284	56.174
2280	56.1526
2276	56.1423
2272	56.1705
2268	56.2333
2264	56.2502
2260	56.1659
2256	56.0768
2252	56.0381
2248	55.9971
2244	55.974
2240	55.994
2236	55.9978
2232	55.9366
2228	55.8532
2224	55.8026
2220	55.7916
2216	55.8164
2212	55.867
2208	55.8655
2204	55.7402
2200	55.6209
2196	55.6122
2192	55.6321
2188	55.62
2184	55.6215
2180	55.6354
2176	55.5933
2172	55.5207
2168	55.4762
2164	55.4519
2160	55.4234
2156	55.386
2152	55.378
2148	55.4342
2144	55.4766
2140	55.477
2136	55.4187
2132	55.3066
2128	55.2455
2124	55.1864
2120	55.1468
2116	55.198
2112	55.2133
2108	55.154
2104	55.1203
2100	55.1027
2096	55.0215
2092	54.9594
2088	55.0483
2084	55.1553
2080	55.127
2076	54.9966
2072	54.8438
2068	54.7591
2064	54.7131
2060	54.6676
2056	54.6441
2052	54.6395
2048	54.692
2044	54.7743
2040	54.7966
2036	54.7345
2032	54.6152
2028	54.478
2024	54.3836
2020	54.3188
2016	54.288
2012	54.3431
2008	54.3896
2004	54.3766
2000	54.4033
1996	54.4384
1992	54.3747
1988	54.2654
1984	54.1997
1980	54.1619
1976	54.0926
1972	54.0315
1968	54.0344
1964	54.0528
1960	54.0583
1956	54.0305
1952	53.9665
1948	53.9234
1944	53.8732
1940	53.7779
1936	53.7375
1932	53.7791
1928	53.7922
1924	53.7733
1920	53.7648
1916	53.76
1912	53.7662
1908	53.7131
1904	53.6173
1900	53.6147
1896	53.6587
1892	53.6338
1888	53.5334
1884	53.4312
1880	53.3981
1876	53.3973
1872	53.3462
1868	53.3005
1864	53.3229
1860	53.322
1856	53.2856
1852	53.2616
1848	53.2479
1844	53.231
1840	53.1569
1836	53.0765
1832	53.0874
1828	53.1182
1824	53.0912
1820	53.0394
1816	53.014
1812	52.9774
1808	52.8946
1804	52.8623
1800	52.8855
1796	52.9148
1792	52.9111
1788	52.8252
1784	52.738
1780	52.6623
1776	52.6104
1772	52.6132
1768	52.5835
1764	52.5822
1760	52.6107
1756	52.5842
1752	52.5587
1748	52.5146
1744	52.4339
1740	52.4027
1736	52.4068
1732	52.3631
1728	52.3149
1724	52.3045
1720	52.3077
1716	52.2661
1712	52.1606
1708	52.0909
1704	52.1801
1700	52.3213
1696	52.2289
1692	52.0557
1688	52.0935
1684	52.1331
1680	52.0336
1676	51.9935
1672	51.9762
1668	51.863
1664	51.7783
1660	51.858
1656	52.0499
1652	52.1018
1648	51.9588
1644	51.7809
1640	51.6622
1636	51.6192
1632	51.534
1628	51.4376
1624	51.4153
1620	51.4165
1616	51.4346
1612	51.4171
1608	51.375
1604	51.3251
1600	51.2048
1596	51.0885
1592	51.0831
1588	51.1598
1584	51.1883
1580	51.2105
1576	51.2072
1572	51.0701
1568	50.9717
1564	51.0643
1560	51.1838
1556	51.116
1552	50.9782
1548	50.9688
1544	51.092
1540	51.1249
1536	50.9751
1532	50.8463
1528	50.8056
1524	50.8222
1520	50.8461
1516	50.7533
1512	50.696
1508	50.7951
1504	50.7778
1500	50.6312
1496	50.544
1492	50.4903
1488	50.4029
1484	50.3181
1480	50.3184
1476	50.3519
1472	50.3114
1468	50.269
1464	50.2829
1460	50.2776
1456	50.1717
1452	50.0092
1448	49.9536
1444	49.9164
1440	49.8826
1436	49.9281
1432	49.8225
1428	49.6713
1424	49.7897
1420	49.9405
1416	49.8496
1412	49.6894
1408	49.6086
1404	49.5681
1400	49.5375
1396	49.5357
1392	49.5597
1388	49.5608
1384	49.5167
1380	49.4297
1376	49.3096
1372	49.2207
1368	49.2108
1364	49.2376
1360	49.2061
1356	49.1323
1352	49.105
1348	49.0819
1344	49.0298
1340	48.9751
1336	48.9363
1332	48.9206
1328	48.9064
1324	48.9053
1320	48.9482
1316	48.9284
1312	48.786
1308	48.6895
1304	48.6885
1300	48.685
1296	48.6576
1292	48.6061
1288	48.5491
1284	48.492
1280	48.44
1276	48.4191
1272	48.4259
1268	48.4297
1264	48.3955
1260	48.3444
1256	48.3215
1252	48.3097
1248	48.3234
1244	48.2967
1240	48.1497
1236	48.0815
1232	48.1432
1228	48.1556
1224	48.1367
1220	48.0873
1216	48.0032
1212	47.9549
1208	47.9168
1204	47.8674
1200	47.8367
1196	47.8187
1192	47.79
1188	47.7238
1184	47.6282
1180	47.5666
1176	47.5039
1172	47.4303
1168	47.4473
1164	47.5139
1160	47.5184
1156	47.4481
1152	47.3819
1148	47.3738
1144	47.3318
1140	47.2497
1136	47.2511
1132	47.3123
1128	47.2726
1124	47.1328
1120	47.0292
1116	46.9781
1112	46.9087
1108	46.8677
1104	46.9215
1100	46.9536
1096	46.9818
1092	47.0084
1088	46.9398
1084	46.8663
1080	46.7489
1076	46.6266
1072	46.658
1068	46.7239
1064	46.669
1060	46.5519
1056	46.4927
1052	46.5013
1048	46.5543
1044	46.628
1040	46.6266
1036	46.4718
1032	46.3159
1028	46.3266
1024	46.3442
1020	46.2769
1016	46.2454
1012	46.2195
1008	46.142
1004	46.1108
1000	46.1032
996	 46.0084
992	 45.9112
988	 45.8804
984	 45.8793
980	 45.8228
976	 45.6643
972	 45.5655
968	 45.584
964	 45.5974
960	 45.5489
956	 45.4364
952	 45.3144
948	 45.2185
944	 45.231
940	 45.3098
936	 45.3372
932	 45.3181
928	 45.1823
924	 45.0835
920	 45.1207
916	 45.0705
912	 44.9015
908	 44.7902
904	 44.7576
900	 44.6448
896	 44.5601
892	 44.5955
888	 44.6259
884	 44.6828
880	 44.6784
876	 44.5071
872	 44.3115
868	 44.0909
864	 43.8867
860	 44.0451
856	 44.456
852	 44.5797
848	 44.3703
844	 44.1132
840	 43.8862
836	 43.7259
832	 43.7209
828	 43.9468
824	 44.2236
820	 44.2329
816	 44.0396
812	 43.7442
808	 43.4941
804	 43.5678
800	 43.7296
796	 43.4462
792	 43.0305
788	 43.1617
784	 43.627
780	 43.7347
776	 43.5529
772	 43.539
768	 43.5165
764	 43.1493
760	 42.6939
756	 42.5879
752	 42.7415
748	 42.9057
744	 42.9248
740	 42.676
736	 42.3042
732	 42.2062
728	 42.3367
724	 42.2813
720	 42.1692
716	 42.1493
712	 42.0793
708	 41.9363
704	 41.7552
700	 41.7496
696	 41.8786
692	 41.8052
688	 41.608
684	 41.3757
680	 41.0577
676	 40.8241
672	 40.8375
668	 40.9643
664	 41.0806
660	 41.3174
656	 41.3992
652	 41.1317
648	 40.9113
644	 40.7785
640	 40.4982
636	 40.3849
632	 40.5347
628	 40.4961
624	 40.3396
620	 40.2229
616	 40.1035
612	 40.0609
608	 39.9677
604	 39.6989
600	 39.4717
596	 39.4093
592	 39.2982
588	 39.0836
584	 38.7709
580	 38.5408
576	 38.5372
572	 38.4457
568	 38.394
564	 38.5439
560	 38.3761
556	 37.8544
552	 37.5809
548	 37.6732
544	 37.8092
540	 37.8093
536	 37.7438
532	 37.8289
528	 37.7568
524	 37.0624
520	 36.2788
516	 35.9742
512	 36.0205
508	 35.9978
504	 35.9079
500	 36.3201
496	 36.5402
492	 35.5778
488	 34.3417
484	 34.2757
480	 35.2268
476	 35.7541
472	 35.1802
468	 34.3219
464	 33.786
460	 33.3442
456	 33.8337
452	 34.7141
448	 34.6198
444	 34.0547
440	 33.3474
436	 33.1
432	 32.7023
428	 32.8301
424	 35.1204
420	 35.8529
416	 32.8183
412	 29.0509
408	 26.3823
404	 24.2078
400	 20.0377
396	 16.997
392	 21.1794
388	 32.6933
384	 47.748
380	 52.6811
376	 39.7163
372	 26.6265
370	 30.4032