File: Bakgrunnsmateriale/MATLAB/FTIR/ftir_data/subBb/Mapping_121/C-4040-8_e127.asc
PE IR       SPECTRUM    SPECTRUM    ASCII       PEDS        1.60
  -1
C-78D3~1.ASC
17/03/27
23:34:24.00
17/03/27
23:34:51.00
tln
$C-4040-8_e0127$<ebV0>[-23.3,12.1,10.0,0.0,27,1,0]
27.028
64

2002,4.07
MIRTGS : RIGHTBACK : INTERNAL 2
MIR : ON : INTERNAL 2
OPTKBR

0.200000
8
8.000000
FILLER
SINGLE
SPECTRUM
UNLOCKED 256

DOUBLE

COMBINED
1
0
0

0.002000
BACKG

1
0
TRUE
51149
0
LEFT NOT FITTED RIGHT NOT FITTED 0
NONE
NONE
15600
12
4.427000
51148
TRUE
1 0 8 72 0 0 0 0

15798

#HDR
-1
-1
#GR
µM
EGY
2.38419e-05
0.0
2.000000
0.002000
12515
8
2.459777
0.008606
#DATA
2.000000	 0.766658
2.018000	 0.786495
2.036000	 0.798066
2.054000	 0.823206
2.072000	 0.849326
2.090000	 0.873598
2.108000	 0.891247
2.126000	 0.902575
2.144000	 0.908015
2.162000	 0.921972
2.180000	 0.941965
2.198000	 0.960739
2.216000	 0.986321
2.234000	 0.994195
2.252000	 0.992354
2.270000	 0.985192
2.288000	 1.021616
2.306000	 1.067342
2.324000	 1.105561
2.342000	 1.143945
2.360000	 1.169816
2.378000	 1.184431
2.396000	 1.201711
2.414000	 1.223937
2.432000	 1.250956
2.450000	 1.282776
2.468000	 1.326847
2.486000	 1.365648
2.504000	 1.390182
2.522000	 1.406152
2.540000	 1.416563
2.558000	 1.425775
2.576000	 1.431632
2.594000	 1.442789
2.612000	 1.485381
2.630000	 1.506764
2.648000	 1.539344
2.666000	 1.543742
2.684000	 1.567279
2.702000	 1.572800
2.720000	 1.563445
2.738000	 1.568148
2.756000	 1.572766
2.774000	 1.585636
2.792000	 1.604691
2.810000	 1.613134
2.828000	 1.622382
2.846000	 1.626822
2.864000	 1.618264
2.882000	 1.606860
2.900000	 1.594520
2.918000	 1.582408
2.936000	 1.590922
2.954000	 1.605704
2.972000	 1.624295
2.990000	 1.656606
3.008000	 1.686498
3.026000	 1.717853
3.044000	 1.738410
3.062000	 1.760942
3.080000	 1.777364
3.098000	 1.785277
3.116000	 1.788772
3.134000	 1.792942
3.152000	 1.796832
3.170000	 1.807208
3.188000	 1.826531
3.206000	 1.843840
3.224000	 1.870378
3.242000	 1.904653
3.260000	 1.930724
3.278000	 1.960034
3.296000	 1.971775
3.314000	 1.958444
3.332000	 2.018810
3.350000	 2.022996
3.368000	 1.964448
3.386000	 1.919787
3.404000	 1.828663
3.422000	 1.779828
3.440000	 1.930354
3.458000	 1.985512
3.476000	 2.001158
3.494000	 1.909000
3.512000	 2.010807
3.530000	 2.102093
3.548000	 2.145225
3.566000	 2.172271
3.584000	 2.197706
3.602000	 2.226847
3.620000	 2.240738
3.638000	 2.251636
3.656000	 2.256720
3.674000	 2.254583
3.692000	 2.247990
3.710000	 2.240262
3.728000	 2.233997
3.746000	 2.226290
3.764000	 2.220721
3.782000	 2.215347
3.800000	 2.218357
3.818000	 2.219670
3.836000	 2.220745
3.854000	 2.226649
3.872000	 2.242292
3.890000	 2.260357
3.908000	 2.274828
3.926000	 2.287867
3.944000	 2.301749
3.962000	 2.312122
3.980000	 2.322287
3.998000	 2.325295
4.016000	 2.326753
4.034000	 2.318957
4.052000	 2.313811
4.070000	 2.302648
4.088000	 2.293241
4.106000	 2.279573
4.124000	 2.278556
4.141999	 2.257297
4.160000	 2.253604
4.178000	 2.250074
4.196000	 2.243462
4.214000	 2.237863
4.232000	 2.232160
4.250000	 2.251182
4.268000	 2.262121
4.286000	 2.273205
4.304000	 2.293571
4.322000	 2.315034
4.340000	 2.329301
4.358000	 2.345292
4.375999	 2.357803
4.394000	 2.367451
4.412000	 2.371929
4.430000	 2.379482
4.448000	 2.379811
4.466000	 2.382870
4.484000	 2.381791
4.502000	 2.376829
4.520000	 2.368110
4.538000	 2.358257
4.556000	 2.352626
4.574000	 2.347270
4.592000	 2.340583
4.609999	 2.335552
4.628000	 2.333379
4.646000	 2.333852
4.664000	 2.334047
4.682000	 2.335172
4.700000	 2.335335
4.718000	 2.336237
4.736000	 2.337847
4.754000	 2.337379
4.772000	 2.337645
4.790000	 2.340233
4.808000	 2.353461
4.826000	 2.354132
4.843999	 2.356189
4.862000	 2.389145
4.880000	 2.409527
4.898000	 2.422888
4.916000	 2.431252
4.934000	 2.438666
4.952000	 2.446005
4.970000	 2.451751
4.988000	 2.455845
5.006000	 2.459697
5.024000	 2.456724
5.042000	 2.450055
5.060000	 2.444646
5.077999	 2.441265
5.096000	 2.434681
5.114000	 2.428863
5.132000	 2.423509
5.150000	 2.419564
5.168000	 2.415665
5.186000	 2.406711
5.204000	 2.396011
5.222000	 2.388139
5.240000	 2.382325
5.258000	 2.378589
5.276000	 2.373994
5.294000	 2.372562
5.312000	 2.374708
5.330000	 2.377231
5.348000	 2.381087
5.366000	 2.388710
5.384000	 2.392233
5.402000	 2.393512
5.420000	 2.395111
5.438000	 2.405794
5.456000	 2.408644
5.474000	 2.410773
5.492000	 2.419800
5.510000	 2.428656
5.528000	 2.435293
5.546000	 2.433992
5.564000	 2.430415
5.582000	 2.431821
5.600000	 2.433822
5.618000	 2.428973
5.636000	 2.417065
5.654000	 2.414372
5.672000	 2.414884
5.690000	 2.405825
5.708000	 2.387871
5.726000	 2.371972
5.744000	 2.353204
5.762000	 2.332575
5.780000	 2.330768
5.798000	 2.326486
5.816000	 2.307304
5.834000	 2.298564
5.852000	 2.294602
5.870000	 2.274933
5.888000	 2.256040
5.906000	 2.258427
5.923999	 2.253005
5.942000	 2.241731
5.960000	 2.239459
5.978000	 2.229596
5.996000	 2.222114
6.014000	 2.215037
6.032000	 2.194412
6.050000	 2.167625
6.068000	 2.164373
6.086000	 2.165049
6.104000	 2.149583
6.122000	 2.136338
6.140000	 2.128357
6.158000	 2.106528
6.176000	 2.070880
6.194000	 2.024579
6.212000	 1.982891
6.230000	 1.974182
6.248000	 1.992231
6.266000	 2.008861
6.284000	 2.016529
6.302000	 2.014214
6.320000	 2.004287
6.338000	 1.992190
6.356000	 1.986298
6.374000	 1.979929
6.392000	 1.959719
6.410000	 1.934057
6.428000	 1.935872
6.446000	 1.954855
6.464000	 1.959100
6.482000	 1.962623
6.500000	 1.998513
6.518000	 2.054991
6.536000	 2.095540
6.554000	 2.111379
6.572000	 2.112753
6.590000	 2.109257
6.608000	 2.098664
6.626000	 2.075042
6.644000	 2.020861
6.662000	 1.893901
6.680000	 1.730327
6.698000	 1.672943
6.716000	 1.758277
6.734000	 1.876436
6.752000	 1.947484
6.770000	 1.971264
6.788000	 1.973590
6.806000	 1.966779
6.824000	 1.947077
6.842000	 1.905310
6.860000	 1.837758
6.878000	 1.774323
6.896000	 1.763957
6.914000	 1.805646
6.932000	 1.847285
6.950000	 1.863154
6.968000	 1.867161
6.986000	 1.868494
7.004000	 1.867106
7.022000	 1.862822
7.040000	 1.855675
7.058000	 1.846635
7.076000	 1.827824
7.094000	 1.788792
7.112000	 1.743345
7.130000	 1.723362
7.148000	 1.738603
7.166000	 1.768111
7.184000	 1.787162
7.202000	 1.788097
7.220000	 1.784670
7.238000	 1.791621
7.256000	 1.803856
7.274000	 1.811368
7.292000	 1.815091
7.310000	 1.817086
7.328000	 1.816992
7.346000	 1.816453
7.364000	 1.816316
7.382000	 1.815700
7.400000	 1.814688
7.418000	 1.814248
7.436000	 1.814605
7.454000	 1.816416
7.472000	 1.821554
7.490000	 1.829496
7.508000	 1.837251
7.526000	 1.843205
7.544000	 1.847605
7.562000	 1.850336
7.580000	 1.851731
7.598000	 1.853178
7.616000	 1.854719
7.634000	 1.855326
7.652000	 1.855230
7.670000	 1.855558
7.688000	 1.856320
7.706000	 1.857046
7.724000	 1.857854
7.742000	 1.858660
7.760000	 1.858616
7.778000	 1.856536
7.796000	 1.851986
7.814000	 1.845091
7.832000	 1.834996
7.850000	 1.819403
7.868000	 1.795534
7.886000	 1.764068
7.904000	 1.733424
7.922000	 1.717379
7.940000	 1.724565
7.958000	 1.750495
7.976000	 1.781485
7.994000	 1.806321
8.012000	 1.822040
8.030000	 1.830651
8.048000	 1.834490
8.065999	 1.835285
8.084000	 1.834209
8.102000	 1.831817
8.120000	 1.828297
8.138000	 1.823834
8.155999	 1.818209
8.173999	 1.810559
8.192000	 1.800355
8.210000	 1.787867
8.228000	 1.774267
8.246000	 1.761638
8.263999	 1.751883
8.282000	 1.746198
8.300000	 1.744198
8.318000	 1.744385
8.336000	 1.744810
8.353999	 1.743934
8.372000	 1.741333
8.390000	 1.737309
8.408000	 1.732102
8.426000	 1.725643
8.443999	 1.718665
8.462000	 1.712172
8.480000	 1.706336
8.498000	 1.700272
8.516000	 1.692874
8.533999	 1.683448
8.552000	 1.672185
8.570000	 1.659953
8.588000	 1.647646
8.606000	 1.636251
8.624000	 1.626858
8.641999	 1.619997
8.660000	 1.615320
8.678000	 1.611705
8.696000	 1.608009
8.714000	 1.603572
8.731999	 1.598197
8.750000	 1.591973
8.768000	 1.585065
8.786000	 1.577619
8.804000	 1.569633
8.821999	 1.561073
8.840000	 1.552125
8.858000	 1.542769
8.876000	 1.532833
8.894000	 1.521934
8.911999	 1.510021
8.930000	 1.497341
8.948000	 1.484298
8.966000	 1.471353
8.984000	 1.459024
9.001999	 1.447930
9.020000	 1.438626
9.038000	 1.431382
9.056000	 1.426331
9.074000	 1.423403
9.092000	 1.422308
9.109999	 1.422435
9.128000	 1.423096
9.146000	 1.423867
9.164000	 1.424713
9.182000	 1.425721
9.199999	 1.426861
9.218000	 1.427734
9.236000	 1.427786
9.254000	 1.427232
9.272000	 1.426489
9.289999	 1.426442
9.308000	 1.427533
9.326000	 1.429642
9.344000	 1.432211
9.362000	 1.434625
9.379999	 1.436323
9.398000	 1.436486
9.416000	 1.432919
9.434000	 1.422468
9.452000	 1.402138
9.469999	 1.372457
9.488000	 1.339183
9.506000	 1.312108
9.524000	 1.300063
9.542000	 1.305829
9.560000	 1.324774
9.577999	 1.347994
9.596000	 1.367425
9.614000	 1.379360
9.632000	 1.384284
9.650000	 1.384539
9.667999	 1.382539
9.686000	 1.379606
9.704000	 1.376322
9.722000	 1.372758
9.740000	 1.369124
9.757999	 1.365538
9.776000	 1.362570
9.794000	 1.360930
9.812000	 1.361135
9.830000	 1.363361
9.847999	 1.367198
9.866000	 1.372026
9.884000	 1.377195
9.902000	 1.382245
9.920000	 1.386938
9.937999	 1.391174
9.956000	 1.394936
9.974000	 1.398107
9.992000	 1.400557
10.01	1.401996
10.028	1.402103
10.046	1.400716
10.064	1.398036
10.082	1.394570
10.1	1.390920
10.118	1.387455
10.136	1.384377
10.154	1.381672
10.172	1.379142
10.19	1.376624
10.208	1.373814
10.226	1.370532
10.244	1.366670
10.262	1.362390
10.28	1.357728
10.298	1.352874
10.316	1.347780
10.334	1.342386
10.352	1.336611
10.37	1.330514
10.388	1.324288
10.406	1.318038
10.424	1.311999
10.442	1.306051
10.46	1.300248
10.478	1.294476
10.496	1.288895
10.514	1.283638
10.532	1.278756
10.55	1.274391
10.568	1.270578
10.586	1.267336
10.604	1.264635
10.622	1.262258
10.64	1.259903
10.658	1.257203
10.676	1.253911
10.694	1.249994
10.712	1.245658
10.73	1.241183
10.748	1.236874
10.766	1.232853
10.784	1.229295
10.802	1.226016
10.82	1.222903
10.838	1.219742
10.856	1.216316
10.874	1.212442
10.892	1.207929
10.91	1.202667
10.928	1.196762
10.946	1.190414
10.964	1.183908
10.982	1.177579
11	1.171736
11.018	1.166507
11.036	1.162120
11.054	1.158643
11.072	1.156202
11.09	1.154678
11.108	1.153721
11.126	1.153011
11.144	1.152116
11.162	1.150649
11.18	1.148510
11.198	1.145428
11.216	1.141302
11.234	1.135810
11.252	1.128573
11.27	1.119485
11.288	1.108497
11.306	1.095905
11.324	1.082388
11.342	1.068852
11.36	1.056247
11.378	1.045537
11.396	1.037487
11.414	1.032694
11.432	1.031371
11.45	1.033446
11.468	1.038422
11.486	1.045604
11.504	1.054099
11.522	1.063067
11.54	1.071826
11.558	1.079833
11.576	1.086776
11.594	1.092440
11.612	1.096676
11.63	1.099455
11.648	1.100821
11.666	1.100792
11.684	1.099538
11.702	1.097360
11.72	1.094618
11.738	1.091637
11.756	1.088659
11.774	1.085910
11.792	1.083250
11.81	1.080544
11.828	1.077536
11.846	1.073981
11.864	1.069483
11.882	1.063896
11.9	1.057042
11.918	1.048630
11.936	1.038389
11.954	1.026074
11.972	1.011205
11.99	0.993587
12.008	0.973210
12.026	0.950511
12.044	0.926465
12.062	0.902601
12.08	0.880778
12.098	0.862809
12.116	0.850306
12.134	0.844254
12.152	0.844827
12.17	0.851335
12.188	0.862475
12.206	0.876496
12.224	0.891553
12.242	0.906054
12.26	0.918886
12.278	0.929374
12.296	0.937248
12.314	0.942732
12.332	0.946181
12.35	0.948068
12.368	0.948852
12.386	0.949018
12.404	0.948795
12.422	0.948389
12.44	0.948037
12.458	0.947846
12.476	0.947812
12.494	0.947982
12.512	0.948386
12.53	0.949080
12.548	0.950090
12.566	0.951531
12.584	0.953417
12.602	0.955753
12.62	0.958560
12.638	0.961667
12.656	0.964931
12.674	0.968124
12.692	0.971039
12.71	0.973466
12.728	0.975341
12.746	0.976595
12.764	0.977255
12.782	0.977496
12.8	0.977511
12.818	0.977349
12.836	0.977211
12.854	0.977132
12.872	0.977079
12.89	0.977000
12.908	0.976864
12.926	0.976501
12.944	0.975866
12.962	0.974996
12.98	0.973930
12.998	0.972802
13.016	0.971697
13.034	0.970681
13.052	0.969797
13.07	0.969077
13.088	0.968375
13.106	0.967699
13.124	0.966924
13.142	0.966021
13.16	0.964992
13.178	0.963870
13.196	0.962694
13.214	0.961430
13.232	0.960139
13.25	0.958782
13.268	0.957338
13.286	0.955670
13.304	0.953789
13.322	0.951625
13.34	0.949211
13.358	0.946645
13.376	0.943973
13.394	0.941300
13.412	0.938704
13.43	0.936230
13.448	0.933926
13.466	0.931823
13.484	0.929887
13.502	0.928082
13.52	0.926382
13.538	0.924709
13.556	0.923083
13.574	0.921469
13.592	0.919844
13.61	0.918246
13.628	0.916642
13.646	0.914995
13.664	0.913306
13.682	0.911542
13.7	0.909577
13.718	0.907419
13.736	0.905002
13.754	0.902310
13.772	0.899361
13.79	0.896239
13.808	0.893026
13.826	0.889802
13.844	0.886647
13.862	0.883660
13.88	0.880887
13.898	0.878332
13.916	0.875975
13.934	0.873773
13.952	0.871675
13.97	0.869607
13.988	0.867512
14.006	0.865313
14.024	0.862936
14.042	0.860388
14.06	0.857632
14.078	0.854645
14.096	0.851457
14.114	0.848096
14.132	0.844563
14.15	0.840904
14.168	0.837204
14.186	0.833436
14.204	0.829621
14.222	0.825800
14.24	0.821953
14.258	0.818065
14.276	0.814129
14.294	0.810051
14.312	0.805735
14.33	0.801129
14.348	0.796133
14.366	0.790652
14.384	0.784651
14.402	0.778214
14.42	0.771405
14.438	0.764404
14.456	0.757451
14.474	0.750806
14.492	0.744790
14.51	0.739623
14.528	0.735520
14.546	0.732601
14.564	0.730876
14.582	0.730255
14.6	0.730564
14.618	0.731556
14.636	0.732958
14.654	0.734475
14.672	0.735885
14.69	0.736985
14.708	0.737621
14.726	0.737773
14.744	0.737404
14.762	0.736613
14.78	0.735433
14.798	0.733925
14.816	0.732183
14.834	0.730273
14.852	0.728235
14.87	0.726123
14.888	0.723970
14.906	0.721800
14.924	0.719638
14.942	0.717528
14.96	0.715491
14.978	0.713564
14.996	0.711771
15.014	0.710122
15.032	0.708637
15.05	0.707254
15.068	0.705959
15.086	0.704720
15.104	0.703459
15.122	0.702144
15.14	0.700741
15.158	0.699214
15.176	0.697539
15.194	0.695705
15.212	0.693715
15.23	0.691577
15.248	0.689320
15.266	0.686990
15.284	0.684591
15.302	0.682158
15.32	0.679725
15.338	0.677318
15.356	0.674959
15.374	0.672674
15.392	0.670464
15.41	0.668330
15.428	0.666285
15.446	0.664326
15.464	0.662458
15.482	0.660660
15.5	0.658869
15.518	0.657119
15.536	0.655359
15.554	0.653547
15.572	0.651640
15.59	0.649645
15.608	0.647562
15.626	0.645396
15.644	0.643158
15.662	0.640839
15.68	0.638488
15.698	0.636152
15.716	0.633832
15.734	0.631545
15.752	0.629331
15.77	0.627245
15.788	0.625246
15.806	0.623361
15.824	0.621581
15.842	0.619844
15.86	0.618177
15.878	0.616554
15.896	0.614940
15.914	0.613330
15.932	0.611717
15.95	0.610089
15.968	0.608411
15.986	0.606689
16.004	0.604925
16.022	0.603118
16.04	0.601254
16.058	0.599342
16.076	0.597390
16.094	0.595402
16.112	0.593343
16.13	0.591209
16.148	0.589016
16.166	0.586742
16.184	0.584373
16.202	0.581897
16.22	0.579295
16.238	0.576550
16.256	0.573639
16.274	0.570569
16.292	0.567341
16.31	0.563955
16.328	0.560413
16.346	0.556772
16.364	0.553072
16.382	0.549347
16.4	0.545682
16.418	0.542137
16.436	0.538778
16.454	0.535657
16.472	0.532818
16.49	0.530359
16.508	0.528306
16.526	0.526680
16.544	0.525437
16.562	0.524577
16.58	0.524091
16.598	0.523848
16.616	0.523813
16.634	0.523951
16.652	0.524127
16.67	0.524314
16.688	0.524484
16.706	0.524545
16.724	0.524486
16.742	0.524304
16.76	0.523944
16.778	0.523416
16.796	0.522793
16.814	0.522069
16.832	0.521252
16.85	0.520391
16.868	0.519500
16.886	0.518592
16.904	0.517698
16.922	0.516817
16.94	0.515941
16.958	0.515102
16.976	0.514304
16.994	0.513547
17.012	0.512821
17.03	0.512122
17.048	0.511474
17.066	0.510868
17.084	0.510288
17.102	0.509735
17.12	0.509211
17.138	0.508720
17.156	0.508242
17.174	0.507762
17.192	0.507285
17.21	0.506805
17.228	0.506294
17.246	0.505763
17.264	0.505221
17.282	0.504635
17.3	0.504006
17.318	0.503335
17.336	0.502623
17.354	0.501866
17.372	0.501086
17.39	0.500284
17.408	0.499464
17.426	0.498645
17.444	0.497842
17.462	0.497029
17.48	0.496212
17.498	0.495430
17.516	0.494670
17.534	0.493926
17.552	0.493199
17.57	0.492490
17.588	0.491811
17.606	0.491152
17.624	0.490503
17.642	0.489852
17.66	0.489192
17.678	0.488521
17.696	0.487832
17.714	0.487097
17.732	0.486334
17.75	0.485573
17.768	0.484753
17.786	0.483854
17.804	0.482929
17.822	0.481976
17.84	0.480975
17.858	0.479933
17.876	0.478849
17.894	0.477757
17.912	0.476680
17.93	0.475563
17.948	0.474407
17.966	0.473287
17.984	0.472190
18.002	0.471098
18.02	0.470019
18.038	0.468959
18.056	0.467914
18.074	0.466884
18.092	0.465885
18.11	0.464918
18.128	0.463985
18.146	0.463079
18.164	0.462176
18.182	0.461283
18.2	0.460398
18.218	0.459522
18.236	0.458660
18.254	0.457789
18.272	0.456904
18.29	0.456001
18.308	0.455078
18.326	0.454127
18.344	0.453152
18.362	0.452169
18.38	0.451172
18.398	0.450144
18.416	0.449097
18.434	0.448036
18.452	0.446976
18.47	0.445927
18.488	0.444891
18.506	0.443867
18.524	0.442875
18.542	0.441927
18.56	0.440987
18.578	0.440051
18.596	0.439137
18.614	0.438247
18.632	0.437364
18.65	0.436487
18.668	0.435623
18.686	0.434766
18.704	0.433877
18.722	0.432965
18.74	0.432038
18.758	0.431093
18.776	0.430114
18.794	0.429108
18.812	0.428080
18.83	0.427029
18.848	0.425961
18.866	0.424863
18.884	0.423708
18.902	0.422512
18.92	0.421295
18.938	0.420048
18.956	0.418766
18.974	0.417450
18.992	0.416097
19.01	0.414718
19.028	0.413325
19.046	0.411922
19.064	0.410518
19.082	0.409112
19.1	0.407706
19.118	0.406310
19.136	0.404944
19.154	0.403606
19.172	0.402297
19.19	0.401023
19.208	0.399802
19.226	0.398628
19.244	0.397502
19.262	0.396423
19.28	0.395393
19.298	0.394409
19.316	0.393460
19.334	0.392545
19.352	0.391646
19.37	0.390764
19.388	0.389907
19.406	0.389079
19.424	0.388246
19.442	0.387405
19.46	0.386565
19.478	0.385729
19.496	0.384890
19.514	0.384054
19.532	0.383197
19.55	0.382300
19.568	0.381378
19.586	0.380444
19.604	0.379486
19.622	0.378488
19.64	0.377456
19.658	0.376388
19.676	0.375286
19.694	0.374158
19.712	0.373003
19.73	0.371804
19.748	0.370555
19.766	0.369275
19.784	0.367967
19.802	0.366638
19.82	0.365294
19.838	0.363932
19.856	0.362550
19.874	0.361153
19.892	0.359758
19.91	0.358362
19.928	0.356952
19.946	0.355526
19.964	0.354098
19.982	0.352674
20	0.351238
20.018	0.349782
20.036	0.348309
20.054	0.346815
20.072	0.345299
20.09	0.343746
20.108	0.342157
20.126	0.340528
20.144	0.338856
20.162	0.337151
20.18	0.335421
20.198	0.333659
20.216	0.331856
20.234	0.330021
20.252	0.328190
20.27	0.326363
20.288	0.324529
20.306	0.322675
20.324	0.320841
20.342	0.319056
20.36	0.317304
20.378	0.315571
20.396	0.313862
20.414	0.312202
20.432	0.310600
20.45	0.309029
20.468	0.307474
20.486	0.305946
20.504	0.304458
20.522	0.303005
20.54	0.301562
20.558	0.300130
20.576	0.298701
20.594	0.297264
20.612	0.295827
20.63	0.294397
20.648	0.292972
20.666	0.291527
20.684	0.290058
20.702	0.288574
20.72	0.287080
20.738	0.285578
20.756	0.284081
20.774	0.282587
20.792	0.281099
20.81	0.279618
20.828	0.278145
20.846	0.276676
20.864	0.275214
20.882	0.273767
20.9	0.272336
20.918	0.270920
20.936	0.269519
20.954	0.268132
20.972	0.266755
20.99	0.265389
21.008	0.264031
21.026	0.262678
21.044	0.261332
21.062	0.259986
21.08	0.258643
21.098	0.257301
21.116	0.255964
21.134	0.254627
21.152	0.253288
21.17	0.251947
21.188	0.250604
21.206	0.249257
21.224	0.247911
21.242	0.246575
21.26	0.245246
21.278	0.243917
21.296	0.242583
21.314	0.241248
21.332	0.239918
21.35	0.238592
21.368	0.237262
21.386	0.235925
21.404	0.234582
21.422	0.233236
21.44	0.231888
21.458	0.230525
21.476	0.229134
21.494	0.227725
21.512	0.226310
21.53	0.224890
21.548	0.223458
21.566	0.222005
21.584	0.220536
21.602	0.219063
21.62	0.217588
21.638	0.216108
21.656	0.214621
21.674	0.213126
21.692	0.211642
21.71	0.210176
21.728	0.208723
21.746	0.207278
21.764	0.205837
21.782	0.204413
21.8	0.203018
21.818	0.201647
21.836	0.200293
21.854	0.198950
21.872	0.197624
21.89	0.196322
21.908	0.195042
21.926	0.193787
21.944	0.192558
21.962	0.191353
21.98	0.190178
21.998	0.189033
22.016	0.187916
22.034	0.186818
22.052	0.185738
22.07	0.184683
22.088	0.183660
22.106	0.182665
22.124	0.181693
22.142	0.180738
22.16	0.179804
22.178	0.178895
22.196	0.178014
22.214	0.177153
22.232	0.176303
22.25	0.175469
22.268	0.174644
22.286	0.173826
22.304	0.173018
22.322	0.172207
22.34	0.171394
22.358	0.170579
22.376	0.169755
22.394	0.168928
22.412	0.168087
22.43	0.167218
22.448	0.166320
22.466	0.165406
22.484	0.164487
22.502	0.163559
22.52	0.162616
22.538	0.161653
22.556	0.160674
22.574	0.159681
22.592	0.158676
22.61	0.157657
22.628	0.156626
22.646	0.155579
22.664	0.154520
22.682	0.153456
22.7	0.152384
22.718	0.151306
22.736	0.150230
22.754	0.149154
22.772	0.148076
22.79	0.146991
22.808	0.145899
22.826	0.144809
22.844	0.143729
22.862	0.142655
22.88	0.141580
22.898	0.140496
22.916	0.139408
22.934	0.138318
22.952	0.137228
22.97	0.136137
22.988	0.135047
23.006	0.133961
23.024	0.132877
23.042	0.131789
23.06	0.130698
23.078	0.129603
23.096	0.128498
23.114	0.127381
23.132	0.126256
23.15	0.125124
23.168	0.123985
23.186	0.122840
23.204	0.121695
23.222	0.120553
23.24	0.119409
23.258	0.118258
23.276	0.117095
23.294	0.115928
23.312	0.114766
23.33	0.113612
23.348	0.112462
23.366	0.111316
23.384	0.110171
23.402	0.109031
23.42	0.107906
23.438	0.106800
23.456	0.105708
23.474	0.104628
23.492	0.103558
23.51	0.102500
23.528	0.101456
23.546	0.100427
23.564	0.099413
23.582	0.098412
23.6	0.097424
23.618	0.096449
23.636	0.095492
23.654	0.094558
23.672	0.093645
23.69	0.092744
23.708	0.091847
23.726	0.090958
23.744	0.090079
23.762	0.089212
23.78	0.088361
23.798	0.087516
23.816	0.086670
23.834	0.085824
23.852	0.084979
23.87	0.084132
23.888	0.083287
23.906	0.082440
23.924	0.081584
23.942	0.080718
23.96	0.079844
23.978	0.078960
23.996	0.078065
24.014	0.077161
24.032	0.076244
24.05	0.075314
24.068	0.074372
24.086	0.073417
24.104	0.072449
24.122	0.071467
24.14	0.070475
24.158	0.069476
24.176	0.068467
24.194	0.067452
24.212	0.066436
24.23	0.065422
24.248	0.064407
24.266	0.063391
24.284	0.062372
24.302	0.061347
24.32	0.060330
24.338	0.059333
24.356	0.058351
24.374	0.057386
24.392	0.056437
24.41	0.055503
24.428	0.054585
24.446	0.053690
24.464	0.052822
24.482	0.051979
24.5	0.051154
24.518	0.050343
24.536	0.049544
24.554	0.048764
24.572	0.048007
24.59	0.047277
24.608	0.046570
24.626	0.045878
24.644	0.045194
24.662	0.044523
24.68	0.043867
24.698	0.043231
24.716	0.042615
24.734	0.042015
24.752	0.041428
24.77	0.040852
24.788	0.040289
24.806	0.039741
24.824	0.039209
24.842	0.038691
24.86	0.038189
24.878	0.037701
24.896	0.037227
24.914	0.036767
24.932	0.036326
24.95	0.035904
24.968	0.035498
24.986	0.035114
25.004	0.034755
25.022	0.034423
25.04	0.034116
25.058	0.033830
25.076	0.033566
25.094	0.033323
25.112	0.033102
25.13	0.032903
25.148	0.032727
25.166	0.032572
25.184	0.032435
25.202	0.032317
25.22	0.032219
25.238	0.032134
25.256	0.032051
25.274	0.031973
25.292	0.031901
25.31	0.031831
25.328	0.031759
25.346	0.031692
25.364	0.031621
25.382	0.031536
25.4	0.031438
25.418	0.031330
25.436	0.031208
25.454	0.031067
25.472	0.030912
25.49	0.030740
25.508	0.030543
25.526	0.030320
25.544	0.030074
25.562	0.029804
25.58	0.029511
25.598	0.029196
25.616	0.028858
25.634	0.028496
25.652	0.028106
25.67	0.027687
25.688	0.027247
25.706	0.026797
25.724	0.026338
25.742	0.025865
25.76	0.025385
25.778	0.024906
25.796	0.024424
25.814	0.023939
25.832	0.023454
25.85	0.022971
25.868	0.022483
25.886	0.022000
25.904	0.021527
25.922	0.021070
25.94	0.020624
25.958	0.020189
25.976	0.019766
25.994	0.019357
26.012	0.018961
26.03	0.018576
26.048	0.018204
26.066	0.017843
26.084	0.017494
26.102	0.017160
26.12	0.016844
26.138	0.016547
26.156	0.016264
26.174	0.015987
26.192	0.015714
26.21	0.015447
26.228	0.015187
26.246	0.014934
26.264	0.014691
26.282	0.014455
26.3	0.014223
26.318	0.013990
26.336	0.013751
26.354	0.013513
26.372	0.013279
26.39	0.013054
26.408	0.012840
26.426	0.012632
26.444	0.012427
26.462	0.012222
26.48	0.012017
26.498	0.011813
26.516	0.011614
26.534	0.011422
26.552	0.011233
26.57	0.011050
26.588	0.010874
26.606	0.010703
26.624	0.010538
26.642	0.010379
26.66	0.010231
26.678	0.010097
26.696	0.009977
26.714	0.009866
26.732	0.009761
26.75	0.009660
26.768	0.009567
26.786	0.009478
26.804	0.009395
26.822	0.009315
26.84	0.009241
26.858	0.009171
26.876	0.009104
26.894	0.009040
26.912	0.008980
26.93	0.008922
26.948	0.008865
26.966	0.008803
26.984	0.008735
27.002	0.008671
27.02	0.008620
27.028	0.008606