File: Bakgrunnsmateriale/MATLAB/FTIR/ftir_data/subBb/Mapping_121/C-4040-8_t51.asc
PE IR       SPECTRUM    SPECTRUM    ASCII       PEDS        1.60
  -1
C-A93E~1.ASC
17/03/27
18:41:36.00
17/03/27
18:42:02.00
tln
$C-4040-8_t0051$<tbV0>[-2.6,-2.6,8.0,0.0,27,1,0]
27.028
64

2002,4.07
MIRTGS : RIGHTBACK : INTERNAL 2
MIR : ON : INTERNAL 2
OPTKBR

0.200000
8
8.000000
FILLER
RATIO
SPECTRUM
UNLOCKED 256

DOUBLE
64
COMBINED
1
0
0

0.002000
RATIO

1
0
TRUE
51149
0
LEFT NOT FITTED RIGHT NOT FITTED 0
NONE
NONE
15600
12
4.427000
51148
TRUE
1 0 8 72 0 0 0 0

15798

#HDR
-1
-1
#GR
µM
%T
2.38419e-05
0.0
2.000000
0.002000
12515
8
118.245
32.8821
#DATA
2.000000	 64.7694
2.018000	 65.0391
2.036000	 64.8401
2.054000	 64.5231
2.072000	 64.4433
2.090000	 64.8637
2.108000	 64.4378
2.126000	 64.311
2.144000	 64.108
2.162000	 64.356
2.180000	 64.1949
2.198000	 64.1603
2.216000	 64.9811
2.234000	 65.1709
2.252000	 65.1661
2.270000	 66.5197
2.288000	 65.8338
2.306000	 67.15
2.324000	 65.7477
2.342000	 65.6258
2.360000	 65.333
2.378000	 64.8458
2.396000	 64.5487
2.414000	 64.6911
2.432000	 64.3325
2.450000	 64.4628
2.468000	 64.4949
2.486000	 64.1087
2.504000	 64.4915
2.522000	 64.3122
2.540000	 64.4549
2.558000	 64.3511
2.576000	 64.368
2.594000	 64.7779
2.612000	 64.266
2.630000	 64.6282
2.648000	 64.6623
2.666000	 64.2302
2.684000	 64.4706
2.702000	 64.2212
2.720000	 64.4373
2.738000	 64.3511
2.756000	 64.2283
2.774000	 64.1828
2.792000	 64.0397
2.810000	 64.0088
2.828000	 64.0824
2.846000	 63.9812
2.864000	 63.9929
2.882000	 64.1149
2.900000	 63.9916
2.918000	 64.2405
2.936000	 63.9817
2.954000	 64.0517
2.972000	 63.9557
2.990000	 63.8787
3.008000	 64.0542
3.026000	 63.8
3.044000	 63.6461
3.062000	 63.881
3.080000	 63.6659
3.098000	 63.6735
3.116000	 63.6948
3.134000	 63.7756
3.152000	 63.8297
3.170000	 63.656
3.188000	 63.3859
3.206000	 63.5778
3.224000	 63.6686
3.242000	 63.4343
3.260000	 63.5855
3.278000	 63.7188
3.296000	 63.4533
3.314000	 63.4355
3.332000	 63.4105
3.350000	 63.4738
3.368000	 63.177
3.386000	 63.2647
3.404000	 63.3485
3.422000	 63.1121
3.440000	 63.1602
3.458000	 63.1183
3.476000	 63.1091
3.494000	 63.0811
3.512000	 63.062
3.530000	 62.9835
3.548000	 63.0913
3.566000	 63.122
3.584000	 63.0152
3.602000	 62.9231
3.620000	 62.9971
3.638000	 62.9011
3.656000	 62.8952
3.674000	 62.7426
3.692000	 62.7432
3.710000	 62.7662
3.728000	 62.6822
3.746000	 62.7892
3.764000	 62.7689
3.782000	 62.6532
3.800000	 62.6204
3.818000	 62.7036
3.836000	 62.6036
3.854000	 62.5258
3.872000	 62.5148
3.890000	 62.5549
3.908000	 62.65
3.926000	 62.6445
3.944000	 62.4206
3.962000	 62.2679
3.980000	 62.4755
3.998000	 62.2552
4.016000	 62.3118
4.034000	 62.4186
4.052000	 62.2138
4.070000	 62.435
4.088000	 62.4025
4.106000	 62.1973
4.124000	 62.4709
4.141999	 62.1852
4.160000	 62.2576
4.178000	 62.2925
4.196000	 62.1306
4.214000	 61.9536
4.232000	 62.0984
4.250000	 62.0295
4.268000	 62.0795
4.286000	 61.9285
4.304000	 61.9708
4.322000	 61.8614
4.340000	 61.8861
4.358000	 61.7901
4.375999	 61.8144
4.394000	 61.8401
4.412000	 61.8655
4.430000	 61.7559
4.448000	 61.7482
4.466000	 61.6903
4.484000	 61.8033
4.502000	 61.6673
4.520000	 61.6953
4.538000	 61.6195
4.556000	 61.5957
4.574000	 61.6354
4.592000	 61.53
4.609999	 61.5977
4.628000	 61.6922
4.646000	 61.6004
4.664000	 61.3993
4.682000	 61.4667
4.700000	 61.3964
4.718000	 61.387
4.736000	 61.365
4.754000	 61.4024
4.772000	 61.3228
4.790000	 61.3008
4.808000	 61.2059
4.826000	 61.5026
4.843999	 61.31
4.862000	 61.3231
4.880000	 61.3004
4.898000	 61.1497
4.916000	 61.1919
4.934000	 61.1432
4.952000	 60.9921
4.970000	 60.9534
4.988000	 60.9876
5.006000	 60.9187
5.024000	 61.0152
5.042000	 61.0324
5.060000	 60.9896
5.077999	 60.9598
5.096000	 60.8558
5.114000	 60.956
5.132000	 60.9966
5.150000	 60.9192
5.168000	 60.8775
5.186000	 60.7772
5.204000	 60.7165
5.222000	 60.8132
5.240000	 60.9104
5.258000	 60.7485
5.276000	 60.7956
5.294000	 60.767
5.312000	 60.6584
5.330000	 60.7507
5.348000	 60.6009
5.366000	 60.5424
5.384000	 60.5869
5.402000	 60.5644
5.420000	 60.5838
5.438000	 60.5194
5.456000	 60.5729
5.474000	 60.6169
5.492000	 60.5859
5.510000	 60.5508
5.528000	 60.4506
5.546000	 60.513
5.564000	 60.4636
5.582000	 60.4543
5.600000	 60.4154
5.618000	 60.3803
5.636000	 60.4213
5.654000	 60.3879
5.672000	 60.2269
5.690000	 60.2748
5.708000	 60.3023
5.726000	 60.226
5.744000	 60.168
5.762000	 60.1808
5.780000	 60.1331
5.798000	 59.9879
5.816000	 59.9671
5.834000	 59.9765
5.852000	 60.0545
5.870000	 60.1453
5.888000	 60.2005
5.906000	 60.1818
5.923999	 60.1148
5.942000	 60.0832
5.960000	 60.0035
5.978000	 59.9808
5.996000	 60.1442
6.014000	 60.244
6.032000	 60.151
6.050000	 60.0672
6.068000	 59.957
6.086000	 59.8969
6.104000	 59.8848
6.122000	 59.8336
6.140000	 59.8422
6.158000	 59.8978
6.176000	 59.9255
6.194000	 59.8931
6.212000	 59.7864
6.230000	 59.7622
6.248000	 59.8395
6.266000	 59.781
6.284000	 59.6371
6.302000	 59.6683
6.320000	 59.7351
6.338000	 59.7228
6.356000	 59.7265
6.374000	 59.7055
6.392000	 59.6059
6.410000	 59.5482
6.428000	 59.6294
6.446000	 59.7102
6.464000	 59.6515
6.482000	 59.5909
6.500000	 59.5813
6.518000	 59.5618
6.536000	 59.5234
6.554000	 59.4565
6.572000	 59.4515
6.590000	 59.4881
6.608000	 59.4149
6.626000	 59.2969
6.644000	 59.3398
6.662000	 59.4964
6.680000	 59.5136
6.698000	 59.3913
6.716000	 59.3511
6.734000	 59.3781
6.752000	 59.383
6.770000	 59.3406
6.788000	 59.2816
6.806000	 59.2889
6.824000	 59.3677
6.842000	 59.4154
6.860000	 59.2979
6.878000	 59.066
6.896000	 58.9193
6.914000	 58.9463
6.932000	 59.1278
6.950000	 59.2841
6.968000	 59.2459
6.986000	 59.1786
7.004000	 59.2163
7.022000	 59.2331
7.040000	 59.1975
7.058000	 59.1897
7.076000	 59.203
7.094000	 59.1771
7.112000	 59.1166
7.130000	 59.0706
7.148000	 59.0313
7.166000	 59.0247
7.184000	 59.0789
7.202000	 59.1004
7.220000	 59.07
7.238000	 59.0564
7.256000	 59.0511
7.274000	 59.0376
7.292000	 59.0061
7.310000	 58.9399
7.328000	 58.8769
7.346000	 58.8773
7.364000	 58.9554
7.382000	 59.0373
7.400000	 59.0209
7.418000	 58.9425
7.436000	 58.9177
7.454000	 58.9409
7.472000	 58.9212
7.490000	 58.8399
7.508000	 58.7708
7.526000	 58.7868
7.544000	 58.8499
7.562000	 58.8427
7.580000	 58.7495
7.598000	 58.6952
7.616000	 58.742
7.634000	 58.7856
7.652000	 58.7419
7.670000	 58.6813
7.688000	 58.696
7.706000	 58.7655
7.724000	 58.813
7.742000	 58.8086
7.760000	 58.7831
7.778000	 58.7667
7.796000	 58.7479
7.814000	 58.7131
7.832000	 58.6749
7.850000	 58.6432
7.868000	 58.6178
7.886000	 58.6065
7.904000	 58.5987
7.922000	 58.5618
7.940000	 58.5079
7.958000	 58.5058
7.976000	 58.5901
7.994000	 58.7059
8.012000	 58.763
8.030000	 58.7226
8.048000	 58.6319
8.065999	 58.5838
8.084000	 58.618
8.102000	 58.672
8.120000	 58.6724
8.138000	 58.6308
8.155999	 58.5911
8.173999	 58.5475
8.192000	 58.4815
8.210000	 58.4201
8.228000	 58.3982
8.246000	 58.4087
8.263999	 58.4296
8.282000	 58.451
8.300000	 58.4652
8.318000	 58.4598
8.336000	 58.4381
8.353999	 58.4204
8.372000	 58.4304
8.390000	 58.4836
8.408000	 58.5767
8.426000	 58.6853
8.443999	 58.7791
8.462000	 58.8142
8.480000	 58.7346
8.498000	 58.536
8.516000	 58.3231
8.533999	 58.2436
8.552000	 58.3277
8.570000	 58.4465
8.588000	 58.4541
8.606000	 58.3404
8.624000	 58.2141
8.641999	 58.1685
8.660000	 58.2055
8.678000	 58.278
8.696000	 58.3522
8.714000	 58.42
8.731999	 58.4729
8.750000	 58.4743
8.768000	 58.3841
8.786000	 58.2096
8.804000	 58.0331
8.821999	 57.9538
8.840000	 58.003
8.858000	 58.1096
8.876000	 58.1655
8.894000	 58.1188
8.911999	 58.0104
8.930000	 57.9328
8.948000	 57.9478
8.966000	 58.0377
8.984000	 58.1295
9.001999	 58.1637
9.020000	 58.1373
9.038000	 58.0891
9.056000	 58.0498
9.074000	 58.0071
9.092000	 57.9198
9.109999	 57.7715
9.128000	 57.6121
9.146000	 57.5427
9.164000	 57.6373
9.182000	 57.8691
9.199999	 58.122
9.218000	 58.2791
9.236000	 58.2994
9.254000	 58.2178
9.272000	 58.09
9.289999	 57.9523
9.308000	 57.8279
9.326000	 57.7455
9.344000	 57.7324
9.362000	 57.7884
9.379999	 57.8807
9.398000	 57.9641
9.416000	 58.0079
9.434000	 58.0086
9.452000	 57.9838
9.469999	 57.9533
9.488000	 57.9224
9.506000	 57.8801
9.524000	 57.8141
9.542000	 57.7296
9.560000	 57.6532
9.577999	 57.6148
9.596000	 57.623
9.614000	 57.6585
9.632000	 57.6896
9.650000	 57.6964
9.667999	 57.6806
9.686000	 57.6611
9.704000	 57.6578
9.722000	 57.6762
9.740000	 57.6998
9.757999	 57.697
9.776000	 57.639
9.794000	 57.524
9.812000	 57.3899
9.830000	 57.3016
9.847999	 57.3116
9.866000	 57.4218
9.884000	 57.5766
9.902000	 57.7002
9.920000	 57.7486
9.937999	 57.7362
9.956000	 57.7141
9.974000	 57.7218
9.992000	 57.7602
10.01	57.7991
10.028	57.8068
10.046	57.7758
10.064	57.721
10.082	57.6624
10.1	57.612
10.118	57.5739
10.136	57.5496
10.154	57.5404
10.172	57.5442
10.19	57.5515
10.208	57.5482
10.226	57.5254
10.244	57.4835
10.262	57.4342
10.28	57.3917
10.298	57.3635
10.316	57.347
10.334	57.3336
10.352	57.3157
10.37	57.2902
10.388	57.26
10.406	57.2295
10.424	57.2021
10.442	57.1783
10.46	57.1576
10.478	57.1388
10.496	57.1219
10.514	57.1077
10.532	57.0985
10.55	57.0981
10.568	57.1104
10.586	57.1361
10.604	57.17
10.622	57.2023
10.64	57.2227
10.658	57.226
10.676	57.2131
10.694	57.1896
10.712	57.1636
10.73	57.1418
10.748	57.1287
10.766	57.1242
10.784	57.124
10.802	57.1213
10.82	57.111
10.838	57.0928
10.856	57.0728
10.874	57.0606
10.892	57.0624
10.91	57.076
10.928	57.0912
10.946	57.0958
10.964	57.0845
10.982	57.0615
11	57.0387
11.018	57.0271
11.036	57.0292
11.054	57.0381
11.072	57.0419
11.09	57.0301
11.108	57.0009
11.126	56.9616
11.144	56.923
11.162	56.8954
11.18	56.8832
11.198	56.8857
11.216	56.8985
11.234	56.9158
11.252	56.931
11.27	56.9378
11.288	56.9287
11.306	56.8977
11.324	56.8398
11.342	56.755
11.36	56.6495
11.378	56.5375
11.396	56.4373
11.414	56.3682
11.432	56.3442
11.45	56.3688
11.468	56.435
11.486	56.5284
11.504	56.6308
11.522	56.7245
11.54	56.7971
11.558	56.8411
11.576	56.8546
11.594	56.8404
11.612	56.8053
11.63	56.7584
11.648	56.7091
11.666	56.667
11.684	56.6394
11.702	56.6295
11.72	56.6362
11.738	56.6537
11.756	56.6735
11.774	56.6868
11.792	56.6873
11.81	56.6741
11.828	56.6514
11.846	56.6268
11.864	56.6078
11.882	56.5988
11.9	56.5999
11.918	56.6063
11.936	56.6113
11.954	56.6097
11.972	56.6
11.99	56.5853
12.008	56.5719
12.026	56.5666
12.044	56.5735
12.062	56.5908
12.08	56.6111
12.098	56.6247
12.116	56.6217
12.134	56.5962
12.152	56.5495
12.17	56.4882
12.188	56.4232
12.206	56.3654
12.224	56.3228
12.242	56.2985
12.26	56.2914
12.278	56.296
12.296	56.3051
12.314	56.3112
12.332	56.3098
12.35	56.2991
12.368	56.2811
12.386	56.2603
12.404	56.2426
12.422	56.2341
12.44	56.2392
12.458	56.2604
12.476	56.298
12.494	56.3498
12.512	56.4107
12.53	56.473
12.548	56.527
12.566	56.5629
12.584	56.5729
12.602	56.5536
12.62	56.5076
12.638	56.4437
12.656	56.375
12.674	56.3156
12.692	56.2766
12.71	56.2643
12.728	56.2785
12.746	56.312
12.764	56.3533
12.782	56.3892
12.8	56.4089
12.818	56.4072
12.836	56.384
12.854	56.3442
12.872	56.2954
12.89	56.2451
12.908	56.1978
12.926	56.1545
12.944	56.1128
12.962	56.0697
12.98	56.0233
12.998	55.9741
13.016	55.9258
13.034	55.8832
13.052	55.8499
13.07	55.8255
13.088	55.8037
13.106	55.7743
13.124	55.7245
13.142	55.6453
13.16	55.5348
13.178	55.4023
13.196	55.2668
13.214	55.1545
13.232	55.0919
13.25	55.0995
13.268	55.1857
13.286	55.3447
13.304	55.5568
13.322	55.7928
13.34	56.0204
13.358	56.21
13.376	56.3406
13.394	56.4026
13.412	56.3979
13.43	56.3374
13.448	56.2373
13.466	56.1157
13.484	55.9884
13.502	55.8677
13.52	55.7615
13.538	55.6744
13.556	55.608
13.574	55.5622
13.592	55.5355
13.61	55.5254
13.628	55.529
13.646	55.5418
13.664	55.5594
13.682	55.5763
13.7	55.5883
13.718	55.5916
13.736	55.585
13.754	55.5691
13.772	55.547
13.79	55.5232
13.808	55.5025
13.826	55.4893
13.844	55.4862
13.862	55.4936
13.88	55.5092
13.898	55.528
13.916	55.5444
13.934	55.5531
13.952	55.5507
13.97	55.5355
13.988	55.5086
14.006	55.4737
14.024	55.436
14.042	55.4018
14.06	55.3761
14.078	55.3619
14.096	55.3595
14.114	55.3668
14.132	55.38
14.15	55.3944
14.168	55.4052
14.186	55.4086
14.204	55.4028
14.222	55.3887
14.24	55.3692
14.258	55.349
14.276	55.333
14.294	55.3252
14.312	55.3282
14.33	55.3425
14.348	55.3662
14.366	55.3957
14.384	55.4255
14.402	55.4503
14.42	55.4651
14.438	55.467
14.456	55.4545
14.474	55.4278
14.492	55.3888
14.51	55.3405
14.528	55.2865
14.546	55.2302
14.564	55.1746
14.582	55.1225
14.6	55.0758
14.618	55.0361
14.636	55.0051
14.654	54.9839
14.672	54.9732
14.69	54.9731
14.708	54.9828
14.726	55.0005
14.744	55.023
14.762	55.0454
14.78	55.0634
14.798	55.0728
14.816	55.0702
14.834	55.054
14.852	55.0249
14.87	54.9861
14.888	54.9423
14.906	54.8993
14.924	54.8635
14.942	54.8412
14.96	54.8364
14.978	54.8512
14.996	54.8854
15.014	54.9369
15.032	55.001
15.05	55.0719
15.068	55.1436
15.086	55.2106
15.104	55.2678
15.122	55.3111
15.14	55.3387
15.158	55.3502
15.176	55.3463
15.194	55.3289
15.212	55.3009
15.23	55.2652
15.248	55.2242
15.266	55.1801
15.284	55.1355
15.302	55.0916
15.32	55.0494
15.338	55.0094
15.356	54.9717
15.374	54.9361
15.392	54.9029
15.41	54.8719
15.428	54.8435
15.446	54.8181
15.464	54.7962
15.482	54.7784
15.5	54.7653
15.518	54.7573
15.536	54.754
15.554	54.7552
15.572	54.7597
15.59	54.7657
15.608	54.7716
15.626	54.7754
15.644	54.7754
15.662	54.7696
15.68	54.7573
15.698	54.7379
15.716	54.7111
15.734	54.678
15.752	54.6397
15.77	54.5978
15.788	54.5549
15.806	54.5133
15.824	54.4747
15.842	54.4414
15.86	54.4147
15.878	54.3953
15.896	54.3838
15.914	54.3803
15.932	54.3841
15.95	54.3947
15.968	54.4107
15.986	54.4307
16.004	54.4535
16.022	54.478
16.04	54.5026
16.058	54.5265
16.076	54.5489
16.094	54.5693
16.112	54.5873
16.13	54.6025
16.148	54.6148
16.166	54.6237
16.184	54.6289
16.202	54.6301
16.22	54.627
16.238	54.6193
16.256	54.6069
16.274	54.5901
16.292	54.5697
16.31	54.5466
16.328	54.5229
16.346	54.5006
16.364	54.4815
16.382	54.4684
16.4	54.4629
16.418	54.4662
16.436	54.479
16.454	54.5006
16.472	54.5299
16.49	54.5643
16.508	54.6001
16.526	54.6349
16.544	54.6637
16.562	54.6837
16.58	54.6925
16.598	54.688
16.616	54.6704
16.634	54.6399
16.652	54.5995
16.67	54.552
16.688	54.5002
16.706	54.4491
16.724	54.4008
16.742	54.3582
16.76	54.3228
16.778	54.2946
16.796	54.2731
16.814	54.2555
16.832	54.2401
16.85	54.2226
16.868	54.2003
16.886	54.1709
16.904	54.1314
16.922	54.0818
16.94	54.0213
16.958	53.952
16.976	53.8752
16.994	53.7944
17.012	53.713
17.03	53.6335
17.048	53.5605
17.066	53.4954
17.084	53.441
17.102	53.398
17.12	53.3668
17.138	53.347
17.156	53.3374
17.174	53.3371
17.192	53.3438
17.21	53.3564
17.228	53.373
17.246	53.3922
17.264	53.413
17.282	53.4338
17.3	53.4543
17.318	53.4733
17.336	53.4903
17.354	53.505
17.372	53.5166
17.39	53.525
17.408	53.53
17.426	53.5315
17.444	53.5296
17.462	53.5244
17.48	53.5165
17.498	53.5064
17.516	53.4951
17.534	53.4831
17.552	53.4718
17.57	53.4615
17.588	53.4533
17.606	53.4477
17.624	53.4451
17.642	53.4456
17.66	53.4492
17.678	53.4556
17.696	53.4645
17.714	53.4753
17.732	53.4873
17.75	53.5001
17.768	53.5128
17.786	53.5251
17.804	53.5363
17.822	53.5464
17.84	53.5547
17.858	53.5609
17.876	53.5648
17.894	53.5658
17.912	53.5639
17.93	53.5584
17.948	53.5494
17.966	53.5368
17.984	53.5207
18.002	53.5012
18.02	53.4791
18.038	53.4549
18.056	53.4301
18.074	53.4049
18.092	53.3814
18.11	53.3598
18.128	53.342
18.146	53.3281
18.164	53.3189
18.182	53.3142
18.2	53.3139
18.218	53.317
18.236	53.3231
18.254	53.3301
18.272	53.3377
18.29	53.3433
18.308	53.3465
18.326	53.3449
18.344	53.3385
18.362	53.3257
18.38	53.3066
18.398	53.2808
18.416	53.2491
18.434	53.2117
18.452	53.17
18.47	53.1247
18.488	53.0776
18.506	53.0294
18.524	52.9819
18.542	52.9356
18.56	52.892
18.578	52.8514
18.596	52.8146
18.614	52.7818
18.632	52.7532
18.65	52.7288
18.668	52.7084
18.686	52.6919
18.704	52.679
18.722	52.6695
18.74	52.663
18.758	52.6594
18.776	52.6584
18.794	52.6597
18.812	52.6629
18.83	52.6676
18.848	52.6732
18.866	52.6791
18.884	52.6844
18.902	52.6883
18.92	52.6898
18.938	52.6881
18.956	52.6819
18.974	52.6707
18.992	52.6533
19.01	52.6296
19.028	52.5986
19.046	52.5607
19.064	52.5159
19.082	52.465
19.1	52.4086
19.118	52.3479
19.136	52.2846
19.154	52.2197
19.172	52.1558
19.19	52.0934
19.208	52.0356
19.226	51.9825
19.244	51.9368
19.262	51.8984
19.28	51.8691
19.298	51.8488
19.316	51.838
19.334	51.8367
19.352	51.8442
19.37	51.8607
19.388	51.8844
19.406	51.9154
19.424	51.9515
19.442	51.9928
19.46	52.0371
19.478	52.0844
19.496	52.1327
19.514	52.1817
19.532	52.2301
19.55	52.2772
19.568	52.3223
19.586	52.3645
19.604	52.4036
19.622	52.4385
19.64	52.4693
19.658	52.4949
19.676	52.5156
19.694	52.5305
19.712	52.5398
19.73	52.5428
19.748	52.5397
19.766	52.5301
19.784	52.514
19.802	52.4916
19.82	52.4628
19.838	52.428
19.856	52.3878
19.874	52.3424
19.892	52.2931
19.91	52.2398
19.928	52.1848
19.946	52.1276
19.964	52.0708
19.982	52.0143
20	51.96
20.018	51.9088
20.036	51.8612
20.054	51.8188
20.072	51.7811
20.09	51.7493
20.108	51.7231
20.126	51.7025
20.144	51.6876
20.162	51.6774
20.18	51.6717
20.198	51.6699
20.216	51.6706
20.234	51.6739
20.252	51.6779
20.27	51.6829
20.288	51.6871
20.306	51.6906
20.324	51.6924
20.342	51.6919
20.36	51.6891
20.378	51.6833
20.396	51.6747
20.414	51.663
20.432	51.6483
20.45	51.6307
20.468	51.6101
20.486	51.5868
20.504	51.5612
20.522	51.5331
20.54	51.503
20.558	51.4709
20.576	51.4372
20.594	51.4021
20.612	51.3658
20.63	51.3291
20.648	51.2918
20.666	51.2549
20.684	51.2182
20.702	51.1826
20.72	51.1487
20.738	51.1165
20.756	51.0871
20.774	51.0601
20.792	51.0362
20.81	51.0154
20.828	50.9978
20.846	50.9832
20.864	50.9717
20.882	50.9627
20.9	50.9565
20.918	50.9521
20.936	50.9492
20.954	50.9476
20.972	50.9458
20.99	50.944
21.008	50.9414
21.026	50.9376
21.044	50.9325
21.062	50.9259
21.08	50.9175
21.098	50.9083
21.116	50.898
21.134	50.8872
21.152	50.8772
21.17	50.8674
21.188	50.8601
21.206	50.8552
21.224	50.8533
21.242	50.8561
21.26	50.863
21.278	50.8747
21.296	50.8917
21.314	50.9133
21.332	50.939
21.35	50.9692
21.368	51.0012
21.386	51.0351
21.404	51.0695
21.422	51.1011
21.44	51.1311
21.458	51.1557
21.476	51.1733
21.494	51.1842
21.512	51.1851
21.53	51.1763
21.548	51.1575
21.566	51.1275
21.584	51.0869
21.602	51.0378
21.62	50.9788
21.638	50.913
21.656	50.8434
21.674	50.7687
21.692	50.6945
21.71	50.6217
21.728	50.5511
21.746	50.4888
21.764	50.4333
21.782	50.3872
21.8	50.3535
21.818	50.3309
21.836	50.3207
21.854	50.3242
21.872	50.3395
21.89	50.3649
21.908	50.4018
21.926	50.4455
21.944	50.4939
21.962	50.5477
21.98	50.5995
21.998	50.6498
22.016	50.6965
22.034	50.7332
22.052	50.7621
22.07	50.7795
22.088	50.7821
22.106	50.7715
22.124	50.7457
22.142	50.7035
22.16	50.6462
22.178	50.5754
22.196	50.4895
22.214	50.3921
22.232	50.2869
22.25	50.1717
22.268	50.0522
22.286	49.9315
22.304	49.808
22.322	49.6879
22.34	49.5718
22.358	49.46
22.376	49.3571
22.394	49.2625
22.412	49.1769
22.43	49.1023
22.448	49.0384
22.466	48.9845
22.484	48.9409
22.502	48.9075
22.52	48.8821
22.538	48.8639
22.556	48.8532
22.574	48.8465
22.592	48.8441
22.61	48.8453
22.628	48.8469
22.646	48.8498
22.664	48.8526
22.682	48.8527
22.7	48.8509
22.718	48.8461
22.736	48.8367
22.754	48.8234
22.772	48.8054
22.79	48.782
22.808	48.7533
22.826	48.7198
22.844	48.6813
22.862	48.6379
22.88	48.5908
22.898	48.5401
22.916	48.4857
22.934	48.4297
22.952	48.3728
22.97	48.3145
22.988	48.2568
23.006	48.1998
23.024	48.1435
23.042	48.0899
23.06	48.039
23.078	47.9908
23.096	47.9474
23.114	47.9087
23.132	47.8748
23.15	47.8472
23.168	47.8263
23.186	47.8115
23.204	47.8033
23.222	47.8017
23.24	47.8065
23.258	47.8178
23.276	47.836
23.294	47.8606
23.312	47.891
23.33	47.927
23.348	47.9688
23.366	48.0165
23.384	48.0698
23.402	48.129
23.42	48.1942
23.438	48.265
23.456	48.3419
23.474	48.4259
23.492	48.5171
23.51	48.6153
23.528	48.7221
23.546	48.8379
23.564	48.9622
23.582	49.0961
23.6	49.2404
23.618	49.3944
23.636	49.5578
23.654	49.7307
23.672	49.9131
23.69	50.1036
23.708	50.3011
23.726	50.5068
23.744	50.7182
23.762	50.9332
23.78	51.1541
23.798	51.377
23.816	51.598
23.834	51.8199
23.852	52.0393
23.87	52.2507
23.888	52.456
23.906	52.654
23.924	52.8406
23.942	53.0154
23.96	53.1793
23.978	53.3303
23.996	53.4664
24.014	53.5888
24.032	53.7004
24.05	53.8023
24.068	53.8922
24.086	53.9756
24.104	54.0573
24.122	54.1341
24.14	54.2091
24.158	54.2872
24.176	54.3676
24.194	54.45
24.212	54.5362
24.23	54.6265
24.248	54.7203
24.266	54.8189
24.284	54.9236
24.302	55.0344
24.32	55.1484
24.338	55.2637
24.356	55.3844
24.374	55.5041
24.392	55.6137
24.41	55.7172
24.428	55.8125
24.446	55.8873
24.464	55.9373
24.482	55.9683
24.5	55.9714
24.518	55.9389
24.536	55.8761
24.554	55.7796
24.572	55.6437
24.59	55.4678
24.608	55.2541
24.626	55.0036
24.644	54.7152
24.662	54.3879
24.68	54.0291
24.698	53.6453
24.716	53.2315
24.734	52.7923
24.752	52.3359
24.77	51.8594
24.788	51.3628
24.806	50.8599
24.824	50.3586
24.842	49.8473
24.86	49.3424
24.878	48.8638
24.896	48.4038
24.914	47.9645
24.932	47.5641
24.95	47.2111
24.968	46.8935
24.986	46.6268
25.004	46.4276
25.022	46.2933
25.04	46.2202
25.058	46.2099
25.076	46.2674
25.094	46.3934
25.112	46.5727
25.13	46.7912
25.148	47.0655
25.166	47.381
25.184	47.7073
25.202	48.0351
25.22	48.3854
25.238	48.7212
25.256	49.0039
25.274	49.252
25.292	49.4605
25.31	49.5971
25.328	49.6423
25.346	49.6159
25.364	49.5059
25.382	49.2974
25.4	48.9839
25.418	48.5754
25.436	48.0826
25.454	47.5103
25.472	46.8399
25.49	46.0998
25.508	45.3263
25.526	44.5208
25.544	43.6668
25.562	42.8038
25.58	41.9687
25.598	41.1352
25.616	40.3156
25.634	39.5485
25.652	38.8571
25.67	38.2144
25.688	37.6404
25.706	37.1605
25.724	36.7757
25.742	36.4753
25.76	36.2755
25.778	36.1904
25.796	36.2054
25.814	36.3284
25.832	36.5805
25.85	36.9741
25.868	37.4911
25.886	38.1463
25.904	38.9591
25.922	39.9274
25.94	41.0392
25.958	42.3227
25.976	43.8067
25.994	45.4851
26.012	47.3504
26.03	49.4134
26.048	51.685
26.066	54.1699
26.084	56.8528
26.102	59.716
26.12	62.7562
26.138	66.0043
26.156	69.4089
26.174	72.9095
26.192	76.5069
26.21	80.2506
26.228	84.0364
26.246	87.7558
26.264	91.4373
26.282	95.1185
26.3	98.6717
26.318	101.972
26.336	105.087
26.354	108.019
26.372	110.65
26.39	112.875
26.408	114.763
26.426	116.304
26.444	117.425
26.462	118.06
26.48	118.244
26.498	117.987
26.516	117.286
26.534	116.128
26.552	114.488
26.57	112.418
26.588	109.979
26.606	107.198
26.624	103.994
26.642	100.464
26.66	96.7265
26.678	92.8319
26.696	88.6628
26.714	84.3395
26.732	80.0047
26.75	75.7194
26.768	71.3584
26.786	67.0319
26.804	62.869
26.822	58.925
26.84	55.0924
26.858	51.4541
26.876	48.1069
26.894	45.0991
26.912	42.3561
26.93	39.9153
26.948	37.8235
26.966	36.125
26.984	34.8118
27.002	33.8248
27.02	33.1041
27.028	32.8821