File: Bakgrunnsmateriale/MATLAB/FTIR/ftir_data/subBb/Mapping_121/C-4040-8_t14.asc
PE IR       SPECTRUM    SPECTRUM    ASCII       PEDS        1.60
  -1
C-B92A~1.ASC
17/03/27
15:36:10.00
17/03/27
15:36:36.00
tln
$C-4040-8_t0014$<tbV0>[7.8,-10.4,8.0,0.0,27,1,0]
27.028
64

2002,4.07
MIRTGS : RIGHTBACK : INTERNAL 2
MIR : ON : INTERNAL 2
OPTKBR

0.200000
8
8.000000
FILLER
RATIO
SPECTRUM
UNLOCKED 256

DOUBLE
64
COMBINED
1
0
0

0.002000
RATIO

1
0
TRUE
51149
0
LEFT NOT FITTED RIGHT NOT FITTED 0
NONE
NONE
15600
12
4.427000
51148
TRUE
1 0 8 72 0 0 0 0

15798

#HDR
-1
-1
#GR
µM
%T
2.38419e-05
0.0
2.000000
0.002000
12515
8
67.9638
11.8022
#DATA
2.000000	 63.0001
2.018000	 62.6681
2.036000	 63.2596
2.054000	 62.9635
2.072000	 62.6947
2.090000	 63.2072
2.108000	 62.9504
2.126000	 62.8384
2.144000	 62.7762
2.162000	 62.6842
2.180000	 62.3143
2.198000	 62.139
2.216000	 61.7864
2.234000	 62.5229
2.252000	 65.4315
2.270000	 60.1225
2.288000	 63.4233
2.306000	 61.5318
2.324000	 61.7349
2.342000	 61.3026
2.360000	 61.6705
2.378000	 61.6882
2.396000	 61.7923
2.414000	 61.4618
2.432000	 61.378
2.450000	 61.6075
2.468000	 61.5528
2.486000	 61.6643
2.504000	 61.3965
2.522000	 60.9713
2.540000	 60.9012
2.558000	 60.8688
2.576000	 60.9417
2.594000	 61.0841
2.612000	 60.6901
2.630000	 60.6958
2.648000	 60.2301
2.666000	 60.7568
2.684000	 60.3424
2.702000	 60.0288
2.720000	 60.3315
2.738000	 59.941
2.756000	 59.8965
2.774000	 59.4516
2.792000	 59.4893
2.810000	 59.3866
2.828000	 58.9496
2.846000	 58.8267
2.864000	 58.688
2.882000	 58.8695
2.900000	 58.6038
2.918000	 58.3152
2.936000	 58.1554
2.954000	 57.887
2.972000	 57.9706
2.990000	 57.7542
3.008000	 57.661
3.026000	 57.3759
3.044000	 57.2821
3.062000	 57.1484
3.080000	 57.0517
3.098000	 56.8224
3.116000	 56.7147
3.134000	 56.4283
3.152000	 56.1623
3.170000	 56.2442
3.188000	 55.9635
3.206000	 56.043
3.224000	 55.715
3.242000	 55.8397
3.260000	 55.5788
3.278000	 55.4534
3.296000	 55.1992
3.314000	 55.1834
3.332000	 54.7444
3.350000	 54.7973
3.368000	 54.6283
3.386000	 54.1946
3.404000	 54.236
3.422000	 53.8692
3.440000	 53.7918
3.458000	 53.7608
3.476000	 53.6133
3.494000	 53.5123
3.512000	 53.3241
3.530000	 53.2434
3.548000	 53.1337
3.566000	 52.9396
3.584000	 52.7904
3.602000	 52.6116
3.620000	 52.4101
3.638000	 52.402
3.656000	 52.1851
3.674000	 52.0141
3.692000	 51.763
3.710000	 51.7499
3.728000	 51.5974
3.746000	 51.3286
3.764000	 51.1447
3.782000	 50.9671
3.800000	 50.9434
3.818000	 50.7949
3.836000	 50.5997
3.854000	 50.5423
3.872000	 50.3252
3.890000	 50.1564
3.908000	 50.0859
3.926000	 49.9456
3.944000	 49.8753
3.962000	 49.7743
3.980000	 49.4459
3.998000	 49.3644
4.016000	 49.2394
4.034000	 49.0403
4.052000	 49.0503
4.070000	 48.8097
4.088000	 48.8218
4.106000	 48.7051
4.124000	 48.4054
4.141999	 48.3472
4.160000	 48.0848
4.178000	 48.0223
4.196000	 47.8797
4.214000	 47.7529
4.232000	 47.7435
4.250000	 47.5929
4.268000	 47.2537
4.286000	 47.2832
4.304000	 47.1075
4.322000	 47.0156
4.340000	 46.9975
4.358000	 46.7857
4.375999	 46.6074
4.394000	 46.4922
4.412000	 46.4419
4.430000	 46.3169
4.448000	 46.2009
4.466000	 46.0074
4.484000	 45.8937
4.502000	 45.8204
4.520000	 45.7121
4.538000	 45.5729
4.556000	 45.2907
4.574000	 45.2728
4.592000	 45.1323
4.609999	 45.0033
4.628000	 44.9377
4.646000	 44.9281
4.664000	 44.718
4.682000	 44.8031
4.700000	 44.4755
4.718000	 44.417
4.736000	 44.3363
4.754000	 44.2712
4.772000	 44.0474
4.790000	 43.9812
4.808000	 43.9043
4.826000	 43.6371
4.843999	 43.5863
4.862000	 43.3957
4.880000	 43.4329
4.898000	 43.3646
4.916000	 43.1818
4.934000	 43.1251
4.952000	 43.0601
4.970000	 42.9695
4.988000	 42.8545
5.006000	 42.648
5.024000	 42.721
5.042000	 42.6143
5.060000	 42.4507
5.077999	 42.3706
5.096000	 42.2769
5.114000	 42.1342
5.132000	 42.063
5.150000	 41.9892
5.168000	 41.8498
5.186000	 41.8606
5.204000	 41.7729
5.222000	 41.6196
5.240000	 41.5311
5.258000	 41.3606
5.276000	 41.3135
5.294000	 41.2583
5.312000	 41.0705
5.330000	 40.9984
5.348000	 40.9282
5.366000	 40.8254
5.384000	 40.7588
5.402000	 40.6674
5.420000	 40.7313
5.438000	 40.5746
5.456000	 40.4378
5.474000	 40.395
5.492000	 40.3318
5.510000	 40.2899
5.528000	 40.0827
5.546000	 39.9
5.564000	 39.9664
5.582000	 39.8941
5.600000	 39.8494
5.618000	 39.8541
5.636000	 39.7822
5.654000	 39.6268
5.672000	 39.5336
5.690000	 39.4104
5.708000	 39.2399
5.726000	 39.2338
5.744000	 39.2089
5.762000	 39.1972
5.780000	 39.105
5.798000	 38.9753
5.816000	 38.9893
5.834000	 38.8263
5.852000	 38.6455
5.870000	 38.7158
5.888000	 38.7974
5.906000	 38.6645
5.923999	 38.6041
5.942000	 38.5557
5.960000	 38.3373
5.978000	 38.2206
5.996000	 38.1776
6.014000	 38.1362
6.032000	 38.1838
6.050000	 38.3102
6.068000	 38.1706
6.086000	 37.8653
6.104000	 37.7689
6.122000	 37.7538
6.140000	 37.6174
6.158000	 37.5576
6.176000	 37.5779
6.194000	 37.5184
6.212000	 37.345
6.230000	 37.2
6.248000	 37.1016
6.266000	 37.0471
6.284000	 36.9633
6.302000	 36.861
6.320000	 36.8555
6.338000	 36.9405
6.356000	 36.9225
6.374000	 36.7687
6.392000	 36.7739
6.410000	 36.9152
6.428000	 36.8398
6.446000	 36.6002
6.464000	 36.4482
6.482000	 36.4744
6.500000	 36.4726
6.518000	 36.3206
6.536000	 36.2
6.554000	 36.2267
6.572000	 36.2886
6.590000	 36.245
6.608000	 36.2506
6.626000	 36.3167
6.644000	 36.2195
6.662000	 36.0422
6.680000	 35.9037
6.698000	 35.7609
6.716000	 35.6393
6.734000	 35.5363
6.752000	 35.4662
6.770000	 35.4542
6.788000	 35.4399
6.806000	 35.4027
6.824000	 35.3994
6.842000	 35.4135
6.860000	 35.397
6.878000	 35.3476
6.896000	 35.234
6.914000	 35.0342
6.932000	 34.8906
6.950000	 34.9005
6.968000	 34.9175
6.986000	 34.8348
7.004000	 34.7373
7.022000	 34.7231
7.040000	 34.7623
7.058000	 34.732
7.076000	 34.6022
7.094000	 34.4604
7.112000	 34.3889
7.130000	 34.397
7.148000	 34.4068
7.166000	 34.38
7.184000	 34.344
7.202000	 34.2657
7.220000	 34.1459
7.238000	 34.0677
7.256000	 34.0504
7.274000	 34.0629
7.292000	 34.0602
7.310000	 33.993
7.328000	 33.8992
7.346000	 33.84
7.364000	 33.8003
7.382000	 33.7715
7.400000	 33.7562
7.418000	 33.7062
7.436000	 33.5958
7.454000	 33.4829
7.472000	 33.4225
7.490000	 33.3883
7.508000	 33.3423
7.526000	 33.308
7.544000	 33.2957
7.562000	 33.2733
7.580000	 33.2378
7.598000	 33.1957
7.616000	 33.1285
7.634000	 33.0557
7.652000	 33.0206
7.670000	 33.013
7.688000	 33.005
7.706000	 32.9945
7.724000	 32.9688
7.742000	 32.9081
7.760000	 32.821
7.778000	 32.7223
7.796000	 32.6251
7.814000	 32.5617
7.832000	 32.5389
7.850000	 32.5135
7.868000	 32.4742
7.886000	 32.4678
7.904000	 32.4959
7.922000	 32.4901
7.940000	 32.4187
7.958000	 32.3244
7.976000	 32.2597
7.994000	 32.2409
8.012000	 32.2457
8.030000	 32.2218
8.048000	 32.1408
8.065999	 32.0494
8.084000	 32.018
8.102000	 32.0382
8.120000	 32.0333
8.138000	 31.9804
8.155999	 31.9491
8.173999	 31.9874
8.192000	 32.0365
8.210000	 32.0107
8.228000	 31.91
8.246000	 31.8142
8.263999	 31.784
8.282000	 31.8009
8.300000	 31.7972
8.318000	 31.7326
8.336000	 31.6314
8.353999	 31.5448
8.372000	 31.4951
8.390000	 31.4659
8.408000	 31.4377
8.426000	 31.4064
8.443999	 31.3725
8.462000	 31.3296
8.480000	 31.2726
8.498000	 31.2099
8.516000	 31.1648
8.533999	 31.1582
8.552000	 31.1838
8.570000	 31.2083
8.588000	 31.2001
8.606000	 31.1534
8.624000	 31.0861
8.641999	 31.0239
8.660000	 30.9876
8.678000	 30.9813
8.696000	 30.9866
8.714000	 30.9797
8.731999	 30.9561
8.750000	 30.9272
8.768000	 30.8923
8.786000	 30.8332
8.804000	 30.7473
8.821999	 30.6671
8.840000	 30.6292
8.858000	 30.6292
8.876000	 30.6285
8.894000	 30.5966
8.911999	 30.5399
8.930000	 30.4849
8.948000	 30.4506
8.966000	 30.4369
8.984000	 30.4311
9.001999	 30.4145
9.020000	 30.3703
9.038000	 30.2915
9.056000	 30.1846
9.074000	 30.068
9.092000	 29.9676
9.109999	 29.9126
9.128000	 29.9264
9.146000	 30.0119
9.164000	 30.1374
9.182000	 30.2425
9.199999	 30.2678
9.218000	 30.189
9.236000	 30.0332
9.254000	 29.8623
9.272000	 29.736
9.289999	 29.6815
9.308000	 29.6854
9.326000	 29.7123
9.344000	 29.7318
9.362000	 29.7362
9.379999	 29.7372
9.398000	 29.7488
9.416000	 29.7721
9.434000	 29.7929
9.452000	 29.794
9.469999	 29.7685
9.488000	 29.7237
9.506000	 29.6721
9.524000	 29.6215
9.542000	 29.5685
9.560000	 29.5046
9.577999	 29.4269
9.596000	 29.3437
9.614000	 29.2693
9.632000	 29.2137
9.650000	 29.1784
9.667999	 29.1601
9.686000	 29.1537
9.704000	 29.1513
9.722000	 29.1397
9.740000	 29.1049
9.757999	 29.0464
9.776000	 28.9839
9.794000	 28.9459
9.812000	 28.9461
9.830000	 28.9715
9.847999	 28.9927
9.866000	 28.985
9.884000	 28.9438
9.902000	 28.885
9.920000	 28.8332
9.937999	 28.8094
9.956000	 28.8205
9.974000	 28.8571
9.992000	 28.8959
10.01	28.9085
10.028	28.8759
10.046	28.7984
10.064	28.6919
10.082	28.5777
10.1	28.4723
10.118	28.3848
10.136	28.3194
10.154	28.2789
10.172	28.2628
10.19	28.2648
10.208	28.2722
10.226	28.2719
10.244	28.2557
10.262	28.2234
10.28	28.1811
10.298	28.1383
10.316	28.1069
10.334	28.0979
10.352	28.1169
10.37	28.1586
10.388	28.2025
10.406	28.2211
10.424	28.1908
10.442	28.1071
10.46	27.9862
10.478	27.8566
10.496	27.7451
10.514	27.6658
10.532	27.6195
10.55	27.5989
10.568	27.5959
10.586	27.6063
10.604	27.6291
10.622	27.6624
10.64	27.7007
10.658	27.7344
10.676	27.7537
10.694	27.7528
10.712	27.7324
10.73	27.701
10.748	27.6704
10.766	27.6491
10.784	27.6399
10.802	27.6385
10.82	27.6374
10.838	27.6322
10.856	27.6216
10.874	27.608
10.892	27.5941
10.91	27.5799
10.928	27.5606
10.946	27.5266
10.964	27.4646
10.982	27.3617
11	27.2114
11.018	27.0179
11.036	26.8007
11.054	26.5941
11.072	26.4362
11.09	26.3621
11.108	26.3883
11.126	26.5073
11.144	26.6911
11.162	26.8953
11.18	27.0786
11.198	27.2086
11.216	27.2694
11.234	27.2616
11.252	27.1966
11.27	27.092
11.288	26.9699
11.306	26.8524
11.324	26.7605
11.342	26.7093
11.36	26.7037
11.378	26.7367
11.396	26.7925
11.414	26.8505
11.432	26.8949
11.45	26.9197
11.468	26.9268
11.486	26.9205
11.504	26.9025
11.522	26.8698
11.54	26.8156
11.558	26.7348
11.576	26.6277
11.594	26.5021
11.612	26.3712
11.63	26.2506
11.648	26.1532
11.666	26.0863
11.684	26.0484
11.702	26.0304
11.72	26.0181
11.738	25.9957
11.756	25.9513
11.774	25.8802
11.792	25.787
11.81	25.6839
11.828	25.5866
11.846	25.5103
11.864	25.4642
11.882	25.4488
11.9	25.4577
11.918	25.4802
11.936	25.5054
11.954	25.525
11.972	25.5344
11.99	25.5332
12.008	25.5231
12.026	25.5073
12.044	25.4898
12.062	25.4745
12.08	25.4655
12.098	25.4666
12.116	25.479
12.134	25.5
12.152	25.5234
12.17	25.5412
12.188	25.5457
12.206	25.5325
12.224	25.5017
12.242	25.4577
12.26	25.4075
12.278	25.3597
12.296	25.3209
12.314	25.2955
12.332	25.2836
12.35	25.2822
12.368	25.2844
12.386	25.2824
12.404	25.2688
12.422	25.2394
12.44	25.1935
12.458	25.135
12.476	25.0713
12.494	25.0112
12.512	24.9622
12.53	24.9285
12.548	24.9099
12.566	24.9025
12.584	24.9014
12.602	24.903
12.62	24.9061
12.638	24.9125
12.656	24.9256
12.674	24.9476
12.692	24.978
12.71	25.0127
12.728	25.0441
12.746	25.0639
12.764	25.065
12.782	25.0441
12.8	25.0024
12.818	24.9456
12.836	24.8818
12.854	24.8187
12.872	24.7625
12.89	24.7158
12.908	24.6781
12.926	24.6469
12.944	24.6193
12.962	24.5929
12.98	24.5672
12.998	24.543
13.016	24.5221
13.034	24.5068
13.052	24.4982
13.07	24.4959
13.088	24.4981
13.106	24.5012
13.124	24.5016
13.142	24.4959
13.16	24.4823
13.178	24.4606
13.196	24.4318
13.214	24.3979
13.232	24.3605
13.25	24.3207
13.268	24.2786
13.286	24.2342
13.304	24.1883
13.322	24.1431
13.34	24.102
13.358	24.0694
13.376	24.0498
13.394	24.0463
13.412	24.0591
13.43	24.0846
13.448	24.1158
13.466	24.1438
13.484	24.1595
13.502	24.1561
13.52	24.1311
13.538	24.0865
13.556	24.0288
13.574	23.9671
13.592	23.9106
13.61	23.8669
13.628	23.8399
13.646	23.8293
13.664	23.8304
13.682	23.8365
13.7	23.8393
13.718	23.8308
13.736	23.8052
13.754	23.7589
13.772	23.6919
13.79	23.6069
13.808	23.5088
13.826	23.4039
13.844	23.2992
13.862	23.2012
13.88	23.1156
13.898	23.0464
13.916	22.9959
13.934	22.9645
13.952	22.9506
13.97	22.9509
13.988	22.9609
14.006	22.9754
14.024	22.9898
14.042	23.0001
14.06	23.0037
14.078	23.0002
14.096	22.9907
14.114	22.978
14.132	22.9657
14.15	22.9574
14.168	22.9567
14.186	22.9658
14.204	22.9858
14.222	23.0157
14.24	23.0527
14.258	23.0923
14.276	23.1296
14.294	23.1598
14.312	23.1785
14.33	23.1826
14.348	23.1706
14.366	23.1427
14.384	23.1007
14.402	23.0473
14.42	22.9859
14.438	22.92
14.456	22.8528
14.474	22.7869
14.492	22.7242
14.51	22.6659
14.528	22.6128
14.546	22.5653
14.564	22.5234
14.582	22.4868
14.6	22.4547
14.618	22.4263
14.636	22.4001
14.654	22.3751
14.672	22.3498
14.69	22.3228
14.708	22.2931
14.726	22.2605
14.744	22.2257
14.762	22.1899
14.78	22.1549
14.798	22.1224
14.816	22.0946
14.834	22.0728
14.852	22.0579
14.87	22.0494
14.888	22.0463
14.906	22.0471
14.924	22.0497
14.942	22.0519
14.96	22.0521
14.978	22.0495
14.996	22.0438
15.014	22.0356
15.032	22.0262
15.05	22.0169
15.068	22.0091
15.086	22.0034
15.104	22.0003
15.122	21.9992
15.14	21.9988
15.158	21.9968
15.176	21.991
15.194	21.979
15.212	21.9587
15.23	21.9288
15.248	21.8888
15.266	21.8389
15.284	21.7802
15.302	21.7148
15.32	21.6451
15.338	21.5735
15.356	21.5028
15.374	21.4356
15.392	21.3735
15.41	21.318
15.428	21.2703
15.446	21.2308
15.464	21.1993
15.482	21.1755
15.5	21.1587
15.518	21.1474
15.536	21.1406
15.554	21.1369
15.572	21.1345
15.59	21.1319
15.608	21.1282
15.626	21.1224
15.644	21.1141
15.662	21.1032
15.68	21.0905
15.698	21.0766
15.716	21.0633
15.734	21.0521
15.752	21.0448
15.77	21.0427
15.788	21.0475
15.806	21.0596
15.824	21.0793
15.842	21.106
15.86	21.1383
15.878	21.1743
15.896	21.2119
15.914	21.2481
15.932	21.2798
15.95	21.305
15.968	21.3209
15.986	21.3255
16.004	21.3181
16.022	21.2979
16.04	21.2654
16.058	21.2218
16.076	21.1683
16.094	21.1071
16.112	21.0405
16.13	20.9702
16.148	20.8989
16.166	20.8285
16.184	20.7602
16.202	20.6952
16.22	20.6343
16.238	20.5775
16.256	20.525
16.274	20.4765
16.292	20.4319
16.31	20.3913
16.328	20.3548
16.346	20.3227
16.364	20.2951
16.382	20.2729
16.4	20.2568
16.418	20.2475
16.436	20.2457
16.454	20.2511
16.472	20.2635
16.49	20.2822
16.508	20.3056
16.526	20.3328
16.544	20.361
16.562	20.3881
16.58	20.4122
16.598	20.4304
16.616	20.4411
16.634	20.4429
16.652	20.4346
16.67	20.4162
16.688	20.3877
16.706	20.3504
16.724	20.3055
16.742	20.2545
16.76	20.2003
16.778	20.1441
16.796	20.0884
16.814	20.035
16.832	19.9852
16.85	19.9404
16.868	19.901
16.886	19.8673
16.904	19.8389
16.922	19.815
16.94	19.7951
16.958	19.7772
16.976	19.7606
16.994	19.7435
17.012	19.7248
17.03	19.7035
17.048	19.6783
17.066	19.6488
17.084	19.6144
17.102	19.5748
17.12	19.5302
17.138	19.4806
17.156	19.4263
17.174	19.3676
17.192	19.305
17.21	19.2389
17.228	19.1701
17.246	19.0992
17.264	19.0268
17.282	18.9547
17.3	18.8835
17.318	18.815
17.336	18.7508
17.354	18.6919
17.372	18.6408
17.39	18.598
17.408	18.5654
17.426	18.5433
17.444	18.5323
17.462	18.5323
17.48	18.5427
17.498	18.5623
17.516	18.5896
17.534	18.6232
17.552	18.6601
17.57	18.6992
17.588	18.7369
17.606	18.7722
17.624	18.8025
17.642	18.8262
17.66	18.8424
17.678	18.8498
17.696	18.8486
17.714	18.8387
17.732	18.821
17.75	18.7959
17.768	18.7655
17.786	18.7302
17.804	18.6928
17.822	18.6538
17.84	18.6151
17.858	18.5773
17.876	18.5416
17.894	18.5082
17.912	18.4772
17.93	18.4486
17.948	18.4222
17.966	18.3973
17.984	18.3735
18.002	18.3503
18.02	18.3274
18.038	18.3043
18.056	18.2811
18.074	18.2576
18.092	18.2343
18.11	18.2114
18.128	18.1896
18.146	18.1691
18.164	18.1506
18.182	18.1342
18.2	18.1203
18.218	18.109
18.236	18.1003
18.254	18.0942
18.272	18.0906
18.29	18.0892
18.308	18.0899
18.326	18.0922
18.344	18.0959
18.362	18.1006
18.38	18.1062
18.398	18.1121
18.416	18.1183
18.434	18.1247
18.452	18.1309
18.47	18.1366
18.488	18.1415
18.506	18.1454
18.524	18.1472
18.542	18.147
18.56	18.1435
18.578	18.1366
18.596	18.1253
18.614	18.1096
18.632	18.0885
18.65	18.0623
18.668	18.0309
18.686	17.9946
18.704	17.9541
18.722	17.9098
18.74	17.8634
18.758	17.8155
18.776	17.7682
18.794	17.7221
18.812	17.6793
18.83	17.6403
18.848	17.6071
18.866	17.5795
18.884	17.5585
18.902	17.5433
18.92	17.5339
18.938	17.5289
18.956	17.5268
18.974	17.5261
18.992	17.5243
19.01	17.5197
19.028	17.5093
19.046	17.4918
19.064	17.4641
19.082	17.4259
19.1	17.3745
19.118	17.3104
19.136	17.2328
19.154	17.1428
19.172	17.0413
19.19	16.9299
19.208	16.8121
19.226	16.6889
19.244	16.5657
19.262	16.443
19.28	16.3273
19.298	16.2184
19.316	16.1224
19.334	16.0388
19.352	15.9721
19.37	15.9218
19.388	15.8896
19.406	15.8754
19.424	15.878
19.442	15.8976
19.46	15.9302
19.478	15.9761
19.496	16.0305
19.514	16.0926
19.532	16.1582
19.55	16.2249
19.568	16.2905
19.586	16.3519
19.604	16.4083
19.622	16.4567
19.64	16.4974
19.658	16.5289
19.676	16.5516
19.694	16.5657
19.712	16.571
19.73	16.5697
19.748	16.5615
19.766	16.5488
19.784	16.532
19.802	16.5127
19.82	16.4921
19.838	16.4709
19.856	16.4504
19.874	16.4306
19.892	16.4125
19.91	16.3958
19.928	16.3804
19.946	16.3666
19.964	16.3533
19.982	16.3408
20	16.328
20.018	16.3147
20.036	16.3004
20.054	16.2842
20.072	16.2662
20.09	16.2456
20.108	16.2224
20.126	16.1963
20.144	16.167
20.162	16.135
20.18	16.1001
20.198	16.0628
20.216	16.0233
20.234	15.9819
20.252	15.9397
20.27	15.8964
20.288	15.8536
20.306	15.811
20.324	15.7699
20.342	15.7308
20.36	15.6942
20.378	15.6613
20.396	15.6319
20.414	15.6074
20.432	15.5877
20.45	15.5732
20.468	15.5645
20.486	15.5614
20.504	15.5638
20.522	15.5717
20.54	15.5841
20.558	15.6012
20.576	15.6212
20.594	15.6439
20.612	15.6683
20.63	15.6921
20.648	15.7159
20.666	15.7367
20.684	15.7549
20.702	15.7688
20.72	15.777
20.738	15.7798
20.756	15.7757
20.774	15.765
20.792	15.7476
20.81	15.7232
20.828	15.6925
20.846	15.6564
20.864	15.6147
20.882	15.5697
20.9	15.5211
20.918	15.4707
20.936	15.4199
20.954	15.3687
20.972	15.3197
20.99	15.2723
21.008	15.228
21.026	15.1876
21.044	15.1509
21.062	15.1186
21.08	15.0907
21.098	15.0667
21.116	15.0469
21.134	15.0307
21.152	15.0172
21.17	15.0068
21.188	14.9978
21.206	14.9903
21.224	14.9836
21.242	14.9765
21.26	14.9692
21.278	14.9607
21.296	14.9508
21.314	14.9393
21.332	14.9258
21.35	14.9104
21.368	14.893
21.386	14.8735
21.404	14.8522
21.422	14.8292
21.44	14.8045
21.458	14.7784
21.476	14.751
21.494	14.7224
21.512	14.6929
21.53	14.6625
21.548	14.6312
21.566	14.599
21.584	14.5659
21.602	14.5319
21.62	14.497
21.638	14.4611
21.656	14.4244
21.674	14.3867
21.692	14.3484
21.71	14.3092
21.728	14.2695
21.746	14.2298
21.764	14.1896
21.782	14.1499
21.8	14.1109
21.818	14.0725
21.836	14.0358
21.854	14.0006
21.872	13.9674
21.89	13.937
21.908	13.9092
21.926	13.8847
21.944	13.8638
21.962	13.8464
21.98	13.8331
21.998	13.824
22.016	13.819
22.034	13.8178
22.052	13.8207
22.07	13.8273
22.088	13.8374
22.106	13.851
22.124	13.8675
22.142	13.8867
22.16	13.9085
22.178	13.9322
22.196	13.9579
22.214	13.9852
22.232	14.0133
22.25	14.0425
22.268	14.0724
22.286	14.1026
22.304	14.1334
22.322	14.1645
22.34	14.196
22.358	14.2277
22.376	14.2597
22.394	14.292
22.412	14.3244
22.43	14.357
22.448	14.3898
22.466	14.4223
22.484	14.4545
22.502	14.4864
22.52	14.5172
22.538	14.5466
22.556	14.5748
22.574	14.6007
22.592	14.6244
22.61	14.6458
22.628	14.6639
22.646	14.6791
22.664	14.6911
22.682	14.6989
22.7	14.7029
22.718	14.7029
22.736	14.6984
22.754	14.6894
22.772	14.6766
22.79	14.6604
22.808	14.6405
22.826	14.6182
22.844	14.5945
22.862	14.5686
22.88	14.5421
22.898	14.5157
22.916	14.4889
22.934	14.4628
22.952	14.4378
22.97	14.4136
22.988	14.3916
23.006	14.3723
23.024	14.3553
23.042	14.3412
23.06	14.3303
23.078	14.3222
23.096	14.3157
23.114	14.3114
23.132	14.3085
23.15	14.3054
23.168	14.3021
23.186	14.2986
23.204	14.2933
23.222	14.2865
23.24	14.278
23.258	14.2665
23.276	14.252
23.294	14.2346
23.312	14.2139
23.33	14.1898
23.348	14.1623
23.366	14.1319
23.384	14.0981
23.402	14.0613
23.42	14.0225
23.438	13.9813
23.456	13.9381
23.474	13.8937
23.492	13.8482
23.51	13.8015
23.528	13.7546
23.546	13.7081
23.564	13.6614
23.582	13.6149
23.6	13.5687
23.618	13.5227
23.636	13.4763
23.654	13.4292
23.672	13.3818
23.69	13.3328
23.708	13.2814
23.726	13.2283
23.744	13.1725
23.762	13.1129
23.78	13.0501
23.798	12.9836
23.816	12.9128
23.834	12.8376
23.852	12.7585
23.87	12.676
23.888	12.5889
23.906	12.4989
23.924	12.409
23.942	12.3179
23.96	12.2266
23.978	12.1405
23.996	12.0604
24.014	11.9846
24.032	11.9197
24.05	11.8691
24.068	11.8292
24.086	11.8056
24.104	11.8042
24.122	11.8218
24.14	11.8603
24.158	11.9236
24.176	12.011
24.194	12.1221
24.212	12.2581
24.23	12.4201
24.248	12.6071
24.266	12.8169
24.284	13.0489
24.302	13.3042
24.32	13.5797
24.338	13.8728
24.356	14.186
24.374	14.516
24.392	14.8581
24.41	15.2131
24.428	15.5811
24.446	15.9578
24.464	16.341
24.482	16.7327
24.5	17.132
24.518	17.5383
24.536	17.9517
24.554	18.3723
24.572	18.8002
24.59	19.2357
24.608	19.6784
24.626	20.1272
24.644	20.5825
24.662	21.0449
24.68	21.5111
24.698	21.9786
24.716	22.4505
24.734	22.9231
24.752	23.3907
24.77	23.8551
24.788	24.3165
24.806	24.7661
24.824	25.1985
24.842	25.6204
24.86	26.0236
24.878	26.3984
24.896	26.7487
24.914	27.0735
24.932	27.363
24.95	27.612
24.968	27.8262
24.986	28.001
25.004	28.1315
25.022	28.219
25.04	28.2643
25.058	28.2659
25.076	28.2222
25.094	28.1335
25.112	28.0039
25.13	27.8367
25.148	27.628
25.166	27.3815
25.184	27.105
25.202	26.8006
25.22	26.4631
25.238	26.1026
25.256	25.7296
25.274	25.3383
25.292	24.9311
25.31	24.5186
25.328	24.1064
25.346	23.6874
25.364	23.2687
25.382	22.8587
25.4	22.4558
25.418	22.0587
25.436	21.6729
25.454	21.3028
25.472	20.9448
25.49	20.6006
25.508	20.2733
25.526	19.9639
25.544	19.6709
25.562	19.3944
25.58	19.1349
25.598	18.8922
25.616	18.6661
25.634	18.4566
25.652	18.2634
25.67	18.0865
25.688	17.9261
25.706	17.7822
25.724	17.6536
25.742	17.5406
25.76	17.4462
25.778	17.3728
25.796	17.3167
25.814	17.2806
25.832	17.2708
25.85	17.2901
25.868	17.3321
25.886	17.4043
25.904	17.5162
25.922	17.6686
25.94	17.8559
25.958	18.0873
25.976	18.3717
25.994	18.7052
26.012	19.087
26.03	19.5245
26.048	20.0244
26.066	20.5827
26.084	21.1992
26.102	21.8763
26.12	22.6164
26.138	23.4193
26.156	24.2813
26.174	25.1984
26.192	26.1721
26.21	27.2062
26.228	28.2886
26.246	29.4067
26.264	30.5651
26.282	31.7673
26.3	32.9956
26.318	34.2324
26.336	35.4887
26.354	36.7634
26.372	38.0369
26.39	39.2915
26.408	40.5423
26.426	41.7838
26.444	42.9973
26.462	44.1675
26.48	45.3085
26.498	46.4149
26.516	47.4737
26.534	48.4756
26.552	49.4308
26.57	50.3348
26.588	51.1798
26.606	51.9604
26.624	52.6826
26.642	53.3445
26.66	53.9434
26.678	54.4767
26.696	54.9456
26.714	55.3527
26.732	55.7003
26.75	55.9888
26.768	56.2157
26.786	56.3854
26.804	56.5031
26.822	56.5695
26.84	56.5786
26.858	56.5399
26.876	56.4636
26.894	56.3525
26.912	56.1958
26.93	56.0069
26.948	55.8006
26.966	55.5723
26.984	55.2925
27.002	55.0135
27.02	54.7931
27.028	54.7353