File: Bakgrunnsmateriale/MATLAB/FTIR/ftir_data/subBb/Mapping_121/C-4040-8_t106.asc
PE IR       SPECTRUM    SPECTRUM    ASCII       PEDS        1.60
  -1
C-84D6~1.ASC
17/03/27
23:10:29.00
17/03/27
23:10:55.00
tln
$C-4040-8_t0106$<tbV0>[-2.6,10.4,8.0,0.0,27,1,0]
27.028
64

2002,4.07
MIRTGS : RIGHTBACK : INTERNAL 2
MIR : ON : INTERNAL 2
OPTKBR

0.200000
8
8.000000
FILLER
RATIO
SPECTRUM
UNLOCKED 256

DOUBLE
64
COMBINED
1
0
0

0.002000
RATIO

1
0
TRUE
51149
0
LEFT NOT FITTED RIGHT NOT FITTED 0
NONE
NONE
15600
12
4.427000
51148
TRUE
1 0 8 72 0 0 0 0

15798

#HDR
-1
-1
#GR
µM
%T
2.38419e-05
0.0
2.000000
0.002000
12515
8
180.946
22.6701
#DATA
2.000000	 65.4725
2.018000	 65.9662
2.036000	 65.5985
2.054000	 65.0589
2.072000	 65.1709
2.090000	 65.4403
2.108000	 64.6601
2.126000	 65.407
2.144000	 65.054
2.162000	 65.6797
2.180000	 65.2495
2.198000	 65.1815
2.216000	 64.9001
2.234000	 64.6406
2.252000	 64.8568
2.270000	 65.1146
2.288000	 65.886
2.306000	 64.9094
2.324000	 64.6174
2.342000	 65.1714
2.360000	 65.1222
2.378000	 64.9649
2.396000	 64.3542
2.414000	 65.2383
2.432000	 65.1359
2.450000	 65.3138
2.468000	 65.3063
2.486000	 65.0991
2.504000	 65.1877
2.522000	 65.3737
2.540000	 65.3415
2.558000	 65.2896
2.576000	 65.0121
2.594000	 65.2139
2.612000	 64.9446
2.630000	 65.0213
2.648000	 64.9929
2.666000	 65.3371
2.684000	 65.4553
2.702000	 65.3702
2.720000	 65.2663
2.738000	 65.3877
2.756000	 65.2938
2.774000	 65.2959
2.792000	 65.4195
2.810000	 65.5719
2.828000	 65.3707
2.846000	 65.4818
2.864000	 65.2582
2.882000	 65.3987
2.900000	 65.0979
2.918000	 65.4005
2.936000	 65.3949
2.954000	 65.183
2.972000	 65.1975
2.990000	 65.397
3.008000	 65.3136
3.026000	 65.144
3.044000	 65.1896
3.062000	 65.2758
3.080000	 65.2684
3.098000	 65.3287
3.116000	 65.3947
3.134000	 65.1646
3.152000	 65.3876
3.170000	 65.2583
3.188000	 64.9672
3.206000	 65.0169
3.224000	 65.6023
3.242000	 65.1934
3.260000	 65.2294
3.278000	 65.219
3.296000	 65.5427
3.314000	 65.3336
3.332000	 65.3545
3.350000	 65.1809
3.368000	 65.2036
3.386000	 65.2631
3.404000	 65.3943
3.422000	 64.9982
3.440000	 65.2173
3.458000	 65.087
3.476000	 65.1423
3.494000	 65.1507
3.512000	 65.1275
3.530000	 65.3217
3.548000	 65.1939
3.566000	 65.2504
3.584000	 65.4136
3.602000	 65.2981
3.620000	 65.2419
3.638000	 65.2695
3.656000	 65.4605
3.674000	 65.3761
3.692000	 65.3709
3.710000	 65.3519
3.728000	 65.3305
3.746000	 65.3566
3.764000	 65.3386
3.782000	 65.3113
3.800000	 65.2482
3.818000	 65.3491
3.836000	 65.3029
3.854000	 65.2213
3.872000	 65.2692
3.890000	 65.2608
3.908000	 65.3052
3.926000	 65.2166
3.944000	 65.4036
3.962000	 65.216
3.980000	 65.3981
3.998000	 65.4295
4.016000	 65.512
4.034000	 65.3771
4.052000	 65.4171
4.070000	 65.3406
4.088000	 65.212
4.106000	 65.2172
4.124000	 65.4145
4.141999	 65.0726
4.160000	 65.6532
4.178000	 65.3276
4.196000	 65.3385
4.214000	 65.3528
4.232000	 65.3964
4.250000	 65.3014
4.268000	 65.3294
4.286000	 65.2627
4.304000	 65.3526
4.322000	 65.395
4.340000	 65.3206
4.358000	 65.3693
4.375999	 65.3741
4.394000	 65.4219
4.412000	 65.3488
4.430000	 65.4545
4.448000	 65.3834
4.466000	 65.3031
4.484000	 65.4212
4.502000	 65.4641
4.520000	 65.375
4.538000	 65.3217
4.556000	 65.4175
4.574000	 65.473
4.592000	 65.441
4.609999	 65.4942
4.628000	 65.6556
4.646000	 65.4884
4.664000	 65.5017
4.682000	 65.249
4.700000	 65.4522
4.718000	 65.3405
4.736000	 65.4062
4.754000	 65.3449
4.772000	 65.3441
4.790000	 65.1217
4.808000	 65.2417
4.826000	 65.5782
4.843999	 65.5066
4.862000	 65.328
4.880000	 65.3582
4.898000	 65.3751
4.916000	 65.4052
4.934000	 65.4547
4.952000	 65.3525
4.970000	 65.3747
4.988000	 65.305
5.006000	 65.3228
5.024000	 65.241
5.042000	 65.3186
5.060000	 65.3614
5.077999	 65.384
5.096000	 65.3032
5.114000	 65.3162
5.132000	 65.2961
5.150000	 65.4076
5.168000	 65.5267
5.186000	 65.5203
5.204000	 65.2526
5.222000	 65.2467
5.240000	 65.1973
5.258000	 65.3305
5.276000	 65.3671
5.294000	 65.384
5.312000	 65.3812
5.330000	 65.3205
5.348000	 65.3877
5.366000	 65.345
5.384000	 65.4098
5.402000	 65.4516
5.420000	 65.4142
5.438000	 65.3981
5.456000	 65.4086
5.474000	 65.4314
5.492000	 65.3911
5.510000	 65.3781
5.528000	 65.2848
5.546000	 65.3024
5.564000	 65.3849
5.582000	 65.4082
5.600000	 65.3843
5.618000	 65.3565
5.636000	 65.4007
5.654000	 65.369
5.672000	 65.3343
5.690000	 65.2158
5.708000	 65.1823
5.726000	 65.2555
5.744000	 65.2338
5.762000	 65.1642
5.780000	 65.1664
5.798000	 65.007
5.816000	 64.9038
5.834000	 65.0674
5.852000	 65.2859
5.870000	 65.2588
5.888000	 65.1337
5.906000	 65.1505
5.923999	 65.1486
5.942000	 65.097
5.960000	 65.1947
5.978000	 65.3817
5.996000	 65.3755
6.014000	 65.2601
6.032000	 65.1721
6.050000	 65.1493
6.068000	 65.2511
6.086000	 65.297
6.104000	 65.3091
6.122000	 65.263
6.140000	 65.133
6.158000	 65.1509
6.176000	 65.2005
6.194000	 65.1768
6.212000	 65.1908
6.230000	 65.1943
6.248000	 65.1936
6.266000	 65.1068
6.284000	 65.0075
6.302000	 65.0116
6.320000	 65.0505
6.338000	 65.0884
6.356000	 65.0528
6.374000	 65.0189
6.392000	 65.0667
6.410000	 65.0752
6.428000	 65.0499
6.446000	 65.0789
6.464000	 65.1741
6.482000	 65.2388
6.500000	 65.1745
6.518000	 65.0981
6.536000	 65.0825
6.554000	 65.077
6.572000	 65.0319
6.590000	 65.0495
6.608000	 65.1266
6.626000	 65.1343
6.644000	 65.178
6.662000	 65.3302
6.680000	 65.435
6.698000	 65.3499
6.716000	 65.2042
6.734000	 65.1228
6.752000	 65.0654
6.770000	 65.0517
6.788000	 65.1571
6.806000	 65.3033
6.824000	 65.3487
6.842000	 65.26
6.860000	 65.1037
6.878000	 65.0469
6.896000	 65.1345
6.914000	 65.2639
6.932000	 65.3125
6.950000	 65.164
6.968000	 64.9749
6.986000	 64.9711
7.004000	 65.068
7.022000	 65.0996
7.040000	 65.0836
7.058000	 65.0902
7.076000	 65.1102
7.094000	 65.1455
7.112000	 65.1965
7.130000	 65.2405
7.148000	 65.2844
7.166000	 65.2747
7.184000	 65.1567
7.202000	 65.0262
7.220000	 64.9698
7.238000	 64.9676
7.256000	 65.0187
7.274000	 65.0842
7.292000	 65.0617
7.310000	 64.9824
7.328000	 64.9674
7.346000	 65.0275
7.364000	 65.097
7.382000	 65.1241
7.400000	 65.1085
7.418000	 65.1107
7.436000	 65.1379
7.454000	 65.1116
7.472000	 65.0219
7.490000	 64.96
7.508000	 64.9753
7.526000	 65.0348
7.544000	 65.0897
7.562000	 65.092
7.580000	 65.0007
7.598000	 64.849
7.616000	 64.7551
7.634000	 64.7961
7.652000	 64.9277
7.670000	 65.0509
7.688000	 65.1155
7.706000	 65.1295
7.724000	 65.1089
7.742000	 65.0756
7.760000	 65.0796
7.778000	 65.1315
7.796000	 65.15
7.814000	 65.0852
7.832000	 65.0075
7.850000	 64.9814
7.868000	 64.9695
7.886000	 64.9373
7.904000	 64.9279
7.922000	 64.9844
7.940000	 65.0787
7.958000	 65.1418
7.976000	 65.133
7.994000	 65.0719
8.012000	 65.0098
8.030000	 64.9772
8.048000	 64.9658
8.065999	 64.9528
8.084000	 64.9266
8.102000	 64.899
8.120000	 64.8973
8.138000	 64.934
8.155999	 64.9853
8.173999	 65.0175
8.192000	 65.0239
8.210000	 65.0153
8.228000	 64.9932
8.246000	 64.9607
8.263999	 64.9402
8.282000	 64.9496
8.300000	 64.9774
8.318000	 65.0033
8.336000	 65.0212
8.353999	 65.0273
8.372000	 65.0089
8.390000	 64.9667
8.408000	 64.9264
8.426000	 64.9173
8.443999	 64.9492
8.462000	 65.0116
8.480000	 65.0757
8.498000	 65.1012
8.516000	 65.0682
8.533999	 65.0021
8.552000	 64.9473
8.570000	 64.9195
8.588000	 64.9018
8.606000	 64.8851
8.624000	 64.8839
8.641999	 64.9049
8.660000	 64.9234
8.678000	 64.9108
8.696000	 64.8732
8.714000	 64.8449
8.731999	 64.8451
8.750000	 64.859
8.768000	 64.8608
8.786000	 64.8426
8.804000	 64.8156
8.821999	 64.7957
8.840000	 64.7957
8.858000	 64.8221
8.876000	 64.8695
8.894000	 64.9179
8.911999	 64.9436
8.930000	 64.9379
8.948000	 64.9142
8.966000	 64.8969
8.984000	 64.8997
9.001999	 64.9139
9.020000	 64.9171
9.038000	 64.8873
9.056000	 64.8141
9.074000	 64.708
9.092000	 64.6016
9.109999	 64.534
9.128000	 64.524
9.146000	 64.5605
9.164000	 64.6209
9.182000	 64.6961
9.199999	 64.7839
9.218000	 64.8642
9.236000	 64.9015
9.254000	 64.8817
9.272000	 64.833
9.289999	 64.7994
9.308000	 64.7954
9.326000	 64.7954
9.344000	 64.7683
9.362000	 64.7145
9.379999	 64.6641
9.398000	 64.643
9.416000	 64.6503
9.434000	 64.6653
9.452000	 64.6706
9.469999	 64.6693
9.488000	 64.6792
9.506000	 64.7143
9.524000	 64.7697
9.542000	 64.8247
9.560000	 64.8564
9.577999	 64.8491
9.596000	 64.7968
9.614000	 64.7024
9.632000	 64.5827
9.650000	 64.4726
9.667999	 64.417
9.686000	 64.4481
9.704000	 64.5602
9.722000	 64.7045
9.740000	 64.8103
9.757999	 64.8248
9.776000	 64.7424
9.794000	 64.6057
9.812000	 64.4795
9.830000	 64.4161
9.847999	 64.4342
9.866000	 64.5207
9.884000	 64.644
9.902000	 64.7687
9.920000	 64.8643
9.937999	 64.9116
9.956000	 64.9048
9.974000	 64.8515
9.992000	 64.7662
10.01	64.666
10.028	64.5669
10.046	64.484
10.064	64.4326
10.082	64.424
10.1	64.4605
10.118	64.5324
10.136	64.623
10.154	64.7162
10.172	64.8006
10.19	64.8665
10.208	64.9024
10.226	64.899
10.244	64.8537
10.262	64.7798
10.28	64.7024
10.298	64.647
10.316	64.626
10.334	64.6321
10.352	64.6456
10.37	64.6474
10.388	64.6322
10.406	64.6107
10.424	64.6
10.442	64.6094
10.46	64.632
10.478	64.6457
10.496	64.627
10.514	64.5668
10.532	64.4793
10.55	64.397
10.568	64.353
10.586	64.3621
10.604	64.4107
10.622	64.4651
10.64	64.4922
10.658	64.4799
10.676	64.4468
10.694	64.4274
10.712	64.4529
10.73	64.5288
10.748	64.6343
10.766	64.7366
10.784	64.8124
10.802	64.8576
10.82	64.8831
10.838	64.902
10.856	64.9165
10.874	64.9186
10.892	64.8999
10.91	64.861
10.928	64.8144
10.946	64.778
10.964	64.7632
10.982	64.7692
11	64.7851
11.018	64.7971
11.036	64.7951
11.054	64.7736
11.072	64.732
11.09	64.674
11.108	64.6068
11.126	64.5444
11.144	64.5036
11.162	64.4997
11.18	64.5383
11.198	64.6088
11.216	64.6859
11.234	64.7386
11.252	64.7414
11.27	64.6901
11.288	64.6063
11.306	64.5279
11.324	64.4976
11.342	64.5433
11.36	64.6666
11.378	64.8395
11.396	65.0173
11.414	65.1524
11.432	65.2146
11.45	65.1994
11.468	65.1264
11.486	65.0276
11.504	64.9346
11.522	64.8702
11.54	64.84
11.558	64.8374
11.576	64.8432
11.594	64.835
11.612	64.7924
11.63	64.7072
11.648	64.5881
11.666	64.4587
11.684	64.3529
11.702	64.2996
11.72	64.3135
11.738	64.3847
11.756	64.4832
11.774	64.5681
11.792	64.6032
11.81	64.571
11.828	64.4768
11.846	64.3458
11.864	64.2122
11.882	64.1056
11.9	64.047
11.918	64.0437
11.936	64.0893
11.954	64.1687
11.972	64.2592
11.99	64.3365
12.008	64.3786
12.026	64.3711
12.044	64.3103
12.062	64.2082
12.08	64.0898
12.098	63.9861
12.116	63.9239
12.134	63.916
12.152	63.958
12.17	64.0334
12.188	64.1209
12.206	64.203
12.224	64.2695
12.242	64.3172
12.26	64.3452
12.278	64.3526
12.296	64.3373
12.314	64.2981
12.332	64.2358
12.35	64.1542
12.368	64.0594
12.386	63.9602
12.404	63.8653
12.422	63.7823
12.44	63.7165
12.458	63.672
12.476	63.6517
12.494	63.6573
12.512	63.6882
12.53	63.7402
12.548	63.8051
12.566	63.8715
12.584	63.9271
12.602	63.9621
12.62	63.9718
12.638	63.9571
12.656	63.9235
12.674	63.8781
12.692	63.8273
12.71	63.7751
12.728	63.7233
12.746	63.6717
12.764	63.6207
12.782	63.5726
12.8	63.532
12.818	63.5055
12.836	63.4981
12.854	63.5131
12.872	63.5492
12.89	63.6017
12.908	63.6625
12.926	63.7226
12.944	63.7739
12.962	63.8107
12.98	63.8303
12.998	63.8329
13.016	63.8212
13.034	63.7999
13.052	63.7748
13.07	63.7514
13.088	63.7345
13.106	63.7269
13.124	63.7292
13.142	63.7391
13.16	63.7513
13.178	63.7591
13.196	63.7558
13.214	63.7378
13.232	63.7053
13.25	63.6637
13.268	63.6221
13.286	63.5907
13.304	63.5781
13.322	63.5882
13.34	63.6192
13.358	63.6638
13.376	63.7111
13.394	63.7495
13.412	63.769
13.43	63.7636
13.448	63.7321
13.466	63.6774
13.484	63.6059
13.502	63.5253
13.52	63.4439
13.538	63.3687
13.556	63.3058
13.574	63.2602
13.592	63.2355
13.61	63.2343
13.628	63.2568
13.646	63.3003
13.664	63.3593
13.682	63.425
13.7	63.4877
13.718	63.5376
13.736	63.568
13.754	63.5756
13.772	63.5618
13.79	63.5316
13.808	63.4924
13.826	63.4521
13.844	63.4174
13.862	63.3926
13.88	63.379
13.898	63.3756
13.916	63.3798
13.934	63.3886
13.952	63.3996
13.97	63.4115
13.988	63.4246
14.006	63.4398
14.024	63.4583
14.042	63.4803
14.06	63.5047
14.078	63.5288
14.096	63.5487
14.114	63.5609
14.132	63.562
14.15	63.5504
14.168	63.526
14.186	63.4907
14.204	63.4479
14.222	63.4026
14.24	63.3596
14.258	63.3234
14.276	63.297
14.294	63.282
14.312	63.278
14.33	63.2837
14.348	63.2961
14.366	63.3117
14.384	63.3268
14.402	63.3393
14.42	63.348
14.438	63.3529
14.456	63.3549
14.474	63.3555
14.492	63.3565
14.51	63.3595
14.528	63.3652
14.546	63.3734
14.564	63.3828
14.582	63.3913
14.6	63.3967
14.618	63.3966
14.636	63.3891
14.654	63.3734
14.672	63.3495
14.69	63.3188
14.708	63.2836
14.726	63.2467
14.744	63.2118
14.762	63.182
14.78	63.159
14.798	63.1439
14.816	63.1363
14.834	63.1344
14.852	63.135
14.87	63.1341
14.888	63.1276
14.906	63.1117
14.924	63.0834
14.942	63.041
14.96	62.9852
14.978	62.918
14.996	62.8431
15.014	62.7655
15.032	62.6912
15.05	62.6263
15.068	62.5759
15.086	62.5438
15.104	62.5331
15.122	62.5444
15.14	62.5767
15.158	62.6275
15.176	62.6934
15.194	62.7698
15.212	62.8511
15.23	62.9322
15.248	63.0084
15.266	63.0754
15.284	63.1289
15.302	63.1663
15.32	63.1863
15.338	63.1887
15.356	63.1743
15.374	63.1458
15.392	63.1066
15.41	63.0606
15.428	63.0125
15.446	62.9673
15.464	62.929
15.482	62.9005
15.5	62.8841
15.518	62.8807
15.536	62.889
15.554	62.9074
15.572	62.9333
15.59	62.9626
15.608	62.9921
15.626	63.0191
15.644	63.041
15.662	63.0563
15.68	63.0648
15.698	63.0669
15.716	63.0638
15.734	63.0575
15.752	63.0496
15.77	63.0415
15.788	63.0347
15.806	63.0296
15.824	63.0264
15.842	63.025
15.86	63.0247
15.878	63.0248
15.896	63.025
15.914	63.0243
15.932	63.0226
15.95	63.0195
15.968	63.0149
15.986	63.0085
16.004	63.0001
16.022	62.9894
16.04	62.9755
16.058	62.9575
16.076	62.9349
16.094	62.9068
16.112	62.8732
16.13	62.8343
16.148	62.7908
16.166	62.7445
16.184	62.6971
16.202	62.6508
16.22	62.6086
16.238	62.5726
16.256	62.5445
16.274	62.526
16.292	62.517
16.31	62.5172
16.328	62.5248
16.346	62.5372
16.364	62.5525
16.382	62.5671
16.4	62.5786
16.418	62.5855
16.436	62.586
16.454	62.5802
16.472	62.5683
16.49	62.5517
16.508	62.5326
16.526	62.5126
16.544	62.4944
16.562	62.4796
16.58	62.4695
16.598	62.4652
16.616	62.4662
16.634	62.4723
16.652	62.4817
16.67	62.4929
16.688	62.504
16.706	62.5125
16.724	62.5172
16.742	62.5164
16.76	62.509
16.778	62.4947
16.796	62.4733
16.814	62.4455
16.832	62.4118
16.85	62.3741
16.868	62.3336
16.886	62.2915
16.904	62.2505
16.922	62.2115
16.94	62.1764
16.958	62.1466
16.976	62.1229
16.994	62.1067
17.012	62.0979
17.03	62.0965
17.048	62.1011
17.066	62.1107
17.084	62.1235
17.102	62.1369
17.12	62.1495
17.138	62.1588
17.156	62.1637
17.174	62.163
17.192	62.1565
17.21	62.1447
17.228	62.1285
17.246	62.1099
17.264	62.0901
17.282	62.0722
17.3	62.0571
17.318	62.0469
17.336	62.042
17.354	62.0426
17.372	62.0478
17.39	62.0563
17.408	62.0662
17.426	62.0745
17.444	62.0797
17.462	62.0779
17.48	62.0683
17.498	62.0486
17.516	62.0189
17.534	61.9788
17.552	61.9302
17.57	61.8739
17.588	61.814
17.606	61.7522
17.624	61.6919
17.642	61.6367
17.66	61.5884
17.678	61.5502
17.696	61.5225
17.714	61.5075
17.732	61.5048
17.75	61.515
17.768	61.5367
17.786	61.5699
17.804	61.6125
17.822	61.6641
17.84	61.7222
17.858	61.7858
17.876	61.8532
17.894	61.9222
17.912	61.9919
17.93	62.0594
17.948	62.1241
17.966	62.1832
17.984	62.2359
18.002	62.2801
18.02	62.3148
18.038	62.3388
18.056	62.3512
18.074	62.3515
18.092	62.3399
18.11	62.3163
18.128	62.2818
18.146	62.2371
18.164	62.1839
18.182	62.1237
18.2	62.0579
18.218	61.9888
18.236	61.9175
18.254	61.8463
18.272	61.7758
18.29	61.7084
18.308	61.6441
18.326	61.5846
18.344	61.5298
18.362	61.4807
18.38	61.4372
18.398	61.3996
18.416	61.3677
18.434	61.3417
18.452	61.3213
18.47	61.3064
18.488	61.2965
18.506	61.2911
18.524	61.2893
18.542	61.291
18.56	61.2945
18.578	61.2996
18.596	61.3048
18.614	61.31
18.632	61.3137
18.65	61.3158
18.668	61.3158
18.686	61.3135
18.704	61.3091
18.722	61.3026
18.74	61.2947
18.758	61.2855
18.776	61.276
18.794	61.2662
18.812	61.2569
18.83	61.2481
18.848	61.2402
18.866	61.2328
18.884	61.2255
18.902	61.2179
18.92	61.2092
18.938	61.1984
18.956	61.1845
18.974	61.1669
18.992	61.1443
19.01	61.1166
19.028	61.0829
19.046	61.0434
19.064	60.9981
19.082	60.9477
19.1	60.8929
19.118	60.8348
19.136	60.7753
19.154	60.7154
19.172	60.6575
19.19	60.6024
19.208	60.553
19.226	60.5094
19.244	60.4743
19.262	60.4475
19.28	60.4309
19.298	60.424
19.316	60.4276
19.334	60.4415
19.352	60.4648
19.37	60.4977
19.388	60.5382
19.406	60.5865
19.424	60.64
19.442	60.6987
19.46	60.7597
19.478	60.823
19.496	60.8856
19.514	60.9472
19.532	61.0055
19.55	61.0594
19.568	61.1077
19.586	61.1489
19.604	61.1826
19.622	61.207
19.64	61.2226
19.658	61.2283
19.676	61.2246
19.694	61.2117
19.712	61.1895
19.73	61.1602
19.748	61.1234
19.766	61.082
19.784	61.0361
19.802	60.9887
19.82	60.9411
19.838	60.895
19.856	60.8534
19.874	60.8165
19.892	60.7877
19.91	60.7668
19.928	60.7562
19.946	60.7559
19.964	60.7665
19.982	60.7884
20	60.8205
20.018	60.8629
20.036	60.9142
20.054	60.9729
20.072	61.0387
20.09	61.1083
20.108	61.1821
20.126	61.2563
20.144	61.331
20.162	61.403
20.18	61.4711
20.198	61.5343
20.216	61.5899
20.234	61.6383
20.252	61.6771
20.27	61.7065
20.288	61.7253
20.306	61.7331
20.324	61.73
20.342	61.7155
20.36	61.6901
20.378	61.6543
20.396	61.6081
20.414	61.5534
20.432	61.4897
20.45	61.4194
20.468	61.3431
20.486	61.262
20.504	61.1787
20.522	61.0927
20.54	61.0077
20.558	60.9233
20.576	60.842
20.594	60.7648
20.612	60.6924
20.63	60.6271
20.648	60.5683
20.666	60.5178
20.684	60.4757
20.702	60.4421
20.72	60.4175
20.738	60.4016
20.756	60.394
20.774	60.395
20.792	60.403
20.81	60.4183
20.828	60.4398
20.846	60.4665
20.864	60.4985
20.882	60.5343
20.9	60.5741
20.918	60.6167
20.936	60.6613
20.954	60.708
20.972	60.7552
20.99	60.8034
21.008	60.8508
21.026	60.897
21.044	60.9414
21.062	60.9816
21.08	61.0184
21.098	61.0487
21.116	61.0721
21.134	61.0876
21.152	61.092
21.17	61.0864
21.188	61.0678
21.206	61.0358
21.224	60.9903
21.242	60.9296
21.26	60.8542
21.278	60.7648
21.296	60.6608
21.314	60.5437
21.332	60.4158
21.35	60.2761
21.368	60.1296
21.386	59.9765
21.404	59.8187
21.422	59.6619
21.44	59.5041
21.458	59.3509
21.476	59.2042
21.494	59.064
21.512	58.9355
21.53	58.8175
21.548	58.7125
21.566	58.6224
21.584	58.5463
21.602	58.4857
21.62	58.4408
21.638	58.4108
21.656	58.3949
21.674	58.3937
21.692	58.4045
21.71	58.4273
21.728	58.4612
21.746	58.5029
21.764	58.5533
21.782	58.6098
21.8	58.6705
21.818	58.7362
21.836	58.8037
21.854	58.8729
21.872	58.9434
21.89	59.0132
21.908	59.083
21.926	59.1514
21.944	59.2174
21.962	59.2815
21.98	59.3426
21.998	59.4007
22.016	59.4557
22.034	59.5069
22.052	59.5546
22.07	59.5984
22.088	59.6381
22.106	59.6739
22.124	59.7055
22.142	59.7329
22.16	59.756
22.178	59.7748
22.196	59.7891
22.214	59.7991
22.232	59.8046
22.25	59.8058
22.268	59.8027
22.286	59.7953
22.304	59.7837
22.322	59.7682
22.34	59.749
22.358	59.726
22.376	59.6998
22.394	59.6701
22.412	59.6373
22.43	59.6017
22.448	59.5631
22.466	59.5219
22.484	59.4783
22.502	59.4321
22.52	59.3837
22.538	59.3332
22.556	59.2805
22.574	59.226
22.592	59.1697
22.61	59.1117
22.628	59.0524
22.646	58.9916
22.664	58.9297
22.682	58.8669
22.7	58.803
22.718	58.7386
22.736	58.6738
22.754	58.6087
22.772	58.5434
22.79	58.4785
22.808	58.4135
22.826	58.3493
22.844	58.2864
22.862	58.2247
22.88	58.1644
22.898	58.1058
22.916	58.0487
22.934	57.9943
22.952	57.9425
22.97	57.8935
22.988	57.8492
23.006	57.8095
23.024	57.7745
23.042	57.7472
23.06	57.7277
23.078	57.7157
23.096	57.7127
23.114	57.7185
23.132	57.7332
23.15	57.758
23.168	57.7926
23.186	57.8374
23.204	57.894
23.222	57.9627
23.24	58.0429
23.258	58.1349
23.276	58.2393
23.294	58.3551
23.312	58.4804
23.33	58.6166
23.348	58.7619
23.366	58.912
23.384	59.0686
23.402	59.2299
23.42	59.3895
23.438	59.5483
23.456	59.7056
23.474	59.8541
23.492	59.9934
23.51	60.1243
23.528	60.2406
23.546	60.3412
23.564	60.4274
23.582	60.4948
23.6	60.5413
23.618	60.5688
23.636	60.575
23.654	60.5582
23.672	60.5193
23.69	60.4594
23.708	60.3785
23.726	60.2759
23.744	60.1552
23.762	60.0195
23.78	59.8655
23.798	59.6989
23.816	59.5255
23.834	59.3413
23.852	59.1512
23.87	58.9629
23.888	58.7731
23.906	58.5846
23.924	58.406
23.942	58.2367
23.96	58.0762
23.978	57.9316
23.996	57.806
24.014	57.6964
24.032	57.6048
24.05	57.533
24.068	57.4805
24.086	57.445
24.104	57.4245
24.122	57.4214
24.14	57.432
24.158	57.4515
24.176	57.4818
24.194	57.5215
24.212	57.5657
24.23	57.6144
24.248	57.6685
24.266	57.7221
24.284	57.7714
24.302	57.8191
24.32	57.8642
24.338	57.9055
24.356	57.9423
24.374	57.9766
24.392	58.0106
24.41	58.0406
24.428	58.0699
24.446	58.1075
24.464	58.1549
24.482	58.2076
24.5	58.2789
24.518	58.3792
24.536	58.4981
24.554	58.647
24.572	58.8418
24.59	59.0789
24.608	59.358
24.626	59.69
24.644	60.0809
24.662	60.525
24.68	61.025
24.698	61.5836
24.716	62.1982
24.734	62.8707
24.752	63.6044
24.77	64.4054
24.788	65.2689
24.806	66.1814
24.824	67.1369
24.842	68.1506
24.86	69.195
24.878	70.2385
24.896	71.2997
24.914	72.3687
24.932	73.4021
24.95	74.3816
24.968	75.3367
24.986	76.2233
25.004	76.995
25.022	77.6729
25.04	78.2507
25.058	78.6946
25.076	78.9864
25.094	79.1442
25.112	79.1616
25.13	79.0303
25.148	78.7417
25.166	78.3109
25.184	77.7594
25.202	77.0879
25.22	76.2791
25.238	75.381
25.256	74.442
25.274	73.4337
25.292	72.3691
25.31	71.3006
25.328	70.2573
25.346	69.2044
25.364	68.1744
25.382	67.2064
25.4	66.2974
25.418	65.4378
25.436	64.6432
25.454	63.9279
25.472	63.2903
25.49	62.7185
25.508	62.2009
25.526	61.7408
25.544	61.3429
25.562	60.9835
25.58	60.6408
25.598	60.3334
25.616	60.0503
25.634	59.7624
25.652	59.4523
25.67	59.14
25.688	58.8105
25.706	58.4447
25.724	58.04
25.742	57.6047
25.76	57.1311
25.778	56.6123
25.796	56.0545
25.814	55.4547
25.832	54.8041
25.85	54.096
25.868	53.3347
25.886	52.5216
25.904	51.657
25.922	50.7474
25.94	49.7937
25.958	48.7781
25.976	47.6832
25.994	46.5084
26.012	45.261
26.03	43.9423
26.048	42.5514
26.066	41.0727
26.084	39.5268
26.102	37.943
26.12	36.3311
26.138	34.65
26.156	32.9579
26.174	31.3243
26.192	29.7535
26.21	28.1902
26.228	26.7361
26.246	25.4972
26.264	24.4506
26.282	23.5566
26.3	22.9285
26.318	22.6768
26.336	22.7482
26.354	23.1345
26.372	23.9262
26.39	25.2071
26.408	26.9351
26.426	29.1032
26.444	31.744
26.462	34.8908
26.48	38.5549
26.498	42.6925
26.516	47.2535
26.534	52.213
26.552	57.6494
26.57	63.4722
26.588	69.5619
26.606	75.859
26.624	82.4955
26.642	89.3382
26.66	96.2201
26.678	103.064
26.696	110.028
26.714	116.967
26.732	123.706
26.75	130.168
26.768	136.501
26.786	142.587
26.804	148.286
26.822	153.529
26.84	158.429
26.858	162.919
26.876	166.921
26.894	170.389
26.912	173.373
26.93	175.874
26.948	177.885
26.966	179.344
26.984	180.167
27.002	180.583
27.02	180.838
27.028	180.946