File: Bakgrunnsmateriale/MATLAB/FTIR/ftir_data/subBb/Mapping_121/C-4040-8_t24.asc
PE IR       SPECTRUM    SPECTRUM    ASCII       PEDS        1.60
  -1
C-BD2A~1.ASC
17/03/27
16:29:26.00
17/03/27
16:29:52.00
tln
$C-4040-8_t0024$<tbV0>[10.4,-7.8,8.0,0.0,27,1,0]
27.028
64

2002,4.07
MIRTGS : RIGHTBACK : INTERNAL 2
MIR : ON : INTERNAL 2
OPTKBR

0.200000
8
8.000000
FILLER
RATIO
SPECTRUM
UNLOCKED 256

DOUBLE
64
COMBINED
1
0
0

0.002000
RATIO

1
0
TRUE
51149
0
LEFT NOT FITTED RIGHT NOT FITTED 0
NONE
NONE
15600
12
4.427000
51148
TRUE
1 0 8 72 0 0 0 0

15798

#HDR
-1
-1
#GR
µM
%T
2.38419e-05
0.0
2.000000
0.002000
12515
8
104.478
50.4745
#DATA
2.000000	 65.1317
2.018000	 65.5422
2.036000	 65.1818
2.054000	 65.5721
2.072000	 65.1822
2.090000	 65.3718
2.108000	 64.8335
2.126000	 64.9743
2.144000	 65.1464
2.162000	 64.6068
2.180000	 64.8785
2.198000	 64.9836
2.216000	 65.4761
2.234000	 65.1623
2.252000	 65.8597
2.270000	 65.3069
2.288000	 50.4745
2.306000	 65.5317
2.324000	 65.5559
2.342000	 65.6551
2.360000	 65.418
2.378000	 65.5229
2.396000	 65.2579
2.414000	 65.0517
2.432000	 64.9803
2.450000	 65.0681
2.468000	 64.896
2.486000	 65.1283
2.504000	 64.9548
2.522000	 65.1036
2.540000	 65.2041
2.558000	 65.1117
2.576000	 65.4387
2.594000	 65.3345
2.612000	 64.9724
2.630000	 65.0524
2.648000	 65.0875
2.666000	 65.1422
2.684000	 65.2894
2.702000	 65.1994
2.720000	 65.1269
2.738000	 65.2834
2.756000	 65.093
2.774000	 65.1917
2.792000	 65.1937
2.810000	 65.087
2.828000	 64.9658
2.846000	 65.2138
2.864000	 65.1014
2.882000	 65.1786
2.900000	 65.3479
2.918000	 65.2503
2.936000	 65.0808
2.954000	 65.0573
2.972000	 64.9752
2.990000	 65.1662
3.008000	 65.2045
3.026000	 65.1493
3.044000	 65.2544
3.062000	 65.235
3.080000	 65.2126
3.098000	 65.1441
3.116000	 65.0972
3.134000	 65.3406
3.152000	 65.3046
3.170000	 65.1658
3.188000	 65.3569
3.206000	 65.6227
3.224000	 65.1804
3.242000	 65.3137
3.260000	 65.2434
3.278000	 65.184
3.296000	 65.2554
3.314000	 65.3153
3.332000	 65.0853
3.350000	 65.3834
3.368000	 65.3829
3.386000	 65.097
3.404000	 65.2099
3.422000	 64.8895
3.440000	 65.102
3.458000	 65.2166
3.476000	 65.1419
3.494000	 65.1151
3.512000	 64.8686
3.530000	 65.1718
3.548000	 65.2818
3.566000	 65.3173
3.584000	 65.3161
3.602000	 65.3855
3.620000	 65.314
3.638000	 65.3435
3.656000	 65.2635
3.674000	 65.3796
3.692000	 65.1838
3.710000	 65.2451
3.728000	 65.1986
3.746000	 65.29
3.764000	 65.4007
3.782000	 65.3474
3.800000	 65.3571
3.818000	 65.3255
3.836000	 65.2776
3.854000	 65.2468
3.872000	 65.3874
3.890000	 65.351
3.908000	 65.4389
3.926000	 65.4338
3.944000	 65.3831
3.962000	 65.3678
3.980000	 65.2116
3.998000	 65.0784
4.016000	 65.104
4.034000	 65.3064
4.052000	 65.3848
4.070000	 65.3367
4.088000	 65.4164
4.106000	 65.2511
4.124000	 65.383
4.141999	 65.4391
4.160000	 65.3045
4.178000	 65.3379
4.196000	 65.328
4.214000	 65.2862
4.232000	 65.3978
4.250000	 65.3324
4.268000	 65.3846
4.286000	 65.123
4.304000	 65.2278
4.322000	 65.3337
4.340000	 65.3466
4.358000	 65.2992
4.375999	 65.3051
4.394000	 65.3136
4.412000	 65.1829
4.430000	 65.1858
4.448000	 65.2739
4.466000	 65.1846
4.484000	 65.2923
4.502000	 65.2626
4.520000	 65.3457
4.538000	 65.4393
4.556000	 65.3929
4.574000	 65.3893
4.592000	 65.3899
4.609999	 65.3625
4.628000	 65.3263
4.646000	 65.398
4.664000	 65.3125
4.682000	 65.4569
4.700000	 65.5499
4.718000	 65.5175
4.736000	 65.3627
4.754000	 65.3913
4.772000	 65.3568
4.790000	 65.3378
4.808000	 65.3478
4.826000	 65.2213
4.843999	 65.4497
4.862000	 65.404
4.880000	 65.4399
4.898000	 65.4094
4.916000	 65.4155
4.934000	 65.4175
4.952000	 65.4313
4.970000	 65.4025
4.988000	 65.4386
5.006000	 65.3416
5.024000	 65.4503
5.042000	 65.4517
5.060000	 65.3855
5.077999	 65.3479
5.096000	 65.4254
5.114000	 65.4219
5.132000	 65.3639
5.150000	 65.4423
5.168000	 65.4316
5.186000	 65.4091
5.204000	 65.3272
5.222000	 65.343
5.240000	 65.3324
5.258000	 65.2596
5.276000	 65.3393
5.294000	 65.3378
5.312000	 65.3442
5.330000	 65.3896
5.348000	 65.3666
5.366000	 65.3543
5.384000	 65.3562
5.402000	 65.3214
5.420000	 65.3868
5.438000	 65.4752
5.456000	 65.4357
5.474000	 65.4076
5.492000	 65.4029
5.510000	 65.3298
5.528000	 65.3382
5.546000	 65.3478
5.564000	 65.3826
5.582000	 65.3646
5.600000	 65.4061
5.618000	 65.403
5.636000	 65.3518
5.654000	 65.3579
5.672000	 65.3687
5.690000	 65.3307
5.708000	 65.3052
5.726000	 65.2225
5.744000	 65.166
5.762000	 65.1637
5.780000	 65.131
5.798000	 65.0424
5.816000	 65.1431
5.834000	 65.2909
5.852000	 65.339
5.870000	 65.36
5.888000	 65.4207
5.906000	 65.4594
5.923999	 65.3992
5.942000	 65.3646
5.960000	 65.3005
5.978000	 65.2705
5.996000	 65.3161
6.014000	 65.3774
6.032000	 65.368
6.050000	 65.3141
6.068000	 65.3614
6.086000	 65.4858
6.104000	 65.481
6.122000	 65.3795
6.140000	 65.3027
6.158000	 65.2434
6.176000	 65.1803
6.194000	 65.2671
6.212000	 65.4359
6.230000	 65.4968
6.248000	 65.4588
6.266000	 65.4074
6.284000	 65.3881
6.302000	 65.424
6.320000	 65.4079
6.338000	 65.2941
6.356000	 65.2175
6.374000	 65.1524
6.392000	 65.1621
6.410000	 65.2559
6.428000	 65.3201
6.446000	 65.2426
6.464000	 65.153
6.482000	 65.1698
6.500000	 65.1763
6.518000	 65.1872
6.536000	 65.2332
6.554000	 65.2243
6.572000	 65.1735
6.590000	 65.1672
6.608000	 65.1887
6.626000	 65.2064
6.644000	 65.2316
6.662000	 65.2308
6.680000	 65.2073
6.698000	 65.211
6.716000	 65.1856
6.734000	 65.183
6.752000	 65.2073
6.770000	 65.1959
6.788000	 65.196
6.806000	 65.1968
6.824000	 65.1859
6.842000	 65.2323
6.860000	 65.3412
6.878000	 65.4136
6.896000	 65.4353
6.914000	 65.4832
6.932000	 65.5179
6.950000	 65.4802
6.968000	 65.398
6.986000	 65.3333
7.004000	 65.3252
7.022000	 65.3566
7.040000	 65.3538
7.058000	 65.2821
7.076000	 65.1991
7.094000	 65.1443
7.112000	 65.1355
7.130000	 65.1842
7.148000	 65.2148
7.166000	 65.1796
7.184000	 65.1375
7.202000	 65.1342
7.220000	 65.1732
7.238000	 65.2238
7.256000	 65.2275
7.274000	 65.1654
7.292000	 65.0921
7.310000	 65.0942
7.328000	 65.1746
7.346000	 65.2541
7.364000	 65.3173
7.382000	 65.3704
7.400000	 65.3455
7.418000	 65.2325
7.436000	 65.1294
7.454000	 65.1201
7.472000	 65.2003
7.490000	 65.2799
7.508000	 65.2732
7.526000	 65.2026
7.544000	 65.1406
7.562000	 65.1086
7.580000	 65.0938
7.598000	 65.0917
7.616000	 65.1043
7.634000	 65.1335
7.652000	 65.1725
7.670000	 65.2059
7.688000	 65.2242
7.706000	 65.2294
7.724000	 65.2164
7.742000	 65.1689
7.760000	 65.1071
7.778000	 65.1013
7.796000	 65.1849
7.814000	 65.2915
7.832000	 65.3284
7.850000	 65.2857
7.868000	 65.2339
7.886000	 65.2389
7.904000	 65.3064
7.922000	 65.3932
7.940000	 65.4478
7.958000	 65.4433
7.976000	 65.3891
7.994000	 65.315
8.012000	 65.245
8.030000	 65.197
8.048000	 65.1893
8.065999	 65.2161
8.084000	 65.2371
8.102000	 65.2312
8.120000	 65.2333
8.138000	 65.2701
8.155999	 65.3057
8.173999	 65.2911
8.192000	 65.2362
8.210000	 65.1879
8.228000	 65.1713
8.246000	 65.1734
8.263999	 65.1724
8.282000	 65.1668
8.300000	 65.173
8.318000	 65.1944
8.336000	 65.2064
8.353999	 65.189
8.372000	 65.1565
8.390000	 65.1347
8.408000	 65.1263
8.426000	 65.1248
8.443999	 65.1429
8.462000	 65.1891
8.480000	 65.2314
8.498000	 65.2206
8.516000	 65.15
8.533999	 65.0662
8.552000	 65.0204
8.570000	 65.0301
8.588000	 65.079
8.606000	 65.1349
8.624000	 65.1721
8.641999	 65.1901
8.660000	 65.202
8.678000	 65.2092
8.696000	 65.2041
8.714000	 65.192
8.731999	 65.1933
8.750000	 65.2201
8.768000	 65.2599
8.786000	 65.2902
8.804000	 65.3016
8.821999	 65.3003
8.840000	 65.2947
8.858000	 65.2859
8.876000	 65.2702
8.894000	 65.2414
8.911999	 65.1975
8.930000	 65.1516
8.948000	 65.128
8.966000	 65.1399
8.984000	 65.1778
9.001999	 65.2215
9.020000	 65.2565
9.038000	 65.2761
9.056000	 65.2837
9.074000	 65.2942
9.092000	 65.327
9.109999	 65.3852
9.128000	 65.4462
9.146000	 65.4822
9.164000	 65.4915
9.182000	 65.4953
9.199999	 65.5051
9.218000	 65.5017
9.236000	 65.452
9.254000	 65.3455
9.272000	 65.211
9.289999	 65.0944
9.308000	 65.0211
9.326000	 64.9831
9.344000	 64.9603
9.362000	 64.9467
9.379999	 64.955
9.398000	 64.9946
9.416000	 65.0551
9.434000	 65.1114
9.452000	 65.1447
9.469999	 65.1544
9.488000	 65.1522
9.506000	 65.148
9.524000	 65.143
9.542000	 65.1316
9.560000	 65.1071
9.577999	 65.0692
9.596000	 65.0272
9.614000	 65.0026
9.632000	 65.0172
9.650000	 65.0798
9.667999	 65.1743
9.686000	 65.2663
9.704000	 65.3236
9.722000	 65.3387
9.740000	 65.3336
9.757999	 65.3444
9.776000	 65.3949
9.794000	 65.4777
9.812000	 65.5561
9.830000	 65.5848
9.847999	 65.5356
9.866000	 65.4081
9.884000	 65.2266
9.902000	 65.0297
9.920000	 64.8583
9.937999	 64.7468
9.956000	 64.7151
9.974000	 64.7621
9.992000	 64.865
10.01	64.9829
10.028	65.0713
10.046	65.0971
10.064	65.0538
10.082	64.9652
10.1	64.8778
10.118	64.8412
10.136	64.879
10.154	64.9766
10.172	65.0905
10.19	65.1728
10.208	65.2038
10.226	65.1945
10.244	65.1714
10.262	65.1482
10.28	65.1149
10.298	65.0515
10.316	64.951
10.334	64.8352
10.352	64.744
10.37	64.7119
10.388	64.7474
10.406	64.8342
10.424	64.9486
10.442	65.0757
10.46	65.2082
10.478	65.3351
10.496	65.4358
10.514	65.4888
10.532	65.4848
10.55	65.4347
10.568	65.3618
10.586	65.2881
10.604	65.2225
10.622	65.1636
10.64	65.1086
10.658	65.0599
10.676	65.0227
10.694	64.9979
10.712	64.9807
10.73	64.9663
10.748	64.9572
10.766	64.9639
10.784	64.9951
10.802	65.0491
10.82	65.1136
10.838	65.1687
10.856	65.2026
10.874	65.2151
10.892	65.2156
10.91	65.2144
10.928	65.2141
10.946	65.211
10.964	65.2023
10.982	65.1914
11	65.1875
11.018	65.1994
11.036	65.2284
11.054	65.2667
11.072	65.3015
11.09	65.3217
11.108	65.3244
11.126	65.3141
11.144	65.2984
11.162	65.2836
11.18	65.2721
11.198	65.2636
11.216	65.2579
11.234	65.2553
11.252	65.2558
11.27	65.2569
11.288	65.2536
11.306	65.2399
11.324	65.2102
11.342	65.1624
11.36	65.0994
11.378	65.0285
11.396	64.9596
11.414	64.9026
11.432	64.8652
11.45	64.8506
11.468	64.8585
11.486	64.8852
11.504	64.9246
11.522	64.9689
11.54	65.011
11.558	65.0444
11.576	65.0644
11.594	65.0691
11.612	65.0597
11.63	65.041
11.648	65.0195
11.666	65.0026
11.684	64.997
11.702	65.0063
11.72	65.0307
11.738	65.0668
11.756	65.1094
11.774	65.1522
11.792	65.1899
11.81	65.2186
11.828	65.2361
11.846	65.2413
11.864	65.2343
11.882	65.2173
11.9	65.1946
11.918	65.1727
11.936	65.1586
11.954	65.1578
11.972	65.1713
11.99	65.1938
12.008	65.2139
12.026	65.2177
12.044	65.1934
12.062	65.1382
12.08	65.0596
12.098	64.9735
12.116	64.8982
12.134	64.8462
12.152	64.8203
12.17	64.8138
12.188	64.8156
12.206	64.8151
12.224	64.8072
12.242	64.7937
12.26	64.7802
12.278	64.7739
12.296	64.7803
12.314	64.8006
12.332	64.8321
12.35	64.8702
12.368	64.9102
12.386	64.9494
12.404	64.9873
12.422	65.0256
12.44	65.0664
12.458	65.1105
12.476	65.1572
12.494	65.2036
12.512	65.2455
12.53	65.2782
12.548	65.2982
12.566	65.304
12.584	65.2967
12.602	65.2796
12.62	65.2582
12.638	65.2378
12.656	65.2215
12.674	65.2095
12.692	65.1989
12.71	65.185
12.728	65.1624
12.746	65.1275
12.764	65.0797
12.782	65.0221
12.8	64.9606
12.818	64.9027
12.836	64.8552
12.854	64.8222
12.872	64.8041
12.89	64.7971
12.908	64.7952
12.926	64.7913
12.944	64.7796
12.962	64.7573
12.98	64.7251
12.998	64.6875
13.016	64.6512
13.034	64.624
13.052	64.6128
13.07	64.6213
13.088	64.6496
13.106	64.694
13.124	64.7477
13.142	64.8031
13.16	64.8527
13.178	64.891
13.196	64.9156
13.214	64.9264
13.232	64.9251
13.25	64.9139
13.268	64.8947
13.286	64.8691
13.304	64.8379
13.322	64.8024
13.34	64.7649
13.358	64.729
13.376	64.6993
13.394	64.6805
13.412	64.677
13.43	64.6904
13.448	64.7195
13.466	64.76
13.484	64.8053
13.502	64.8481
13.52	64.882
13.538	64.9031
13.556	64.9102
13.574	64.9053
13.592	64.8926
13.61	64.877
13.628	64.8629
13.646	64.8535
13.664	64.85
13.682	64.8516
13.7	64.8561
13.718	64.861
13.736	64.8644
13.754	64.8647
13.772	64.8619
13.79	64.8575
13.808	64.8537
13.826	64.8529
13.844	64.8571
13.862	64.8676
13.88	64.8848
13.898	64.908
13.916	64.936
13.934	64.9669
13.952	64.9987
13.97	65.0295
13.988	65.0576
14.006	65.0812
14.024	65.0989
14.042	65.1093
14.06	65.1111
14.078	65.1039
14.096	65.0876
14.114	65.0633
14.132	65.0326
14.15	64.9979
14.168	64.9619
14.186	64.9272
14.204	64.8965
14.222	64.8706
14.24	64.8495
14.258	64.8309
14.276	64.8121
14.294	64.7901
14.312	64.7618
14.33	64.725
14.348	64.6791
14.366	64.6248
14.384	64.5654
14.402	64.5055
14.42	64.4503
14.438	64.4048
14.456	64.3727
14.474	64.3564
14.492	64.3561
14.51	64.3698
14.528	64.3932
14.546	64.4211
14.564	64.4478
14.582	64.4681
14.6	64.4774
14.618	64.4731
14.636	64.454
14.654	64.4219
14.672	64.3797
14.69	64.3315
14.708	64.2826
14.726	64.2386
14.744	64.2055
14.762	64.1882
14.78	64.1901
14.798	64.2132
14.816	64.2577
14.834	64.3216
14.852	64.4008
14.87	64.489
14.888	64.5794
14.906	64.6645
14.924	64.7368
14.942	64.7892
14.96	64.8173
14.978	64.819
14.996	64.7941
15.014	64.745
15.032	64.6774
15.05	64.5984
15.068	64.5154
15.086	64.4356
15.104	64.366
15.122	64.3125
15.14	64.2775
15.158	64.2612
15.176	64.2622
15.194	64.2771
15.212	64.3006
15.23	64.3277
15.248	64.354
15.266	64.3758
15.284	64.3902
15.302	64.3964
15.32	64.3951
15.338	64.3873
15.356	64.3751
15.374	64.3609
15.392	64.3458
15.41	64.3307
15.428	64.3158
15.446	64.3002
15.464	64.2828
15.482	64.2626
15.5	64.2389
15.518	64.2116
15.536	64.1821
15.554	64.1522
15.572	64.1242
15.59	64.1019
15.608	64.0876
15.626	64.0833
15.644	64.0908
15.662	64.1094
15.68	64.1379
15.698	64.1745
15.716	64.2162
15.734	64.2599
15.752	64.3035
15.77	64.345
15.788	64.3829
15.806	64.4177
15.824	64.4499
15.842	64.4807
15.86	64.5123
15.878	64.5457
15.896	64.5819
15.914	64.6212
15.932	64.6626
15.95	64.7051
15.968	64.7466
15.986	64.7842
16.004	64.8159
16.022	64.8394
16.04	64.8527
16.058	64.8551
16.076	64.8461
16.094	64.8261
16.112	64.7965
16.13	64.7587
16.148	64.7146
16.166	64.6672
16.184	64.6185
16.202	64.5707
16.22	64.527
16.238	64.4892
16.256	64.4594
16.274	64.4394
16.292	64.4299
16.31	64.4316
16.328	64.444
16.346	64.4657
16.364	64.4954
16.382	64.5297
16.4	64.5655
16.418	64.6
16.436	64.6287
16.454	64.6488
16.472	64.6582
16.49	64.6547
16.508	64.6384
16.526	64.6098
16.544	64.5713
16.562	64.5261
16.58	64.4768
16.598	64.4288
16.616	64.3852
16.634	64.3493
16.652	64.3243
16.67	64.3109
16.688	64.3098
16.706	64.3198
16.724	64.3393
16.742	64.3661
16.76	64.3962
16.778	64.4277
16.796	64.457
16.814	64.4817
16.832	64.5006
16.85	64.5123
16.868	64.5174
16.886	64.5156
16.904	64.5091
16.922	64.4992
16.94	64.4875
16.958	64.4767
16.976	64.4676
16.994	64.4623
17.012	64.4611
17.03	64.4645
17.048	64.4723
17.066	64.4837
17.084	64.498
17.102	64.5136
17.12	64.5297
17.138	64.5445
17.156	64.5573
17.174	64.5673
17.192	64.5739
17.21	64.5773
17.228	64.5777
17.246	64.5758
17.264	64.5722
17.282	64.5683
17.3	64.5646
17.318	64.5625
17.336	64.5624
17.354	64.5649
17.372	64.5701
17.39	64.5777
17.408	64.587
17.426	64.5969
17.444	64.6068
17.462	64.6145
17.48	64.6195
17.498	64.6198
17.516	64.6147
17.534	64.6033
17.552	64.5854
17.57	64.561
17.588	64.5309
17.606	64.4959
17.624	64.4576
17.642	64.418
17.66	64.3782
17.678	64.3411
17.696	64.3072
17.714	64.2787
17.732	64.2559
17.75	64.2395
17.768	64.2288
17.786	64.2238
17.804	64.2224
17.822	64.2238
17.84	64.2258
17.858	64.2272
17.876	64.2263
17.894	64.2223
17.912	64.2145
17.93	64.2029
17.948	64.1877
17.966	64.1701
17.984	64.1511
18.002	64.1323
18.02	64.1153
18.038	64.1016
18.056	64.0926
18.074	64.0891
18.092	64.0923
18.11	64.1022
18.128	64.1188
18.146	64.1418
18.164	64.1703
18.182	64.2032
18.2	64.2393
18.218	64.2766
18.236	64.3143
18.254	64.35
18.272	64.3831
18.29	64.4116
18.308	64.4352
18.326	64.4524
18.344	64.4633
18.362	64.4669
18.38	64.4636
18.398	64.453
18.416	64.4358
18.434	64.4121
18.452	64.383
18.47	64.3487
18.488	64.3106
18.506	64.2692
18.524	64.2259
18.542	64.1812
18.56	64.137
18.578	64.0935
18.596	64.0526
18.614	64.0143
18.632	63.9804
18.65	63.9507
18.668	63.9263
18.686	63.9073
18.704	63.8939
18.722	63.8861
18.74	63.8835
18.758	63.8861
18.776	63.8933
18.794	63.9046
18.812	63.9191
18.83	63.9363
18.848	63.9549
18.866	63.9744
18.884	63.9934
18.902	64.0113
18.92	64.0266
18.938	64.0388
18.956	64.0464
18.974	64.049
18.992	64.0454
19.01	64.0356
19.028	64.0189
19.046	63.9958
19.064	63.9666
19.082	63.9322
19.1	63.8936
19.118	63.852
19.136	63.8094
19.154	63.7669
19.172	63.727
19.19	63.6906
19.208	63.6604
19.226	63.6368
19.244	63.6221
19.262	63.6161
19.28	63.6204
19.298	63.6346
19.316	63.6586
19.334	63.6922
19.352	63.7337
19.37	63.7832
19.388	63.8378
19.406	63.8977
19.424	63.9595
19.442	64.0232
19.46	64.0856
19.478	64.1464
19.496	64.2034
19.514	64.2557
19.532	64.3023
19.55	64.3423
19.568	64.3754
19.586	64.4008
19.604	64.4187
19.622	64.4287
19.64	64.4311
19.658	64.4261
19.676	64.4138
19.694	64.3951
19.712	64.3701
19.73	64.3397
19.748	64.3038
19.766	64.2635
19.784	64.2188
19.802	64.1704
19.82	64.1185
19.838	64.0636
19.856	64.0065
19.874	63.9471
19.892	63.8862
19.91	63.8235
19.928	63.7599
19.946	63.6953
19.964	63.6301
19.982	63.5644
20	63.4986
20.018	63.433
20.036	63.3677
20.054	63.3034
20.072	63.2399
20.09	63.1783
20.108	63.1183
20.126	63.0611
20.144	63.0066
20.162	62.956
20.18	62.9095
20.198	62.8677
20.216	62.8314
20.234	62.8007
20.252	62.7765
20.27	62.7588
20.288	62.7479
20.306	62.744
20.324	62.7468
20.342	62.7566
20.36	62.7728
20.378	62.7946
20.396	62.8221
20.414	62.8539
20.432	62.8901
20.45	62.929
20.468	62.9699
20.486	63.0123
20.504	63.0545
20.522	63.097
20.54	63.138
20.558	63.1777
20.576	63.2157
20.594	63.2518
20.612	63.2861
20.63	63.3184
20.648	63.3487
20.666	63.3778
20.684	63.4055
20.702	63.4327
20.72	63.4598
20.738	63.487
20.756	63.5151
20.774	63.5442
20.792	63.5744
20.81	63.6059
20.828	63.6386
20.846	63.6721
20.864	63.7067
20.882	63.7415
20.9	63.7768
20.918	63.8118
20.936	63.846
20.954	63.8794
20.972	63.9109
20.99	63.9407
21.008	63.9682
21.026	63.993
21.044	64.0153
21.062	64.0348
21.08	64.0514
21.098	64.0657
21.116	64.0774
21.134	64.0871
21.152	64.0955
21.17	64.1023
21.188	64.1088
21.206	64.1152
21.224	64.1219
21.242	64.1301
21.26	64.1394
21.278	64.1511
21.296	64.1654
21.314	64.1823
21.332	64.2026
21.35	64.226
21.368	64.2527
21.386	64.283
21.404	64.3163
21.422	64.3522
21.44	64.3908
21.458	64.4311
21.476	64.4728
21.494	64.5157
21.512	64.5577
21.53	64.5995
21.548	64.6395
21.566	64.6764
21.584	64.7107
21.602	64.7398
21.62	64.7639
21.638	64.7821
21.656	64.7929
21.674	64.7969
21.692	64.7925
21.71	64.7794
21.728	64.7577
21.746	64.7271
21.764	64.6875
21.782	64.6394
21.8	64.5828
21.818	64.5178
21.836	64.4455
21.854	64.3659
21.872	64.2796
21.89	64.1881
21.908	64.0908
21.926	63.9896
21.944	63.8858
21.962	63.7788
21.98	63.6713
21.998	63.5629
22.016	63.4544
22.034	63.3478
22.052	63.2424
22.07	63.1393
22.088	63.0395
22.106	62.9425
22.124	62.8493
22.142	62.7601
22.16	62.6748
22.178	62.5938
22.196	62.5171
22.214	62.4446
22.232	62.3764
22.25	62.3125
22.268	62.2527
22.286	62.1971
22.304	62.1456
22.322	62.098
22.34	62.0544
22.358	62.0147
22.376	61.9786
22.394	61.9464
22.412	61.9176
22.43	61.8923
22.448	61.8705
22.466	61.8515
22.484	61.835
22.502	61.8213
22.52	61.8091
22.538	61.7983
22.556	61.7889
22.574	61.7792
22.592	61.7692
22.61	61.7588
22.628	61.7463
22.646	61.732
22.664	61.7157
22.682	61.6967
22.7	61.675
22.718	61.6509
22.736	61.6244
22.754	61.5951
22.772	61.5644
22.79	61.5334
22.808	61.5014
22.826	61.4701
22.844	61.4406
22.862	61.4123
22.88	61.3866
22.898	61.3646
22.916	61.3455
22.934	61.3297
22.952	61.3177
22.97	61.3089
22.988	61.302
23.006	61.2973
23.024	61.2944
23.042	61.2899
23.06	61.2844
23.078	61.2772
23.096	61.2647
23.114	61.2473
23.132	61.2245
23.15	61.1928
23.168	61.1525
23.186	61.1035
23.204	61.0434
23.222	60.9719
23.24	60.8897
23.258	60.7968
23.276	60.6925
23.294	60.5779
23.312	60.4551
23.33	60.3228
23.348	60.1826
23.366	60.0394
23.384	59.8916
23.402	59.7409
23.42	59.594
23.438	59.4504
23.456	59.3104
23.474	59.1808
23.492	59.0625
23.51	58.9542
23.528	58.8599
23.546	58.7803
23.564	58.7143
23.582	58.6647
23.6	58.6322
23.618	58.6159
23.636	58.6173
23.654	58.638
23.672	58.6771
23.69	58.733
23.708	58.805
23.726	58.8946
23.744	58.997
23.762	59.1084
23.78	59.2319
23.798	59.363
23.816	59.4966
23.834	59.6355
23.852	59.7767
23.87	59.9151
23.888	60.0525
23.906	60.1875
23.924	60.3155
23.942	60.4365
23.96	60.551
23.978	60.6563
23.996	60.7516
24.014	60.838
24.032	60.9134
24.05	60.9763
24.068	61.0278
24.086	61.0675
24.104	61.0948
24.122	61.1089
24.14	61.1121
24.158	61.1073
24.176	61.0923
24.194	61.0693
24.212	61.0429
24.23	61.0125
24.248	60.9775
24.266	60.946
24.284	60.9221
24.302	60.9017
24.32	60.8903
24.338	60.8937
24.356	60.9094
24.374	60.938
24.392	60.9813
24.41	61.0411
24.428	61.1152
24.446	61.2
24.464	61.2963
24.482	61.4057
24.5	61.5187
24.518	61.6277
24.536	61.74
24.554	61.8474
24.572	61.9386
24.59	62.0162
24.608	62.0803
24.626	62.1216
24.644	62.1356
24.662	62.1267
24.68	62.0923
24.698	62.0292
24.716	61.9367
24.734	61.8182
24.752	61.6774
24.77	61.5109
24.788	61.3201
24.806	61.1165
24.824	60.9073
24.842	60.684
24.86	60.4569
24.878	60.2385
24.896	60.0209
24.914	59.8085
24.932	59.6195
24.95	59.4635
24.968	59.3295
24.986	59.2284
25.004	59.1718
25.022	59.1496
25.04	59.1688
25.058	59.248
25.076	59.3928
25.094	59.5914
25.112	59.863
25.13	60.2271
25.148	60.6708
25.166	61.2004
25.184	61.8357
25.202	62.5847
25.22	63.4346
25.238	64.3999
25.256	65.4961
25.274	66.7245
25.292	68.0769
25.31	69.5477
25.328	71.1386
25.346	72.8591
25.364	74.6825
25.382	76.5796
25.4	78.5734
25.418	80.6546
25.436	82.766
25.454	84.8691
25.472	87.0164
25.49	89.1547
25.508	91.21
25.526	93.1758
25.544	95.0866
25.562	96.8756
25.58	98.4794
25.598	99.9335
25.616	101.229
25.634	102.32
25.652	103.175
25.67	103.819
25.688	104.25
25.706	104.459
25.724	104.433
25.742	104.181
25.76	103.733
25.778	103.114
25.796	102.292
25.814	101.293
25.832	100.173
25.85	98.9627
25.868	97.6124
25.886	96.1758
25.904	94.721
25.922	93.2575
25.94	91.7478
25.958	90.2504
25.976	88.8247
25.994	87.4502
26.012	86.1203
26.03	84.8763
26.048	83.7538
26.066	82.7282
26.084	81.8056
26.102	81.0079
26.12	80.3522
26.138	79.8286
26.156	79.4308
26.174	79.1543
26.192	79.0014
26.21	78.9761
26.228	79.063
26.246	79.2465
26.264	79.5363
26.282	79.9355
26.3	80.4116
26.318	80.9333
26.336	81.5223
26.354	82.1749
26.372	82.8513
26.39	83.5157
26.408	84.1999
26.426	84.8912
26.444	85.5494
26.462	86.1422
26.48	86.7045
26.498	87.2182
26.516	87.6469
26.534	87.9639
26.552	88.1965
26.57	88.3338
26.588	88.3557
26.606	88.2479
26.624	88.0232
26.642	87.6811
26.66	87.2181
26.678	86.6279
26.696	85.9065
26.714	85.0712
26.732	84.1404
26.75	83.1184
26.768	81.9844
26.786	80.7674
26.804	79.4996
26.822	78.1901
26.84	76.8063
26.858	75.3875
26.876	73.9773
26.894	72.5912
26.912	71.1881
26.93	69.8088
26.948	68.4998
26.966	67.2558
26.984	65.9961
27.002	64.8513
27.02	63.9674
27.028	63.7244