File: Bakgrunnsmateriale/MATLAB/FTIR/ftir_data/subBb/Mapping_121/C-4040-8_t78_cm-1.asc
PE IR       SPECTRUM    SPECTRUM    ASCII       PEDS        1.60
  -1
C-1D65~1.ASC
17/03/27
20:54:11.00
17/03/27
20:54:11.00
tln
$C-4040-8_t0078$<tbV0>[13.0,5.2,8.0,0.0,27,1,0]
370
64

2002,4.07
MIRTGS : RIGHTBACK : INTERNAL 2
MIR : ON : INTERNAL 2
OPTKBR

0.200000
8
8.000000
FILLER
RATIO
SPECTRUM
UNLOCKED 256

DOUBLE
64
COMBINED
1
0
0

1.000000
RATIO

1
0
TRUE
51149
0
LEFT NOT FITTED RIGHT NOT FITTED 0
NONE
NONE
15600
12
4.427000
51148
TRUE
1 0 8 72 0 0 0 0

15798

#HDR
-1
-1
#GR
CM-1
%T
2.38419e-05
0.0
5000
-1.000000
4631
8
93.5179
44.4249
#DATA
5000	65.2309
4996	65.0453
4992	64.9225
4988	65.1357
4984	65.236
4980	64.9484
4976	64.7861
4972	64.9598
4968	64.6575
4964	64.203
4960	64.8147
4956	65.6553
4952	65.6455
4948	65.267
4944	64.7912
4940	64.4937
4936	64.538
4932	64.514
4928	64.4248
4924	64.421
4920	64.5654
4916	64.8401
4912	64.9627
4908	64.9296
4904	65.0505
4900	65.16
4896	65.0153
4892	64.8995
4888	64.7618
4884	64.5663
4880	64.5877
4876	64.8262
4872	64.9692
4868	64.755
4864	64.517
4860	64.6662
4856	64.9518
4852	64.9744
4848	64.8347
4844	64.6824
4840	64.7575
4836	65.077
4832	65.1444
4828	64.8936
4824	64.7707
4820	64.9193
4816	64.9016
4812	64.6632
4808	64.6299
4804	64.7429
4800	64.7087
4796	64.5669
4792	64.5591
4788	64.7531
4784	64.9265
4780	64.9433
4776	65.0011
4772	65.1305
4768	65.0946
4764	64.9268
4760	64.8864
4756	64.9562
4752	65.0316
4748	65.2056
4744	65.3936
4740	65.4887
4736	65.5589
4732	65.5608
4728	65.4747
4724	65.4251
4720	65.4454
4716	65.3977
4712	65.3965
4708	65.4896
4704	65.2005
4700	64.6449
4696	64.5845
4692	64.9178
4688	65.0384
4684	65.1124
4680	65.3617
4676	65.3563
4672	65.2132
4668	65.3412
4664	65.3618
4660	65.2269
4656	65.2662
4652	65.3359
4648	65.3158
4644	65.4014
4640	65.5766
4636	65.5995
4632	65.5624
4628	65.4613
4624	65.2132
4620	65.0603
4616	65.0904
4612	65.1179
4608	65.128
4604	65.1588
4600	64.9151
4596	64.6488
4592	64.9844
4588	65.4111
4584	65.2781
4580	65.1041
4576	65.1718
4572	65.0155
4568	64.7527
4564	64.6396
4560	64.6404
4556	64.8466
4552	65.2508
4548	65.6426
4544	65.6844
4540	65.3567
4536	65.094
4532	65.2446
4528	65.2761
4524	64.609
4520	63.9142
4516	63.886
4512	64.2369
4508	64.4598
4504	64.4552
4500	64.4283
4496	64.434
4492	64.3976
4488	64.3932
4484	64.3915
4480	64.3286
4476	64.3189
4472	64.3849
4468	64.4565
4464	64.4575
4460	64.4294
4456	64.421
4452	64.4446
4448	64.5852
4444	64.6434
4440	64.6045
4436	64.4896
4432	64.1571
4428	64.024
4424	64.1508
4420	64.2951
4416	64.1951
4412	64.1606
4408	64.0192
4404	63.0406
4400	62.3045
4396	62.1428
4392	61.7794
4388	65.1994
4384	84.0213
4380	92.5031
4376	78.6756
4372	70.5409
4368	67.0562
4364	65.5344
4360	64.6921
4356	64.3971
4352	64.2597
4348	64.5361
4344	64.9646
4340	64.8761
4336	64.6484
4332	64.7232
4328	64.9831
4324	65.0979
4320	64.7633
4316	64.5067
4312	64.7011
4308	64.718
4304	64.5667
4300	64.5912
4296	64.6155
4292	64.6699
4288	64.7531
4284	64.7758
4280	64.8751
4276	64.8981
4272	64.7382
4268	64.6814
4264	64.8524
4260	65.0047
4256	64.9786
4252	64.9544
4248	64.9904
4244	65.0096
4240	65.0248
4236	65.067
4232	65.0966
4228	65.0021
4224	64.9041
4220	64.8894
4216	64.7811
4212	64.66
4208	64.7432
4204	65.0164
4200	65.1513
4196	65.1422
4192	65.4211
4188	65.6961
4184	65.6406
4180	65.5214
4176	65.6739
4172	65.9815
4168	66.0071
4164	65.8749
4160	65.5277
4156	65.1729
4152	65.2998
4148	65.4451
4144	65.2855
4140	65.2004
4136	65.2777
4132	65.2468
4128	65.1205
4124	65.0728
4120	65.1499
4116	65.2787
4112	65.264
4108	65.1095
4104	65.0192
4100	65.0272
4096	65.0007
4092	64.8563
4088	64.8248
4084	65.0475
4080	65.2326
4076	65.2932
4072	65.3338
4068	65.2319
4064	65.0841
4060	65.0919
4056	65.0819
4052	65.0173
4048	65.016
4044	65.0597
4040	65.136
4036	65.1276
4032	65.074
4028	65.1169
4024	65.1979
4020	65.3637
4016	65.5194
4012	65.4074
4008	65.1828
4004	65.124
4000	65.2221
3996	65.3388
3992	65.2942
3988	65.0969
3984	65.0744
3980	65.3084
3976	65.4715
3972	65.4383
3968	65.3558
3964	65.3005
3960	65.3052
3956	65.3166
3952	65.2989
3948	65.2829
3944	65.2009
3940	65.1269
3936	65.168
3932	65.2554
3928	65.3736
3924	65.4158
3920	65.2699
3916	65.2076
3912	65.3596
3908	65.4549
3904	65.4003
3900	65.254
3896	65.0971
3892	65.1232
3888	65.2836
3884	65.2356
3880	65.0572
3876	65.1228
3872	65.3495
3868	65.383
3864	65.1644
3860	65.0501
3856	65.1574
3852	65.1336
3848	64.9758
3844	64.9801
3840	65.0618
3836	65.0058
3832	64.8836
3828	64.8185
3824	64.8903
3820	65.113
3816	65.2416
3812	65.2421
3808	65.1947
3804	65.0953
3800	65.0667
3796	65.0417
3792	65.0159
3788	65.0783
3784	65.1496
3780	65.1563
3776	65.1144
3772	65.1346
3768	65.2048
3764	65.2449
3760	65.2342
3756	65.2429
3752	65.3165
3748	65.354
3744	65.3578
3740	65.3091
3736	65.1422
3732	65.0715
3728	65.167
3724	65.1881
3720	65.1463
3716	65.1609
3712	65.1873
3708	65.1701
3704	65.1757
3700	65.2429
3696	65.2727
3692	65.1855
3688	65.0511
3684	65.1157
3680	65.3407
3676	65.4106
3672	65.27
3668	65.1141
3664	65.134
3660	65.2309
3656	65.1286
3652	64.959
3648	65.0295
3644	65.2838
3640	65.4543
3636	65.42
3632	65.2839
3628	65.2338
3624	65.3221
3620	65.3735
3616	65.3308
3612	65.2856
3608	65.2951
3604	65.3643
3600	65.4203
3596	65.4913
3592	65.5182
3588	65.3932
3584	65.312
3580	65.319
3576	65.2688
3572	65.1933
3568	65.1787
3564	65.1944
3560	65.1889
3556	65.1775
3552	65.128
3548	65.0726
3544	65.0823
3540	65.1736
3536	65.2797
3532	65.3019
3528	65.3009
3524	65.2341
3520	65.1525
3516	65.2424
3512	65.3166
3508	65.3164
3504	65.4291
3500	65.4293
3496	65.181
3492	65.0445
3488	65.0695
3484	65.045
3480	65.1372
3476	65.4231
3472	65.5695
3468	65.5609
3464	65.5654
3460	65.4631
3456	65.326
3452	65.3279
3448	65.369
3444	65.3445
3440	65.2987
3436	65.2754
3432	65.2739
3428	65.2548
3424	65.2316
3420	65.2835
3416	65.3551
3412	65.3302
3408	65.2289
3404	65.1431
3400	65.1103
3396	65.1296
3392	65.2643
3388	65.4204
3384	65.41
3380	65.3625
3376	65.3611
3372	65.278
3368	65.2166
3364	65.2252
3360	65.1684
3356	65.103
3352	65.1206
3348	65.1873
3344	65.2524
3340	65.3518
3336	65.4086
3332	65.2954
3328	65.1248
3324	65.0645
3320	65.1118
3316	65.164
3312	65.1331
3308	65.0733
3304	65.1816
3300	65.3328
3296	65.3146
3292	65.3041
3288	65.3251
3284	65.2331
3280	65.151
3276	65.1425
3272	65.1308
3268	65.1577
3264	65.2297
3260	65.2712
3256	65.2969
3252	65.2828
3248	65.2299
3244	65.1918
3240	65.1718
3236	65.2251
3232	65.2756
3228	65.292
3224	65.2873
3220	65.1611
3216	65.0625
3212	65.091
3208	65.1025
3204	65.0929
3200	65.1484
3196	65.2325
3192	65.2495
3188	65.2405
3184	65.2753
3180	65.28
3176	65.2282
3172	65.208
3168	65.2071
3164	65.1818
3160	65.1677
3156	65.1565
3152	65.1548
3148	65.2366
3144	65.4002
3140	65.5112
3136	65.4907
3132	65.3329
3128	65.1491
3124	65.1131
3120	65.1784
3116	65.2192
3112	65.2688
3108	65.3155
3104	65.2858
3100	65.2541
3096	65.3031
3092	65.3844
3088	65.3628
3084	65.2312
3080	65.1624
3076	65.2324
3072	65.3247
3068	65.3687
3064	65.3371
3060	65.2463
3056	65.221
3052	65.211
3048	65.1691
3044	65.1695
3040	65.2122
3036	65.3025
3032	65.347
3028	65.2815
3024	65.2486
3020	65.1758
3016	64.9848
3012	64.9199
3008	65.026
3004	65.1577
3000	65.2684
2996	65.2745
2992	65.1418
2988	65.0342
2984	65.0788
2980	65.1646
2976	65.1454
2972	65.0877
2968	65.1003
2964	65.0942
2960	65.0602
2956	65.0843
2952	65.1005
2948	65.1139
2944	65.1651
2940	65.1759
2936	65.1783
2932	65.1786
2928	65.0852
2924	64.9809
2920	64.9412
2916	64.9636
2912	64.9748
2908	64.9971
2904	65.1168
2900	65.2243
2896	65.238
2892	65.1605
2888	65.1059
2884	65.135
2880	65.0812
2876	64.9751
2872	65.0204
2868	65.1957
2864	65.3018
2860	65.2119
2856	65.0694
2852	65.0858
2848	65.1376
2844	65.1556
2840	65.262
2836	65.3311
2832	65.28
2828	65.2368
2824	65.2616
2820	65.3655
2816	65.441
2812	65.4061
2808	65.3865
2804	65.3736
2800	65.3243
2796	65.3036
2792	65.2907
2788	65.2643
2784	65.2608
2780	65.315
2776	65.3774
2772	65.3637
2768	65.3046
2764	65.3118
2760	65.3957
2756	65.421
2752	65.3531
2748	65.3705
2744	65.4533
2740	65.4079
2736	65.3136
2732	65.2868
2728	65.2748
2724	65.2308
2720	65.2487
2716	65.3579
2712	65.3949
2708	65.3846
2704	65.3944
2700	65.3683
2696	65.3273
2692	65.2685
2688	65.2204
2684	65.2417
2680	65.2889
2676	65.3175
2672	65.3471
2668	65.3937
2664	65.3925
2660	65.3853
2656	65.4055
2652	65.3499
2648	65.3159
2644	65.3464
2640	65.3977
2636	65.4673
2632	65.457
2628	65.3876
2624	65.3541
2620	65.3521
2616	65.3436
2612	65.3317
2608	65.2998
2604	65.2766
2600	65.2893
2596	65.2891
2592	65.2993
2588	65.3188
2584	65.3388
2580	65.3687
2576	65.3244
2572	65.2565
2568	65.3115
2564	65.4236
2560	65.4404
2556	65.3898
2552	65.3683
2548	65.3678
2544	65.3503
2540	65.3207
2536	65.3307
2532	65.3377
2528	65.3064
2524	65.385
2520	65.4808
2516	65.3663
2512	65.1758
2508	65.0974
2504	65.1579
2500	65.3181
2496	65.4324
2492	65.4333
2488	65.4136
2484	65.4136
2480	65.4
2476	65.3878
2472	65.4071
2468	65.3839
2464	65.2959
2460	65.2755
2456	65.3296
2452	65.3454
2448	65.3413
2444	65.3489
2440	65.3657
2436	65.3906
2432	65.1928
2428	64.6869
2424	64.4401
2420	64.7612
2416	65.16
2412	65.368
2408	65.4589
2404	65.397
2400	65.3138
2396	65.3252
2392	65.3684
2388	65.4253
2384	65.4857
2380	65.5381
2376	65.5299
2372	65.4694
2368	65.4619
2364	65.4298
2360	65.3522
2356	65.3784
2352	65.4417
2348	65.4089
2344	65.3509
2340	65.3431
2336	65.3433
2332	65.3967
2328	65.4627
2324	65.4181
2320	65.37
2316	65.3855
2312	65.3872
2308	65.3734
2304	65.3109
2300	65.2335
2296	65.2776
2292	65.3884
2288	65.4611
2284	65.4662
2280	65.4186
2276	65.3768
2272	65.3181
2268	65.2901
2264	65.3673
2260	65.4365
2256	65.4255
2252	65.3671
2248	65.3202
2244	65.3368
2240	65.3648
2236	65.3545
2232	65.3631
2228	65.4574
2224	65.5111
2220	65.4086
2216	65.2897
2212	65.2881
2208	65.3331
2204	65.3294
2200	65.3523
2196	65.3984
2192	65.3826
2188	65.349
2184	65.3259
2180	65.3471
2176	65.3976
2172	65.3564
2168	65.2382
2164	65.1629
2160	65.0978
2156	65
2152	65.0612
2148	65.2374
2144	65.2903
2140	65.3385
2136	65.4088
2132	65.4065
2128	65.3782
2124	65.3525
2120	65.3542
2116	65.362
2112	65.3907
2108	65.3952
2104	65.3342
2100	65.335
2096	65.4199
2092	65.4852
2088	65.5311
2084	65.6121
2080	65.6504
2076	65.5576
2072	65.4065
2068	65.2851
2064	65.2483
2060	65.3496
2056	65.4544
2052	65.4469
2048	65.3966
2044	65.3759
2040	65.3968
2036	65.3996
2032	65.3604
2028	65.3406
2024	65.3899
2020	65.4762
2016	65.5432
2012	65.5083
2008	65.3868
2004	65.3116
2000	65.3251
1996	65.3938
1992	65.4404
1988	65.4345
1984	65.4006
1980	65.3506
1976	65.3432
1972	65.359
1968	65.3262
1964	65.3096
1960	65.3668
1956	65.4044
1952	65.4018
1948	65.3949
1944	65.3633
1940	65.3862
1936	65.472
1932	65.4747
1928	65.3809
1924	65.3186
1920	65.3725
1916	65.4841
1912	65.5273
1908	65.4703
1904	65.3766
1900	65.3621
1896	65.4116
1892	65.417
1888	65.4133
1884	65.3957
1880	65.3055
1876	65.2729
1872	65.3409
1868	65.3788
1864	65.4012
1860	65.4585
1856	65.4929
1852	65.4402
1848	65.3375
1844	65.2711
1840	65.2647
1836	65.3005
1832	65.3477
1828	65.4044
1824	65.4803
1820	65.5353
1816	65.516
1812	65.4397
1808	65.3736
1804	65.3452
1800	65.3233
1796	65.2886
1792	65.2986
1788	65.4072
1784	65.5061
1780	65.4315
1776	65.2862
1772	65.2385
1768	65.2608
1764	65.3397
1760	65.4748
1756	65.5352
1752	65.4191
1748	65.2437
1744	65.1633
1740	65.1271
1736	65.0788
1732	65.1026
1728	65.2303
1724	65.3788
1720	65.4918
1716	65.52
1712	65.3175
1708	65.0797
1704	65.1218
1700	65.2657
1696	65.3512
1692	65.4298
1688	65.4639
1684	65.39
1680	65.2695
1676	65.2313
1672	65.2428
1668	65.2537
1664	65.3086
1660	65.3327
1656	65.2719
1652	65.2329
1648	65.261
1644	65.3824
1640	65.4663
1636	65.3565
1632	65.2637
1628	65.2772
1624	65.2359
1620	65.1376
1616	65.1104
1612	65.1652
1608	65.1963
1604	65.2088
1600	65.1731
1596	65.058
1592	65.0142
1588	65.0715
1584	65.1345
1580	65.2426
1576	65.3168
1572	65.2264
1568	65.1508
1564	65.2145
1560	65.2636
1556	65.1715
1552	65.0682
1548	65.0826
1544	65.1228
1540	65.1048
1536	65.0754
1532	65.0887
1528	65.1293
1524	65.1387
1520	65.0738
1516	64.9591
1512	64.8879
1508	64.9406
1504	65.0508
1500	65.1014
1496	65.141
1492	65.2634
1488	65.312
1484	65.2504
1480	65.2562
1476	65.3026
1472	65.2747
1468	65.2112
1464	65.1536
1460	65.1955
1456	65.3138
1452	65.1852
1448	64.9703
1444	64.9965
1440	65.1197
1436	65.2528
1432	65.3644
1428	65.3387
1424	65.2532
1420	65.2363
1416	65.2233
1412	65.1866
1408	65.1662
1404	65.142
1400	65.1477
1396	65.1619
1392	65.1009
1388	65.0941
1384	65.2079
1380	65.2704
1376	65.23
1372	65.1354
1368	65.0474
1364	65.0345
1360	65.0585
1356	65.0599
1352	65.0604
1348	65.067
1344	65.0784
1340	65.1262
1336	65.1106
1332	65.0187
1328	65.0135
1324	65.0959
1320	65.1471
1316	65.1153
1312	65.0333
1308	64.9465
1304	64.9269
1300	64.9964
1296	65.0583
1292	65.0833
1288	65.1176
1284	65.1582
1280	65.1793
1276	65.1841
1272	65.2001
1268	65.1754
1264	65.0876
1260	65.0557
1256	65.0653
1252	65.0496
1248	65.0159
1244	64.9362
1240	64.9001
1236	64.958
1232	64.9569
1228	64.9228
1224	64.9973
1220	65.0575
1216	65.0381
1212	65.055
1208	65.1051
1204	65.1095
1200	65.0335
1196	64.9947
1192	65.0857
1188	65.1049
1184	64.981
1180	64.8855
1176	64.8216
1172	64.7908
1168	64.8301
1164	64.833
1160	64.804
1156	64.7884
1152	64.7396
1148	64.7132
1144	64.7856
1140	64.9297
1136	65.006
1132	64.929
1128	64.8404
1124	64.7965
1120	64.7331
1116	64.7532
1112	64.8293
1108	64.8312
1104	64.8177
1100	64.8264
1096	64.8264
1092	64.777
1088	64.7242
1084	64.8086
1080	64.9374
1076	64.9387
1072	64.905
1068	64.8601
1064	64.79
1060	64.7658
1056	64.7442
1052	64.6915
1048	64.7173
1044	64.8696
1040	64.9271
1036	64.7871
1032	64.6461
1028	64.6991
1024	64.778
1020	64.7087
1016	64.6856
1012	64.7565
1008	64.7635
1004	64.6966
1000	64.6654
996	 64.7573
992	 64.8673
988	 64.7964
984	 64.6081
980	 64.5574
976	 64.6076
972	 64.5463
968	 64.368
964	 64.2969
960	 64.6937
956	 65.0921
952	 65.0282
948	 65.0558
944	 65.222
940	 65.0384
936	 64.5559
932	 64.111
928	 63.9863
924	 64.3611
920	 64.8835
916	 65.0962
912	 64.9554
908	 64.6916
904	 64.5176
900	 64.3867
896	 64.4071
892	 64.6214
888	 64.7976
884	 64.8234
880	 64.7706
876	 64.7278
872	 64.621
868	 64.4729
864	 64.4339
860	 64.4818
856	 64.4801
852	 64.4527
848	 64.4652
844	 64.473
840	 64.5243
836	 64.4891
832	 64.2623
828	 64.1377
824	 64.2121
820	 64.3174
816	 64.4524
812	 64.5441
808	 64.4753
804	 64.3967
800	 64.307
796	 64.0158
792	 63.8164
788	 63.9346
784	 64.1716
780	 64.2739
776	 64.1112
772	 63.9372
768	 63.9096
764	 63.9653
760	 64.0031
756	 64.0143
752	 64.186
748	 64.5412
744	 64.6928
740	 64.2099
736	 63.4762
732	 63.0876
728	 63.1079
724	 63.4146
720	 63.6321
716	 63.5791
712	 63.4158
708	 63.2065
704	 63.1762
700	 63.3295
696	 63.3292
692	 63.1946
688	 63.0899
684	 63.1615
680	 63.358
676	 63.327
672	 63.1862
668	 63.1579
664	 63.0022
660	 62.7514
656	 62.7241
652	 62.8542
648	 62.8976
644	 62.7106
640	 62.3436
636	 62.1227
632	 62.1286
628	 62.2151
624	 62.255
620	 62.2041
616	 62.2042
612	 62.1903
608	 62.3348
604	 62.6776
600	 62.6631
596	 62.4129
592	 62.378
588	 62.3761
584	 62.2199
580	 62.0698
576	 61.9333
572	 61.879
568	 61.9416
564	 61.9486
560	 61.9241
556	 61.947
552	 61.8531
548	 61.6917
544	 61.7637
540	 61.8823
536	 61.6226
532	 61.241
528	 61.3807
524	 61.6026
520	 61.5937
516	 61.7028
512	 61.4999
508	 61.1365
504	 61.0301
500	 60.8579
496	 60.5749
492	 60.534
488	 60.4467
484	 60.2483
480	 60.5159
476	 60.643
472	 60.2417
468	 60.0838
464	 60.2556
460	 60.7004
456	 61.3505
452	 60.8345
448	 59.3717
444	 58.8982
440	 59.5144
436	 59.1704
432	 57.6118
428	 56.2478
424	 54.8924
420	 56.1342
416	 58.8368
412	 58.804
408	 59.6997
404	 60.365
400	 52.9737
396	 44.8997
392	 46.0532
388	 49.1757
384	 53.6691
380	 60.8592
376	 59.9808
372	 50.0202
370	 45.7551