File: Bakgrunnsmateriale/MATLAB/FTIR/ftir_data/subBb/Mapping_121/C-4040-8_t59_cm-1.asc
PE IR       SPECTRUM    SPECTRUM    ASCII       PEDS        1.60
  -1
C-1CE0~1.ASC
17/03/27
19:19:09.00
17/03/27
19:19:09.00
tln
$C-4040-8_t0059$<tbV0>[5.2,0.0,8.0,0.0,27,1,0]
370
64

2002,4.07
MIRTGS : RIGHTBACK : INTERNAL 2
MIR : ON : INTERNAL 2
OPTKBR

0.200000
8
8.000000
FILLER
RATIO
SPECTRUM
UNLOCKED 256

DOUBLE
64
COMBINED
1
0
0

1.000000
RATIO

1
0
TRUE
51149
0
LEFT NOT FITTED RIGHT NOT FITTED 0
NONE
NONE
15600
12
4.427000
51148
TRUE
1 0 8 72 0 0 0 0

15798

#HDR
-1
-1
#GR
CM-1
%T
2.38419e-05
0.0
5000
-1.000000
4631
8
116.406
33.6645
#DATA
5000	64.9382
4996	65.0002
4992	64.9221
4988	65.1552
4984	65.2464
4980	64.8323
4976	64.4121
4972	64.3089
4968	64.6284
4964	65.3214
4960	65.7514
4956	65.6411
4952	65.6675
4948	65.6971
4944	65.5504
4940	65.5337
4936	65.3588
4932	65.1741
4928	65.3558
4924	65.4293
4920	65.1345
4916	65.0525
4912	65.2323
4908	65.5061
4904	65.8102
4900	65.6663
4896	65.2711
4892	65.1699
4888	65.1949
4884	65.0381
4880	64.867
4876	64.9099
4872	65.0378
4868	64.8323
4864	64.4295
4860	64.5669
4856	65.1832
4852	65.6062
4848	65.4804
4844	64.9172
4840	64.6328
4836	64.7451
4832	64.6912
4828	64.5845
4824	64.5886
4820	64.6126
4816	64.7595
4812	64.9788
4808	65.0841
4804	65.1847
4800	65.2902
4796	65.0967
4792	64.8048
4788	64.8326
4784	65.0849
4780	65.1264
4776	64.807
4772	64.6282
4768	64.7341
4764	64.7785
4760	64.8058
4756	64.7948
4752	64.5432
4748	64.2222
4744	64.145
4740	64.2344
4736	64.3005
4732	64.4664
4728	64.7004
4724	64.8216
4720	64.8526
4716	64.8512
4712	64.913
4708	65.0364
4704	64.8591
4700	64.4364
4696	64.3931
4692	64.6607
4688	64.7509
4684	64.6166
4680	64.4374
4676	64.3646
4672	64.3252
4668	64.3698
4664	64.5576
4660	64.5424
4656	64.3838
4652	64.2759
4648	64.1732
4644	64.2596
4640	64.4674
4636	64.5971
4632	64.672
4628	64.6301
4624	64.4154
4620	64.2282
4616	64.2054
4612	64.1748
4608	64.1179
4604	64.3367
4600	64.6827
4596	64.6758
4592	64.491
4588	64.6873
4584	65.1467
4580	65.2022
4576	65.0353
4572	65.0664
4568	65.0021
4564	64.8563
4560	64.8377
4556	64.9335
4552	65.1244
4548	65.2328
4544	65.0783
4540	64.797
4536	64.6226
4532	64.8027
4528	65.1389
4524	65.1938
4520	65.0849
4516	65.069
4512	65.2683
4508	65.4901
4504	65.4736
4500	65.3748
4496	65.3841
4492	65.4979
4488	65.7104
4484	65.9799
4480	66.2613
4476	66.2885
4472	65.9239
4468	65.6031
4464	65.583
4460	65.8068
4456	66.0707
4452	66.1075
4448	65.9984
4444	66.0615
4440	66.1429
4436	66.1926
4432	66.2958
4428	66.3365
4424	66.2729
4420	66.0586
4416	66.1
4412	66.6082
4408	67.0865
4404	67.0733
4400	66.7285
4396	66.4576
4392	66.2043
4388	65.9076
4384	66.0951
4380	66.7072
4376	66.4767
4372	66.5204
4368	65.7324
4364	54.6389
4360	38.8573
4356	33.817
4352	42.3343
4348	54.7274
4344	63.1167
4340	67.5189
4336	68.0437
4332	66.9669
4328	66.6612
4324	66.9853
4320	66.9057
4316	66.609
4312	66.398
4308	66.1423
4304	65.9441
4300	65.9702
4296	66.2378
4292	66.4314
4288	66.515
4284	66.677
4280	66.7228
4276	66.4324
4272	66.1829
4268	66.1218
4264	65.8482
4260	65.564
4256	65.5732
4252	65.6083
4248	65.6749
4244	65.8144
4240	65.8713
4236	65.8866
4232	65.8303
4228	65.7428
4224	65.784
4220	65.8578
4216	65.8165
4212	65.6654
4208	65.7126
4204	65.8348
4200	65.5008
4196	65.1202
4192	65.1008
4188	64.936
4184	64.5854
4180	64.5354
4176	64.8581
4172	65.3202
4168	65.5401
4164	65.554
4160	65.4796
4156	65.1893
4152	65.0083
4148	65.073
4144	65.2063
4140	65.3188
4136	65.2888
4132	65.1084
4128	65.0064
4124	64.9957
4120	64.887
4116	64.7629
4112	64.8014
4108	64.9603
4104	64.9638
4100	64.8492
4096	64.8422
4092	64.831
4088	64.7151
4084	64.6569
4080	64.7566
4076	64.838
4072	64.7331
4068	64.589
4064	64.6968
4060	64.9722
4056	65.0882
4052	65.0429
4048	65.0357
4044	65.0346
4040	64.9529
4036	64.9326
4032	64.8946
4028	64.8199
4024	64.9412
4020	65.0358
4016	64.923
4012	64.8129
4008	64.832
4004	64.9628
4000	65.029
3996	64.9305
3992	64.8016
3988	64.7765
3984	64.9122
3980	65.0443
3976	64.9383
3972	64.8007
3968	64.8686
3964	64.9544
3960	64.9931
3956	65.0755
3952	65.0955
3948	65.0685
3944	65.1553
3940	65.2141
3936	65.1476
3932	65.1012
3928	64.9318
3924	64.623
3920	64.5446
3916	64.7994
3912	65.094
3908	65.1074
3904	64.9362
3900	64.9295
3896	65.0348
3892	65.1357
3888	65.2541
3884	65.2395
3880	65.2
3876	65.3541
3872	65.4523
3868	65.3821
3864	65.3234
3860	65.3395
3856	65.4644
3852	65.4691
3848	65.3061
3844	65.2475
3840	65.2715
3836	65.2886
3832	65.3022
3828	65.3236
3824	65.3856
3820	65.4099
3816	65.4069
3812	65.44
3808	65.4464
3804	65.3781
3800	65.2337
3796	65.2137
3792	65.3785
3788	65.4365
3784	65.3316
3780	65.2839
3776	65.2611
3772	65.1791
3768	65.1397
3764	65.1689
3760	65.1923
3756	65.1612
3752	65.2105
3748	65.3283
3744	65.2871
3740	65.1126
3736	65.0405
3732	65.1248
3728	65.1688
3724	65.1407
3720	65.0756
3716	64.9983
3712	65.0416
3708	65.0899
3704	65.007
3700	64.9398
3696	65.003
3692	65.1141
3688	65.1857
3684	65.2319
3680	65.2354
3676	65.1712
3672	65.0405
3668	64.9079
3664	64.9232
3660	65.1052
3656	65.2646
3652	65.2528
3648	65.1564
3644	65.0997
3640	65.0946
3636	65.1519
3632	65.2316
3628	65.2302
3624	65.2121
3620	65.1855
3616	65.0445
3612	64.9198
3608	64.9683
3604	65.0767
3600	65.0661
3596	64.9728
3592	64.9338
3588	64.9305
3584	64.9881
3580	65.2347
3576	65.4745
3572	65.4434
3568	65.2527
3564	65.1747
3560	65.1701
3556	65.0836
3552	65.0461
3548	65.0401
3544	64.9429
3540	64.8563
3536	64.8283
3532	64.91
3528	65.1212
3524	65.2282
3520	65.1645
3516	65.0861
3512	65.0378
3508	65.0935
3504	65.174
3500	65.056
3496	64.8658
3492	64.871
3488	65.0967
3484	65.289
3480	65.3269
3476	65.3861
3472	65.5076
3468	65.5988
3464	65.5548
3460	65.3927
3456	65.3001
3452	65.2856
3448	65.2469
3444	65.1896
3440	65.1654
3436	65.2219
3432	65.2887
3428	65.3173
3424	65.3061
3420	65.2408
3416	65.1788
3412	65.2052
3408	65.2857
3404	65.2696
3400	65.2589
3396	65.3306
3392	65.3517
3388	65.3517
3384	65.3564
3380	65.3567
3376	65.2992
3372	65.2206
3368	65.2844
3364	65.3181
3360	65.2164
3356	65.2111
3352	65.2549
3348	65.2071
3344	65.2159
3340	65.3188
3336	65.3686
3332	65.3973
3328	65.4203
3324	65.3654
3320	65.3615
3316	65.3954
3312	65.3159
3308	65.23
3304	65.2187
3300	65.2119
3296	65.2621
3292	65.3056
3288	65.1492
3284	64.9924
3280	64.9996
3276	64.9746
3272	64.9904
3268	65.151
3264	65.2404
3260	65.2874
3256	65.3801
3252	65.3533
3248	65.1921
3244	65.0096
3240	64.9303
3236	65.0155
3232	65.1617
3228	65.146
3224	64.9304
3220	64.818
3216	64.8594
3212	64.9151
3208	64.9544
3204	64.9747
3200	65.0727
3196	65.1085
3192	64.9741
3188	64.9448
3184	65.0986
3180	65.2537
3176	65.3432
3172	65.3333
3168	65.2024
3164	65.0758
3160	65.0512
3156	65.1044
3152	65.1548
3148	65.1321
3144	65.0577
3140	65.0499
3136	65.1717
3132	65.2321
3128	65.0854
3124	64.7876
3120	64.5638
3116	64.6442
3112	64.84
3108	64.959
3104	65.0605
3100	65.1572
3096	65.2678
3092	65.3776
3088	65.4
3084	65.3062
3080	65.1772
3076	65.1405
3072	65.1782
3068	65.2035
3064	65.2604
3060	65.312
3056	65.3014
3052	65.3445
3048	65.4171
3044	65.3938
3040	65.3583
3036	65.3452
3032	65.2471
3028	65.1268
3024	65.0753
3020	65.0839
3016	65.1459
3012	65.2081
3008	65.2105
3004	65.2141
3000	65.255
2996	65.2318
2992	65.1988
2988	65.2182
2984	65.187
2980	65.1387
2976	65.1509
2972	65.21
2968	65.2987
2964	65.3163
2960	65.2521
2956	65.2384
2952	65.3016
2948	65.3504
2944	65.3194
2940	65.2636
2936	65.2135
2932	65.1361
2928	65.0296
2924	64.9654
2920	64.9668
2916	64.9825
2912	65.0605
2908	65.157
2904	65.1936
2900	65.1938
2896	65.1507
2892	65.1026
2888	65.1389
2884	65.1796
2880	65.1701
2876	65.2096
2872	65.2594
2868	65.2776
2864	65.3031
2860	65.325
2856	65.3411
2852	65.3452
2848	65.3936
2844	65.4805
2840	65.3905
2836	65.1895
2832	65.0964
2828	65.0703
2824	65.1467
2820	65.268
2816	65.2728
2812	65.2239
2808	65.2113
2804	65.2384
2800	65.2955
2796	65.374
2792	65.4078
2788	65.362
2784	65.294
2780	65.2564
2776	65.2494
2772	65.2486
2768	65.2771
2764	65.3256
2760	65.3236
2756	65.2757
2752	65.2472
2748	65.2454
2744	65.2251
2740	65.2096
2736	65.2503
2732	65.2665
2728	65.1819
2724	65.1068
2720	65.1293
2716	65.155
2712	65.1608
2708	65.2301
2704	65.2843
2700	65.2106
2696	65.113
2692	65.1025
2688	65.13
2684	65.1781
2680	65.2194
2676	65.2111
2672	65.2279
2668	65.3053
2664	65.3649
2660	65.3517
2656	65.2854
2652	65.242
2648	65.2427
2644	65.2249
2640	65.2222
2636	65.2754
2632	65.3048
2628	65.2657
2624	65.2359
2620	65.2928
2616	65.3897
2612	65.4535
2608	65.4325
2604	65.3628
2600	65.33
2596	65.2935
2592	65.2494
2588	65.2876
2584	65.4024
2580	65.4352
2576	65.281
2572	65.1376
2568	65.1592
2564	65.2246
2560	65.3086
2556	65.4541
2552	65.545
2548	65.5396
2544	65.493
2540	65.391
2536	65.2718
2532	65.2004
2528	65.1486
2524	65.1614
2520	65.2654
2516	65.3412
2512	65.4403
2508	65.5365
2504	65.3339
2500	65.0241
2496	65.011
2492	65.1419
2488	65.2704
2484	65.4056
2480	65.4486
2476	65.4077
2472	65.3163
2468	65.2567
2464	65.3075
2460	65.3395
2456	65.2846
2452	65.3342
2448	65.4639
2444	65.4649
2440	65.3865
2436	65.3168
2432	65.3193
2428	65.434
2424	65.484
2420	65.362
2416	65.1867
2412	65.0591
2408	65.1612
2404	65.4236
2400	65.4819
2396	65.383
2392	65.351
2388	65.3629
2384	65.3752
2380	65.3713
2376	65.3193
2372	65.2937
2368	65.338
2364	65.4116
2360	65.4462
2356	65.4077
2352	65.3768
2348	65.3644
2344	65.3364
2340	65.3041
2336	65.3152
2332	65.3649
2328	65.376
2324	65.3252
2320	65.2098
2316	65.1555
2312	65.2096
2308	65.2735
2304	65.3668
2300	65.4415
2296	65.4192
2292	65.3755
2288	65.3894
2284	65.3867
2280	65.336
2276	65.321
2272	65.3275
2268	65.2863
2264	65.2638
2260	65.3329
2256	65.4382
2252	65.4966
2248	65.4603
2244	65.3641
2240	65.2684
2236	65.2628
2232	65.3471
2228	65.3671
2224	65.2897
2220	65.2315
2216	65.2717
2212	65.3153
2208	65.2694
2204	65.2517
2200	65.3219
2196	65.3887
2192	65.4189
2188	65.4019
2184	65.3221
2180	65.2915
2176	65.2962
2172	65.2627
2168	65.2883
2164	65.3922
2160	65.4934
2156	65.458
2152	65.408
2148	65.4835
2144	65.5429
2140	65.5506
2136	65.5146
2132	65.4512
2128	65.4026
2124	65.3527
2120	65.3498
2116	65.3639
2112	65.3388
2108	65.3545
2104	65.3392
2100	65.2762
2096	65.3018
2092	65.3254
2088	65.2749
2084	65.3426
2080	65.5361
2076	65.5198
2072	65.2217
2068	64.9714
2064	64.9516
2060	65.1142
2056	65.2708
2052	65.2965
2048	65.3089
2044	65.3227
2040	65.3002
2036	65.3481
2032	65.4273
2028	65.4045
2024	65.3129
2020	65.2433
2016	65.2255
2012	65.278
2008	65.3859
2004	65.4311
2000	65.3338
1996	65.2424
1992	65.2734
1988	65.3623
1984	65.4324
1980	65.4112
1976	65.3413
1972	65.3279
1968	65.3081
1964	65.2562
1960	65.2613
1956	65.3273
1952	65.3871
1948	65.3825
1944	65.3368
1940	65.316
1936	65.3456
1932	65.3707
1928	65.3679
1924	65.3959
1920	65.4226
1916	65.3795
1912	65.3053
1908	65.2736
1904	65.3047
1900	65.3605
1896	65.3809
1892	65.3494
1888	65.2824
1884	65.291
1880	65.4212
1876	65.4944
1872	65.4187
1868	65.3171
1864	65.292
1860	65.3063
1856	65.2963
1852	65.2719
1848	65.2873
1844	65.3321
1840	65.33
1836	65.3385
1832	65.4155
1828	65.4167
1824	65.3188
1820	65.2921
1816	65.3632
1812	65.4237
1808	65.4154
1804	65.3668
1800	65.3067
1796	65.251
1792	65.252
1788	65.2192
1784	65.1061
1780	65.0852
1776	65.2044
1772	65.3431
1768	65.3508
1764	65.2342
1760	65.1677
1756	65.2034
1752	65.2675
1748	65.2885
1744	65.222
1740	65.1185
1736	65.0394
1732	64.9937
1728	64.9842
1724	64.9936
1720	64.9967
1716	64.9969
1712	64.9961
1708	65.0232
1704	65.1012
1700	65.1659
1696	65.1844
1692	65.1711
1688	65.1397
1684	65.1684
1680	65.2417
1676	65.2648
1672	65.3154
1668	65.4147
1664	65.404
1660	65.2668
1656	65.1801
1652	65.1982
1648	65.2636
1644	65.3497
1640	65.3445
1636	65.2043
1632	65.087
1628	65.057
1624	65.1053
1620	65.2395
1616	65.3203
1612	65.2544
1608	65.1659
1604	65.1376
1600	65.0882
1596	65.0326
1592	65.0294
1588	65.0404
1584	65.0673
1580	65.0897
1576	65.0818
1572	65.113
1568	65.1342
1564	65.0245
1560	64.9112
1556	64.9267
1552	64.9822
1548	65.021
1544	65.0167
1540	64.9965
1536	65.0334
1532	65.0637
1528	65.0245
1524	65.0168
1520	65.0648
1516	65.0866
1512	65.1522
1508	65.2468
1504	65.3097
1500	65.3704
1496	65.3224
1492	65.1729
1488	65.1157
1484	65.1377
1480	65.1451
1476	65.0871
1472	65.0759
1468	65.215
1464	65.2879
1460	65.1011
1456	64.8419
1452	64.8245
1448	64.9768
1444	65.0321
1440	65.0534
1436	65.106
1432	65.1221
1428	65.162
1424	65.1821
1420	65.1046
1416	65.0563
1412	65.0737
1408	65.0333
1404	64.9549
1400	64.9251
1396	64.9537
1392	64.9718
1388	64.965
1384	65.0336
1380	65.13
1376	65.1576
1372	65.118
1368	65.0898
1364	65.1156
1360	65.1189
1356	65.0834
1352	65.0125
1348	64.9501
1344	64.9981
1340	65.0981
1336	65.1227
1332	65.0809
1328	65.0482
1324	65.0182
1320	64.9749
1316	65.0002
1312	65.0393
1308	64.9831
1304	64.9631
1300	65.0278
1296	65.0318
1292	64.9853
1288	65.0096
1284	65.0682
1280	65.0523
1276	64.9712
1272	64.8978
1268	64.9207
1264	64.9966
1260	64.9855
1256	64.9237
1252	64.8954
1248	64.9359
1244	65.0085
1240	64.9893
1236	64.8829
1232	64.8389
1228	64.9282
1224	64.9721
1220	64.8842
1216	64.8211
1212	64.8019
1208	64.8683
1204	65.0445
1200	65.0991
1196	64.9839
1192	64.9129
1188	64.9194
1184	64.8616
1180	64.8218
1176	64.8455
1172	64.8466
1168	64.8503
1164	64.9007
1160	64.8758
1156	64.8032
1152	64.9671
1148	65.241
1144	65.2626
1140	65.1333
1136	65.0857
1132	64.9405
1128	64.6852
1124	64.6966
1120	64.826
1116	64.741
1112	64.6058
1108	64.5289
1104	64.661
1100	64.9488
1096	64.7551
1092	64.3178
1088	64.4223
1084	64.6548
1080	64.6289
1076	64.7927
1072	65.0243
1068	64.9369
1064	64.7479
1060	64.6262
1056	64.588
1052	64.7141
1048	64.6784
1044	64.4551
1040	64.567
1036	64.7681
1032	64.658
1028	64.5103
1024	64.4649
1020	64.4269
1016	64.4148
1012	64.5605
1008	64.7644
1004	64.7394
1000	64.5929
996	 64.5
992	 64.4571
988	 64.5254
984	 64.6363
980	 64.6305
976	 64.5725
972	 64.5612
968	 64.5405
964	 64.4732
960	 64.3745
956	 64.2846
952	 64.292
948	 64.3555
944	 64.3903
940	 64.4167
936	 64.4546
932	 64.4835
928	 64.4294
924	 64.3599
920	 64.3613
916	 64.3659
912	 64.2924
908	 64.2359
904	 64.3169
900	 64.3077
896	 64.1915
892	 64.194
888	 64.2091
884	 64.2257
880	 64.2786
876	 64.1337
872	 63.9226
868	 63.9911
864	 64.2003
860	 64.3509
856	 64.4278
852	 64.3999
848	 64.338
844	 64.2448
840	 64.2673
836	 64.4527
832	 64.49
828	 64.3293
824	 64.0928
820	 63.8466
816	 63.7914
812	 64.0506
808	 64.188
804	 64.0456
800	 63.9861
796	 63.8442
792	 63.5673
788	 63.4981
784	 63.5921
780	 63.708
776	 63.8342
772	 63.8596
768	 63.7265
764	 63.5859
760	 63.6683
756	 63.9588
752	 64.1434
748	 63.9626
744	 63.5891
740	 63.3768
736	 63.4076
732	 63.5407
728	 63.52
724	 63.3557
720	 63.3902
716	 63.609
712	 63.5548
708	 63.3265
704	 63.3986
700	 63.5458
696	 63.4767
692	 63.2143
688	 62.7677
684	 62.5729
680	 62.7478
676	 62.9015
672	 62.9145
668	 62.7747
664	 62.6754
660	 62.8941
656	 63.1877
652	 63.0982
648	 62.6104
644	 62.1305
640	 61.9153
636	 61.8201
632	 61.9904
628	 62.3991
624	 62.5415
620	 62.5402
616	 62.599
612	 62.4726
608	 62.3278
604	 62.4115
600	 62.2558
596	 61.8767
592	 61.7541
588	 61.6999
584	 61.7297
580	 61.8748
576	 61.6251
572	 61.1511
568	 61.1086
564	 61.2431
560	 61.1292
556	 60.9999
552	 60.9468
548	 60.9107
544	 60.8457
540	 60.9263
536	 61.2182
532	 61.0641
528	 60.7128
524	 60.5874
520	 60.3
516	 60.4299
512	 60.8666
508	 60.3746
504	 59.6094
500	 59.5894
496	 59.3583
492	 58.8849
488	 59.3117
484	 59.9165
480	 59.5679
476	 59.1318
472	 59.3497
468	 59.1546
464	 58.1049
460	 57.8156
456	 59.2405
452	 59.7443
448	 58.1825
444	 57.4271
440	 57.4144
436	 56.621
432	 55.8417
428	 55.8162
424	 57.5627
420	 60.6474
416	 61.0741
412	 61.5207
408	 66.6017
404	 68.9352
400	 67.0474
396	 81.3565
392	 101.905
388	 95.0376
384	 76.8535
380	 92.2007
376	 116.406
372	 83.8155
370	 53.2821