File: Bakgrunnsmateriale/MATLAB/FTIR/ftir_data/subBb/Mapping_121/C-4040-8_t69.asc
PE IR       SPECTRUM    SPECTRUM    ASCII       PEDS        1.60
  -1
C-CD3E~1.ASC
17/03/27
20:12:02.00
17/03/27
20:12:28.00
tln
$C-4040-8_t0069$<tbV0>[7.8,2.6,8.0,0.0,27,1,0]
27.028
64

2002,4.07
MIRTGS : RIGHTBACK : INTERNAL 2
MIR : ON : INTERNAL 2
OPTKBR

0.200000
8
8.000000
FILLER
RATIO
SPECTRUM
UNLOCKED 256

DOUBLE
64
COMBINED
1
0
0

0.002000
RATIO

1
0
TRUE
51149
0
LEFT NOT FITTED RIGHT NOT FITTED 0
NONE
NONE
15600
12
4.427000
51148
TRUE
1 0 8 72 0 0 0 0

15798

#HDR
-1
-1
#GR
µM
%T
2.38419e-05
0.0
2.000000
0.002000
12515
8
82.1702
48.0799
#DATA
2.000000	 65.1887
2.018000	 64.9698
2.036000	 65.0201
2.054000	 65.5704
2.072000	 64.9588
2.090000	 64.8595
2.108000	 65.1526
2.126000	 65.0075
2.144000	 65.2988
2.162000	 65.076
2.180000	 65.4414
2.198000	 64.8586
2.216000	 64.9469
2.234000	 64.8538
2.252000	 64.8254
2.270000	 63.5675
2.288000	 62.4122
2.306000	 65.1152
2.324000	 64.8662
2.342000	 64.534
2.360000	 64.8411
2.378000	 65.1979
2.396000	 65.0927
2.414000	 65.0816
2.432000	 64.9135
2.450000	 65.1402
2.468000	 65.1339
2.486000	 65.0945
2.504000	 65.0866
2.522000	 65.0829
2.540000	 65.2874
2.558000	 65.2202
2.576000	 65.0249
2.594000	 64.7773
2.612000	 65.0574
2.630000	 65.0403
2.648000	 65.0122
2.666000	 65.2255
2.684000	 65.1258
2.702000	 65.0364
2.720000	 65.1918
2.738000	 65.1972
2.756000	 65.2564
2.774000	 65.0841
2.792000	 65.3726
2.810000	 64.9366
2.828000	 65.2414
2.846000	 65.1849
2.864000	 65.238
2.882000	 65.3493
2.900000	 65.2607
2.918000	 64.8941
2.936000	 65.074
2.954000	 65.0153
2.972000	 65.0571
2.990000	 65.1632
3.008000	 65.2076
3.026000	 65.0854
3.044000	 65.2235
3.062000	 65.2238
3.080000	 65.2688
3.098000	 65.0404
3.116000	 65.1209
3.134000	 65.1198
3.152000	 65.0463
3.170000	 65.1047
3.188000	 65.3625
3.206000	 65.216
3.224000	 65.1625
3.242000	 65.2199
3.260000	 65.2657
3.278000	 65.1126
3.296000	 65.1691
3.314000	 65.1675
3.332000	 65.3152
3.350000	 65.2346
3.368000	 65.0119
3.386000	 64.9087
3.404000	 65.0144
3.422000	 64.7329
3.440000	 64.9841
3.458000	 65.1819
3.476000	 65.05
3.494000	 65.3259
3.512000	 65.2472
3.530000	 65.0898
3.548000	 65.236
3.566000	 65.1339
3.584000	 65.235
3.602000	 65.3127
3.620000	 65.3323
3.638000	 65.307
3.656000	 65.3223
3.674000	 65.3416
3.692000	 65.3033
3.710000	 65.2197
3.728000	 65.1641
3.746000	 65.274
3.764000	 65.2249
3.782000	 65.2198
3.800000	 65.3078
3.818000	 65.3462
3.836000	 65.2488
3.854000	 65.1061
3.872000	 65.306
3.890000	 65.289
3.908000	 65.2416
3.926000	 65.3033
3.944000	 65.2634
3.962000	 65.2885
3.980000	 65.2871
3.998000	 64.9851
4.016000	 65.34
4.034000	 65.3015
4.052000	 65.2908
4.070000	 65.3364
4.088000	 65.3023
4.106000	 65.5505
4.124000	 65.2604
4.141999	 65.1767
4.160000	 65.3949
4.178000	 65.2065
4.196000	 65.2599
4.214000	 65.3497
4.232000	 65.2625
4.250000	 65.2212
4.268000	 65.1269
4.286000	 65.2867
4.304000	 65.2209
4.322000	 65.2371
4.340000	 65.293
4.358000	 65.2384
4.375999	 65.2631
4.394000	 65.2663
4.412000	 65.2162
4.430000	 65.2925
4.448000	 65.3176
4.466000	 65.374
4.484000	 65.2998
4.502000	 65.3032
4.520000	 65.2659
4.538000	 65.2617
4.556000	 65.3289
4.574000	 65.3276
4.592000	 65.3644
4.609999	 65.3355
4.628000	 65.2663
4.646000	 65.0452
4.664000	 65.1516
4.682000	 65.3179
4.700000	 65.4145
4.718000	 65.3065
4.736000	 65.2535
4.754000	 65.3356
4.772000	 65.3175
4.790000	 65.3968
4.808000	 65.5672
4.826000	 65.3137
4.843999	 65.1728
4.862000	 65.2622
4.880000	 65.273
4.898000	 65.2048
4.916000	 65.2447
4.934000	 65.3097
4.952000	 65.2849
4.970000	 65.4394
4.988000	 65.3791
5.006000	 65.3009
5.024000	 65.3041
5.042000	 65.2483
5.060000	 65.2082
5.077999	 65.3069
5.096000	 65.3027
5.114000	 65.2533
5.132000	 65.2678
5.150000	 65.2612
5.168000	 65.3161
5.186000	 65.3837
5.204000	 65.3994
5.222000	 65.3644
5.240000	 65.3326
5.258000	 65.2448
5.276000	 65.2871
5.294000	 65.3509
5.312000	 65.2396
5.330000	 65.2754
5.348000	 65.2035
5.366000	 65.2176
5.384000	 65.278
5.402000	 65.1725
5.420000	 65.2417
5.438000	 65.2921
5.456000	 65.2936
5.474000	 65.3527
5.492000	 65.4426
5.510000	 65.3246
5.528000	 65.1971
5.546000	 65.2583
5.564000	 65.2181
5.582000	 65.1825
5.600000	 65.2633
5.618000	 65.2976
5.636000	 65.2833
5.654000	 65.388
5.672000	 65.2643
5.690000	 65.2105
5.708000	 65.1903
5.726000	 65.1732
5.744000	 65.1444
5.762000	 65.0535
5.780000	 64.99
5.798000	 64.9632
5.816000	 65.1886
5.834000	 65.3681
5.852000	 65.174
5.870000	 65.1011
5.888000	 65.1723
5.906000	 65.2188
5.923999	 65.255
5.942000	 65.2504
5.960000	 65.2532
5.978000	 65.2904
5.996000	 65.2892
6.014000	 65.246
6.032000	 65.1538
6.050000	 65.1633
6.068000	 65.2487
6.086000	 65.2112
6.104000	 65.1361
6.122000	 65.1659
6.140000	 65.2024
6.158000	 65.1542
6.176000	 65.1962
6.194000	 65.2486
6.212000	 65.1278
6.230000	 65.074
6.248000	 65.0904
6.266000	 65.0368
6.284000	 65.0542
6.302000	 65.1759
6.320000	 65.1739
6.338000	 65.0349
6.356000	 64.9665
6.374000	 64.967
6.392000	 64.971
6.410000	 64.9543
6.428000	 64.936
6.446000	 64.9952
6.464000	 65.0795
6.482000	 65.0629
6.500000	 65.0708
6.518000	 65.0932
6.536000	 65.0556
6.554000	 65.1381
6.572000	 65.2438
6.590000	 65.1189
6.608000	 64.9788
6.626000	 65.0357
6.644000	 65.1065
6.662000	 65.1277
6.680000	 65.1543
6.698000	 65.1313
6.716000	 65.0961
6.734000	 65.0959
6.752000	 65.1133
6.770000	 65.1197
6.788000	 65.0785
6.806000	 65.035
6.824000	 64.9842
6.842000	 64.9181
6.860000	 64.8764
6.878000	 64.778
6.896000	 64.6854
6.914000	 64.8349
6.932000	 65.1257
6.950000	 65.2565
6.968000	 65.2116
6.986000	 65.1827
7.004000	 65.1709
7.022000	 65.105
7.040000	 65.0779
7.058000	 65.1162
7.076000	 65.1296
7.094000	 65.1095
7.112000	 65.0398
7.130000	 64.9317
7.148000	 64.9406
7.166000	 65.0928
7.184000	 65.1837
7.202000	 65.1153
7.220000	 65.0133
7.238000	 64.9929
7.256000	 65.0157
7.274000	 65.0101
7.292000	 65.0038
7.310000	 65.0404
7.328000	 65.0929
7.346000	 65.1303
7.364000	 65.1362
7.382000	 65.1071
7.400000	 65.0855
7.418000	 65.0786
7.436000	 65.0405
7.454000	 64.9912
7.472000	 64.9923
7.490000	 65.0255
7.508000	 65.0438
7.526000	 65.0522
7.544000	 65.051
7.562000	 65.0232
7.580000	 64.998
7.598000	 65.0012
7.616000	 64.9873
7.634000	 64.9299
7.652000	 64.8922
7.670000	 64.9301
7.688000	 65.0021
7.706000	 65.0305
7.724000	 65.0099
7.742000	 64.9986
7.760000	 65.0204
7.778000	 65.0441
7.796000	 65.0562
7.814000	 65.0637
7.832000	 65.0382
7.850000	 64.9503
7.868000	 64.8504
7.886000	 64.83
7.904000	 64.902
7.922000	 64.9751
7.940000	 64.9762
7.958000	 64.9453
7.976000	 64.948
7.994000	 64.9655
8.012000	 64.9432
8.030000	 64.88
8.048000	 64.8137
8.065999	 64.7747
8.084000	 64.7791
8.102000	 64.8193
8.120000	 64.859
8.138000	 64.867
8.155999	 64.8489
8.173999	 64.8287
8.192000	 64.8272
8.210000	 64.8653
8.228000	 64.9493
8.246000	 65.0392
8.263999	 65.0755
8.282000	 65.0443
8.300000	 64.9833
8.318000	 64.9226
8.336000	 64.8628
8.353999	 64.8097
8.372000	 64.7838
8.390000	 64.7852
8.408000	 64.7839
8.426000	 64.7577
8.443999	 64.7163
8.462000	 64.681
8.480000	 64.6583
8.498000	 64.6427
8.516000	 64.6315
8.533999	 64.6297
8.552000	 64.6418
8.570000	 64.6621
8.588000	 64.6734
8.606000	 64.6602
8.624000	 64.6306
8.641999	 64.6131
8.660000	 64.6241
8.678000	 64.6459
8.696000	 64.6492
8.714000	 64.6335
8.731999	 64.6292
8.750000	 64.6595
8.768000	 64.713
8.786000	 64.7589
8.804000	 64.7803
8.821999	 64.7838
8.840000	 64.7834
8.858000	 64.7854
8.876000	 64.7859
8.894000	 64.7768
8.911999	 64.7531
8.930000	 64.7196
8.948000	 64.6894
8.966000	 64.6732
8.984000	 64.6655
9.001999	 64.6507
9.020000	 64.6257
9.038000	 64.611
9.056000	 64.6314
9.074000	 64.6817
9.092000	 64.7223
9.109999	 64.7185
9.128000	 64.6762
9.146000	 64.6346
9.164000	 64.6229
9.182000	 64.634
9.199999	 64.6436
9.218000	 64.6413
9.236000	 64.6395
9.254000	 64.6542
9.272000	 64.6895
9.289999	 64.7387
9.308000	 64.789
9.326000	 64.824
9.344000	 64.8302
9.362000	 64.8049
9.379999	 64.7632
9.398000	 64.7307
9.416000	 64.7302
9.434000	 64.7641
9.452000	 64.8092
9.469999	 64.8302
9.488000	 64.8065
9.506000	 64.7579
9.524000	 64.739
9.542000	 64.793
9.560000	 64.9061
9.577999	 65.0131
9.596000	 65.0467
9.614000	 64.9808
9.632000	 64.8381
9.650000	 64.6737
9.667999	 64.5494
9.686000	 64.5058
9.704000	 64.543
9.722000	 64.6221
9.740000	 64.6902
9.757999	 64.7135
9.776000	 64.693
9.794000	 64.6505
9.812000	 64.6021
9.830000	 64.5488
9.847999	 64.4889
9.866000	 64.4335
9.884000	 64.4025
9.902000	 64.4093
9.920000	 64.4477
9.937999	 64.4938
9.956000	 64.5269
9.974000	 64.5466
9.992000	 64.5723
10.01	64.6297
10.028	64.7285
10.046	64.8492
10.064	64.9503
10.082	64.9898
10.1	64.9482
10.118	64.8442
10.136	64.7223
10.154	64.6244
10.172	64.5683
10.19	64.5431
10.208	64.5288
10.226	64.5207
10.244	64.5363
10.262	64.5978
10.28	64.7017
10.298	64.8094
10.316	64.8624
10.334	64.8274
10.352	64.7239
10.37	64.6182
10.388	64.5807
10.406	64.6364
10.424	64.7527
10.442	64.8618
10.46	64.9096
10.478	64.8848
10.496	64.8249
10.514	64.7819
10.532	64.7914
10.55	64.8483
10.568	64.9185
10.586	64.9606
10.604	64.9537
10.622	64.9034
10.64	64.8344
10.658	64.771
10.676	64.7248
10.694	64.6931
10.712	64.6678
10.73	64.6465
10.748	64.6354
10.766	64.6429
10.784	64.67
10.802	64.7077
10.82	64.744
10.838	64.7689
10.856	64.7795
10.874	64.7775
10.892	64.7639
10.91	64.7369
10.928	64.6942
10.946	64.6388
10.964	64.5822
10.982	64.5418
11	64.5336
11.018	64.564
11.036	64.6242
11.054	64.6929
11.072	64.7468
11.09	64.7687
11.108	64.7543
11.126	64.7117
11.144	64.6543
11.162	64.5965
11.18	64.5489
11.198	64.5182
11.216	64.5075
11.234	64.5171
11.252	64.5426
11.27	64.5757
11.288	64.6047
11.306	64.6192
11.324	64.6141
11.342	64.5929
11.36	64.5664
11.378	64.5473
11.396	64.5442
11.414	64.5587
11.432	64.5851
11.45	64.6139
11.468	64.6342
11.486	64.6374
11.504	64.6179
11.522	64.5726
11.54	64.5022
11.558	64.4107
11.576	64.3057
11.594	64.1968
11.612	64.0948
11.63	64.0084
11.648	63.943
11.666	63.9013
11.684	63.886
11.702	63.9001
11.72	63.9464
11.738	64.0243
11.756	64.1264
11.774	64.2383
11.792	64.3414
11.81	64.4194
11.828	64.463
11.846	64.4721
11.864	64.4551
11.882	64.4238
11.9	64.389
11.918	64.3568
11.936	64.3279
11.954	64.2998
11.972	64.2702
11.99	64.2408
12.008	64.2169
12.026	64.2054
12.044	64.2122
12.062	64.2381
12.08	64.2773
12.098	64.3186
12.116	64.3481
12.134	64.3534
12.152	64.3274
12.17	64.2706
12.188	64.1906
12.206	64.1002
12.224	64.0141
12.242	63.9452
12.26	63.9016
12.278	63.8862
12.296	63.8969
12.314	63.9284
12.332	63.9737
12.35	64.0258
12.368	64.0789
12.386	64.1279
12.404	64.1685
12.422	64.1956
12.44	64.2049
12.458	64.192
12.476	64.1544
12.494	64.092
12.512	64.0089
12.53	63.9123
12.548	63.8121
12.566	63.719
12.584	63.643
12.602	63.5918
12.62	63.5689
12.638	63.5738
12.656	63.6025
12.674	63.6487
12.692	63.7055
12.71	63.7664
12.728	63.8265
12.746	63.8826
12.764	63.933
12.782	63.9769
12.8	64.0129
12.818	64.0394
12.836	64.0549
12.854	64.0582
12.872	64.0496
12.89	64.0304
12.908	64.0037
12.926	63.9737
12.944	63.9447
12.962	63.9201
12.98	63.9015
12.998	63.8882
13.016	63.8776
13.034	63.866
13.052	63.8499
13.07	63.8276
13.088	63.7999
13.106	63.7702
13.124	63.744
13.142	63.7272
13.16	63.7245
13.178	63.7371
13.196	63.7621
13.214	63.7927
13.232	63.8192
13.25	63.8318
13.268	63.8231
13.286	63.7904
13.304	63.7373
13.322	63.6728
13.34	63.6092
13.358	63.5585
13.376	63.5294
13.394	63.5246
13.412	63.5401
13.43	63.567
13.448	63.5934
13.466	63.6088
13.484	63.6063
13.502	63.5847
13.52	63.5483
13.538	63.5057
13.556	63.467
13.574	63.4407
13.592	63.4317
13.61	63.4398
13.628	63.4605
13.646	63.4859
13.664	63.5076
13.682	63.5191
13.7	63.5174
13.718	63.5033
13.736	63.4816
13.754	63.4588
13.772	63.4421
13.79	63.4368
13.808	63.4457
13.826	63.4683
13.844	63.5006
13.862	63.537
13.88	63.5709
13.898	63.5964
13.916	63.6096
13.934	63.6089
13.952	63.5953
13.97	63.5715
13.988	63.5413
14.006	63.5082
14.024	63.4751
14.042	63.4435
14.06	63.4136
14.078	63.3851
14.096	63.3576
14.114	63.3316
14.132	63.3078
14.15	63.2879
14.168	63.2735
14.186	63.2658
14.204	63.2649
14.222	63.2699
14.24	63.2782
14.258	63.2867
14.276	63.292
14.294	63.2914
14.312	63.2836
14.33	63.269
14.348	63.2497
14.366	63.229
14.384	63.2105
14.402	63.1971
14.42	63.1896
14.438	63.1874
14.456	63.188
14.474	63.1877
14.492	63.1823
14.51	63.168
14.528	63.1427
14.546	63.1066
14.564	63.0618
14.582	63.012
14.6	62.9618
14.618	62.9162
14.636	62.8796
14.654	62.8547
14.672	62.8422
14.69	62.8412
14.708	62.8497
14.726	62.8642
14.744	62.8808
14.762	62.8963
14.78	62.9083
14.798	62.9156
14.816	62.9178
14.834	62.9156
14.852	62.9104
14.87	62.9037
14.888	62.8966
14.906	62.89
14.924	62.8842
14.942	62.8789
14.96	62.8735
14.978	62.8676
14.996	62.8609
15.014	62.8534
15.032	62.8454
15.05	62.838
15.068	62.8319
15.086	62.8282
15.104	62.8275
15.122	62.8301
15.14	62.8352
15.158	62.8415
15.176	62.8472
15.194	62.85
15.212	62.8474
15.23	62.8375
15.248	62.819
15.266	62.7915
15.284	62.7553
15.302	62.7123
15.32	62.6648
15.338	62.6152
15.356	62.5667
15.374	62.5226
15.392	62.4851
15.41	62.4559
15.428	62.4367
15.446	62.4278
15.464	62.4286
15.482	62.4379
15.5	62.4536
15.518	62.4726
15.536	62.4919
15.554	62.5083
15.572	62.5186
15.59	62.5199
15.608	62.5104
15.626	62.4894
15.644	62.4565
15.662	62.4136
15.68	62.363
15.698	62.307
15.716	62.2493
15.734	62.1933
15.752	62.1414
15.77	62.0958
15.788	62.0583
15.806	62.0288
15.824	62.0071
15.842	61.992
15.86	61.9815
15.878	61.9744
15.896	61.9693
15.914	61.9647
15.932	61.9603
15.95	61.9556
15.968	61.9506
15.986	61.9454
16.004	61.9399
16.022	61.9341
16.04	61.9273
16.058	61.9189
16.076	61.9084
16.094	61.8945
16.112	61.8772
16.13	61.8566
16.148	61.8334
16.166	61.8096
16.184	61.787
16.202	61.7677
16.22	61.755
16.238	61.7507
16.256	61.7568
16.274	61.7748
16.292	61.8046
16.31	61.8459
16.328	61.897
16.346	61.9554
16.364	62.0189
16.382	62.0836
16.4	62.1465
16.418	62.2053
16.436	62.2566
16.454	62.2989
16.472	62.3311
16.49	62.352
16.508	62.3618
16.526	62.3606
16.544	62.3489
16.562	62.3274
16.58	62.2967
16.598	62.2579
16.616	62.2119
16.634	62.1593
16.652	62.102
16.67	62.0413
16.688	61.9786
16.706	61.9167
16.724	61.8573
16.742	61.8028
16.76	61.7564
16.778	61.7194
16.796	61.6945
16.814	61.6829
16.832	61.6851
16.85	61.7016
16.868	61.731
16.886	61.7723
16.904	61.8226
16.922	61.8797
16.94	61.9408
16.958	62.0021
16.976	62.0619
16.994	62.1165
17.012	62.1645
17.03	62.2046
17.048	62.2359
17.066	62.2587
17.084	62.2731
17.102	62.2805
17.12	62.2814
17.138	62.2773
17.156	62.2686
17.174	62.2562
17.192	62.2403
17.21	62.2207
17.228	62.1972
17.246	62.1691
17.264	62.1359
17.282	62.0971
17.3	62.0527
17.318	62.0024
17.336	61.9474
17.354	61.888
17.372	61.8269
17.39	61.7652
17.408	61.7059
17.426	61.6513
17.444	61.6033
17.462	61.5648
17.48	61.5364
17.498	61.52
17.516	61.5152
17.534	61.5224
17.552	61.5397
17.57	61.5665
17.588	61.5995
17.606	61.637
17.624	61.6762
17.642	61.7141
17.66	61.749
17.678	61.7777
17.696	61.7995
17.714	61.812
17.732	61.8152
17.75	61.8082
17.768	61.7914
17.786	61.7649
17.804	61.7299
17.822	61.6868
17.84	61.6375
17.858	61.5832
17.876	61.5254
17.894	61.4665
17.912	61.4074
17.93	61.3506
17.948	61.2966
17.966	61.248
17.984	61.2051
18.002	61.1699
18.02	61.1426
18.038	61.1239
18.056	61.1135
18.074	61.1114
18.092	61.1162
18.11	61.1276
18.128	61.143
18.146	61.1618
18.164	61.1811
18.182	61.1998
18.2	61.2156
18.218	61.2268
18.236	61.2321
18.254	61.2299
18.272	61.2198
18.29	61.2014
18.308	61.1748
18.326	61.1411
18.344	61.1008
18.362	61.0559
18.38	61.0073
18.398	60.9575
18.416	60.9075
18.434	60.8596
18.452	60.8151
18.47	60.7752
18.488	60.7409
18.506	60.7127
18.524	60.6905
18.542	60.6744
18.56	60.6632
18.578	60.657
18.596	60.6535
18.614	60.6526
18.632	60.652
18.65	60.6517
18.668	60.6491
18.686	60.6444
18.704	60.6358
18.722	60.6234
18.74	60.6059
18.758	60.5834
18.776	60.5556
18.794	60.5227
18.812	60.4845
18.83	60.4415
18.848	60.3937
18.866	60.3417
18.884	60.286
18.902	60.227
18.92	60.1655
18.938	60.1021
18.956	60.038
18.974	59.9739
18.992	59.9111
19.01	59.8507
19.028	59.7941
19.046	59.7424
19.064	59.6973
19.082	59.6595
19.1	59.6308
19.118	59.6115
19.136	59.6031
19.154	59.6056
19.172	59.6197
19.19	59.6451
19.208	59.6815
19.226	59.7285
19.244	59.7847
19.262	59.8494
19.28	59.9202
19.298	59.9967
19.316	60.0753
19.334	60.1561
19.352	60.2349
19.37	60.3119
19.388	60.3834
19.406	60.4494
19.424	60.5072
19.442	60.5565
19.46	60.596
19.478	60.6253
19.496	60.6443
19.514	60.6525
19.532	60.6508
19.55	60.6392
19.568	60.6189
19.586	60.5906
19.604	60.5552
19.622	60.5145
19.64	60.4687
19.658	60.4202
19.676	60.3687
19.694	60.3168
19.712	60.2642
19.73	60.2127
19.748	60.1622
19.766	60.114
19.784	60.0683
19.802	60.0254
19.82	59.9856
19.838	59.9488
19.856	59.9153
19.874	59.8848
19.892	59.8571
19.91	59.8321
19.928	59.8095
19.946	59.7893
19.964	59.7709
19.982	59.7542
20	59.739
20.018	59.7251
20.036	59.7123
20.054	59.7003
20.072	59.689
20.09	59.6783
20.108	59.6681
20.126	59.6585
20.144	59.6494
20.162	59.6412
20.18	59.634
20.198	59.6279
20.216	59.6232
20.234	59.6201
20.252	59.6188
20.27	59.6194
20.288	59.6225
20.306	59.6281
20.324	59.6365
20.342	59.6479
20.36	59.6622
20.378	59.6795
20.396	59.6997
20.414	59.722
20.432	59.7467
20.45	59.7724
20.468	59.7993
20.486	59.8262
20.504	59.8518
20.522	59.8761
20.54	59.8968
20.558	59.9144
20.576	59.9268
20.594	59.9333
20.612	59.9335
20.63	59.9256
20.648	59.9101
20.666	59.8857
20.684	59.8524
20.702	59.8105
20.72	59.76
20.738	59.7014
20.756	59.636
20.774	59.5633
20.792	59.4859
20.81	59.404
20.828	59.3188
20.846	59.2325
20.864	59.1446
20.882	59.058
20.9	58.9726
20.918	58.8896
20.936	58.8102
20.954	58.734
20.972	58.6622
20.99	58.5945
21.008	58.5311
21.026	58.4722
21.044	58.4175
21.062	58.3669
21.08	58.3204
21.098	58.2778
21.116	58.239
21.134	58.2042
21.152	58.1738
21.17	58.1474
21.188	58.1261
21.206	58.1097
21.224	58.0988
21.242	58.0946
21.26	58.0966
21.278	58.1064
21.296	58.1243
21.314	58.1505
21.332	58.1865
21.35	58.2318
21.368	58.287
21.386	58.3523
21.404	58.4272
21.422	58.5111
21.44	58.6044
21.458	58.705
21.476	58.8127
21.494	58.9269
21.512	59.0441
21.53	59.1655
21.548	59.2876
21.566	59.4083
21.584	59.5282
21.602	59.6422
21.62	59.751
21.638	59.8524
21.656	59.9429
21.674	60.024
21.692	60.0923
21.71	60.1469
21.728	60.1882
21.746	60.2149
21.764	60.227
21.782	60.225
21.8	60.2091
21.818	60.1793
21.836	60.1382
21.854	60.0853
21.872	60.0222
21.89	59.9519
21.908	59.873
21.926	59.7894
21.944	59.7034
21.962	59.6141
21.98	59.5253
21.998	59.4373
22.016	59.3505
22.034	59.2677
22.052	59.1883
22.07	59.1127
22.088	59.0418
22.106	58.9751
22.124	58.912
22.142	58.8528
22.16	58.7969
22.178	58.7424
22.196	58.6901
22.214	58.6386
22.232	58.5861
22.25	58.5333
22.268	58.4792
22.286	58.4229
22.304	58.365
22.322	58.3056
22.34	58.2442
22.358	58.1817
22.376	58.1206
22.394	58.0596
22.412	58.0012
22.43	57.9488
22.448	57.9003
22.466	57.8601
22.484	57.8315
22.502	57.8124
22.52	57.8075
22.538	57.8188
22.556	57.845
22.574	57.8895
22.592	57.953
22.61	58.0348
22.628	58.1352
22.646	58.2552
22.664	58.3926
22.682	58.5449
22.7	58.7142
22.718	58.896
22.736	59.0853
22.754	59.2853
22.772	59.4896
22.79	59.6928
22.808	59.8986
22.826	60.0991
22.844	60.2897
22.862	60.4735
22.88	60.6434
22.898	60.7962
22.916	60.9342
22.934	61.052
22.952	61.1475
22.97	61.2224
22.988	61.2747
23.006	61.3037
23.024	61.3102
23.042	61.2952
23.06	61.2577
23.078	61.199
23.096	61.1223
23.114	61.0268
23.132	60.9137
23.15	60.787
23.168	60.6458
23.186	60.4914
23.204	60.3281
23.222	60.1554
23.24	59.974
23.258	59.7875
23.276	59.5955
23.294	59.3984
23.312	59.1993
23.33	58.998
23.348	58.7948
23.366	58.5917
23.384	58.3885
23.402	58.1855
23.42	57.9847
23.438	57.7856
23.456	57.5885
23.474	57.3957
23.492	57.2068
23.51	57.022
23.528	56.8445
23.546	56.6749
23.564	56.5125
23.582	56.3604
23.6	56.2198
23.618	56.0894
23.636	55.9717
23.654	55.8678
23.672	55.7767
23.69	55.6994
23.708	55.6371
23.726	55.5892
23.744	55.5554
23.762	55.5355
23.78	55.5303
23.798	55.5378
23.816	55.5562
23.834	55.5872
23.852	55.6283
23.87	55.6759
23.888	55.7318
23.906	55.7943
23.924	55.8589
23.942	55.9261
23.96	55.9959
23.978	56.0643
23.996	56.1299
24.014	56.1942
24.032	56.2553
24.05	56.3118
24.068	56.3642
24.086	56.4133
24.104	56.4598
24.122	56.5026
24.14	56.5432
24.158	56.5833
24.176	56.6218
24.194	56.6597
24.212	56.7
24.23	56.7421
24.248	56.7859
24.266	56.8353
24.284	56.8924
24.302	56.955
24.32	57.0261
24.338	57.1088
24.356	57.2019
24.374	57.3054
24.392	57.4197
24.41	57.5457
24.428	57.6823
24.446	57.8278
24.464	57.9821
24.482	58.146
24.5	58.3159
24.518	58.4886
24.536	58.6672
24.554	58.8482
24.572	59.0268
24.59	59.2037
24.608	59.3792
24.626	59.5503
24.644	59.716
24.662	59.8778
24.68	60.0333
24.698	60.1802
24.716	60.3195
24.734	60.451
24.752	60.5743
24.77	60.6897
24.788	60.7972
24.806	60.8954
24.824	60.9833
24.842	61.0622
24.86	61.1305
24.878	61.1863
24.896	61.2316
24.914	61.2651
24.932	61.2829
24.95	61.2834
24.968	61.2696
24.986	61.2368
25.004	61.1804
25.022	61.1034
25.04	61.0042
25.058	60.8779
25.076	60.722
25.094	60.5395
25.112	60.3282
25.13	60.0859
25.148	59.8128
25.166	59.5098
25.184	59.1774
25.202	58.815
25.22	58.422
25.238	58.002
25.256	57.5584
25.274	57.0868
25.292	56.5909
25.31	56.0793
25.328	55.5556
25.346	55.0122
25.364	54.461
25.382	53.9154
25.4	53.3709
25.418	52.827
25.436	52.2966
25.454	51.7893
25.472	51.2953
25.49	50.822
25.508	50.3801
25.526	49.9708
25.544	49.5887
25.562	49.2433
25.58	48.943
25.598	48.6825
25.616	48.4634
25.634	48.2929
25.652	48.1744
25.67	48.1008
25.688	48.0806
25.706	48.1238
25.724	48.2292
25.742	48.3928
25.76	48.6251
25.778	48.9359
25.796	49.3211
25.814	49.7796
25.832	50.3141
25.85	50.9278
25.868	51.6206
25.886	52.3875
25.904	53.2228
25.922	54.1278
25.94	55.1054
25.958	56.1443
25.976	57.2334
25.994	58.3819
26.012	59.5865
26.03	60.8282
26.048	62.0917
26.066	63.3956
26.084	64.7266
26.102	66.0597
26.12	67.3812
26.138	68.7146
26.156	70.0371
26.174	71.3198
26.192	72.5548
26.21	73.7617
26.228	74.9186
26.246	76.0022
26.264	77.0153
26.282	77.9673
26.3	78.8388
26.318	79.6109
26.336	80.2941
26.354	80.8891
26.372	81.3785
26.39	81.7459
26.408	81.9995
26.426	82.1411
26.444	82.1645
26.462	82.064
26.48	81.8404
26.498	81.4983
26.516	81.0426
26.534	80.4741
26.552	79.7816
26.57	78.9814
26.588	78.0939
26.606	77.1276
26.624	76.0551
26.642	74.9093
26.66	73.73
26.678	72.5358
26.696	71.2888
26.714	70.0242
26.732	68.7843
26.75	67.5849
26.768	66.3852
26.786	65.227
26.804	64.158
26.822	63.2033
26.84	62.3287
26.858	61.548
26.876	60.8792
26.894	60.3371
26.912	59.9154
26.93	59.5989
26.948	59.3725
26.966	59.2433
26.984	59.2446
27.002	59.3134
27.02	59.3801
27.028	59.3906