File: Bakgrunnsmateriale/MATLAB/FTIR/ftir_data/subBb/Mapping_121/C-4040-8_t87.asc
PE IR       SPECTRUM    SPECTRUM    ASCII       PEDS        1.60
  -1
C-B546~1.ASC
17/03/27
21:35:42.00
17/03/27
21:36:09.00
tln
$C-4040-8_t0087$<tbV0>[-10.4,5.2,8.0,0.0,27,1,0]
27.028
64

2002,4.07
MIRTGS : RIGHTBACK : INTERNAL 2
MIR : ON : INTERNAL 2
OPTKBR

0.200000
8
8.000000
FILLER
RATIO
SPECTRUM
UNLOCKED 256

DOUBLE
64
COMBINED
1
0
0

0.002000
RATIO

1
0
TRUE
51149
0
LEFT NOT FITTED RIGHT NOT FITTED 0
NONE
NONE
15600
12
4.427000
51148
TRUE
1 0 8 72 0 0 0 0

15798

#HDR
-1
-1
#GR
µM
%T
2.38419e-05
0.0
2.000000
0.002000
12515
8
92.2376
32.2468
#DATA
2.000000	 65.4676
2.018000	 65.2458
2.036000	 65.1146
2.054000	 64.7492
2.072000	 65.3597
2.090000	 65.0028
2.108000	 65.6209
2.126000	 65.2681
2.144000	 65.6421
2.162000	 65.3607
2.180000	 64.7827
2.198000	 65.1491
2.216000	 64.3185
2.234000	 63.7811
2.252000	 63.8389
2.270000	 62.8057
2.288000	 67.3321
2.306000	 64.4311
2.324000	 64.4166
2.342000	 64.8554
2.360000	 64.339
2.378000	 64.7475
2.396000	 65.0601
2.414000	 65.4213
2.432000	 64.7251
2.450000	 65.0706
2.468000	 65.158
2.486000	 65.2456
2.504000	 65.2696
2.522000	 65.306
2.540000	 64.9807
2.558000	 65.1165
2.576000	 65.029
2.594000	 64.9222
2.612000	 65.0391
2.630000	 64.9723
2.648000	 65.0836
2.666000	 65.307
2.684000	 65.2561
2.702000	 65.0803
2.720000	 65.2766
2.738000	 65.2333
2.756000	 65.4449
2.774000	 65.0354
2.792000	 65.1765
2.810000	 65.3562
2.828000	 65.2203
2.846000	 65.2474
2.864000	 64.9875
2.882000	 65.2783
2.900000	 65.3393
2.918000	 65.1199
2.936000	 65.1544
2.954000	 65.5174
2.972000	 64.9926
2.990000	 65.1617
3.008000	 65.0244
3.026000	 65.3447
3.044000	 65.1286
3.062000	 65.2372
3.080000	 65.1779
3.098000	 65.2213
3.116000	 65.1556
3.134000	 65.3408
3.152000	 64.9062
3.170000	 65.0409
3.188000	 65.3997
3.206000	 64.7849
3.224000	 65.1041
3.242000	 65.1045
3.260000	 65.1666
3.278000	 65.1732
3.296000	 65.15
3.314000	 65.2494
3.332000	 65.0703
3.350000	 65.1436
3.368000	 64.9655
3.386000	 64.9389
3.404000	 64.9762
3.422000	 64.5971
3.440000	 64.9562
3.458000	 65.1882
3.476000	 64.93
3.494000	 65.3477
3.512000	 65.0617
3.530000	 65.0736
3.548000	 65.2734
3.566000	 65.1915
3.584000	 65.231
3.602000	 65.3095
3.620000	 65.1203
3.638000	 65.2029
3.656000	 65.1725
3.674000	 65.3389
3.692000	 65.2902
3.710000	 65.2633
3.728000	 65.2546
3.746000	 65.1165
3.764000	 65.2956
3.782000	 65.0997
3.800000	 65.2441
3.818000	 65.2593
3.836000	 65.1991
3.854000	 65.1565
3.872000	 65.2028
3.890000	 65.1679
3.908000	 65.2493
3.926000	 65.1742
3.944000	 65.2349
3.962000	 65.4327
3.980000	 65.1762
3.998000	 65.0844
4.016000	 65.1245
4.034000	 65.3421
4.052000	 65.1029
4.070000	 65.152
4.088000	 65.3005
4.106000	 65.1532
4.124000	 64.9239
4.141999	 65.3154
4.160000	 65.2305
4.178000	 65.2529
4.196000	 65.3347
4.214000	 65.3968
4.232000	 65.184
4.250000	 65.2311
4.268000	 65.2762
4.286000	 65.375
4.304000	 65.2561
4.322000	 65.2079
4.340000	 65.2192
4.358000	 65.1788
4.375999	 65.2467
4.394000	 65.2249
4.412000	 65.1763
4.430000	 65.18
4.448000	 65.2108
4.466000	 65.2023
4.484000	 65.2385
4.502000	 65.2056
4.520000	 65.2048
4.538000	 65.3159
4.556000	 65.2021
4.574000	 65.2161
4.592000	 65.3406
4.609999	 65.1717
4.628000	 65.0475
4.646000	 65.141
4.664000	 65.2411
4.682000	 64.9689
4.700000	 65.1392
4.718000	 65.1739
4.736000	 65.2095
4.754000	 65.2511
4.772000	 65.1701
4.790000	 65.3285
4.808000	 65.4571
4.826000	 65.3461
4.843999	 65.1911
4.862000	 64.9325
4.880000	 64.9058
4.898000	 65.2232
4.916000	 65.3334
4.934000	 65.1188
4.952000	 65.1585
4.970000	 65.2894
4.988000	 65.205
5.006000	 65.2736
5.024000	 65.2735
5.042000	 65.0818
5.060000	 65.1608
5.077999	 65.2822
5.096000	 65.2475
5.114000	 65.2228
5.132000	 65.3669
5.150000	 65.2789
5.168000	 65.17
5.186000	 65.3182
5.204000	 65.3299
5.222000	 65.2695
5.240000	 65.2394
5.258000	 65.2558
5.276000	 65.3107
5.294000	 65.3488
5.312000	 65.2765
5.330000	 65.2448
5.348000	 65.3467
5.366000	 65.3477
5.384000	 65.3018
5.402000	 65.253
5.420000	 65.1607
5.438000	 65.2189
5.456000	 65.2581
5.474000	 65.3392
5.492000	 65.3848
5.510000	 65.2794
5.528000	 65.2643
5.546000	 65.2527
5.564000	 65.2691
5.582000	 65.3823
5.600000	 65.3668
5.618000	 65.1768
5.636000	 65.1759
5.654000	 65.182
5.672000	 65.2093
5.690000	 65.3136
5.708000	 65.3351
5.726000	 65.2651
5.744000	 65.1476
5.762000	 65.0264
5.780000	 65.0783
5.798000	 64.9964
5.816000	 64.9391
5.834000	 65.1387
5.852000	 64.8993
5.870000	 65.0038
5.888000	 65.36
5.906000	 65.491
5.923999	 65.3823
5.942000	 65.2875
5.960000	 65.2645
5.978000	 65.2789
5.996000	 65.3493
6.014000	 65.4068
6.032000	 65.354
6.050000	 65.2183
6.068000	 65.1581
6.086000	 65.1481
6.104000	 65.1523
6.122000	 65.1703
6.140000	 65.1888
6.158000	 65.2306
6.176000	 65.2135
6.194000	 65.1747
6.212000	 65.1437
6.230000	 65.1473
6.248000	 65.145
6.266000	 65.0624
6.284000	 64.9879
6.302000	 64.9839
6.320000	 64.9895
6.338000	 64.9401
6.356000	 64.9971
6.374000	 65.0629
6.392000	 64.9671
6.410000	 64.9067
6.428000	 64.9399
6.446000	 64.9726
6.464000	 65.0294
6.482000	 65.1057
6.500000	 65.1759
6.518000	 65.1397
6.536000	 65.0628
6.554000	 65.061
6.572000	 65.0607
6.590000	 65.0035
6.608000	 64.989
6.626000	 65.1131
6.644000	 65.2156
6.662000	 65.1791
6.680000	 65.0315
6.698000	 64.9371
6.716000	 64.9916
6.734000	 64.9958
6.752000	 64.9863
6.770000	 65.0383
6.788000	 65.0639
6.806000	 65.0037
6.824000	 64.9304
6.842000	 65.0818
6.860000	 65.2773
6.878000	 65.0237
6.896000	 64.592
6.914000	 64.5187
6.932000	 64.6481
6.950000	 64.76
6.968000	 64.8438
6.986000	 64.9188
7.004000	 64.9916
7.022000	 65.0185
7.040000	 65.0419
7.058000	 65.0927
7.076000	 65.1182
7.094000	 65.1597
7.112000	 65.1828
7.130000	 65.1162
7.148000	 65.0877
7.166000	 65.1177
7.184000	 65.087
7.202000	 65.0275
7.220000	 64.9945
7.238000	 65.0358
7.256000	 65.1655
7.274000	 65.2026
7.292000	 65.0511
7.310000	 64.8804
7.328000	 64.8159
7.346000	 64.8328
7.364000	 64.8792
7.382000	 64.9275
7.400000	 64.9983
7.418000	 65.079
7.436000	 65.1201
7.454000	 65.1362
7.472000	 65.1271
7.490000	 65.0335
7.508000	 64.897
7.526000	 64.8372
7.544000	 64.8736
7.562000	 64.9167
7.580000	 64.8949
7.598000	 64.8317
7.616000	 64.812
7.634000	 64.8659
7.652000	 64.9315
7.670000	 64.9677
7.688000	 64.999
7.706000	 65.0271
7.724000	 65.0094
7.742000	 64.9367
7.760000	 64.8781
7.778000	 64.9234
7.796000	 65.0702
7.814000	 65.1908
7.832000	 65.1653
7.850000	 65.0143
7.868000	 64.857
7.886000	 64.7882
7.904000	 64.8255
7.922000	 64.9156
7.940000	 64.9768
7.958000	 64.9771
7.976000	 64.9565
7.994000	 64.9505
8.012000	 64.9388
8.030000	 64.8988
8.048000	 64.8599
8.065999	 64.8588
8.084000	 64.8795
8.102000	 64.8743
8.120000	 64.8329
8.138000	 64.7912
8.155999	 64.7842
8.173999	 64.8051
8.192000	 64.8245
8.210000	 64.8377
8.228000	 64.868
8.246000	 64.9279
8.263999	 64.9959
8.282000	 65.0324
8.300000	 65.0058
8.318000	 64.9105
8.336000	 64.7836
8.353999	 64.6799
8.372000	 64.6329
8.390000	 64.6464
8.408000	 64.7022
8.426000	 64.7669
8.443999	 64.8166
8.462000	 64.846
8.480000	 64.8533
8.498000	 64.8321
8.516000	 64.7859
8.533999	 64.734
8.552000	 64.6871
8.570000	 64.6375
8.588000	 64.5831
8.606000	 64.5476
8.624000	 64.5614
8.641999	 64.625
8.660000	 64.7001
8.678000	 64.7387
8.696000	 64.7253
8.714000	 64.6914
8.731999	 64.6847
8.750000	 64.7125
8.768000	 64.7352
8.786000	 64.7178
8.804000	 64.6728
8.821999	 64.6381
8.840000	 64.6301
8.858000	 64.635
8.876000	 64.641
8.894000	 64.6617
8.911999	 64.7152
8.930000	 64.7967
8.948000	 64.8809
8.966000	 64.9491
8.984000	 65.0045
9.001999	 65.0608
9.020000	 65.1183
9.038000	 65.1604
9.056000	 65.1663
9.074000	 65.1247
9.092000	 65.0368
9.109999	 64.9184
9.128000	 64.7969
9.146000	 64.6949
9.164000	 64.6152
9.182000	 64.5482
9.199999	 64.4966
9.218000	 64.4864
9.236000	 64.5413
9.254000	 64.6475
9.272000	 64.7486
9.289999	 64.7838
9.308000	 64.735
9.326000	 64.6402
9.344000	 64.5642
9.362000	 64.5517
9.379999	 64.6008
9.398000	 64.6754
9.416000	 64.7397
9.434000	 64.7823
9.452000	 64.813
9.469999	 64.8421
9.488000	 64.8677
9.506000	 64.8824
9.524000	 64.887
9.542000	 64.8915
9.560000	 64.9001
9.577999	 64.9015
9.596000	 64.8749
9.614000	 64.8097
9.632000	 64.718
9.650000	 64.6306
9.667999	 64.578
9.686000	 64.5701
9.704000	 64.591
9.722000	 64.6156
9.740000	 64.6297
9.757999	 64.6402
9.776000	 64.6694
9.794000	 64.7393
9.812000	 64.8552
9.830000	 64.9947
9.847999	 65.113
9.866000	 65.1647
9.884000	 65.132
9.902000	 65.0408
9.920000	 64.9482
9.937999	 64.9037
9.956000	 64.9113
9.974000	 64.9305
9.992000	 64.9113
10.01	64.8352
10.028	64.7293
10.046	64.6433
10.064	64.6107
10.082	64.6264
10.1	64.6512
10.118	64.641
10.136	64.5774
10.154	64.4763
10.172	64.3754
10.19	64.3132
10.208	64.3043
10.226	64.3358
10.244	64.3809
10.262	64.4177
10.28	64.442
10.298	64.4587
10.316	64.4703
10.334	64.4751
10.352	64.4773
10.37	64.4944
10.388	64.552
10.406	64.6627
10.424	64.808
10.442	64.9407
10.46	65.0149
10.478	65.0139
10.496	64.9637
10.514	64.9099
10.532	64.8905
10.55	64.9119
10.568	64.9547
10.586	64.9875
10.604	64.9869
10.622	64.942
10.64	64.8541
10.658	64.7306
10.676	64.5888
10.694	64.4556
10.712	64.3665
10.73	64.3515
10.748	64.4213
10.766	64.5564
10.784	64.7169
10.802	64.8547
10.82	64.9372
10.838	64.9562
10.856	64.9267
10.874	64.8764
10.892	64.8267
10.91	64.785
10.928	64.7445
10.946	64.6915
10.964	64.6159
10.982	64.5175
11	64.4068
11.018	64.2994
11.036	64.2102
11.054	64.1507
11.072	64.1288
11.09	64.1527
11.108	64.2276
11.126	64.3495
11.144	64.5002
11.162	64.6448
11.18	64.7475
11.198	64.7843
11.216	64.7537
11.234	64.678
11.252	64.5919
11.27	64.5238
11.288	64.4857
11.306	64.4711
11.324	64.4634
11.342	64.4482
11.36	64.422
11.378	64.3875
11.396	64.3499
11.414	64.3115
11.432	64.2726
11.45	64.2348
11.468	64.2037
11.486	64.1858
11.504	64.185
11.522	64.1987
11.54	64.2182
11.558	64.2314
11.576	64.2283
11.594	64.2056
11.612	64.1662
11.63	64.1166
11.648	64.0642
11.666	64.015
11.684	63.9754
11.702	63.9531
11.72	63.9574
11.738	63.9942
11.756	64.0622
11.774	64.1495
11.792	64.2364
11.81	64.3019
11.828	64.3316
11.846	64.323
11.864	64.2872
11.882	64.243
11.9	64.2105
11.918	64.2034
11.936	64.2243
11.954	64.2662
11.972	64.316
11.99	64.3607
12.008	64.3906
12.026	64.4013
12.044	64.3926
12.062	64.3686
12.08	64.3354
12.098	64.3
12.116	64.2694
12.134	64.2483
12.152	64.2382
12.17	64.2357
12.188	64.2332
12.206	64.2209
12.224	64.1896
12.242	64.1351
12.26	64.0598
12.278	63.9744
12.296	63.8951
12.314	63.8398
12.332	63.8221
12.35	63.8473
12.368	63.9115
12.386	64.0025
12.404	64.1029
12.422	64.1945
12.44	64.263
12.458	64.2989
12.476	64.2982
12.494	64.2614
12.512	64.1928
12.53	64.0999
12.548	63.9929
12.566	63.8847
12.584	63.7902
12.602	63.725
12.62	63.7016
12.638	63.7256
12.656	63.7934
12.674	63.8923
12.692	64.0038
12.71	64.1078
12.728	64.1877
12.746	64.2338
12.764	64.2461
12.782	64.2322
12.8	64.2038
12.818	64.1724
12.836	64.1464
12.854	64.1294
12.872	64.1203
12.89	64.1148
12.908	64.109
12.926	64.0996
12.944	64.0855
12.962	64.0665
12.98	64.0433
12.998	64.0165
13.016	63.9874
13.034	63.9582
13.052	63.9338
13.07	63.9211
13.088	63.9273
13.106	63.9568
13.124	64.0103
13.142	64.082
13.16	64.1595
13.178	64.225
13.196	64.2597
13.214	64.2474
13.232	64.1792
13.25	64.055
13.268	63.8845
13.286	63.6844
13.304	63.4752
13.322	63.2772
13.34	63.1067
13.358	62.9747
13.376	62.8863
13.394	62.8409
13.412	62.8345
13.43	62.8607
13.448	62.9124
13.466	62.9826
13.484	63.0652
13.502	63.1558
13.52	63.2516
13.538	63.3502
13.556	63.4503
13.574	63.5501
13.592	63.6473
13.61	63.7386
13.628	63.8196
13.646	63.8859
13.664	63.9335
13.682	63.9607
13.7	63.9682
13.718	63.96
13.736	63.9425
13.754	63.9244
13.772	63.9136
13.79	63.9157
13.808	63.9321
13.826	63.9601
13.844	63.9932
13.862	64.0222
13.88	64.0382
13.898	64.0345
13.916	64.0081
13.934	63.9598
13.952	63.8945
13.97	63.8191
13.988	63.7411
14.006	63.667
14.024	63.601
14.042	63.5438
14.06	63.4937
14.078	63.4475
14.096	63.4028
14.114	63.3581
14.132	63.3143
14.15	63.2747
14.168	63.245
14.186	63.2319
14.204	63.2405
14.222	63.2743
14.24	63.3331
14.258	63.4135
14.276	63.5088
14.294	63.6107
14.312	63.7103
14.33	63.7996
14.348	63.872
14.366	63.9241
14.384	63.9541
14.402	63.9625
14.42	63.9504
14.438	63.9196
14.456	63.8721
14.474	63.8095
14.492	63.7339
14.51	63.6481
14.528	63.5559
14.546	63.4623
14.564	63.3729
14.582	63.2935
14.6	63.2294
14.618	63.1847
14.636	63.1607
14.654	63.1558
14.672	63.1656
14.69	63.1846
14.708	63.206
14.726	63.2234
14.744	63.232
14.762	63.2297
14.78	63.2172
14.798	63.1973
14.816	63.1743
14.834	63.1538
14.852	63.1407
14.87	63.1383
14.888	63.1479
14.906	63.1691
14.924	63.2001
14.942	63.2371
14.96	63.2763
14.978	63.3147
14.996	63.35
15.014	63.3808
15.032	63.407
15.05	63.4296
15.068	63.45
15.086	63.4693
15.104	63.4886
15.122	63.5079
15.14	63.5265
15.158	63.5428
15.176	63.5547
15.194	63.5604
15.212	63.5583
15.23	63.5474
15.248	63.5276
15.266	63.4987
15.284	63.462
15.302	63.4189
15.32	63.3707
15.338	63.3187
15.356	63.2643
15.374	63.2083
15.392	63.1513
15.41	63.0943
15.428	63.0384
15.446	62.9851
15.464	62.936
15.482	62.8927
15.5	62.8569
15.518	62.831
15.536	62.8162
15.554	62.8131
15.572	62.8217
15.59	62.8407
15.608	62.8681
15.626	62.9015
15.644	62.9385
15.662	62.9753
15.68	63.0103
15.698	63.0418
15.716	63.0689
15.734	63.0923
15.752	63.1133
15.77	63.1333
15.788	63.1551
15.806	63.1802
15.824	63.2097
15.842	63.2444
15.86	63.2834
15.878	63.3253
15.896	63.3684
15.914	63.409
15.932	63.4445
15.95	63.4725
15.968	63.4901
15.986	63.4955
16.004	63.4879
16.022	63.4666
16.04	63.4324
16.058	63.3862
16.076	63.329
16.094	63.2625
16.112	63.1879
16.13	63.1062
16.148	63.0187
16.166	62.9264
16.184	62.8301
16.202	62.7303
16.22	62.6284
16.238	62.5254
16.256	62.4226
16.274	62.3228
16.292	62.2285
16.31	62.1419
16.328	62.0675
16.346	62.0081
16.364	61.9662
16.382	61.9455
16.4	61.9472
16.418	61.9722
16.436	62.0204
16.454	62.0896
16.472	62.1777
16.49	62.2801
16.508	62.3918
16.526	62.5088
16.544	62.6236
16.562	62.7311
16.58	62.8272
16.598	62.9059
16.616	62.9656
16.634	63.0042
16.652	63.0217
16.67	63.0196
16.688	62.9994
16.706	62.9664
16.724	62.9238
16.742	62.8759
16.76	62.8288
16.778	62.785
16.796	62.7488
16.814	62.7222
16.832	62.7064
16.85	62.7012
16.868	62.7051
16.886	62.7173
16.904	62.7339
16.922	62.7528
16.94	62.771
16.958	62.7856
16.976	62.7955
16.994	62.7987
17.012	62.7958
17.03	62.787
17.048	62.7745
17.066	62.76
17.084	62.7458
17.102	62.7351
17.12	62.729
17.138	62.7299
17.156	62.7375
17.174	62.7521
17.192	62.7714
17.21	62.794
17.228	62.8165
17.246	62.8355
17.264	62.8486
17.282	62.8512
17.3	62.8422
17.318	62.8187
17.336	62.781
17.354	62.7286
17.372	62.6638
17.39	62.5881
17.408	62.5052
17.426	62.4189
17.444	62.3314
17.462	62.2482
17.48	62.1709
17.498	62.1038
17.516	62.0484
17.534	62.0064
17.552	61.9786
17.57	61.9653
17.588	61.9654
17.606	61.9779
17.624	62.0012
17.642	62.0326
17.66	62.0709
17.678	62.1121
17.696	62.1552
17.714	62.1964
17.732	62.2341
17.75	62.266
17.768	62.29
17.786	62.3053
17.804	62.3098
17.822	62.3034
17.84	62.2857
17.858	62.2573
17.876	62.2183
17.894	62.1711
17.912	62.1161
17.93	62.0571
17.948	61.9948
17.966	61.9335
17.984	61.8745
18.002	61.8215
18.02	61.7761
18.038	61.7405
18.056	61.716
18.074	61.7034
18.092	61.7025
18.11	61.7132
18.128	61.7333
18.146	61.7621
18.164	61.7963
18.182	61.8343
18.2	61.8732
18.218	61.9106
18.236	61.9446
18.254	61.9733
18.272	61.996
18.29	62.0117
18.308	62.0206
18.326	62.0236
18.344	62.021
18.362	62.0153
18.38	62.0069
18.398	61.9984
18.416	61.9906
18.434	61.9852
18.452	61.9824
18.47	61.9833
18.488	61.9869
18.506	61.9935
18.524	62.0012
18.542	62.0096
18.56	62.0163
18.578	62.0211
18.596	62.0213
18.614	62.017
18.632	62.0067
18.65	61.9906
18.668	61.9689
18.686	61.9417
18.704	61.9109
18.722	61.8768
18.74	61.8418
18.758	61.8064
18.776	61.7732
18.794	61.7424
18.812	61.7158
18.83	61.6933
18.848	61.6755
18.866	61.6618
18.884	61.6519
18.902	61.6448
18.92	61.6393
18.938	61.6347
18.956	61.6294
18.974	61.6231
18.992	61.6144
19.01	61.6036
19.028	61.5902
19.046	61.575
19.064	61.5586
19.082	61.5419
19.1	61.5264
19.118	61.5126
19.136	61.5025
19.154	61.4962
19.172	61.4952
19.19	61.499
19.208	61.5082
19.226	61.5219
19.244	61.5388
19.262	61.5584
19.28	61.5777
19.298	61.5965
19.316	61.6113
19.334	61.6221
19.352	61.6258
19.37	61.6224
19.388	61.6104
19.406	61.5896
19.424	61.5604
19.442	61.5225
19.46	61.4779
19.478	61.4265
19.496	61.3712
19.514	61.3124
19.532	61.2528
19.55	61.1936
19.568	61.1365
19.586	61.0836
19.604	61.0351
19.622	60.9929
19.64	60.9566
19.658	60.9272
19.676	60.9045
19.694	60.8884
19.712	60.8788
19.73	60.8746
19.748	60.8758
19.766	60.8811
19.784	60.8903
19.802	60.902
19.82	60.9157
19.838	60.9308
19.856	60.9464
19.874	60.9623
19.892	60.9773
19.91	60.9915
19.928	61.0035
19.946	61.0135
19.964	61.0202
19.982	61.0237
20	61.0231
20.018	61.0179
20.036	61.0078
20.054	60.992
20.072	60.9705
20.09	60.9426
20.108	60.9084
20.126	60.8678
20.144	60.8208
20.162	60.7678
20.18	60.7089
20.198	60.645
20.216	60.5768
20.234	60.5046
20.252	60.4304
20.27	60.3538
20.288	60.277
20.306	60.1999
20.324	60.1241
20.342	60.0504
20.36	59.9793
20.378	59.9126
20.396	59.8497
20.414	59.793
20.432	59.7423
20.45	59.6984
20.468	59.6617
20.486	59.6325
20.504	59.6118
20.522	59.5995
20.54	59.5963
20.558	59.602
20.576	59.6172
20.594	59.6422
20.612	59.6768
20.63	59.721
20.648	59.7747
20.666	59.8374
20.684	59.9092
20.702	59.989
20.72	60.0763
20.738	60.1705
20.756	60.2696
20.774	60.3743
20.792	60.4814
20.81	60.5907
20.828	60.7007
20.846	60.809
20.864	60.9161
20.882	61.0184
20.9	61.1164
20.918	61.2083
20.936	61.2927
20.954	61.3699
20.972	61.4381
20.99	61.4977
21.008	61.5486
21.026	61.5905
21.044	61.6238
21.062	61.6497
21.08	61.6677
21.098	61.6799
21.116	61.6864
21.134	61.6882
21.152	61.6875
21.17	61.6835
21.188	61.6785
21.206	61.6729
21.224	61.6669
21.242	61.6613
21.26	61.656
21.278	61.6509
21.296	61.6466
21.314	61.642
21.332	61.6364
21.35	61.6301
21.368	61.6207
21.386	61.6081
21.404	61.5913
21.422	61.5676
21.44	61.5377
21.458	61.4996
21.476	61.4522
21.494	61.3959
21.512	61.3292
21.53	61.2522
21.548	61.1653
21.566	61.068
21.584	60.9608
21.602	60.8458
21.62	60.7221
21.638	60.5921
21.656	60.4586
21.674	60.3203
21.692	60.1822
21.71	60.045
21.728	59.9095
21.746	59.7808
21.764	59.6574
21.782	59.5424
21.8	59.4385
21.818	59.3447
21.836	59.2637
21.854	59.1961
21.872	59.1415
21.89	59.1006
21.908	59.0735
21.926	59.0588
21.944	59.0559
21.962	59.065
21.98	59.0822
21.998	59.1082
22.016	59.1411
22.034	59.1763
22.052	59.2156
22.07	59.2552
22.088	59.292
22.106	59.3274
22.124	59.3576
22.142	59.3816
22.16	59.3997
22.178	59.4094
22.196	59.4111
22.214	59.4045
22.232	59.3885
22.25	59.3632
22.268	59.3302
22.286	59.29
22.304	59.2424
22.322	59.1914
22.34	59.1371
22.358	59.0803
22.376	59.0253
22.394	58.9712
22.412	58.9195
22.43	58.8735
22.448	58.8315
22.466	58.7962
22.484	58.7695
22.502	58.7504
22.52	58.7407
22.538	58.7417
22.556	58.7524
22.574	58.7733
22.592	58.8046
22.61	58.8457
22.628	58.8954
22.646	58.9542
22.664	59.0211
22.682	59.0939
22.7	59.1737
22.718	59.2589
22.736	59.3474
22.754	59.4402
22.772	59.536
22.79	59.6337
22.808	59.7338
22.826	59.8355
22.844	59.9384
22.862	60.0428
22.88	60.1478
22.898	60.2531
22.916	60.3588
22.934	60.464
22.952	60.5684
22.97	60.6723
22.988	60.7751
23.006	60.877
23.024	60.9779
23.042	61.0768
23.06	61.1742
23.078	61.2697
23.096	61.3609
23.114	61.4483
23.132	61.5313
23.15	61.6075
23.168	61.6768
23.186	61.7393
23.204	61.7936
23.222	61.8397
23.24	61.8777
23.258	61.9064
23.276	61.9256
23.294	61.9358
23.312	61.9372
23.33	61.9296
23.348	61.9133
23.366	61.8888
23.384	61.8555
23.402	61.8141
23.42	61.7669
23.438	61.7141
23.456	61.6553
23.474	61.591
23.492	61.5215
23.51	61.4466
23.528	61.3666
23.546	61.2827
23.564	61.194
23.582	61.0973
23.6	60.9924
23.618	60.88
23.636	60.7543
23.654	60.6129
23.672	60.4587
23.69	60.2847
23.708	60.0865
23.726	59.8676
23.744	59.6236
23.762	59.3502
23.78	59.0501
23.798	58.7209
23.816	58.3592
23.834	57.9657
23.852	57.5413
23.87	57.0863
23.888	56.5984
23.906	56.0812
23.924	55.5406
23.942	54.9737
23.96	54.3828
23.978	53.78
23.996	53.1672
24.014	52.5406
24.032	51.9155
24.05	51.3005
24.068	50.6861
24.086	50.0883
24.104	49.5216
24.122	48.9753
24.14	48.4604
24.158	47.9934
24.176	47.5682
24.194	47.188
24.212	46.8672
24.23	46.6082
24.248	46.4064
24.266	46.27
24.284	46.2041
24.302	46.2046
24.32	46.2726
24.338	46.4101
24.356	46.6189
24.374	46.8934
24.392	47.2269
24.41	47.6233
24.428	48.0793
24.446	48.5833
24.464	49.1325
24.482	49.7323
24.5	50.3675
24.518	51.0256
24.536	51.717
24.554	52.4311
24.572	53.1526
24.59	53.8858
24.608	54.6296
24.626	55.3704
24.644	56.1022
24.662	56.8322
24.68	57.5512
24.698	58.2507
24.716	58.9353
24.734	59.6029
24.752	60.2483
24.77	60.8715
24.788	61.4737
24.806	62.0515
24.824	62.6023
24.842	63.1282
24.86	63.6282
24.878	64.101
24.896	64.549
24.914	64.9704
24.932	65.3605
24.95	65.7174
24.968	66.0448
24.986	66.3369
25.004	66.5876
25.022	66.803
25.04	66.9788
25.058	67.1036
25.076	67.1737
25.094	67.1962
25.112	67.1607
25.13	67.0567
25.148	66.8908
25.166	66.6602
25.184	66.3545
25.202	65.9685
25.22	65.5083
25.238	64.9709
25.256	64.3529
25.274	63.6528
25.292	62.8743
25.31	62.0214
25.328	61.0944
25.346	60.0882
25.364	59.0155
25.382	57.89
25.4	56.7036
25.418	55.4588
25.436	54.1772
25.454	52.8737
25.472	51.5292
25.49	50.1626
25.508	48.8005
25.526	47.4441
25.544	46.0811
25.562	44.7394
25.58	43.4449
25.598	42.1798
25.616	40.9518
25.634	39.7862
25.652	38.6982
25.67	37.6697
25.688	36.7142
25.706	35.8492
25.724	35.0763
25.742	34.3879
25.76	33.7918
25.778	33.2958
25.796	32.8994
25.814	32.5984
25.832	32.3893
25.85	32.2715
25.868	32.2498
25.886	32.315
25.904	32.4561
25.922	32.6737
25.94	32.9734
25.958	33.3395
25.976	33.756
25.994	34.2307
26.012	34.763
26.03	35.3369
26.048	35.9385
26.066	36.5801
26.084	37.2551
26.102	37.9495
26.12	38.6545
26.138	39.3807
26.156	40.1208
26.174	40.8646
26.192	41.6081
26.21	42.3578
26.228	43.109
26.246	43.8571
26.264	44.6023
26.282	45.3465
26.3	46.0863
26.318	46.8182
26.336	47.5476
26.354	48.2719
26.372	48.9818
26.39	49.6687
26.408	50.3415
26.426	50.9961
26.444	51.6209
26.462	52.2064
26.48	52.7618
26.498	53.2833
26.516	53.7621
26.534	54.1922
26.552	54.5822
26.57	54.9265
26.588	55.2165
26.606	55.4471
26.624	55.6268
26.642	55.7496
26.66	55.8076
26.678	55.7959
26.696	55.7202
26.714	55.5793
26.732	55.3712
26.75	55.0934
26.768	54.746
26.786	54.3338
26.804	53.862
26.822	53.33
26.84	52.7307
26.858	52.0775
26.876	51.3848
26.894	50.6556
26.912	49.8739
26.93	49.0611
26.948	48.2413
26.966	47.392
26.984	46.4425
27.002	45.5348
27.02	44.8248
27.028	44.6348