File: Bakgrunnsmateriale/MATLAB/FTIR/ftir_data/subBb/Mapping_121/C-4040-8_t71.asc
PE IR       SPECTRUM    SPECTRUM    ASCII       PEDS        1.60
  -1
C-A14E~1.ASC
17/03/27
20:21:15.00
17/03/27
20:21:42.00
tln
$C-4040-8_t0071$<tbV0>[2.6,2.6,8.0,0.0,27,1,0]
27.028
64

2002,4.07
MIRTGS : RIGHTBACK : INTERNAL 2
MIR : ON : INTERNAL 2
OPTKBR

0.200000
8
8.000000
FILLER
RATIO
SPECTRUM
UNLOCKED 256

DOUBLE
64
COMBINED
1
0
0

0.002000
RATIO

1
0
TRUE
51149
0
LEFT NOT FITTED RIGHT NOT FITTED 0
NONE
NONE
15600
12
4.427000
51148
TRUE
1 0 8 72 0 0 0 0

15798

#HDR
-1
-1
#GR
µM
%T
2.38419e-05
0.0
2.000000
0.002000
12515
8
89.6526
42.1775
#DATA
2.000000	 64.9927
2.018000	 65.7482
2.036000	 64.6783
2.054000	 65.6383
2.072000	 65.0042
2.090000	 64.9988
2.108000	 65.5265
2.126000	 65.2569
2.144000	 65.385
2.162000	 65.4848
2.180000	 65.164
2.198000	 64.7923
2.216000	 64.0111
2.234000	 64.3048
2.252000	 64.5397
2.270000	 63.028
2.288000	 77.9232
2.306000	 64.7108
2.324000	 64.5023
2.342000	 64.505
2.360000	 64.9273
2.378000	 64.9537
2.396000	 65.1491
2.414000	 65.7063
2.432000	 65.0018
2.450000	 65.3046
2.468000	 65.1951
2.486000	 65.274
2.504000	 65.6331
2.522000	 65.2659
2.540000	 65.0929
2.558000	 65.3792
2.576000	 65.1354
2.594000	 65.1077
2.612000	 65.4073
2.630000	 65.0711
2.648000	 65.176
2.666000	 65.2205
2.684000	 65.4073
2.702000	 65.2287
2.720000	 65.1213
2.738000	 65.1917
2.756000	 65.3518
2.774000	 65.2106
2.792000	 65.4434
2.810000	 65.3935
2.828000	 65.3142
2.846000	 65.4305
2.864000	 65.2231
2.882000	 65.2625
2.900000	 65.5045
2.918000	 65.0377
2.936000	 65.3644
2.954000	 65.3165
2.972000	 65.1981
2.990000	 65.3433
3.008000	 65.2033
3.026000	 65.2649
3.044000	 65.2673
3.062000	 65.2427
3.080000	 65.1876
3.098000	 65.2577
3.116000	 65.1613
3.134000	 65.2482
3.152000	 65.3109
3.170000	 65.1991
3.188000	 65.4502
3.206000	 64.9714
3.224000	 65.2471
3.242000	 65.3021
3.260000	 65.4398
3.278000	 65.3562
3.296000	 65.4133
3.314000	 65.1032
3.332000	 65.141
3.350000	 65.1322
3.368000	 65.0365
3.386000	 65.1533
3.404000	 65.1924
3.422000	 64.9761
3.440000	 65.0863
3.458000	 65.2876
3.476000	 65.2042
3.494000	 65.2823
3.512000	 65.0244
3.530000	 65.2858
3.548000	 65.2222
3.566000	 65.3632
3.584000	 65.3729
3.602000	 65.3138
3.620000	 65.4271
3.638000	 65.4678
3.656000	 65.4
3.674000	 65.3278
3.692000	 65.4107
3.710000	 65.3492
3.728000	 65.2061
3.746000	 65.2178
3.764000	 65.4301
3.782000	 65.3089
3.800000	 65.2779
3.818000	 65.4594
3.836000	 65.3
3.854000	 65.1103
3.872000	 65.3315
3.890000	 65.2661
3.908000	 65.2615
3.926000	 65.3557
3.944000	 65.3296
3.962000	 65.3574
3.980000	 65.5336
3.998000	 65.3173
4.016000	 65.1728
4.034000	 65.4291
4.052000	 65.1652
4.070000	 65.3563
4.088000	 65.4883
4.106000	 65.5459
4.124000	 65.1648
4.141999	 65.2507
4.160000	 65.2392
4.178000	 65.461
4.196000	 65.3815
4.214000	 65.3294
4.232000	 65.3193
4.250000	 65.4759
4.268000	 65.4902
4.286000	 65.4471
4.304000	 65.3593
4.322000	 65.4481
4.340000	 65.3635
4.358000	 65.397
4.375999	 65.2917
4.394000	 65.3403
4.412000	 65.3205
4.430000	 65.4263
4.448000	 65.5185
4.466000	 65.4781
4.484000	 65.4062
4.502000	 65.5373
4.520000	 65.4813
4.538000	 65.3303
4.556000	 65.2683
4.574000	 65.3653
4.592000	 65.4639
4.609999	 65.4881
4.628000	 65.4417
4.646000	 65.1588
4.664000	 65.3457
4.682000	 65.3712
4.700000	 65.3922
4.718000	 65.4093
4.736000	 65.5292
4.754000	 65.4428
4.772000	 65.4778
4.790000	 65.5845
4.808000	 65.6384
4.826000	 65.4534
4.843999	 65.2701
4.862000	 64.8947
4.880000	 65.5045
4.898000	 65.4604
4.916000	 65.451
4.934000	 65.3443
4.952000	 65.3688
4.970000	 65.5157
4.988000	 65.3349
5.006000	 65.3141
5.024000	 65.3344
5.042000	 65.3679
5.060000	 65.3572
5.077999	 65.4387
5.096000	 65.3739
5.114000	 65.3434
5.132000	 65.4108
5.150000	 65.4166
5.168000	 65.3805
5.186000	 65.3198
5.204000	 65.4013
5.222000	 65.3556
5.240000	 65.4217
5.258000	 65.3236
5.276000	 65.3317
5.294000	 65.3333
5.312000	 65.3451
5.330000	 65.4101
5.348000	 65.4258
5.366000	 65.3735
5.384000	 65.3407
5.402000	 65.3056
5.420000	 65.3117
5.438000	 65.4142
5.456000	 65.4414
5.474000	 65.4265
5.492000	 65.4585
5.510000	 65.5219
5.528000	 65.3982
5.546000	 65.2415
5.564000	 65.2798
5.582000	 65.3449
5.600000	 65.3824
5.618000	 65.4146
5.636000	 65.3576
5.654000	 65.3643
5.672000	 65.4106
5.690000	 65.3834
5.708000	 65.2576
5.726000	 65.1927
5.744000	 65.2062
5.762000	 65.195
5.780000	 64.9807
5.798000	 64.885
5.816000	 65.1804
5.834000	 65.5177
5.852000	 65.3485
5.870000	 65.2211
5.888000	 65.2495
5.906000	 65.366
5.923999	 65.4567
5.942000	 65.3945
5.960000	 65.325
5.978000	 65.3323
5.996000	 65.3493
6.014000	 65.2932
6.032000	 65.2492
6.050000	 65.2694
6.068000	 65.2766
6.086000	 65.3169
6.104000	 65.2569
6.122000	 65.1366
6.140000	 65.0693
6.158000	 65.1104
6.176000	 65.1048
6.194000	 65.0244
6.212000	 65.0341
6.230000	 65.1094
6.248000	 65.1397
6.266000	 65.0832
6.284000	 65.0191
6.302000	 65.0443
6.320000	 65.138
6.338000	 65.188
6.356000	 65.133
6.374000	 65.0626
6.392000	 65.0875
6.410000	 65.1274
6.428000	 65.1226
6.446000	 65.1448
6.464000	 65.1459
6.482000	 65.1213
6.500000	 65.1531
6.518000	 65.1814
6.536000	 65.1742
6.554000	 65.1659
6.572000	 65.1485
6.590000	 65.1275
6.608000	 65.1337
6.626000	 65.1107
6.644000	 65.0738
6.662000	 65.0499
6.680000	 64.9642
6.698000	 64.9855
6.716000	 65.1434
6.734000	 65.2118
6.752000	 65.2242
6.770000	 65.2134
6.788000	 65.198
6.806000	 65.2126
6.824000	 65.2048
6.842000	 65.1447
6.860000	 65.0892
6.878000	 65.0691
6.896000	 65.0532
6.914000	 65.0932
6.932000	 65.1905
6.950000	 65.2706
6.968000	 65.2894
6.986000	 65.2229
7.004000	 65.1598
7.022000	 65.1761
7.040000	 65.2377
7.058000	 65.2983
7.076000	 65.2934
7.094000	 65.229
7.112000	 65.18
7.130000	 65.1659
7.148000	 65.2102
7.166000	 65.285
7.184000	 65.2805
7.202000	 65.2184
7.220000	 65.2115
7.238000	 65.2524
7.256000	 65.2504
7.274000	 65.1815
7.292000	 65.1194
7.310000	 65.1223
7.328000	 65.1613
7.346000	 65.1998
7.364000	 65.2143
7.382000	 65.1875
7.400000	 65.1584
7.418000	 65.1502
7.436000	 65.1518
7.454000	 65.1942
7.472000	 65.2564
7.490000	 65.2434
7.508000	 65.1719
7.526000	 65.1379
7.544000	 65.1456
7.562000	 65.1302
7.580000	 65.065
7.598000	 64.9855
7.616000	 64.9471
7.634000	 64.9595
7.652000	 65.0062
7.670000	 65.0763
7.688000	 65.1438
7.706000	 65.1947
7.724000	 65.2506
7.742000	 65.3037
7.760000	 65.3042
7.778000	 65.2434
7.796000	 65.1625
7.814000	 65.0907
7.832000	 65.0399
7.850000	 65.0213
7.868000	 65.0293
7.886000	 65.0537
7.904000	 65.1023
7.922000	 65.1607
7.940000	 65.1797
7.958000	 65.1527
7.976000	 65.1203
7.994000	 65.0842
8.012000	 65.014
8.030000	 64.9331
8.048000	 64.9075
8.065999	 64.957
8.084000	 65.0437
8.102000	 65.1189
8.120000	 65.1512
8.138000	 65.1317
8.155999	 65.0807
8.173999	 65.036
8.192000	 65.0175
8.210000	 65.0141
8.228000	 65.0083
8.246000	 65.0099
8.263999	 65.0453
8.282000	 65.1078
8.300000	 65.1427
8.318000	 65.1021
8.336000	 64.9997
8.353999	 64.897
8.372000	 64.8471
8.390000	 64.8592
8.408000	 64.9142
8.426000	 64.9853
8.443999	 65.0402
8.462000	 65.0446
8.480000	 64.9922
8.498000	 64.9249
8.516000	 64.8909
8.533999	 64.8923
8.552000	 64.8965
8.570000	 64.8848
8.588000	 64.8718
8.606000	 64.8821
8.624000	 64.923
8.641999	 64.9721
8.660000	 64.9877
8.678000	 64.9402
8.696000	 64.8432
8.714000	 64.7437
8.731999	 64.6841
8.750000	 64.6825
8.768000	 64.7387
8.786000	 64.8367
8.804000	 64.9394
8.821999	 65.0029
8.840000	 65.0066
8.858000	 64.9693
8.876000	 64.9248
8.894000	 64.8907
8.911999	 64.8603
8.930000	 64.8201
8.948000	 64.7708
8.966000	 64.7354
8.984000	 64.7438
9.001999	 64.8096
9.020000	 64.9192
9.038000	 65.0378
9.056000	 65.1288
9.074000	 65.1718
9.092000	 65.1714
9.109999	 65.1484
9.128000	 65.1167
9.146000	 65.0645
9.164000	 64.9683
9.182000	 64.8336
9.199999	 64.7076
9.218000	 64.6417
9.236000	 64.645
9.254000	 64.679
9.272000	 64.6999
9.289999	 64.6966
9.308000	 64.6876
9.326000	 64.688
9.344000	 64.6901
9.362000	 64.6768
9.379999	 64.6418
9.398000	 64.5987
9.416000	 64.5684
9.434000	 64.558
9.452000	 64.5514
9.469999	 64.5256
9.488000	 64.4734
9.506000	 64.4146
9.524000	 64.3808
9.542000	 64.3936
9.560000	 64.4545
9.577999	 64.5513
9.596000	 64.6701
9.614000	 64.7946
9.632000	 64.9029
9.650000	 64.976
9.667999	 65.0118
9.686000	 65.0196
9.704000	 65.003
9.722000	 64.9476
9.740000	 64.831
9.757999	 64.645
9.776000	 64.4143
9.794000	 64.1957
9.812000	 64.0536
9.830000	 64.0277
9.847999	 64.1103
9.866000	 64.2526
9.884000	 64.3919
9.902000	 64.4836
9.920000	 64.5201
9.937999	 64.5233
9.956000	 64.5252
9.974000	 64.5496
9.992000	 64.6107
10.01	64.7161
10.028	64.8615
10.046	65.0237
10.064	65.1591
10.082	65.2193
10.1	65.1729
10.118	65.0301
10.136	64.8413
10.154	64.6674
10.172	64.5453
10.19	64.4662
10.208	64.3903
10.226	64.2882
10.244	64.1711
10.262	64.0947
10.28	64.1126
10.298	64.2339
10.316	64.4056
10.334	64.5498
10.352	64.621
10.37	64.6333
10.388	64.6448
10.406	64.6996
10.424	64.7942
10.442	64.8796
10.46	64.9089
10.478	64.876
10.496	64.8239
10.514	64.8033
10.532	64.8353
10.55	64.8932
10.568	64.93
10.586	64.9146
10.604	64.8559
10.622	64.7926
10.64	64.7618
10.658	64.7722
10.676	64.7992
10.694	64.8072
10.712	64.7738
10.73	64.708
10.748	64.6411
10.766	64.6077
10.784	64.6251
10.802	64.6874
10.82	64.7728
10.838	64.855
10.856	64.9158
10.874	64.9455
10.892	64.9422
10.91	64.9077
10.928	64.8464
10.946	64.7671
10.964	64.6823
10.982	64.6063
11	64.5502
11.018	64.5194
11.036	64.5131
11.054	64.5269
11.072	64.5564
11.09	64.599
11.108	64.6526
11.126	64.7131
11.144	64.7732
11.162	64.8227
11.18	64.8525
11.198	64.8571
11.216	64.8374
11.234	64.8011
11.252	64.7591
11.27	64.7198
11.288	64.6873
11.306	64.6592
11.324	64.6292
11.342	64.5921
11.36	64.5477
11.378	64.5026
11.396	64.4671
11.414	64.4513
11.432	64.4591
11.45	64.4864
11.468	64.5217
11.486	64.5522
11.504	64.5684
11.522	64.567
11.54	64.5509
11.558	64.5255
11.576	64.4955
11.594	64.4627
11.612	64.4259
11.63	64.3834
11.648	64.3357
11.666	64.2866
11.684	64.2434
11.702	64.2141
11.72	64.2044
11.738	64.2159
11.756	64.246
11.774	64.2891
11.792	64.3407
11.81	64.3987
11.828	64.4635
11.846	64.5357
11.864	64.6132
11.882	64.6899
11.9	64.7559
11.918	64.8004
11.936	64.8151
11.954	64.7974
11.972	64.7504
11.99	64.6829
12.008	64.6054
12.026	64.5274
12.044	64.4561
12.062	64.3945
12.08	64.3427
12.098	64.2994
12.116	64.2634
12.134	64.234
12.152	64.2114
12.17	64.1964
12.188	64.1899
12.206	64.1921
12.224	64.202
12.242	64.218
12.26	64.2374
12.278	64.2577
12.296	64.2773
12.314	64.2957
12.332	64.3132
12.35	64.331
12.368	64.3501
12.386	64.3707
12.404	64.3917
12.422	64.4109
12.44	64.4256
12.458	64.4326
12.476	64.4293
12.494	64.4145
12.512	64.3883
12.53	64.3521
12.548	64.3088
12.566	64.2625
12.584	64.2188
12.602	64.1843
12.62	64.1655
12.638	64.1669
12.656	64.19
12.674	64.232
12.692	64.2858
12.71	64.3419
12.728	64.3895
12.746	64.4197
12.764	64.4271
12.782	64.4104
12.8	64.3725
12.818	64.3197
12.836	64.2598
12.854	64.2005
12.872	64.1477
12.89	64.1057
12.908	64.0768
12.926	64.0613
12.944	64.0576
12.962	64.0634
12.98	64.0759
12.998	64.0915
13.016	64.1062
13.034	64.1172
13.052	64.1221
13.07	64.12
13.088	64.1112
13.106	64.0971
13.124	64.0799
13.142	64.063
13.16	64.0496
13.178	64.0426
13.196	64.0443
13.214	64.0556
13.232	64.0753
13.25	64.0999
13.268	64.1241
13.286	64.141
13.304	64.1433
13.322	64.1244
13.34	64.0799
13.358	64.0081
13.376	63.9108
13.394	63.7925
13.412	63.6608
13.43	63.5242
13.448	63.3916
13.466	63.2708
13.484	63.1685
13.502	63.0897
13.52	63.038
13.538	63.015
13.556	63.0212
13.574	63.0553
13.592	63.1152
13.61	63.1963
13.628	63.293
13.646	63.3983
13.664	63.505
13.682	63.6059
13.7	63.6957
13.718	63.7704
13.736	63.8284
13.754	63.8709
13.772	63.9003
13.79	63.92
13.808	63.9324
13.826	63.9398
13.844	63.9422
13.862	63.9385
13.88	63.9259
13.898	63.9016
13.916	63.863
13.934	63.8092
13.952	63.7408
13.97	63.6605
13.988	63.5723
14.006	63.4812
14.024	63.392
14.042	63.3091
14.06	63.2365
14.078	63.1764
14.096	63.131
14.114	63.1014
14.132	63.089
14.15	63.0948
14.168	63.1197
14.186	63.1643
14.204	63.2278
14.222	63.3079
14.24	63.4011
14.258	63.5024
14.276	63.6057
14.294	63.7041
14.312	63.7913
14.33	63.8625
14.348	63.9137
14.366	63.9429
14.384	63.9494
14.402	63.9344
14.42	63.8997
14.438	63.8475
14.456	63.7804
14.474	63.7015
14.492	63.6143
14.51	63.5232
14.528	63.4335
14.546	63.3503
14.564	63.2789
14.582	63.2238
14.6	63.1884
14.618	63.1748
14.636	63.1826
14.654	63.2092
14.672	63.2506
14.69	63.3016
14.708	63.3565
14.726	63.4094
14.744	63.455
14.762	63.4898
14.78	63.5119
14.798	63.5208
14.816	63.5172
14.834	63.5023
14.852	63.4782
14.87	63.4459
14.888	63.4062
14.906	63.359
14.924	63.3032
14.942	63.2377
14.96	63.1611
14.978	63.0733
14.996	62.9751
15.014	62.8682
15.032	62.7563
15.05	62.6445
15.068	62.5384
15.086	62.4435
15.104	62.3653
15.122	62.3082
15.14	62.2744
15.158	62.2638
15.176	62.2751
15.194	62.3047
15.212	62.3475
15.23	62.3978
15.248	62.4507
15.266	62.5016
15.284	62.5463
15.302	62.5829
15.32	62.6109
15.338	62.6304
15.356	62.6428
15.374	62.6501
15.392	62.6544
15.41	62.6576
15.428	62.6616
15.446	62.6678
15.464	62.6771
15.482	62.6898
15.5	62.7058
15.518	62.725
15.536	62.7465
15.554	62.7694
15.572	62.7928
15.59	62.815
15.608	62.8345
15.626	62.8495
15.644	62.8583
15.662	62.8592
15.68	62.8515
15.698	62.8345
15.716	62.8078
15.734	62.7724
15.752	62.7297
15.77	62.6815
15.788	62.6303
15.806	62.5783
15.824	62.5274
15.842	62.4796
15.86	62.4369
15.878	62.4002
15.896	62.3705
15.914	62.3483
15.932	62.334
15.95	62.3276
15.968	62.329
15.986	62.3375
16.004	62.3524
16.022	62.3728
16.04	62.3963
16.058	62.4211
16.076	62.4451
16.094	62.4654
16.112	62.4797
16.13	62.4866
16.148	62.484
16.166	62.4716
16.184	62.4498
16.202	62.419
16.22	62.382
16.238	62.3413
16.256	62.2996
16.274	62.2614
16.292	62.2295
16.31	62.2066
16.328	62.1957
16.346	62.1976
16.364	62.213
16.382	62.2412
16.4	62.2804
16.418	62.3291
16.436	62.3835
16.454	62.4405
16.472	62.4977
16.49	62.5509
16.508	62.5982
16.526	62.6379
16.544	62.6682
16.562	62.689
16.58	62.7
16.598	62.7023
16.616	62.6971
16.634	62.6855
16.652	62.6697
16.67	62.6511
16.688	62.631
16.706	62.6112
16.724	62.5924
16.742	62.5755
16.76	62.561
16.778	62.5492
16.796	62.54
16.814	62.5335
16.832	62.5295
16.85	62.528
16.868	62.5289
16.886	62.5321
16.904	62.5378
16.922	62.5463
16.94	62.5578
16.958	62.5729
16.976	62.5918
16.994	62.6148
17.012	62.6415
17.03	62.6719
17.048	62.7052
17.066	62.7405
17.084	62.7768
17.102	62.8121
17.12	62.8456
17.138	62.8746
17.156	62.8978
17.174	62.9138
17.192	62.9207
17.21	62.9181
17.228	62.9051
17.246	62.8816
17.264	62.8477
17.282	62.804
17.3	62.751
17.318	62.6899
17.336	62.6221
17.354	62.5485
17.372	62.4711
17.39	62.3909
17.408	62.3097
17.426	62.2292
17.444	62.1502
17.462	62.0748
17.48	62.0035
17.498	61.9382
17.516	61.8795
17.534	61.8281
17.552	61.7849
17.57	61.7501
17.588	61.7235
17.606	61.7048
17.624	61.6935
17.642	61.6878
17.66	61.6872
17.678	61.689
17.696	61.6922
17.714	61.6942
17.732	61.6936
17.75	61.6882
17.768	61.6767
17.786	61.6583
17.804	61.6319
17.822	61.5976
17.84	61.5561
17.858	61.5084
17.876	61.4556
17.894	61.4005
17.912	61.3443
17.93	61.2909
17.948	61.241
17.966	61.1987
17.984	61.1648
18.002	61.1418
18.02	61.1304
18.038	61.1317
18.056	61.145
18.074	61.1705
18.092	61.2062
18.11	61.2515
18.128	61.3033
18.146	61.3605
18.164	61.4196
18.182	61.4789
18.2	61.5359
18.218	61.5884
18.236	61.6348
18.254	61.6735
18.272	61.7038
18.29	61.7249
18.308	61.7368
18.326	61.7401
18.344	61.735
18.362	61.7229
18.38	61.7046
18.398	61.6816
18.416	61.6552
18.434	61.6268
18.452	61.5976
18.47	61.5688
18.488	61.5415
18.506	61.5162
18.524	61.4939
18.542	61.4745
18.56	61.4588
18.578	61.4466
18.596	61.4381
18.614	61.4332
18.632	61.4317
18.65	61.4337
18.668	61.4387
18.686	61.4467
18.704	61.4574
18.722	61.4708
18.74	61.4864
18.758	61.5042
18.776	61.5239
18.794	61.5452
18.812	61.5675
18.83	61.5905
18.848	61.6133
18.866	61.6353
18.884	61.6555
18.902	61.6732
18.92	61.6872
18.938	61.6968
18.956	61.701
18.974	61.6994
18.992	61.691
19.01	61.6759
19.028	61.6537
19.046	61.6251
19.064	61.5903
19.082	61.5502
19.1	61.506
19.118	61.4587
19.136	61.41
19.154	61.3605
19.172	61.3125
19.19	61.2659
19.208	61.2227
19.226	61.1825
19.244	61.1463
19.262	61.1137
19.28	61.0844
19.298	61.0583
19.316	61.0339
19.334	61.0113
19.352	60.9888
19.37	60.9663
19.388	60.9423
19.406	60.9167
19.424	60.8889
19.442	60.8586
19.46	60.8265
19.478	60.7923
19.496	60.7575
19.514	60.7221
19.532	60.6877
19.55	60.6549
19.568	60.6246
19.586	60.598
19.604	60.5753
19.622	60.5574
19.64	60.5443
19.658	60.5359
19.676	60.5321
19.694	60.5317
19.712	60.5349
19.73	60.5391
19.748	60.5447
19.766	60.5489
19.784	60.5514
19.802	60.5505
19.82	60.5449
19.838	60.5343
19.856	60.5171
19.874	60.4938
19.892	60.4638
19.91	60.4272
19.928	60.3852
19.946	60.3375
19.964	60.2862
19.982	60.2312
20	60.1747
20.018	60.1175
20.036	60.0606
20.054	60.0062
20.072	59.9542
20.09	59.9069
20.108	59.8641
20.126	59.8273
20.144	59.7965
20.162	59.772
20.18	59.7541
20.198	59.7426
20.216	59.7375
20.234	59.7386
20.252	59.745
20.27	59.7569
20.288	59.7731
20.306	59.7938
20.324	59.8177
20.342	59.8444
20.36	59.8733
20.378	59.9027
20.396	59.933
20.414	59.9617
20.432	59.9892
20.45	60.0135
20.468	60.0339
20.486	60.0499
20.504	60.0597
20.522	60.0635
20.54	60.0594
20.558	60.0475
20.576	60.0271
20.594	59.9977
20.612	59.9596
20.63	59.913
20.648	59.8578
20.666	59.7961
20.684	59.7272
20.702	59.6537
20.72	59.5766
20.738	59.4967
20.756	59.4175
20.774	59.3383
20.792	59.2632
20.81	59.1925
20.828	59.1277
20.846	59.0716
20.864	59.0234
20.882	58.9854
20.9	58.9577
20.918	58.9402
20.936	58.9334
20.954	58.9366
20.972	58.9484
20.99	58.9693
21.008	58.9965
21.026	59.0293
21.044	59.0666
21.062	59.1048
21.08	59.145
21.098	59.1832
21.116	59.2187
21.134	59.2506
21.152	59.2757
21.17	59.2951
21.188	59.3064
21.206	59.3091
21.224	59.3033
21.242	59.2882
21.26	59.264
21.278	59.2314
21.296	59.1899
21.314	59.1407
21.332	59.0852
21.35	59.0228
21.368	58.9566
21.386	58.8867
21.404	58.8144
21.422	58.743
21.44	58.6714
21.458	58.6031
21.476	58.5392
21.494	58.4797
21.512	58.4281
21.53	58.3834
21.548	58.3477
21.566	58.3226
21.584	58.3074
21.602	58.3036
21.62	58.3115
21.638	58.3307
21.656	58.3608
21.674	58.4022
21.692	58.4529
21.71	58.5129
21.728	58.5815
21.746	58.6562
21.764	58.7379
21.782	58.8241
21.8	58.913
21.818	59.0053
21.836	59.0972
21.854	59.1889
21.872	59.2793
21.89	59.3655
21.908	59.4485
21.926	59.5264
21.944	59.5977
21.962	59.6633
21.98	59.7215
21.998	59.7721
22.016	59.8152
22.034	59.8505
22.052	59.878
22.07	59.898
22.088	59.9106
22.106	59.9158
22.124	59.9143
22.142	59.906
22.16	59.8913
22.178	59.8713
22.196	59.8455
22.214	59.815
22.232	59.7811
22.25	59.7432
22.268	59.7027
22.286	59.6602
22.304	59.6155
22.322	59.5696
22.34	59.5228
22.358	59.4752
22.376	59.4277
22.394	59.3802
22.412	59.3331
22.43	59.2872
22.448	59.2421
22.466	59.1983
22.484	59.1563
22.502	59.1159
22.52	59.0772
22.538	59.0404
22.556	59.0054
22.574	58.9715
22.592	58.9392
22.61	58.9078
22.628	58.8759
22.646	58.844
22.664	58.8111
22.682	58.7755
22.7	58.7382
22.718	58.6976
22.736	58.6517
22.754	58.6017
22.772	58.5455
22.79	58.4813
22.808	58.4104
22.826	58.3305
22.844	58.2403
22.862	58.1405
22.88	58.0303
22.898	57.9089
22.916	57.7768
22.934	57.6343
22.952	57.4811
22.97	57.3176
22.988	57.1448
23.006	56.9624
23.024	56.7708
23.042	56.5728
23.06	56.3676
23.078	56.1561
23.096	55.9425
23.114	55.7259
23.132	55.5075
23.15	55.2922
23.168	55.0795
23.186	54.87
23.204	54.6679
23.222	54.4724
23.24	54.2845
23.258	54.1083
23.276	53.9436
23.294	53.7903
23.312	53.6514
23.33	53.526
23.348	53.4148
23.366	53.3202
23.384	53.2418
23.402	53.1798
23.42	53.1363
23.438	53.1113
23.456	53.1044
23.474	53.1171
23.492	53.1501
23.51	53.2025
23.528	53.2733
23.546	53.3626
23.564	53.4702
23.582	53.5948
23.6	53.736
23.618	53.894
23.636	54.0672
23.654	54.255
23.672	54.4582
23.69	54.6731
23.708	54.8976
23.726	55.1342
23.744	55.3771
23.762	55.6216
23.78	55.8719
23.798	56.1219
23.816	56.3647
23.834	56.6049
23.852	56.8375
23.87	57.0545
23.888	57.2592
23.906	57.4489
23.924	57.6157
23.942	57.76
23.96	57.8824
23.978	57.9766
23.996	58.0401
24.014	58.0756
24.032	58.0805
24.05	58.0526
24.068	57.9932
24.086	57.9031
24.104	57.7831
24.122	57.6309
24.14	57.451
24.158	57.2483
24.176	57.02
24.194	56.7689
24.212	56.5022
24.23	56.2198
24.248	55.9205
24.266	55.6129
24.284	55.3018
24.302	54.9827
24.32	54.6609
24.338	54.3418
24.356	54.0226
24.374	53.7048
24.392	53.3914
24.41	53.0835
24.428	52.7794
24.446	52.478
24.464	52.1797
24.482	51.8854
24.5	51.5901
24.518	51.2899
24.536	50.9885
24.554	50.6819
24.572	50.3649
24.59	50.0391
24.608	49.7041
24.626	49.3546
24.644	48.9873
24.662	48.6043
24.68	48.2074
24.698	47.7978
24.716	47.3727
24.734	46.936
24.752	46.4928
24.77	46.039
24.788	45.5757
24.806	45.1187
24.824	44.6771
24.842	44.2379
24.86	43.8186
24.878	43.4405
24.896	43.0925
24.914	42.7793
24.932	42.5268
24.95	42.3473
24.968	42.2247
24.986	42.1775
25.004	42.226
25.022	42.3613
25.04	42.5852
25.058	42.9112
25.076	43.3471
25.094	43.8857
25.112	44.5267
25.13	45.2706
25.148	46.1235
25.166	47.0767
25.184	48.1165
25.202	49.2405
25.22	50.4589
25.238	51.747
25.256	53.0795
25.274	54.4747
25.292	55.922
25.31	57.3868
25.328	58.8522
25.346	60.3438
25.364	61.8301
25.382	63.2747
25.4	64.6872
25.418	66.0713
25.436	67.3975
25.454	68.6437
25.472	69.8284
25.49	70.9419
25.508	71.9673
25.526	72.9
25.544	73.7488
25.562	74.5073
25.58	75.1688
25.598	75.7336
25.616	76.2054
25.634	76.5872
25.652	76.8794
25.67	77.0781
25.688	77.192
25.706	77.2306
25.724	77.1918
25.742	77.0734
25.76	76.8881
25.778	76.6478
25.796	76.3414
25.814	75.9761
25.832	75.5683
25.85	75.1284
25.868	74.6428
25.886	74.1237
25.904	73.5868
25.922	73.0343
25.94	72.4576
25.958	71.8706
25.976	71.2873
25.994	70.7031
26.012	70.1164
26.03	69.5368
26.048	68.9723
26.066	68.4164
26.084	67.8719
26.102	67.3456
26.12	66.8425
26.138	66.3584
26.156	65.8941
26.174	65.4512
26.192	65.0305
26.21	64.6308
26.228	64.2525
26.246	63.8961
26.264	63.5632
26.282	63.2531
26.3	62.962
26.318	62.6865
26.336	62.4294
26.354	62.19
26.372	61.9625
26.39	61.7419
26.408	61.5344
26.426	61.3364
26.444	61.1394
26.462	60.9363
26.48	60.7342
26.498	60.5297
26.516	60.3156
26.534	60.0872
26.552	59.8517
26.57	59.6038
26.588	59.3357
26.606	59.044
26.624	58.7382
26.642	58.4082
26.66	58.0417
26.678	57.6313
26.696	57.1867
26.714	56.7033
26.732	56.1752
26.75	55.598
26.768	54.9746
26.786	54.3078
26.804	53.6003
26.822	52.8505
26.84	52.0529
26.858	51.2197
26.876	50.3641
26.894	49.4893
26.912	48.5815
26.93	47.6579
26.948	46.7377
26.966	45.7936
26.984	44.7555
27.002	43.7713
27.02	43.0031
27.028	42.7967