File: Bakgrunnsmateriale/MATLAB/FTIR/ftir_data/subBb/Mapping_121/C-4040-8_t76_cm-1.asc
PE IR       SPECTRUM    SPECTRUM    ASCII       PEDS        1.60
  -1
C-1D6E~1.ASC
17/03/27
20:44:20.00
17/03/27
20:44:20.00
tln
$C-4040-8_t0076$<tbV0>[-10.4,2.6,8.0,0.0,27,1,0]
370
64

2002,4.07
MIRTGS : RIGHTBACK : INTERNAL 2
MIR : ON : INTERNAL 2
OPTKBR

0.200000
8
8.000000
FILLER
RATIO
SPECTRUM
UNLOCKED 256

DOUBLE
64
COMBINED
1
0
0

1.000000
RATIO

1
0
TRUE
51149
0
LEFT NOT FITTED RIGHT NOT FITTED 0
NONE
NONE
15600
12
4.427000
51148
TRUE
1 0 8 72 0 0 0 0

15798

#HDR
-1
-1
#GR
CM-1
%T
2.38419e-05
0.0
5000
-1.000000
4631
8
83.0847
25.9197
#DATA
5000	65.3125
4996	65.3834
4992	65.0764
4988	64.7611
4984	64.9359
4980	65.0462
4976	65.021
4972	65.1348
4968	64.763
4964	64.1769
4960	64.3613
4956	64.7574
4952	64.9408
4948	65.1527
4944	64.9627
4940	64.6323
4936	64.5833
4932	64.56
4928	64.5863
4924	64.8144
4920	64.9686
4916	64.8745
4912	64.833
4908	64.9808
4904	65.0985
4900	64.9955
4896	64.7572
4892	64.8072
4888	65.0173
4884	64.8546
4880	64.847
4876	65.3044
4872	65.3591
4868	65.0006
4864	64.8238
4860	64.6918
4856	64.5943
4852	64.6929
4848	64.7608
4844	64.6991
4840	64.8368
4836	65.3817
4832	65.7093
4828	65.2884
4824	64.7799
4820	64.8881
4816	65.3023
4812	65.3595
4808	65.1456
4804	65.1273
4800	65.2954
4796	65.4269
4792	65.2991
4788	65.0695
4784	65.1706
4780	65.3636
4776	65.3221
4772	65.2339
4768	65.1536
4764	65.0077
4760	64.8576
4756	64.7313
4752	64.7345
4748	64.9676
4744	65.0969
4740	64.9134
4736	64.8333
4732	64.9861
4728	65.1994
4724	65.4009
4720	65.4136
4716	65.2825
4712	65.2444
4708	65.2936
4704	65.1773
4700	64.9025
4696	64.8251
4692	65.0145
4688	65.1991
4684	65.3035
4680	65.3791
4676	65.3688
4672	65.2591
4668	65.1714
4664	65.2623
4660	65.4539
4656	65.5864
4652	65.6644
4648	65.6034
4644	65.5136
4640	65.5089
4636	65.4127
4632	65.413
4628	65.5559
4624	65.5514
4620	65.3963
4616	65.2804
4612	65.2568
4608	65.1601
4604	64.9774
4600	64.8429
4596	64.8578
4592	65.0158
4588	65.0454
4584	64.8055
4580	64.6716
4576	64.8406
4572	64.9252
4568	64.8761
4564	64.9487
4560	65.0944
4556	65.2674
4552	65.4191
4548	65.315
4544	64.9373
4540	64.6353
4536	64.681
4532	65.125
4528	65.4935
4524	65.1819
4520	64.609
4516	64.3399
4512	64.4304
4508	64.6387
4504	64.6241
4500	64.5465
4496	64.5105
4492	64.4897
4488	64.5629
4484	64.5607
4480	64.4055
4476	64.287
4472	64.3953
4468	64.5192
4464	64.3233
4460	64.124
4456	64.3187
4452	64.7258
4448	64.9404
4444	64.9056
4440	64.8238
4436	64.6656
4432	64.3203
4428	64.0735
4424	64.1102
4420	64.3142
4416	64.4096
4412	63.9852
4408	63.0558
4404	62.4295
4400	61.9623
4396	60.9228
4392	60.6751
4388	62.3312
4384	74.257
4380	83.0847
4376	75.9385
4372	70.2612
4368	67.3759
4364	65.1928
4360	64.3034
4356	64.5802
4352	64.7405
4348	64.4184
4344	64.3874
4340	64.6824
4336	64.591
4332	64.3002
4328	64.5162
4324	64.9621
4320	65.0534
4316	64.8098
4312	64.5075
4308	64.4283
4304	64.5457
4300	64.6449
4296	64.627
4292	64.5961
4288	64.6763
4284	64.6715
4280	64.619
4276	64.7367
4272	64.861
4268	64.7678
4264	64.6653
4260	64.7344
4256	64.8415
4252	64.8657
4248	64.7381
4244	64.6592
4240	64.6712
4236	64.6633
4232	64.6437
4228	64.5765
4224	64.4954
4220	64.3765
4216	64.3595
4212	64.5779
4208	64.7809
4204	64.7577
4200	64.5606
4196	64.5536
4192	65.0454
4188	65.5773
4184	65.5199
4180	65.0113
4176	64.6239
4172	64.8358
4168	65.4182
4164	65.6475
4160	65.3839
4156	65.0105
4152	64.871
4148	64.9658
4144	65.1652
4140	65.2654
4136	65.0745
4132	64.9451
4128	65.1094
4124	65.2946
4120	65.2908
4116	65.1183
4112	65.0368
4108	65.1149
4104	65.0986
4100	65.0861
4096	65.2435
4092	65.2851
4088	65.2217
4084	65.2098
4080	65.1908
4076	65.2467
4072	65.2419
4068	65.0859
4064	65.0667
4060	65.2506
4056	65.3185
4052	65.1249
4048	64.8956
4044	64.8598
4040	65.075
4036	65.2809
4032	65.2124
4028	65.1131
4024	65.172
4020	65.1996
4016	65.1953
4012	65.229
4008	65.2492
4004	65.2374
4000	65.2317
3996	65.2859
3992	65.2392
3988	65.071
3984	65.0594
3980	65.22
3976	65.2957
3972	65.2525
3968	65.2452
3964	65.2267
3960	65.2088
3956	65.2419
3952	65.1487
3948	64.9908
3944	64.9797
3940	65.0527
3936	65.1121
3932	65.1547
3928	65.2184
3924	65.2416
3920	65.1818
3916	65.1334
3912	65.1223
3908	65.1736
3904	65.2545
3900	65.2732
3896	65.2029
3892	65.1816
3888	65.2423
3884	65.1348
3880	64.9477
3876	64.9745
3872	65.1831
3868	65.3803
3864	65.3727
3860	65.139
3856	64.9726
3852	64.9932
3848	64.9924
3844	64.9822
3840	65.0005
3836	64.9549
3832	64.9712
3828	64.979
3824	64.8242
3820	64.8719
3816	65.1227
3812	65.1714
3808	65.0677
3804	64.9717
3800	65.0061
3796	65.0626
3792	65.0039
3788	65.0528
3784	65.2093
3780	65.2217
3776	65.1549
3772	65.188
3768	65.196
3764	65.1719
3760	65.2475
3756	65.3081
3752	65.2032
3748	65.0227
3744	64.9865
3740	65.0786
3736	65.154
3732	65.1851
3728	65.2173
3724	65.2933
3720	65.3224
3716	65.2646
3712	65.2278
3708	65.2125
3704	65.176
3700	65.1643
3696	65.2681
3692	65.3499
3688	65.2194
3684	65.0938
3680	65.1347
3676	65.2295
3672	65.2914
3668	65.3017
3664	65.3342
3660	65.4011
3656	65.3887
3652	65.2588
3648	65.0828
3644	64.9643
3640	64.997
3636	65.1084
3632	65.1637
3628	65.1989
3624	65.2237
3620	65.2477
3616	65.3251
3612	65.349
3608	65.2455
3604	65.1994
3600	65.2979
3596	65.3652
3592	65.2994
3588	65.1429
3584	65.093
3580	65.1947
3576	65.2709
3572	65.2866
3568	65.2675
3564	65.2648
3560	65.2469
3556	65.2526
3552	65.3835
3548	65.3996
3544	65.2561
3540	65.2191
3536	65.2449
3532	65.2473
3528	65.2791
3524	65.2622
3520	65.273
3516	65.3484
3512	65.2492
3508	65.1283
3504	65.1656
3500	65.1613
3496	65.1223
3492	65.1953
3488	65.2259
3484	65.0927
3480	65.0979
3476	65.2437
3472	65.2699
3468	65.24
3464	65.2574
3460	65.3606
3456	65.469
3452	65.5314
3448	65.5245
3444	65.4706
3440	65.4363
3436	65.3205
3432	65.1779
3428	65.1648
3424	65.271
3420	65.3447
3416	65.3478
3412	65.3653
3408	65.3498
3404	65.2145
3400	65.0763
3396	65.0887
3392	65.2045
3388	65.3311
3384	65.3512
3380	65.2495
3376	65.207
3372	65.2305
3368	65.191
3364	65.1297
3360	65.1154
3356	65.1776
3352	65.2757
3348	65.2953
3344	65.2849
3340	65.3171
3336	65.3057
3332	65.2274
3328	65.1671
3324	65.1852
3320	65.2219
3316	65.1693
3312	65.1546
3308	65.2615
3304	65.3355
3300	65.3521
3296	65.339
3292	65.29
3288	65.2975
3284	65.283
3280	65.2341
3276	65.2811
3272	65.3256
3268	65.3534
3264	65.3588
3260	65.2839
3256	65.2663
3252	65.2837
3248	65.2246
3244	65.1531
3240	65.1098
3236	65.1724
3232	65.2727
3228	65.314
3224	65.3152
3220	65.2505
3216	65.255
3212	65.3077
3208	65.2716
3204	65.2106
3200	65.2166
3196	65.2741
3192	65.2652
3188	65.2251
3184	65.2282
3180	65.1746
3176	65.0748
3172	65.0731
3168	65.1816
3164	65.2667
3160	65.2935
3156	65.3263
3152	65.3221
3148	65.3299
3144	65.4639
3140	65.4909
3136	65.3651
3132	65.3143
3128	65.2358
3124	65.1283
3120	65.0892
3116	65.1405
3112	65.1698
3108	65.1058
3104	65.1297
3100	65.2106
3096	65.2304
3092	65.1875
3088	65.1054
3084	65.047
3080	65.1185
3076	65.2989
3072	65.3979
3068	65.3588
3064	65.2629
3060	65.1932
3056	65.2263
3052	65.2783
3048	65.2477
3044	65.2089
3040	65.1951
3036	65.2287
3032	65.2773
3028	65.2412
3024	65.2023
3020	65.1708
3016	65.0572
3012	64.9949
3008	65.0569
3004	65.1012
3000	65.1017
2996	65.1399
2992	65.1545
2988	65.1025
2984	65.0929
2980	65.1031
2976	65.0389
2972	64.9524
2968	64.9276
2964	64.9132
2960	64.845
2956	64.8761
2952	65.0456
2948	65.1667
2944	65.1916
2940	65.1208
2936	65.0259
2932	64.9706
2928	64.9061
2924	64.8394
2920	64.7706
2916	64.7903
2912	64.865
2908	64.9194
2904	65.0035
2900	65.0126
2896	64.924
2892	64.906
2888	64.9834
2884	65.045
2880	65.0212
2876	64.9911
2872	65.0928
2868	65.2962
2864	65.3715
2860	65.2173
2856	65.033
2852	64.9871
2848	65.0257
2844	65.0792
2840	65.129
2836	65.1645
2832	65.191
2828	65.2247
2824	65.2788
2820	65.3225
2816	65.3215
2812	65.2848
2808	65.2575
2804	65.2662
2800	65.2484
2796	65.1777
2792	65.1628
2788	65.2166
2784	65.2915
2780	65.3755
2776	65.3952
2772	65.3432
2768	65.2501
2764	65.2068
2760	65.298
2756	65.4025
2752	65.3927
2748	65.3518
2744	65.346
2740	65.3209
2736	65.3236
2732	65.342
2728	65.3013
2724	65.244
2720	65.2395
2716	65.2896
2712	65.2717
2708	65.2156
2704	65.2647
2700	65.3663
2696	65.3887
2692	65.3166
2688	65.2476
2684	65.2378
2680	65.2771
2676	65.3529
2672	65.3919
2668	65.3319
2664	65.2311
2660	65.178
2656	65.1846
2652	65.1934
2648	65.1889
2644	65.1982
2640	65.2571
2636	65.3376
2632	65.3469
2628	65.2725
2624	65.2103
2620	65.2244
2616	65.2831
2612	65.3391
2608	65.3156
2604	65.2241
2600	65.1654
2596	65.1459
2592	65.1603
2588	65.2537
2584	65.4016
2580	65.4669
2576	65.4083
2572	65.3059
2568	65.2233
2564	65.2691
2560	65.3636
2556	65.3553
2552	65.3205
2548	65.3265
2544	65.3202
2540	65.2641
2536	65.2153
2532	65.1878
2528	65.1046
2524	65.0277
2520	65.0571
2516	65.2305
2512	65.4302
2508	65.4167
2504	65.2367
2500	65.0883
2496	65.0764
2492	65.2019
2488	65.3404
2484	65.354
2480	65.3099
2476	65.2962
2472	65.2704
2468	65.261
2464	65.3045
2460	65.3693
2456	65.3859
2452	65.3643
2448	65.3854
2444	65.3996
2440	65.3041
2436	65.12
2432	65.0152
2428	65.0686
2424	65.1799
2420	65.2661
2416	65.2788
2412	65.2234
2408	65.232
2404	65.3979
2400	65.4495
2396	65.3047
2392	65.2742
2388	65.3331
2384	65.3066
2380	65.2596
2376	65.2661
2372	65.2828
2368	65.29
2364	65.2691
2360	65.2478
2356	65.241
2352	65.2342
2348	65.2453
2344	65.2709
2340	65.3231
2336	65.3598
2332	65.3791
2328	65.3944
2324	65.371
2320	65.3225
2316	65.2759
2312	65.2426
2308	65.2339
2304	65.2597
2300	65.2916
2296	65.3233
2292	65.3329
2288	65.3354
2284	65.3655
2280	65.3661
2276	65.3198
2272	65.2833
2268	65.3125
2264	65.3665
2260	65.3601
2256	65.3356
2252	65.359
2248	65.3654
2244	65.3267
2240	65.2839
2236	65.2777
2232	65.295
2228	65.3237
2224	65.3631
2220	65.3348
2216	65.2954
2212	65.3214
2208	65.327
2204	65.2592
2200	65.2054
2196	65.2094
2192	65.2372
2188	65.2876
2184	65.3016
2180	65.3122
2176	65.3566
2172	65.3077
2168	65.2199
2164	65.1921
2160	65.1597
2156	65.1479
2152	65.1372
2148	65.1109
2144	65.1651
2140	65.2198
2136	65.256
2132	65.351
2128	65.3726
2124	65.298
2120	65.2647
2116	65.2502
2112	65.2691
2108	65.3452
2104	65.3807
2100	65.3803
2096	65.3371
2092	65.2723
2088	65.27
2084	65.3514
2080	65.4612
2076	65.4748
2072	65.427
2068	65.3899
2064	65.3685
2060	65.3363
2056	65.3194
2052	65.3711
2048	65.381
2044	65.3536
2040	65.3827
2036	65.4163
2032	65.4035
2028	65.33
2024	65.2265
2020	65.2229
2016	65.3501
2012	65.4425
2008	65.4098
2004	65.33
2000	65.2738
1996	65.2467
1992	65.251
1988	65.2488
1984	65.2124
1980	65.1951
1976	65.2275
1972	65.2992
1968	65.3575
1964	65.3724
1960	65.4145
1956	65.4479
1952	65.3929
1948	65.2901
1944	65.2014
1940	65.2235
1936	65.3109
1932	65.362
1928	65.3863
1924	65.3491
1920	65.3023
1916	65.3165
1912	65.3541
1908	65.3971
1904	65.385
1900	65.288
1896	65.2483
1892	65.2933
1888	65.2812
1884	65.2306
1880	65.2203
1876	65.2586
1872	65.2879
1868	65.2702
1864	65.2631
1860	65.2668
1856	65.2253
1852	65.1374
1848	65.1164
1844	65.2562
1840	65.4296
1836	65.4424
1832	65.3757
1828	65.3802
1824	65.4322
1820	65.4643
1816	65.4398
1812	65.39
1808	65.3235
1804	65.2611
1800	65.2376
1796	65.2766
1792	65.3255
1788	65.3471
1784	65.3857
1780	65.3284
1776	65.2265
1772	65.2139
1768	65.2558
1764	65.3491
1760	65.4427
1756	65.445
1752	65.3362
1748	65.198
1744	65.0894
1740	65.0188
1736	65.0067
1732	64.9724
1728	64.9274
1724	64.9764
1720	65.1176
1716	65.3078
1712	65.3584
1708	65.254
1704	65.2231
1700	65.2872
1696	65.322
1692	65.3181
1688	65.3623
1684	65.3603
1680	65.2713
1676	65.2481
1672	65.274
1668	65.2821
1664	65.2531
1660	65.2285
1656	65.2937
1652	65.3416
1648	65.2746
1644	65.2108
1640	65.1808
1636	65.1465
1632	65.1757
1628	65.1726
1624	65.0899
1620	65.0643
1616	65.0934
1612	65.0844
1608	65.0368
1604	65.0587
1600	65.1172
1596	65.1011
1592	65.0414
1588	65.0079
1584	65.0293
1580	65.0141
1576	64.9397
1572	64.9242
1568	64.9965
1564	64.998
1560	64.9161
1556	64.9429
1552	65.0383
1548	65.0449
1544	64.9797
1540	64.9636
1536	64.9949
1532	65.0349
1528	65.1206
1524	65.2112
1520	65.1913
1516	65.0597
1512	65.0115
1508	65.0784
1504	65.0757
1500	64.9782
1496	64.9047
1492	64.976
1488	65.0875
1484	65.1319
1480	65.1885
1476	65.1923
1472	65.0809
1468	64.9494
1464	64.9733
1460	65.1556
1456	65.2353
1452	65.1415
1448	64.9451
1444	64.8266
1440	64.9721
1436	65.1284
1432	65.1351
1428	65.1641
1424	65.2008
1420	65.1934
1416	65.2156
1412	65.2436
1408	65.2181
1404	65.1315
1400	65.0875
1396	65.1412
1392	65.166
1388	65.1712
1384	65.2003
1380	65.1907
1376	65.1614
1372	65.1274
1368	65.0996
1364	65.1394
1360	65.1834
1356	65.1481
1352	65.0673
1348	64.9983
1344	64.9891
1340	65.066
1336	65.1386
1332	65.1284
1328	65.1121
1324	65.1444
1320	65.1337
1316	65.0464
1312	65.0102
1308	65.0556
1304	65.1088
1300	65.1085
1296	65.0364
1292	64.9931
1288	65.055
1284	65.1395
1280	65.1688
1276	65.1461
1272	65.0559
1268	64.9845
1264	65.0038
1260	64.9916
1256	64.9458
1252	64.9656
1248	65.0065
1244	65.0123
1240	65.018
1236	65.0548
1232	65.0872
1228	65.0725
1224	65.0403
1220	65.0181
1216	64.9897
1212	65.0124
1208	65.0846
1204	65.1029
1200	64.9724
1196	64.8108
1192	64.8123
1188	64.9014
1184	64.9727
1180	64.9949
1176	64.9472
1172	64.8047
1168	64.7523
1164	64.894
1160	64.9148
1156	64.8647
1152	64.9332
1148	64.9604
1144	64.9229
1140	64.8791
1136	64.8348
1132	64.823
1128	64.8022
1124	64.7288
1120	64.6802
1116	64.6877
1112	64.6966
1108	64.6899
1104	64.7224
1100	64.7229
1096	64.6721
1092	64.7917
1088	64.93
1084	64.9682
1080	65.0566
1076	65.0384
1072	64.9352
1068	64.9147
1064	64.8255
1060	64.7036
1056	64.6933
1052	64.6756
1048	64.737
1044	64.936
1040	64.9939
1036	64.81
1032	64.6099
1028	64.603
1024	64.654
1020	64.6583
1016	64.6863
1012	64.6731
1008	64.6498
1004	64.6675
1000	64.6001
996	 64.5615
992	 64.6863
988	 64.7414
984	 64.6899
980	 64.7126
976	 64.7158
972	 64.7756
968	 64.8229
964	 64.7008
960	 64.8414
956	 65.1237
952	 65.1084
948	 64.8593
944	 64.6694
940	 64.4846
936	 64.2494
932	 64.3383
928	 64.3236
924	 64.179
920	 64.5099
916	 65.0841
912	 65.4992
908	 65.4402
904	 64.9774
900	 64.6401
896	 64.6606
892	 64.8124
888	 64.8466
884	 64.838
880	 64.8048
876	 64.6626
872	 64.487
868	 64.514
864	 64.6734
860	 64.6234
856	 64.5151
852	 64.5794
848	 64.6323
844	 64.5766
840	 64.5308
836	 64.5275
832	 64.5664
828	 64.5682
824	 64.4197
820	 64.2673
816	 64.3544
812	 64.5405
808	 64.5705
804	 64.4966
800	 64.3944
796	 64.2716
792	 64.1758
788	 64.2001
784	 64.3379
780	 64.4509
776	 64.4078
772	 64.287
768	 64.2871
764	 64.4519
760	 64.419
756	 63.9923
752	 63.6128
748	 63.6418
744	 64.115
740	 64.3233
736	 63.983
732	 63.888
728	 64.0331
724	 63.9934
720	 63.9748
716	 64.0934
712	 64.0184
708	 63.6631
704	 63.4274
700	 63.5379
696	 63.6633
692	 63.6462
688	 63.6317
684	 63.6237
680	 63.5536
676	 63.4077
672	 63.3524
668	 63.3426
664	 63.2447
660	 63.2061
656	 63.3497
652	 63.508
648	 63.4408
644	 63.1178
640	 62.8056
636	 62.7123
632	 62.7214
628	 62.8333
624	 62.8408
620	 62.6598
616	 62.6163
612	 62.591
608	 62.7398
604	 63.1142
600	 63.0342
596	 62.7633
592	 62.8918
588	 63.1285
584	 63.0212
580	 62.7514
576	 62.4914
572	 62.2514
568	 62.3758
564	 62.6056
560	 62.4706
556	 62.2864
552	 62.3148
548	 62.3136
544	 62.0613
540	 61.6611
536	 61.5561
532	 61.6413
528	 61.6226
524	 61.627
520	 61.8639
516	 62.1968
512	 61.8952
508	 61.0794
504	 60.6603
500	 60.6274
496	 60.7165
492	 60.8612
488	 61.1691
484	 61.712
480	 61.6602
476	 61.3183
472	 61.1124
468	 60.4511
464	 59.8707
460	 59.8706
456	 60.3812
452	 60.6717
448	 60.3222
444	 60.3561
440	 60.4823
436	 59.761
432	 59.2663
428	 59.1384
424	 57.8776
420	 56.2615
416	 57.1108
412	 58.9777
408	 59.1917
404	 57.8104
400	 53.6727
396	 54.8482
392	 59.4759
388	 55.0505
384	 40.8942
380	 27.7433
376	 36.3624
372	 38.4129
370	 25.9197