File: Bakgrunnsmateriale/MATLAB/FTIR/ftir_data/subBb/Mapping_121/C-4040-8_t81_cm-1.asc
PE IR       SPECTRUM    SPECTRUM    ASCII       PEDS        1.60
  -1
C-9DE4~1.ASC
17/03/27
21:08:01.00
17/03/27
21:08:01.00
tln
$C-4040-8_t0081$<tbV0>[5.2,5.2,8.0,0.0,27,1,0]
370
64

2002,4.07
MIRTGS : RIGHTBACK : INTERNAL 2
MIR : ON : INTERNAL 2
OPTKBR

0.200000
8
8.000000
FILLER
RATIO
SPECTRUM
UNLOCKED 256

DOUBLE
64
COMBINED
1
0
0

1.000000
RATIO

1
0
TRUE
51149
0
LEFT NOT FITTED RIGHT NOT FITTED 0
NONE
NONE
15600
12
4.427000
51148
TRUE
1 0 8 72 0 0 0 0

15798

#HDR
-1
-1
#GR
CM-1
%T
2.38419e-05
0.0
5000
-1.000000
4631
8
110.557
55.7271
#DATA
5000	65.3626
4996	65.227
4992	64.7891
4988	64.5164
4984	64.6784
4980	64.8859
4976	64.8687
4972	64.7466
4968	64.5818
4964	64.4502
4960	64.6083
4956	65.3031
4952	66.0656
4948	65.9552
4944	65.1878
4940	64.6658
4936	64.5394
4932	64.6195
4928	64.8072
4924	64.8721
4920	64.8378
4916	64.9208
4912	65.0373
4908	65.0475
4904	65.0467
4900	65.0242
4896	64.785
4892	64.5135
4888	64.5076
4884	64.8064
4880	65.0556
4876	65.0107
4872	64.8824
4868	64.9462
4864	65.2026
4860	65.3328
4856	65.1977
4852	64.8763
4848	64.6293
4844	64.6129
4840	64.7654
4836	64.9611
4832	65.0618
4828	65.1374
4824	65.2992
4820	65.4584
4816	65.4933
4812	65.5219
4808	65.5747
4804	65.3998
4800	65.0146
4796	64.8971
4792	65.0693
4788	65.0736
4784	65.0957
4780	65.2493
4776	65.2361
4772	65.2199
4768	65.1866
4764	64.9386
4760	64.7874
4756	64.8047
4752	64.8081
4748	64.9171
4744	64.9738
4740	64.9932
4736	65.1625
4732	65.1994
4728	65.3111
4724	65.537
4720	65.4789
4716	65.3676
4712	65.4018
4708	65.4578
4704	65.2772
4700	65.0137
4696	65.1622
4692	65.4058
4688	65.2812
4684	65.1064
4680	65.1263
4676	65.1679
4672	65.2144
4668	65.2617
4664	65.1176
4660	64.9482
4656	65.1116
4652	65.4926
4648	65.6625
4644	65.4773
4640	65.3208
4636	65.3308
4632	65.2868
4628	65.2292
4624	65.2797
4620	65.3475
4616	65.291
4612	65.1675
4608	65.0014
4604	64.8694
4600	64.8214
4596	64.7582
4592	64.8623
4588	65.1335
4584	65.2886
4580	65.2873
4576	65.2821
4572	65.2952
4568	65.1441
4564	64.8884
4560	64.8373
4556	64.9507
4552	64.9316
4548	64.6484
4544	64.2736
4540	64.3111
4536	64.6738
4532	64.9861
4528	65.5638
4524	65.8183
4520	65.073
4516	64.3743
4512	64.2778
4508	64.2846
4504	64.3773
4500	64.5932
4496	64.7964
4492	65.0036
4488	65.0262
4484	64.7593
4480	64.4308
4476	64.3215
4472	64.374
4468	64.5067
4464	64.768
4460	65.0406
4456	65.194
4452	65.2284
4448	65.2362
4444	65.1834
4440	64.9239
4436	64.4406
4432	64.0035
4428	64.0416
4424	64.4377
4420	64.8811
4416	65.1623
4412	64.6252
4408	63.6888
4404	63.1839
4400	63.0522
4396	61.9958
4392	60.2962
4388	55.7271
4384	70.5211
4380	96.7466
4376	90.2703
4372	73.4804
4368	66.1745
4364	63.7361
4360	63.3341
4356	63.6542
4352	64.1906
4348	64.6485
4344	65.2141
4340	65.507
4336	65.3077
4332	64.9419
4328	64.89
4324	65.0513
4320	65.113
4316	65.2009
4312	65.2908
4308	65.2241
4304	64.9224
4300	64.7557
4296	65.0682
4292	65.2856
4288	64.997
4284	64.6064
4280	64.5437
4276	64.814
4272	65.0598
4268	65.0717
4264	64.9667
4260	64.5691
4256	64.1284
4252	64.2739
4248	64.7408
4244	64.9979
4240	64.9168
4236	64.7427
4232	64.7578
4228	64.9152
4224	64.9775
4220	64.8949
4216	64.8403
4212	64.8835
4208	64.9729
4204	65.1601
4200	65.2541
4196	65.1901
4192	65.5303
4188	66.1747
4184	66.4332
4180	65.9752
4176	65.2882
4172	64.9805
4168	64.7167
4164	64.5513
4160	64.8358
4156	65.2075
4152	65.372
4148	65.3495
4144	65.2036
4140	65.0937
4136	65.1887
4132	65.3616
4128	65.3982
4124	65.2717
4120	65.1333
4116	65.1141
4112	65.1267
4108	65.1481
4104	65.1811
4100	65.1356
4096	65.1019
4092	65.1124
4088	65.0508
4084	65.0143
4080	65.0791
4076	65.1234
4072	65.0812
4068	64.964
4064	64.9004
4060	65.0177
4056	65.1593
4052	65.1551
4048	65.133
4044	65.2584
4040	65.397
4036	65.391
4032	65.4149
4028	65.4982
4024	65.4214
4020	65.3317
4016	65.4277
4012	65.469
4008	65.2823
4004	65.1061
4000	65.1827
3996	65.434
3992	65.5548
3988	65.4207
3984	65.2827
3980	65.2297
3976	65.0513
3972	64.853
3968	64.8893
3964	65.0815
3960	65.2515
3956	65.2633
3952	65.133
3948	65.0893
3944	65.1975
3940	65.3723
3936	65.5377
3932	65.5482
3928	65.4375
3924	65.2993
3920	65.2527
3916	65.2617
3912	65.1846
3908	65.3108
3904	65.5798
3900	65.5905
3896	65.4296
3892	65.3535
3888	65.3227
3884	65.1669
3880	65.0353
3876	65.17
3872	65.4289
3868	65.4954
3864	65.3248
3860	65.0976
3856	64.95
3852	64.9332
3848	65.0388
3844	65.1544
3840	65.169
3836	65.1907
3832	65.3487
3828	65.2813
3824	64.9649
3820	65.0217
3816	65.2368
3812	65.2543
3808	65.2907
3804	65.2261
3800	65.0714
3796	64.9599
3792	64.8893
3788	65.0056
3784	65.2491
3780	65.3074
3776	65.2269
3772	65.2378
3768	65.2013
3764	65.0753
3760	65.0244
3756	65.0859
3752	65.1652
3748	65.205
3744	65.2291
3740	65.1848
3736	65.1078
3732	65.1699
3728	65.319
3724	65.3401
3720	65.1937
3716	65.1244
3712	65.2275
3708	65.2135
3704	65.0909
3700	65.0558
3696	65.0278
3692	64.9733
3688	64.9829
3684	65.0948
3680	65.2832
3676	65.3988
3672	65.2958
3668	65.1044
3664	64.9959
3660	65.0303
3656	65.1898
3652	65.3292
3648	65.3821
3644	65.444
3640	65.5201
3636	65.4397
3632	65.2654
3628	65.2264
3624	65.2464
3620	65.2269
3616	65.2645
3612	65.3135
3608	65.2501
3604	65.223
3600	65.3007
3596	65.3317
3592	65.2839
3588	65.2092
3584	65.1972
3580	65.2232
3576	65.1493
3572	64.9522
3568	64.9077
3564	65.1232
3560	65.2846
3556	65.2812
3552	65.311
3548	65.3671
3544	65.307
3540	65.2473
3536	65.2594
3532	65.2785
3528	65.2842
3524	65.175
3520	65.0881
3516	65.1339
3512	65.126
3508	65.1476
3504	65.2863
3500	65.4198
3496	65.4307
3492	65.3023
3488	65.1798
3484	65.2107
3480	65.3757
3476	65.5138
3472	65.4378
3468	65.2117
3464	65.0702
3460	65.0102
3456	65.0592
3452	65.2343
3448	65.2562
3444	65.1711
3440	65.3131
3436	65.5118
3432	65.4424
3428	65.1384
3424	64.9424
3420	65.0866
3416	65.2623
3412	65.2168
3408	65.1258
3404	65.098
3400	65.0416
3396	65.0268
3392	65.228
3388	65.4445
3384	65.39
3380	65.2792
3376	65.332
3372	65.3403
3368	65.2219
3364	65.1489
3360	65.102
3356	65.0418
3352	65.1006
3348	65.1719
3344	65.1433
3340	65.1468
3336	65.1925
3332	65.1949
3328	65.1736
3324	65.2712
3320	65.4226
3316	65.374
3312	65.2521
3308	65.2725
3304	65.3209
3300	65.2948
3296	65.2263
3292	65.1428
3288	65.0777
3284	65.0806
3280	65.1408
3276	65.2112
3272	65.1889
3268	65.1325
3264	65.2205
3260	65.3279
3256	65.3483
3252	65.342
3248	65.3076
3244	65.2421
3240	65.1613
3236	65.1646
3232	65.2384
3228	65.219
3224	65.148
3220	65.1772
3216	65.268
3212	65.3074
3208	65.3244
3204	65.3758
3200	65.4457
3196	65.468
3192	65.4277
3188	65.3909
3184	65.3459
3180	65.2407
3176	65.1289
3172	65.1211
3168	65.1803
3164	65.1662
3160	65.1366
3156	65.1502
3152	65.1611
3148	65.2657
3144	65.442
3140	65.4022
3136	65.2873
3132	65.2661
3128	65.1218
3124	65.0874
3120	65.1189
3116	64.9437
3112	64.841
3108	64.9539
3104	65.1286
3100	65.2336
3096	65.2659
3092	65.2578
3088	65.2722
3084	65.2717
3080	65.2088
3076	65.2709
3072	65.4188
3068	65.4516
3064	65.3888
3060	65.3299
3056	65.3627
3052	65.3821
3048	65.2767
3044	65.1614
3040	65.101
3036	65.1322
3032	65.2668
3028	65.3624
3024	65.3328
3020	65.1819
3016	65.03
3012	65.069
3008	65.194
3004	65.2202
3000	65.1919
2996	65.2229
2992	65.2452
2988	65.1532
2984	65.1095
2980	65.18
2976	65.1817
2972	65.0997
2968	65.1
2964	65.1255
2960	65.0167
2956	64.9261
2952	64.9757
2948	65.0134
2944	64.9842
2940	64.9659
2936	64.9971
2932	65.0283
2928	65.0245
2924	64.9804
2920	64.8996
2916	64.9326
2912	65.0651
2908	65.1659
2904	65.2307
2900	65.26
2896	65.2323
2892	65.189
2888	65.1991
2884	65.2012
2880	65.1731
2876	65.2356
2872	65.335
2868	65.3727
2864	65.4036
2860	65.3133
2856	65.1687
2852	65.2812
2848	65.341
2844	65.1005
2840	64.9804
2836	65.0925
2832	65.1823
2828	65.2393
2824	65.3636
2820	65.4347
2816	65.3258
2812	65.1993
2808	65.2116
2804	65.2852
2800	65.3162
2796	65.2736
2792	65.2299
2788	65.2426
2784	65.2506
2780	65.289
2776	65.3988
2772	65.4544
2768	65.3893
2764	65.3452
2760	65.3942
2756	65.393
2752	65.3465
2748	65.3905
2744	65.4231
2740	65.3431
2736	65.3431
2732	65.4295
2728	65.4048
2724	65.3576
2720	65.3959
2716	65.419
2712	65.374
2708	65.3418
2704	65.3791
2700	65.4381
2696	65.4321
2692	65.3754
2688	65.3176
2684	65.2881
2680	65.3389
2676	65.4103
2672	65.3842
2668	65.3348
2664	65.3522
2660	65.361
2656	65.301
2652	65.2099
2648	65.2411
2644	65.3631
2640	65.4141
2636	65.4089
2632	65.3636
2628	65.2957
2624	65.2737
2620	65.2955
2616	65.3116
2612	65.2926
2608	65.265
2604	65.3131
2600	65.3531
2596	65.2949
2592	65.2666
2588	65.2259
2584	65.184
2580	65.2856
2576	65.3512
2572	65.2637
2568	65.2003
2564	65.2595
2560	65.3258
2556	65.3388
2552	65.3314
2548	65.3092
2544	65.3357
2540	65.3892
2536	65.3852
2532	65.3516
2528	65.3702
2524	65.4112
2520	65.4207
2516	65.4186
2512	65.3673
2508	65.307
2504	65.268
2500	65.1813
2496	65.1254
2492	65.1624
2488	65.1882
2484	65.188
2480	65.2685
2476	65.381
2472	65.4073
2468	65.3226
2464	65.2821
2460	65.3747
2456	65.447
2452	65.4673
2448	65.446
2444	65.4031
2440	65.3737
2436	65.2388
2432	64.9484
2428	64.7409
2424	64.8826
2420	65.2641
2416	65.529
2412	65.5105
2408	65.3049
2404	65.1242
2400	65.1056
2396	65.2044
2392	65.2993
2388	65.3075
2384	65.2399
2380	65.2315
2376	65.3051
2372	65.2906
2368	65.2404
2364	65.2663
2360	65.3126
2356	65.3668
2352	65.393
2348	65.3383
2344	65.269
2340	65.2615
2336	65.2834
2332	65.2992
2328	65.2986
2324	65.2939
2320	65.3152
2316	65.3448
2312	65.316
2308	65.2503
2304	65.2539
2300	65.3231
2296	65.3445
2292	65.2756
2288	65.2216
2284	65.2523
2280	65.3027
2276	65.2944
2272	65.2545
2268	65.2666
2264	65.3214
2260	65.3116
2256	65.2711
2252	65.2948
2248	65.2983
2244	65.2637
2240	65.2675
2236	65.3226
2232	65.3984
2228	65.4185
2224	65.38
2220	65.3513
2216	65.36
2212	65.3966
2208	65.4004
2204	65.3179
2200	65.261
2196	65.3031
2192	65.3395
2188	65.2884
2184	65.2365
2180	65.2597
2176	65.2955
2172	65.3589
2168	65.3749
2164	65.2818
2160	65.3517
2156	65.4754
2152	65.3081
2148	65.0968
2144	65.0258
2140	65.0063
2136	65.0985
2132	65.2857
2128	65.3487
2124	65.255
2120	65.2264
2116	65.3076
2112	65.4472
2108	65.5291
2104	65.4995
2100	65.5017
2096	65.5097
2092	65.4367
2088	65.3813
2084	65.4815
2080	65.5648
2076	65.5403
2072	65.6512
2068	65.6625
2064	65.4636
2060	65.3708
2056	65.3608
2052	65.3834
2048	65.4359
2044	65.475
2040	65.4653
2036	65.3904
2032	65.3937
2028	65.4986
2024	65.5194
2020	65.4468
2016	65.3961
2012	65.3446
2008	65.2835
2004	65.2639
2000	65.2666
1996	65.2725
1992	65.289
1988	65.3235
1984	65.3604
1980	65.3372
1976	65.2874
1972	65.3285
1968	65.4011
1964	65.3633
1960	65.3255
1956	65.3792
1952	65.4128
1948	65.401
1944	65.3864
1940	65.3905
1936	65.388
1932	65.3377
1928	65.3145
1924	65.3547
1920	65.4028
1916	65.4472
1912	65.4324
1908	65.3844
1904	65.347
1900	65.285
1896	65.2866
1892	65.3461
1888	65.3519
1884	65.3263
1880	65.3035
1876	65.2912
1872	65.2858
1868	65.2829
1864	65.3038
1860	65.3321
1856	65.332
1852	65.2791
1848	65.1953
1844	65.1887
1840	65.2941
1836	65.3874
1832	65.4075
1828	65.4071
1824	65.4008
1820	65.3857
1816	65.396
1812	65.4252
1808	65.4319
1804	65.3999
1800	65.3381
1796	65.2908
1792	65.2782
1788	65.3064
1784	65.3834
1780	65.4322
1776	65.4423
1772	65.4376
1768	65.3733
1764	65.3137
1760	65.3114
1756	65.3281
1752	65.363
1748	65.3566
1744	65.268
1740	65.1687
1736	65.1121
1732	65.0939
1728	65.174
1724	65.3202
1720	65.4382
1716	65.4978
1712	65.3523
1708	65.1665
1704	65.2163
1700	65.3846
1696	65.5121
1692	65.548
1688	65.5044
1684	65.3965
1680	65.3036
1676	65.304
1672	65.3301
1668	65.3121
1664	65.2826
1660	65.3144
1656	65.3533
1652	65.3189
1648	65.2464
1644	65.2051
1640	65.1716
1636	65.164
1632	65.2208
1628	65.2145
1624	65.1796
1620	65.1983
1616	65.2387
1612	65.3152
1608	65.3636
1604	65.3489
1600	65.3056
1596	65.2186
1592	65.1704
1588	65.2004
1584	65.2503
1580	65.3022
1576	65.2593
1572	65.1218
1568	65.0859
1564	65.1664
1560	65.1772
1556	65.0704
1552	64.9879
1548	64.9991
1544	65.0475
1540	65.0424
1536	64.9821
1532	64.9471
1528	65.0012
1524	65.1239
1520	65.1877
1516	65.1624
1512	65.1305
1508	65.1248
1504	65.1715
1500	65.219
1496	65.2236
1492	65.2929
1488	65.3174
1484	65.2296
1480	65.1918
1476	65.2111
1472	65.2115
1468	65.1186
1464	64.9827
1460	65.0316
1456	65.1401
1452	65.0607
1448	65.035
1444	65.1127
1440	65.1492
1436	65.2348
1432	65.3133
1428	65.2526
1424	65.1445
1420	65.1473
1416	65.2282
1412	65.231
1408	65.1615
1404	65.1727
1400	65.1999
1396	65.1338
1392	65.0462
1388	65.0247
1384	65.0926
1380	65.0945
1376	65.0026
1372	64.98
1368	65.0462
1364	65.1296
1360	65.1675
1356	65.0886
1352	64.9355
1348	64.8591
1344	64.9269
1340	65.1446
1336	65.2829
1332	65.1881
1328	65.1399
1324	65.1986
1320	65.2163
1316	65.2387
1312	65.2472
1308	65.1782
1304	65.098
1300	65.0563
1296	65.0341
1292	65.0152
1288	65.0264
1284	65.1185
1280	65.217
1276	65.1988
1272	65.0935
1268	65.0052
1264	65.0102
1260	65.0266
1256	64.9692
1252	64.9518
1248	64.9501
1244	64.8773
1240	64.8611
1236	64.9551
1232	65.0093
1228	64.9825
1224	64.955
1220	64.9554
1216	65.0131
1212	65.0981
1208	65.102
1204	65.0239
1200	64.9692
1196	64.976
1192	64.989
1188	64.9934
1184	65.0223
1180	65.0121
1176	64.9317
1172	64.8519
1168	64.8025
1164	64.8233
1160	64.8957
1156	64.9439
1152	64.8939
1148	64.7722
1144	64.763
1140	64.8502
1136	64.9269
1132	65.0056
1128	64.9979
1124	64.9195
1120	64.8352
1116	64.719
1112	64.8295
1108	65.1907
1104	65.3005
1100	65.1052
1096	64.8888
1092	64.791
1088	64.8179
1084	64.9182
1080	65.0383
1076	64.9285
1072	64.7046
1068	64.6801
1064	64.6349
1060	64.5776
1056	64.7148
1052	64.7441
1048	64.6136
1044	64.6519
1040	64.7559
1036	64.7574
1032	64.7857
1028	64.8741
1024	64.8488
1020	64.7954
1016	64.8505
1012	64.8127
1008	64.7182
1004	64.6215
1000	64.4486
996	 64.4508
992	 64.7064
988	 64.8236
984	 64.7445
980	 64.7111
976	 64.6245
972	 64.5607
968	 64.5162
964	 64.3924
960	 64.5977
956	 64.906
952	 64.7786
948	 64.6972
944	 64.9271
940	 65.0153
936	 64.9937
932	 65.1896
928	 65.5433
924	 65.6722
920	 65.359
916	 65.0027
912	 64.9948
908	 65.0632
904	 65.0043
900	 65.0492
896	 65.058
892	 64.8664
888	 64.6194
884	 64.5272
880	 64.5639
876	 64.3475
872	 64.0772
868	 64.1432
864	 64.3325
860	 64.3846
856	 64.3608
852	 64.404
848	 64.5272
844	 64.6553
840	 64.7018
836	 64.6327
832	 64.5143
828	 64.491
824	 64.5744
820	 64.6516
816	 64.6518
812	 64.4836
808	 64.3248
804	 64.4165
800	 64.4625
796	 64.1987
792	 64.0194
788	 64.1877
784	 64.4155
780	 64.3924
776	 64.0893
772	 63.9209
768	 64.0364
764	 64.2394
760	 64.337
756	 64.1259
752	 63.8698
748	 63.9564
744	 64.2429
740	 64.3083
736	 64.2226
732	 64.2853
728	 64.4536
724	 64.4183
720	 64.1674
716	 64.0006
712	 63.771
708	 63.4234
704	 63.3288
700	 63.4423
696	 63.457
692	 63.3563
688	 63.1602
684	 63.1243
680	 63.3626
676	 63.4433
672	 63.2215
668	 63.0841
664	 63.0995
660	 63.0329
656	 62.9458
652	 62.9541
648	 63.2206
644	 63.4895
640	 63.2417
636	 62.7235
632	 62.6261
628	 62.8825
624	 62.8897
620	 62.7399
616	 62.738
612	 62.9081
608	 63.2595
604	 63.5837
600	 63.497
596	 63.0783
592	 62.8412
588	 62.9401
584	 62.893
580	 62.629
576	 62.7303
572	 63.0127
568	 62.9604
564	 62.7212
560	 62.4064
556	 62.3197
552	 62.67
548	 63.0271
544	 63.4016
540	 63.4556
536	 62.8205
532	 62.3181
528	 62.4508
524	 62.7162
520	 62.3267
516	 61.4071
512	 61.1449
508	 61.6338
504	 61.7631
500	 61.2475
496	 60.5629
492	 60.2545
488	 60.3959
484	 60.6794
480	 60.9849
476	 61.1418
472	 60.6832
468	 59.9344
464	 59.8068
460	 60.0519
456	 59.9588
452	 59.6576
448	 59.1341
444	 58.5991
440	 59.3678
436	 60.313
432	 59.1635
428	 56.8952
424	 56.5596
420	 59.378
416	 61.6619
412	 61.967
408	 62.8774
404	 64.3839
400	 68.5727
396	 73.5961
392	 76.0647
388	 80.4511
384	 75.9362
380	 59.5204
376	 60.96
372	 85.1932
370	 110.557