File: Bakgrunnsmateriale/MATLAB/FTIR/ftir_data/subBb/Mapping_121/C-4040-8_t86_cm-1.asc
PE IR       SPECTRUM    SPECTRUM    ASCII       PEDS        1.60
  -1
C-9D6E~1.ASC
17/03/27
21:31:06.00
17/03/27
21:31:06.00
tln
$C-4040-8_t0086$<tbV0>[-7.8,5.2,8.0,0.0,27,1,0]
370
64

2002,4.07
MIRTGS : RIGHTBACK : INTERNAL 2
MIR : ON : INTERNAL 2
OPTKBR

0.200000
8
8.000000
FILLER
RATIO
SPECTRUM
UNLOCKED 256

DOUBLE
64
COMBINED
1
0
0

1.000000
RATIO

1
0
TRUE
51149
0
LEFT NOT FITTED RIGHT NOT FITTED 0
NONE
NONE
15600
12
4.427000
51148
TRUE
1 0 8 72 0 0 0 0

15798

#HDR
-1
-1
#GR
CM-1
%T
2.38419e-05
0.0
5000
-1.000000
4631
8
116.934
-4.198217
#DATA
5000	64.5016
4996	64.4767
4992	64.6116
4988	64.8489
4984	65.0464
4980	64.8438
4976	64.3713
4972	64.1578
4968	64.4185
4964	64.7674
4960	64.8514
4956	64.7993
4952	64.8567
4948	64.8888
4944	64.5629
4940	64.2252
4936	64.2833
4932	64.5537
4928	64.8318
4924	64.9507
4920	64.9266
4916	64.9646
4912	65.0764
4908	64.9345
4904	64.468
4900	64.0162
4896	63.8412
4892	63.9668
4888	64.4591
4884	65.4928
4880	66.0347
4876	65.5802
4872	65.0281
4868	64.5268
4864	64.3861
4860	64.7762
4856	65.0012
4852	64.8602
4848	64.8217
4844	64.9689
4840	65.0852
4836	65.1551
4832	65.1502
4828	65.135
4824	65.252
4820	65.5606
4816	65.6388
4812	65.2782
4808	65.0675
4804	65.1316
4800	65.0762
4796	64.9199
4792	64.8811
4788	65.0039
4784	65.2116
4780	65.3637
4776	65.3608
4772	65.2574
4768	65.305
4764	65.4195
4760	65.3857
4756	65.4273
4752	65.5896
4748	65.6437
4744	65.573
4740	65.4509
4736	65.2367
4732	65.068
4728	65.2174
4724	65.4372
4720	65.4035
4716	65.2715
4712	65.2953
4708	65.4755
4704	65.5391
4700	65.4723
4696	65.5279
4692	65.7199
4688	65.8312
4684	65.7646
4680	65.6265
4676	65.5207
4672	65.4347
4668	65.2512
4664	65.1025
4660	65.242
4656	65.4756
4652	65.5365
4648	65.4766
4644	65.4043
4640	65.3391
4636	65.3059
4632	65.3212
4628	65.3007
4624	65.3337
4620	65.2979
4616	65.0105
4612	64.8693
4608	64.8211
4604	64.6224
4600	64.5934
4596	64.8027
4592	65.014
4588	65.0887
4584	65.0396
4580	64.9755
4576	64.9455
4572	64.8257
4568	64.7395
4564	64.806
4560	64.7972
4556	64.6491
4552	64.4531
4548	64.2414
4544	64.0866
4540	64.345
4536	64.9281
4532	65.2258
4528	65.1788
4524	64.8789
4520	64.6183
4516	64.6437
4512	64.6327
4508	64.517
4504	64.4068
4500	64.2881
4496	64.1485
4492	64.0244
4488	64.0706
4484	64.2138
4480	64.183
4476	64.1346
4472	64.2847
4468	64.4009
4464	64.4181
4460	64.394
4456	64.2462
4452	64.0337
4448	63.7428
4444	63.6276
4440	64.0589
4436	64.4102
4432	64.3281
4428	64.3512
4424	64.1623
4420	63.5934
4416	63.2083
4412	62.9976
4408	62.4386
4404	61.7519
4400	61.2515
4396	61.0075
4392	63.5258
4388	80.5067
4384	112.62
4380	106.293
4376	77.288
4372	70.951
4368	67.3391
4364	65.5344
4360	64.1936
4356	63.8513
4352	63.995
4348	64.1886
4344	64.3637
4340	64.4018
4336	64.386
4332	64.3381
4328	64.4256
4324	64.7318
4320	64.7221
4316	64.4963
4312	64.488
4308	64.5575
4304	64.6579
4300	64.7274
4296	64.6734
4292	64.5208
4288	64.3378
4284	64.1805
4280	64.1322
4276	64.4002
4272	64.8282
4268	64.8211
4264	64.5606
4260	64.4549
4256	64.2973
4252	64.2127
4248	64.3034
4244	64.3672
4240	64.2979
4236	64.253
4232	64.4756
4228	64.699
4224	64.8075
4220	64.9395
4216	64.8912
4212	64.7122
4208	64.7659
4204	64.8515
4200	64.6278
4196	64.5385
4192	64.768
4188	65.1525
4184	65.5267
4180	65.3613
4176	65.3685
4172	65.6839
4168	65.3002
4164	64.975
4160	65.031
4156	65.0213
4152	65.106
4148	65.0959
4144	64.8294
4140	64.5896
4136	64.6533
4132	64.9088
4128	65.1104
4124	65.2716
4120	65.4469
4116	65.4818
4112	65.2821
4108	65.0807
4104	65.1053
4100	65.1587
4096	65.2181
4092	65.2887
4088	65.2172
4084	65.1777
4080	65.2379
4076	65.3579
4072	65.4499
4068	65.4446
4064	65.3927
4060	65.2643
4056	65.1319
4052	65.0512
4048	65.0124
4044	65.129
4040	65.3137
4036	65.3996
4032	65.4957
4028	65.6326
4024	65.5786
4020	65.4292
4016	65.5537
4012	65.6476
4008	65.4083
4004	65.252
4000	65.3048
3996	65.3228
3992	65.3031
3988	65.2387
3984	65.1382
3980	65.2048
3976	65.3305
3972	65.3197
3968	65.3013
3964	65.3071
3960	65.389
3956	65.5045
3952	65.421
3948	65.2852
3944	65.3151
3940	65.346
3936	65.2576
3932	65.2558
3928	65.3342
3924	65.2768
3920	65.2078
3916	65.2417
3912	65.2724
3908	65.2243
3904	65.1077
3900	65.0259
3896	64.9695
3892	65.026
3888	65.2728
3884	65.3832
3880	65.2277
3876	65.109
3872	65.1178
3868	65.1065
3864	65.0834
3860	65.0553
3856	64.997
3852	65.0151
3848	65.1506
3844	65.2503
3840	65.1683
3836	65.1058
3832	65.269
3828	65.4139
3824	65.3502
3820	65.2883
3816	65.2623
3812	65.1189
3808	65.0913
3804	65.1912
3800	65.1586
3796	65.0966
3792	65.0745
3788	65.0647
3784	65.1392
3780	65.1664
3776	65.0752
3772	65.0335
3768	65.0444
3764	65.0802
3760	65.122
3756	65.1447
3752	65.1607
3748	65.1652
3744	65.1777
3740	65.2014
3736	65.2013
3732	65.1571
3728	65.2213
3724	65.3947
3720	65.4572
3716	65.4527
3712	65.4635
3708	65.3986
3704	65.3253
3700	65.2629
3696	65.1492
3692	65.185
3688	65.3142
3684	65.3064
3680	65.1989
3676	65.1233
3672	65.1983
3668	65.3204
3664	65.4269
3660	65.4712
3656	65.3198
3652	65.1613
3648	65.1693
3644	65.2143
3640	65.2132
3636	65.1801
3632	65.1845
3628	65.3281
3624	65.5052
3620	65.5675
3616	65.5272
3612	65.3457
3608	65.1641
3604	65.1885
3600	65.3281
3596	65.4166
3592	65.3805
3588	65.3571
3584	65.4454
3580	65.4999
3576	65.4438
3572	65.4572
3568	65.6313
3564	65.6889
3560	65.5069
3556	65.2959
3552	65.189
3548	65.1952
3544	65.3147
3540	65.4377
3536	65.396
3532	65.2654
3528	65.2634
3524	65.3229
3520	65.3633
3516	65.4331
3512	65.34
3508	65.1357
3504	65.1231
3500	65.1654
3496	65.1453
3492	65.1141
3488	65.0044
3484	65.0063
3480	65.2563
3476	65.5027
3472	65.5195
3468	65.424
3464	65.4261
3460	65.4291
3456	65.4134
3452	65.4732
3448	65.45
3444	65.3628
3440	65.435
3436	65.4688
3432	65.3384
3428	65.306
3424	65.2683
3420	65.2097
3416	65.395
3412	65.5047
3408	65.2655
3404	65
3400	64.9009
3396	64.9668
3392	65.1667
3388	65.3453
3384	65.4112
3380	65.3522
3376	65.2016
3372	65.0894
3368	65.1029
3364	65.2154
3360	65.329
3356	65.3266
3352	65.2503
3348	65.2011
3344	65.2273
3340	65.3535
3336	65.4493
3332	65.3773
3328	65.2521
3324	65.2288
3320	65.2095
3316	65.0549
3312	64.9572
3308	65.14
3304	65.4089
3300	65.476
3296	65.3524
3292	65.2358
3288	65.1975
3284	65.1851
3280	65.2224
3276	65.2408
3272	65.2189
3268	65.3061
3264	65.4341
3260	65.4534
3256	65.4211
3252	65.3256
3248	65.2083
3244	65.2338
3240	65.2593
3236	65.2054
3232	65.189
3228	65.1669
3224	65.1834
3220	65.3125
3216	65.3897
3212	65.371
3208	65.3679
3204	65.3459
3200	65.3013
3196	65.2639
3192	65.2421
3188	65.2835
3184	65.3671
3180	65.4134
3176	65.3999
3172	65.3828
3168	65.4421
3164	65.5974
3160	65.6522
3156	65.4822
3152	65.3417
3148	65.416
3144	65.5285
3140	65.5671
3136	65.6769
3132	65.7366
3128	65.4923
3124	65.2163
3120	65.2669
3116	65.5032
3112	65.6744
3108	65.6501
3104	65.4568
3100	65.2821
3096	65.2574
3092	65.3762
3088	65.4305
3084	65.3258
3080	65.227
3076	65.2072
3072	65.244
3068	65.3661
3064	65.4415
3060	65.3902
3056	65.4154
3052	65.4862
3048	65.3842
3044	65.1906
3040	65.149
3036	65.3146
3032	65.4493
3028	65.3802
3024	65.2343
3020	65.1865
3016	65.2124
3012	65.1756
3008	65.1631
3004	65.2106
3000	65.2092
2996	65.2125
2992	65.2226
2988	65.206
2984	65.2079
2980	65.2172
2976	65.1745
2972	65.0984
2968	65.0753
2964	65.1166
2960	65.1654
2956	65.1816
2952	65.1642
2948	65.187
2944	65.2812
2940	65.3178
2936	65.2088
2932	65.0479
2928	65.0122
2924	65.0145
2920	64.9448
2916	64.9928
2912	65.1187
2908	65.1686
2904	65.2114
2900	65.2709
2896	65.2855
2892	65.2465
2888	65.1806
2884	65.0993
2880	65.0626
2876	65.1166
2872	65.2014
2868	65.297
2864	65.342
2860	65.3108
2856	65.328
2852	65.3454
2848	65.2357
2844	65.129
2840	65.1488
2836	65.2205
2832	65.2918
2828	65.3513
2824	65.3695
2820	65.3663
2816	65.3401
2812	65.2792
2808	65.2954
2804	65.406
2800	65.413
2796	65.2994
2792	65.2487
2788	65.2938
2784	65.3629
2780	65.3831
2776	65.3973
2772	65.4796
2768	65.527
2764	65.5013
2760	65.4648
2756	65.4512
2752	65.5004
2748	65.5669
2744	65.5456
2740	65.4455
2736	65.3796
2732	65.3726
2728	65.3966
2724	65.4273
2720	65.4406
2716	65.4618
2712	65.4382
2708	65.3808
2704	65.362
2700	65.3574
2696	65.3717
2692	65.4163
2688	65.4621
2684	65.4942
2680	65.5046
2676	65.4555
2672	65.4527
2668	65.516
2664	65.4597
2660	65.3816
2656	65.4158
2652	65.4343
2648	65.3911
2644	65.3271
2640	65.2787
2636	65.3262
2632	65.4037
2628	65.408
2624	65.4174
2620	65.4253
2616	65.4006
2612	65.4091
2608	65.411
2604	65.3835
2600	65.3494
2596	65.3512
2592	65.414
2588	65.4615
2584	65.4785
2580	65.4952
2576	65.478
2572	65.3862
2568	65.3178
2564	65.3717
2560	65.4177
2556	65.3841
2552	65.3463
2548	65.3504
2544	65.3699
2540	65.3837
2536	65.4015
2532	65.4232
2528	65.4333
2524	65.4294
2520	65.4263
2516	65.4109
2512	65.3452
2508	65.2003
2504	65.1717
2500	65.3346
2496	65.3678
2492	65.2473
2488	65.2138
2484	65.2491
2480	65.3023
2476	65.364
2472	65.3527
2468	65.2717
2464	65.2745
2460	65.3329
2456	65.3273
2452	65.313
2448	65.3232
2444	65.3466
2440	65.3581
2436	65.4472
2432	65.5384
2428	65.4172
2424	65.2438
2420	65.2162
2416	65.3107
2412	65.3713
2408	65.3996
2404	65.4507
2400	65.4932
2396	65.5306
2392	65.4373
2388	65.3052
2384	65.3471
2380	65.4458
2376	65.4348
2372	65.3592
2368	65.3246
2364	65.3243
2360	65.3339
2356	65.3756
2352	65.4314
2348	65.4295
2344	65.3662
2340	65.3888
2336	65.4602
2332	65.4598
2328	65.4317
2324	65.3737
2320	65.3584
2316	65.4433
2312	65.4989
2308	65.4736
2304	65.4358
2300	65.4005
2296	65.3428
2292	65.2825
2288	65.2892
2284	65.3374
2280	65.3287
2276	65.3168
2272	65.3855
2268	65.4594
2264	65.4574
2260	65.4172
2256	65.407
2252	65.4191
2248	65.4157
2244	65.4167
2240	65.4499
2236	65.4866
2232	65.4977
2228	65.5127
2224	65.5103
2220	65.4494
2216	65.4104
2212	65.4115
2208	65.4114
2204	65.4464
2200	65.5175
2196	65.5118
2192	65.4076
2188	65.3229
2184	65.2977
2180	65.3264
2176	65.3835
2172	65.4138
2168	65.4563
2164	65.5531
2160	65.52
2156	65.3097
2152	65.1294
2148	65.0412
2144	65.1231
2140	65.3426
2136	65.4302
2132	65.3578
2128	65.2493
2124	65.2377
2120	65.3622
2116	65.4271
2112	65.4483
2108	65.5037
2104	65.4985
2100	65.4496
2096	65.3861
2092	65.3216
2088	65.3297
2084	65.3929
2080	65.4159
2076	65.4826
2072	65.6078
2068	65.5703
2064	65.3549
2060	65.1807
2056	65.1497
2052	65.2189
2048	65.3073
2044	65.3497
2040	65.3784
2036	65.4193
2032	65.5015
2028	65.5815
2024	65.5187
2020	65.395
2016	65.3603
2012	65.3502
2008	65.3419
2004	65.3605
2000	65.2925
1996	65.2071
1992	65.2636
1988	65.3533
1984	65.3737
1980	65.3908
1976	65.4233
1972	65.4258
1968	65.3838
1964	65.3144
1960	65.3298
1956	65.422
1952	65.4395
1948	65.4011
1944	65.3562
1940	65.3463
1936	65.4057
1932	65.4377
1928	65.4037
1924	65.3907
1920	65.3981
1916	65.3868
1912	65.4033
1908	65.4429
1904	65.4914
1900	65.5093
1896	65.4717
1892	65.4462
1888	65.4222
1884	65.383
1880	65.361
1876	65.3858
1872	65.4416
1868	65.4572
1864	65.402
1860	65.3563
1856	65.3655
1852	65.3457
1848	65.3286
1844	65.3822
1840	65.4174
1836	65.4184
1832	65.4216
1828	65.3617
1824	65.3181
1820	65.3999
1816	65.5264
1812	65.591
1808	65.5682
1804	65.5156
1800	65.4809
1796	65.4659
1792	65.4492
1788	65.4659
1784	65.4935
1780	65.4569
1776	65.4284
1772	65.3966
1768	65.3238
1764	65.3256
1760	65.4105
1756	65.4587
1752	65.4222
1748	65.3362
1744	65.2535
1740	65.2381
1736	65.2731
1732	65.2858
1728	65.3054
1724	65.3396
1720	65.4035
1716	65.5079
1712	65.4615
1708	65.3154
1704	65.2716
1700	65.2954
1696	65.3924
1692	65.455
1688	65.4078
1684	65.3676
1680	65.3361
1676	65.2883
1672	65.2549
1668	65.2888
1664	65.3342
1660	65.3223
1656	65.3244
1652	65.3877
1648	65.4447
1644	65.3968
1640	65.2585
1636	65.1823
1632	65.1919
1628	65.1782
1624	65.182
1620	65.1979
1616	65.1675
1612	65.132
1608	65.1521
1604	65.2166
1600	65.1745
1596	65.055
1592	65.0692
1588	65.1604
1584	65.1492
1580	65.1258
1576	65.1845
1572	65.2105
1568	65.1749
1564	65.0997
1560	65.0267
1556	65.0508
1552	65.0924
1548	65.0668
1544	65.0556
1540	65.1096
1536	65.1417
1532	65.0956
1528	65.0684
1524	65.1202
1520	65.1804
1516	65.1776
1512	65.1839
1508	65.2712
1504	65.3077
1500	65.2412
1496	65.1752
1492	65.1795
1488	65.2438
1484	65.2587
1480	65.2006
1476	65.1075
1472	65.0081
1468	64.9829
1464	65.0647
1460	65.1713
1456	65.1983
1452	65.0366
1448	64.8283
1444	64.8952
1440	65.0857
1436	65.1607
1432	65.2112
1428	65.2803
1424	65.2881
1420	65.2192
1416	65.1927
1412	65.1739
1408	65.0896
1404	65.0939
1400	65.2445
1396	65.3645
1392	65.3379
1388	65.2589
1384	65.1823
1380	65.2111
1376	65.3146
1372	65.2214
1368	65.1399
1364	65.24
1360	65.2779
1356	65.2012
1352	65.0964
1348	65.085
1344	65.2124
1340	65.3236
1336	65.2894
1332	65.2072
1328	65.1814
1324	65.1392
1320	65.1148
1316	65.1806
1312	65.1709
1308	65.0479
1304	65.0253
1300	65.1092
1296	65.1557
1292	65.1315
1288	65.0589
1284	65.0455
1280	65.1334
1276	65.1414
1272	65.0325
1268	65.0149
1264	65.0641
1260	65.0492
1256	65.0139
1252	64.9642
1248	64.9255
1244	64.9391
1240	64.9925
1236	65.1159
1232	65.2375
1228	65.1992
1224	65.0789
1220	64.9985
1216	65.0103
1212	65.132
1208	65.1943
1204	65.0705
1200	64.8601
1196	64.7797
1192	64.8975
1188	64.9775
1184	64.8709
1180	64.7864
1176	64.8443
1172	64.9559
1168	65.0422
1164	65.013
1160	64.9246
1156	64.9271
1152	64.9306
1148	64.8319
1144	64.7667
1140	64.8547
1136	64.9586
1132	64.8937
1128	64.7935
1124	64.797
1120	64.814
1116	64.8185
1112	64.8407
1108	64.8116
1104	64.7009
1100	64.6335
1096	64.5962
1092	64.5291
1088	64.675
1084	65.0479
1080	65.26
1076	65.2639
1072	65.1866
1068	64.9949
1064	64.7873
1060	64.6705
1056	64.5917
1052	64.466
1048	64.4549
1044	64.6477
1040	64.7782
1036	64.7601
1032	64.7429
1028	64.7872
1024	64.6503
1020	64.3772
1016	64.4284
1012	64.708
1008	64.8792
1004	64.9356
1000	64.9353
996	 65.046
992	 65.2079
988	 65.1121
984	 64.8815
980	 64.8019
976	 64.8485
972	 64.9018
968	 64.8121
964	 64.5933
960	 64.6231
956	 64.776
952	 64.7837
948	 64.8775
944	 64.9011
940	 64.8045
936	 64.9424
932	 65.2246
928	 65.3686
924	 65.3402
920	 65.3053
916	 65.3282
912	 65.5057
908	 65.8623
904	 65.9439
900	 65.5646
896	 65.2276
892	 65.047
888	 64.752
884	 64.7079
880	 64.9255
876	 64.9849
872	 64.9504
868	 64.8061
864	 64.6124
860	 64.4657
856	 64.2862
852	 64.3063
848	 64.637
844	 64.8222
840	 64.791
836	 64.7577
832	 64.8037
828	 64.8923
824	 64.6803
820	 64.3446
816	 64.2457
812	 64.1716
808	 64.0427
804	 64.0988
800	 64.2944
796	 64.3641
792	 64.3862
788	 64.3924
784	 64.2133
780	 63.9374
776	 63.8662
772	 63.9925
768	 63.876
764	 63.6728
760	 63.8997
756	 64.5051
752	 65.0198
748	 64.9997
744	 64.8049
740	 64.6267
736	 64.2954
732	 64.1245
728	 63.9915
724	 63.6743
720	 63.5241
716	 63.6693
712	 63.8477
708	 63.771
704	 63.533
700	 63.5742
696	 63.7281
692	 63.4273
688	 63.0069
684	 63.0997
680	 63.4127
676	 63.4896
672	 63.3338
668	 63.164
664	 63.1679
660	 63.3161
656	 63.4071
652	 63.3676
648	 63.2621
644	 63.0185
640	 62.7516
636	 62.6483
632	 62.6625
628	 62.7399
624	 62.7375
620	 62.6314
616	 62.6415
612	 62.8519
608	 63.1772
604	 63.5786
600	 63.7767
596	 63.4965
592	 63.0979
588	 62.8745
584	 62.9052
580	 63.0615
576	 62.759
572	 62.2854
568	 62.1658
564	 62.1294
560	 61.941
556	 61.8017
552	 62.1749
548	 62.5335
544	 62.2529
540	 62.0159
536	 62.003
532	 61.7785
528	 61.5301
524	 61.493
520	 61.858
516	 62.5171
512	 62.7366
508	 62.3067
504	 61.6912
500	 61.1604
496	 60.9316
492	 61.0859
488	 61.0236
484	 60.4989
480	 60.1329
476	 60.164
472	 59.9593
468	 59.4576
464	 59.7636
460	 60.7358
456	 60.5557
452	 59.1956
448	 58.1965
444	 57.955
440	 59.1347
436	 60.4845
432	 59.3714
428	 57.91
424	 58.6664
420	 59.9211
416	 60.8084
412	 60.5069
408	 55.393
404	 48.3403
400	 46.8945
396	 53.6708
392	 64.5441
388	 76.2352
384	 94.6197
380	 89.0285
376	 50.8477
372	 14.4963
370	 -4.198217