File: Bakgrunnsmateriale/MATLAB/FTIR/ftir_data/subBb/Mapping_121/C-4040-8_t103.asc
PE IR       SPECTRUM    SPECTRUM    ASCII       PEDS        1.60
  -1
C-88C6~1.ASC
17/03/27
22:56:38.00
17/03/27
22:57:04.00
tln
$C-4040-8_t0103$<tbV0>[5.2,10.4,8.0,0.0,27,1,0]
27.028
64

2002,4.07
MIRTGS : RIGHTBACK : INTERNAL 2
MIR : ON : INTERNAL 2
OPTKBR

0.200000
8
8.000000
FILLER
RATIO
SPECTRUM
UNLOCKED 256

DOUBLE
64
COMBINED
1
0
0

0.002000
RATIO

1
0
TRUE
51149
0
LEFT NOT FITTED RIGHT NOT FITTED 0
NONE
NONE
15600
12
4.427000
51148
TRUE
1 0 8 72 0 0 0 0

15798

#HDR
-1
-1
#GR
µM
%T
2.38419e-05
0.0
2.000000
0.002000
12515
8
139.052
2.287772
#DATA
2.000000	 64.6749
2.018000	 65.581
2.036000	 64.9768
2.054000	 65.6451
2.072000	 65.221
2.090000	 65.3603
2.108000	 65.296
2.126000	 65.363
2.144000	 65.5506
2.162000	 65.7164
2.180000	 65.446
2.198000	 64.9786
2.216000	 64.07
2.234000	 63.8869
2.252000	 63.3726
2.270000	 62.4072
2.288000	 64.203
2.306000	 63.448
2.324000	 63.794
2.342000	 64.326
2.360000	 64.5425
2.378000	 64.31
2.396000	 65.187
2.414000	 65.3665
2.432000	 65.3792
2.450000	 65.6625
2.468000	 65.5223
2.486000	 65.7872
2.504000	 65.3157
2.522000	 65.522
2.540000	 65.257
2.558000	 65.1677
2.576000	 65.3929
2.594000	 65.249
2.612000	 64.8725
2.630000	 64.9657
2.648000	 65.3379
2.666000	 65.3615
2.684000	 65.3937
2.702000	 65.3206
2.720000	 65.3852
2.738000	 65.3266
2.756000	 65.5665
2.774000	 65.3012
2.792000	 65.5233
2.810000	 65.8047
2.828000	 65.2071
2.846000	 65.461
2.864000	 65.5088
2.882000	 65.424
2.900000	 65.2523
2.918000	 65.3366
2.936000	 65.3431
2.954000	 65.3092
2.972000	 65.1681
2.990000	 65.4363
3.008000	 65.2796
3.026000	 65.2107
3.044000	 65.217
3.062000	 65.3621
3.080000	 65.2687
3.098000	 65.1856
3.116000	 65.353
3.134000	 65.0891
3.152000	 65.5434
3.170000	 65.3938
3.188000	 65.5345
3.206000	 65.4961
3.224000	 65.6463
3.242000	 65.378
3.260000	 65.2895
3.278000	 65.3351
3.296000	 65.2084
3.314000	 65.2394
3.332000	 65.4298
3.350000	 65.2203
3.368000	 65.353
3.386000	 65.2769
3.404000	 65.0641
3.422000	 64.8793
3.440000	 65.2053
3.458000	 65.2755
3.476000	 65.3204
3.494000	 65.3772
3.512000	 65.0573
3.530000	 65.4288
3.548000	 65.3146
3.566000	 65.3279
3.584000	 65.5308
3.602000	 65.3577
3.620000	 65.4326
3.638000	 65.3053
3.656000	 65.442
3.674000	 65.4891
3.692000	 65.4953
3.710000	 65.5168
3.728000	 65.4241
3.746000	 65.3935
3.764000	 65.4353
3.782000	 65.3071
3.800000	 65.3639
3.818000	 65.3969
3.836000	 65.4086
3.854000	 65.2753
3.872000	 65.4567
3.890000	 65.3657
3.908000	 65.3656
3.926000	 65.469
3.944000	 65.4483
3.962000	 65.2614
3.980000	 65.5264
3.998000	 65.3993
4.016000	 65.5497
4.034000	 65.4568
4.052000	 65.3274
4.070000	 65.3829
4.088000	 65.3297
4.106000	 65.1965
4.124000	 65.1369
4.141999	 65.6375
4.160000	 65.4663
4.178000	 65.3352
4.196000	 65.2119
4.214000	 65.3819
4.232000	 65.4102
4.250000	 65.3741
4.268000	 65.4442
4.286000	 65.4186
4.304000	 65.4808
4.322000	 65.4485
4.340000	 65.3888
4.358000	 65.4149
4.375999	 65.4926
4.394000	 65.4717
4.412000	 65.4203
4.430000	 65.311
4.448000	 65.4127
4.466000	 65.3061
4.484000	 65.4854
4.502000	 65.4862
4.520000	 65.4292
4.538000	 65.3189
4.556000	 65.4006
4.574000	 65.4561
4.592000	 65.3842
4.609999	 65.3388
4.628000	 65.486
4.646000	 65.3804
4.664000	 65.3115
4.682000	 65.4859
4.700000	 65.4062
4.718000	 65.3274
4.736000	 65.5383
4.754000	 65.5851
4.772000	 65.3968
4.790000	 65.2827
4.808000	 65.3205
4.826000	 65.477
4.843999	 65.524
4.862000	 65.0615
4.880000	 65.2179
4.898000	 65.3971
4.916000	 65.3135
4.934000	 65.453
4.952000	 65.573
4.970000	 65.4844
4.988000	 65.484
5.006000	 65.4223
5.024000	 65.3506
5.042000	 65.518
5.060000	 65.4959
5.077999	 65.4249
5.096000	 65.3958
5.114000	 65.4088
5.132000	 65.416
5.150000	 65.527
5.168000	 65.6061
5.186000	 65.529
5.204000	 65.461
5.222000	 65.3883
5.240000	 65.2776
5.258000	 65.4416
5.276000	 65.5508
5.294000	 65.4514
5.312000	 65.4045
5.330000	 65.3603
5.348000	 65.3805
5.366000	 65.3321
5.384000	 65.3388
5.402000	 65.3492
5.420000	 65.5012
5.438000	 65.4335
5.456000	 65.4074
5.474000	 65.4646
5.492000	 65.4493
5.510000	 65.4566
5.528000	 65.4571
5.546000	 65.402
5.564000	 65.3045
5.582000	 65.2788
5.600000	 65.3557
5.618000	 65.3784
5.636000	 65.3822
5.654000	 65.4338
5.672000	 65.4105
5.690000	 65.3797
5.708000	 65.4073
5.726000	 65.3581
5.744000	 65.2277
5.762000	 65.0426
5.780000	 65.0815
5.798000	 65.2029
5.816000	 65.2809
5.834000	 65.4428
5.852000	 65.4698
5.870000	 65.3558
5.888000	 65.3866
5.906000	 65.3865
5.923999	 65.3377
5.942000	 65.3456
5.960000	 65.2689
5.978000	 65.2915
5.996000	 65.3521
6.014000	 65.2909
6.032000	 65.2714
6.050000	 65.2751
6.068000	 65.2605
6.086000	 65.2467
6.104000	 65.2534
6.122000	 65.3289
6.140000	 65.3328
6.158000	 65.2653
6.176000	 65.2903
6.194000	 65.2529
6.212000	 65.2261
6.230000	 65.3021
6.248000	 65.3373
6.266000	 65.242
6.284000	 65.1941
6.302000	 65.2789
6.320000	 65.3526
6.338000	 65.2224
6.356000	 65.044
6.374000	 65.0806
6.392000	 65.1953
6.410000	 65.1751
6.428000	 65.0764
6.446000	 65.1179
6.464000	 65.216
6.482000	 65.2577
6.500000	 65.2651
6.518000	 65.2606
6.536000	 65.2037
6.554000	 65.1229
6.572000	 65.1335
6.590000	 65.1635
6.608000	 65.1248
6.626000	 65.0997
6.644000	 65.1808
6.662000	 65.2815
6.680000	 65.2805
6.698000	 65.2051
6.716000	 65.1765
6.734000	 65.2427
6.752000	 65.3086
6.770000	 65.3098
6.788000	 65.2939
6.806000	 65.2564
6.824000	 65.2268
6.842000	 65.2164
6.860000	 65.1752
6.878000	 65.1144
6.896000	 65.066
6.914000	 65.138
6.932000	 65.2402
6.950000	 65.201
6.968000	 65.1386
6.986000	 65.1423
7.004000	 65.1876
7.022000	 65.2275
7.040000	 65.2311
7.058000	 65.2585
7.076000	 65.293
7.094000	 65.3115
7.112000	 65.3279
7.130000	 65.2976
7.148000	 65.2945
7.166000	 65.3571
7.184000	 65.3516
7.202000	 65.3144
7.220000	 65.3516
7.238000	 65.3594
7.256000	 65.2578
7.274000	 65.1467
7.292000	 65.1057
7.310000	 65.1048
7.328000	 65.0807
7.346000	 65.0355
7.364000	 65.033
7.382000	 65.088
7.400000	 65.1615
7.418000	 65.2081
7.436000	 65.179
7.454000	 65.0937
7.472000	 65.0383
7.490000	 65.0417
7.508000	 65.0928
7.526000	 65.192
7.544000	 65.2835
7.562000	 65.2841
7.580000	 65.1867
7.598000	 65.0501
7.616000	 64.9512
7.634000	 64.939
7.652000	 64.9861
7.670000	 65.032
7.688000	 65.0672
7.706000	 65.1173
7.724000	 65.1842
7.742000	 65.2306
7.760000	 65.2113
7.778000	 65.1303
7.796000	 65.0603
7.814000	 65.0622
7.832000	 65.1031
7.850000	 65.1004
7.868000	 65.0404
7.886000	 64.9968
7.904000	 65.0164
7.922000	 65.0639
7.940000	 65.1045
7.958000	 65.1503
7.976000	 65.1862
7.994000	 65.1667
8.012000	 65.1164
8.030000	 65.1103
8.048000	 65.1522
8.065999	 65.1741
8.084000	 65.145
8.102000	 65.1005
8.120000	 65.0803
8.138000	 65.0861
8.155999	 65.0901
8.173999	 65.0666
8.192000	 65.0287
8.210000	 65.0185
8.228000	 65.0506
8.246000	 65.0867
8.263999	 65.0868
8.282000	 65.0534
8.300000	 65.0165
8.318000	 65.0019
8.336000	 65.0207
8.353999	 65.0595
8.372000	 65.0781
8.390000	 65.0446
8.408000	 64.9697
8.426000	 64.9028
8.443999	 64.8947
8.462000	 64.9596
8.480000	 65.0555
8.498000	 65.1103
8.516000	 65.0886
8.533999	 65.0216
8.552000	 64.9629
8.570000	 64.9382
8.588000	 64.9473
8.606000	 64.985
8.624000	 65.0323
8.641999	 65.0527
8.660000	 65.0296
8.678000	 64.9907
8.696000	 64.9655
8.714000	 64.9397
8.731999	 64.884
8.750000	 64.8151
8.768000	 64.7848
8.786000	 64.8114
8.804000	 64.8524
8.821999	 64.8602
8.840000	 64.8392
8.858000	 64.8346
8.876000	 64.8822
8.894000	 64.9789
8.911999	 65.0885
8.930000	 65.1636
8.948000	 65.1735
8.966000	 65.13
8.984000	 65.0822
9.001999	 65.0673
9.020000	 65.0671
9.038000	 65.0305
9.056000	 64.9432
9.074000	 64.8514
9.092000	 64.8041
9.109999	 64.7892
9.128000	 64.7503
9.146000	 64.6638
9.164000	 64.5746
9.182000	 64.5473
9.199999	 64.595
9.218000	 64.6725
9.236000	 64.7229
9.254000	 64.7227
9.272000	 64.6865
9.289999	 64.6499
9.308000	 64.6481
9.326000	 64.6982
9.344000	 64.7828
9.362000	 64.8559
9.379999	 64.8762
9.398000	 64.8423
9.416000	 64.7909
9.434000	 64.7568
9.452000	 64.7405
9.469999	 64.722
9.488000	 64.6984
9.506000	 64.6997
9.524000	 64.7559
9.542000	 64.8591
9.560000	 64.9603
9.577999	 65.007
9.596000	 64.9832
9.614000	 64.9137
9.632000	 64.8383
9.650000	 64.7859
9.667999	 64.7693
9.686000	 64.7908
9.704000	 64.8487
9.722000	 64.9354
9.740000	 65.0315
9.757999	 65.1008
9.776000	 65.0994
9.794000	 64.9985
9.812000	 64.809
9.830000	 64.5806
9.847999	 64.3761
9.866000	 64.2414
9.884000	 64.1887
9.902000	 64.2023
9.920000	 64.2555
9.937999	 64.3252
9.956000	 64.3976
9.974000	 64.4652
9.992000	 64.5245
10.01	64.5738
10.028	64.6119
10.046	64.6375
10.064	64.6498
10.082	64.6506
10.1	64.6438
10.118	64.6346
10.136	64.625
10.154	64.6129
10.172	64.5942
10.19	64.5661
10.208	64.5348
10.226	64.5149
10.244	64.5226
10.262	64.5662
10.28	64.6366
10.298	64.7131
10.316	64.7727
10.334	64.8034
10.352	64.8073
10.37	64.7952
10.388	64.7785
10.406	64.7632
10.424	64.7492
10.442	64.7368
10.46	64.7277
10.478	64.7237
10.496	64.7224
10.514	64.714
10.532	64.6869
10.55	64.6354
10.568	64.5636
10.586	64.4851
10.604	64.4129
10.622	64.351
10.64	64.2943
10.658	64.2372
10.676	64.1875
10.694	64.1688
10.712	64.213
10.73	64.3391
10.748	64.5397
10.766	64.7811
10.784	65.022
10.802	65.229
10.82	65.3899
10.838	65.5057
10.856	65.5752
10.874	65.5866
10.892	65.5241
10.91	65.3818
10.928	65.1828
10.946	64.9782
10.964	64.8249
10.982	64.7605
11	64.778
11.018	64.8287
11.036	64.8481
11.054	64.7846
11.072	64.6281
11.09	64.4114
11.108	64.1885
11.126	64.0153
11.144	63.9235
11.162	63.9185
11.18	63.9873
11.198	64.1081
11.216	64.2578
11.234	64.4131
11.252	64.5475
11.27	64.6368
11.288	64.6628
11.306	64.6244
11.324	64.5403
11.342	64.4425
11.36	64.3639
11.378	64.3264
11.396	64.3325
11.414	64.3704
11.432	64.4248
11.45	64.4872
11.468	64.5574
11.486	64.6397
11.504	64.7353
11.522	64.837
11.54	64.9319
11.558	65.0069
11.576	65.0549
11.594	65.077
11.612	65.0808
11.63	65.0764
11.648	65.0695
11.666	65.0597
11.684	65.0406
11.702	65.0032
11.72	64.9404
11.738	64.8501
11.756	64.7363
11.774	64.6082
11.792	64.4784
11.81	64.3599
11.828	64.2633
11.846	64.1951
11.864	64.1555
11.882	64.1408
11.9	64.145
11.918	64.1615
11.936	64.1843
11.954	64.2079
11.972	64.2275
11.99	64.2388
12.008	64.2401
12.026	64.2326
12.044	64.2202
12.062	64.207
12.08	64.1947
12.098	64.1827
12.116	64.1669
12.134	64.143
12.152	64.1091
12.17	64.0685
12.188	64.0292
12.206	64.0028
12.224	63.9981
12.242	64.018
12.26	64.0572
12.278	64.1044
12.296	64.1456
12.314	64.1698
12.332	64.1728
12.35	64.1566
12.368	64.1291
12.386	64.1002
12.404	64.0798
12.422	64.0751
12.44	64.0902
12.458	64.1251
12.476	64.1768
12.494	64.2388
12.512	64.3031
12.53	64.3608
12.548	64.4037
12.566	64.4261
12.584	64.4256
12.602	64.4039
12.62	64.3658
12.638	64.3179
12.656	64.2656
12.674	64.2127
12.692	64.1603
12.71	64.1072
12.728	64.0522
12.746	63.9956
12.764	63.9404
12.782	63.8916
12.8	63.8557
12.818	63.8382
12.836	63.8427
12.854	63.8691
12.872	63.9138
12.89	63.9706
12.908	64.0311
12.926	64.0875
12.944	64.1329
12.962	64.1631
12.98	64.1767
12.998	64.1737
13.016	64.1555
13.034	64.1244
13.052	64.083
13.07	64.0353
13.088	63.9863
13.106	63.9428
13.124	63.9125
13.142	63.9026
13.16	63.9184
13.178	63.9614
13.196	64.0285
13.214	64.1129
13.232	64.2053
13.25	64.2958
13.268	64.376
13.286	64.4405
13.304	64.4873
13.322	64.5169
13.34	64.5315
13.358	64.5327
13.376	64.5205
13.394	64.4931
13.412	64.448
13.43	64.3835
13.448	64.3006
13.466	64.2035
13.484	64.0993
13.502	63.9977
13.52	63.9084
13.538	63.8393
13.556	63.7952
13.574	63.7772
13.592	63.7825
13.61	63.8054
13.628	63.8379
13.646	63.8708
13.664	63.8954
13.682	63.9036
13.7	63.8908
13.718	63.8545
13.736	63.7965
13.754	63.7214
13.772	63.6366
13.79	63.5509
13.808	63.473
13.826	63.4099
13.844	63.3651
13.862	63.3389
13.88	63.3279
13.898	63.3258
13.916	63.3256
13.934	63.3208
13.952	63.3076
13.97	63.2854
13.988	63.2568
14.006	63.2267
14.024	63.2012
14.042	63.1856
14.06	63.1833
14.078	63.1952
14.096	63.2196
14.114	63.2537
14.132	63.2936
14.15	63.3357
14.168	63.3768
14.186	63.4146
14.204	63.4481
14.222	63.4768
14.24	63.5006
14.258	63.5192
14.276	63.5319
14.294	63.5375
14.312	63.5348
14.33	63.5231
14.348	63.5023
14.366	63.4736
14.384	63.4388
14.402	63.4009
14.42	63.3631
14.438	63.3284
14.456	63.2996
14.474	63.2786
14.492	63.2663
14.51	63.2627
14.528	63.2668
14.546	63.2766
14.564	63.2901
14.582	63.3049
14.6	63.319
14.618	63.331
14.636	63.3403
14.654	63.3472
14.672	63.3533
14.69	63.3601
14.708	63.3694
14.726	63.3828
14.744	63.4004
14.762	63.4216
14.78	63.444
14.798	63.4646
14.816	63.4799
14.834	63.4858
14.852	63.4788
14.87	63.457
14.888	63.4198
14.906	63.3684
14.924	63.3051
14.942	63.2341
14.96	63.1601
14.978	63.0873
14.996	63.0193
15.014	62.9591
15.032	62.9085
15.05	62.8681
15.068	62.8377
15.086	62.817
15.104	62.8056
15.122	62.8034
15.14	62.8103
15.158	62.8265
15.176	62.8521
15.194	62.8868
15.212	62.9299
15.23	62.9798
15.248	63.0344
15.266	63.0912
15.284	63.1467
15.302	63.1979
15.32	63.2422
15.338	63.2776
15.356	63.3024
15.374	63.3165
15.392	63.3203
15.41	63.3151
15.428	63.3026
15.446	63.2853
15.464	63.2654
15.482	63.2445
15.5	63.2241
15.518	63.2055
15.536	63.189
15.554	63.1745
15.572	63.1618
15.59	63.1498
15.608	63.1377
15.626	63.1245
15.644	63.1092
15.662	63.0915
15.68	63.0712
15.698	63.0486
15.716	63.0247
15.734	63.0009
15.752	62.9791
15.77	62.961
15.788	62.9491
15.806	62.9447
15.824	62.9489
15.842	62.9626
15.86	62.9855
15.878	63.0166
15.896	63.0548
15.914	63.0976
15.932	63.1423
15.95	63.1866
15.968	63.2274
15.986	63.2615
16.004	63.2868
16.022	63.301
16.04	63.3019
16.058	63.2887
16.076	63.2606
16.094	63.2178
16.112	63.1613
16.13	63.0926
16.148	63.0137
16.166	62.9281
16.184	62.8386
16.202	62.7483
16.22	62.6619
16.238	62.5822
16.256	62.5122
16.274	62.4551
16.292	62.4118
16.31	62.3832
16.328	62.369
16.346	62.3676
16.364	62.3776
16.382	62.396
16.4	62.4201
16.418	62.4477
16.436	62.4757
16.454	62.5023
16.472	62.5263
16.49	62.5466
16.508	62.5632
16.526	62.5761
16.544	62.5862
16.562	62.5943
16.58	62.6011
16.598	62.6077
16.616	62.6146
16.634	62.622
16.652	62.6299
16.67	62.6378
16.688	62.6453
16.706	62.6513
16.724	62.6555
16.742	62.657
16.76	62.6551
16.778	62.6496
16.796	62.6402
16.814	62.6273
16.832	62.6112
16.85	62.5928
16.868	62.573
16.886	62.5525
16.904	62.5333
16.922	62.5163
16.94	62.5028
16.958	62.4946
16.976	62.4923
16.994	62.4974
17.012	62.5098
17.03	62.5298
17.048	62.5563
17.066	62.5881
17.084	62.6239
17.102	62.6608
17.12	62.6978
17.138	62.7321
17.156	62.7624
17.174	62.7875
17.192	62.8068
17.21	62.8204
17.228	62.8289
17.246	62.8336
17.264	62.8353
17.282	62.8364
17.3	62.8375
17.318	62.8402
17.336	62.8445
17.354	62.8507
17.372	62.8579
17.39	62.8653
17.408	62.8708
17.426	62.8728
17.444	62.87
17.462	62.8599
17.48	62.842
17.498	62.8151
17.516	62.7794
17.534	62.7347
17.552	62.683
17.57	62.6249
17.588	62.5636
17.606	62.5003
17.624	62.4373
17.642	62.377
17.66	62.3205
17.678	62.2697
17.696	62.2246
17.714	62.1863
17.732	62.1546
17.75	62.1296
17.768	62.1108
17.786	62.0982
17.804	62.0908
17.822	62.0886
17.84	62.0908
17.858	62.0969
17.876	62.1065
17.894	62.1186
17.912	62.1329
17.93	62.1474
17.948	62.1619
17.966	62.1743
17.984	62.1838
18.002	62.1887
18.02	62.188
18.038	62.1806
18.056	62.166
18.074	62.1436
18.092	62.1139
18.11	62.077
18.128	62.0348
18.146	61.988
18.164	61.939
18.182	61.8896
18.2	61.8419
18.218	61.7986
18.236	61.7612
18.254	61.7324
18.272	61.7131
18.29	61.7052
18.308	61.7086
18.326	61.7237
18.344	61.7502
18.362	61.7868
18.38	61.8325
18.398	61.8849
18.416	61.9424
18.434	62.0025
18.452	62.0627
18.47	62.121
18.488	62.1744
18.506	62.2218
18.524	62.2604
18.542	62.2895
18.56	62.3072
18.578	62.3133
18.596	62.3069
18.614	62.2881
18.632	62.2574
18.65	62.2148
18.668	62.162
18.686	62.0994
18.704	62.0295
18.722	61.9529
18.74	61.8727
18.758	61.7895
18.776	61.7064
18.794	61.624
18.812	61.5452
18.83	61.4708
18.848	61.4033
18.866	61.3431
18.884	61.2921
18.902	61.2503
18.92	61.2189
18.938	61.1974
18.956	61.186
18.974	61.184
18.992	61.1907
19.01	61.2049
19.028	61.2253
19.046	61.2505
19.064	61.2786
19.082	61.3082
19.1	61.337
19.118	61.3643
19.136	61.3876
19.154	61.4068
19.172	61.4198
19.19	61.4269
19.208	61.427
19.226	61.4205
19.244	61.4077
19.262	61.3888
19.28	61.3652
19.298	61.3369
19.316	61.3055
19.334	61.271
19.352	61.235
19.37	61.1974
19.388	61.1592
19.406	61.1205
19.424	61.0816
19.442	61.0426
19.46	61.0034
19.478	60.9641
19.496	60.9245
19.514	60.8846
19.532	60.8444
19.55	60.8035
19.568	60.7626
19.586	60.7216
19.604	60.6813
19.622	60.6427
19.64	60.6061
19.658	60.5735
19.676	60.5448
19.694	60.5219
19.712	60.5047
19.73	60.495
19.748	60.4927
19.766	60.4987
19.784	60.5131
19.802	60.5356
19.82	60.5665
19.838	60.6047
19.856	60.6494
19.874	60.7001
19.892	60.7547
19.91	60.8132
19.928	60.8726
19.946	60.9332
19.964	60.9922
19.982	61.0495
20	61.1035
20.018	61.1532
20.036	61.1984
20.054	61.2377
20.072	61.2716
20.09	61.2995
20.108	61.3216
20.126	61.3385
20.144	61.3499
20.162	61.3571
20.18	61.3602
20.198	61.3603
20.216	61.359
20.234	61.3563
20.252	61.3545
20.27	61.3534
20.288	61.3553
20.306	61.3605
20.324	61.3699
20.342	61.3844
20.36	61.4039
20.378	61.4292
20.396	61.4602
20.414	61.4957
20.432	61.5359
20.45	61.5789
20.468	61.6243
20.486	61.6706
20.504	61.7145
20.522	61.7566
20.54	61.7922
20.558	61.8219
20.576	61.8421
20.594	61.851
20.612	61.8483
20.63	61.8308
20.648	61.7994
20.666	61.7525
20.684	61.6898
20.702	61.6125
20.72	61.5202
20.738	61.4141
20.756	61.2972
20.774	61.1684
20.792	61.0331
20.81	60.8911
20.828	60.7455
20.846	60.6008
20.864	60.4559
20.882	60.3172
20.9	60.184
20.918	60.0596
20.936	59.9466
20.954	59.8443
20.972	59.7559
20.99	59.6809
21.008	59.6194
21.026	59.572
21.044	59.5377
21.062	59.5149
21.08	59.5044
21.098	59.5022
21.116	59.5083
21.134	59.521
21.152	59.5361
21.17	59.5551
21.188	59.5732
21.206	59.5899
21.224	59.6043
21.242	59.6133
21.26	59.6177
21.278	59.6153
21.296	59.6056
21.314	59.5887
21.332	59.5639
21.35	59.5313
21.368	59.492
21.386	59.4458
21.404	59.3936
21.422	59.3379
21.44	59.2777
21.458	59.2157
21.476	59.1527
21.494	59.089
21.512	59.0276
21.53	58.9677
21.548	58.9111
21.566	58.8596
21.584	58.8126
21.602	58.7718
21.62	58.7373
21.638	58.7093
21.656	58.6886
21.674	58.675
21.692	58.668
21.71	58.6679
21.728	58.6742
21.746	58.6858
21.764	58.7032
21.782	58.7249
21.8	58.7499
21.818	58.7786
21.836	58.8086
21.854	58.8403
21.872	58.8727
21.89	58.904
21.908	58.9349
21.926	58.9636
21.944	58.9889
21.962	59.0114
21.98	59.0294
21.998	59.0428
22.016	59.0515
22.034	59.055
22.052	59.0533
22.07	59.0466
22.088	59.0349
22.106	59.0182
22.124	58.9969
22.142	58.971
22.16	58.9407
22.178	58.9073
22.196	58.8703
22.214	58.8308
22.232	58.7903
22.25	58.748
22.268	58.7055
22.286	58.6635
22.304	58.6217
22.322	58.581
22.34	58.5418
22.358	58.5039
22.376	58.4678
22.394	58.4335
22.412	58.4009
22.43	58.3698
22.448	58.3405
22.466	58.312
22.484	58.2837
22.502	58.2561
22.52	58.2275
22.538	58.1974
22.556	58.1659
22.574	58.1311
22.592	58.0927
22.61	58.0507
22.628	58.0033
22.646	57.9505
22.664	57.8922
22.682	57.8275
22.7	57.7563
22.718	57.6791
22.736	57.5958
22.754	57.5061
22.772	57.4112
22.79	57.3119
22.808	57.2074
22.826	57.1002
22.844	56.9914
22.862	56.8802
22.88	56.7691
22.898	56.6589
22.916	56.5489
22.934	56.4421
22.952	56.339
22.97	56.2391
22.988	56.1454
23.006	56.0579
23.024	55.9766
23.042	55.9041
23.06	55.8408
23.078	55.7862
23.096	55.7412
23.114	55.7057
23.132	55.6796
23.15	55.6638
23.168	55.6581
23.186	55.6626
23.204	55.6771
23.222	55.7016
23.24	55.7361
23.258	55.7811
23.276	55.8363
23.294	55.902
23.312	55.9787
23.33	56.0665
23.348	56.1653
23.366	56.2757
23.384	56.3983
23.402	56.5322
23.42	56.6756
23.438	56.8287
23.456	56.9912
23.474	57.1614
23.492	57.3392
23.51	57.5247
23.528	57.7163
23.546	57.9139
23.564	58.1177
23.582	58.3256
23.6	58.5369
23.618	58.7524
23.636	58.9695
23.654	59.1873
23.672	59.4071
23.69	59.625
23.708	59.839
23.726	60.0513
23.744	60.2575
23.762	60.4537
23.78	60.6429
23.798	60.8213
23.816	60.9842
23.834	61.1344
23.852	61.2694
23.87	61.3848
23.888	61.4817
23.906	61.5599
23.924	61.6175
23.942	61.6536
23.96	61.6694
23.978	61.6657
23.996	61.6423
24.014	61.5993
24.032	61.5388
24.05	61.4618
24.068	61.367
24.086	61.2576
24.104	61.1364
24.122	61.0009
24.14	60.8544
24.158	60.7017
24.176	60.54
24.194	60.3719
24.212	60.2039
24.23	60.0372
24.248	59.87
24.266	59.7061
24.284	59.5472
24.302	59.391
24.32	59.2418
24.338	59.1033
24.356	58.9708
24.374	58.8504
24.392	58.7506
24.41	58.6683
24.428	58.6048
24.446	58.5703
24.464	58.5673
24.482	58.5908
24.5	58.6523
24.518	58.7615
24.536	58.9124
24.554	59.1081
24.572	59.3548
24.59	59.6532
24.608	60.0008
24.626	60.3965
24.644	60.8431
24.662	61.342
24.68	61.8797
24.698	62.445
24.716	63.0512
24.734	63.6832
24.752	64.3171
24.77	64.9585
24.788	65.6096
24.806	66.2377
24.824	66.822
24.842	67.3865
24.86	67.9038
24.878	68.3397
24.896	68.7061
24.914	69.0013
24.932	69.1968
24.95	69.2777
24.968	69.261
24.986	69.1315
25.004	68.8717
25.022	68.4817
25.04	67.9692
25.058	67.339
25.076	66.5875
25.094	65.7096
25.112	64.7314
25.13	63.6775
25.148	62.5222
25.166	61.2869
25.184	60.019
25.202	58.733
25.22	57.3972
25.238	56.0666
25.256	54.7978
25.274	53.562
25.292	52.3687
25.31	51.2686
25.328	50.2916
25.346	49.4055
25.364	48.6335
25.382	48.0047
25.4	47.5206
25.418	47.1705
25.436	46.9565
25.454	46.8836
25.472	46.9602
25.49	47.1652
25.508	47.4739
25.526	47.8911
25.544	48.4271
25.562	49.0375
25.58	49.6818
25.598	50.395
25.616	51.1559
25.634	51.9097
25.652	52.6254
25.67	53.3451
25.688	54.029
25.706	54.628
25.724	55.1424
25.742	55.5909
25.76	55.9378
25.778	56.1504
25.796	56.2503
25.814	56.2309
25.832	56.0654
25.85	55.7349
25.868	55.256
25.886	54.6247
25.904	53.833
25.922	52.8777
25.94	51.7643
25.958	50.4927
25.976	49.0627
25.994	47.4637
26.012	45.7049
26.03	43.8084
26.048	41.7909
26.066	39.6208
26.084	37.3276
26.102	34.9605
26.12	32.5446
26.138	30.0305
26.156	27.472
26.174	24.9356
26.192	22.4308
26.21	19.9077
26.228	17.4467
26.246	15.1327
26.264	12.9568
26.282	10.885
26.3	8.985862
26.318	7.326494
26.336	5.884633
26.354	4.648008
26.372	3.652934
26.39	2.934063
26.408	2.487759
26.426	2.296683
26.444	2.349813
26.462	2.643057
26.48	3.214736
26.498	4.018557
26.516	4.988108
26.534	6.081485
26.552	7.373359
26.57	8.798429
26.588	10.2647
26.606	11.7206
26.624	13.2545
26.642	14.7934
26.66	16.2426
26.678	17.5511
26.696	18.7972
26.714	19.9286
26.732	20.8795
26.75	21.6124
26.768	22.1737
26.786	22.5487
26.804	22.717
26.822	22.6579
26.84	22.3753
26.858	21.8995
26.876	21.2615
26.894	20.4637
26.912	19.4672
26.93	18.3328
26.948	17.128
26.966	15.8233
26.984	14.2707
27.002	12.7422
27.02	11.5382
27.028	11.2208