File: Bakgrunnsmateriale/MATLAB/FTIR/ftir_data/subBb/Mapping_121/C-4040-8_t115.asc
PE IR       SPECTRUM    SPECTRUM    ASCII       PEDS        1.60
  -1
C-80D8~1.ASC
17/03/28
00:12:42.00
17/03/28
00:13:09.00
tln
$C-4040-8_t0115$<tbV0>[2.6,13.0,8.0,0.0,27,1,0]
27.028
64

2002,4.07
MIRTGS : RIGHTBACK : INTERNAL 2
MIR : ON : INTERNAL 2
OPTKBR

0.200000
8
8.000000
FILLER
RATIO
SPECTRUM
UNLOCKED 256

DOUBLE
64
COMBINED
1
0
0

0.002000
RATIO

1
0
TRUE
51149
0
LEFT NOT FITTED RIGHT NOT FITTED 0
NONE
NONE
15600
12
4.427000
51148
TRUE
1 0 8 72 0 0 0 0

15798

#HDR
-1
-1
#GR
µM
%T
2.38419e-05
0.0
2.000000
0.002000
12515
8
119.56
47.0807
#DATA
2.000000	 64.9253
2.018000	 64.7221
2.036000	 64.9994
2.054000	 64.3325
2.072000	 64.4014
2.090000	 64.5121
2.108000	 65.4793
2.126000	 64.8322
2.144000	 65.0554
2.162000	 64.6182
2.180000	 65.0806
2.198000	 65.9335
2.216000	 65.7107
2.234000	 65.7909
2.252000	 64.5468
2.270000	 65.4453
2.288000	 67.2801
2.306000	 65.2188
2.324000	 65.1759
2.342000	 64.7879
2.360000	 65.1081
2.378000	 65.0122
2.396000	 65.3495
2.414000	 65.0481
2.432000	 64.7115
2.450000	 65.1608
2.468000	 65.2064
2.486000	 64.9385
2.504000	 64.9624
2.522000	 65.0177
2.540000	 65.0526
2.558000	 64.7996
2.576000	 65.2777
2.594000	 65.083
2.612000	 64.7831
2.630000	 65.0843
2.648000	 65.3088
2.666000	 65.0443
2.684000	 65.0229
2.702000	 65.2315
2.720000	 64.9149
2.738000	 65.0053
2.756000	 65.0101
2.774000	 65.076
2.792000	 64.7781
2.810000	 65.2001
2.828000	 65.0153
2.846000	 65.0345
2.864000	 65.4958
2.882000	 64.9057
2.900000	 65.0042
2.918000	 65.013
2.936000	 65.06
2.954000	 65.1109
2.972000	 65.0885
2.990000	 65.0016
3.008000	 64.9934
3.026000	 64.8603
3.044000	 65.0668
3.062000	 65.0118
3.080000	 64.9346
3.098000	 64.908
3.116000	 64.9663
3.134000	 64.7603
3.152000	 65.0523
3.170000	 65.2016
3.188000	 64.8826
3.206000	 65.3298
3.224000	 64.9192
3.242000	 65.015
3.260000	 64.9938
3.278000	 65.0063
3.296000	 65.273
3.314000	 65.1815
3.332000	 65.0614
3.350000	 65.2068
3.368000	 64.8812
3.386000	 64.8983
3.404000	 64.9954
3.422000	 64.7972
3.440000	 64.8743
3.458000	 64.979
3.476000	 65.022
3.494000	 64.9713
3.512000	 64.9171
3.530000	 65.1098
3.548000	 65.0074
3.566000	 65.0905
3.584000	 65.0886
3.602000	 64.9859
3.620000	 65.0635
3.638000	 65.0149
3.656000	 65.0612
3.674000	 65.0832
3.692000	 65.1119
3.710000	 65.1552
3.728000	 65.1799
3.746000	 65.1616
3.764000	 65.0911
3.782000	 65.0364
3.800000	 64.9816
3.818000	 65.2442
3.836000	 65.0603
3.854000	 65.1944
3.872000	 65.0793
3.890000	 65.1208
3.908000	 65.208
3.926000	 65.1729
3.944000	 65.1995
3.962000	 65.3038
3.980000	 65.273
3.998000	 65.3955
4.016000	 64.9941
4.034000	 65.2859
4.052000	 65.141
4.070000	 65.2394
4.088000	 65.2759
4.106000	 65.1653
4.124000	 64.8885
4.141999	 65.276
4.160000	 65.1333
4.178000	 65.1429
4.196000	 65.0999
4.214000	 65.1321
4.232000	 65.1865
4.250000	 65.1754
4.268000	 65.1768
4.286000	 65.1283
4.304000	 65.165
4.322000	 65.2027
4.340000	 65.2173
4.358000	 65.1958
4.375999	 65.136
4.394000	 65.0651
4.412000	 65.2061
4.430000	 65.1964
4.448000	 65.2408
4.466000	 65.1449
4.484000	 65.1649
4.502000	 65.1246
4.520000	 65.1593
4.538000	 65.2489
4.556000	 65.184
4.574000	 65.0534
4.592000	 65.1647
4.609999	 65.311
4.628000	 65.4009
4.646000	 65.3308
4.664000	 65.3149
4.682000	 65.0253
4.700000	 65.1128
4.718000	 65.0799
4.736000	 65.0302
4.754000	 65.2154
4.772000	 65.1537
4.790000	 65.2005
4.808000	 64.9898
4.826000	 65.2436
4.843999	 65.7439
4.862000	 65.3535
4.880000	 65.1656
4.898000	 65.1597
4.916000	 65.1894
4.934000	 65.2759
4.952000	 65.2428
4.970000	 65.1886
4.988000	 65.2058
5.006000	 65.1732
5.024000	 65.0868
5.042000	 65.1245
5.060000	 65.1996
5.077999	 65.072
5.096000	 65.129
5.114000	 65.1061
5.132000	 65.1634
5.150000	 65.0971
5.168000	 65.0899
5.186000	 65.2175
5.204000	 65.1849
5.222000	 65.1765
5.240000	 65.1521
5.258000	 65.0897
5.276000	 65.0714
5.294000	 65.0581
5.312000	 65.1334
5.330000	 65.0723
5.348000	 65.0971
5.366000	 65.0511
5.384000	 65.022
5.402000	 65.1553
5.420000	 65.2656
5.438000	 65.1275
5.456000	 65.0705
5.474000	 65.177
5.492000	 65.1534
5.510000	 65.0508
5.528000	 64.9079
5.546000	 65.0561
5.564000	 65.198
5.582000	 65.0031
5.600000	 64.9753
5.618000	 65.1184
5.636000	 65.1576
5.654000	 65.1584
5.672000	 65.0085
5.690000	 64.9735
5.708000	 65.0045
5.726000	 64.8803
5.744000	 64.8004
5.762000	 64.7412
5.780000	 64.7439
5.798000	 64.8842
5.816000	 65.1001
5.834000	 65.258
5.852000	 65.1634
5.870000	 65.0716
5.888000	 65.1367
5.906000	 65.1389
5.923999	 65.0837
5.942000	 65.0274
5.960000	 65.0131
5.978000	 65.0581
5.996000	 65.0041
6.014000	 64.8409
6.032000	 64.883
6.050000	 65.0436
6.068000	 65.0651
6.086000	 65.0637
6.104000	 65.0718
6.122000	 64.9952
6.140000	 64.9749
6.158000	 65.0646
6.176000	 65.0682
6.194000	 65.1073
6.212000	 65.1327
6.230000	 65.0392
6.248000	 65.0358
6.266000	 65.0609
6.284000	 65.0039
6.302000	 64.9247
6.320000	 64.8222
6.338000	 64.7585
6.356000	 64.7439
6.374000	 64.7516
6.392000	 64.764
6.410000	 64.7943
6.428000	 64.833
6.446000	 64.8239
6.464000	 64.7672
6.482000	 64.7852
6.500000	 64.9622
6.518000	 65.1144
6.536000	 65.1062
6.554000	 65.0782
6.572000	 65.0422
6.590000	 64.9303
6.608000	 64.9385
6.626000	 65.0251
6.644000	 65.0226
6.662000	 65.0007
6.680000	 65.0051
6.698000	 65.0053
6.716000	 65.0069
6.734000	 65.0362
6.752000	 65.0738
6.770000	 65.0618
6.788000	 65.005
6.806000	 64.9616
6.824000	 64.9336
6.842000	 64.8813
6.860000	 64.7951
6.878000	 64.6998
6.896000	 64.6507
6.914000	 64.6808
6.932000	 64.7472
6.950000	 64.8038
6.968000	 64.8883
6.986000	 65.0206
7.004000	 65.0738
7.022000	 64.9873
7.040000	 64.8989
7.058000	 64.8672
7.076000	 64.8246
7.094000	 64.7982
7.112000	 64.8498
7.130000	 64.9148
7.148000	 64.9122
7.166000	 64.8973
7.184000	 64.9518
7.202000	 65.0013
7.220000	 64.9339
7.238000	 64.8265
7.256000	 64.8145
7.274000	 64.8527
7.292000	 64.838
7.310000	 64.801
7.328000	 64.8135
7.346000	 64.8628
7.364000	 64.9045
7.382000	 64.9168
7.400000	 64.8848
7.418000	 64.821
7.436000	 64.7639
7.454000	 64.7307
7.472000	 64.736
7.490000	 64.8054
7.508000	 64.9015
7.526000	 64.9342
7.544000	 64.8937
7.562000	 64.8768
7.580000	 64.9294
7.598000	 64.969
7.616000	 64.9158
7.634000	 64.7988
7.652000	 64.6964
7.670000	 64.6609
7.688000	 64.6958
7.706000	 64.7483
7.724000	 64.7555
7.742000	 64.7127
7.760000	 64.6632
7.778000	 64.6502
7.796000	 64.7025
7.814000	 64.8163
7.832000	 64.9291
7.850000	 64.9614
7.868000	 64.8891
7.886000	 64.7542
7.904000	 64.6258
7.922000	 64.5679
7.940000	 64.6065
7.958000	 64.7005
7.976000	 64.7701
7.994000	 64.7655
8.012000	 64.7082
8.030000	 64.6642
8.048000	 64.6682
8.065999	 64.6957
8.084000	 64.7194
8.102000	 64.7507
8.120000	 64.7954
8.138000	 64.8169
8.155999	 64.7889
8.173999	 64.743
8.192000	 64.7287
8.210000	 64.757
8.228000	 64.7984
8.246000	 64.8199
8.263999	 64.8102
8.282000	 64.7754
8.300000	 64.7214
8.318000	 64.6527
8.336000	 64.5901
8.353999	 64.5622
8.372000	 64.5758
8.390000	 64.613
8.408000	 64.6551
8.426000	 64.6906
8.443999	 64.7069
8.462000	 64.6949
8.480000	 64.6628
8.498000	 64.6324
8.516000	 64.6208
8.533999	 64.6362
8.552000	 64.6815
8.570000	 64.7531
8.588000	 64.8295
8.606000	 64.87
8.624000	 64.8417
8.641999	 64.7483
8.660000	 64.6295
8.678000	 64.5286
8.696000	 64.4674
8.714000	 64.4516
8.731999	 64.4836
8.750000	 64.5526
8.768000	 64.6303
8.786000	 64.6882
8.804000	 64.714
8.821999	 64.705
8.840000	 64.6593
8.858000	 64.5843
8.876000	 64.5085
8.894000	 64.4718
8.911999	 64.5035
8.930000	 64.6097
8.948000	 64.7648
8.966000	 64.9103
8.984000	 64.983
9.001999	 64.9596
9.020000	 64.8725
9.038000	 64.7767
9.056000	 64.7068
9.074000	 64.6693
9.092000	 64.6606
9.109999	 64.6702
9.128000	 64.6747
9.146000	 64.6563
9.164000	 64.6266
9.182000	 64.6157
9.199999	 64.6328
9.218000	 64.6511
9.236000	 64.6367
9.254000	 64.5899
9.272000	 64.5474
9.289999	 64.5477
9.308000	 64.5973
9.326000	 64.6701
9.344000	 64.7239
9.362000	 64.7259
9.379999	 64.6699
9.398000	 64.578
9.416000	 64.4838
9.434000	 64.4089
9.452000	 64.3542
9.469999	 64.314
9.488000	 64.2949
9.506000	 64.3112
9.524000	 64.3639
9.542000	 64.4323
9.560000	 64.4905
9.577999	 64.5277
9.596000	 64.5498
9.614000	 64.5638
9.632000	 64.5641
9.650000	 64.5374
9.667999	 64.4777
9.686000	 64.3958
9.704000	 64.315
9.722000	 64.2634
9.740000	 64.2647
9.757999	 64.3281
9.776000	 64.4411
9.794000	 64.5717
9.812000	 64.6843
9.830000	 64.7588
9.847999	 64.798
9.866000	 64.8175
9.884000	 64.8267
9.902000	 64.8186
9.920000	 64.7744
9.937999	 64.6796
9.956000	 64.5368
9.974000	 64.371
9.992000	 64.223
10.01	64.1331
10.028	64.1228
10.046	64.184
10.064	64.2859
10.082	64.3912
10.1	64.4727
10.118	64.5211
10.136	64.5415
10.154	64.5446
10.172	64.5399
10.19	64.5337
10.208	64.5277
10.226	64.5182
10.244	64.5007
10.262	64.4755
10.28	64.4514
10.298	64.4391
10.316	64.4433
10.334	64.4574
10.352	64.47
10.37	64.4743
10.388	64.4752
10.406	64.4842
10.424	64.5109
10.442	64.5516
10.46	64.5922
10.478	64.6168
10.496	64.6198
10.514	64.6086
10.532	64.5981
10.55	64.5977
10.568	64.6053
10.586	64.6072
10.604	64.5893
10.622	64.5479
10.64	64.496
10.658	64.4568
10.676	64.4507
10.694	64.481
10.712	64.5299
10.73	64.569
10.748	64.5717
10.766	64.5294
10.784	64.4535
10.802	64.3701
10.82	64.3039
10.838	64.2702
10.856	64.271
10.874	64.2981
10.892	64.3394
10.91	64.3818
10.928	64.4158
10.946	64.4379
10.964	64.4513
10.982	64.4622
11	64.4735
11.018	64.4803
11.036	64.4699
11.054	64.4282
11.072	64.3515
11.09	64.2516
11.108	64.1528
11.126	64.0822
11.144	64.0521
11.162	64.0548
11.18	64.0678
11.198	64.0659
11.216	64.0358
11.234	63.982
11.252	63.9207
11.27	63.8687
11.288	63.834
11.306	63.8117
11.324	63.7912
11.342	63.765
11.36	63.7348
11.378	63.7126
11.396	63.7127
11.414	63.7444
11.432	63.808
11.45	63.8956
11.468	63.9935
11.486	64.0874
11.504	64.1663
11.522	64.223
11.54	64.2546
11.558	64.263
11.576	64.2561
11.594	64.2448
11.612	64.2427
11.63	64.2587
11.648	64.2913
11.666	64.3277
11.684	64.3454
11.702	64.3216
11.72	64.2412
11.738	64.1059
11.756	63.9352
11.774	63.7638
11.792	63.6334
11.81	63.5777
11.828	63.6137
11.846	63.7373
11.864	63.9221
11.882	64.1293
11.9	64.3161
11.918	64.448
11.936	64.5089
11.954	64.5037
11.972	64.4546
11.99	64.3914
12.008	64.3393
12.026	64.3103
12.044	64.3023
12.062	64.3023
12.08	64.2962
12.098	64.2763
12.116	64.245
12.134	64.2131
12.152	64.1927
12.17	64.1895
12.188	64.1993
12.206	64.2085
12.224	64.2009
12.242	64.1652
12.26	64.1009
12.278	64.0186
12.296	63.9356
12.314	63.8675
12.332	63.8224
12.35	63.8004
12.368	63.7938
12.386	63.7912
12.404	63.7819
12.422	63.7598
12.44	63.7229
12.458	63.6733
12.476	63.616
12.494	63.5569
12.512	63.5015
12.53	63.4541
12.548	63.419
12.566	63.3998
12.584	63.4011
12.602	63.4261
12.62	63.4759
12.638	63.5467
12.656	63.6294
12.674	63.7109
12.692	63.7777
12.71	63.8185
12.728	63.828
12.746	63.8083
12.764	63.7684
12.782	63.7203
12.8	63.6761
12.818	63.6431
12.836	63.6216
12.854	63.6054
12.872	63.5862
12.89	63.5568
12.908	63.5151
12.926	63.4658
12.944	63.4192
12.962	63.3863
12.98	63.3749
12.998	63.3858
13.016	63.4132
13.034	63.4472
13.052	63.4775
13.07	63.4964
13.088	63.5027
13.106	63.5006
13.124	63.4974
13.142	63.5005
13.16	63.5145
13.178	63.54
13.196	63.5721
13.214	63.6046
13.232	63.6315
13.25	63.6508
13.268	63.6649
13.286	63.6806
13.304	63.7066
13.322	63.751
13.34	63.8184
13.358	63.9086
13.376	64.016
13.394	64.1308
13.412	64.2405
13.43	64.3319
13.448	64.3931
13.466	64.4147
13.484	64.3911
13.502	64.321
13.52	64.2078
13.538	64.059
13.556	63.8861
13.574	63.7028
13.592	63.5237
13.61	63.3631
13.628	63.2325
13.646	63.1399
13.664	63.0888
13.682	63.0778
13.7	63.1023
13.718	63.1546
13.736	63.2271
13.754	63.3116
13.772	63.4013
13.79	63.4903
13.808	63.5739
13.826	63.6473
13.844	63.706
13.862	63.7461
13.88	63.7639
13.898	63.7573
13.916	63.7264
13.934	63.6734
13.952	63.6036
13.97	63.5238
13.988	63.4418
14.006	63.3657
14.024	63.3025
14.042	63.2569
14.06	63.2304
14.078	63.2229
14.096	63.2323
14.114	63.256
14.132	63.291
14.15	63.3345
14.168	63.384
14.186	63.437
14.204	63.4916
14.222	63.5456
14.24	63.5958
14.258	63.6395
14.276	63.6743
14.294	63.6984
14.312	63.7114
14.33	63.7139
14.348	63.7077
14.366	63.6957
14.384	63.681
14.402	63.6663
14.42	63.6527
14.438	63.64
14.456	63.6262
14.474	63.6082
14.492	63.5824
14.51	63.5452
14.528	63.4946
14.546	63.4298
14.564	63.3522
14.582	63.2646
14.6	63.1712
14.618	63.0772
14.636	62.9879
14.654	62.9074
14.672	62.8385
14.69	62.7828
14.708	62.7408
14.726	62.7121
14.744	62.6958
14.762	62.6903
14.78	62.695
14.798	62.7093
14.816	62.7334
14.834	62.7681
14.852	62.813
14.87	62.8675
14.888	62.9301
14.906	62.9983
14.924	63.0684
14.942	63.1355
14.96	63.1941
14.978	63.2394
14.996	63.2669
15.014	63.2736
15.032	63.2581
15.05	63.222
15.068	63.1688
15.086	63.1036
15.104	63.033
15.122	62.9654
15.14	62.9081
15.158	62.8668
15.176	62.8457
15.194	62.8477
15.212	62.8721
15.23	62.916
15.248	62.9748
15.266	63.0426
15.284	63.1117
15.302	63.1747
15.32	63.2255
15.338	63.2586
15.356	63.2692
15.374	63.2551
15.392	63.2161
15.41	63.1531
15.428	63.0682
15.446	62.9664
15.464	62.8527
15.482	62.7326
15.5	62.6121
15.518	62.4989
15.536	62.3982
15.554	62.3147
15.572	62.2531
15.59	62.2156
15.608	62.202
15.626	62.2111
15.644	62.2399
15.662	62.2826
15.68	62.3339
15.698	62.3887
15.716	62.4402
15.734	62.4842
15.752	62.518
15.77	62.5399
15.788	62.5504
15.806	62.5514
15.824	62.5454
15.842	62.5358
15.86	62.5264
15.878	62.5194
15.896	62.5164
15.914	62.5179
15.932	62.5226
15.95	62.5291
15.968	62.5347
15.986	62.5363
16.004	62.532
16.022	62.52
16.04	62.4993
16.058	62.4706
16.076	62.4349
16.094	62.3949
16.112	62.354
16.13	62.3148
16.148	62.2803
16.166	62.2534
16.184	62.2355
16.202	62.2277
16.22	62.2307
16.238	62.2438
16.256	62.2666
16.274	62.2979
16.292	62.3365
16.31	62.3816
16.328	62.432
16.346	62.4873
16.364	62.5471
16.382	62.6106
16.4	62.6772
16.418	62.7463
16.436	62.8165
16.454	62.8862
16.472	62.954
16.49	63.0175
16.508	63.0746
16.526	63.1236
16.544	63.1623
16.562	63.1893
16.58	63.2039
16.598	63.2056
16.616	63.1949
16.634	63.1723
16.652	63.1395
16.67	63.0979
16.688	63.049
16.706	62.995
16.724	62.9369
16.742	62.8762
16.76	62.8141
16.778	62.7512
16.796	62.6881
16.814	62.6253
16.832	62.563
16.85	62.5014
16.868	62.4407
16.886	62.3811
16.904	62.3231
16.922	62.2668
16.94	62.2127
16.958	62.1614
16.976	62.1129
16.994	62.0675
17.012	62.0255
17.03	61.9871
17.048	61.9522
17.066	61.9211
17.084	61.8939
17.102	61.8708
17.12	61.8518
17.138	61.8374
17.156	61.828
17.174	61.8238
17.192	61.8252
17.21	61.8323
17.228	61.8448
17.246	61.8621
17.264	61.8838
17.282	61.9085
17.3	61.9353
17.318	61.9625
17.336	61.9884
17.354	62.012
17.372	62.031
17.39	62.045
17.408	62.0527
17.426	62.0542
17.444	62.0494
17.462	62.0392
17.48	62.0242
17.498	62.006
17.516	61.9859
17.534	61.9649
17.552	61.9451
17.57	61.9269
17.588	61.9117
17.606	61.8994
17.624	61.8904
17.642	61.8838
17.66	61.8796
17.678	61.8763
17.696	61.8736
17.714	61.8702
17.732	61.8654
17.75	61.8587
17.768	61.8494
17.786	61.8376
17.804	61.8234
17.822	61.8071
17.84	61.7894
17.858	61.7708
17.876	61.7521
17.894	61.734
17.912	61.7167
17.93	61.7008
17.948	61.6862
17.966	61.6728
17.984	61.6604
18.002	61.6484
18.02	61.6365
18.038	61.6243
18.056	61.6112
18.074	61.5972
18.092	61.5824
18.11	61.567
18.128	61.5523
18.146	61.5386
18.164	61.5275
18.182	61.5199
18.2	61.5173
18.218	61.5207
18.236	61.531
18.254	61.5489
18.272	61.5747
18.29	61.6081
18.308	61.6488
18.326	61.6952
18.344	61.7469
18.362	61.8017
18.38	61.8586
18.398	61.9151
18.416	61.9703
18.434	62.0222
18.452	62.0697
18.47	62.1115
18.488	62.1466
18.506	62.1748
18.524	62.1953
18.542	62.2081
18.56	62.2131
18.578	62.2105
18.596	62.2003
18.614	62.1827
18.632	62.1582
18.65	62.1268
18.668	62.089
18.686	62.0448
18.704	61.9949
18.722	61.9394
18.74	61.879
18.758	61.814
18.776	61.7454
18.794	61.6738
18.812	61.6003
18.83	61.5254
18.848	61.4507
18.866	61.3767
18.884	61.3047
18.902	61.2351
18.92	61.1692
18.938	61.1071
18.956	61.0496
18.974	60.9966
18.992	60.9485
19.01	60.9051
19.028	60.8661
19.046	60.8314
19.064	60.8006
19.082	60.7734
19.1	60.7495
19.118	60.7291
19.136	60.7118
19.154	60.698
19.172	60.6876
19.19	60.6807
19.208	60.6778
19.226	60.6787
19.244	60.6838
19.262	60.693
19.28	60.7061
19.298	60.723
19.316	60.7428
19.334	60.7655
19.352	60.7893
19.37	60.8144
19.388	60.8383
19.406	60.8612
19.424	60.8806
19.442	60.8965
19.46	60.9068
19.478	60.9115
19.496	60.9094
19.514	60.9003
19.532	60.8841
19.55	60.8607
19.568	60.8309
19.586	60.795
19.604	60.7538
19.622	60.7091
19.64	60.661
19.658	60.6119
19.676	60.5616
19.694	60.5125
19.712	60.4646
19.73	60.4191
19.748	60.3763
19.766	60.3366
19.784	60.3002
19.802	60.2667
19.82	60.2362
19.838	60.2083
19.856	60.1825
19.874	60.1587
19.892	60.1362
19.91	60.1153
19.928	60.0957
19.946	60.0773
19.964	60.0613
19.982	60.0473
20	60.0368
20.018	60.0304
20.036	60.0289
20.054	60.0341
20.072	60.0459
20.09	60.0665
20.108	60.0953
20.126	60.1337
20.144	60.1819
20.162	60.2393
20.18	60.3063
20.198	60.3814
20.216	60.4631
20.234	60.5512
20.252	60.6416
20.27	60.735
20.288	60.8266
20.306	60.9164
20.324	61.0014
20.342	61.0791
20.36	61.1494
20.378	61.2091
20.396	61.2589
20.414	61.297
20.432	61.3232
20.45	61.3384
20.468	61.3423
20.486	61.3361
20.504	61.3212
20.522	61.2976
20.54	61.2686
20.558	61.2337
20.576	61.1955
20.594	61.1551
20.612	61.1127
20.63	61.0705
20.648	61.0279
20.666	60.9857
20.684	60.9442
20.702	60.9031
20.72	60.8626
20.738	60.8224
20.756	60.7818
20.774	60.741
20.792	60.6992
20.81	60.6565
20.828	60.6127
20.846	60.5678
20.864	60.5219
20.882	60.4761
20.9	60.4301
20.918	60.3853
20.936	60.3424
20.954	60.3016
20.972	60.2649
20.99	60.2321
21.008	60.2041
21.026	60.1818
21.044	60.1647
21.062	60.1533
21.08	60.1476
21.098	60.1465
21.116	60.1501
21.134	60.1575
21.152	60.1668
21.17	60.1787
21.188	60.1911
21.206	60.2036
21.224	60.216
21.242	60.2272
21.26	60.2373
21.278	60.2467
21.296	60.2551
21.314	60.2635
21.332	60.2731
21.35	60.2834
21.368	60.2972
21.386	60.3147
21.404	60.3365
21.422	60.3652
21.44	60.4
21.458	60.4421
21.476	60.4925
21.494	60.5503
21.512	60.6149
21.53	60.6871
21.548	60.7644
21.566	60.8455
21.584	60.9308
21.602	61.0148
21.62	61.0987
21.638	61.1793
21.656	61.2524
21.674	61.3198
21.692	61.3762
21.71	61.4202
21.728	61.4518
21.746	61.4674
21.764	61.4676
21.782	61.4516
21.8	61.418
21.818	61.3674
21.836	61.3011
21.854	61.2185
21.872	61.1212
21.89	61.0123
21.908	60.8902
21.926	60.7592
21.944	60.6214
21.962	60.4762
21.98	60.3291
21.998	60.1799
22.016	60.0301
22.034	59.8846
22.052	59.7417
22.07	59.6044
22.088	59.4751
22.106	59.3528
22.124	59.2399
22.142	59.1373
22.16	59.0444
22.178	58.9625
22.196	58.8914
22.214	58.8311
22.232	58.7814
22.25	58.7426
22.268	58.7134
22.286	58.6933
22.304	58.6826
22.322	58.6789
22.34	58.6824
22.358	58.6926
22.376	58.7068
22.394	58.7257
22.412	58.7479
22.43	58.7711
22.448	58.7962
22.466	58.8215
22.484	58.8454
22.502	58.8688
22.52	58.8901
22.538	58.9086
22.556	58.9247
22.574	58.9382
22.592	58.9486
22.61	58.9564
22.628	58.9625
22.646	58.9667
22.664	58.9694
22.682	58.9713
22.7	58.9722
22.718	58.9726
22.736	58.9733
22.754	58.9737
22.772	58.9747
22.79	58.9769
22.808	58.9801
22.826	58.9847
22.844	58.9915
22.862	59
22.88	59.0104
22.898	59.0229
22.916	59.0373
22.934	59.0533
22.952	59.0709
22.97	59.09
22.988	59.1106
23.006	59.1329
23.024	59.1567
23.042	59.1816
23.06	59.2078
23.078	59.2352
23.096	59.2631
23.114	59.2916
23.132	59.3206
23.15	59.3492
23.168	59.3776
23.186	59.4057
23.204	59.4319
23.222	59.4565
23.24	59.4794
23.258	59.4994
23.276	59.5162
23.294	59.5304
23.312	59.5418
23.33	59.5505
23.348	59.5566
23.366	59.5602
23.384	59.5617
23.402	59.5607
23.42	59.557
23.438	59.5503
23.456	59.5408
23.474	59.5288
23.492	59.5139
23.51	59.4963
23.528	59.4774
23.546	59.4574
23.564	59.436
23.582	59.4143
23.6	59.3926
23.618	59.3704
23.636	59.3488
23.654	59.3283
23.672	59.3086
23.69	59.2893
23.708	59.2704
23.726	59.2524
23.744	59.2337
23.762	59.213
23.78	59.191
23.798	59.1672
23.816	59.1412
23.834	59.1124
23.852	59.0821
23.87	59.0517
23.888	59.0199
23.906	58.9882
23.924	58.9595
23.942	58.9329
23.96	58.9089
23.978	58.8918
23.996	58.8819
24.014	58.8777
24.032	58.8868
24.05	58.9133
24.068	58.9526
24.086	59.0123
24.104	59.0996
24.122	59.2107
24.14	59.3479
24.158	59.5158
24.176	59.7141
24.194	59.9415
24.212	60.1982
24.23	60.4857
24.248	60.8027
24.266	61.1445
24.284	61.5091
24.302	61.8997
24.32	62.3087
24.338	62.7289
24.356	63.1664
24.374	63.6147
24.392	64.0636
24.41	64.5163
24.428	64.9715
24.446	65.4189
24.464	65.8536
24.482	66.2805
24.5	66.6954
24.518	67.0952
24.536	67.4826
24.554	67.8551
24.572	68.2087
24.59	68.5446
24.608	68.8627
24.626	69.16
24.644	69.4363
24.662	69.6937
24.68	69.9263
24.698	70.1292
24.716	70.3074
24.734	70.4561
24.752	70.567
24.77	70.6418
24.788	70.6817
24.806	70.6759
24.824	70.617
24.842	70.5123
24.86	70.3556
24.878	70.1385
24.896	69.8636
24.914	69.5313
24.932	69.136
24.95	68.6743
24.968	68.1493
24.986	67.5608
25.004	66.908
25.022	66.1869
25.04	65.4031
25.058	64.5657
25.076	63.6755
25.094	62.7262
25.112	61.7355
25.13	60.7206
25.148	59.6661
25.166	58.5836
25.184	57.5012
25.202	56.4285
25.22	55.3472
25.238	54.2857
25.256	53.2731
25.274	52.2903
25.292	51.3465
25.31	50.4762
25.328	49.6973
25.346	48.9848
25.364	48.3653
25.382	47.8698
25.4	47.4902
25.418	47.2225
25.436	47.0905
25.454	47.1125
25.472	47.2738
25.49	47.5799
25.508	48.0413
25.526	48.6636
25.544	49.4404
25.562	50.3668
25.58	51.439
25.598	52.6672
25.616	54.0402
25.634	55.5373
25.652	57.1496
25.67	58.8962
25.688	60.7495
25.706	62.6774
25.724	64.6856
25.742	66.7837
25.76	68.9331
25.778	71.0992
25.796	73.3118
25.814	75.5545
25.832	77.7843
25.85	79.9744
25.868	82.159
25.886	84.3102
25.904	86.3911
25.922	88.3952
25.94	90.343
25.958	92.208
25.976	93.963
25.994	95.6133
26.012	97.1655
26.03	98.6095
26.048	99.9353
26.066	101.14
26.084	102.235
26.102	103.233
26.12	104.137
26.138	104.933
26.156	105.643
26.174	106.289
26.192	106.873
26.21	107.378
26.228	107.838
26.246	108.292
26.264	108.739
26.282	109.163
26.3	109.591
26.318	110.049
26.336	110.534
26.354	111.037
26.372	111.567
26.39	112.134
26.408	112.745
26.426	113.388
26.444	114.043
26.462	114.699
26.48	115.381
26.498	116.068
26.516	116.722
26.534	117.32
26.552	117.904
26.57	118.44
26.588	118.879
26.606	119.195
26.624	119.427
26.642	119.55
26.66	119.525
26.678	119.332
26.696	119.001
26.714	118.515
26.732	117.853
26.75	116.999
26.768	115.963
26.786	114.756
26.804	113.386
26.822	111.853
26.84	110.143
26.858	108.282
26.876	106.299
26.894	104.2
26.912	101.957
26.93	99.6072
26.948	97.1941
26.966	94.6193
26.984	91.6706
27.002	88.8204
27.02	86.5852
27.028	85.9904