File: Bakgrunnsmateriale/MATLAB/FTIR/ftir_data/subBb/Mapping_121/C-4040-8_t113.asc
PE IR       SPECTRUM    SPECTRUM    ASCII       PEDS        1.60
  -1
C-88C8~1.ASC
17/03/27
23:49:01.00
17/03/27
23:49:27.00
tln
$C-4040-8_t0113$<tbV0>[7.8,13.0,8.0,0.0,27,1,0]
27.028
64

2002,4.07
MIRTGS : RIGHTBACK : INTERNAL 2
MIR : ON : INTERNAL 2
OPTKBR

0.200000
8
8.000000
FILLER
RATIO
SPECTRUM
UNLOCKED 256

DOUBLE
64
COMBINED
1
0
0

0.002000
RATIO

1
0
TRUE
51149
0
LEFT NOT FITTED RIGHT NOT FITTED 0
NONE
NONE
15600
12
4.427000
51148
TRUE
1 0 8 72 0 0 0 0

15798

#HDR
-1
-1
#GR
µM
%T
2.38419e-05
0.0
2.000000
0.002000
12515
8
67.9397
11.1832
#DATA
2.000000	 64.2686
2.018000	 64.8384
2.036000	 65.0368
2.054000	 64.9774
2.072000	 64.9006
2.090000	 64.8617
2.108000	 64.9273
2.126000	 64.8341
2.144000	 65.0627
2.162000	 64.6707
2.180000	 65.2241
2.198000	 65.5368
2.216000	 65.6325
2.234000	 66.1367
2.252000	 66.2948
2.270000	 61.6396
2.288000	 67.8133
2.306000	 66.4461
2.324000	 65.417
2.342000	 65.4815
2.360000	 65.1871
2.378000	 65.5743
2.396000	 65.3148
2.414000	 64.7825
2.432000	 64.9132
2.450000	 64.9352
2.468000	 64.8115
2.486000	 64.8713
2.504000	 64.8658
2.522000	 65.2211
2.540000	 65.0374
2.558000	 65.1585
2.576000	 65.444
2.594000	 65.2583
2.612000	 65.3319
2.630000	 65.1765
2.648000	 65.5957
2.666000	 65.2076
2.684000	 65.3324
2.702000	 65.2736
2.720000	 65.2656
2.738000	 65.2309
2.756000	 65.2525
2.774000	 65.2498
2.792000	 65.1389
2.810000	 65.5456
2.828000	 65.2201
2.846000	 65.2077
2.864000	 65.3096
2.882000	 65.3786
2.900000	 65.0815
2.918000	 65.3828
2.936000	 65.3542
2.954000	 65.2527
2.972000	 65.201
2.990000	 65.1894
3.008000	 65.1218
3.026000	 65.1138
3.044000	 65.2154
3.062000	 65.2475
3.080000	 64.9752
3.098000	 65.0673
3.116000	 65.3359
3.134000	 64.9094
3.152000	 65.2983
3.170000	 65.1388
3.188000	 64.9234
3.206000	 65.3223
3.224000	 65.2986
3.242000	 65.3174
3.260000	 65.2378
3.278000	 65.3232
3.296000	 65.4735
3.314000	 65.2171
3.332000	 65.2551
3.350000	 65.191
3.368000	 65.0384
3.386000	 65.1495
3.404000	 64.9631
3.422000	 64.995
3.440000	 65.0753
3.458000	 65.0358
3.476000	 65.2305
3.494000	 65.0397
3.512000	 65.1478
3.530000	 65.1006
3.548000	 64.9916
3.566000	 65.21
3.584000	 65.0704
3.602000	 65.1284
3.620000	 65.1554
3.638000	 65.257
3.656000	 65.1036
3.674000	 65.2642
3.692000	 65.1406
3.710000	 65.123
3.728000	 65.2359
3.746000	 65.1755
3.764000	 65.2774
3.782000	 65.28
3.800000	 65.1842
3.818000	 65.2506
3.836000	 65.386
3.854000	 65.3063
3.872000	 65.2036
3.890000	 65.2748
3.908000	 65.2474
3.926000	 65.4108
3.944000	 65.2986
3.962000	 65.2436
3.980000	 65.2911
3.998000	 65.3948
4.016000	 64.9875
4.034000	 65.2734
4.052000	 65.3332
4.070000	 65.3845
4.088000	 65.3973
4.106000	 65.6345
4.124000	 65.3171
4.141999	 65.6445
4.160000	 65.2515
4.178000	 65.4082
4.196000	 65.4146
4.214000	 65.3609
4.232000	 65.3403
4.250000	 65.2585
4.268000	 65.334
4.286000	 65.3415
4.304000	 65.2595
4.322000	 65.2141
4.340000	 65.3655
4.358000	 65.308
4.375999	 65.2401
4.394000	 65.2313
4.412000	 65.2936
4.430000	 65.3199
4.448000	 65.3298
4.466000	 65.3271
4.484000	 65.2295
4.502000	 65.2072
4.520000	 65.3522
4.538000	 65.3513
4.556000	 65.3269
4.574000	 65.379
4.592000	 65.3286
4.609999	 65.2522
4.628000	 65.308
4.646000	 65.2417
4.664000	 65.1627
4.682000	 65.3616
4.700000	 65.2954
4.718000	 65.2783
4.736000	 65.4551
4.754000	 65.4437
4.772000	 65.429
4.790000	 65.2892
4.808000	 65.0408
4.826000	 65.2586
4.843999	 65.7466
4.862000	 65.3106
4.880000	 65.2112
4.898000	 65.2706
4.916000	 65.3166
4.934000	 65.5289
4.952000	 65.4129
4.970000	 65.3408
4.988000	 65.3255
5.006000	 65.2137
5.024000	 65.2314
5.042000	 65.3797
5.060000	 65.4636
5.077999	 65.2928
5.096000	 65.241
5.114000	 65.2782
5.132000	 65.2821
5.150000	 65.2104
5.168000	 65.2663
5.186000	 65.29
5.204000	 65.2809
5.222000	 65.3876
5.240000	 65.3389
5.258000	 65.3375
5.276000	 65.3611
5.294000	 65.2512
5.312000	 65.3392
5.330000	 65.3992
5.348000	 65.2542
5.366000	 65.1805
5.384000	 65.2234
5.402000	 65.3028
5.420000	 65.2879
5.438000	 65.158
5.456000	 65.2186
5.474000	 65.3501
5.492000	 65.3294
5.510000	 65.118
5.528000	 65.1101
5.546000	 65.3243
5.564000	 65.3394
5.582000	 65.1989
5.600000	 65.2246
5.618000	 65.2327
5.636000	 65.2905
5.654000	 65.3076
5.672000	 65.1402
5.690000	 64.9854
5.708000	 65.0939
5.726000	 65.0919
5.744000	 65.0636
5.762000	 64.9954
5.780000	 65.079
5.798000	 65.2683
5.816000	 65.0359
5.834000	 64.9856
5.852000	 65.2258
5.870000	 65.3091
5.888000	 65.0762
5.906000	 65.0838
5.923999	 65.1726
5.942000	 65.1525
5.960000	 65.2464
5.978000	 65.313
5.996000	 65.3216
6.014000	 65.2391
6.032000	 65.1447
6.050000	 65.1799
6.068000	 65.2062
6.086000	 65.103
6.104000	 65.2128
6.122000	 65.2381
6.140000	 65.1335
6.158000	 65.1115
6.176000	 65.1616
6.194000	 65.2057
6.212000	 65.1771
6.230000	 65.1011
6.248000	 65.0964
6.266000	 65.1034
6.284000	 64.9775
6.302000	 64.9069
6.320000	 64.8864
6.338000	 64.9154
6.356000	 65.0615
6.374000	 65.0908
6.392000	 64.9535
6.410000	 64.9324
6.428000	 65.1177
6.446000	 65.2417
6.464000	 65.1707
6.482000	 64.9639
6.500000	 64.9103
6.518000	 65.0589
6.536000	 65.1632
6.554000	 65.1872
6.572000	 65.1957
6.590000	 65.1418
6.608000	 65.1153
6.626000	 65.1994
6.644000	 65.2725
6.662000	 65.2778
6.680000	 65.1778
6.698000	 65.032
6.716000	 65.0336
6.734000	 65.1556
6.752000	 65.2437
6.770000	 65.193
6.788000	 65.0689
6.806000	 65.0835
6.824000	 65.1499
6.842000	 65.0841
6.860000	 65.1001
6.878000	 65.2458
6.896000	 65.2049
6.914000	 65.0307
6.932000	 64.9881
6.950000	 65.0361
6.968000	 65.0947
6.986000	 65.1988
7.004000	 65.2777
7.022000	 65.2507
7.040000	 65.1598
7.058000	 65.0704
7.076000	 65.0254
7.094000	 65.0367
7.112000	 65.0442
7.130000	 64.9488
7.148000	 64.8282
7.166000	 64.9008
7.184000	 65.1273
7.202000	 65.2321
7.220000	 65.1087
7.238000	 64.9258
7.256000	 64.893
7.274000	 65.0028
7.292000	 65.0868
7.310000	 65.0941
7.328000	 65.1059
7.346000	 65.1381
7.364000	 65.1373
7.382000	 65.1122
7.400000	 65.1165
7.418000	 65.1185
7.436000	 65.0526
7.454000	 64.9677
7.472000	 64.9454
7.490000	 64.9698
7.508000	 64.9936
7.526000	 64.9906
7.544000	 64.9709
7.562000	 65.0036
7.580000	 65.1071
7.598000	 65.1694
7.616000	 65.1136
7.634000	 65.0102
7.652000	 64.9431
7.670000	 64.9169
7.688000	 64.9128
7.706000	 64.9179
7.724000	 64.9243
7.742000	 64.9343
7.760000	 64.9456
7.778000	 64.9468
7.796000	 64.9433
7.814000	 64.9657
7.832000	 65.0255
7.850000	 65.0817
7.868000	 65.0685
7.886000	 64.9643
7.904000	 64.8346
7.922000	 64.7829
7.940000	 64.8366
7.958000	 64.9162
7.976000	 64.9511
7.994000	 64.9544
8.012000	 64.9536
8.030000	 64.9362
8.048000	 64.8981
8.065999	 64.8714
8.084000	 64.8796
8.102000	 64.9084
8.120000	 64.9273
8.138000	 64.9329
8.155999	 64.9626
8.173999	 65.0466
8.192000	 65.1492
8.210000	 65.1982
8.228000	 65.1676
8.246000	 65.1022
8.263999	 65.0567
8.282000	 65.0422
8.300000	 65.0278
8.318000	 64.9907
8.336000	 64.9588
8.353999	 64.9733
8.372000	 65.0183
8.390000	 65.0322
8.408000	 64.9981
8.426000	 64.9692
8.443999	 64.9853
8.462000	 65.0135
8.480000	 65.0039
8.498000	 64.9572
8.516000	 64.9143
8.533999	 64.9004
8.552000	 64.9031
8.570000	 64.8983
8.588000	 64.8745
8.606000	 64.835
8.624000	 64.7915
8.641999	 64.7633
8.660000	 64.7732
8.678000	 64.8258
8.696000	 64.8892
8.714000	 64.9216
8.731999	 64.9195
8.750000	 64.9187
8.768000	 64.9454
8.786000	 64.9836
8.804000	 64.9978
8.821999	 64.9777
8.840000	 64.9444
8.858000	 64.9214
8.876000	 64.9124
8.894000	 64.9111
8.911999	 64.9181
8.930000	 64.9386
8.948000	 64.97
8.966000	 65.0038
8.984000	 65.0353
9.001999	 65.0706
9.020000	 65.1222
9.038000	 65.1968
9.056000	 65.2787
9.074000	 65.3233
9.092000	 65.282
9.109999	 65.1461
9.128000	 64.9691
9.146000	 64.8327
9.164000	 64.7852
9.182000	 64.8155
9.199999	 64.8768
9.218000	 64.929
9.236000	 64.956
9.254000	 64.9571
9.272000	 64.9371
9.289999	 64.9076
9.308000	 64.8866
9.326000	 64.8878
9.344000	 64.906
9.362000	 64.9179
9.379999	 64.898
9.398000	 64.8387
9.416000	 64.7551
9.434000	 64.6737
9.452000	 64.6145
9.469999	 64.5809
9.488000	 64.5652
9.506000	 64.5649
9.524000	 64.5937
9.542000	 64.6708
9.560000	 64.7966
9.577999	 64.9389
9.596000	 65.0458
9.614000	 65.077
9.632000	 65.0304
9.650000	 64.9393
9.667999	 64.8473
9.686000	 64.7823
9.704000	 64.7465
9.722000	 64.7292
9.740000	 64.7247
9.757999	 64.7407
9.776000	 64.788
9.794000	 64.8631
9.812000	 64.9383
9.830000	 64.9758
9.847999	 64.9557
9.866000	 64.8981
9.884000	 64.8529
9.902000	 64.8617
9.920000	 64.9218
9.937999	 64.9831
9.956000	 64.9898
9.974000	 64.9248
9.992000	 64.8217
10.01	64.7396
10.028	64.7236
10.046	64.7765
10.064	64.865
10.082	64.9457
10.1	64.988
10.118	64.9844
10.136	64.9467
10.154	64.8931
10.172	64.8388
10.19	64.7911
10.208	64.7507
10.226	64.716
10.244	64.6871
10.262	64.6648
10.28	64.6489
10.298	64.6394
10.316	64.6364
10.334	64.6421
10.352	64.6586
10.37	64.6851
10.388	64.7152
10.406	64.7381
10.424	64.7436
10.442	64.7286
10.46	64.6978
10.478	64.6626
10.496	64.6372
10.514	64.633
10.532	64.655
10.55	64.6971
10.568	64.7429
10.586	64.7688
10.604	64.7572
10.622	64.7046
10.64	64.6278
10.658	64.5565
10.676	64.5196
10.694	64.5288
10.712	64.5758
10.73	64.6389
10.748	64.6966
10.766	64.739
10.784	64.7683
10.802	64.79
10.82	64.804
10.838	64.8019
10.856	64.7759
10.874	64.7269
10.892	64.6696
10.91	64.6288
10.928	64.6253
10.946	64.6676
10.964	64.7478
10.982	64.8454
11	64.9381
11.018	65.0073
11.036	65.044
11.054	65.0463
11.072	65.0198
11.09	64.9752
11.108	64.926
11.126	64.8845
11.144	64.8543
11.162	64.8281
11.18	64.7903
11.198	64.7238
11.216	64.6202
11.234	64.4876
11.252	64.3491
11.27	64.2331
11.288	64.1662
11.306	64.1594
11.324	64.2067
11.342	64.2878
11.36	64.3775
11.378	64.4531
11.396	64.5028
11.414	64.5266
11.432	64.5351
11.45	64.5439
11.468	64.5678
11.486	64.6133
11.504	64.6769
11.522	64.7426
11.54	64.7878
11.558	64.7899
11.576	64.7355
11.594	64.6271
11.612	64.4852
11.63	64.3414
11.648	64.228
11.666	64.1712
11.684	64.1794
11.702	64.243
11.72	64.339
11.738	64.438
11.756	64.5154
11.774	64.5544
11.792	64.5512
11.81	64.5127
11.828	64.4513
11.846	64.3818
11.864	64.3153
11.882	64.2575
11.9	64.2088
11.918	64.1657
11.936	64.1264
11.954	64.0929
11.972	64.0739
11.99	64.0829
12.008	64.1349
12.026	64.2395
12.044	64.395
12.062	64.5825
12.08	64.7692
12.098	64.9181
12.116	64.997
12.134	64.9913
12.152	64.9093
12.17	64.7763
12.188	64.6261
12.206	64.4895
12.224	64.3866
12.242	64.3238
12.26	64.2977
12.278	64.2975
12.296	64.3103
12.314	64.3234
12.332	64.3283
12.35	64.3206
12.368	64.3004
12.386	64.2706
12.404	64.2359
12.422	64.2015
12.44	64.1721
12.458	64.1523
12.476	64.1465
12.494	64.1581
12.512	64.1883
12.53	64.2346
12.548	64.2902
12.566	64.3443
12.584	64.3848
12.602	64.4009
12.62	64.3865
12.638	64.3419
12.656	64.274
12.674	64.1957
12.692	64.1212
12.71	64.0611
12.728	64.0205
12.746	63.998
12.764	63.9867
12.782	63.9775
12.8	63.9628
12.818	63.9397
12.836	63.9102
12.854	63.8811
12.872	63.8606
12.89	63.8562
12.908	63.8723
12.926	63.9084
12.944	63.959
12.962	64.0142
12.98	64.0622
12.998	64.0924
13.016	64.0976
13.034	64.0763
13.052	64.0329
13.07	63.9766
13.088	63.9195
13.106	63.8745
13.124	63.8511
13.142	63.855
13.16	63.8873
13.178	63.9453
13.196	64.0228
13.214	64.1123
13.232	64.2059
13.25	64.2967
13.268	64.379
13.286	64.4481
13.304	64.5006
13.322	64.5339
13.34	64.5467
13.358	64.5394
13.376	64.5147
13.394	64.4775
13.412	64.4349
13.43	64.3946
13.448	64.3636
13.466	64.3469
13.484	64.3463
13.502	64.3599
13.52	64.3818
13.538	64.4035
13.556	64.4151
13.574	64.407
13.592	64.3722
13.61	64.3071
13.628	64.213
13.646	64.0962
13.664	63.9671
13.682	63.8387
13.7	63.7244
13.718	63.6353
13.736	63.5792
13.754	63.5583
13.772	63.5701
13.79	63.6085
13.808	63.6647
13.826	63.7284
13.844	63.7908
13.862	63.8452
13.88	63.8877
13.898	63.9171
13.916	63.9337
13.934	63.939
13.952	63.9345
13.97	63.9214
13.988	63.9003
14.006	63.8714
14.024	63.8352
14.042	63.7931
14.06	63.7471
14.078	63.7005
14.096	63.6567
14.114	63.6192
14.132	63.5912
14.15	63.5751
14.168	63.5726
14.186	63.5841
14.204	63.6093
14.222	63.646
14.24	63.691
14.258	63.7394
14.276	63.7862
14.294	63.8257
14.312	63.8524
14.33	63.8618
14.348	63.8509
14.366	63.819
14.384	63.7688
14.402	63.7051
14.42	63.6347
14.438	63.5647
14.456	63.5022
14.474	63.4524
14.492	63.4184
14.51	63.4001
14.528	63.3944
14.546	63.3967
14.564	63.4017
14.582	63.405
14.6	63.403
14.618	63.3944
14.636	63.3796
14.654	63.361
14.672	63.3409
14.69	63.3222
14.708	63.3071
14.726	63.2967
14.744	63.2914
14.762	63.2905
14.78	63.2929
14.798	63.2978
14.816	63.3043
14.834	63.3118
14.852	63.3201
14.87	63.3296
14.888	63.3402
14.906	63.3519
14.924	63.3644
14.942	63.3764
14.96	63.3862
14.978	63.3925
14.996	63.3942
15.014	63.3906
15.032	63.3819
15.05	63.3693
15.068	63.3547
15.086	63.3403
15.104	63.3287
15.122	63.3225
15.14	63.3233
15.158	63.3317
15.176	63.3476
15.194	63.3702
15.212	63.3978
15.23	63.4286
15.248	63.4609
15.266	63.4933
15.284	63.5244
15.302	63.554
15.32	63.5819
15.338	63.6083
15.356	63.6336
15.374	63.6579
15.392	63.6808
15.41	63.7015
15.428	63.7189
15.446	63.7304
15.464	63.7342
15.482	63.7284
15.5	63.7112
15.518	63.6818
15.536	63.6407
15.554	63.5889
15.572	63.5284
15.59	63.4625
15.608	63.3947
15.626	63.3281
15.644	63.2667
15.662	63.2136
15.68	63.171
15.698	63.1403
15.716	63.1227
15.734	63.1177
15.752	63.1245
15.77	63.1419
15.788	63.1671
15.806	63.1978
15.824	63.2315
15.842	63.2651
15.86	63.2956
15.878	63.3211
15.896	63.3401
15.914	63.3513
15.932	63.3554
15.95	63.3529
15.968	63.3455
15.986	63.3359
16.004	63.3264
16.022	63.3191
16.04	63.317
16.058	63.3207
16.076	63.3306
16.094	63.3464
16.112	63.3655
16.13	63.3856
16.148	63.4032
16.166	63.4136
16.184	63.4144
16.202	63.4025
16.22	63.376
16.238	63.3351
16.256	63.2802
16.274	63.2147
16.292	63.1422
16.31	63.0661
16.328	62.9927
16.346	62.9261
16.364	62.8696
16.382	62.8268
16.4	62.7984
16.418	62.7847
16.436	62.7839
16.454	62.793
16.472	62.8098
16.49	62.8291
16.508	62.8475
16.526	62.8626
16.544	62.8706
16.562	62.8712
16.58	62.8638
16.598	62.8498
16.616	62.8312
16.634	62.81
16.652	62.7904
16.67	62.7744
16.688	62.7645
16.706	62.763
16.724	62.7701
16.742	62.7859
16.76	62.8084
16.778	62.836
16.796	62.8652
16.814	62.8925
16.832	62.9155
16.85	62.93
16.868	62.9343
16.886	62.9266
16.904	62.906
16.922	62.873
16.94	62.8279
16.958	62.7738
16.976	62.7121
16.994	62.6464
17.012	62.58
17.03	62.5151
17.048	62.4561
17.066	62.4045
17.084	62.363
17.102	62.333
17.12	62.3149
17.138	62.3091
17.156	62.3144
17.174	62.3301
17.192	62.3535
17.21	62.3837
17.228	62.4179
17.246	62.4542
17.264	62.4912
17.282	62.5271
17.3	62.5615
17.318	62.5938
17.336	62.6245
17.354	62.6538
17.372	62.6831
17.39	62.7128
17.408	62.744
17.426	62.7769
17.444	62.8122
17.462	62.8489
17.48	62.8867
17.498	62.9235
17.516	62.9575
17.534	62.9869
17.552	63.0085
17.57	63.0214
17.588	63.0226
17.606	63.0121
17.624	62.9891
17.642	62.9548
17.66	62.9096
17.678	62.8573
17.696	62.7991
17.714	62.7394
17.732	62.6805
17.75	62.6254
17.768	62.5771
17.786	62.5367
17.804	62.5056
17.822	62.4835
17.84	62.4701
17.858	62.464
17.876	62.4639
17.894	62.4674
17.912	62.4736
17.93	62.4799
17.948	62.4859
17.966	62.49
17.984	62.4922
18.002	62.4923
18.02	62.4911
18.038	62.4889
18.056	62.4874
18.074	62.4869
18.092	62.4896
18.11	62.4958
18.128	62.5073
18.146	62.5241
18.164	62.5474
18.182	62.5769
18.2	62.6126
18.218	62.6541
18.236	62.7013
18.254	62.753
18.272	62.8088
18.29	62.8671
18.308	62.9277
18.326	62.9884
18.344	63.0488
18.362	63.1069
18.38	63.1621
18.398	63.2123
18.416	63.2566
18.434	63.2933
18.452	63.3211
18.47	63.3387
18.488	63.3451
18.506	63.3398
18.524	63.3224
18.542	63.2925
18.56	63.2511
18.578	63.1984
18.596	63.1363
18.614	63.065
18.632	62.9879
18.65	62.9051
18.668	62.8204
18.686	62.7341
18.704	62.65
18.722	62.5685
18.74	62.4926
18.758	62.4226
18.776	62.3609
18.794	62.3073
18.812	62.2631
18.83	62.228
18.848	62.2023
18.866	62.1852
18.884	62.1761
18.902	62.1739
18.92	62.1773
18.938	62.1851
18.956	62.1956
18.974	62.2075
18.992	62.2189
19.01	62.229
19.028	62.2362
19.046	62.24
19.064	62.2394
19.082	62.2344
19.1	62.2245
19.118	62.2103
19.136	62.1919
19.154	62.1699
19.172	62.1452
19.19	62.1183
19.208	62.0902
19.226	62.0612
19.244	62.0324
19.262	62.0035
19.28	61.9751
19.298	61.9469
19.316	61.9184
19.334	61.8897
19.352	61.8595
19.37	61.8278
19.388	61.793
19.406	61.755
19.424	61.7128
19.442	61.6661
19.46	61.6153
19.478	61.5601
19.496	61.5019
19.514	61.4407
19.532	61.3787
19.55	61.3168
19.568	61.2569
19.586	61.2008
19.604	61.1495
19.622	61.1057
19.64	61.0691
19.658	61.0421
19.676	61.0242
19.694	61.0159
19.712	61.0171
19.73	61.0261
19.748	61.0433
19.766	61.0654
19.784	61.0923
19.802	61.1211
19.82	61.1502
19.838	61.1783
19.856	61.2029
19.874	61.2239
19.892	61.239
19.91	61.2487
19.928	61.252
19.946	61.2488
19.964	61.2405
19.982	61.2266
20	61.2092
20.018	61.1892
20.036	61.1676
20.054	61.147
20.072	61.1272
20.09	61.1112
20.108	61.0983
20.126	61.0908
20.144	61.0887
20.162	61.0921
20.18	61.1015
20.198	61.116
20.216	61.1352
20.234	61.1585
20.252	61.1835
20.27	61.2106
20.288	61.2366
20.306	61.2617
20.324	61.2836
20.342	61.3009
20.36	61.3134
20.378	61.3191
20.396	61.3182
20.414	61.31
20.432	61.2942
20.45	61.2714
20.468	61.2413
20.486	61.2048
20.504	61.1632
20.522	61.1162
20.54	61.0665
20.558	61.0136
20.576	60.9598
20.594	60.906
20.612	60.8529
20.63	60.8026
20.648	60.7546
20.666	60.711
20.684	60.6719
20.702	60.6379
20.72	60.6099
20.738	60.5876
20.756	60.5717
20.774	60.562
20.792	60.5584
20.81	60.561
20.828	60.5695
20.846	60.5833
20.864	60.6026
20.882	60.6264
20.9	60.6548
20.918	60.6868
20.936	60.722
20.954	60.7602
20.972	60.7999
20.99	60.8415
21.008	60.8836
21.026	60.9257
21.044	60.9677
21.062	61.0081
21.08	61.0472
21.098	61.084
21.116	61.1182
21.134	61.1498
21.152	61.1781
21.17	61.2033
21.188	61.2254
21.206	61.2443
21.224	61.2604
21.242	61.274
21.26	61.2851
21.278	61.2949
21.296	61.3035
21.314	61.3115
21.332	61.3199
21.35	61.3285
21.368	61.3383
21.386	61.3495
21.404	61.3621
21.422	61.376
21.44	61.3914
21.458	61.4074
21.476	61.4242
21.494	61.4414
21.512	61.4569
21.53	61.4716
21.548	61.4837
21.566	61.4918
21.584	61.4963
21.602	61.4949
21.62	61.4877
21.638	61.474
21.656	61.4524
21.674	61.4233
21.692	61.3864
21.71	61.3411
21.728	61.2883
21.746	61.2292
21.764	61.163
21.782	61.0921
21.8	61.0177
21.818	60.9392
21.836	60.8604
21.854	60.7811
21.872	60.7022
21.89	60.627
21.908	60.5543
21.926	60.4861
21.944	60.4239
21.962	60.3671
21.98	60.3167
21.998	60.2732
22.016	60.2358
22.034	60.2043
22.052	60.1791
22.07	60.1585
22.088	60.1418
22.106	60.1294
22.124	60.1187
22.142	60.1093
22.16	60.101
22.178	60.0918
22.196	60.0819
22.214	60.071
22.232	60.058
22.25	60.0433
22.268	60.0272
22.286	60.0098
22.304	59.9911
22.322	59.9728
22.34	59.9545
22.358	59.9371
22.376	59.9231
22.394	59.9117
22.412	59.9045
22.43	59.9039
22.448	59.9088
22.466	59.9209
22.484	59.9419
22.502	59.9709
22.52	60.0086
22.538	60.0557
22.556	60.1116
22.574	60.1761
22.592	60.2495
22.61	60.331
22.628	60.4189
22.646	60.5139
22.664	60.6145
22.682	60.7178
22.7	60.8253
22.718	60.9343
22.736	61.0414
22.754	61.1485
22.772	61.2525
22.79	61.3508
22.808	61.4452
22.826	61.5324
22.844	61.6105
22.862	61.6807
22.88	61.7407
22.898	61.7894
22.916	61.8275
22.934	61.8534
22.952	61.8663
22.97	61.8668
22.988	61.8542
23.006	61.8284
23.024	61.7895
23.042	61.7379
23.06	61.6731
23.078	61.5958
23.096	61.5072
23.114	61.4068
23.132	61.2954
23.15	61.1751
23.168	61.0454
23.186	60.907
23.204	60.7627
23.222	60.6116
23.24	60.4548
23.258	60.296
23.276	60.1341
23.294	59.9704
23.312	59.8091
23.33	59.6492
23.348	59.4919
23.366	59.342
23.384	59.1987
23.402	59.0626
23.42	58.9386
23.438	58.8264
23.456	58.7259
23.474	58.6413
23.492	58.5732
23.51	58.5206
23.528	58.4861
23.546	58.4702
23.564	58.4722
23.582	58.4928
23.6	58.5328
23.618	58.5915
23.636	58.6679
23.654	58.7615
23.672	58.873
23.69	58.9996
23.708	59.14
23.726	59.2957
23.744	59.4634
23.762	59.6401
23.78	59.8282
23.798	60.0244
23.816	60.2247
23.834	60.4316
23.852	60.6424
23.87	60.8527
23.888	61.0634
23.906	61.2742
23.924	61.4825
23.942	61.6879
23.96	61.891
23.978	62.0915
23.996	62.2891
24.014	62.4841
24.032	62.6763
24.05	62.8655
24.068	63.052
24.086	63.2353
24.104	63.4151
24.122	63.5909
24.14	63.7638
24.158	63.9349
24.176	64.1039
24.194	64.2708
24.212	64.4366
24.23	64.6019
24.248	64.7661
24.266	64.9281
24.284	65.0874
24.302	65.2453
24.32	65.3985
24.338	65.544
24.356	65.6839
24.374	65.8163
24.392	65.9381
24.41	66.0505
24.428	66.153
24.446	66.2415
24.464	66.3149
24.482	66.3751
24.5	66.4187
24.518	66.4432
24.536	66.4507
24.554	66.4395
24.572	66.4071
24.59	66.3534
24.608	66.2793
24.626	66.1845
24.644	66.0686
24.662	65.9315
24.68	65.7753
24.698	65.6014
24.716	65.4084
24.734	65.198
24.752	64.9736
24.77	64.7338
24.788	64.4788
24.806	64.2143
24.824	63.9439
24.842	63.6633
24.86	63.3779
24.878	63.0948
24.896	62.8102
24.914	62.5259
24.932	62.2507
24.95	61.9882
24.968	61.7321
24.986	61.4925
25.004	61.2798
25.022	61.0892
25.04	60.9222
25.058	60.7869
25.076	60.6875
25.094	60.6197
25.112	60.5852
25.13	60.5858
25.148	60.6225
25.166	60.6931
25.184	60.7944
25.202	60.9264
25.22	61.0912
25.238	61.2825
25.256	61.4938
25.274	61.7309
25.292	61.9899
25.31	62.2594
25.328	62.5343
25.346	62.8232
25.364	63.1145
25.382	63.395
25.4	63.6704
25.418	63.9402
25.436	64.1894
25.454	64.4072
25.472	64.6057
25.49	64.7747
25.508	64.8996
25.526	64.9796
25.544	65.0216
25.562	65.0111
25.58	64.9345
25.598	64.8007
25.616	64.6066
25.634	64.3399
25.652	63.9938
25.67	63.5782
25.688	63.0844
25.706	62.5018
25.724	61.8297
25.742	61.0728
25.76	60.2262
25.778	59.285
25.796	58.2473
25.814	57.1186
25.832	55.9054
25.85	54.6097
25.868	53.2229
25.886	51.7593
25.904	50.2362
25.922	48.6513
25.94	46.9951
25.958	45.296
25.976	43.5824
25.994	41.8381
26.012	40.0651
26.03	38.2962
26.048	36.5592
26.066	34.8286
26.084	33.1177
26.102	31.4555
26.12	29.8605
26.138	28.3101
26.156	26.819
26.174	25.4069
26.192	24.0827
26.21	22.8343
26.228	21.6655
26.246	20.5809
26.264	19.5838
26.282	18.6708
26.3	17.836
26.318	17.074
26.336	16.3938
26.354	15.7905
26.372	15.2465
26.39	14.7459
26.408	14.3004
26.426	13.9063
26.444	13.5493
26.462	13.2176
26.48	12.9217
26.498	12.657
26.516	12.4138
26.534	12.1832
26.552	11.9668
26.57	11.7706
26.588	11.6003
26.606	11.4575
26.624	11.333
26.642	11.2384
26.66	11.188
26.678	11.1855
26.696	11.2131
26.714	11.2932
26.732	11.4519
26.75	11.6995
26.768	12.0118
26.786	12.4109
26.804	12.9225
26.822	13.5574
26.84	14.2933
26.858	15.1472
26.876	16.1391
26.894	17.28
26.912	18.5553
26.93	19.9685
26.948	21.5249
26.966	23.3419
26.984	25.5845
27.002	27.8231
27.02	29.5922
27.028	30.0553