File: Bakgrunnsmateriale/MATLAB/FTIR/ftir_data/subBb/Mapping_121/C-4040-8_t121_cm-1.asc
PE IR       SPECTRUM    SPECTRUM    ASCII       PEDS        1.60
  -1
C-468B~1.ASC
17/03/28
00:40:25.00
17/03/28
00:40:25.00
tln
$C-4040-8_t0121$<tbV0>[-13.0,13.0,8.0,0.0,27,1,0]
370
64

2002,4.07
MIRTGS : RIGHTBACK : INTERNAL 2
MIR : ON : INTERNAL 2
OPTKBR

0.200000
8
8.000000
FILLER
RATIO
SPECTRUM
UNLOCKED 256

DOUBLE
64
COMBINED
1
0
0

1.000000
RATIO

1
0
TRUE
51149
0
LEFT NOT FITTED RIGHT NOT FITTED 0
NONE
NONE
15600
12
4.427000
51148
TRUE
1 0 8 72 0 0 0 0

15798

#HDR
-1
-1
#GR
CM-1
%T
2.38419e-05
0.0
5000
-1.000000
4631
8
84.1635
42.2758
#DATA
5000	64.5864
4996	64.3745
4992	64.3369
4988	64.6399
4984	64.9972
4980	65.1187
4976	65.079
4972	64.9341
4968	64.6597
4964	64.2584
4960	63.7595
4956	63.5369
4952	63.8517
4948	64.3079
4944	64.4945
4940	64.6679
4936	65.0581
4932	65.3896
4928	65.4376
4924	65.2501
4920	64.969
4916	64.7127
4912	64.5599
4908	64.5859
4904	64.7922
4900	65.2747
4896	65.6023
4892	65.0342
4888	64.3848
4884	64.6222
4880	65.1501
4876	65.2412
4872	65.0243
4868	64.9373
4864	64.9396
4860	64.7858
4856	64.5343
4852	64.5442
4848	64.8233
4844	64.8717
4840	64.7985
4836	64.7709
4832	64.5714
4828	64.5038
4824	64.6174
4820	64.631
4816	64.7209
4812	64.8295
4808	64.6863
4804	64.6045
4800	64.7319
4796	64.6847
4792	64.5936
4788	64.7584
4784	64.878
4780	64.728
4776	64.4635
4772	64.2478
4768	64.2166
4764	64.4322
4760	64.6591
4756	64.614
4752	64.6173
4748	64.8322
4744	64.9449
4740	64.9714
4736	64.8905
4732	64.6052
4728	64.4083
4724	64.4048
4720	64.5066
4716	64.5367
4712	64.3995
4708	64.3473
4704	64.3692
4700	64.4836
4696	64.6974
4692	64.7597
4688	64.6476
4684	64.4938
4680	64.2906
4676	64.1796
4672	64.361
4668	64.5704
4664	64.6979
4660	64.785
4656	64.7163
4652	64.5962
4648	64.5459
4644	64.6599
4640	64.7847
4636	64.7624
4632	64.7363
4628	64.7631
4624	64.6318
4620	64.2733
4616	64.1292
4612	64.4434
4608	64.9707
4604	65.2554
4600	65.0693
4596	64.7908
4592	64.7489
4588	64.81
4584	64.9683
4580	65.2744
4576	65.4418
4572	65.2659
4568	65.0202
4564	65.025
4560	65.1764
4556	65.47
4552	65.742
4548	65.735
4544	65.6629
4540	65.5809
4536	65.3608
4532	65.1143
4528	65.1636
4524	65.3413
4520	65.2351
4516	65.1943
4512	65.3432
4508	65.3117
4504	65.1981
4500	65.2911
4496	65.5792
4492	65.586
4488	65.1207
4484	64.974
4480	65.4716
4476	65.6876
4472	65.2701
4468	65.1038
4464	65.6389
4460	66.2289
4456	66.1566
4452	65.8807
4448	65.9993
4444	66.2492
4440	66.1656
4436	66.2295
4432	66.4958
4428	66.6158
4424	66.4583
4420	66.4185
4416	65.6646
4412	63.4793
4408	59.5851
4404	57.0972
4400	55.5426
4396	49.1437
4392	49.3032
4388	57.7713
4384	62.5719
4380	65.1887
4376	67.0609
4372	66.8135
4368	66.4467
4364	65.584
4360	64.9301
4356	64.7746
4352	64.8776
4348	65.1086
4344	65.2095
4340	65.2426
4336	65.3288
4332	65.4945
4328	65.801
4324	65.9426
4320	65.904
4316	65.8886
4312	65.7475
4308	65.5264
4304	65.4639
4300	65.4657
4296	65.35
4292	65.2612
4288	65.3692
4284	65.3688
4280	65.2279
4276	65.146
4272	64.9463
4268	64.708
4264	64.6905
4260	64.8
4256	64.7629
4252	64.6977
4248	64.8405
4244	64.9701
4240	64.9366
4236	64.9962
4232	65.3532
4228	65.5749
4224	65.3412
4220	65.0964
4216	65.1355
4212	65.3526
4208	65.422
4204	65.105
4200	64.8558
4196	64.7367
4192	64.005
4188	63.077
4184	63.2767
4180	64.4584
4176	64.9817
4172	64.4661
4168	64.2466
4164	64.5453
4160	64.7063
4156	64.7227
4152	64.7578
4148	64.7584
4144	64.6417
4140	64.4603
4136	64.5052
4132	64.8165
4128	65.0796
4124	65.0659
4120	64.7631
4116	64.4716
4112	64.4597
4108	64.5861
4104	64.6274
4100	64.662
4096	64.8118
4092	64.9324
4088	64.8484
4084	64.7796
4080	64.9148
4076	65.0221
4072	64.9207
4068	64.8052
4064	64.803
4060	64.7799
4056	64.775
4052	64.833
4048	64.7948
4044	64.7339
4040	64.819
4036	64.8633
4032	64.7393
4028	64.6555
4024	64.8228
4020	65.0308
4016	65.0402
4012	64.9682
4008	64.9086
4004	64.9022
4000	64.9338
3996	64.9137
3992	64.7808
3988	64.7331
3984	64.8612
3980	64.9573
3976	64.9683
3972	64.8624
3968	64.8021
3964	64.9527
3960	65.1005
3956	65.1605
3952	65.2126
3948	65.2519
3944	65.1657
3940	64.9429
3936	64.8365
3932	64.7863
3928	64.7127
3924	64.8283
3920	64.9716
3916	64.9299
3912	64.8152
3908	64.7864
3904	64.8377
3900	64.8072
3896	64.7133
3892	64.8063
3888	64.9958
3884	64.9747
3880	64.817
3876	64.8131
3872	65.0566
3868	65.2544
3864	65.1678
3860	64.9778
3856	64.964
3852	65.0918
3848	65.1557
3844	65.0514
3840	64.8853
3836	64.904
3832	64.9626
3828	64.9455
3824	65.1139
3820	65.3632
3816	65.3473
3812	65.1281
3808	64.9508
3804	64.8474
3800	64.8206
3796	64.867
3792	64.9344
3788	65.0242
3784	65.0311
3780	64.9622
3776	64.9274
3772	64.9297
3768	64.9856
3764	65.0518
3760	65.0286
3756	64.8968
3752	64.805
3748	64.8341
3744	64.8908
3740	64.9181
3736	64.8736
3732	64.7939
3728	64.831
3724	64.9323
3720	64.9419
3716	64.8937
3712	64.9022
3708	64.9929
3704	65.0478
3700	65.0132
3696	64.9804
3692	64.9799
3688	64.9722
3684	64.9354
3680	64.903
3676	64.9188
3672	64.9344
3668	64.9237
3664	64.9244
3660	64.9017
3656	64.7683
3652	64.6612
3648	64.7598
3644	64.883
3640	64.9149
3636	64.9246
3632	64.8942
3628	64.8796
3624	64.9369
3620	64.9292
3616	64.8432
3612	64.8552
3608	64.9683
3604	65.0657
3600	65.09
3596	65.0399
3592	64.9193
3588	64.6922
3584	64.5074
3580	64.6179
3576	64.8182
3572	64.8078
3568	64.8002
3564	65.0393
3560	65.3705
3556	65.4731
3552	65.2737
3548	65.0832
3544	65.0404
3540	64.9364
3536	64.7994
3532	64.7578
3528	64.7762
3524	64.8411
3520	64.8395
3516	64.8222
3512	64.8713
3508	64.8341
3504	64.7458
3500	64.7866
3496	64.9261
3492	64.9666
3488	64.9185
3484	64.8997
3480	64.9052
3476	64.8954
3472	64.967
3468	65.1749
3464	65.2222
3460	65.0328
3456	64.9011
3452	64.9182
3448	64.9801
3444	65.0015
3440	64.9693
3436	64.8945
3432	64.8445
3428	64.9127
3424	65.02
3420	65.0548
3416	65.0361
3412	65.0171
3408	65.0502
3404	65.0664
3400	65.0064
3396	64.9306
3392	64.8703
3388	64.8373
3384	64.8135
3380	64.8484
3376	64.9135
3372	64.9415
3368	64.9678
3364	64.9679
3360	64.9249
3356	64.8253
3352	64.7658
3348	64.7652
3344	64.7016
3340	64.6683
3336	64.6775
3332	64.6797
3328	64.7167
3324	64.7509
3320	64.8755
3316	65.0443
3312	64.9296
3308	64.6839
3304	64.6263
3300	64.6479
3296	64.6667
3292	64.7448
3288	64.858
3284	64.8906
3280	64.7636
3276	64.6082
3272	64.6616
3268	64.8377
3264	64.9509
3260	65.0345
3256	65.0127
3252	64.8676
3248	64.7397
3244	64.6212
3240	64.5555
3236	64.6078
3232	64.7107
3228	64.7567
3224	64.7079
3220	64.655
3216	64.7163
3212	64.8515
3208	64.8287
3204	64.6149
3200	64.4961
3196	64.623
3192	64.8085
3188	64.8619
3184	64.7817
3180	64.727
3176	64.7762
3172	64.8309
3168	64.7822
3164	64.7244
3160	64.7982
3156	64.8291
3152	64.7311
3148	64.6506
3144	64.6332
3140	64.6295
3136	64.6377
3132	64.7168
3128	64.8468
3124	64.7787
3120	64.5127
3116	64.5482
3112	64.8991
3108	65.1225
3104	65.1284
3100	64.993
3096	64.8814
3092	64.9112
3088	64.9242
3084	64.9309
3080	64.9599
3076	64.8953
3072	64.8442
3068	64.8896
3064	64.9406
3060	64.9303
3056	64.8546
3052	64.7891
3048	64.8277
3044	64.943
3040	65.0284
3036	65.0774
3032	65.0576
3028	64.9633
3024	64.9342
3020	64.9393
3016	64.9188
3012	64.9245
3008	64.8928
3004	64.8457
3000	64.9246
2996	65.0589
2992	65.063
2988	64.9932
2984	64.9283
2980	64.8325
2976	64.7992
2972	64.8778
2968	64.9435
2964	64.8854
2960	64.7976
2956	64.7784
2952	64.7472
2948	64.7307
2944	64.7921
2940	64.8202
2936	64.8224
2932	64.8269
2928	64.7804
2924	64.7367
2920	64.6888
2916	64.6048
2912	64.5392
2908	64.5628
2904	64.6583
2900	64.7389
2896	64.7806
2892	64.7815
2888	64.7728
2884	64.7508
2880	64.731
2876	64.8127
2872	64.9017
2868	64.8961
2864	64.7896
2860	64.609
2856	64.6214
2852	64.8129
2848	64.8914
2844	64.8903
2840	64.8639
2836	64.8044
2832	64.8011
2828	64.8508
2824	64.8504
2820	64.8119
2816	64.8557
2812	64.9375
2808	64.9534
2804	64.9456
2800	64.9497
2796	64.8922
2792	64.8264
2788	64.8621
2784	64.8973
2780	64.8406
2776	64.8136
2772	64.871
2768	64.9236
2764	64.9529
2760	64.9653
2756	64.9761
2752	64.9462
2748	64.8365
2744	64.752
2740	64.7712
2736	64.8571
2732	64.8853
2728	64.8575
2724	64.9144
2720	64.9713
2716	64.9116
2712	64.8472
2708	64.8678
2704	64.9608
2700	65.0462
2696	65.0461
2692	64.9996
2688	64.9788
2684	64.9652
2680	64.9696
2676	65.0147
2672	65.0315
2668	65.0028
2664	64.9624
2660	64.964
2656	64.9851
2652	64.9598
2648	64.9281
2644	64.9254
2640	64.9036
2636	64.8645
2632	64.8356
2628	64.8152
2624	64.8366
2620	64.867
2616	64.9111
2612	64.9843
2608	65.0005
2604	64.9681
2600	64.9806
2596	65.0081
2592	64.9407
2588	64.8238
2584	64.8135
2580	64.878
2576	64.8876
2572	64.9108
2568	64.9637
2564	64.968
2560	64.9695
2556	65.0198
2552	65.0759
2548	65.0511
2544	65.012
2540	65.0291
2536	65.0491
2532	65.0506
2528	65.0695
2524	65.0612
2520	64.9834
2516	64.9443
2512	64.9418
2508	64.9735
2504	65.0025
2500	64.8852
2496	64.7845
2492	64.8401
2488	64.9518
2484	65.0558
2480	65.065
2476	65.018
2472	65.0286
2468	65.0158
2464	64.9495
2460	65.012
2456	65.159
2452	65.1486
2448	65.0056
2444	64.9093
2440	64.9786
2436	65.1902
2432	65.2146
2428	64.9963
2424	64.9855
2420	65.219
2416	65.5409
2412	65.7298
2408	65.4688
2404	65.0268
2400	64.7929
2396	64.802
2392	64.9298
2388	65.0162
2384	64.9642
2380	64.9025
2376	64.9688
2372	65.0469
2368	65.0532
2364	65.0037
2360	64.9322
2356	64.9384
2352	65.0077
2348	65.02
2344	64.9447
2340	64.834
2336	64.8147
2332	64.9143
2328	64.9618
2324	64.9038
2320	64.8778
2316	64.8937
2312	64.8689
2308	64.896
2304	65.0184
2300	65.0789
2296	65.0428
2292	64.9928
2288	64.9819
2284	64.9861
2280	64.9458
2276	64.9539
2272	65.0347
2268	65.1218
2264	65.1718
2260	65.1015
2256	64.9795
2252	64.974
2248	65.0483
2244	65.0448
2240	64.9514
2236	64.8747
2232	64.8907
2228	64.9248
2224	64.8994
2220	64.8962
2216	64.9354
2212	64.9381
2208	64.9618
2204	65.035
2200	65.0703
2196	65.1377
2192	65.1669
2188	65.0145
2184	64.9057
2180	64.9741
2176	65.0125
2172	64.956
2168	64.9369
2164	64.9844
2160	64.984
2156	64.9474
2152	65.0562
2148	65.2009
2144	65.1597
2140	65.0566
2136	65.0017
2132	64.9339
2128	64.9423
2124	65.0366
2120	65.1005
2116	65.1117
2112	65.0796
2108	65.011
2104	64.9616
2100	64.9777
2096	65.009
2092	65.0421
2088	65.0085
2084	64.8566
2080	64.7876
2076	64.8755
2072	65.0311
2068	65.2356
2064	65.3616
2060	65.2523
2056	65.0312
2052	64.9495
2048	64.9675
2044	64.9809
2040	64.9918
2036	64.9875
2032	65.0207
2028	65.0799
2024	65.1233
2020	65.1279
2016	65.0465
2012	64.9489
2008	64.9399
2004	64.95
2000	64.9026
1996	64.8779
1992	64.9158
1988	64.9958
1984	65.0988
1980	65.1138
1976	65.0437
1972	64.9666
1968	64.9313
1964	65.0054
1960	65.0851
1956	65.0569
1952	64.9867
1948	64.9509
1944	64.9211
1940	64.862
1936	64.8383
1932	64.8736
1928	64.9605
1924	65.0434
1920	65.0426
1916	65.0542
1912	65.0867
1908	65.045
1904	64.9767
1900	64.9546
1896	64.9686
1892	65.0016
1888	65.0374
1884	65.0392
1880	65.0614
1876	65.0944
1872	65.02
1868	64.9062
1864	64.8943
1860	64.9728
1856	65.0641
1852	65.0925
1848	65.0174
1844	64.8976
1840	64.8491
1836	64.9246
1832	65.0265
1828	65.0584
1824	65.0519
1820	65.0162
1816	64.9278
1812	64.8526
1808	64.832
1804	64.874
1800	64.9662
1796	64.9749
1792	64.8634
1788	64.7804
1784	64.8067
1780	64.8505
1776	64.8671
1772	64.92
1768	64.961
1764	64.933
1760	64.8916
1756	64.86
1752	64.8045
1748	64.7075
1744	64.6294
1740	64.5809
1736	64.4842
1732	64.4036
1728	64.4689
1724	64.6266
1720	64.7673
1716	64.8553
1712	64.8543
1708	64.8241
1704	64.8416
1700	64.8459
1696	64.818
1692	64.7861
1688	64.7583
1684	64.8086
1680	64.8866
1676	64.8942
1672	64.8424
1668	64.7751
1664	64.7731
1660	64.7799
1656	64.7392
1652	64.7426
1648	64.7376
1644	64.6988
1640	64.7864
1636	64.8815
1632	64.8107
1628	64.764
1624	64.7834
1620	64.7444
1616	64.7078
1612	64.7354
1608	64.7188
1604	64.6744
1600	64.7401
1596	64.8163
1592	64.7616
1588	64.6579
1584	64.6118
1580	64.6309
1576	64.6584
1572	64.6518
1568	64.6364
1564	64.6778
1560	64.7457
1556	64.728
1552	64.6818
1548	64.654
1544	64.6588
1540	64.7646
1536	64.8784
1532	64.9035
1528	64.8186
1524	64.7155
1520	64.6818
1516	64.6678
1512	64.6652
1508	64.6432
1504	64.6432
1500	64.6938
1496	64.6809
1492	64.6623
1488	64.7659
1484	64.9014
1480	64.9094
1476	64.8068
1472	64.7589
1468	64.8037
1464	64.7985
1460	64.6699
1456	64.5548
1452	64.5506
1448	64.5691
1444	64.6042
1440	64.6673
1436	64.7616
1432	64.8921
1428	64.8768
1424	64.7902
1420	64.7664
1416	64.6661
1412	64.5511
1408	64.538
1404	64.5438
1400	64.521
1396	64.5218
1392	64.6013
1388	64.6714
1384	64.6554
1380	64.6963
1376	64.6989
1372	64.5724
1368	64.5725
1364	64.6847
1360	64.7233
1356	64.6732
1352	64.6087
1348	64.622
1344	64.6428
1340	64.5676
1336	64.5452
1332	64.6404
1328	64.7179
1324	64.7614
1320	64.7585
1316	64.6424
1312	64.5442
1308	64.5538
1304	64.5255
1300	64.4795
1296	64.4756
1292	64.4832
1288	64.5544
1284	64.6465
1280	64.637
1276	64.5977
1272	64.6182
1268	64.5833
1264	64.4613
1260	64.4475
1256	64.5451
1252	64.5617
1248	64.5008
1244	64.4799
1240	64.5443
1236	64.5653
1232	64.5023
1228	64.4626
1224	64.5198
1220	64.5895
1216	64.5452
1212	64.4996
1208	64.553
1204	64.6088
1200	64.61
1196	64.6254
1192	64.5959
1188	64.5325
1184	64.5381
1180	64.5147
1176	64.4315
1172	64.4278
1168	64.5099
1164	64.5679
1160	64.5672
1156	64.5544
1152	64.5565
1148	64.5287
1144	64.5197
1140	64.5982
1136	64.6708
1132	64.61
1128	64.4176
1124	64.2819
1120	64.3622
1116	64.4835
1112	64.4317
1108	64.362
1104	64.3844
1100	64.304
1096	64.0806
1092	63.9288
1088	63.9952
1084	64.1028
1080	64.0896
1076	64.1866
1072	64.4564
1068	64.6212
1064	64.5202
1060	64.2868
1056	64.1306
1052	64.1728
1048	64.2769
1044	64.2164
1040	64.1509
1036	64.1859
1032	64.2345
1028	64.2373
1024	64.1004
1020	63.9662
1016	64.0821
1012	64.1738
1008	64.1383
1004	64.2478
1000	64.2925
996	 64.2135
992	 64.3154
988	 64.4681
984	 64.4779
980	 64.4712
976	 64.4727
972	 64.3748
968	 64.2023
964	 64.0905
960	 63.9979
956	 63.9279
952	 64.0519
948	 64.189
944	 64.16
940	 64.0856
936	 64.0621
932	 64.1564
928	 64.3102
924	 64.3312
920	 64.1995
916	 64.1564
912	 64.2401
908	 64.3604
904	 64.4114
900	 64.098
896	 63.7415
892	 63.7101
888	 63.7608
884	 63.8394
880	 63.9224
876	 63.9479
872	 64.0288
868	 64.1045
864	 63.969
860	 63.799
856	 63.8741
852	 63.8778
848	 63.7532
844	 63.9892
840	 64.2689
836	 64.1237
832	 63.8565
828	 63.7373
824	 63.8934
820	 64.2272
816	 64.1768
812	 63.782
808	 63.8981
804	 64.4303
800	 64.392
796	 63.8903
792	 63.6092
788	 63.524
784	 63.5102
780	 63.4801
776	 63.2816
772	 63.267
768	 63.4586
764	 63.3105
760	 63.1548
756	 63.4008
752	 63.6138
748	 63.8162
744	 64.1507
740	 63.9736
736	 63.3593
732	 62.9602
728	 62.7149
724	 62.6579
720	 62.7285
716	 62.6319
712	 62.5948
708	 62.6179
704	 62.5968
700	 62.7103
696	 62.8403
692	 62.9196
688	 62.8181
684	 62.3599
680	 62.0014
676	 61.9267
672	 61.8163
668	 61.909
664	 62.1166
660	 61.9112
656	 61.7204
652	 61.9979
648	 62.2677
644	 62.3425
640	 62.4693
636	 62.5025
632	 62.4093
628	 62.2435
624	 62.0453
620	 61.9632
616	 61.7063
612	 61.5013
608	 62.0089
604	 62.3289
600	 62.1492
596	 62.194
592	 62.0279
588	 61.6555
584	 61.4002
580	 61.1397
576	 61.2816
572	 61.6394
568	 61.438
564	 61.027
560	 61.0254
556	 61.459
552	 61.8123
548	 61.5762
544	 61.1706
540	 61.0284
536	 60.9017
532	 60.6747
528	 60.6582
524	 60.9295
520	 61.0991
516	 60.8461
512	 60.3023
508	 59.9927
504	 60.02
500	 59.849
496	 59.7092
492	 59.9229
488	 59.7855
484	 59.2563
480	 58.9551
476	 59.0874
472	 59.7357
468	 60.6587
464	 60.9911
460	 60.5561
456	 59.9784
452	 59.3992
448	 58.7207
444	 57.7408
440	 56.511
436	 56.7351
432	 57.9673
428	 57.5203
424	 56.3961
420	 56.3404
416	 58.5338
412	 65.2235
408	 72.6416
404	 77.6844
400	 75.8253
396	 57.1482
392	 42.2758
388	 56.0609
384	 80.8063
380	 78.9886
376	 62.0749
372	 59.3695
370	 62.4125