File: Bakgrunnsmateriale/MATLAB/FTIR/ftir_data/subBb/Mapping_121/C-4040-8_t38_cm-1.asc
PE IR       SPECTRUM    SPECTRUM    ASCII       PEDS        1.60
  -1
C-1B65~1.ASC
17/03/27
17:34:40.00
17/03/27
17:34:40.00
tln
$C-4040-8_t0038$<tbV0>[2.6,-5.2,8.0,0.0,27,1,0]
370
64

2002,4.07
MIRTGS : RIGHTBACK : INTERNAL 2
MIR : ON : INTERNAL 2
OPTKBR

0.200000
8
8.000000
FILLER
RATIO
SPECTRUM
UNLOCKED 256

DOUBLE
64
COMBINED
1
0
0

1.000000
RATIO

1
0
TRUE
51149
0
LEFT NOT FITTED RIGHT NOT FITTED 0
NONE
NONE
15600
12
4.427000
51148
TRUE
1 0 8 72 0 0 0 0

15798

#HDR
-1
-1
#GR
CM-1
%T
2.38419e-05
0.0
5000
-1.000000
4631
8
76.201
4.040956
#DATA
5000	63.8367
4996	63.4818
4992	63.2699
4988	63.1507
4984	63.0793
4980	63.1654
4976	63.2375
4972	63.2141
4968	63.2613
4964	63.1916
4960	63.1744
4956	63.4261
4952	63.4215
4948	63.1359
4944	63.0859
4940	63.214
4936	63.2368
4932	63.25
4928	63.2652
4924	63.1886
4920	63.2732
4916	63.4752
4912	63.5547
4908	63.5938
4904	63.5971
4900	63.6398
4896	63.5765
4892	63.3259
4888	63.2799
4884	63.3083
4880	63.1556
4876	62.9972
4872	63.0402
4868	63.304
4864	63.332
4860	63.0132
4856	62.8194
4852	62.8587
4848	63.0077
4844	63.1546
4840	63.1425
4836	62.984
4832	63.0188
4828	63.304
4824	63.3739
4820	63.2734
4816	63.3107
4812	63.2413
4808	62.9856
4804	62.8326
4800	62.7779
4796	62.7769
4792	62.8778
4788	62.9828
4784	63.068
4780	63.1166
4776	63.043
4772	62.9655
4768	63.0825
4764	63.2017
4760	63.2015
4756	63.2796
4752	63.4131
4748	63.5169
4744	63.5472
4740	63.4488
4736	63.322
4732	63.218
4728	63.1356
4724	63.1865
4720	63.3187
4716	63.3422
4712	63.2993
4708	63.2989
4704	63.2343
4700	63.1547
4696	63.3498
4692	63.4863
4688	63.2418
4684	63.0524
4680	63.1078
4676	63.1898
4672	63.066
4668	62.8521
4664	62.9303
4660	63.2582
4656	63.4631
4652	63.3399
4648	63.1888
4644	63.2025
4640	63.2723
4636	63.4254
4632	63.5558
4628	63.5003
4624	63.1755
4620	62.9994
4616	63.2397
4612	63.4294
4608	63.3908
4604	63.3051
4600	63.2402
4596	63.1461
4592	63.0796
4588	63.0717
4584	63.0576
4580	63.0896
4576	63.1064
4572	63.002
4568	63.0343
4564	63.369
4560	63.4575
4556	63.0815
4552	62.8148
4548	62.911
4544	62.9747
4540	62.6214
4536	62.216
4532	62.2938
4528	62.5688
4524	62.6131
4520	62.4954
4516	62.2697
4512	62.1437
4508	62.3418
4504	62.5821
4500	62.6539
4496	62.7531
4492	62.9226
4488	62.9286
4484	62.7802
4480	62.6823
4476	62.5854
4472	62.4274
4468	62.3374
4464	62.3856
4460	62.6185
4456	62.8004
4452	62.6746
4448	62.5377
4444	62.4627
4440	62.3281
4436	62.3358
4432	62.3262
4428	62.1382
4424	61.9539
4420	61.7476
4416	61.6777
4412	61.9725
4408	62.3521
4404	62.7078
4400	62.8369
4396	62.9399
4392	62.8821
4388	63.1701
4384	62.2577
4380	60.5532
4376	62.6608
4372	64.5039
4368	64.2221
4364	64.254
4360	63.9736
4356	66.9065
4352	73.6052
4348	75.9468
4344	70.5813
4340	65.4371
4336	63.6803
4332	62.5333
4328	62.0932
4324	62.5433
4320	62.6734
4316	62.132
4312	61.6716
4308	61.6593
4304	61.9527
4300	62.0924
4296	62.1313
4292	62.2591
4288	62.2094
4284	62.029
4280	62.0708
4276	62.2944
4272	62.388
4268	62.4403
4264	62.5492
4260	62.4514
4256	62.1509
4252	61.85
4248	61.8508
4244	62.0556
4240	61.974
4236	61.8334
4232	61.9891
4228	62.1539
4224	62.2048
4220	62.2406
4216	62.198
4212	62.1778
4208	62.132
4204	61.9812
4200	61.9314
4196	61.9892
4192	62.1412
4188	62.1762
4184	61.6816
4180	61.1095
4176	61.2497
4172	61.9082
4168	62.3342
4164	62.3524
4160	62.1341
4156	61.955
4152	62.2213
4148	62.6288
4144	62.5548
4140	62.1871
4136	62.0009
4132	61.9455
4128	61.895
4124	61.9357
4120	61.9773
4116	61.9989
4112	61.9828
4108	61.8465
4104	61.7132
4100	61.7099
4096	61.8931
4092	61.9917
4088	61.8356
4084	61.8062
4080	61.9006
4076	61.9403
4072	61.9942
4068	62.0477
4064	62.061
4060	62.0351
4056	62.03
4052	62.0185
4048	62.0086
4044	62.0447
4040	62.0424
4036	62.0231
4032	62.1194
4028	62.1634
4024	62.0034
4020	61.9405
4016	61.944
4012	61.7403
4008	61.545
4004	61.5536
4000	61.6122
3996	61.6533
3992	61.742
3988	61.7731
3984	61.7402
3980	61.7903
3976	61.7709
3972	61.604
3968	61.5741
3964	61.6538
3960	61.5485
3956	61.3133
3952	61.1681
3948	61.169
3944	61.3045
3940	61.4678
3936	61.4896
3932	61.3332
3928	61.2057
3924	61.2596
3920	61.3426
3916	61.3339
3912	61.2487
3908	61.2536
3904	61.3589
3900	61.2901
3896	61.1842
3892	61.2776
3888	61.3303
3884	61.307
3880	61.3924
3876	61.3838
3872	61.2449
3868	61.1975
3864	61.1833
3860	61.1399
3856	61.1566
3852	61.2252
3848	61.3319
3844	61.397
3840	61.2794
3836	61.0591
3832	60.8792
3828	60.9197
3824	61.1143
3820	61.1131
3816	60.9448
3812	60.8459
3808	60.8277
3804	60.8081
3800	60.8225
3796	60.9199
3792	60.9963
3788	60.9189
3784	60.7421
3780	60.7031
3776	60.7642
3772	60.7531
3768	60.8135
3764	60.9686
3760	61.0334
3756	60.9949
3752	60.9333
3748	60.8187
3744	60.6644
3740	60.6205
3736	60.6594
3732	60.7061
3728	60.7548
3724	60.731
3720	60.6319
3716	60.5196
3712	60.436
3708	60.4116
3704	60.4889
3700	60.6067
3696	60.6402
3692	60.5895
3688	60.4946
3684	60.3888
3680	60.2858
3676	60.1923
3672	60.1665
3668	60.2534
3664	60.355
3660	60.3738
3656	60.3397
3652	60.3469
3648	60.4316
3644	60.4332
3640	60.2634
3636	60.1011
3632	60.0524
3628	60.0515
3624	60.1141
3620	60.1887
3616	60.1468
3612	60.0628
3608	60.0829
3604	60.1359
3600	60.0797
3596	59.9677
3592	59.9012
3588	59.8984
3584	59.9242
3580	59.9282
3576	59.9348
3572	59.9531
3568	59.9416
3564	59.9167
3560	59.9147
3556	59.9481
3552	59.9042
3548	59.7562
3544	59.6203
3540	59.5905
3536	59.7168
3532	59.8045
3528	59.6553
3524	59.4234
3520	59.384
3516	59.5448
3512	59.6646
3508	59.6336
3504	59.5236
3500	59.4455
3496	59.4555
3492	59.4836
3488	59.4678
3484	59.4163
3480	59.2994
3476	59.208
3472	59.2322
3468	59.3633
3464	59.4985
3460	59.4708
3456	59.3481
3452	59.3014
3448	59.3255
3444	59.306
3440	59.2617
3436	59.2349
3432	59.1651
3428	59.0324
3424	58.8953
3420	58.8027
3416	58.7805
3412	58.7985
3408	58.7322
3404	58.6873
3400	58.8077
3396	58.891
3392	58.7646
3388	58.5905
3384	58.5366
3380	58.5023
3376	58.5181
3372	58.6313
3368	58.6232
3364	58.4525
3360	58.3502
3356	58.4904
3352	58.6519
3348	58.5963
3344	58.4836
3340	58.4635
3336	58.4001
3332	58.2211
3328	58.1166
3324	58.177
3320	58.2511
3316	58.2268
3312	58.2198
3308	58.3377
3304	58.4014
3300	58.3178
3296	58.226
3292	58.1831
3288	58.154
3284	58.102
3280	58.0224
3276	57.9545
3272	57.908
3268	57.8049
3264	57.7066
3260	57.6662
3256	57.6367
3252	57.6904
3248	57.7413
3244	57.7515
3240	57.6941
3236	57.5431
3232	57.4893
3228	57.5426
3224	57.6431
3220	57.6965
3216	57.5726
3212	57.3894
3208	57.3078
3204	57.3226
3200	57.3767
3196	57.4132
3192	57.3871
3188	57.2906
3184	57.1732
3180	57.0785
3176	56.9799
3172	56.96
3168	56.9908
3164	56.9252
3160	56.8739
3156	56.8646
3152	56.8481
3148	56.8386
3144	56.8277
3140	56.8614
3136	56.8596
3132	56.6996
3128	56.5537
3124	56.5614
3120	56.5808
3116	56.6721
3112	56.8502
3108	56.8257
3104	56.6007
3100	56.4471
3096	56.4134
3092	56.3832
3088	56.3598
3084	56.3867
3080	56.4262
3076	56.4571
3072	56.4599
3068	56.3741
3064	56.2592
3060	56.204
3056	56.1519
3052	56.0248
3048	55.9046
3044	55.8859
3040	55.9031
3036	55.8822
3032	55.8352
3028	55.7919
3024	55.7377
3020	55.7045
3016	55.7106
3012	55.6943
3008	55.6231
3004	55.596
3000	55.6529
2996	55.6762
2992	55.6266
2988	55.5234
2984	55.4536
2980	55.498
2976	55.5393
2972	55.4835
2968	55.3769
2964	55.2484
2960	55.1455
2956	55.1051
2952	55.0917
2948	55.0996
2944	55.071
2940	54.9604
2936	54.8958
2932	54.8321
2928	54.6542
2924	54.4997
2920	54.4459
2916	54.4595
2912	54.5428
2908	54.6488
2904	54.6862
2900	54.6782
2896	54.6417
2892	54.5606
2888	54.4944
2884	54.433
2880	54.4188
2876	54.5428
2872	54.5953
2868	54.4339
2864	54.295
2860	54.2158
2856	54.0666
2852	53.955
2848	54.0027
2844	54.1386
2840	54.2263
2836	54.2289
2832	54.1795
2828	54.118
2824	54.0766
2820	54.0718
2816	54.0378
2812	53.9729
2808	53.97
2804	53.9522
2800	53.8462
2796	53.7339
2792	53.6987
2788	53.6951
2784	53.5982
2780	53.4976
2776	53.4615
2772	53.4115
2768	53.4417
2764	53.4857
2760	53.4453
2756	53.4146
2752	53.3657
2748	53.2505
2744	53.1261
2740	53.0333
2736	52.9743
2732	52.9699
2728	53.0216
2724	53.0257
2720	52.9573
2716	52.8763
2712	52.7953
2708	52.7718
2704	52.779
2700	52.747
2696	52.7336
2692	52.7365
2688	52.6213
2684	52.4583
2680	52.3918
2676	52.3608
2672	52.3519
2668	52.3366
2664	52.2926
2660	52.2514
2656	52.2057
2652	52.1906
2648	52.1671
2644	52.1195
2640	52.1088
2636	52.0967
2632	51.9893
2628	51.8334
2624	51.7752
2620	51.776
2616	51.7272
2612	51.6747
2608	51.6805
2604	51.6427
2600	51.4934
2596	51.3825
2592	51.3968
2588	51.4203
2584	51.366
2580	51.2708
2576	51.2091
2572	51.1764
2568	51.1316
2564	51.106
2560	51.0584
2556	51.0019
2552	50.997
2548	51.0241
2544	51.0032
2540	50.9205
2536	50.862
2532	50.8067
2528	50.7399
2524	50.7204
2520	50.6573
2516	50.5235
2512	50.475
2508	50.4898
2504	50.4569
2500	50.3727
2496	50.2691
2492	50.2434
2488	50.2183
2484	50.0526
2480	49.9256
2476	49.932
2472	49.9195
2468	49.9175
2464	49.9672
2460	49.9151
2456	49.7926
2452	49.749
2448	49.7387
2444	49.7106
2440	49.6196
2436	49.493
2432	49.5206
2428	49.5906
2424	49.4911
2420	49.4439
2416	49.4762
2412	49.3028
2408	49.0775
2404	49.0515
2400	49.0964
2396	49.072
2392	49.0763
2388	49.0943
2384	49.0102
2380	48.9057
2376	48.8736
2372	48.8692
2368	48.8098
2364	48.733
2360	48.6887
2356	48.6274
2352	48.5667
2348	48.541
2344	48.5145
2340	48.4824
2336	48.4666
2332	48.4306
2328	48.3387
2324	48.2383
2320	48.1892
2316	48.1095
2312	47.961
2308	47.8812
2304	47.8269
2300	47.7547
2296	47.775
2292	47.8097
2288	47.7806
2284	47.7485
2280	47.6732
2276	47.5508
2272	47.4995
2268	47.4664
2264	47.3726
2260	47.3255
2256	47.3407
2252	47.3231
2248	47.2511
2244	47.1786
2240	47.1312
2236	47.0884
2232	47.0576
2228	46.9649
2224	46.8187
2220	46.7674
2216	46.7721
2212	46.7292
2208	46.6858
2204	46.6373
2200	46.5283
2196	46.4593
2192	46.4672
2188	46.4559
2184	46.4633
2180	46.474
2176	46.3671
2172	46.2363
2168	46.1611
2164	46.1309
2160	46.11
2156	46.0101
2152	45.9324
2148	45.9281
2144	45.9157
2140	45.8673
2136	45.7901
2132	45.7271
2128	45.6463
2124	45.5644
2120	45.5528
2116	45.5416
2112	45.4762
2108	45.3911
2104	45.3034
2100	45.2229
2096	45.1726
2092	45.1933
2088	45.2707
2084	45.3111
2080	45.2049
2076	45.0297
2072	44.9275
2068	44.8454
2064	44.852
2060	44.9507
2056	44.9047
2052	44.7345
2048	44.6286
2044	44.5768
2040	44.4951
2036	44.4436
2032	44.4363
2028	44.3829
2024	44.2863
2020	44.1899
2016	44.0851
2012	44.0043
2008	44.0084
2004	44.0355
2000	43.9898
1996	43.875
1992	43.7874
1988	43.7629
1984	43.7101
1980	43.6236
1976	43.5711
1972	43.5033
1968	43.4087
1964	43.3877
1960	43.4337
1956	43.4309
1952	43.3444
1948	43.2295
1944	43.1376
1940	43.0851
1936	43.0624
1932	43.0505
1928	43.0063
1924	42.9528
1920	42.9314
1916	42.8911
1912	42.7836
1908	42.6342
1904	42.5053
1900	42.416
1896	42.3548
1892	42.3056
1888	42.2811
1884	42.2666
1880	42.1993
1876	42.1238
1872	42.1068
1868	42.1184
1864	42.1036
1860	42.0419
1856	41.9495
1852	41.8938
1848	41.8763
1844	41.8359
1840	41.768
1836	41.6935
1832	41.6368
1828	41.6058
1824	41.5672
1820	41.5037
1816	41.4467
1812	41.3908
1808	41.3091
1804	41.2741
1800	41.268
1796	41.1902
1792	41.099
1788	41.0095
1784	40.9099
1780	40.8448
1776	40.835
1772	40.8546
1768	40.8074
1764	40.7248
1760	40.7018
1756	40.6632
1752	40.5271
1748	40.3626
1744	40.2334
1740	40.143
1736	40.1384
1732	40.1689
1728	40.0975
1724	39.9776
1720	39.956
1716	40.0213
1712	40.0196
1708	39.9105
1704	39.8024
1700	39.7695
1696	39.7834
1692	39.7699
1688	39.7049
1684	39.6172
1680	39.5502
1676	39.4653
1672	39.3533
1668	39.2981
1664	39.257
1660	39.2168
1656	39.1907
1652	39.1069
1648	39.0297
1644	38.9694
1640	38.9074
1636	38.9267
1632	38.9517
1628	38.8763
1624	38.7385
1620	38.6187
1616	38.5622
1612	38.5415
1608	38.5115
1604	38.4306
1600	38.3313
1596	38.3032
1592	38.2739
1588	38.2075
1584	38.1807
1580	38.161
1576	38.094
1572	37.9843
1568	37.9029
1564	37.9073
1560	37.9013
1556	37.7974
1552	37.6451
1548	37.5706
1544	37.556
1540	37.4547
1536	37.3231
1532	37.2966
1528	37.3493
1524	37.3656
1520	37.2786
1516	37.1692
1512	37.1663
1508	37.1825
1504	37.0806
1500	36.9558
1496	36.8936
1492	36.7957
1488	36.7137
1484	36.7307
1480	36.6858
1476	36.5604
1472	36.4855
1468	36.4831
1464	36.4712
1460	36.4117
1456	36.3524
1452	36.2441
1448	36.1298
1444	36.0849
1440	36.0467
1436	35.9967
1432	35.9612
1428	35.9323
1424	35.8769
1420	35.8702
1416	35.8792
1412	35.763
1408	35.6278
1404	35.6156
1400	35.6229
1396	35.5416
1392	35.4507
1388	35.4321
1384	35.4384
1380	35.4203
1376	35.3457
1372	35.1588
1368	35.0085
1364	35.0263
1360	35.0266
1356	34.9258
1352	34.8616
1348	34.8589
1344	34.8536
1340	34.8288
1336	34.7796
1332	34.6718
1328	34.5327
1324	34.4397
1320	34.394
1316	34.3728
1312	34.3427
1308	34.3061
1304	34.2871
1300	34.264
1296	34.1992
1292	34.0951
1288	34.0521
1284	34.068
1280	34.0375
1276	33.9299
1272	33.8002
1268	33.7419
1264	33.7347
1260	33.7265
1256	33.6928
1252	33.5969
1248	33.4813
1244	33.4275
1240	33.3963
1236	33.3347
1232	33.2679
1228	33.1541
1224	32.9725
1220	32.8778
1216	32.9345
1212	32.9476
1208	32.8367
1204	32.7749
1200	32.8318
1196	32.8303
1192	32.6742
1188	32.5038
1184	32.5211
1180	32.6447
1176	32.6206
1172	32.4835
1168	32.3201
1164	32.1849
1160	32.1179
1156	32.125
1152	32.1837
1148	32.1563
1144	31.9617
1140	31.7233
1136	31.7166
1132	31.8979
1128	31.8926
1124	31.5953
1120	31.3283
1116	31.3023
1112	31.3683
1108	31.4995
1104	31.7187
1100	31.8184
1096	31.5928
1092	31.1921
1088	31.0317
1084	31.014
1080	30.9085
1076	30.874
1072	30.8996
1068	30.8536
1064	30.851
1060	30.8753
1056	30.7074
1052	30.5755
1048	30.669
1044	30.6734
1040	30.4829
1036	30.3569
1032	30.3949
1028	30.3742
1024	30.2374
1020	30.1236
1016	30.0517
1012	29.9889
1008	29.9306
1004	29.8619
1000	29.7464
996	 29.5811
992	 29.4598
988	 29.5215
984	 29.6641
980	 29.6915
976	 29.6065
972	 29.5186
968	 29.4486
964	 29.2836
960	 29.0746
956	 28.9733
952	 28.9781
948	 28.992
944	 28.9304
940	 28.7773
936	 28.7068
932	 28.7044
928	 28.5921
924	 28.5248
920	 28.5561
916	 28.4698
912	 28.2585
908	 28.1835
904	 28.2376
900	 28.2015
896	 28.1465
892	 28.0784
888	 27.9143
884	 27.8309
880	 27.9048
876	 28.0112
872	 27.9732
868	 27.7249
864	 27.5331
860	 27.482
856	 27.285
852	 27.0467
848	 27.1061
844	 27.2386
840	 27.2116
836	 27.1305
832	 27.0138
828	 26.8517
824	 26.7478
820	 26.7521
816	 26.7371
812	 26.7104
808	 26.6238
804	 26.4709
800	 26.3788
796	 26.2903
792	 26.2812
788	 26.3442
784	 26.2735
780	 26.0798
776	 25.8693
772	 25.6562
768	 25.4801
764	 25.3959
760	 25.3995
756	 25.3283
752	 25.1286
748	 25.0517
744	 25.0403
740	 24.9398
736	 24.9816
732	 25.0871
728	 24.8613
724	 24.623
720	 24.7922
716	 24.9758
712	 24.8462
708	 24.5218
704	 24.2334
700	 24.0532
696	 23.8981
692	 23.7273
688	 23.4632
684	 23.2359
680	 23.1952
676	 23.149
672	 23.0592
668	 23.0885
664	 23.0283
660	 22.7256
656	 22.5508
652	 22.6326
648	 22.6541
644	 22.5426
640	 22.472
636	 22.4505
632	 22.2389
628	 21.9192
624	 21.8563
620	 21.8388
616	 21.5794
612	 21.3274
608	 21.1606
604	 20.9408
600	 20.7635
596	 20.7891
592	 21.0061
588	 20.9669
584	 20.5065
580	 20.1038
576	 19.8556
572	 19.6767
568	 19.6516
564	 19.681
560	 19.8013
556	 19.8143
552	 19.6328
548	 19.6414
544	 19.4248
540	 18.6814
536	 18.2053
532	 18.3889
528	 18.6317
524	 18.756
520	 18.8811
516	 18.5156
512	 17.9562
508	 17.8837
504	 17.8982
500	 17.5902
496	 17.177
492	 16.8737
488	 16.6771
484	 16.6261
480	 16.4134
476	 15.8616
472	 15.6795
468	 15.8045
464	 15.4142
460	 14.7456
456	 14.5918
452	 14.8769
448	 14.8561
444	 14.6178
440	 14.4988
436	 15.0797
432	 17.3137
428	 18.5016
424	 16.2315
420	 13.6471
416	 13.8209
412	 14.9755
408	 12.6264
404	 6.188678
400	 4.738712
396	 14.0192
392	 22.7138
388	 21.5709
384	 18.0306
380	 20.9821
376	 29.4996
372	 22.5228
370	 15.0346