File: Bakgrunnsmateriale/MATLAB/FTIR/ftir_data/subBb/Mapping_121/C-4040-8_t02_cm-1.asc
PE IR       SPECTRUM    SPECTRUM    ASCII       PEDS        1.60
  -1
C-9964~1.ASC
17/03/27
14:40:11.00
17/03/27
14:40:11.00
tln
$C-4040-8_t0002$<tbV0>[10.4,-13.0,8.0,0.0,27,1,0]
370
64

2002,4.07
MIRTGS : RIGHTBACK : INTERNAL 2
MIR : ON : INTERNAL 2
OPTKBR

0.200000
8
8.000000
FILLER
RATIO
SPECTRUM
UNLOCKED 256

DOUBLE
64
COMBINED
1
0
0

1.000000
RATIO

1
0
TRUE
51149
0
LEFT NOT FITTED RIGHT NOT FITTED 0
NONE
NONE
15600
12
4.427000
51148
TRUE
1 0 8 72 0 0 0 0

15798

#HDR
-1
-1
#GR
CM-1
%T
2.38419e-05
0.0
5000
-1.000000
4631
8
69.8063
-0.657820
#DATA
5000	63.306
4996	63.1058
4992	63.3732
4988	64.0662
4984	64.093
4980	63.5571
4976	63.1733
4972	63.1932
4968	63.5468
4964	63.2195
4960	62.4459
4956	62.3138
4952	62.6263
4948	62.8477
4944	62.3667
4940	61.9578
4936	62.5163
4932	63.1188
4928	62.6483
4924	61.8814
4920	62.0002
4916	62.7352
4912	63.4888
4908	63.8105
4904	63.851
4900	63.7045
4896	63.4619
4892	63.5026
4888	63.4838
4884	63.4409
4880	63.696
4876	64.0175
4872	63.9736
4868	63.4001
4864	62.9604
4860	63.0152
4856	63.226
4852	63.4013
4848	63.6151
4844	63.7631
4840	63.7084
4836	63.66
4832	63.4999
4828	63.2713
4824	63.2506
4820	63.2671
4816	63.0746
4812	62.7482
4808	62.6573
4804	62.8624
4800	63.0844
4796	63.1706
4792	63.2018
4788	63.1951
4784	63.0793
4780	63.0135
4776	63.0002
4772	62.9151
4768	62.8354
4764	62.6618
4760	62.5015
4756	62.6402
4752	62.8835
4748	63.0014
4744	62.9351
4740	62.9111
4736	63.075
4732	63.0977
4728	62.9552
4724	62.7495
4720	62.5151
4716	62.4644
4712	62.5619
4708	62.7606
4704	62.9925
4700	63.0843
4696	63.0573
4692	63.0466
4688	63.1042
4684	63.1397
4680	63.2113
4676	63.2121
4672	63.0353
4668	62.9305
4664	62.9058
4660	62.9455
4656	63.0689
4652	63.1606
4648	63.2758
4644	63.3475
4640	63.4162
4636	63.5391
4632	63.5445
4628	63.5245
4624	63.539
4620	63.5313
4616	63.4627
4612	63.4402
4608	63.5485
4604	63.5295
4600	63.4055
4596	63.3507
4592	63.2461
4588	63.2985
4584	63.5907
4580	63.8261
4576	63.8164
4572	63.4904
4568	63.2608
4564	63.3422
4560	63.5444
4556	63.6401
4552	63.47
4548	63.4845
4544	63.6482
4540	63.4496
4536	62.9859
4532	62.6479
4528	62.7565
4524	63.2099
4520	63.4937
4516	63.3701
4512	63.1824
4508	63.3163
4504	63.6254
4500	63.8302
4496	63.9245
4492	63.7862
4488	63.6112
4484	63.5837
4480	63.7834
4476	63.7302
4472	63.2503
4468	63.3459
4464	63.7724
4460	64.1285
4456	64.9935
4452	67.1778
4448	69.5892
4444	69.1035
4440	65.7686
4436	61.8321
4432	62.2009
4428	61.1704
4424	46.9597
4420	37.3762
4416	48.1593
4412	61.7691
4408	65.9998
4404	65.5057
4400	64.5339
4396	64.0601
4392	64.0789
4388	64.3879
4384	64.5687
4380	64.4029
4376	64.0493
4372	63.7961
4368	63.7463
4364	63.873
4360	64.1252
4356	64.3577
4352	64.4137
4348	64.2217
4344	63.823
4340	63.4431
4336	63.3075
4332	63.3446
4328	63.2705
4324	63.2523
4320	63.3871
4316	63.3278
4312	63.175
4308	63.091
4304	63.0216
4300	63.0005
4296	62.9866
4292	63.0027
4288	62.9497
4284	62.7675
4280	62.7172
4276	62.8056
4272	62.8623
4268	62.7576
4264	62.5534
4260	62.5535
4256	62.7012
4252	62.7466
4248	62.6451
4244	62.5098
4240	62.4876
4236	62.4766
4232	62.3637
4228	62.28
4224	62.3333
4220	62.4332
4216	62.3553
4212	62.1607
4208	62.212
4204	62.404
4200	62.4669
4196	62.4315
4192	62.0729
4188	61.6405
4184	61.7445
4180	61.9864
4176	61.8319
4172	61.4875
4168	61.4784
4164	61.8731
4160	62.2186
4156	62.2759
4152	62.0446
4148	61.833
4144	61.7815
4140	61.7774
4136	61.9666
4132	62.2051
4128	62.1843
4124	62.0768
4120	62.101
4116	62.1485
4112	62.1188
4108	62.1243
4104	62.2141
4100	62.2235
4096	62.1569
4092	62.1896
4088	62.1956
4084	62.164
4080	62.2634
4076	62.2786
4072	62.0733
4068	61.9419
4064	62.0368
4060	62.1938
4056	62.2388
4052	62.1546
4048	62.1057
4044	62.0925
4040	62.0671
4036	62.1215
4032	62.1974
4028	62.2458
4024	62.2262
4020	62.126
4016	62.0713
4012	62.1051
4008	62.167
4004	62.1695
4000	62.1953
3996	62.3354
3992	62.4033
3988	62.2504
3984	61.9594
3980	61.7561
3976	61.7626
3972	61.8667
3968	61.9747
3964	62.0822
3960	62.1139
3956	62.1049
3952	62.1245
3948	62.1363
3944	62.1112
3940	62.0138
3936	61.912
3932	61.9091
3928	62.0261
3924	62.102
3920	62.0898
3916	62.1525
3912	62.1705
3908	62.1504
3904	62.2522
3900	62.2635
3896	62.1137
3892	61.9265
3888	61.7543
3884	61.6792
3880	61.6894
3876	61.8425
3872	62.0118
3868	62.0056
3864	61.9861
3860	61.9581
3856	61.8446
3852	61.7423
3848	61.7672
3844	61.8811
3840	61.9202
3836	61.8726
3832	61.8319
3828	61.7169
3824	61.4916
3820	61.4749
3816	61.5852
3812	61.553
3808	61.6129
3804	61.8373
3800	61.9058
3796	61.6329
3792	61.3333
3788	61.2965
3784	61.3114
3780	61.2666
3776	61.2931
3772	61.4293
3768	61.5342
3764	61.5102
3760	61.5125
3756	61.5845
3752	61.6493
3748	61.7075
3744	61.7177
3740	61.6607
3736	61.5861
3732	61.5407
3728	61.5571
3724	61.5763
3720	61.562
3716	61.5985
3712	61.5286
3708	61.2612
3704	61.1148
3700	61.1057
3696	61.0563
3692	61.0419
3688	61.0762
3684	61.1076
3680	61.2402
3676	61.4359
3672	61.4522
3668	61.2975
3664	61.1715
3660	61.1513
3656	61.1505
3652	61.1908
3648	61.2033
3644	61.0595
3640	60.9455
3636	60.9815
3632	61.1538
3628	61.265
3624	61.1219
3620	60.9225
3616	60.8397
3612	60.7968
3608	60.7536
3604	60.7679
3600	60.8268
3596	60.8544
3592	60.885
3588	60.9512
3584	60.9159
3580	60.8251
3576	60.7295
3572	60.5594
3568	60.4449
3564	60.5438
3560	60.8141
3556	60.9381
3552	60.8011
3548	60.6694
3544	60.6257
3540	60.5818
3536	60.5388
3532	60.5275
3528	60.575
3524	60.6286
3520	60.5578
3516	60.4497
3512	60.376
3508	60.3049
3504	60.3083
3500	60.338
3496	60.3456
3492	60.3809
3488	60.4317
3484	60.5077
3480	60.6098
3476	60.6306
3472	60.4645
3468	60.2468
3464	60.2189
3460	60.3519
3456	60.402
3452	60.2751
3448	60.12
3444	60.1289
3440	60.2377
3436	60.2841
3432	60.2574
3428	60.0838
3424	59.8851
3420	59.9098
3416	60.0553
3412	60.1293
3408	60.0831
3404	60.0166
3400	59.9746
3396	59.9344
3392	59.9594
3388	59.9614
3384	59.9149
3380	59.9326
3376	59.938
3372	59.8677
3368	59.7931
3364	59.7297
3360	59.63
3356	59.5591
3352	59.574
3348	59.5666
3344	59.5565
3340	59.5947
3336	59.6277
3332	59.6203
3328	59.5389
3324	59.4181
3320	59.349
3316	59.4342
3312	59.5985
3308	59.6327
3304	59.5492
3300	59.4772
3296	59.4902
3292	59.5321
3288	59.4422
3284	59.2645
3280	59.1603
3276	59.1516
3272	59.1921
3268	59.1983
3264	59.1056
3260	59.005
3256	58.9885
3252	59.0226
3248	59.0359
3244	59.0322
3240	59.0438
3236	59.0382
3232	58.9968
3228	58.9029
3224	58.8081
3220	58.8832
3216	59.0781
3212	59.1936
3208	59.1459
3204	58.9074
3200	58.6932
3196	58.6575
3192	58.6787
3188	58.6867
3184	58.6542
3180	58.6301
3176	58.6724
3172	58.7445
3168	58.7901
3164	58.7434
3160	58.6667
3156	58.6265
3152	58.5958
3148	58.5943
3144	58.5642
3140	58.5192
3136	58.4776
3132	58.3675
3128	58.2928
3124	58.3364
3120	58.49
3116	58.6126
3112	58.4946
3108	58.3031
3104	58.2975
3100	58.3487
3096	58.2976
3092	58.2398
3088	58.2375
3084	58.1901
3080	58.1327
3076	58.225
3072	58.2842
3068	58.1703
3064	58.1431
3060	58.2452
3056	58.2902
3052	58.2461
3048	58.1669
3044	58.092
3040	57.9702
3036	57.8222
3032	57.7915
3028	57.849
3024	57.8587
3020	57.8219
3016	57.8031
3012	57.8053
3008	57.7699
3004	57.6768
3000	57.6383
2996	57.6535
2992	57.6557
2988	57.665
2984	57.6295
2980	57.5706
2976	57.5361
2972	57.5266
2968	57.5271
2964	57.4509
2960	57.3585
2956	57.3349
2952	57.3329
2948	57.2899
2944	57.2089
2940	57.1652
2936	57.184
2932	57.2049
2928	57.1067
2924	56.8935
2920	56.7795
2916	56.8465
2912	56.9461
2908	56.9726
2904	56.9905
2900	57.0292
2896	56.9776
2892	56.8829
2888	56.8236
2884	56.7475
2880	56.6538
2876	56.613
2872	56.7018
2868	56.7793
2864	56.7051
2860	56.5539
2856	56.4891
2852	56.543
2848	56.552
2844	56.5592
2840	56.6239
2836	56.6606
2832	56.6109
2828	56.4927
2824	56.437
2820	56.4171
2816	56.3257
2812	56.2607
2808	56.3073
2804	56.3658
2800	56.3604
2796	56.3076
2792	56.2847
2788	56.3112
2784	56.2759
2780	56.1848
2776	56.1015
2772	56.0345
2768	56.0166
2764	56.0134
2760	55.9892
2756	55.9823
2752	56.002
2748	55.9892
2744	55.9283
2740	55.884
2736	55.8514
2732	55.8125
2728	55.7884
2724	55.7788
2720	55.7965
2716	55.8089
2712	55.7487
2708	55.6483
2704	55.6101
2700	55.626
2696	55.6256
2692	55.5968
2688	55.56
2684	55.5148
2680	55.4171
2676	55.3316
2672	55.2833
2668	55.2284
2664	55.2121
2660	55.2124
2656	55.2124
2652	55.2047
2648	55.1543
2644	55.0936
2640	55.0381
2636	54.9941
2632	55.0014
2628	55.0494
2624	55.0651
2620	54.9911
2616	54.8882
2612	54.8109
2608	54.7127
2604	54.6743
2600	54.7222
2596	54.7073
2592	54.6535
2588	54.6328
2584	54.6359
2580	54.6067
2576	54.4944
2572	54.42
2568	54.4389
2564	54.4491
2560	54.3833
2556	54.3038
2552	54.3058
2548	54.34
2544	54.3019
2540	54.1894
2536	54.0974
2532	54.12
2528	54.1887
2524	54.1564
2520	54.0778
2516	54.028
2512	53.9848
2508	53.9877
2504	54.0001
2500	53.9452
2496	53.8938
2492	53.8893
2488	53.8475
2484	53.7854
2480	53.7384
2476	53.6553
2472	53.6028
2468	53.6272
2464	53.6614
2460	53.6545
2456	53.5787
2452	53.5358
2448	53.5962
2444	53.5984
2440	53.4735
2436	53.3511
2432	53.2839
2428	53.224
2424	53.1761
2420	53.126
2416	53.0904
2412	53.1346
2408	53.1166
2404	53.0329
2400	53.0112
2396	53.004
2392	53.0153
2388	52.9945
2384	52.9043
2380	52.8048
2376	52.7491
2372	52.7426
2368	52.727
2364	52.7031
2360	52.6699
2356	52.6444
2352	52.63
2348	52.5902
2344	52.5378
2340	52.5351
2336	52.5778
2332	52.5353
2328	52.4127
2324	52.3335
2320	52.2857
2316	52.2317
2312	52.2128
2308	52.2394
2304	52.2597
2300	52.193
2296	52.0801
2292	52.0234
2288	52.0196
2284	52.0365
2280	52.0363
2276	51.9802
2272	51.8945
2268	51.8353
2264	51.8322
2260	51.8771
2256	51.8838
2252	51.8306
2248	51.7483
2244	51.6525
2240	51.6005
2236	51.5884
2232	51.5735
2228	51.5106
2224	51.4279
2220	51.415
2216	51.4314
2212	51.4264
2208	51.4143
2204	51.3626
2200	51.2749
2196	51.2397
2192	51.2336
2188	51.1242
2184	50.966
2180	50.9086
2176	50.9401
2172	50.918
2168	50.8451
2164	50.8675
2160	50.8723
2156	50.7192
2152	50.6074
2148	50.6736
2144	50.7725
2140	50.7879
2136	50.6719
2132	50.5027
2128	50.446
2124	50.464
2120	50.4683
2116	50.4522
2112	50.3747
2108	50.2467
2104	50.176
2100	50.1928
2096	50.2392
2092	50.2474
2088	50.183
2084	50.0882
2080	50.0185
2076	49.966
2072	49.9219
2068	49.9341
2064	49.9411
2060	49.8685
2056	49.788
2052	49.7646
2048	49.7652
2044	49.755
2040	49.7691
2036	49.7753
2032	49.7418
2028	49.6806
2024	49.5819
2020	49.4889
2016	49.4458
2012	49.449
2008	49.4775
2004	49.4961
2000	49.4844
1996	49.4143
1992	49.2711
1988	49.1494
1984	49.11
1980	49.1055
1976	49.1082
1972	49.104
1968	49.0818
1964	49.0155
1960	48.9318
1956	48.8951
1952	48.8574
1948	48.7891
1944	48.7331
1940	48.6973
1936	48.6832
1932	48.6393
1928	48.5484
1924	48.5057
1920	48.4891
1916	48.4542
1912	48.4297
1908	48.3774
1904	48.2963
1900	48.2531
1896	48.2462
1892	48.2188
1888	48.1378
1884	48.0324
1880	47.9553
1876	47.939
1872	47.9649
1868	47.9857
1864	47.982
1860	47.9317
1856	47.8681
1852	47.8178
1848	47.7484
1844	47.693
1840	47.6537
1836	47.6096
1832	47.6125
1828	47.5962
1824	47.5191
1820	47.5239
1816	47.586
1812	47.5562
1808	47.456
1804	47.3464
1800	47.2872
1796	47.3145
1792	47.3107
1788	47.2454
1784	47.2145
1780	47.198
1776	47.1851
1772	47.1926
1768	47.1607
1764	47.1189
1760	47.1136
1756	47.0771
1752	46.9827
1748	46.8674
1744	46.7769
1740	46.7413
1736	46.7353
1732	46.7458
1728	46.7535
1724	46.712
1720	46.6247
1716	46.5216
1712	46.4535
1708	46.476
1704	46.5533
1700	46.5483
1696	46.4124
1692	46.2832
1688	46.2795
1684	46.2864
1680	46.2003
1676	46.1559
1672	46.157
1668	46.0875
1664	45.9877
1660	45.9638
1656	46.0686
1652	46.1521
1648	46.0803
1644	45.9263
1640	45.7842
1636	45.6843
1632	45.5797
1628	45.4866
1624	45.47
1620	45.4913
1616	45.4819
1612	45.4694
1608	45.4696
1604	45.3872
1600	45.2673
1596	45.2345
1592	45.2359
1588	45.201
1584	45.1285
1580	45.1055
1576	45.1324
1572	45.0494
1568	44.9506
1564	45.0293
1560	45.1144
1556	44.9944
1552	44.8495
1548	44.8898
1544	45.0322
1540	45.0417
1536	44.894
1532	44.7721
1528	44.7641
1524	44.7957
1520	44.7265
1516	44.6351
1512	44.6864
1508	44.7498
1504	44.6704
1500	44.5932
1496	44.544
1492	44.4195
1488	44.3108
1484	44.2422
1480	44.2096
1476	44.1923
1472	44.1521
1468	44.1492
1464	44.1679
1460	44.1644
1456	44.117
1452	43.964
1448	43.8561
1444	43.8032
1440	43.7089
1436	43.6811
1432	43.6314
1428	43.5597
1424	43.5893
1420	43.5933
1416	43.4988
1412	43.3829
1408	43.3127
1404	43.3015
1400	43.298
1396	43.282
1392	43.2882
1388	43.2748
1384	43.2007
1380	43.1317
1376	43.1129
1372	43.0593
1368	42.9064
1364	42.8115
1360	42.806
1356	42.7911
1352	42.8195
1348	42.8936
1344	42.8962
1340	42.7695
1336	42.6506
1332	42.6527
1328	42.6686
1324	42.6288
1320	42.6466
1316	42.6762
1312	42.5864
1308	42.4622
1304	42.4089
1300	42.408
1296	42.4202
1292	42.4318
1288	42.4615
1284	42.4401
1280	42.3074
1276	42.1777
1272	42.1402
1268	42.1684
1264	42.1813
1260	42.1792
1256	42.1968
1252	42.1397
1248	42.0249
1244	41.9625
1240	41.9362
1236	41.9171
1232	41.9443
1228	41.9761
1224	41.9376
1220	41.8429
1216	41.7307
1212	41.6612
1208	41.6561
1204	41.6727
1200	41.6126
1196	41.4577
1192	41.3688
1188	41.3547
1184	41.2929
1180	41.2099
1176	41.1492
1172	41.1033
1168	41.046
1164	40.9803
1160	40.9356
1156	40.888
1152	40.8858
1148	40.9577
1144	40.9696
1140	40.8688
1136	40.7626
1132	40.703
1128	40.6263
1124	40.5657
1120	40.5957
1116	40.6546
1112	40.691
1108	40.676
1104	40.533
1100	40.2731
1096	40.135
1092	40.2288
1088	40.3356
1084	40.311
1080	40.206
1076	40.1338
1072	40.1647
1068	40.2159
1064	40.1727
1060	40.0785
1056	39.9527
1052	39.8273
1048	39.7812
1044	39.7799
1040	39.8439
1036	39.8524
1032	39.7553
1028	39.6975
1024	39.6225
1020	39.6051
1016	39.7089
1012	39.7537
1008	39.6828
1004	39.5372
1000	39.4103
996	 39.354
992	 39.3327
988	 39.3261
984	 39.2986
980	 39.2642
976	 39.1846
972	 39.079
968	 39.0362
964	 38.9628
960	 38.8932
956	 38.8721
952	 38.79
948	 38.7248
944	 38.7894
940	 38.8309
936	 38.7341
932	 38.5968
928	 38.496
924	 38.4497
920	 38.416
916	 38.3809
912	 38.3445
908	 38.2859
904	 38.2799
900	 38.2856
896	 38.1982
892	 38.166
888	 38.2499
884	 38.1784
880	 37.9395
876	 37.8213
872	 37.8027
868	 37.7367
864	 37.6223
860	 37.5307
856	 37.5142
852	 37.5474
848	 37.5629
844	 37.4962
840	 37.4344
836	 37.4086
832	 37.3091
828	 37.1962
824	 37.0804
820	 37.0002
816	 37.093
812	 37.1298
808	 36.9657
804	 36.7908
800	 36.6879
796	 36.7544
792	 36.9546
788	 37.0092
784	 36.8817
780	 36.7229
776	 36.6847
772	 36.7064
768	 36.6434
764	 36.4886
760	 36.3457
756	 36.2925
752	 36.2218
748	 36.1755
744	 36.0914
740	 35.9238
736	 35.8839
732	 35.9369
728	 35.9035
724	 35.753
720	 35.6595
716	 35.6188
712	 35.4132
708	 35.1792
704	 35.2252
700	 35.3137
696	 35.1319
692	 34.761
688	 34.4845
684	 34.4791
680	 34.665
676	 34.8602
672	 34.5364
668	 33.9147
664	 33.7851
660	 34.2822
656	 34.8811
652	 34.5817
648	 33.7356
644	 33.5378
640	 33.8695
636	 33.9514
632	 33.674
628	 33.4405
624	 33.2769
620	 33.165
616	 33.071
612	 32.9833
608	 33.0027
604	 33.0027
600	 32.928
596	 32.6893
592	 32.5403
588	 32.6486
584	 32.4541
580	 32.0291
576	 32.0336
572	 32.3267
568	 32.2273
564	 31.7142
560	 31.2373
556	 30.9626
552	 30.8247
548	 30.8929
544	 31.169
540	 31.0901
536	 30.4481
532	 30.055
528	 30.1727
524	 30.2464
520	 29.9826
516	 29.6673
512	 29.5729
508	 29.1138
504	 28.6553
500	 29.0681
496	 29.6234
492	 29.4171
488	 28.5362
484	 28.1263
480	 28.7154
476	 29.203
472	 28.7419
468	 27.9006
464	 26.9979
460	 25.9195
456	 25.792
452	 26.4153
448	 27.0894
444	 27.7842
440	 27.4428
436	 25.8465
432	 23.9905
428	 23.8625
424	 25.3566
420	 25.7475
416	 23.8132
412	 20.0088
408	 17.5905
404	 20.1448
400	 24.5899
396	 28.3105
392	 33.6333
388	 38.5237
384	 33.2918
380	 18.8299
376	 8.756470
372	 1.916170
370	 -0.657820