File: Bakgrunnsmateriale/MATLAB/FTIR/ftir_data/subBb/Mapping_121/C-4040-8_t77.asc
PE IR       SPECTRUM    SPECTRUM    ASCII       PEDS        1.60
  -1
C-B146~1.ASC
17/03/27
20:48:57.00
17/03/27
20:49:23.00
tln
$C-4040-8_t0077$<tbV0>[-13.0,2.6,8.0,0.0,27,1,0]
27.028
64

2002,4.07
MIRTGS : RIGHTBACK : INTERNAL 2
MIR : ON : INTERNAL 2
OPTKBR

0.200000
8
8.000000
FILLER
RATIO
SPECTRUM
UNLOCKED 256

DOUBLE
64
COMBINED
1
0
0

0.002000
RATIO

1
0
TRUE
51149
0
LEFT NOT FITTED RIGHT NOT FITTED 0
NONE
NONE
15600
12
4.427000
51148
TRUE
1 0 8 72 0 0 0 0

15798

#HDR
-1
-1
#GR
µM
%T
2.38419e-05
0.0
2.000000
0.002000
12515
8
120.841
19.1822
#DATA
2.000000	 64.6724
2.018000	 64.6344
2.036000	 64.6737
2.054000	 64.6654
2.072000	 64.8238
2.090000	 64.6795
2.108000	 65.2759
2.126000	 65.0495
2.144000	 65.1961
2.162000	 64.8202
2.180000	 64.7559
2.198000	 64.3896
2.216000	 64.3321
2.234000	 63.4589
2.252000	 63.4769
2.270000	 61.3432
2.288000	 69.4128
2.306000	 63.8948
2.324000	 64.2801
2.342000	 64.2155
2.360000	 64.6009
2.378000	 64.5865
2.396000	 65.1758
2.414000	 64.8103
2.432000	 64.8407
2.450000	 65.0836
2.468000	 64.9596
2.486000	 65.0788
2.504000	 65.3665
2.522000	 64.7103
2.540000	 64.823
2.558000	 65.1448
2.576000	 64.9703
2.594000	 64.7324
2.612000	 64.5349
2.630000	 64.9028
2.648000	 64.8714
2.666000	 64.9949
2.684000	 65.0849
2.702000	 64.8776
2.720000	 64.941
2.738000	 64.93
2.756000	 65.061
2.774000	 65.0921
2.792000	 65.0905
2.810000	 65.2037
2.828000	 65.0299
2.846000	 64.9851
2.864000	 64.9848
2.882000	 64.6909
2.900000	 65.0956
2.918000	 64.7125
2.936000	 64.92
2.954000	 65.1579
2.972000	 65.1189
2.990000	 64.7531
3.008000	 64.9895
3.026000	 65.0545
3.044000	 64.9545
3.062000	 65.0514
3.080000	 64.84
3.098000	 64.991
3.116000	 65.0301
3.134000	 65.0655
3.152000	 64.9579
3.170000	 64.9255
3.188000	 65.3329
3.206000	 64.8403
3.224000	 65.0258
3.242000	 65.0821
3.260000	 65.1668
3.278000	 65.1297
3.296000	 65.2141
3.314000	 65.0117
3.332000	 64.9256
3.350000	 64.9211
3.368000	 64.7261
3.386000	 64.901
3.404000	 64.9893
3.422000	 64.5315
3.440000	 64.9246
3.458000	 64.934
3.476000	 64.7003
3.494000	 65.0766
3.512000	 64.9416
3.530000	 64.9641
3.548000	 65.0827
3.566000	 65.2032
3.584000	 65.1359
3.602000	 65.1386
3.620000	 65.103
3.638000	 65.2251
3.656000	 65.1858
3.674000	 65.1586
3.692000	 65.102
3.710000	 65.1313
3.728000	 65.1214
3.746000	 65.1254
3.764000	 65.0459
3.782000	 65.0334
3.800000	 65.0147
3.818000	 65.0913
3.836000	 65.0522
3.854000	 64.9591
3.872000	 65.1443
3.890000	 65.0226
3.908000	 65.0522
3.926000	 65.0512
3.944000	 65.0695
3.962000	 65.1315
3.980000	 65.2651
3.998000	 65.236
4.016000	 65.0673
4.034000	 65.1865
4.052000	 65.1085
4.070000	 65.2053
4.088000	 65.2968
4.106000	 65.0865
4.124000	 64.6643
4.141999	 65.2665
4.160000	 65.0609
4.178000	 65.1593
4.196000	 65.229
4.214000	 65.2004
4.232000	 65.0688
4.250000	 65.2181
4.268000	 65.1221
4.286000	 65.1206
4.304000	 65.1351
4.322000	 65.2202
4.340000	 65.2195
4.358000	 65.1362
4.375999	 65.3256
4.394000	 65.2296
4.412000	 65.1912
4.430000	 65.2854
4.448000	 65.323
4.466000	 65.2097
4.484000	 65.2122
4.502000	 65.2235
4.520000	 65.2521
4.538000	 65.1487
4.556000	 65.1888
4.574000	 65.1588
4.592000	 65.1483
4.609999	 65.17
4.628000	 65.0519
4.646000	 65.1714
4.664000	 65.1948
4.682000	 65.2264
4.700000	 65.2162
4.718000	 65.1744
4.736000	 65.1545
4.754000	 65.1667
4.772000	 65.1836
4.790000	 65.2121
4.808000	 65.279
4.826000	 65.3391
4.843999	 65.0024
4.862000	 65.2182
4.880000	 65.3152
4.898000	 65.1581
4.916000	 65.097
4.934000	 65.2419
4.952000	 65.1612
4.970000	 65.146
4.988000	 65.1047
5.006000	 65.0661
5.024000	 65.1829
5.042000	 65.1992
5.060000	 65.1715
5.077999	 65.1626
5.096000	 65.1772
5.114000	 65.2567
5.132000	 65.2147
5.150000	 65.1245
5.168000	 65.0652
5.186000	 65.2112
5.204000	 65.3093
5.222000	 65.2062
5.240000	 65.1948
5.258000	 65.3
5.276000	 65.2375
5.294000	 65.1905
5.312000	 65.178
5.330000	 65.2255
5.348000	 65.2095
5.366000	 65.1358
5.384000	 65.1485
5.402000	 65.1821
5.420000	 65.2615
5.438000	 65.1682
5.456000	 65.171
5.474000	 65.274
5.492000	 65.3737
5.510000	 65.3893
5.528000	 65.3209
5.546000	 65.1491
5.564000	 65.1205
5.582000	 65.0886
5.600000	 65.1755
5.618000	 65.2143
5.636000	 65.1487
5.654000	 65.2079
5.672000	 65.2647
5.690000	 65.2192
5.708000	 65.0567
5.726000	 64.9778
5.744000	 65.0829
5.762000	 65.1224
5.780000	 64.9757
5.798000	 64.9451
5.816000	 65.16
5.834000	 65.3412
5.852000	 64.9922
5.870000	 64.972
5.888000	 65.077
5.906000	 65.1249
5.923999	 65.1429
5.942000	 65.1173
5.960000	 65.1106
5.978000	 65.1211
5.996000	 65.1202
6.014000	 65.0581
6.032000	 65.0424
6.050000	 65.1209
6.068000	 65.0991
6.086000	 65.0036
6.104000	 64.8881
6.122000	 64.9037
6.140000	 64.9655
6.158000	 64.9361
6.176000	 64.9406
6.194000	 64.8927
6.212000	 64.8839
6.230000	 64.9313
6.248000	 64.9684
6.266000	 64.9621
6.284000	 64.9266
6.302000	 64.9382
6.320000	 64.945
6.338000	 64.8774
6.356000	 64.8603
6.374000	 64.8803
6.392000	 64.8582
6.410000	 64.8306
6.428000	 64.8077
6.446000	 64.7843
6.464000	 64.7961
6.482000	 64.8127
6.500000	 64.865
6.518000	 64.8995
6.536000	 64.881
6.554000	 64.9018
6.572000	 64.8983
6.590000	 64.8675
6.608000	 64.9192
6.626000	 65.0396
6.644000	 65.0856
6.662000	 64.9925
6.680000	 64.8624
6.698000	 64.8898
6.716000	 64.9845
6.734000	 64.9698
6.752000	 64.9435
6.770000	 64.9372
6.788000	 64.9077
6.806000	 64.8936
6.824000	 64.9334
6.842000	 65.0272
6.860000	 65.0835
6.878000	 65.0072
6.896000	 64.8652
6.914000	 64.76
6.932000	 64.7718
6.950000	 64.9482
6.968000	 65.1168
6.986000	 65.1202
7.004000	 65.0407
7.022000	 64.9813
7.040000	 64.9568
7.058000	 64.94
7.076000	 64.9476
7.094000	 65.011
7.112000	 65.0416
7.130000	 64.9877
7.148000	 64.9781
7.166000	 65.0383
7.184000	 65.0223
7.202000	 64.931
7.220000	 64.8815
7.238000	 64.8881
7.256000	 64.9115
7.274000	 64.9203
7.292000	 64.9001
7.310000	 64.8652
7.328000	 64.8293
7.346000	 64.8212
7.364000	 64.8529
7.382000	 64.8737
7.400000	 64.8739
7.418000	 64.9048
7.436000	 64.9792
7.454000	 65.0625
7.472000	 65.1006
7.490000	 65.0443
7.508000	 64.9301
7.526000	 64.8638
7.544000	 64.8848
7.562000	 64.9304
7.580000	 64.955
7.598000	 64.9711
7.616000	 64.9767
7.634000	 64.9597
7.652000	 64.9471
7.670000	 64.9604
7.688000	 64.9769
7.706000	 64.9729
7.724000	 64.9482
7.742000	 64.9169
7.760000	 64.9014
7.778000	 64.9242
7.796000	 64.9841
7.814000	 65.0367
7.832000	 65.03
7.850000	 64.9748
7.868000	 64.936
7.886000	 64.9423
7.904000	 64.9684
7.922000	 64.9887
7.940000	 64.9912
7.958000	 64.9736
7.976000	 64.9554
7.994000	 64.9499
8.012000	 64.9284
8.030000	 64.8692
8.048000	 64.8185
8.065999	 64.8365
8.084000	 64.9125
8.102000	 64.9802
8.120000	 64.9924
8.138000	 64.9444
8.155999	 64.8598
8.173999	 64.7839
8.192000	 64.7552
8.210000	 64.7737
8.228000	 64.8216
8.246000	 64.8887
8.263999	 64.9555
8.282000	 64.9921
8.300000	 64.9922
8.318000	 64.9701
8.336000	 64.928
8.353999	 64.8717
8.372000	 64.8356
8.390000	 64.8385
8.408000	 64.8557
8.426000	 64.8673
8.443999	 64.8899
8.462000	 64.924
8.480000	 64.9261
8.498000	 64.8737
8.516000	 64.8048
8.533999	 64.7599
8.552000	 64.7331
8.570000	 64.6993
8.588000	 64.6584
8.606000	 64.6321
8.624000	 64.6389
8.641999	 64.6833
8.660000	 64.7474
8.678000	 64.7915
8.696000	 64.7835
8.714000	 64.7264
8.731999	 64.6509
8.750000	 64.592
8.768000	 64.5747
8.786000	 64.6092
8.804000	 64.6819
8.821999	 64.7569
8.840000	 64.7991
8.858000	 64.7958
8.876000	 64.7546
8.894000	 64.6949
8.911999	 64.6413
8.930000	 64.6125
8.948000	 64.6118
8.966000	 64.6361
8.984000	 64.6919
9.001999	 64.7913
9.020000	 64.9222
9.038000	 65.0376
9.056000	 65.0861
9.074000	 65.0471
9.092000	 64.9327
9.109999	 64.7689
9.128000	 64.5877
9.146000	 64.4318
9.164000	 64.3492
9.182000	 64.3725
9.199999	 64.5017
9.218000	 64.7056
9.236000	 64.9314
9.254000	 65.1153
9.272000	 65.201
9.289999	 65.1683
9.308000	 65.0466
9.326000	 64.8987
9.344000	 64.7789
9.362000	 64.708
9.379999	 64.681
9.398000	 64.6923
9.416000	 64.744
9.434000	 64.8278
9.452000	 64.9098
9.469999	 64.9401
9.488000	 64.8883
9.506000	 64.7799
9.524000	 64.6921
9.542000	 64.6994
9.560000	 64.8151
9.577999	 64.9785
9.596000	 65.1018
9.614000	 65.1259
9.632000	 65.0481
9.650000	 64.9099
9.667999	 64.7646
9.686000	 64.6477
9.704000	 64.5665
9.722000	 64.5115
9.740000	 64.4709
9.757999	 64.4394
9.776000	 64.4167
9.794000	 64.4064
9.812000	 64.4151
9.830000	 64.4493
9.847999	 64.5117
9.866000	 64.5995
9.884000	 64.7041
9.902000	 64.8115
9.920000	 64.9027
9.937999	 64.9539
9.956000	 64.9458
9.974000	 64.8774
9.992000	 64.7723
10.01	64.6721
10.028	64.6122
10.046	64.6003
10.064	64.6172
10.082	64.6343
10.1	64.6324
10.118	64.613
10.136	64.5909
10.154	64.5811
10.172	64.589
10.19	64.6096
10.208	64.6335
10.226	64.6555
10.244	64.6771
10.262	64.7045
10.28	64.7407
10.298	64.7772
10.316	64.7951
10.334	64.7808
10.352	64.7416
10.37	64.7082
10.388	64.7163
10.406	64.78
10.424	64.88
10.442	64.9699
10.46	65.0055
10.478	64.969
10.496	64.8836
10.514	64.7986
10.532	64.7661
10.55	64.8074
10.568	64.9058
10.586	65.0119
10.604	65.0742
10.622	65.0598
10.64	64.9746
10.658	64.8522
10.676	64.7376
10.694	64.6598
10.712	64.6238
10.73	64.6134
10.748	64.6074
10.766	64.5944
10.784	64.5789
10.802	64.5795
10.82	64.616
10.838	64.6972
10.856	64.8105
10.874	64.9228
10.892	64.9947
10.91	64.9933
10.928	64.9109
10.946	64.7666
10.964	64.5988
10.982	64.4509
11	64.3516
11.018	64.3102
11.036	64.317
11.054	64.3539
11.072	64.4067
11.09	64.4675
11.108	64.5349
11.126	64.6087
11.144	64.6861
11.162	64.759
11.18	64.8168
11.198	64.849
11.216	64.851
11.234	64.8274
11.252	64.7917
11.27	64.7596
11.288	64.7448
11.306	64.7509
11.324	64.7695
11.342	64.7845
11.36	64.7813
11.378	64.7526
11.396	64.7041
11.414	64.653
11.432	64.62
11.45	64.6192
11.468	64.6524
11.486	64.7081
11.504	64.7668
11.522	64.8068
11.54	64.8139
11.558	64.7831
11.576	64.7201
11.594	64.6361
11.612	64.5446
11.63	64.4579
11.648	64.3839
11.666	64.3279
11.684	64.293
11.702	64.2799
11.72	64.2864
11.738	64.3066
11.756	64.3311
11.774	64.3496
11.792	64.3546
11.81	64.3453
11.828	64.3293
11.846	64.3198
11.864	64.3313
11.882	64.373
11.9	64.4463
11.918	64.5425
11.936	64.6456
11.954	64.7384
11.972	64.8052
11.99	64.8378
12.008	64.836
12.026	64.8065
12.044	64.76
12.062	64.7067
12.08	64.6539
12.098	64.6055
12.116	64.5639
12.134	64.5316
12.152	64.5116
12.17	64.5069
12.188	64.5187
12.206	64.5442
12.224	64.5761
12.242	64.6041
12.26	64.6173
12.278	64.6075
12.296	64.572
12.314	64.5143
12.332	64.4434
12.35	64.3701
12.368	64.3055
12.386	64.2569
12.404	64.228
12.422	64.2175
12.44	64.2204
12.458	64.2294
12.476	64.236
12.494	64.2326
12.512	64.2145
12.53	64.1814
12.548	64.1387
12.566	64.0953
12.584	64.0625
12.602	64.0499
12.62	64.0633
12.638	64.1017
12.656	64.1581
12.674	64.2213
12.692	64.2789
12.71	64.3211
12.728	64.3426
12.746	64.3441
12.764	64.331
12.782	64.3115
12.8	64.2935
12.818	64.2825
12.836	64.2804
12.854	64.2847
12.872	64.2918
12.89	64.2961
12.908	64.2926
12.926	64.2777
12.944	64.2498
12.962	64.2099
12.98	64.1605
12.998	64.1052
13.016	64.0481
13.034	63.9932
13.052	63.9441
13.07	63.9037
13.088	63.8748
13.106	63.8592
13.124	63.8585
13.142	63.8729
13.16	63.9006
13.178	63.9381
13.196	63.9802
13.214	64.0209
13.232	64.0542
13.25	64.0759
13.268	64.0843
13.286	64.0801
13.304	64.0665
13.322	64.0477
13.34	64.0283
13.358	64.0105
13.376	63.9942
13.394	63.9763
13.412	63.9525
13.43	63.9178
13.448	63.869
13.466	63.8057
13.484	63.7309
13.502	63.6508
13.52	63.5737
13.538	63.508
13.556	63.4609
13.574	63.4375
13.592	63.4396
13.61	63.4659
13.628	63.5127
13.646	63.5744
13.664	63.6452
13.682	63.7192
13.7	63.7922
13.718	63.861
13.736	63.924
13.754	63.9804
13.772	64.0299
13.79	64.0724
13.808	64.1069
13.826	64.1326
13.844	64.148
13.862	64.152
13.88	64.1438
13.898	64.1237
13.916	64.0934
13.934	64.0548
13.952	64.011
13.97	63.965
13.988	63.9195
14.006	63.8761
14.024	63.8349
14.042	63.7948
14.06	63.7539
14.078	63.7099
14.096	63.6611
14.114	63.6071
14.132	63.5488
14.15	63.489
14.168	63.4316
14.186	63.3812
14.204	63.3423
14.222	63.3184
14.24	63.3114
14.258	63.3214
14.276	63.3462
14.294	63.3818
14.312	63.4237
14.33	63.4673
14.348	63.5085
14.366	63.5436
14.384	63.571
14.402	63.5911
14.42	63.6057
14.438	63.6171
14.456	63.628
14.474	63.641
14.492	63.6577
14.51	63.6788
14.528	63.7038
14.546	63.731
14.564	63.7581
14.582	63.7823
14.6	63.8014
14.618	63.8133
14.636	63.8169
14.654	63.8118
14.672	63.7987
14.69	63.7786
14.708	63.753
14.726	63.7236
14.744	63.6918
14.762	63.6593
14.78	63.6265
14.798	63.594
14.816	63.5617
14.834	63.5289
14.852	63.4952
14.87	63.4594
14.888	63.4205
14.906	63.3771
14.924	63.3279
14.942	63.2719
14.96	63.2091
14.978	63.14
14.996	63.0664
15.014	62.9906
15.032	62.9164
15.05	62.8481
15.068	62.7899
15.086	62.7457
15.104	62.7188
15.122	62.7112
15.14	62.723
15.158	62.7524
15.176	62.7967
15.194	62.8514
15.212	62.9102
15.23	62.9674
15.248	63.0177
15.266	63.0567
15.284	63.0802
15.302	63.0871
15.32	63.0776
15.338	63.0532
15.356	63.0173
15.374	62.9748
15.392	62.9303
15.41	62.8884
15.428	62.8539
15.446	62.8306
15.464	62.8205
15.482	62.8247
15.5	62.843
15.518	62.8731
15.536	62.912
15.554	62.9567
15.572	63.0035
15.59	63.0484
15.608	63.0893
15.626	63.1244
15.644	63.1528
15.662	63.1752
15.68	63.1925
15.698	63.206
15.716	63.217
15.734	63.2264
15.752	63.2346
15.77	63.2417
15.788	63.2465
15.806	63.2479
15.824	63.2446
15.842	63.2352
15.86	63.2186
15.878	63.1951
15.896	63.165
15.914	63.13
15.932	63.0924
15.95	63.054
15.968	63.0173
15.986	62.9846
16.004	62.9572
16.022	62.9361
16.04	62.9213
16.058	62.9119
16.076	62.9071
16.094	62.9055
16.112	62.9056
16.13	62.9068
16.148	62.908
16.166	62.9091
16.184	62.91
16.202	62.9105
16.22	62.9111
16.238	62.9118
16.256	62.9129
16.274	62.9146
16.292	62.9173
16.31	62.9211
16.328	62.9268
16.346	62.935
16.364	62.9464
16.382	62.962
16.4	62.9822
16.418	63.0071
16.436	63.0365
16.454	63.0689
16.472	63.1031
16.49	63.136
16.508	63.1645
16.526	63.1861
16.544	63.1963
16.562	63.1927
16.58	63.1733
16.598	63.1364
16.616	63.083
16.634	63.0136
16.652	62.9322
16.67	62.8424
16.688	62.7478
16.706	62.6553
16.724	62.568
16.742	62.4908
16.76	62.4272
16.778	62.3785
16.796	62.3466
16.814	62.3302
16.832	62.3286
16.85	62.3392
16.868	62.3593
16.886	62.3869
16.904	62.4184
16.922	62.4524
16.94	62.4869
16.958	62.5212
16.976	62.555
16.994	62.588
17.012	62.6211
17.03	62.655
17.048	62.6906
17.066	62.7285
17.084	62.7695
17.102	62.8132
17.12	62.8597
17.138	62.908
17.156	62.9569
17.174	63.0055
17.192	63.0515
17.21	63.0943
17.228	63.1321
17.246	63.1638
17.264	63.1886
17.282	63.2054
17.3	63.2142
17.318	63.2146
17.336	63.2071
17.354	63.1916
17.372	63.1692
17.39	63.1404
17.408	63.1061
17.426	63.0676
17.444	63.0253
17.462	62.9811
17.48	62.9354
17.498	62.8899
17.516	62.8458
17.534	62.8038
17.552	62.7656
17.57	62.7317
17.588	62.7033
17.606	62.6805
17.624	62.6641
17.642	62.6535
17.66	62.6488
17.678	62.6487
17.696	62.6529
17.714	62.6597
17.732	62.668
17.75	62.6764
17.768	62.6833
17.786	62.6882
17.804	62.6892
17.822	62.6862
17.84	62.6785
17.858	62.6668
17.876	62.6509
17.894	62.6328
17.912	62.6128
17.93	62.5936
17.948	62.5756
17.966	62.5621
17.984	62.554
18.002	62.554
18.02	62.5629
18.038	62.5823
18.056	62.6123
18.074	62.6532
18.092	62.7036
18.11	62.7633
18.128	62.8293
18.146	62.9003
18.164	62.9726
18.182	63.0437
18.2	63.1103
18.218	63.1693
18.236	63.2186
18.254	63.2555
18.272	63.2789
18.29	63.2878
18.308	63.2822
18.326	63.263
18.344	63.231
18.362	63.1889
18.38	63.1378
18.398	63.0812
18.416	63.0209
18.434	62.9601
18.452	62.9007
18.47	62.8446
18.488	62.7931
18.506	62.7471
18.524	62.7065
18.542	62.6714
18.56	62.6406
18.578	62.6138
18.596	62.5889
18.614	62.5656
18.632	62.5418
18.65	62.5176
18.668	62.4914
18.686	62.4635
18.704	62.4338
18.722	62.4025
18.74	62.3704
18.758	62.3381
18.776	62.307
18.794	62.2773
18.812	62.2504
18.83	62.226
18.848	62.2048
18.866	62.1861
18.884	62.1696
18.902	62.1542
18.92	62.1387
18.938	62.1219
18.956	62.102
18.974	62.0781
18.992	62.0483
19.01	62.0124
19.028	61.9689
19.046	61.9186
19.064	61.8612
19.082	61.798
19.1	61.7301
19.118	61.6593
19.136	61.5882
19.154	61.5183
19.172	61.4534
19.19	61.3943
19.208	61.3454
19.226	61.3067
19.244	61.2817
19.262	61.2701
19.28	61.2738
19.298	61.2921
19.316	61.3245
19.334	61.3709
19.352	61.4282
19.37	61.4963
19.388	61.5709
19.406	61.652
19.424	61.7342
19.442	61.8178
19.46	61.8977
19.478	61.9735
19.496	62.0418
19.514	62.1015
19.532	62.1512
19.55	62.1896
19.568	62.2168
19.586	62.2321
19.604	62.2361
19.622	62.2293
19.64	62.2121
19.658	62.1866
19.676	62.1526
19.694	62.1132
19.712	62.068
19.73	62.0202
19.748	61.9694
19.766	61.9181
19.784	61.8668
19.802	61.8164
19.82	61.7678
19.838	61.7212
19.856	61.6773
19.874	61.6361
19.892	61.5978
19.91	61.5624
19.928	61.53
19.946	61.5007
19.964	61.4742
19.982	61.4505
20	61.4295
20.018	61.411
20.036	61.395
20.054	61.3814
20.072	61.3702
20.09	61.3616
20.108	61.3554
20.126	61.3516
20.144	61.3502
20.162	61.3512
20.18	61.3547
20.198	61.3607
20.216	61.369
20.234	61.3798
20.252	61.3933
20.27	61.4094
20.288	61.4284
20.306	61.4502
20.324	61.4749
20.342	61.5028
20.36	61.5338
20.378	61.5682
20.396	61.6059
20.414	61.647
20.432	61.6915
20.45	61.739
20.468	61.7897
20.486	61.8431
20.504	61.8986
20.522	61.9564
20.54	62.0148
20.558	62.0743
20.576	62.1332
20.594	62.1908
20.612	62.2466
20.63	62.2991
20.648	62.3485
20.666	62.3928
20.684	62.4321
20.702	62.4657
20.72	62.493
20.738	62.5139
20.756	62.5278
20.774	62.5348
20.792	62.5351
20.81	62.529
20.828	62.5165
20.846	62.498
20.864	62.4733
20.882	62.443
20.9	62.4072
20.918	62.3658
20.936	62.319
20.954	62.2666
20.972	62.2086
20.99	62.1451
21.008	62.0758
21.026	62.0004
21.044	61.9192
21.062	61.8319
21.08	61.7385
21.098	61.6397
21.116	61.5353
21.134	61.4261
21.152	61.3134
21.17	61.1968
21.188	61.0789
21.206	60.9597
21.224	60.8405
21.242	60.724
21.26	60.6092
21.278	60.4998
21.296	60.3958
21.314	60.2982
21.332	60.2097
21.35	60.1296
21.368	60.0592
21.386	59.9993
21.404	59.9494
21.422	59.9099
21.44	59.881
21.458	59.8613
21.476	59.8506
21.494	59.8485
21.512	59.8528
21.53	59.8643
21.548	59.8808
21.566	59.9009
21.584	59.9249
21.602	59.9505
21.62	59.9781
21.638	60.0066
21.656	60.0345
21.674	60.0623
21.692	60.0894
21.71	60.1155
21.728	60.1408
21.746	60.1657
21.764	60.1897
21.782	60.2139
21.8	60.239
21.818	60.2648
21.836	60.2918
21.854	60.3201
21.872	60.3499
21.89	60.382
21.908	60.416
21.926	60.4526
21.944	60.4922
21.962	60.5346
21.98	60.58
21.998	60.6285
22.016	60.6799
22.034	60.7336
22.052	60.7901
22.07	60.8482
22.088	60.9073
22.106	60.9678
22.124	61.028
22.142	61.088
22.16	61.1475
22.178	61.2042
22.196	61.259
22.214	61.3106
22.232	61.3571
22.25	61.3995
22.268	61.4363
22.286	61.4664
22.304	61.4906
22.322	61.508
22.34	61.5182
22.358	61.5218
22.376	61.5191
22.394	61.5096
22.412	61.4944
22.43	61.4749
22.448	61.4501
22.466	61.4224
22.484	61.3934
22.502	61.362
22.52	61.3318
22.538	61.3037
22.556	61.2772
22.574	61.2559
22.592	61.24
22.61	61.2296
22.628	61.2274
22.646	61.2329
22.664	61.2466
22.682	61.2698
22.7	61.3025
22.718	61.344
22.736	61.3941
22.754	61.4532
22.772	61.5196
22.79	61.5924
22.808	61.6725
22.826	61.7565
22.844	61.8428
22.862	61.9326
22.88	62.0213
22.898	62.1073
22.916	62.1919
22.934	62.2693
22.952	62.3378
22.97	62.3989
22.988	62.4481
23.006	62.485
23.024	62.51
23.042	62.5197
23.06	62.514
23.078	62.4929
23.096	62.4537
23.114	62.3962
23.132	62.3208
23.15	62.2261
23.168	62.1116
23.186	61.9783
23.204	61.8279
23.222	61.6596
23.24	61.4747
23.258	61.2766
23.276	61.0641
23.294	60.8387
23.312	60.6046
23.33	60.3608
23.348	60.1084
23.366	59.853
23.384	59.5933
23.402	59.3305
23.42	59.0707
23.438	58.8136
23.456	58.5594
23.474	58.3135
23.492	58.0762
23.51	57.8471
23.528	57.6304
23.546	57.4273
23.564	57.2366
23.582	57.0605
23.6	56.9002
23.618	56.7547
23.636	56.6238
23.654	56.5079
23.672	56.4069
23.69	56.3189
23.708	56.2428
23.726	56.1799
23.744	56.1275
23.762	56.0835
23.78	56.05
23.798	56.0234
23.816	56
23.834	55.9824
23.852	55.9673
23.87	55.95
23.888	55.9318
23.906	55.9118
23.924	55.8861
23.942	55.8544
23.96	55.8175
23.978	55.7735
23.996	55.7217
24.014	55.6628
24.032	55.5961
24.05	55.5208
24.068	55.437
24.086	55.3459
24.104	55.248
24.122	55.1424
24.14	55.0308
24.158	54.9151
24.176	54.7936
24.194	54.668
24.212	54.5432
24.23	54.4194
24.248	54.2955
24.266	54.1761
24.284	54.0627
24.302	53.9526
24.32	53.8517
24.338	53.7651
24.356	53.6881
24.374	53.6259
24.392	53.5865
24.41	53.5668
24.428	53.5682
24.446	53.6005
24.464	53.6674
24.482	53.7642
24.5	53.8972
24.518	54.0718
24.536	54.2838
24.554	54.5363
24.572	54.834
24.59	55.1763
24.608	55.5624
24.626	55.9944
24.644	56.4744
24.662	57.0011
24.68	57.5721
24.698	58.1859
24.716	58.8458
24.734	59.5467
24.752	60.281
24.77	61.0513
24.788	61.8575
24.806	62.6868
24.824	63.5317
24.842	64.4024
24.86	65.2848
24.878	66.162
24.896	67.042
24.914	67.9215
24.932	68.7816
24.95	69.613
24.968	70.4273
24.986	71.2112
25.004	71.9503
25.022	72.6522
25.04	73.3138
25.058	73.922
25.076	74.4714
25.094	74.9696
25.112	75.4087
25.13	75.7805
25.148	76.0878
25.166	76.3313
25.184	76.5075
25.202	76.6133
25.22	76.65
25.238	76.6225
25.256	76.5355
25.274	76.387
25.292	76.178
25.31	75.9132
25.328	75.5951
25.346	75.2213
25.364	74.7944
25.382	74.3178
25.4	73.7901
25.418	73.2118
25.436	72.5872
25.454	71.9191
25.472	71.2036
25.49	70.4455
25.508	69.6508
25.526	68.8186
25.544	67.9462
25.562	67.0447
25.58	66.1239
25.598	65.1744
25.616	64.2024
25.634	63.2235
25.652	62.2457
25.67	61.2561
25.688	60.2692
25.706	59.3026
25.724	58.355
25.742	57.4202
25.76	56.5139
25.778	55.6505
25.796	54.8199
25.814	54.0257
25.832	53.2813
25.85	52.5957
25.868	51.9611
25.886	51.3794
25.904	50.8548
25.922	50.3904
25.94	49.984
25.958	49.6307
25.976	49.326
25.994	49.078
26.012	48.8819
26.03	48.7214
26.048	48.5838
26.066	48.4897
26.084	48.4217
26.102	48.3499
26.12	48.2575
26.138	48.1715
26.156	48.0671
26.174	47.913
26.192	47.7016
26.21	47.4555
26.228	47.1462
26.246	46.7438
26.264	46.246
26.282	45.6665
26.3	44.9943
26.318	44.2181
26.336	43.3333
26.354	42.3485
26.372	41.2737
26.39	40.1173
26.408	38.8576
26.426	37.5126
26.444	36.1172
26.462	34.6972
26.48	33.2101
26.498	31.689
26.516	30.1895
26.534	28.749
26.552	27.3127
26.57	25.9201
26.588	24.6299
26.606	23.4793
26.624	22.4213
26.642	21.4809
26.66	20.6946
26.678	20.0826
26.696	19.6163
26.714	19.3103
26.732	19.1843
26.75	19.2541
26.768	19.5119
26.786	19.9429
26.804	20.5323
26.822	21.2752
26.84	22.1844
26.858	23.2444
26.876	24.4377
26.894	25.756
26.912	27.2123
26.93	28.7969
26.948	30.4985
26.966	32.4217
26.984	34.7384
27.002	37.0279
27.02	38.8329
27.028	39.3078