File: Bakgrunnsmateriale/MATLAB/FTIR/ftir_data/subBb/Mapping_121/C-4040-8_t06_cm-1.asc
PE IR       SPECTRUM    SPECTRUM    ASCII       PEDS        1.60
  -1
C-996E~1.ASC
17/03/27
14:58:38.00
17/03/27
14:58:38.00
tln
$C-4040-8_t0006$<tbV0>[0.0,-13.0,8.0,0.0,27,1,0]
370
64

2002,4.07
MIRTGS : RIGHTBACK : INTERNAL 2
MIR : ON : INTERNAL 2
OPTKBR

0.200000
8
8.000000
FILLER
RATIO
SPECTRUM
UNLOCKED 256

DOUBLE
64
COMBINED
1
0
0

1.000000
RATIO

1
0
TRUE
51149
0
LEFT NOT FITTED RIGHT NOT FITTED 0
NONE
NONE
15600
12
4.427000
51148
TRUE
1 0 8 72 0 0 0 0

15798

#HDR
-1
-1
#GR
CM-1
%T
2.38419e-05
0.0
5000
-1.000000
4631
8
70.9394
-7.819414
#DATA
5000	64.118
4996	63.7974
4992	63.8583
4988	64.3229
4984	64.4188
4980	64.0931
4976	63.548
4972	63.4443
4968	64.0641
4964	63.8178
4960	62.8728
4956	62.7935
4952	63.1017
4948	62.9574
4944	62.1668
4940	61.859
4936	62.8245
4932	63.708
4928	63.6302
4924	63.6731
4920	64.2244
4916	64.4331
4912	64.5716
4908	64.9141
4904	65.0022
4900	64.5838
4896	64.0934
4892	64.1762
4888	64.1827
4884	63.8797
4880	63.8408
4876	63.8629
4872	63.7682
4868	63.6389
4864	63.6193
4860	63.818
4856	63.9366
4852	63.8845
4848	63.9804
4844	64.2476
4840	64.4838
4836	64.5243
4832	64.2258
4828	63.9067
4824	63.6964
4820	63.4427
4816	63.3735
4812	63.5175
4808	63.7848
4804	63.9359
4800	63.7996
4796	63.7173
4792	63.8373
4788	63.9806
4784	63.8768
4780	63.7184
4776	63.7686
4772	63.7944
4768	63.6914
4764	63.551
4760	63.5713
4756	63.6723
4752	63.6858
4748	63.7536
4744	63.8488
4740	63.7297
4736	63.5255
4732	63.4772
4728	63.5486
4724	63.6684
4720	63.7141
4716	63.701
4712	63.6686
4708	63.6506
4704	63.6539
4700	63.6455
4696	63.6375
4692	63.6478
4688	63.7095
4684	63.6059
4680	63.4466
4676	63.4606
4672	63.518
4668	63.631
4664	63.6292
4660	63.5618
4656	63.673
4652	63.7223
4648	63.7193
4644	63.7951
4640	63.8644
4636	63.8735
4632	63.9141
4628	64.0407
4624	63.9781
4620	63.8545
4616	63.9436
4612	64.1441
4608	64.2353
4604	64.0931
4600	63.9733
4596	63.9485
4592	63.8505
4588	63.8643
4584	63.9951
4580	64.056
4576	64.0188
4572	63.7732
4568	63.6273
4564	63.9102
4560	64.155
4556	63.8406
4552	63.2262
4548	63.0857
4544	63.2699
4540	63.2945
4536	63.469
4532	63.7251
4528	63.7557
4524	63.7861
4520	63.9173
4516	63.9138
4512	63.952
4508	64.2082
4504	64.364
4500	64.3494
4496	64.276
4492	63.9233
4488	63.6733
4484	63.7449
4480	64.2556
4476	64.6091
4472	64.4767
4468	64.6315
4464	64.7887
4460	65.0521
4456	65.8272
4452	68.0572
4448	70.6185
4444	70.3768
4440	67.1381
4436	63.1825
4432	61.9228
4428	62.3425
4424	62.0206
4420	61.8474
4416	62.0434
4412	61.8916
4408	60.017
4404	58.1029
4400	53.2096
4396	47.4536
4392	53.9749
4388	64.5753
4384	67.3615
4380	66.8487
4376	65.731
4372	64.4999
4368	63.9845
4364	64.3991
4360	65.1255
4356	65.4052
4352	65.1432
4348	64.8119
4344	64.6999
4340	64.6498
4336	64.5527
4332	64.3603
4328	64.0813
4324	63.984
4320	64.1001
4316	63.9463
4312	63.7007
4308	63.7607
4304	63.9818
4300	64.1175
4296	64.1293
4292	64.0528
4288	63.7992
4284	63.5923
4280	63.5365
4276	63.5204
4272	63.7836
4268	64.0612
4264	63.9927
4260	63.931
4256	63.9552
4252	63.8543
4248	63.6716
4244	63.5454
4240	63.5084
4236	63.4313
4232	63.3705
4228	63.4774
4224	63.711
4220	63.8367
4216	63.7803
4212	63.674
4208	63.553
4204	63.3808
4200	63.2024
4196	63.2104
4192	63.2625
4188	63.1963
4184	62.9524
4180	62.5804
4176	62.5735
4172	62.9124
4168	63.1714
4164	63.4573
4160	63.7334
4156	63.6444
4152	63.3674
4148	63.1932
4144	63.1376
4140	63.2499
4136	63.4776
4132	63.5833
4128	63.546
4124	63.5802
4120	63.6075
4116	63.5231
4112	63.4002
4108	63.3286
4104	63.3595
4100	63.3278
4096	63.2917
4092	63.442
4088	63.5142
4084	63.4644
4080	63.5401
4076	63.5554
4072	63.4598
4068	63.4274
4064	63.3871
4060	63.3988
4056	63.4464
4052	63.3202
4048	63.1425
4044	63.1893
4040	63.4276
4036	63.6135
4032	63.6893
4028	63.7085
4024	63.6648
4020	63.6478
4016	63.6651
4012	63.6024
4008	63.5216
4004	63.4775
4000	63.4455
3996	63.4485
3992	63.4262
3988	63.4043
3984	63.4214
3980	63.3445
3976	63.2059
3972	63.1308
3968	63.1783
3964	63.3276
3960	63.4489
3956	63.5142
3952	63.5495
3948	63.6329
3944	63.6969
3940	63.5137
3936	63.3002
3932	63.3137
3928	63.3837
3924	63.4167
3920	63.4145
3916	63.3287
3912	63.295
3908	63.4583
3904	63.704
3900	63.8271
3896	63.7207
3892	63.4652
3888	63.208
3884	63.0676
3880	63.1141
3876	63.3191
3872	63.5276
3868	63.5567
3864	63.495
3860	63.4806
3856	63.562
3852	63.6043
3848	63.4813
3844	63.3733
3840	63.364
3836	63.3698
3832	63.3125
3828	63.1834
3824	63.0636
3820	63.0877
3816	63.1521
3812	63.1518
3808	63.1968
3804	63.2594
3800	63.2689
3796	63.144
3792	63.0043
3788	63.0575
3784	63.1938
3780	63.2483
3776	63.2229
3772	63.2637
3768	63.3509
3764	63.3267
3760	63.294
3756	63.4473
3752	63.6394
3748	63.6243
3744	63.4676
3740	63.3725
3736	63.408
3732	63.4022
3728	63.3509
3724	63.4247
3720	63.4734
3716	63.363
3712	63.2203
3708	63.0815
3704	63.0412
3700	63.1248
3696	63.182
3692	63.238
3688	63.1963
3684	63.0482
3680	63.0566
3676	63.1941
3672	63.2201
3668	63.1353
3664	63.0784
3660	63.069
3656	63.0958
3652	63.1278
3648	63.0724
3644	62.9363
3640	62.9176
3636	63.0431
3632	63.1546
3628	63.136
3624	63.0205
3620	62.9433
3616	62.8952
3612	62.9261
3608	62.9629
3604	62.8178
3600	62.6752
3596	62.7653
3592	62.966
3588	63.0307
3584	62.9669
3580	62.9315
3576	62.878
3572	62.7669
3568	62.7124
3564	62.7112
3560	62.6274
3556	62.6042
3552	62.7895
3548	62.8648
3544	62.7327
3540	62.6006
3536	62.5066
3532	62.4736
3528	62.5724
3524	62.6952
3520	62.6812
3516	62.6236
3512	62.5291
3508	62.4081
3504	62.4604
3500	62.6226
3496	62.7177
3492	62.7486
3488	62.8156
3484	62.8966
3480	62.8198
3476	62.7064
3472	62.7825
3468	62.8635
3464	62.8176
3460	62.8045
3456	62.8164
3452	62.8132
3448	62.8592
3444	62.9159
3440	62.9013
3436	62.7422
3432	62.4966
3428	62.3888
3424	62.4375
3420	62.4454
3416	62.4694
3412	62.6188
3408	62.613
3404	62.3834
3400	62.2324
3396	62.1526
3392	62.1706
3388	62.3295
3384	62.3788
3380	62.3683
3376	62.3566
3372	62.2644
3368	62.2695
3364	62.3672
3360	62.3532
3356	62.2962
3352	62.3108
3348	62.2969
3344	62.1879
3340	62.1444
3336	62.2476
3332	62.3828
3328	62.403
3324	62.2496
3320	62.1151
3316	62.1494
3312	62.2114
3308	62.1606
3304	62.0951
3300	62.1166
3296	62.1394
3292	62.1063
3288	62.0808
3284	62.0493
3280	62.0356
3276	62.075
3272	62.047
3268	62.011
3264	62.0092
3260	61.9498
3256	61.8922
3252	61.917
3248	62.0202
3244	62.0869
3240	62.0367
3236	61.9807
3232	61.9638
3228	61.9598
3224	62.0348
3220	62.1145
3216	62.0726
3212	62.0256
3208	62.0689
3204	62.0063
3200	61.8235
3196	61.7819
3192	61.8444
3188	61.8187
3184	61.7572
3180	61.7875
3176	61.7502
3172	61.5757
3168	61.5181
3164	61.6483
3160	61.8151
3156	61.8687
3152	61.8272
3148	61.7733
3144	61.6796
3140	61.5787
3136	61.5258
3132	61.5024
3128	61.5378
3124	61.6698
3120	61.7815
3116	61.7534
3112	61.6113
3108	61.4984
3104	61.5433
3100	61.5771
3096	61.496
3092	61.484
3088	61.5625
3084	61.587
3080	61.5489
3076	61.5406
3072	61.5157
3068	61.5056
3064	61.5833
3060	61.5746
3056	61.4529
3052	61.4262
3048	61.4995
3044	61.4981
3040	61.4186
3036	61.3572
3032	61.3134
3028	61.2953
3024	61.36
3020	61.4523
3016	61.4193
3012	61.2955
3008	61.1986
3004	61.1476
3000	61.1783
2996	61.2535
2992	61.2908
2988	61.2936
2984	61.2005
2980	61.0514
2976	61.0248
2972	61.0624
2968	61.044
2964	61.0209
2960	61.027
2956	61.0052
2952	60.9442
2948	60.9081
2944	60.8876
2940	60.8243
2936	60.7866
2932	60.8368
2928	60.8907
2924	60.8944
2920	60.8617
2916	60.8225
2912	60.7408
2908	60.6389
2904	60.6531
2900	60.7426
2896	60.8139
2892	60.8675
2888	60.858
2884	60.7595
2880	60.6563
2876	60.6186
2872	60.6319
2868	60.7078
2864	60.7771
2860	60.7109
2856	60.6767
2852	60.7746
2848	60.8388
2844	60.8274
2840	60.7677
2836	60.7189
2832	60.692
2828	60.6366
2824	60.6294
2820	60.6717
2816	60.6452
2812	60.5976
2808	60.5943
2804	60.5722
2800	60.5293
2796	60.4874
2792	60.474
2788	60.448
2784	60.3917
2780	60.37
2776	60.3765
2772	60.3963
2768	60.4219
2764	60.4196
2760	60.4225
2756	60.4571
2752	60.4417
2748	60.3697
2744	60.3445
2740	60.3327
2736	60.2426
2732	60.1729
2728	60.2187
2724	60.287
2720	60.2977
2716	60.2428
2712	60.161
2708	60.1304
2704	60.1411
2700	60.1568
2696	60.1864
2692	60.2113
2688	60.2067
2684	60.1739
2680	60.1415
2676	60.1229
2672	60.0798
2668	60.0196
2664	59.9903
2660	59.9601
2656	59.9026
2652	59.8864
2648	59.9166
2644	59.9171
2640	59.885
2636	59.8593
2632	59.8554
2628	59.8569
2624	59.8397
2620	59.7988
2616	59.7653
2612	59.742
2608	59.677
2604	59.6228
2600	59.6329
2596	59.6778
2592	59.7344
2588	59.753
2584	59.7385
2580	59.6728
2576	59.5558
2572	59.5066
2568	59.531
2564	59.5234
2560	59.5002
2556	59.5686
2552	59.6339
2548	59.5986
2544	59.5518
2540	59.5282
2536	59.4972
2532	59.471
2528	59.4549
2524	59.4266
2520	59.3637
2516	59.3155
2512	59.2948
2508	59.2881
2504	59.3005
2500	59.2343
2496	59.2028
2492	59.3151
2488	59.3226
2484	59.2272
2480	59.2118
2476	59.2179
2472	59.2323
2468	59.2586
2464	59.2416
2460	59.1668
2456	59.0716
2452	59.0748
2448	59.1798
2444	59.2506
2440	59.2029
2436	59.1189
2432	59.1522
2428	59.1889
2424	59.0617
2420	58.9436
2416	58.8767
2412	58.7656
2408	58.7667
2404	58.7908
2400	58.6885
2396	58.6725
2392	58.7632
2388	58.7996
2384	58.7667
2380	58.7526
2376	58.8012
2372	58.8333
2368	58.7998
2364	58.7378
2360	58.6773
2356	58.6188
2352	58.5878
2348	58.5545
2344	58.4821
2340	58.4689
2336	58.5338
2332	58.5559
2328	58.5012
2324	58.443
2320	58.409
2316	58.3649
2312	58.3674
2308	58.4335
2304	58.4687
2300	58.4313
2296	58.3421
2292	58.2944
2288	58.3044
2284	58.2751
2280	58.2352
2276	58.2352
2272	58.2369
2268	58.2519
2264	58.2582
2260	58.2112
2256	58.1609
2252	58.1486
2248	58.1278
2244	58.0679
2240	58.0009
2236	57.9432
2232	57.9264
2228	57.9625
2224	57.9689
2220	57.8927
2216	57.8242
2212	57.8069
2208	57.7848
2204	57.7434
2200	57.7404
2196	57.7792
2192	57.7169
2188	57.5664
2184	57.5109
2180	57.5711
2176	57.607
2172	57.5563
2168	57.5897
2164	57.6859
2160	57.6332
2156	57.6195
2152	57.7058
2148	57.6438
2144	57.4864
2140	57.3984
2136	57.3734
2132	57.3436
2128	57.299
2124	57.274
2120	57.3019
2116	57.2939
2112	57.2107
2108	57.1722
2104	57.2041
2100	57.2748
2096	57.3038
2092	57.2704
2088	57.3087
2084	57.3678
2080	57.3379
2076	57.2913
2072	57.1402
2068	56.9791
2064	57.0274
2060	57.0152
2056	56.9086
2052	56.9414
2048	56.9911
2044	56.9896
2040	56.9769
2036	56.9401
2032	56.9203
2028	56.8316
2024	56.673
2020	56.6333
2016	56.6938
2012	56.7396
2008	56.7495
2004	56.6722
2000	56.6058
1996	56.6497
1992	56.6401
1988	56.5987
1984	56.6014
1980	56.5449
1976	56.5041
1972	56.5461
1968	56.5644
1964	56.5293
1960	56.4698
1956	56.3756
1952	56.3331
1948	56.4082
1944	56.4631
1940	56.4084
1936	56.3391
1932	56.3068
1928	56.2923
1924	56.3049
1920	56.3374
1916	56.3532
1912	56.3012
1908	56.1835
1904	56.1191
1900	56.1375
1896	56.1342
1892	56.0811
1888	56.0159
1884	55.9789
1880	55.9345
1876	55.8923
1872	55.9045
1868	55.8827
1864	55.8323
1860	55.8252
1856	55.8135
1852	55.7865
1848	55.7883
1844	55.7738
1840	55.6597
1836	55.5674
1832	55.6375
1828	55.7142
1824	55.6936
1820	55.66
1816	55.6249
1812	55.5797
1808	55.5189
1804	55.476
1800	55.527
1796	55.5973
1792	55.5637
1788	55.4831
1784	55.4622
1780	55.4957
1776	55.5475
1772	55.5377
1768	55.452
1764	55.4306
1760	55.4452
1756	55.3799
1752	55.2796
1748	55.2371
1744	55.2273
1740	55.1934
1736	55.2004
1732	55.2155
1728	55.1324
1724	55.0515
1720	55.1678
1716	55.2775
1712	55.1395
1708	55.0356
1704	55.1034
1700	55.1465
1696	55.0724
1692	54.9988
1688	55.059
1684	55.0762
1680	54.9325
1676	54.8659
1672	54.8782
1668	54.8029
1664	54.7223
1660	54.7962
1656	55.0166
1652	55.0832
1648	54.8658
1644	54.6305
1640	54.5554
1636	54.5549
1632	54.4662
1628	54.3733
1624	54.3876
1620	54.4249
1616	54.3906
1612	54.2903
1608	54.2598
1604	54.2474
1600	54.1567
1596	54.1329
1592	54.2019
1588	54.248
1584	54.2487
1580	54.2488
1576	54.232
1572	54.1688
1568	54.1394
1564	54.2403
1560	54.3429
1556	54.2635
1552	54.1353
1548	54.0646
1544	54.0909
1540	54.1423
1536	54.0259
1532	53.8761
1528	53.9063
1524	54.033
1520	53.9972
1516	53.8561
1512	53.9115
1508	54.0293
1504	53.8898
1500	53.6461
1496	53.5845
1492	53.6849
1488	53.6979
1484	53.6065
1480	53.5649
1476	53.5622
1472	53.549
1468	53.4682
1464	53.3912
1460	53.4646
1456	53.507
1452	53.411
1448	53.3795
1444	53.3583
1440	53.2821
1436	53.1816
1432	53.0218
1428	52.9049
1424	52.9228
1420	53.0105
1416	53.0195
1412	52.939
1408	52.8494
1404	52.8262
1400	52.8737
1396	52.8898
1392	52.8636
1388	52.8047
1384	52.7385
1380	52.7269
1376	52.7153
1372	52.6694
1368	52.6522
1364	52.6566
1360	52.5988
1356	52.5272
1352	52.5156
1348	52.5165
1344	52.4875
1340	52.4265
1336	52.4034
1332	52.4323
1328	52.4404
1324	52.4118
1320	52.3813
1316	52.3543
1312	52.2861
1308	52.2062
1304	52.172
1300	52.141
1296	52.1086
1292	52.1465
1288	52.2003
1284	52.1291
1280	51.9821
1276	51.8834
1272	51.8327
1268	51.8561
1264	51.9085
1260	51.893
1256	51.8887
1252	51.888
1248	51.8133
1244	51.6963
1240	51.6164
1236	51.6557
1232	51.702
1228	51.6323
1224	51.5848
1220	51.5997
1216	51.5779
1212	51.557
1208	51.5395
1204	51.5097
1200	51.4718
1196	51.4081
1192	51.3839
1188	51.3642
1184	51.3188
1180	51.3191
1176	51.3283
1172	51.3077
1168	51.2929
1164	51.2785
1160	51.2365
1156	51.2077
1152	51.2495
1148	51.2413
1144	51.1297
1140	51.105
1136	51.134
1132	51.0757
1128	50.9993
1124	50.9216
1120	50.8861
1116	50.8371
1112	50.6615
1108	50.5733
1104	50.6643
1100	50.7352
1096	50.6854
1092	50.66
1088	50.6613
1084	50.5717
1080	50.483
1076	50.4044
1072	50.3846
1068	50.436
1064	50.439
1060	50.4347
1056	50.4532
1052	50.4541
1048	50.3992
1044	50.3274
1040	50.297
1036	50.233
1032	50.1708
1028	50.2253
1024	50.3483
1020	50.3548
1016	50.1536
1012	49.9698
1008	49.9207
1004	49.904
1000	49.9328
996	 49.9228
992	 49.8326
988	 49.8833
984	 50.0141
980	 49.9594
976	 49.7801
972	 49.6386
968	 49.5854
964	 49.5035
960	 49.4123
956	 49.4694
952	 49.4736
948	 49.3763
944	 49.3433
940	 49.322
936	 49.2809
932	 49.1678
928	 49.0354
924	 49.0156
920	 49.0042
916	 48.9694
912	 48.9213
908	 48.8226
904	 48.9412
900	 49.1709
896	 49.1334
892	 49.1009
888	 49.2324
884	 49.1661
880	 48.8288
876	 48.6586
872	 48.8043
868	 48.947
864	 49.0066
860	 48.9779
856	 48.7683
852	 48.567
848	 48.4837
844	 48.3341
840	 48.252
836	 48.3987
832	 48.52
828	 48.2377
824	 47.7249
820	 47.4389
816	 47.3625
812	 47.4637
808	 47.5322
804	 47.4512
800	 47.4173
796	 47.4999
792	 47.5588
788	 47.4757
784	 47.566
780	 47.8839
776	 47.9747
772	 47.8471
768	 47.7482
764	 47.6684
760	 47.6322
756	 47.5862
752	 47.4666
748	 47.3271
744	 47.1717
740	 47.1117
736	 47.2383
732	 47.2212
728	 46.8927
724	 46.7218
720	 46.8927
716	 46.8646
712	 46.5295
708	 46.3343
704	 46.2725
700	 46.2555
696	 46.2883
692	 46.1985
688	 46.0685
684	 45.969
680	 45.9379
676	 46.1027
672	 46.1904
668	 46.088
664	 46.0256
660	 45.9774
656	 45.8477
652	 45.6388
648	 45.4832
644	 45.3773
640	 45.2598
636	 45.2938
632	 45.2508
628	 45.0538
624	 45.0721
620	 45.1504
616	 44.9939
612	 44.7941
608	 44.804
604	 44.7478
600	 44.5016
596	 44.3525
592	 44.268
588	 44.1936
584	 44.3117
580	 44.5134
576	 44.4997
572	 44.3182
568	 44.0454
564	 43.9259
560	 44.1263
556	 44.0338
552	 43.5334
548	 43.3507
544	 43.3211
540	 43.1094
536	 42.9814
532	 42.8976
528	 42.6138
524	 42.3532
520	 42.4796
516	 42.646
512	 42.6492
508	 42.5045
504	 42.3205
500	 42.7488
496	 43.1789
492	 42.5328
488	 41.348
484	 40.8869
480	 41.6367
476	 42.3508
472	 41.7353
468	 40.799
464	 40.72
460	 40.9446
456	 40.7405
452	 40.0213
448	 39.8776
444	 40.1329
440	 38.9091
436	 37.5244
432	 38.0268
428	 38.9524
424	 38.6327
420	 37.8474
416	 38.444
412	 38.8359
408	 36.7161
404	 37.6774
400	 36.9293
396	 30.1677
392	 30.5955
388	 39.5446
384	 27.3029
380	 -2.579736
376	 -5.220746
372	 13.776
370	 29.0739