File: Bakgrunnsmateriale/MATLAB/FTIR/ftir_data/subBb/Mapping_121/C-4040-8_t88.asc
PE IR       SPECTRUM    SPECTRUM    ASCII       PEDS        1.60
  -1
C-C54A~1.ASC
17/03/27
21:40:19.00
17/03/27
21:40:45.00
tln
$C-4040-8_t0088$<tbV0>[-13.0,5.2,8.0,0.0,27,1,0]
27.028
64

2002,4.07
MIRTGS : RIGHTBACK : INTERNAL 2
MIR : ON : INTERNAL 2
OPTKBR

0.200000
8
8.000000
FILLER
RATIO
SPECTRUM
UNLOCKED 256

DOUBLE
64
COMBINED
1
0
0

0.002000
RATIO

1
0
TRUE
51149
0
LEFT NOT FITTED RIGHT NOT FITTED 0
NONE
NONE
15600
12
4.427000
51148
TRUE
1 0 8 72 0 0 0 0

15798

#HDR
-1
-1
#GR
µM
%T
2.38419e-05
0.0
2.000000
0.002000
12515
8
122.674
39.4678
#DATA
2.000000	 64.3538
2.018000	 65.1617
2.036000	 64.7315
2.054000	 64.4178
2.072000	 65.1191
2.090000	 64.8989
2.108000	 65.5775
2.126000	 65.4684
2.144000	 65.8164
2.162000	 65.2033
2.180000	 64.8369
2.198000	 64.4777
2.216000	 63.9722
2.234000	 63.0868
2.252000	 63.0634
2.270000	 61.0874
2.288000	 65.5291
2.306000	 63.5092
2.324000	 63.7185
2.342000	 63.8087
2.360000	 64.5043
2.378000	 64.7152
2.396000	 65.7473
2.414000	 65.3089
2.432000	 65.239
2.450000	 65.2503
2.468000	 65.2792
2.486000	 65.1254
2.504000	 65.0708
2.522000	 65.0207
2.540000	 64.9421
2.558000	 65.1408
2.576000	 64.922
2.594000	 64.6809
2.612000	 64.9616
2.630000	 64.8613
2.648000	 64.8785
2.666000	 65.121
2.684000	 65.2165
2.702000	 65.0879
2.720000	 65.0226
2.738000	 65.358
2.756000	 65.1798
2.774000	 65.1816
2.792000	 65.3083
2.810000	 65.2275
2.828000	 65.3516
2.846000	 65.2365
2.864000	 65.3309
2.882000	 65.1943
2.900000	 65.2896
2.918000	 64.9544
2.936000	 65.1136
2.954000	 65.3064
2.972000	 64.9482
2.990000	 64.9537
3.008000	 65.1015
3.026000	 65.2905
3.044000	 65.3173
3.062000	 65.1959
3.080000	 65.0641
3.098000	 65.1776
3.116000	 65.3514
3.134000	 65.2667
3.152000	 65.2669
3.170000	 65.1519
3.188000	 65.3637
3.206000	 64.9468
3.224000	 65.3527
3.242000	 65.0782
3.260000	 65.2472
3.278000	 65.2841
3.296000	 65.2753
3.314000	 65.1527
3.332000	 65.1274
3.350000	 64.9872
3.368000	 64.733
3.386000	 65.022
3.404000	 65.0464
3.422000	 64.7718
3.440000	 64.9538
3.458000	 64.8788
3.476000	 64.9573
3.494000	 65.1175
3.512000	 65.1137
3.530000	 65.0645
3.548000	 65.2517
3.566000	 65.2472
3.584000	 65.2665
3.602000	 65.3554
3.620000	 65.3065
3.638000	 65.305
3.656000	 65.2528
3.674000	 65.4297
3.692000	 65.2818
3.710000	 65.3653
3.728000	 65.3091
3.746000	 65.1851
3.764000	 65.2612
3.782000	 65.1385
3.800000	 65.3526
3.818000	 65.2709
3.836000	 65.3129
3.854000	 65.193
3.872000	 65.1335
3.890000	 65.1174
3.908000	 65.1948
3.926000	 65.2253
3.944000	 65.1312
3.962000	 65.2553
3.980000	 65.2666
3.998000	 65.2592
4.016000	 65.2576
4.034000	 65.3196
4.052000	 65.1593
4.070000	 65.2031
4.088000	 65.3537
4.106000	 65.4734
4.124000	 64.9551
4.141999	 65.2066
4.160000	 65.2334
4.178000	 65.3588
4.196000	 65.4002
4.214000	 65.3702
4.232000	 65.3646
4.250000	 65.2911
4.268000	 65.3422
4.286000	 65.3357
4.304000	 65.2789
4.322000	 65.3005
4.340000	 65.2716
4.358000	 65.3022
4.375999	 65.3764
4.394000	 65.3309
4.412000	 65.2571
4.430000	 65.2526
4.448000	 65.4154
4.466000	 65.3429
4.484000	 65.3461
4.502000	 65.4042
4.520000	 65.3771
4.538000	 65.2687
4.556000	 65.3129
4.574000	 65.2779
4.592000	 65.2522
4.609999	 65.2193
4.628000	 65.1552
4.646000	 65.1984
4.664000	 65.0579
4.682000	 65.1616
4.700000	 65.2182
4.718000	 65.2627
4.736000	 65.3322
4.754000	 65.2944
4.772000	 65.255
4.790000	 65.2398
4.808000	 65.5437
4.826000	 65.2258
4.843999	 65.4159
4.862000	 65.3291
4.880000	 65.3704
4.898000	 65.2674
4.916000	 65.2715
4.934000	 65.3845
4.952000	 65.4923
4.970000	 65.4849
4.988000	 65.272
5.006000	 65.2297
5.024000	 65.2998
5.042000	 65.2119
5.060000	 65.3171
5.077999	 65.3393
5.096000	 65.251
5.114000	 65.2941
5.132000	 65.3026
5.150000	 65.2763
5.168000	 65.2434
5.186000	 65.3419
5.204000	 65.4012
5.222000	 65.2561
5.240000	 65.2554
5.258000	 65.303
5.276000	 65.2989
5.294000	 65.3108
5.312000	 65.3
5.330000	 65.2851
5.348000	 65.335
5.366000	 65.3238
5.384000	 65.2971
5.402000	 65.281
5.420000	 65.2999
5.438000	 65.3615
5.456000	 65.3137
5.474000	 65.2404
5.492000	 65.3339
5.510000	 65.4184
5.528000	 65.3591
5.546000	 65.2948
5.564000	 65.3041
5.582000	 65.2818
5.600000	 65.2706
5.618000	 65.2561
5.636000	 65.2478
5.654000	 65.2779
5.672000	 65.3339
5.690000	 65.2831
5.708000	 65.1939
5.726000	 65.1727
5.744000	 65.0598
5.762000	 65.1103
5.780000	 65.1867
5.798000	 65.1481
5.816000	 65.2614
5.834000	 65.3257
5.852000	 65.0705
5.870000	 65.1708
5.888000	 65.3616
5.906000	 65.4123
5.923999	 65.4479
5.942000	 65.4012
5.960000	 65.268
5.978000	 65.2213
5.996000	 65.2832
6.014000	 65.2269
6.032000	 65.1344
6.050000	 65.2399
6.068000	 65.2656
6.086000	 65.2493
6.104000	 65.1371
6.122000	 65.0889
6.140000	 65.1594
6.158000	 65.1364
6.176000	 65.1406
6.194000	 65.143
6.212000	 65.054
6.230000	 65.041
6.248000	 65.1003
6.266000	 65.0914
6.284000	 65.0905
6.302000	 65.1074
6.320000	 65.0602
6.338000	 64.9838
6.356000	 65.0451
6.374000	 65.1196
6.392000	 65.065
6.410000	 64.9413
6.428000	 64.8914
6.446000	 64.9511
6.464000	 65.0101
6.482000	 65.0353
6.500000	 65.0906
6.518000	 65.1154
6.536000	 65.0777
6.554000	 65.1158
6.572000	 65.217
6.590000	 65.2125
6.608000	 65.1
6.626000	 65.1055
6.644000	 65.2094
6.662000	 65.2403
6.680000	 65.2656
6.698000	 65.2709
6.716000	 65.2098
6.734000	 65.1768
6.752000	 65.147
6.770000	 65.0911
6.788000	 65.0355
6.806000	 64.9797
6.824000	 64.9578
6.842000	 65.0445
6.860000	 65.1787
6.878000	 65.1405
6.896000	 65.0222
6.914000	 65.1146
6.932000	 65.2509
6.950000	 65.2239
6.968000	 65.1748
6.986000	 65.2078
7.004000	 65.2237
7.022000	 65.1937
7.040000	 65.1769
7.058000	 65.1602
7.076000	 65.15
7.094000	 65.1848
7.112000	 65.2431
7.130000	 65.3057
7.148000	 65.3258
7.166000	 65.2463
7.184000	 65.1501
7.202000	 65.133
7.220000	 65.1494
7.238000	 65.1748
7.256000	 65.2362
7.274000	 65.2488
7.292000	 65.1753
7.310000	 65.1338
7.328000	 65.1518
7.346000	 65.1397
7.364000	 65.0869
7.382000	 65.0479
7.400000	 65.0596
7.418000	 65.1163
7.436000	 65.1784
7.454000	 65.2258
7.472000	 65.2624
7.490000	 65.2496
7.508000	 65.1457
7.526000	 65.0193
7.544000	 64.9847
7.562000	 65.0229
7.580000	 65.0283
7.598000	 64.9947
7.616000	 64.9898
7.634000	 65.0148
7.652000	 65.0227
7.670000	 65.0062
7.688000	 64.9857
7.706000	 64.9688
7.724000	 64.9645
7.742000	 64.983
7.760000	 65.0088
7.778000	 65.0153
7.796000	 65.0139
7.814000	 65.05
7.832000	 65.1248
7.850000	 65.1625
7.868000	 65.1054
7.886000	 65.011
7.904000	 64.989
7.922000	 65.0432
7.940000	 65.0606
7.958000	 64.9797
7.976000	 64.8813
7.994000	 64.8752
8.012000	 64.965
8.030000	 65.0586
8.048000	 65.088
8.065999	 65.0703
8.084000	 65.0532
8.102000	 65.0341
8.120000	 64.9756
8.138000	 64.8874
8.155999	 64.8315
8.173999	 64.8367
8.192000	 64.8679
8.210000	 64.893
8.228000	 64.9183
8.246000	 64.9568
8.263999	 65.0081
8.282000	 65.0611
8.300000	 65.087
8.318000	 65.0499
8.336000	 64.9567
8.353999	 64.866
8.372000	 64.8296
8.390000	 64.8457
8.408000	 64.8795
8.426000	 64.9049
8.443999	 64.9161
8.462000	 64.9122
8.480000	 64.8868
8.498000	 64.835
8.516000	 64.773
8.533999	 64.7405
8.552000	 64.7668
8.570000	 64.8379
8.588000	 64.9075
8.606000	 64.9376
8.624000	 64.9235
8.641999	 64.8846
8.660000	 64.8422
8.678000	 64.8067
8.696000	 64.7793
8.714000	 64.7605
8.731999	 64.7599
8.750000	 64.7938
8.768000	 64.8621
8.786000	 64.9304
8.804000	 64.9564
8.821999	 64.9369
8.840000	 64.9091
8.858000	 64.9064
8.876000	 64.925
8.894000	 64.9432
8.911999	 64.9576
8.930000	 64.9808
8.948000	 65.0146
8.966000	 65.0417
8.984000	 65.0498
9.001999	 65.0524
9.020000	 65.0793
9.038000	 65.1395
9.056000	 65.1951
9.074000	 65.1831
9.092000	 65.0764
9.109999	 64.922
9.128000	 64.8116
9.146000	 64.8021
9.164000	 64.8664
9.182000	 64.929
9.199999	 64.9398
9.218000	 64.9117
9.236000	 64.8885
9.254000	 64.8931
9.272000	 64.9113
9.289999	 64.9207
9.308000	 64.9204
9.326000	 64.929
9.344000	 64.9562
9.362000	 64.9865
9.379999	 64.9911
9.398000	 64.9576
9.416000	 64.9035
9.434000	 64.8635
9.452000	 64.8587
9.469999	 64.8785
9.488000	 64.8902
9.506000	 64.8688
9.524000	 64.8205
9.542000	 64.7761
9.560000	 64.7607
9.577999	 64.7726
9.596000	 64.7868
9.614000	 64.7746
9.632000	 64.7252
9.650000	 64.6551
9.667999	 64.5973
9.686000	 64.5773
9.704000	 64.5964
9.722000	 64.6364
9.740000	 64.6785
9.757999	 64.7155
9.776000	 64.7487
9.794000	 64.7762
9.812000	 64.7874
9.830000	 64.7746
9.847999	 64.7466
9.866000	 64.7298
9.884000	 64.7515
9.902000	 64.8201
9.920000	 64.9158
9.937999	 64.9987
9.956000	 65.0306
9.974000	 64.998
9.992000	 64.921
10.01	64.844
10.028	64.8104
10.046	64.8349
10.064	64.8969
10.082	64.9548
10.1	64.9721
10.118	64.9403
10.136	64.8789
10.154	64.816
10.172	64.7708
10.19	64.7453
10.208	64.7321
10.226	64.7277
10.244	64.7377
10.262	64.7742
10.28	64.8389
10.298	64.9134
10.316	64.9625
10.334	64.9591
10.352	64.9055
10.37	64.8392
10.388	64.8118
10.406	64.8532
10.424	64.955
10.442	65.0727
10.46	65.1577
10.478	65.1832
10.496	65.1561
10.514	65.1
10.532	65.0382
10.55	64.9829
10.568	64.939
10.586	64.9119
10.604	64.9088
10.622	64.9329
10.64	64.9773
10.658	65.023
10.676	65.0448
10.694	65.0249
10.712	64.9595
10.73	64.8604
10.748	64.7498
10.766	64.6549
10.784	64.5985
10.802	64.591
10.82	64.6252
10.838	64.6766
10.856	64.7147
10.874	64.7136
10.892	64.6627
10.91	64.5655
10.928	64.4373
10.946	64.3013
10.964	64.1822
10.982	64.1051
11	64.0888
11.018	64.1405
11.036	64.2479
11.054	64.3793
11.072	64.496
11.09	64.5653
11.108	64.5787
11.126	64.552
11.144	64.513
11.162	64.4895
11.18	64.4963
11.198	64.5338
11.216	64.5933
11.234	64.6645
11.252	64.739
11.27	64.8104
11.288	64.872
11.306	64.9159
11.324	64.9334
11.342	64.9199
11.36	64.8801
11.378	64.8277
11.396	64.7805
11.414	64.7553
11.432	64.759
11.45	64.7857
11.468	64.8171
11.486	64.8302
11.504	64.8049
11.522	64.7312
11.54	64.6138
11.558	64.4711
11.576	64.3287
11.594	64.2098
11.612	64.131
11.63	64.0975
11.648	64.1044
11.666	64.1397
11.684	64.1907
11.702	64.2486
11.72	64.3078
11.738	64.3665
11.756	64.4237
11.774	64.4773
11.792	64.5237
11.81	64.5594
11.828	64.5827
11.846	64.5951
11.864	64.6016
11.882	64.6087
11.9	64.6232
11.918	64.6489
11.936	64.6856
11.954	64.7294
11.972	64.7737
11.99	64.8112
12.008	64.8345
12.026	64.8384
12.044	64.8208
12.062	64.7831
12.08	64.7299
12.098	64.6684
12.116	64.607
12.134	64.5538
12.152	64.5135
12.17	64.4879
12.188	64.4757
12.206	64.4725
12.224	64.4731
12.242	64.4726
12.26	64.4674
12.278	64.4547
12.296	64.4333
12.314	64.4032
12.332	64.3661
12.35	64.3258
12.368	64.2885
12.386	64.2616
12.404	64.2519
12.422	64.2627
12.44	64.2924
12.458	64.3346
12.476	64.3792
12.494	64.4153
12.512	64.4333
12.53	64.4281
12.548	64.3996
12.566	64.3521
12.584	64.2923
12.602	64.2279
12.62	64.1651
12.638	64.1087
12.656	64.0615
12.674	64.0251
12.692	64.0007
12.71	63.9893
12.728	63.9919
12.746	64.0086
12.764	64.0388
12.782	64.0807
12.8	64.1313
12.818	64.1859
12.836	64.2388
12.854	64.2842
12.872	64.3167
12.89	64.3325
12.908	64.33
12.926	64.3113
12.944	64.2816
12.962	64.2483
12.98	64.2188
12.998	64.1992
13.016	64.1923
13.034	64.1971
13.052	64.2089
13.07	64.2209
13.088	64.2258
13.106	64.2183
13.124	64.1971
13.142	64.1652
13.16	64.1285
13.178	64.0937
13.196	64.0666
13.214	64.0488
13.232	64.0376
13.25	64.0264
13.268	64.0067
13.286	63.9721
13.304	63.9206
13.322	63.8568
13.34	63.7912
13.358	63.7377
13.376	63.7098
13.394	63.7159
13.412	63.7569
13.43	63.8249
13.448	63.9047
13.466	63.9775
13.484	64.0262
13.502	64.04
13.52	64.0175
13.538	63.9668
13.556	63.9034
13.574	63.846
13.592	63.8113
13.61	63.8095
13.628	63.842
13.646	63.9016
13.664	63.9743
13.682	64.0438
13.7	64.0955
13.718	64.1197
13.736	64.1145
13.754	64.0847
13.772	64.0415
13.79	63.9981
13.808	63.9671
13.826	63.9575
13.844	63.9722
13.862	64.0084
13.88	64.058
13.898	64.1102
13.916	64.1535
13.934	64.1781
13.952	64.1777
13.97	64.1498
13.988	64.0964
14.006	64.0226
14.024	63.9353
14.042	63.8425
14.06	63.751
14.078	63.6666
14.096	63.5932
14.114	63.5335
14.132	63.4887
14.15	63.4588
14.168	63.4435
14.186	63.4416
14.204	63.4513
14.222	63.4703
14.24	63.4952
14.258	63.5224
14.276	63.5477
14.294	63.5674
14.312	63.5788
14.33	63.5806
14.348	63.5729
14.366	63.5573
14.384	63.5366
14.402	63.5138
14.42	63.4918
14.438	63.4723
14.456	63.4562
14.474	63.4435
14.492	63.4333
14.51	63.4247
14.528	63.4168
14.546	63.4094
14.564	63.4033
14.582	63.3996
14.6	63.4
14.618	63.4057
14.636	63.4174
14.654	63.4343
14.672	63.4549
14.69	63.4766
14.708	63.4967
14.726	63.5121
14.744	63.52
14.762	63.5197
14.78	63.5114
14.798	63.4969
14.816	63.4784
14.834	63.459
14.852	63.4421
14.87	63.4295
14.888	63.4224
14.906	63.4208
14.924	63.4231
14.942	63.4267
14.96	63.4279
14.978	63.4234
14.996	63.4101
15.014	63.3857
15.032	63.3489
15.05	63.3001
15.068	63.2411
15.086	63.1744
15.104	63.1039
15.122	63.0341
15.14	62.9697
15.158	62.9141
15.176	62.8704
15.194	62.8408
15.212	62.8261
15.23	62.8256
15.248	62.8379
15.266	62.8612
15.284	62.892
15.302	62.9272
15.32	62.964
15.338	62.9998
15.356	63.0326
15.374	63.0609
15.392	63.0843
15.41	63.1026
15.428	63.1163
15.446	63.1259
15.464	63.1319
15.482	63.1347
15.5	63.1343
15.518	63.13
15.536	63.121
15.554	63.1067
15.572	63.0864
15.59	63.06
15.608	63.028
15.626	62.9914
15.644	62.9523
15.662	62.9141
15.68	62.8801
15.698	62.8532
15.716	62.8372
15.734	62.8342
15.752	62.8449
15.77	62.8693
15.788	62.9052
15.806	62.9488
15.824	62.9962
15.842	63.0421
15.86	63.0805
15.878	63.1073
15.896	63.119
15.914	63.1128
15.932	63.0888
15.95	63.0482
15.968	62.9934
15.986	62.9295
16.004	62.8602
16.022	62.7901
16.04	62.7243
16.058	62.6658
16.076	62.617
16.094	62.5796
16.112	62.5539
16.13	62.5396
16.148	62.5354
16.166	62.5401
16.184	62.5527
16.202	62.572
16.22	62.5979
16.238	62.6302
16.256	62.6692
16.274	62.7157
16.292	62.7702
16.31	62.8329
16.328	62.9041
16.346	62.9825
16.364	63.0673
16.382	63.1554
16.4	63.2436
16.418	63.329
16.436	63.4066
16.454	63.4727
16.472	63.5244
16.49	63.5581
16.508	63.5726
16.526	63.5672
16.544	63.5423
16.562	63.5004
16.58	63.4431
16.598	63.3753
16.616	63.3004
16.634	63.2218
16.652	63.1448
16.67	63.0716
16.688	63.005
16.706	62.9478
16.724	62.9004
16.742	62.8636
16.76	62.837
16.778	62.82
16.796	62.8113
16.814	62.8087
16.832	62.8112
16.85	62.8164
16.868	62.8229
16.886	62.8291
16.904	62.8339
16.922	62.8367
16.94	62.837
16.958	62.8354
16.976	62.832
16.994	62.8279
17.012	62.8242
17.03	62.8217
17.048	62.8222
17.066	62.826
17.084	62.8344
17.102	62.8474
17.12	62.8652
17.138	62.887
17.156	62.9118
17.174	62.9387
17.192	62.9652
17.21	62.9904
17.228	63.0116
17.246	63.0273
17.264	63.0361
17.282	63.0362
17.3	63.0273
17.318	63.0085
17.336	62.9804
17.354	62.9429
17.372	62.8978
17.39	62.8459
17.408	62.7894
17.426	62.7302
17.444	62.6698
17.462	62.611
17.48	62.5547
17.498	62.5035
17.516	62.4585
17.534	62.4206
17.552	62.3911
17.57	62.3704
17.588	62.3586
17.606	62.3554
17.624	62.3601
17.642	62.3712
17.66	62.3882
17.678	62.4083
17.696	62.4307
17.714	62.4531
17.732	62.4744
17.75	62.4927
17.768	62.5073
17.786	62.5176
17.804	62.523
17.822	62.5237
17.84	62.5203
17.858	62.5139
17.876	62.5053
17.894	62.4967
17.912	62.4886
17.93	62.4837
17.948	62.4821
17.966	62.4861
17.984	62.4959
18.002	62.5127
18.02	62.5361
18.038	62.5664
18.056	62.6022
18.074	62.6434
18.092	62.6873
18.11	62.7335
18.128	62.7788
18.146	62.8224
18.164	62.8612
18.182	62.8943
18.2	62.9196
18.218	62.936
18.236	62.9424
18.254	62.9385
18.272	62.924
18.29	62.8999
18.308	62.8665
18.326	62.8263
18.344	62.7799
18.362	62.7306
18.38	62.6793
18.398	62.6291
18.416	62.5815
18.434	62.5389
18.452	62.5023
18.47	62.4732
18.488	62.4516
18.506	62.438
18.524	62.431
18.542	62.4304
18.56	62.4336
18.578	62.4402
18.596	62.4468
18.614	62.4532
18.632	62.4563
18.65	62.4559
18.668	62.4501
18.686	62.439
18.704	62.4222
18.722	62.3999
18.74	62.373
18.758	62.342
18.776	62.3085
18.794	62.2731
18.812	62.2373
18.83	62.2014
18.848	62.1666
18.866	62.1325
18.884	62.0997
18.902	62.0675
18.92	62.0356
18.938	62.0034
18.956	61.9699
18.974	61.9349
18.992	61.8974
19.01	61.8576
19.028	61.8153
19.046	61.7714
19.064	61.7267
19.082	61.6824
19.1	61.6404
19.118	61.6019
19.136	61.5697
19.154	61.5444
19.172	61.5291
19.19	61.5238
19.208	61.5309
19.226	61.5498
19.244	61.581
19.262	61.6239
19.28	61.6766
19.298	61.7388
19.316	61.8066
19.334	61.8802
19.352	61.9543
19.37	62.0291
19.388	62.0998
19.406	62.1666
19.424	62.2255
19.442	62.2764
19.46	62.3172
19.478	62.3474
19.496	62.3666
19.514	62.3744
19.532	62.3718
19.55	62.3589
19.568	62.337
19.586	62.3075
19.604	62.2712
19.622	62.2301
19.64	62.1845
19.658	62.1371
19.676	62.0878
19.694	62.0392
19.712	61.9911
19.73	61.9455
19.748	61.9023
19.766	61.8628
19.784	61.8272
19.802	61.7958
19.82	61.7688
19.838	61.746
19.856	61.7274
19.874	61.7129
19.892	61.7016
19.91	61.6938
19.928	61.6883
19.946	61.6853
19.964	61.6834
19.982	61.6827
20	61.6819
20.018	61.6805
20.036	61.6781
20.054	61.6737
20.072	61.6673
20.09	61.6582
20.108	61.6464
20.126	61.6315
20.144	61.6134
20.162	61.5924
20.18	61.5684
20.198	61.5418
20.216	61.513
20.234	61.4822
20.252	61.4506
20.27	61.4179
20.288	61.3857
20.306	61.3538
20.324	61.3235
20.342	61.2955
20.36	61.2702
20.378	61.2487
20.396	61.2309
20.414	61.2184
20.432	61.2108
20.45	61.2092
20.468	61.2142
20.486	61.2257
20.504	61.2447
20.522	61.2709
20.54	61.3045
20.558	61.3457
20.576	61.3937
20.594	61.4485
20.612	61.5096
20.63	61.5755
20.648	61.6467
20.666	61.7203
20.684	61.7968
20.702	61.8738
20.72	61.9502
20.738	62.0256
20.756	62.0963
20.774	62.1634
20.792	62.2234
20.81	62.2761
20.828	62.3203
20.846	62.3535
20.864	62.3763
20.882	62.3866
20.9	62.3845
20.918	62.3695
20.936	62.3408
20.954	62.299
20.972	62.2447
20.99	62.1775
21.008	62.0991
21.026	62.0098
21.044	61.9105
21.062	61.8038
21.08	61.6889
21.098	61.5691
21.116	61.4449
21.134	61.3174
21.152	61.1898
21.17	61.0612
21.188	60.9346
21.206	60.8103
21.224	60.6891
21.242	60.573
21.26	60.4615
21.278	60.3557
21.296	60.256
21.314	60.1625
21.332	60.076
21.35	59.9964
21.368	59.9242
21.386	59.8593
21.404	59.8022
21.422	59.7539
21.44	59.7138
21.458	59.6831
21.476	59.662
21.494	59.6505
21.512	59.6503
21.53	59.6607
21.548	59.6828
21.566	59.7174
21.584	59.7641
21.602	59.8235
21.62	59.896
21.638	59.9806
21.656	60.0765
21.674	60.1842
21.692	60.3005
21.71	60.4253
21.728	60.5574
21.746	60.6923
21.764	60.8318
21.782	60.9712
21.8	61.1073
21.818	61.2415
21.836	61.367
21.854	61.4839
21.872	61.5907
21.89	61.6822
21.908	61.7601
21.926	61.8219
21.944	61.8654
21.962	61.8918
21.98	61.9005
21.998	61.8907
22.016	61.8639
22.034	61.8218
22.052	61.7634
22.07	61.6922
22.088	61.6107
22.106	61.5178
22.124	61.4194
22.142	61.3163
22.16	61.209
22.178	61.1038
22.196	60.9991
22.214	60.8977
22.232	60.8037
22.25	60.7154
22.268	60.6354
22.286	60.5657
22.304	60.5051
22.322	60.4548
22.34	60.4154
22.358	60.3861
22.376	60.3661
22.394	60.3561
22.412	60.3547
22.43	60.36
22.448	60.3731
22.466	60.3918
22.484	60.4143
22.502	60.4418
22.52	60.4717
22.538	60.5028
22.556	60.5359
22.574	60.5693
22.592	60.6029
22.61	60.6368
22.628	60.6703
22.646	60.7038
22.664	60.7366
22.682	60.7675
22.7	60.7973
22.718	60.8245
22.736	60.8472
22.754	60.8665
22.772	60.8809
22.79	60.8893
22.808	60.8925
22.826	60.8888
22.844	60.877
22.862	60.8581
22.88	60.8296
22.898	60.7908
22.916	60.7422
22.934	60.6818
22.952	60.6086
22.97	60.5235
22.988	60.4255
23.006	60.3143
23.024	60.1904
23.042	60.0543
23.06	59.9053
23.078	59.7444
23.096	59.5745
23.114	59.3948
23.132	59.2065
23.15	59.0135
23.168	58.8152
23.186	58.6124
23.204	58.409
23.222	58.2043
23.24	57.9991
23.258	57.7976
23.276	57.599
23.294	57.4041
23.312	57.2168
23.33	57.0365
23.348	56.8635
23.366	56.7012
23.384	56.5492
23.402	56.4076
23.42	56.2787
23.438	56.1629
23.456	56.0595
23.474	55.9697
23.492	55.8938
23.51	55.8312
23.528	55.7812
23.546	55.744
23.564	55.7196
23.582	55.7055
23.6	55.7014
23.618	55.7079
23.636	55.7215
23.654	55.741
23.672	55.7679
23.69	55.7981
23.708	55.8292
23.726	55.8633
23.744	55.8967
23.762	55.9261
23.78	55.9537
23.798	55.9771
23.816	55.9934
23.834	56.0035
23.852	56.0073
23.87	56.0038
23.888	55.9918
23.906	55.9732
23.924	55.9506
23.942	55.9221
23.96	55.8892
23.978	55.8584
23.996	55.8301
24.014	55.8025
24.032	55.7859
24.05	55.7859
24.068	55.796
24.086	55.8275
24.104	55.8904
24.122	55.9769
24.14	56.0952
24.158	56.258
24.176	56.4616
24.194	56.7071
24.212	57.0029
24.23	57.3513
24.248	57.7491
24.266	58.1981
24.284	58.7013
24.302	59.2588
24.32	59.8622
24.338	60.5049
24.356	61.1954
24.374	61.9216
24.392	62.6661
24.41	63.438
24.428	64.2314
24.446	65.02
24.464	65.7966
24.482	66.5738
24.5	67.323
24.518	68.0207
24.536	68.6866
24.554	69.3021
24.572	69.8393
24.59	70.3048
24.608	70.6989
24.626	71.0009
24.644	71.2002
24.662	71.3072
24.68	71.3163
24.698	71.2208
24.716	71.0195
24.734	70.7199
24.752	70.3303
24.77	69.8444
24.788	69.2646
24.806	68.6149
24.824	67.9089
24.842	67.1265
24.86	66.2971
24.878	65.4558
24.896	64.5864
24.914	63.6956
24.932	62.8223
24.95	61.9853
24.968	61.1603
24.986	60.3772
25.004	59.6682
25.022	59.0198
25.04	58.4351
25.058	57.9361
25.076	57.534
25.094	57.2169
25.112	56.9907
25.13	56.8621
25.148	56.8347
25.166	56.9005
25.184	57.0496
25.202	57.2809
25.22	57.6022
25.238	57.9928
25.256	58.4318
25.274	58.9348
25.292	59.4925
25.31	60.075
25.328	60.6675
25.346	61.2917
25.364	61.9217
25.382	62.5272
25.4	63.1144
25.418	63.6877
25.436	64.2268
25.454	64.7157
25.472	65.1648
25.49	65.5722
25.508	65.9316
25.526	66.2385
25.544	66.4964
25.562	66.7116
25.58	66.8893
25.598	67.0215
25.616	67.1152
25.634	67.1846
25.652	67.2369
25.67	67.2607
25.688	67.269
25.706	67.2776
25.724	67.2872
25.742	67.2915
25.76	67.3012
25.778	67.3263
25.796	67.363
25.814	67.4105
25.832	67.4721
25.85	67.5513
25.868	67.649
25.886	67.7592
25.904	67.8754
25.922	68.0004
25.94	68.1383
25.958	68.2726
25.976	68.3871
25.994	68.4918
26.012	68.5852
26.03	68.6475
26.048	68.6618
26.066	68.6419
26.084	68.5821
26.102	68.4685
26.12	68.2909
26.138	68.0587
26.156	67.7694
26.174	67.4189
26.192	67.0013
26.21	66.5177
26.228	65.9798
26.246	65.3994
26.264	64.7709
26.282	64.0911
26.3	63.3806
26.318	62.6594
26.336	61.912
26.354	61.1417
26.372	60.3766
26.39	59.6424
26.408	58.921
26.426	58.2166
26.444	57.5494
26.462	56.9372
26.48	56.3696
26.498	55.8457
26.516	55.37
26.534	54.9479
26.552	54.5827
26.57	54.2639
26.588	53.9795
26.606	53.7251
26.624	53.5172
26.642	53.3356
26.66	53.1555
26.678	52.9665
26.696	52.7931
26.714	52.6108
26.732	52.3907
26.75	52.1205
26.768	51.8256
26.786	51.4842
26.804	51.0705
26.822	50.5708
26.84	50.0034
26.858	49.3619
26.876	48.6377
26.894	47.8234
26.912	46.9222
26.93	45.9421
26.948	44.891
26.966	43.7054
26.984	42.2792
27.002	40.8705
27.02	39.76
27.028	39.4678