File: Bakgrunnsmateriale/MATLAB/FTIR/ftir_data/subBb/Mapping_121/C-4040-8_t37_cm-1.asc
PE IR       SPECTRUM    SPECTRUM    ASCII       PEDS        1.60
  -1
C-1BEF~1.ASC
17/03/27
17:30:04.00
17/03/27
17:30:04.00
tln
$C-4040-8_t0037$<tbV0>[5.2,-5.2,8.0,0.0,27,1,0]
370
64

2002,4.07
MIRTGS : RIGHTBACK : INTERNAL 2
MIR : ON : INTERNAL 2
OPTKBR

0.200000
8
8.000000
FILLER
RATIO
SPECTRUM
UNLOCKED 256

DOUBLE
64
COMBINED
1
0
0

1.000000
RATIO

1
0
TRUE
51149
0
LEFT NOT FITTED RIGHT NOT FITTED 0
NONE
NONE
15600
12
4.427000
51148
TRUE
1 0 8 72 0 0 0 0

15798

#HDR
-1
-1
#GR
CM-1
%T
2.38419e-05
0.0
5000
-1.000000
4631
8
65.1172
-5.736422
#DATA
5000	63.0311
4996	63.1252
4992	63.1094
4988	62.8981
4984	62.5326
4980	62.4371
4976	62.6709
4972	62.7534
4968	62.7491
4964	62.8798
4960	63.0466
4956	63.1895
4952	63.1642
4948	62.8739
4944	62.7923
4940	62.9801
4936	62.8093
4932	62.5407
4928	62.7204
4924	62.8469
4920	62.8499
4916	63.1021
4912	63.1513
4908	63.0157
4904	63.0702
4900	63.2024
4896	63.361
4892	63.4311
4888	63.3042
4884	63.2211
4880	63.4733
4876	63.7282
4872	63.452
4868	63.0775
4864	63.0135
4860	62.7709
4856	62.4154
4852	62.5374
4848	62.9294
4844	63.0136
4840	62.8202
4836	62.6762
4832	62.7719
4828	63.0117
4824	63.1213
4820	63.1248
4816	63.0198
4812	62.8587
4808	62.8554
4804	62.8644
4800	62.7027
4796	62.5729
4792	62.5853
4788	62.5466
4784	62.3571
4780	62.19
4776	62.3184
4772	62.5979
4768	62.7541
4764	62.6959
4760	62.4549
4756	62.3664
4752	62.5275
4748	62.6297
4744	62.5948
4740	62.6504
4736	62.7071
4732	62.5488
4728	62.3737
4724	62.2847
4720	62.3111
4716	62.5347
4712	62.6509
4708	62.4048
4704	62.0916
4700	62.0594
4696	62.2232
4692	62.2953
4688	62.2491
4684	62.2971
4680	62.5281
4676	62.6627
4672	62.4139
4668	62.15
4664	62.2116
4660	62.3476
4656	62.4472
4652	62.3658
4648	62.0684
4644	61.8532
4640	61.8434
4636	62.0287
4632	62.2581
4628	62.3121
4624	62.2238
4620	62.3395
4616	62.5888
4612	62.6156
4608	62.4773
4604	62.4137
4600	62.4861
4596	62.5899
4592	62.6743
4588	62.5529
4584	62.1899
4580	61.9681
4576	62.0318
4572	62.1407
4568	62.3411
4564	62.6699
4560	62.7002
4556	62.5648
4552	62.6407
4548	62.6431
4544	62.539
4540	62.5375
4536	62.4972
4532	62.5327
4528	62.5804
4524	62.3556
4520	62.2511
4516	62.5093
4512	62.8338
4508	62.9916
4504	63.0188
4500	63.0066
4496	63.0093
4492	63.1172
4488	63.1581
4484	63.0881
4480	63.1731
4476	63.203
4472	63.0237
4468	63.0617
4464	63.1891
4460	63.0732
4456	63.0158
4452	63.0588
4448	63.0342
4444	63.0632
4440	63.1759
4436	63.2048
4432	63.1471
4428	63.1049
4424	63.2007
4420	63.3025
4416	63.2503
4412	63.1497
4408	63.1353
4404	63.3462
4400	63.7175
4396	64.1433
4392	63.9623
4388	64.1918
4384	63.5921
4380	62.0831
4376	63.9174
4372	64.8238
4368	59.1843
4364	48.2523
4360	40.6622
4356	43.6058
4352	53.2052
4348	61.8469
4344	64.6146
4340	63.9315
4336	63.2326
4332	62.7391
4328	62.8524
4324	63.0693
4320	63.2897
4316	63.6731
4312	63.63
4308	63.1097
4304	62.7495
4300	62.8181
4296	62.9137
4292	62.7361
4288	62.5425
4284	62.5209
4280	62.7127
4276	62.969
4272	62.8211
4268	62.4831
4264	62.5201
4260	62.6654
4256	62.6958
4252	62.6596
4248	62.4715
4244	62.3107
4240	62.3312
4236	62.4302
4232	62.567
4228	62.576
4224	62.378
4220	62.2403
4216	62.1452
4212	61.9776
4208	61.9466
4204	61.9713
4200	61.8592
4196	61.8634
4192	61.8402
4188	61.4848
4184	61.3387
4180	61.7283
4176	61.9256
4172	61.5152
4168	61.2475
4164	61.4465
4160	61.4485
4156	61.2391
4152	61.3212
4148	61.6105
4144	61.7743
4140	61.8394
4136	61.8616
4132	61.6714
4128	61.3647
4124	61.2211
4120	61.2139
4116	61.2048
4112	61.0589
4108	60.8389
4104	60.8432
4100	61.0074
4096	61.0491
4092	60.968
4088	60.9027
4084	60.9411
4080	60.9833
4076	60.9789
4072	60.9956
4068	60.9616
4064	60.8699
4060	60.74
4056	60.607
4052	60.6439
4048	60.8237
4044	60.9358
4040	60.902
4036	60.8324
4032	60.8178
4028	60.77
4024	60.7026
4020	60.6809
4016	60.6674
4012	60.7419
4008	60.7975
4004	60.6912
4000	60.6741
3996	60.7319
3992	60.717
3988	60.7677
3984	60.8032
3980	60.7315
3976	60.6848
3972	60.7343
3968	60.8654
3964	60.9159
3960	60.7676
3956	60.6012
3952	60.5834
3948	60.6353
3944	60.7095
3940	60.7727
3936	60.6692
3932	60.5062
3928	60.4783
3924	60.5694
3920	60.6758
3916	60.678
3912	60.6425
3908	60.6882
3904	60.768
3900	60.69
3896	60.5374
3892	60.5488
3888	60.5768
3884	60.5912
3880	60.7244
3876	60.746
3872	60.5352
3868	60.4101
3864	60.5245
3860	60.64
3856	60.6614
3852	60.683
3848	60.6662
3844	60.5921
3840	60.5138
3836	60.3765
3832	60.2596
3828	60.3604
3824	60.4476
3820	60.3421
3816	60.2968
3812	60.3904
3808	60.417
3804	60.3161
3800	60.1971
3796	60.0583
3792	59.9144
3788	59.8467
3784	59.9309
3780	60.075
3776	60.0574
3772	59.9563
3768	60.0367
3764	60.2095
3760	60.2002
3756	60.0871
3752	60.0376
3748	59.9978
3744	59.9566
3740	59.9443
3736	59.9411
3732	59.9425
3728	59.9665
3724	59.9917
3720	59.9065
3716	59.7848
3712	59.7494
3708	59.7334
3704	59.7366
3700	59.7171
3696	59.5971
3692	59.4573
3688	59.382
3684	59.4073
3680	59.4843
3676	59.4995
3672	59.4035
3668	59.2598
3664	59.1886
3660	59.1997
3656	59.1908
3652	59.1965
3648	59.2623
3644	59.2808
3640	59.2028
3636	59.0575
3632	58.9918
3628	59.1012
3624	59.2695
3620	59.3219
3616	59.2114
3612	59.1179
3608	59.1068
3604	59.0039
3600	58.814
3596	58.7878
3592	58.9001
3588	58.9078
3584	58.8591
3580	58.8598
3576	58.8914
3572	58.9478
3568	58.8798
3564	58.5708
3560	58.3618
3556	58.5097
3552	58.6791
3548	58.6379
3544	58.5858
3540	58.6259
3536	58.5878
3532	58.4693
3528	58.4561
3524	58.4677
3520	58.4361
3516	58.5284
3512	58.6443
3508	58.5962
3504	58.5037
3500	58.5124
3496	58.5475
3492	58.4579
3488	58.3506
3484	58.3778
3480	58.3395
3476	58.2737
3472	58.3234
3468	58.2979
3464	58.147
3460	58.0388
3456	58.0962
3452	58.1472
3448	58.032
3444	57.967
3440	58.077
3436	58.1997
3432	58.2474
3428	58.1641
3424	57.9388
3420	57.8097
3416	57.8312
3412	57.8856
3408	57.8973
3404	57.7788
3400	57.656
3396	57.6522
3392	57.6511
3388	57.5969
3384	57.5941
3380	57.6145
3376	57.5727
3372	57.5138
3368	57.4734
3364	57.3764
3360	57.2436
3356	57.2834
3352	57.4248
3348	57.443
3344	57.4575
3340	57.5547
3336	57.4958
3332	57.3095
3328	57.2565
3324	57.2531
3320	57.1574
3316	57.0332
3312	56.9842
3308	57.0299
3304	57.0047
3300	56.9203
3296	56.881
3292	56.7862
3288	56.6546
3284	56.607
3280	56.7117
3276	56.8568
3272	56.7905
3268	56.5952
3264	56.6137
3260	56.7757
3256	56.788
3252	56.6942
3248	56.5927
3244	56.6051
3240	56.7024
3236	56.6741
3232	56.5823
3228	56.4618
3224	56.3222
3220	56.2554
3216	56.1831
3212	56.1058
3208	56.0767
3204	56.0823
3200	56.1781
3196	56.2346
3192	56.1472
3188	56.0515
3184	56.0488
3180	56.0569
3176	55.9418
3172	55.8022
3168	55.77
3164	55.8463
3160	55.8539
3156	55.7226
3152	55.6533
3148	55.654
3144	55.6599
3140	55.7161
3136	55.7899
3132	55.7278
3128	55.5655
3124	55.4995
3120	55.5561
3116	55.6736
3112	55.7149
3108	55.6365
3104	55.4928
3100	55.3051
3096	55.1807
3092	55.1692
3088	55.1861
3084	55.1541
3080	55.0938
3076	55.0221
3072	55.0016
3068	55.0273
3064	54.9552
3060	54.844
3056	54.8203
3052	54.8026
3048	54.7254
3044	54.6756
3040	54.6659
3036	54.6499
3032	54.6241
3028	54.5809
3024	54.5576
3020	54.5661
3016	54.5223
3012	54.4171
3008	54.4047
3004	54.4626
3000	54.4245
2996	54.3786
2992	54.3371
2988	54.2188
2984	54.1395
2980	54.1177
2976	54.0761
2972	54.043
2968	54.0096
2964	53.903
2960	53.8145
2956	53.7786
2952	53.6726
2948	53.6025
2944	53.6449
2940	53.6826
2936	53.6885
2932	53.5952
2928	53.4394
2924	53.3272
2920	53.256
2916	53.2724
2912	53.3265
2908	53.3227
2904	53.2531
2900	53.1888
2896	53.1795
2892	53.1693
2888	53.1622
2884	53.1392
2880	53.0288
2876	52.9603
2872	53.0222
2868	53.101
2864	53.0404
2860	52.8432
2856	52.7167
2852	52.6933
2848	52.668
2844	52.7231
2840	52.8399
2836	52.7908
2832	52.6417
2828	52.5606
2824	52.4595
2820	52.3741
2816	52.3724
2812	52.3809
2808	52.3731
2804	52.2992
2800	52.1852
2796	52.1174
2792	52.1214
2788	52.1412
2784	52.061
2780	51.922
2776	51.8483
2772	51.8217
2768	51.7961
2764	51.7494
2760	51.7071
2756	51.6803
2752	51.6566
2748	51.6942
2744	51.6962
2740	51.5579
2736	51.4034
2732	51.3169
2728	51.2414
2724	51.2044
2720	51.2545
2716	51.2424
2712	51.124
2708	51.0132
2704	50.9356
2700	50.9226
2696	50.9839
2692	50.9997
2688	50.9208
2684	50.8156
2680	50.7166
2676	50.6448
2672	50.6693
2668	50.7322
2664	50.6821
2660	50.5764
2656	50.5178
2652	50.469
2648	50.3612
2644	50.2691
2640	50.2663
2636	50.2657
2632	50.2369
2628	50.1948
2624	50.1059
2620	49.9862
2616	49.9367
2612	49.9446
2608	49.9038
2604	49.8562
2600	49.8461
2596	49.7864
2592	49.7115
2588	49.7022
2584	49.6707
2580	49.5764
2576	49.5009
2572	49.4923
2568	49.4913
2564	49.4543
2560	49.3722
2556	49.2854
2552	49.2348
2548	49.2162
2544	49.2094
2540	49.1842
2536	49.1409
2532	49.0996
2528	49.0354
2524	49.0043
2520	49.0089
2516	48.9575
2512	48.8945
2508	48.8126
2504	48.7359
2500	48.6996
2496	48.581
2492	48.4117
2488	48.3493
2484	48.3648
2480	48.3376
2476	48.2599
2472	48.1893
2468	48.1987
2464	48.2867
2460	48.3234
2456	48.2493
2452	48.1177
2448	47.9782
2444	47.8581
2440	47.7359
2436	47.6314
2432	47.6044
2428	47.5738
2424	47.5233
2420	47.5372
2416	47.4557
2412	47.2636
2408	47.1688
2404	47.2062
2400	47.2812
2396	47.2713
2392	47.2461
2388	47.2547
2384	47.1883
2380	47.043
2376	46.9572
2372	46.9895
2368	47.0117
2364	46.9658
2360	46.8617
2356	46.7038
2352	46.5692
2348	46.5159
2344	46.5
2340	46.4876
2336	46.4714
2332	46.3853
2328	46.2777
2324	46.2854
2320	46.3292
2316	46.2545
2312	46.1
2308	46.0111
2304	46.0018
2300	45.9555
2296	45.8558
2292	45.7526
2288	45.7093
2284	45.7009
2280	45.6287
2276	45.5403
2272	45.4881
2268	45.4665
2264	45.4558
2260	45.4132
2256	45.3594
2252	45.3311
2248	45.2705
2244	45.2061
2240	45.2327
2236	45.2276
2232	45.096
2228	44.93
2224	44.8139
2220	44.792
2216	44.8377
2212	44.8316
2208	44.7626
2204	44.7169
2200	44.6671
2196	44.5915
2192	44.5208
2188	44.4916
2184	44.5022
2180	44.4751
2176	44.3852
2172	44.2577
2168	44.1086
2164	43.9647
2160	43.8592
2156	43.7823
2152	43.7765
2148	43.8323
2144	43.8222
2140	43.7381
2136	43.6414
2132	43.5983
2128	43.5671
2124	43.4835
2120	43.4114
2116	43.3989
2112	43.3966
2108	43.3588
2104	43.3288
2100	43.2806
2096	43.1936
2092	43.1409
2088	43.16
2084	43.1283
2080	42.9461
2076	42.7607
2072	42.6064
2068	42.4366
2064	42.3574
2060	42.4176
2056	42.524
2052	42.583
2048	42.5501
2044	42.4761
2040	42.4585
2036	42.4657
2032	42.4443
2028	42.3732
2024	42.2804
2020	42.2085
2016	42.1072
2012	42.0314
2008	42.0377
2004	42.0139
2000	41.9204
1996	41.8035
1992	41.7035
1988	41.6882
1984	41.723
1980	41.6754
1976	41.6196
1972	41.5887
1968	41.4433
1964	41.2939
1960	41.2452
1956	41.204
1952	41.1664
1948	41.1331
1944	41.0507
1940	40.9846
1936	40.9568
1932	40.8984
1928	40.8371
1924	40.778
1920	40.7199
1916	40.6619
1912	40.5705
1908	40.5083
1904	40.4846
1900	40.4272
1896	40.3497
1892	40.2842
1888	40.2424
1884	40.2296
1880	40.1905
1876	40.09
1872	39.981
1868	39.9344
1864	39.93
1860	39.8676
1856	39.791
1852	39.7643
1848	39.7418
1844	39.7141
1840	39.6546
1836	39.5519
1832	39.4655
1828	39.4072
1824	39.335
1820	39.2522
1816	39.1788
1812	39.088
1808	38.972
1804	38.9004
1800	38.8791
1796	38.8354
1792	38.7698
1788	38.7212
1784	38.6757
1780	38.6238
1776	38.5873
1772	38.5542
1768	38.5148
1764	38.4949
1760	38.473
1756	38.4191
1752	38.3483
1748	38.2423
1744	38.1166
1740	38.008
1736	37.91
1732	37.8183
1728	37.767
1724	37.7458
1720	37.7036
1716	37.6923
1712	37.7179
1708	37.6898
1704	37.5994
1700	37.5469
1696	37.5691
1692	37.5466
1688	37.4061
1684	37.2428
1680	37.1865
1676	37.212
1672	37.2116
1668	37.1415
1664	37.0428
1660	36.9517
1656	36.8638
1652	36.826
1648	36.817
1644	36.7691
1640	36.6795
1636	36.5963
1632	36.5515
1628	36.5117
1624	36.4721
1620	36.4203
1616	36.3474
1612	36.2917
1608	36.254
1604	36.1938
1600	36.0883
1596	35.9809
1592	35.9466
1588	35.9933
1584	35.9884
1580	35.8791
1576	35.7837
1572	35.7091
1568	35.6051
1564	35.517
1560	35.4479
1556	35.4007
1552	35.417
1548	35.4025
1544	35.3394
1540	35.3186
1536	35.2733
1532	35.1949
1528	35.1388
1524	35.072
1520	34.9957
1516	34.9048
1512	34.8119
1508	34.7931
1504	34.809
1500	34.7467
1496	34.6444
1492	34.5963
1488	34.5647
1484	34.5072
1480	34.432
1476	34.3721
1472	34.3196
1468	34.2824
1464	34.2991
1460	34.3215
1456	34.2935
1452	34.1543
1448	34.0108
1444	33.9536
1440	33.8273
1436	33.6935
1432	33.7159
1428	33.7744
1424	33.7605
1420	33.6818
1416	33.538
1412	33.4239
1408	33.374
1404	33.3494
1400	33.3508
1396	33.3338
1392	33.2926
1388	33.2702
1384	33.1751
1380	32.9794
1376	32.8858
1372	32.9036
1368	32.856
1364	32.7899
1360	32.7783
1356	32.7415
1352	32.6739
1348	32.5616
1344	32.4608
1340	32.4763
1336	32.4626
1332	32.3176
1328	32.1838
1324	32.1212
1320	32.0552
1316	32.0184
1312	32.0354
1308	32.0273
1304	31.9767
1300	31.8944
1296	31.818
1292	31.8105
1288	31.8176
1284	31.8096
1280	31.7978
1276	31.7039
1272	31.5524
1268	31.4906
1264	31.5174
1260	31.4775
1256	31.378
1252	31.3498
1248	31.3344
1244	31.2716
1240	31.2031
1236	31.1331
1232	31.0699
1228	30.9917
1224	30.9041
1220	30.8556
1216	30.8225
1212	30.7824
1208	30.7355
1204	30.6886
1200	30.7001
1196	30.7368
1192	30.6698
1188	30.5144
1184	30.389
1180	30.3586
1176	30.3111
1172	30.175
1168	30.0334
1164	29.9049
1160	29.8488
1156	29.8756
1152	29.8244
1148	29.7199
1144	29.7523
1140	29.7503
1136	29.5125
1132	29.276
1128	29.1819
1124	29.1616
1120	29.2737
1116	29.5003
1112	29.5815
1108	29.4169
1104	29.2271
1100	29.1008
1096	29.0615
1092	29.2487
1088	29.4336
1084	29.2966
1080	29.0495
1076	28.8783
1072	28.652
1068	28.4763
1064	28.4105
1060	28.367
1056	28.4348
1052	28.4926
1048	28.3534
1044	28.1566
1040	28.1535
1036	28.3066
1032	28.3411
1028	28.1793
1024	28.0017
1020	27.9952
1016	28.0494
1012	28.0541
1008	28.0258
1004	27.9469
1000	27.8636
996	 27.7765
992	 27.6256
988	 27.4647
984	 27.3458
980	 27.2609
976	 27.2007
972	 27.11
968	 27.0661
964	 27.0805
960	 27.098
956	 27.1104
952	 26.9924
948	 26.7811
944	 26.6694
940	 26.6614
936	 26.7238
932	 26.7315
928	 26.5279
924	 26.2994
920	 26.2114
916	 26.3019
912	 26.4521
908	 26.3622
904	 26.0314
900	 25.7305
896	 25.6383
892	 25.676
888	 25.7162
884	 25.7309
880	 25.7165
876	 25.6509
872	 25.5477
868	 25.495
864	 25.463
860	 25.3816
856	 25.2665
852	 25.1246
848	 24.9931
844	 24.9182
840	 24.8672
836	 24.8361
832	 24.8521
828	 24.8402
824	 24.7317
820	 24.6243
816	 24.6348
812	 24.5675
808	 24.3289
804	 24.2033
800	 24.1387
796	 24.0455
792	 24.0617
788	 24.1016
784	 24.0975
780	 23.9948
776	 23.7479
772	 23.5278
768	 23.4536
764	 23.501
760	 23.4942
756	 23.1968
752	 22.8603
748	 22.857
744	 22.9997
740	 23.0061
736	 23.0466
732	 23.1737
728	 23.1073
724	 22.7894
720	 22.5241
716	 22.4417
712	 22.3218
708	 22.1514
704	 21.8815
700	 21.5625
696	 21.4376
692	 21.4155
688	 21.3738
684	 21.3938
680	 21.4126
676	 21.1317
672	 20.798
668	 20.8548
664	 20.9672
660	 20.7914
656	 20.5665
652	 20.4482
648	 20.3609
644	 20.2959
640	 20.2045
636	 20.1136
632	 20.0238
628	 19.7592
624	 19.4986
620	 19.5312
616	 19.4817
612	 19.1634
608	 19.0269
604	 19.273
600	 19.3715
596	 18.9799
592	 18.6873
588	 18.785
584	 18.8011
580	 18.5843
576	 18.3147
572	 18.0246
568	 17.8205
564	 17.6567
560	 17.5029
556	 17.4127
552	 17.2648
548	 17.0187
544	 16.7733
540	 16.6404
536	 16.4606
532	 16.186
528	 16.2083
524	 16.3513
520	 16.0358
516	 15.7043
512	 15.6732
508	 15.671
504	 15.785
500	 15.7472
496	 15.5416
492	 15.4763
488	 14.836
484	 13.837
480	 13.6711
476	 13.8397
472	 13.7695
468	 13.7409
464	 13.9407
460	 14.1801
456	 14.1728
452	 14.2213
448	 14.4509
444	 14.1885
440	 12.8633
436	 12.0397
432	 12.4613
428	 11.469
424	 9.448027
420	 9.012126
416	 9.042334
412	 8.663153
408	 8.214592
404	 6.637668
400	 7.568144
396	 12.0143
392	 10.5396
388	 9.761023
384	 8.371663
380	 -4.095458
376	 -0.319862
372	 21.3446
370	 33.1064