File: Bakgrunnsmateriale/MATLAB/FTIR/ftir_data/subBb/Mapping_121/C-4040-8_t120_cm-1.asc
PE IR       SPECTRUM    SPECTRUM    ASCII       PEDS        1.60
  -1
C-458B~1.ASC
17/03/28
00:35:47.00
17/03/28
00:35:47.00
tln
$C-4040-8_t0120$<tbV0>[-10.4,13.0,8.0,0.0,27,1,0]
370
64

2002,4.07
MIRTGS : RIGHTBACK : INTERNAL 2
MIR : ON : INTERNAL 2
OPTKBR

0.200000
8
8.000000
FILLER
RATIO
SPECTRUM
UNLOCKED 256

DOUBLE
64
COMBINED
1
0
0

1.000000
RATIO

1
0
TRUE
51149
0
LEFT NOT FITTED RIGHT NOT FITTED 0
NONE
NONE
15600
12
4.427000
51148
TRUE
1 0 8 72 0 0 0 0

15798

#HDR
-1
-1
#GR
CM-1
%T
2.38419e-05
0.0
5000
-1.000000
4631
8
70.8051
13.135
#DATA
5000	64.4855
4996	64.6121
4992	64.8058
4988	64.9529
4984	65.2331
4980	65.452
4976	65.2781
4972	64.9223
4968	64.6596
4964	64.5604
4960	64.331
4956	63.8861
4952	63.7349
4948	64.0847
4944	64.486
4940	64.6836
4936	64.7444
4932	64.6941
4928	64.621
4924	64.5136
4920	64.5165
4916	64.7854
4912	65.0317
4908	64.8478
4904	64.5876
4900	64.8325
4896	65.0696
4892	65.2625
4888	65.5173
4884	65.2167
4880	64.65
4876	64.1742
4872	63.9725
4868	64.2602
4864	64.6274
4860	64.8167
4856	64.7772
4852	64.5801
4848	64.5844
4844	64.6601
4840	64.6061
4836	64.574
4832	64.4965
4828	64.5599
4824	64.6432
4820	64.4576
4816	64.4019
4812	64.6205
4808	64.8652
4804	64.9028
4800	64.6339
4796	64.2705
4792	64.2517
4788	64.4981
4784	64.6433
4780	64.8909
4776	65.0773
4772	64.8624
4768	64.544
4764	64.3158
4760	64.2809
4756	64.4764
4752	64.5157
4748	64.4052
4744	64.5582
4740	64.839
4736	64.8116
4732	64.6152
4728	64.5993
4724	64.6714
4720	64.9434
4716	65.2946
4712	65.3279
4708	65.2381
4704	65.1528
4700	65.0518
4696	64.9294
4692	64.7496
4688	64.5915
4684	64.5977
4680	64.6523
4676	64.5168
4672	64.5047
4668	64.7007
4664	64.8695
4660	64.897
4656	64.6534
4652	64.4968
4648	64.7504
4644	65.1228
4640	65.1329
4636	64.9353
4632	64.877
4628	64.8804
4624	64.8632
4620	64.6806
4616	64.5066
4612	64.6069
4608	64.8273
4604	64.9202
4600	64.815
4596	64.6903
4592	64.5652
4588	64.4471
4584	64.5633
4580	64.7724
4576	64.8331
4572	64.7866
4568	64.7496
4564	65.0258
4560	65.3018
4556	65.1023
4552	64.9606
4548	65.3177
4544	65.6577
4540	65.4585
4536	64.9192
4532	64.5586
4528	64.72
4524	64.9627
4520	64.7841
4516	64.618
4512	64.8984
4508	65.296
4504	65.1891
4500	64.8283
4496	64.8354
4492	64.8057
4488	64.6265
4484	64.5857
4480	64.5619
4476	64.7273
4472	64.9387
4468	65.0264
4464	65.144
4460	65.0802
4456	64.9064
4452	64.8546
4448	64.8624
4444	64.6803
4440	64.6559
4436	64.7847
4432	64.532
4428	64.4722
4424	64.9301
4420	65.6729
4416	65.9782
4412	65.6285
4408	65.32
4404	65.1075
4400	59.1257
4396	53.1537
4392	59.7778
4388	66.6694
4384	65.1215
4380	64.8376
4376	66.5046
4372	66.6689
4368	66.4429
4364	66.1309
4360	65.4581
4356	65.0303
4352	65.2227
4348	65.2453
4344	65.1728
4340	65.1286
4336	65.0206
4332	65.0183
4328	65.0633
4324	65.0054
4320	65.0465
4316	65.2096
4312	65.2438
4308	65.1584
4304	64.9894
4300	64.855
4296	64.93
4292	65.1084
4288	65.2482
4284	65.1464
4280	64.8663
4276	64.6849
4272	64.5822
4268	64.5324
4264	64.5814
4260	64.6542
4256	64.7405
4252	64.8785
4248	64.872
4244	64.6618
4240	64.5495
4236	64.6063
4232	64.7896
4228	65.0109
4224	64.9723
4220	64.8392
4216	64.9945
4212	65.1785
4208	64.9337
4204	64.6047
4200	64.6834
4196	64.6431
4192	64.2616
4188	64.106
4184	64.3205
4180	64.5932
4176	64.5022
4172	63.863
4168	63.3824
4164	63.7498
4160	64.3074
4156	64.465
4152	64.5696
4148	64.687
4144	64.6357
4140	64.5586
4136	64.7228
4132	64.9852
4128	65.0446
4124	65.0008
4120	64.9051
4116	64.8024
4112	64.7648
4108	64.6851
4104	64.5948
4100	64.6275
4096	64.7845
4092	64.9091
4088	64.9441
4084	64.9847
4080	65.0397
4076	65.0537
4072	65.0083
4068	64.9842
4064	64.95
4060	64.8489
4056	64.8729
4052	65.0253
4048	65.0131
4044	64.8534
4040	64.7896
4036	64.8224
4032	64.8774
4028	64.858
4024	64.7676
4020	64.6853
4016	64.5782
4012	64.6018
4008	64.8244
4004	65.0291
4000	65.0829
3996	64.9942
3992	64.914
3988	64.989
3984	65.047
3980	65.0049
3976	65.0029
3972	64.9277
3968	64.8511
3964	64.8985
3960	64.9075
3956	64.9214
3952	65.0544
3948	65.1893
3944	65.0885
3940	64.8444
3936	64.7866
3932	64.8642
3928	64.9322
3924	65.0064
3920	64.9674
3916	64.8653
3912	64.7746
3908	64.7092
3904	64.7818
3900	64.7357
3896	64.6166
3892	64.8402
3888	65.184
3884	65.2322
3880	65.0726
3876	64.9425
3872	64.905
3868	64.9432
3864	64.9804
3860	65.0045
3856	65.0369
3852	65.0271
3848	65.0285
3844	64.9941
3840	64.8556
3836	64.7519
3832	64.699
3828	64.6823
3824	64.7281
3820	64.8606
3816	64.9724
3812	64.8998
3808	64.8935
3804	65.0249
3800	64.9913
3796	64.9557
3792	65.0378
3788	65.0449
3784	65.0322
3780	65.0401
3776	65.0199
3772	65.0168
3768	65.0893
3764	65.0595
3760	64.8183
3756	64.6758
3752	64.7308
3748	64.835
3744	65.0194
3740	65.213
3736	65.2236
3732	65.1015
3728	65.0357
3724	64.9989
3720	64.9822
3716	65.061
3712	65.0974
3708	65.0344
3704	64.9933
3700	65.0204
3696	65.0391
3692	65.0182
3688	64.9897
3684	64.976
3680	64.9915
3676	64.9782
3672	64.9557
3668	64.9947
3664	65.0115
3660	64.9333
3656	64.8762
3652	64.8742
3648	64.8417
3644	64.8609
3640	64.9547
3636	65.0104
3632	65.0006
3628	64.9955
3624	65.0361
3620	65.0096
3616	64.9467
3612	64.9723
3608	65.0567
3604	65.126
3600	65.0935
3596	65.0218
3592	65.0259
3588	64.9742
3584	64.9026
3580	64.9594
3576	64.9562
3572	64.8859
3568	64.8357
3564	64.81
3560	64.9196
3556	65.0321
3552	65.0436
3548	65.0557
3544	65.0995
3540	65.1016
3536	65.0414
3532	65.0083
3528	65.0737
3524	65.1755
3520	65.1426
3516	65.027
3512	64.9373
3508	64.9295
3504	65.0156
3500	65.0844
3496	65.0928
3492	64.9964
3488	64.83
3484	64.822
3480	65.0024
3476	65.114
3472	65.0326
3468	64.9422
3464	64.91
3460	64.8044
3456	64.7002
3452	64.7067
3448	64.8797
3444	65.0602
3440	65.0242
3436	64.8987
3432	64.805
3428	64.8336
3424	64.9973
3420	65.0549
3416	64.93
3412	64.8901
3408	65.0308
3404	65.0575
3400	64.9312
3396	64.9215
3392	64.9986
3388	65.0449
3384	65.0529
3380	65.0624
3376	65.0104
3372	64.8916
3368	64.9214
3364	64.9872
3360	64.9062
3356	64.8251
3352	64.9129
3348	65.043
3344	65.0272
3340	64.9712
3336	64.9454
3332	64.9217
3328	64.8271
3324	64.6955
3320	64.7155
3316	64.8375
3312	64.9096
3308	64.9031
3304	64.8669
3300	64.8423
3296	64.7874
3292	64.8096
3288	64.9895
3284	65.0484
3280	64.9204
3276	64.8208
3272	64.7703
3268	64.7684
3264	64.8809
3260	65.0278
3256	65.0306
3252	64.9582
3248	64.9293
3244	64.8568
3240	64.8599
3236	64.9368
3232	64.9451
3228	64.982
3224	64.9351
3220	64.7802
3216	64.7444
3212	64.783
3208	64.7993
3204	64.8353
3200	64.9078
3196	64.9025
3192	64.8005
3188	64.8601
3184	65.0075
3180	65.0417
3176	65.0832
3172	65.1176
3168	65.0138
3164	64.8967
3160	64.9399
3156	65.0202
3152	65.0251
3148	65.0356
3144	65.0378
3140	64.9777
3136	64.8942
3132	64.8451
3128	64.8847
3124	64.9839
3120	65.0188
3116	65.0418
3112	65.0921
3108	65.029
3104	64.9523
3100	64.9939
3096	65.0668
3092	65.1134
3088	65.1255
3084	65.1384
3080	65.1467
3076	65.0484
3072	64.9466
3068	65.0165
3064	65.102
3060	65.0123
3056	64.8969
3052	64.9409
3048	65.0395
3044	65.0618
3040	65.0583
3036	65.0902
3032	65.0843
3028	65.0187
3024	64.9939
3020	65.0393
3016	65.1164
3012	65.1416
3008	65.1361
3004	65.1983
3000	65.2632
2996	65.2961
2992	65.2936
2988	65.199
2984	65.0996
2980	65.0767
2976	65.0934
2972	65.0672
2968	64.9757
2964	64.8828
2960	64.8424
2956	64.8267
2952	64.7942
2948	64.7779
2944	64.8016
2940	64.8285
2936	64.8366
2932	64.8584
2928	64.8419
2924	64.7749
2920	64.7281
2916	64.7015
2912	64.7405
2908	64.8331
2904	64.8624
2900	64.8774
2896	64.8879
2892	64.7965
2888	64.7466
2884	64.8044
2880	64.8532
2876	64.8942
2872	64.8967
2868	64.8475
2864	64.8318
2860	64.83
2856	64.8241
2852	64.8775
2848	64.8957
2844	64.8371
2840	64.8414
2836	64.9216
2832	65.035
2828	65.1537
2824	65.1578
2820	65.043
2816	64.9849
2812	65.0952
2808	65.2116
2804	65.1525
2800	65.0329
2796	64.9834
2792	65.011
2788	65.098
2784	65.1511
2780	65.0706
2776	64.9907
2772	65.0308
2768	65.0417
2764	64.9894
2760	65.0199
2756	65.1426
2752	65.1671
2748	65.0515
2744	64.9975
2740	65.0291
2736	65.0553
2732	65.0942
2728	65.1062
2724	65.0506
2720	64.9931
2716	64.9935
2712	65.065
2708	65.1329
2704	65.127
2700	65.0528
2696	64.962
2692	64.9981
2688	65.1692
2684	65.2353
2680	65.194
2676	65.1824
2672	65.1225
2668	65.0916
2664	65.134
2660	65.0995
2656	65.0396
2652	65.0259
2648	65.0217
2644	65.0623
2640	65.1212
2636	65.109
2632	65.0623
2628	65.0119
2624	64.9595
2620	64.9848
2616	65.0426
2612	65.0625
2608	65.1005
2604	65.1205
2600	65.1013
2596	65.0995
2592	65.1192
2588	65.1049
2584	65.0856
2580	65.1238
2576	65.1515
2572	65.1735
2568	65.1659
2564	65.1036
2560	65.1163
2556	65.2217
2552	65.3131
2548	65.2973
2544	65.2222
2540	65.1992
2536	65.1873
2532	65.1608
2528	65.1678
2524	65.1649
2520	65.146
2516	65.1081
2512	65.0282
2508	64.9892
2504	65.0302
2500	65.1202
2496	65.1545
2492	65.101
2488	65.1337
2484	65.2419
2480	65.2573
2476	65.1537
2472	65.0619
2468	65.1249
2464	65.2172
2460	65.2318
2456	65.2134
2452	65.198
2448	65.1966
2444	65.1287
2440	65.0444
2436	65.0696
2432	65.1432
2428	65.1244
2424	64.8358
2420	64.5642
2416	64.9741
2412	65.5873
2408	65.5726
2404	65.2609
2400	65.1163
2396	65.1179
2392	65.1586
2388	65.245
2384	65.27
2380	65.1748
2376	65.1808
2372	65.2128
2368	65.1603
2364	65.1581
2360	65.1424
2356	65.1202
2352	65.1856
2348	65.2195
2344	65.1471
2340	65.0553
2336	65.0489
2332	65.106
2328	65.1035
2324	65.0535
2320	65.0725
2316	65.0994
2312	65.0429
2308	65.0087
2304	65.0515
2300	65.0671
2296	65.0651
2292	65.1098
2288	65.1238
2284	65.0787
2280	65.0393
2276	65.0409
2272	65.0616
2268	65.0828
2264	65.105
2260	65.0865
2256	65.0668
2252	65.0916
2248	65.1123
2244	65.1092
2240	65.0853
2236	65.1083
2232	65.1885
2228	65.2241
2224	65.1655
2220	65.0851
2216	65.1203
2212	65.2141
2208	65.2609
2204	65.3112
2200	65.3451
2196	65.305
2192	65.2629
2188	65.2693
2184	65.2448
2180	65.2008
2176	65.1964
2172	65.2123
2168	65.1914
2164	65.1358
2160	65.1224
2156	65.1088
2152	65.0595
2148	65.0289
2144	65.0581
2140	65.0455
2136	64.9423
2132	64.9062
2128	64.9873
2124	65.0748
2120	65.0823
2116	65.0742
2112	65.0869
2108	65.0547
2104	65.081
2100	65.1801
2096	65.1938
2092	65.186
2088	65.2195
2084	65.1114
2080	64.8801
2076	64.8433
2072	65.241
2068	65.7429
2064	65.6604
2060	65.1789
2056	65.0148
2052	65.1137
2048	65.1021
2044	65.0488
2040	65.0687
2036	65.1737
2032	65.322
2028	65.3348
2024	65.2399
2020	65.1865
2016	65.2137
2012	65.2283
2008	65.1509
2004	65.0589
2000	64.9863
1996	64.9691
1992	65.0559
1988	65.1509
1984	65.2105
1980	65.2027
1976	65.1043
1972	65.056
1968	65.1147
1964	65.1771
1960	65.1463
1956	65.0575
1952	65.0225
1948	65.0538
1944	65.0811
1940	65.0562
1936	65.0295
1932	65.0375
1928	65.0591
1924	65.0834
1920	65.1107
1916	65.1537
1912	65.1461
1908	65.0778
1904	64.9983
1900	64.9309
1896	64.9302
1892	64.9849
1888	65.0575
1884	65.1259
1880	65.2165
1876	65.2568
1872	65.1636
1868	65.0698
1864	65.0434
1860	65.0619
1856	65.1158
1852	65.1819
1848	65.2056
1844	65.1201
1840	64.9725
1836	64.9354
1832	65.0125
1828	65.0589
1824	65.0856
1820	65.1253
1816	65.1009
1812	64.9568
1808	64.8969
1804	65.0129
1800	65.0717
1796	65.004
1792	64.9473
1788	64.9635
1784	65.0317
1780	65.1344
1776	65.1978
1772	65.1816
1768	65.1368
1764	65.0574
1760	64.9737
1756	64.9302
1752	64.8696
1748	64.8504
1744	64.8989
1740	64.8898
1736	64.7816
1732	64.6351
1728	64.6083
1724	64.7165
1720	64.8542
1716	65.0074
1712	65.1547
1708	65.2394
1704	65.1758
1700	65.0276
1696	64.9415
1692	64.9006
1688	64.8324
1684	64.8039
1680	64.9377
1676	65.1049
1672	65.1426
1668	65.1467
1664	65.0978
1660	64.9604
1656	64.9158
1652	64.9103
1648	64.8274
1644	64.8051
1640	64.9021
1636	65.0043
1632	64.9926
1628	64.9393
1624	64.9206
1620	64.879
1616	64.8849
1612	64.927
1608	64.8828
1604	64.8734
1600	64.9825
1596	65.0059
1592	64.8794
1588	64.7999
1584	64.83
1580	64.8864
1576	64.905
1572	64.8751
1568	64.8378
1564	64.8155
1560	64.817
1556	64.8165
1552	64.857
1548	64.9005
1544	64.893
1540	64.9567
1536	65.0442
1532	65.0236
1528	64.9556
1524	64.972
1520	64.9827
1516	64.8879
1512	64.8865
1508	65.0191
1504	65.0817
1500	65.053
1496	64.9967
1492	64.9309
1488	64.9275
1484	64.9954
1480	65.0153
1476	64.9446
1472	64.9647
1468	65.0825
1464	65.0752
1460	65.0337
1456	65.0761
1452	65.061
1448	64.9324
1444	64.8462
1440	64.91
1436	64.9705
1432	65.0106
1428	65.0716
1424	65.0196
1420	64.9052
1416	64.8479
1412	64.8056
1408	64.7745
1404	64.7882
1400	64.7955
1396	64.8092
1392	64.8157
1388	64.7511
1384	64.6975
1380	64.6965
1376	64.7069
1372	64.7288
1368	64.7614
1364	64.766
1360	64.7574
1356	64.8115
1352	64.8475
1348	64.7692
1344	64.6845
1340	64.6949
1336	64.7582
1332	64.8201
1328	64.856
1324	64.8602
1320	64.8905
1316	64.8862
1312	64.7653
1308	64.6519
1304	64.6335
1300	64.6651
1296	64.6371
1292	64.5859
1288	64.6684
1284	64.8093
1280	64.8334
1276	64.7507
1272	64.6714
1268	64.649
1264	64.6658
1260	64.6917
1256	64.744
1252	64.8154
1248	64.8139
1244	64.711
1240	64.6266
1236	64.6559
1232	64.7089
1228	64.6742
1224	64.645
1220	64.643
1216	64.6043
1212	64.6038
1208	64.6027
1204	64.5468
1200	64.5333
1196	64.5948
1192	64.6353
1188	64.6618
1184	64.7178
1180	64.6913
1176	64.5888
1172	64.5571
1168	64.5978
1164	64.6174
1160	64.5659
1156	64.4937
1152	64.4601
1148	64.4494
1144	64.4627
1140	64.4997
1136	64.5215
1132	64.4583
1128	64.3133
1124	64.3217
1120	64.525
1116	64.6723
1112	64.821
1108	64.9899
1104	64.8844
1100	64.5687
1096	64.3615
1092	64.3175
1088	64.416
1084	64.5377
1080	64.5187
1076	64.5458
1072	64.7214
1068	64.7962
1064	64.5931
1060	64.3677
1056	64.4072
1052	64.587
1048	64.7189
1044	64.6714
1040	64.5894
1036	64.5926
1032	64.4577
1028	64.278
1024	64.1679
1020	64.0145
1016	63.9381
1012	64.0339
1008	64.2201
1004	64.4508
1000	64.5088
996	 64.3263
992	 64.2284
988	 64.2608
984	 64.2996
980	 64.3487
976	 64.4137
972	 64.385
968	 64.2852
964	 64.3085
960	 64.2953
956	 64.1768
952	 64.1315
948	 64.1477
944	 64.2361
940	 64.3438
936	 64.3066
932	 64.1789
928	 64.1158
924	 64.1089
920	 64.0801
916	 64.1607
912	 64.3811
908	 64.5258
904	 64.6005
900	 64.5034
896	 64.2679
892	 64.0987
888	 63.9119
884	 63.8397
880	 63.8954
876	 63.8444
872	 63.7657
868	 63.659
864	 63.3998
860	 63.2
856	 63.1814
852	 63.1176
848	 63.174
844	 63.6301
840	 64.0181
836	 63.9143
832	 63.7368
828	 63.6129
824	 63.4262
820	 63.78
816	 64.2439
812	 64.0284
808	 63.6931
804	 63.6302
800	 63.711
796	 63.9718
792	 63.9856
788	 63.4695
784	 63.1227
780	 63.217
776	 63.238
772	 63.2392
768	 63.3471
764	 63.2147
760	 63.1698
756	 63.3578
752	 63.4877
748	 63.4642
744	 63.4995
740	 63.7491
736	 63.6859
732	 63.2444
728	 62.9976
724	 63.1451
720	 63.1732
716	 62.7812
712	 62.3764
708	 62.2255
704	 62.3503
700	 62.6069
696	 62.6827
692	 62.7673
688	 62.9215
684	 62.6827
680	 62.369
676	 62.3456
672	 62.5757
668	 62.8731
664	 62.6839
660	 62.2647
656	 62.2865
652	 62.5393
648	 62.5238
644	 62.3622
640	 62.5243
636	 62.7103
632	 62.4326
628	 62.1816
624	 62.219
620	 62.1275
616	 61.9632
612	 61.9289
608	 61.9034
604	 61.7106
600	 61.3803
596	 61.2521
592	 61.3678
588	 61.4175
584	 61.2969
580	 61.277
576	 61.1767
572	 60.894
568	 61.0044
564	 61.3045
560	 61.4896
556	 61.6562
552	 61.721
548	 61.5468
544	 61.4655
540	 61.6197
536	 61.4362
532	 61.08
528	 60.919
524	 60.9177
520	 61.007
516	 60.7376
512	 60.0593
508	 59.5517
504	 59.2845
500	 58.9485
496	 58.7745
492	 58.9738
488	 58.9567
484	 58.8749
480	 59.3911
476	 59.7463
472	 59.4189
468	 59.1113
464	 59.4417
460	 60.066
456	 60.095
452	 59.5274
448	 58.82
444	 58.5061
440	 58.3415
436	 58.5134
432	 59.1514
428	 58.0943
424	 56.5675
420	 57.2533
416	 57.48
412	 57.2635
408	 60.2535
404	 69.229
400	 65.2466
396	 41.4845
392	 37.2382
388	 49.7403
384	 47.1617
380	 40.8737
376	 47.9348
372	 31.801
370	 13.135