File: Bakgrunnsmateriale/MATLAB/FTIR/ftir_data/subBb/Mapping_121/C-4040-8_t73_cm-1.asc
PE IR       SPECTRUM    SPECTRUM    ASCII       PEDS        1.60
  -1
C-1DE1~1.ASC
17/03/27
20:30:29.00
17/03/27
20:30:29.00
tln
$C-4040-8_t0073$<tbV0>[-2.6,2.6,8.0,0.0,27,1,0]
370
64

2002,4.07
MIRTGS : RIGHTBACK : INTERNAL 2
MIR : ON : INTERNAL 2
OPTKBR

0.200000
8
8.000000
FILLER
RATIO
SPECTRUM
UNLOCKED 256

DOUBLE
64
COMBINED
1
0
0

1.000000
RATIO

1
0
TRUE
51149
0
LEFT NOT FITTED RIGHT NOT FITTED 0
NONE
NONE
15600
12
4.427000
51148
TRUE
1 0 8 72 0 0 0 0

15798

#HDR
-1
-1
#GR
CM-1
%T
2.38419e-05
0.0
5000
-1.000000
4631
8
114.414
39.8467
#DATA
5000	64.7812
4996	64.8056
4992	64.724
4988	64.878
4984	65.359
4980	65.3488
4976	64.784
4972	64.6049
4968	64.6834
4964	64.5869
4960	64.7121
4956	65.0872
4952	65.3261
4948	65.2364
4944	64.8367
4940	64.622
4936	64.7328
4932	64.8966
4928	65.0649
4924	65.1953
4920	65.2961
4916	65.4406
4912	65.5133
4908	65.3736
4904	65.2799
4900	65.3489
4896	65.2281
4892	64.8973
4888	64.8067
4884	64.9673
4880	64.9731
4876	65.0115
4872	65.1002
4868	65.0374
4864	64.9904
4860	64.953
4856	64.9036
4852	64.8478
4848	65.0187
4844	65.2344
4840	65.0939
4836	64.9862
4832	64.9797
4828	64.8273
4824	64.7324
4820	64.8804
4816	65.0843
4812	65.1194
4808	65.104
4804	65.0478
4800	64.9465
4796	65.0639
4792	65.2679
4788	65.1535
4784	64.9521
4780	64.9284
4776	64.8215
4772	64.7661
4768	64.9197
4764	65.0225
4760	65.0495
4756	64.9594
4752	64.8289
4748	64.9115
4744	64.9704
4740	64.9144
4736	64.906
4732	64.7803
4728	64.6701
4724	64.8543
4720	65.1369
4716	65.2378
4712	65.3287
4708	65.2557
4704	64.7799
4700	64.5001
4696	64.6945
4692	65.0243
4688	65.2125
4684	65.1779
4680	65.0223
4676	65.0491
4672	65.2544
4668	65.3044
4664	65.2699
4660	65.1668
4656	64.9453
4652	64.8942
4648	64.8801
4644	64.8633
4640	65.1257
4636	65.3333
4632	65.3136
4628	65.1608
4624	64.8874
4620	64.7269
4616	64.7924
4612	64.9629
4608	65.0782
4604	65.0463
4600	64.853
4596	64.7138
4592	64.9496
4588	65.2267
4584	65.2038
4580	65.2085
4576	65.2301
4572	65.1213
4568	65.0258
4564	64.9926
4560	65.114
4556	65.2413
4552	65.1372
4548	64.7756
4544	64.398
4540	64.3893
4536	64.6426
4532	65.137
4528	65.7004
4524	65.6167
4520	65.0817
4516	64.8257
4512	64.9115
4508	65.1043
4504	65.0649
4500	64.8324
4496	64.7204
4492	64.7188
4488	64.8243
4484	64.917
4480	64.8156
4476	64.6748
4472	64.6779
4468	64.7821
4464	64.7903
4460	64.5823
4456	64.4647
4452	64.7305
4448	65.0869
4444	65.2455
4440	65.2065
4436	65.0545
4432	64.9357
4428	64.9731
4424	64.7842
4420	64.4164
4416	64.3796
4412	64.2364
4408	64.1158
4404	64.57
4400	64.3391
4396	63.2598
4392	63.0742
4388	67.0057
4384	82.8213
4380	82.7233
4376	67.589
4372	68.0837
4368	68.7212
4364	66.4497
4360	65.4066
4356	64.9114
4352	64.9501
4348	65.373
4344	65.6016
4340	65.7954
4336	65.7187
4332	65.4388
4328	65.4639
4324	65.4831
4320	65.1967
4316	64.9931
4312	65.0847
4308	65.0134
4304	64.8141
4300	64.9493
4296	65.158
4292	65.0282
4288	64.8137
4284	64.8112
4280	64.8443
4276	64.7686
4272	64.7084
4268	64.664
4264	64.8113
4260	65.1434
4256	65.2329
4252	65.2449
4248	65.3444
4244	65.2628
4240	65.0551
4236	64.9274
4232	64.8755
4228	64.9161
4224	65.0628
4220	65.0326
4216	64.8174
4212	64.8422
4208	65.2332
4204	65.6224
4200	65.5827
4196	65.2833
4192	65.185
4188	65.6384
4184	66.2486
4180	65.9914
4176	65.4638
4172	65.4928
4168	65.3234
4164	64.9561
4160	64.8994
4156	65.0487
4152	65.1837
4148	65.0944
4144	64.9737
4140	64.9965
4136	65.0435
4132	65.0473
4128	65.037
4124	65.0803
4120	65.1042
4116	65.0818
4112	65.0587
4108	65.0415
4104	65.0814
4100	65.0608
4096	64.8852
4092	64.7355
4088	64.812
4084	64.9817
4080	64.9866
4076	64.8804
4072	64.7758
4068	64.7741
4064	64.8675
4060	64.9631
4056	65.0639
4052	65.0686
4048	65.095
4044	65.2767
4040	65.3711
4036	65.2683
4032	65.2219
4028	65.3432
4024	65.3827
4020	65.2965
4016	65.2036
4012	65.084
4008	65.0177
4004	65.0429
4000	65.0026
3996	64.9945
3992	65.0941
3988	65.1314
3984	65.2434
3980	65.3877
3976	65.3454
3972	65.2606
3968	65.2573
3964	65.3109
3960	65.3596
3956	65.2526
3952	65.0641
3948	65.0431
3944	65.1206
3940	65.091
3936	64.971
3932	64.9544
3928	65.0356
3924	65.0978
3920	65.16
3916	65.1602
3912	65.1731
3908	65.2426
3904	65.2436
3900	65.2085
3896	65.1163
3892	65.0325
3888	65.0388
3884	65.0007
3880	64.9246
3876	64.9371
3872	65.0613
3868	65.2316
3864	65.3215
3860	65.1719
3856	64.9379
3852	64.8675
3848	64.8714
3844	65.0032
3840	65.2046
3836	65.2805
3832	65.2938
3828	65.1885
3824	65.0254
3820	65.0127
3816	65.0519
3812	65.1293
3808	65.2923
3804	65.3334
3800	65.3092
3796	65.2949
3792	65.2425
3788	65.2956
3784	65.3993
3780	65.3454
3776	65.1917
3772	65.125
3768	65.1726
3764	65.2749
3760	65.2772
3756	65.119
3752	65.0288
3748	65.0954
3744	65.1429
3740	65.1094
3736	65.1099
3732	65.2004
3728	65.292
3724	65.3228
3720	65.3213
3716	65.2822
3712	65.2094
3708	65.1216
3704	65.0273
3700	64.9692
3696	64.9944
3692	65.1119
3688	65.2197
3684	65.2655
3680	65.2977
3676	65.2851
3672	65.2135
3668	65.1372
3664	65.1331
3660	65.2109
3656	65.2292
3652	65.1199
3648	65.0072
3644	65.0852
3640	65.2746
3636	65.2821
3632	65.1741
3628	65.2177
3624	65.3135
3620	65.3416
3616	65.3633
3612	65.314
3608	65.2783
3604	65.3115
3600	65.319
3596	65.3725
3592	65.3928
3588	65.3443
3584	65.4144
3580	65.4773
3576	65.3494
3572	65.1664
3568	65.0887
3564	65.0955
3560	65.1239
3556	65.1977
3552	65.2899
3548	65.276
3544	65.1589
3540	65.1372
3536	65.2935
3532	65.4523
3528	65.4621
3524	65.2886
3520	65.1618
3516	65.2588
3512	65.3179
3508	65.2784
3504	65.2722
3500	65.2238
3496	65.1664
3492	65.2125
3488	65.2633
3484	65.2537
3480	65.1711
3476	65.0603
3472	65.0599
3468	65.0738
3464	65.0957
3460	65.2972
3456	65.4901
3452	65.4534
3448	65.3552
3444	65.378
3440	65.41
3436	65.2449
3432	65.0419
3428	65.0924
3424	65.3268
3420	65.5112
3416	65.5685
3412	65.5133
3408	65.3032
3404	65.0324
3400	64.88
3396	64.8767
3392	65.0174
3388	65.1502
3384	65.1671
3380	65.2469
3376	65.3126
3372	65.199
3368	65.0724
3364	65.0778
3360	65.1358
3356	65.1614
3352	65.1945
3348	65.1622
3344	65.0851
3340	65.1137
3336	65.1531
3332	65.1015
3328	65.0501
3324	65.1239
3320	65.2494
3316	65.1825
3312	65.012
3308	65.0329
3304	65.1735
3300	65.2178
3296	65.1581
3292	65.1387
3288	65.1493
3284	65.1252
3280	65.2043
3276	65.3221
3272	65.3298
3268	65.2952
3264	65.2566
3260	65.2743
3256	65.3608
3252	65.4013
3248	65.3733
3244	65.2426
3240	65.1005
3236	65.1839
3232	65.3337
3228	65.2879
3224	65.1093
3220	64.9552
3216	64.9369
3212	65.056
3208	65.1749
3204	65.1663
3200	65.1111
3196	65.1161
3192	65.1659
3188	65.2338
3184	65.2919
3180	65.238
3176	65.0541
3172	65.0004
3168	65.1447
3164	65.2137
3160	65.2158
3156	65.2524
3152	65.2215
3148	65.1767
3144	65.2177
3140	65.2767
3136	65.3499
3132	65.3718
3128	65.3698
3124	65.4211
3120	65.2651
3116	65.0077
3112	65.039
3108	65.2423
3104	65.344
3100	65.3314
3096	65.3084
3092	65.3301
3088	65.34
3084	65.2579
3080	65.1744
3076	65.2001
3072	65.2467
3068	65.2629
3064	65.2497
3060	65.2688
3056	65.4134
3052	65.4432
3048	65.2312
3044	65.0702
3040	65.1272
3036	65.2934
3032	65.395
3028	65.368
3024	65.345
3020	65.3531
3016	65.3088
3012	65.281
3008	65.2784
3004	65.2417
3000	65.2116
2996	65.2124
2992	65.2054
2988	65.1515
2984	65.1068
2980	65.1478
2976	65.1425
2972	64.9985
2968	64.9039
2964	64.9316
2960	64.9701
2956	65.023
2952	65.0543
2948	65.0217
2944	65.0261
2940	65.0864
2936	65.1231
2932	65.1038
2928	65.108
2924	65.1128
2920	65.0046
2916	64.9535
2912	65.0107
2908	65.0745
2904	65.1633
2900	65.2203
2896	65.2297
2892	65.2165
2888	65.179
2884	65.1774
2880	65.1711
2876	65.1443
2872	65.2405
2868	65.3723
2864	65.3025
2860	65.0719
2856	64.9237
2852	64.9384
2848	64.9771
2844	65.0083
2840	65.0943
2836	65.1767
2832	65.1934
2828	65.2234
2824	65.2853
2820	65.3141
2816	65.313
2812	65.2422
2808	65.1756
2804	65.2694
2800	65.3646
2796	65.2895
2792	65.209
2788	65.2351
2784	65.2372
2780	65.1935
2776	65.2172
2772	65.2919
2768	65.2888
2764	65.2469
2760	65.326
2756	65.426
2752	65.4362
2748	65.4403
2744	65.3903
2740	65.2941
2736	65.2957
2732	65.3416
2728	65.3459
2724	65.2895
2720	65.2165
2716	65.2387
2712	65.3336
2708	65.4227
2704	65.4228
2700	65.3923
2696	65.4319
2692	65.378
2688	65.2284
2684	65.1764
2680	65.2275
2676	65.315
2672	65.3404
2668	65.3144
2664	65.3091
2660	65.3091
2656	65.3642
2652	65.4108
2648	65.3842
2644	65.3563
2640	65.3939
2636	65.4548
2632	65.4052
2628	65.294
2624	65.2637
2620	65.3049
2616	65.3015
2612	65.2474
2608	65.2189
2604	65.2496
2600	65.2647
2596	65.1895
2592	65.1442
2588	65.18
2584	65.24
2580	65.3121
2576	65.3557
2572	65.2892
2568	65.1779
2564	65.2075
2560	65.3253
2556	65.3764
2552	65.3434
2548	65.2844
2544	65.2277
2540	65.175
2536	65.2008
2532	65.2447
2528	65.2245
2524	65.2211
2520	65.2556
2516	65.3316
2512	65.3553
2508	65.2378
2504	65.1572
2500	65.219
2496	65.247
2492	65.1612
2488	65.1567
2484	65.2792
2480	65.3841
2476	65.422
2472	65.419
2468	65.4247
2464	65.464
2460	65.4436
2456	65.3738
2452	65.3609
2448	65.3903
2444	65.4313
2440	65.4025
2436	65.3705
2432	65.4135
2428	65.2625
2424	65.0774
2420	65.3007
2416	65.6281
2412	65.6569
2408	65.4486
2404	65.2088
2400	65.1497
2396	65.2573
2392	65.3468
2388	65.3477
2384	65.3002
2380	65.2562
2376	65.1973
2372	65.1186
2368	65.1582
2364	65.2921
2360	65.3297
2356	65.2816
2352	65.2487
2348	65.2427
2344	65.3021
2340	65.3901
2336	65.3856
2332	65.3779
2328	65.3774
2324	65.2854
2320	65.2568
2316	65.3438
2312	65.4123
2308	65.4184
2304	65.3566
2300	65.2784
2296	65.267
2292	65.3039
2288	65.3555
2284	65.3827
2280	65.3465
2276	65.2903
2272	65.2531
2268	65.2579
2264	65.3311
2260	65.3846
2256	65.348
2252	65.3122
2248	65.3265
2244	65.3725
2240	65.4327
2236	65.4447
2232	65.3795
2228	65.3477
2224	65.3747
2220	65.3385
2216	65.2858
2212	65.2991
2208	65.3185
2204	65.3382
2200	65.4233
2196	65.5026
2192	65.4837
2188	65.4056
2184	65.3598
2180	65.3671
2176	65.3714
2172	65.3736
2168	65.4225
2164	65.4599
2160	65.3172
2156	65.1152
2152	65.0228
2148	65.0104
2144	65.1877
2140	65.4464
2136	65.4558
2132	65.3421
2128	65.3664
2124	65.3852
2120	65.3159
2116	65.288
2112	65.3474
2108	65.4096
2104	65.3662
2100	65.3287
2096	65.4022
2092	65.5284
2088	65.676
2084	65.7631
2080	65.7068
2076	65.5758
2072	65.5106
2068	65.4273
2064	65.2224
2060	65.1297
2056	65.3256
2052	65.4928
2048	65.3833
2044	65.2829
2040	65.3073
2036	65.3039
2032	65.233
2028	65.1819
2024	65.2432
2020	65.3398
2016	65.3898
2012	65.3693
2008	65.3148
2004	65.2967
2000	65.2683
1996	65.216
1992	65.2083
1988	65.236
1984	65.2583
1980	65.2809
1976	65.2951
1972	65.3178
1968	65.3835
1964	65.45
1960	65.454
1956	65.3943
1952	65.3545
1948	65.3412
1944	65.2607
1940	65.1524
1936	65.1735
1932	65.3002
1928	65.3969
1924	65.4477
1920	65.4285
1916	65.3752
1912	65.3684
1908	65.3809
1904	65.3949
1900	65.4094
1896	65.4447
1892	65.4608
1888	65.422
1884	65.4017
1880	65.3825
1876	65.3742
1872	65.4034
1868	65.3856
1864	65.3306
1860	65.3345
1856	65.373
1852	65.3671
1848	65.3096
1844	65.2565
1840	65.2933
1836	65.3572
1832	65.3516
1828	65.3596
1824	65.435
1820	65.4871
1816	65.4562
1812	65.3955
1808	65.3458
1804	65.3281
1800	65.3481
1796	65.3195
1792	65.2853
1788	65.3619
1784	65.4431
1780	65.4211
1776	65.3767
1772	65.3666
1768	65.3545
1764	65.3622
1760	65.3865
1756	65.3378
1752	65.2439
1748	65.1922
1744	65.1511
1740	65.1144
1736	65.1574
1732	65.2725
1728	65.2851
1724	65.1512
1720	65.1358
1716	65.261
1712	65.2584
1708	65.1614
1704	65.1877
1700	65.3108
1696	65.3369
1692	65.2871
1688	65.3066
1684	65.3338
1680	65.2943
1676	65.2624
1672	65.3002
1668	65.3491
1664	65.3365
1660	65.3105
1656	65.3137
1652	65.3573
1648	65.4351
1644	65.4453
1640	65.3215
1636	65.1674
1632	65.1331
1628	65.1745
1624	65.1656
1620	65.1538
1616	65.1849
1612	65.163
1608	65.0849
1604	65.0693
1600	65.0962
1596	65.0573
1592	65.0448
1588	65.1073
1584	65.1481
1580	65.1738
1576	65.1848
1572	65.1301
1568	65.0529
1564	64.9798
1560	64.9482
1556	65.0004
1552	65.0303
1548	65.0145
1544	65.0033
1540	65.0113
1536	65.0699
1532	65.1338
1528	65.1717
1524	65.1691
1520	65.1261
1516	65.1203
1512	65.1833
1508	65.2376
1504	65.228
1500	65.2072
1496	65.1968
1492	65.206
1488	65.2189
1484	65.1998
1480	65.1929
1476	65.2035
1472	65.1951
1468	65.1696
1464	65.1512
1460	65.1076
1456	65.0203
1452	64.9695
1448	65.0284
1444	65.1813
1440	65.3228
1436	65.2846
1432	65.1232
1428	65.042
1424	65.0711
1420	65.1904
1416	65.2781
1412	65.2149
1408	65.0637
1404	64.9246
1400	64.9823
1396	65.166
1392	65.1559
1388	65.0353
1384	65.0308
1380	65.0887
1376	65.0613
1372	64.9692
1368	65.0038
1364	65.0948
1360	65.06
1356	64.9861
1352	64.9551
1348	64.9652
1344	65.0129
1340	65.1254
1336	65.222
1332	65.1958
1328	65.1446
1324	65.1227
1320	65.0693
1316	65.0173
1312	65.0799
1308	65.1663
1304	65.1092
1300	65.0425
1296	65.0864
1292	65.1268
1288	65.117
1284	65.0926
1280	65.0674
1276	65.061
1272	65.0541
1268	65.0098
1264	64.9762
1260	64.9962
1256	65.0194
1252	65.0165
1248	64.9548
1244	64.8914
1240	64.9425
1236	65.0363
1232	65.08
1228	65.078
1224	65.0527
1220	65.0396
1216	65.0534
1212	65.0899
1208	65.1271
1204	65.1157
1200	65.0213
1196	64.9364
1192	64.9924
1188	65.0799
1184	65.0783
1180	65.0297
1176	64.9081
1172	64.7673
1168	64.8024
1164	64.9488
1160	64.9913
1156	64.9559
1152	64.8617
1148	64.7738
1144	64.8403
1140	64.9567
1136	64.9647
1132	64.9195
1128	64.9547
1124	65.0006
1120	64.9367
1116	64.833
1112	64.826
1108	64.9478
1104	65.0615
1100	65.0439
1096	64.9394
1092	64.8702
1088	64.8394
1084	64.8195
1080	64.9329
1076	65.0352
1072	64.8537
1068	64.696
1064	64.7691
1060	64.9008
1056	64.9792
1052	64.8093
1048	64.654
1044	64.8154
1040	64.9399
1036	64.8612
1032	64.7372
1028	64.6702
1024	64.5493
1020	64.5237
1016	64.8555
1012	65.0796
1008	65.0199
1004	65.0206
1000	65.033
996	 65.1214
992	 65.184
988	 64.9364
984	 64.6713
980	 64.786
976	 65.2292
972	 65.7073
968	 65.7499
964	 65.1472
960	 64.7601
956	 64.939
952	 64.9731
948	 64.8178
944	 64.8514
940	 64.943
936	 64.9511
932	 65.053
928	 65.1741
924	 65.0759
920	 64.7364
916	 64.4536
912	 64.4675
908	 64.623
904	 64.6819
900	 64.6234
896	 64.602
892	 64.5769
888	 64.5286
884	 64.5925
880	 64.6329
876	 64.5913
872	 64.6565
868	 64.7661
864	 64.7357
860	 64.5474
856	 64.3906
852	 64.4191
848	 64.6055
844	 64.7332
840	 64.6232
836	 64.5253
832	 64.6358
828	 64.6378
824	 64.3787
820	 64.1992
816	 64.2922
812	 64.4338
808	 64.3315
804	 64.1928
800	 64.297
796	 64.3374
792	 64.1808
788	 64.1261
784	 64.2388
780	 64.353
776	 64.3884
772	 64.3614
768	 64.4312
764	 64.6682
760	 64.6672
756	 64.4742
752	 64.4656
748	 64.319
744	 63.9816
740	 63.7148
736	 63.565
732	 63.6336
728	 63.8799
724	 64.2055
720	 64.4063
716	 64.289
712	 64.1062
708	 63.9198
704	 63.6557
700	 63.605
696	 63.7043
692	 63.7388
688	 63.7088
684	 63.5803
680	 63.5115
676	 63.4877
672	 63.3714
668	 63.1371
664	 62.8107
660	 62.7518
656	 62.927
652	 63.0441
648	 63.2229
644	 63.3056
640	 63.2131
636	 63.119
632	 63.0596
628	 63.0303
624	 62.9598
620	 62.8728
616	 62.7239
612	 62.5515
608	 62.5003
604	 62.6627
600	 62.8829
596	 62.8162
592	 62.6263
588	 62.7667
584	 63.1158
580	 63.2192
576	 62.9827
572	 62.732
568	 62.7313
564	 62.6705
560	 62.2969
556	 62.1771
552	 62.7871
548	 63.4837
544	 63.5066
540	 62.9421
536	 62.147
532	 61.5206
528	 61.4602
524	 61.7382
520	 61.8209
516	 61.8413
512	 62.105
508	 62.0503
504	 61.3201
500	 60.5139
496	 60.2957
492	 60.6624
488	 60.8184
484	 60.766
480	 60.9384
476	 61.0749
472	 60.6037
468	 59.805
464	 59.7403
460	 60.1665
456	 60.6617
452	 60.699
448	 60.1079
444	 60.2264
440	 61.3328
436	 61.52
432	 58.4334
428	 54.5648
424	 54.6661
420	 58.2857
416	 59.9512
412	 55.6787
408	 51.7799
404	 54.282
400	 52.8636
396	 42.6522
392	 40.8043
388	 51.3292
384	 72.6153
380	 91.7405
376	 91.5818
372	 103.458
370	 114.414