File: Bakgrunnsmateriale/MATLAB/FTIR/ftir_data/subBb/Mapping_121/C-4040-8_t51_cm-1.asc
PE IR       SPECTRUM    SPECTRUM    ASCII       PEDS        1.60
  -1
C-1CE4~1.ASC
17/03/27
18:41:36.00
17/03/27
18:41:36.00
tln
$C-4040-8_t0051$<tbV0>[-2.6,-2.6,8.0,0.0,27,1,0]
370
64

2002,4.07
MIRTGS : RIGHTBACK : INTERNAL 2
MIR : ON : INTERNAL 2
OPTKBR

0.200000
8
8.000000
FILLER
RATIO
SPECTRUM
UNLOCKED 256

DOUBLE
64
COMBINED
1
0
0

1.000000
RATIO

1
0
TRUE
51149
0
LEFT NOT FITTED RIGHT NOT FITTED 0
NONE
NONE
15600
12
4.427000
51148
TRUE
1 0 8 72 0 0 0 0

15798

#HDR
-1
-1
#GR
CM-1
%T
2.38419e-05
0.0
5000
-1.000000
4631
8
117.872
32.8821
#DATA
5000	64.7694
4996	64.8936
4992	64.9723
4988	65.0097
4984	64.9608
4980	64.7333
4976	64.5561
4972	64.7273
4968	64.9341
4964	65.0072
4960	65.0933
4956	65.056
4952	64.9688
4948	65.0468
4944	65.2127
4940	65.2531
4936	65.1536
4932	65.0376
4928	64.8794
4924	64.7551
4920	64.7775
4916	64.8414
4912	64.8396
4908	64.9107
4904	64.9608
4900	64.5998
4896	64.4628
4892	64.9221
4888	64.9254
4884	64.6706
4880	64.9008
4876	65.0261
4872	64.723
4868	64.5208
4864	64.6655
4860	64.6561
4856	64.5606
4852	64.8681
4848	65.0985
4844	64.6762
4840	64.2353
4836	64.4094
4832	64.5417
4828	64.4268
4824	64.5295
4820	64.6254
4816	64.5613
4812	64.4447
4808	64.3853
4804	64.5681
4800	64.7568
4796	64.8132
4792	64.9248
4788	64.9513
4784	64.8461
4780	64.78
4776	64.6588
4772	64.525
4768	64.5471
4764	64.545
4760	64.4454
4756	64.4839
4752	64.5671
4748	64.4906
4744	64.4382
4740	64.388
4736	64.1536
4732	63.94
4728	64.011
4724	64.3049
4720	64.5902
4716	64.6278
4712	64.4367
4708	64.3337
4704	64.3162
4700	64.2431
4696	64.3079
4692	64.4303
4688	64.5585
4684	64.7832
4680	64.7463
4676	64.4897
4672	64.1878
4668	63.9587
4664	64.1206
4660	64.3133
4656	64.2652
4652	64.3287
4648	64.6462
4644	64.815
4640	64.5725
4636	64.312
4632	64.273
4628	64.3101
4624	64.4042
4620	64.6342
4616	64.7391
4612	64.5839
4608	64.3741
4604	64.3626
4600	64.5161
4596	64.3742
4592	64.0907
4588	64.1466
4584	64.3587
4580	64.361
4576	64.3002
4572	64.3234
4568	64.3057
4564	64.4456
4560	64.6118
4556	64.4264
4552	64.1809
4548	64.1828
4544	64.2192
4540	64.3011
4536	64.6627
4532	65.016
4528	65.2035
4524	65.1969
4520	64.8923
4516	64.7688
4512	65.0309
4508	65.1993
4504	65.0521
4500	64.925
4496	65.0035
4492	65.0008
4488	64.826
4484	64.765
4480	64.9819
4476	65.1783
4472	65.2495
4468	65.3368
4464	65.3442
4460	65.3469
4456	65.3976
4452	65.4294
4448	65.4411
4444	65.3426
4440	65.1478
4436	65.1776
4432	65.4488
4428	65.7095
4424	65.76
4420	65.502
4416	65.3625
4412	65.8076
4408	66.3762
4404	66.4943
4400	66.0985
4396	65.4568
4392	65.1103
4388	65.266
4384	65.3525
4380	65.381
4376	65.0391
4372	65.3024
4368	66.7217
4364	64.1384
4360	56.124
4356	47.3025
4352	41.4136
4348	40.0416
4344	46.5415
4340	59.5916
4336	67.6604
4332	68.194
4328	67.0374
4324	66.439
4320	66.0272
4316	65.7381
4312	65.7241
4308	65.7589
4304	65.7634
4300	65.6528
4296	65.5292
4292	65.5488
4288	65.7185
4284	66.0104
4280	66.0649
4276	65.8911
4272	65.7099
4268	65.5779
4264	65.5425
4260	65.5455
4256	65.582
4252	65.4542
4248	65.1973
4244	65.1968
4240	65.3357
4236	65.2977
4232	65.1028
4228	64.8885
4224	64.8016
4220	64.908
4216	65.0324
4212	64.9033
4208	64.8087
4204	64.853
4200	64.7907
4196	64.8032
4192	64.9565
4188	65.0439
4184	64.7645
4180	64.2831
4176	64.3154
4172	64.69
4168	64.822
4164	64.9153
4160	65.0331
4156	65.0043
4152	64.8965
4148	64.6968
4144	64.6486
4140	64.746
4136	64.6165
4132	64.4221
4128	64.4941
4124	64.5936
4120	64.502
4116	64.4132
4112	64.3373
4108	64.1691
4104	64.0083
4100	64.0415
4096	64.1973
4092	64.258
4088	64.284
4084	64.3968
4080	64.4845
4076	64.46
4072	64.394
4068	64.2391
4064	64.0826
4060	64.1528
4056	64.3403
4052	64.4909
4048	64.5547
4044	64.4777
4040	64.3632
4036	64.3028
4032	64.2115
4028	64.0873
4024	64.0731
4020	64.2082
4016	64.3869
4012	64.4147
4008	64.2321
4004	64.1215
4000	64.2854
3996	64.4876
3992	64.4388
3988	64.2623
3984	64.2611
3980	64.3575
3976	64.361
3972	64.3281
3968	64.3113
3964	64.3132
3960	64.297
3956	64.2746
3952	64.3477
3948	64.4942
3944	64.546
3940	64.469
3936	64.4684
3932	64.524
3928	64.4477
3924	64.2927
3920	64.1733
3916	64.2152
3912	64.3422
3908	64.3329
3904	64.3051
3900	64.435
3896	64.5725
3892	64.5301
3888	64.4066
3884	64.3596
3880	64.3906
3876	64.471
3872	64.5402
3868	64.5492
3864	64.5902
3860	64.7146
3856	64.7891
3852	64.6774
3848	64.5858
3844	64.6365
3840	64.5922
3836	64.4122
3832	64.2305
3828	64.2922
3824	64.5587
3820	64.5117
3816	64.3453
3812	64.5431
3808	64.7565
3804	64.7044
3800	64.5107
3796	64.3962
3792	64.5289
3788	64.6763
3784	64.6982
3780	64.7332
3776	64.6437
3772	64.4809
3768	64.4996
3764	64.5838
3760	64.5071
3756	64.3034
3752	64.2214
3748	64.2836
3744	64.3456
3740	64.323
3736	64.3129
3732	64.4558
3728	64.5086
3724	64.4474
3720	64.4511
3716	64.382
3712	64.3188
3708	64.3363
3704	64.2648
3700	64.2275
3696	64.3322
3692	64.3959
3688	64.3516
3684	64.3557
3680	64.4269
3676	64.4317
3672	64.3298
3668	64.221
3664	64.2452
3660	64.3597
3656	64.4154
3652	64.3416
3648	64.2023
3644	64.1503
3640	64.2452
3636	64.3602
3632	64.3272
3628	64.2205
3624	64.2522
3620	64.3239
3616	64.1924
3612	64.0887
3608	64.1715
3604	64.1704
3600	64.1333
3596	64.1742
3592	64.1289
3588	63.9982
3584	63.9804
3580	64.0886
3576	64.1451
3572	64.0849
3568	63.9716
3564	63.94
3560	63.9941
3556	64.0365
3552	64.1
3548	64.1443
3544	64.1418
3540	64.1234
3536	64.0815
3532	64.0322
3528	64.0214
3524	63.9901
3520	63.8749
3516	63.8924
3512	64.0412
3508	64.078
3504	64.0779
3500	64.1131
3496	64.0476
3492	63.9885
3488	64.1069
3484	64.1834
3480	64.1466
3476	64.1646
3472	64.1601
3468	64.066
3464	63.9874
3460	63.9909
3456	64.0001
3452	63.9882
3448	63.9922
3444	64.0039
3440	64.0559
3436	64.1626
3432	64.2393
3428	64.2463
3424	64.1989
3420	64.0677
3416	63.8792
3412	63.7826
3408	63.8965
3404	64.0406
3400	64.0697
3396	64.0784
3392	64.1074
3388	64.0951
3384	64.0347
3380	64.0355
3376	64.0474
3372	63.9832
3368	63.9529
3364	63.9506
3360	63.8755
3356	63.8256
3352	63.8437
3348	63.8385
3344	63.8928
3340	64.0503
3336	64.1087
3332	64.0493
3328	64.0394
3324	64.0538
3320	64.0266
3316	63.9619
3312	63.8377
3308	63.7773
3304	63.7997
3300	63.726
3296	63.6919
3292	63.7334
3288	63.6738
3284	63.6579
3280	63.758
3276	63.8054
3272	63.813
3268	63.8495
3264	63.9226
3260	64.0539
3256	64.0897
3252	63.9293
3248	63.7105
3244	63.6359
3240	63.6876
3236	63.7197
3232	63.7516
3228	63.6778
3224	63.5149
3220	63.454
3216	63.4527
3212	63.5593
3208	63.7388
3204	63.7222
3200	63.6531
3196	63.7079
3192	63.76
3188	63.824
3184	63.8386
3180	63.7414
3176	63.7325
3172	63.8447
3168	63.8497
3164	63.7386
3160	63.6925
3156	63.682
3152	63.5772
3148	63.4483
3144	63.3502
3140	63.3061
3136	63.4154
3132	63.5298
3128	63.5379
3124	63.564
3120	63.5841
3116	63.5084
3112	63.3851
3108	63.4558
3104	63.6489
3100	63.6307
3096	63.5167
3092	63.5206
3088	63.5269
3084	63.4177
3080	63.3488
3076	63.4057
3072	63.5001
3068	63.5787
3064	63.6067
3060	63.5922
3056	63.5912
3052	63.6794
3048	63.7537
3044	63.6395
3040	63.5073
3036	63.4822
3032	63.4056
3028	63.3577
3024	63.4286
3020	63.4554
3016	63.4256
3012	63.4268
3008	63.4252
3004	63.4111
3000	63.4115
2996	63.4167
2992	63.4445
2988	63.485
2984	63.4545
2980	63.327
2976	63.18
2972	63.1146
2968	63.2257
2964	63.407
2960	63.4018
2956	63.2763
2952	63.2851
2948	63.3506
2944	63.3576
2940	63.375
2936	63.2869
2932	63.08
2928	63.0188
2924	63.0958
2920	63.0974
2916	63.0437
2912	63.0937
2908	63.1626
2904	63.1204
2900	63.0957
2896	63.1118
2892	63.1177
2888	63.1483
2884	63.186
2880	63.1802
2876	63.0816
2872	62.9808
2868	63.015
2864	63.097
2860	63.0148
2856	62.874
2852	62.8957
2848	63.0377
2844	63.1712
2840	63.1908
2836	63.0859
2832	62.9637
2828	62.9638
2824	63.0644
2820	63.1045
2816	63.0558
2812	63.0352
2808	63.0909
2804	63.1207
2800	63.0583
2796	63.0207
2792	63.0298
2788	62.979
2784	62.9191
2780	62.9154
2776	62.9227
2772	62.9019
2768	62.9187
2764	62.9907
2760	62.9574
2756	62.8448
2752	62.8521
2748	62.9037
2744	62.8476
2740	62.8104
2736	62.8798
2732	62.9231
2728	62.862
2724	62.7772
2720	62.7164
2716	62.6789
2712	62.7083
2708	62.7455
2704	62.7332
2700	62.724
2696	62.7618
2692	62.7474
2688	62.6687
2684	62.6689
2680	62.6964
2676	62.7364
2672	62.797
2668	62.7673
2664	62.7264
2660	62.7552
2656	62.7673
2652	62.7449
2648	62.7088
2644	62.6517
2640	62.6081
2636	62.5973
2632	62.6168
2628	62.6541
2624	62.6863
2620	62.7027
2616	62.7025
2612	62.6881
2608	62.6266
2604	62.557
2600	62.5417
2596	62.5309
2592	62.5266
2588	62.5498
2584	62.5334
2580	62.475
2576	62.4647
2572	62.5323
2568	62.5832
2564	62.6051
2560	62.6416
2556	62.6627
2552	62.6767
2548	62.6574
2544	62.5856
2540	62.5088
2536	62.43
2532	62.3644
2528	62.3006
2524	62.2679
2520	62.3113
2516	62.3945
2512	62.4857
2508	62.4866
2504	62.3559
2500	62.2298
2496	62.2706
2492	62.3316
2488	62.2862
2484	62.3349
2480	62.4188
2476	62.3624
2472	62.2407
2468	62.2127
2464	62.3208
2460	62.4286
2456	62.4282
2452	62.4236
2448	62.4318
2444	62.3392
2440	62.222
2436	62.1934
2432	62.2497
2428	62.351
2424	62.4975
2420	62.4604
2416	62.2295
2412	62.2054
2408	62.2714
2404	62.2576
2400	62.293
2396	62.3261
2392	62.2556
2388	62.1608
2384	62.1323
2380	62.1065
2376	62.018
2372	61.9453
2368	62.0017
2364	62.089
2360	62.0934
2356	62.057
2352	62.0229
2348	62.0298
2344	62.077
2340	62.0381
2336	61.9432
2332	61.9356
2328	61.9687
2324	61.9731
2320	61.9408
2316	61.8817
2312	61.86
2308	61.8831
2304	61.8855
2300	61.8552
2296	61.8071
2292	61.7688
2288	61.7846
2284	61.824
2280	61.833
2276	61.8393
2272	61.869
2268	61.8804
2264	61.8145
2260	61.7459
2256	61.7703
2252	61.7829
2248	61.7462
2244	61.7024
2240	61.6821
2236	61.7531
2232	61.8098
2228	61.7761
2224	61.7008
2220	61.6659
2216	61.6958
2212	61.6927
2208	61.6584
2204	61.6234
2200	61.5879
2196	61.5891
2192	61.6163
2188	61.636
2184	61.6181
2180	61.5517
2176	61.5359
2172	61.5882
2168	61.5937
2164	61.6167
2160	61.7062
2156	61.6899
2152	61.5914
2148	61.5024
2144	61.3976
2140	61.3922
2136	61.4653
2132	61.4419
2128	61.3968
2124	61.4051
2120	61.3891
2116	61.384
2112	61.3688
2108	61.3602
2104	61.3995
2100	61.3866
2096	61.3279
2092	61.3054
2088	61.303
2084	61.2452
2080	61.2049
2076	61.3216
2072	61.5057
2068	61.4769
2064	61.2952
2060	61.267
2056	61.333
2052	61.337
2048	61.2785
2044	61.1913
2040	61.1348
2036	61.1624
2032	61.2157
2028	61.1749
2024	61.0707
2020	61.0001
2016	60.9546
2012	60.954
2008	60.9897
2004	60.9811
2000	60.935
1996	60.9238
1992	60.9891
1988	61.0354
1984	61.034
1980	61.0148
1976	60.9888
1972	60.9881
1968	60.9343
1964	60.8617
1960	60.8743
1956	60.945
1952	61.0019
1948	60.9913
1944	60.9422
1940	60.9056
1936	60.8832
1932	60.8497
1928	60.7712
1924	60.7109
1920	60.7326
1916	60.7922
1912	60.882
1908	60.9059
1904	60.8006
1900	60.7322
1896	60.7833
1892	60.8274
1888	60.7367
1884	60.6495
1880	60.7101
1876	60.7494
1872	60.6611
1868	60.5618
1864	60.5401
1860	60.5755
1856	60.5833
1852	60.5643
1848	60.5789
1844	60.5778
1840	60.5298
1836	60.5217
1832	60.5893
1828	60.6246
1824	60.588
1820	60.5907
1816	60.5752
1812	60.4758
1808	60.4591
1804	60.5099
1800	60.4933
1796	60.4547
1792	60.4534
1788	60.4422
1784	60.3946
1780	60.3803
1776	60.408
1772	60.429
1768	60.3707
1764	60.2465
1760	60.226
1756	60.3009
1752	60.3031
1748	60.2471
1744	60.1962
1740	60.1642
1736	60.178
1732	60.1713
1728	60.0715
1724	59.9771
1720	59.9658
1716	59.9711
1712	59.996
1708	60.0718
1704	60.14
1700	60.1855
1696	60.2072
1692	60.1638
1688	60.1144
1684	60.0923
1680	60.0423
1676	59.9765
1672	59.996
1668	60.1356
1664	60.242
1660	60.2015
1656	60.1148
1652	60.0517
1648	59.9572
1644	59.8987
1640	59.8957
1636	59.859
1632	59.8278
1628	59.8488
1624	59.8967
1620	59.9245
1616	59.9126
1612	59.841
1608	59.7565
1604	59.7803
1600	59.8432
1596	59.7838
1592	59.65
1588	59.6444
1584	59.7214
1580	59.7321
1576	59.7204
1572	59.7283
1568	59.6904
1564	59.5951
1560	59.5484
1556	59.6208
1552	59.7071
1548	59.6719
1544	59.6008
1540	59.5843
1536	59.5715
1532	59.5461
1528	59.4916
1524	59.4418
1520	59.4701
1516	59.4784
1512	59.3713
1508	59.2876
1504	59.3819
1500	59.5219
1496	59.4869
1492	59.3694
1488	59.3566
1484	59.383
1480	59.3767
1476	59.322
1472	59.2742
1468	59.3102
1464	59.3969
1460	59.391
1456	59.195
1452	58.9725
1448	58.912
1444	59.0482
1440	59.2545
1436	59.2678
1432	59.1813
1428	59.2129
1424	59.2325
1420	59.194
1416	59.1932
1412	59.2004
1408	59.15
1404	59.0874
1400	59.0422
1396	59.0209
1392	59.0786
1388	59.0975
1384	59.0628
1380	59.055
1376	59.0435
1372	59.0147
1368	58.9401
1364	58.8708
1360	58.9
1356	59.0114
1352	59.0328
1348	58.9411
1344	58.9225
1340	58.9407
1336	58.8653
1332	58.7717
1328	58.8012
1324	58.8605
1320	58.7735
1316	58.6954
1312	58.7637
1308	58.7667
1304	58.6837
1300	58.7106
1296	58.7984
1292	58.811
1288	58.7785
1284	58.758
1280	58.7163
1276	58.6655
1272	58.6257
1268	58.6064
1264	58.5882
1260	58.5167
1256	58.5169
1252	58.6647
1248	58.7633
1244	58.68
1240	58.5845
1236	58.6407
1232	58.6767
1228	58.618
1224	58.5592
1220	58.463
1216	58.3996
1212	58.4139
1208	58.4466
1204	58.4659
1200	58.4417
1196	58.4199
1192	58.4805
1188	58.6341
1184	58.7867
1180	58.773
1176	58.4662
1172	58.2432
1168	58.3983
1164	58.4413
1160	58.2328
1156	58.1784
1152	58.2888
1148	58.4084
1144	58.483
1140	58.3514
1136	58.0425
1132	57.9745
1128	58.1433
1124	58.104
1120	57.9359
1116	58.0065
1112	58.155
1108	58.1234
1104	58.0458
1100	57.927
1096	57.6428
1092	57.5833
1088	58.0039
1084	58.3026
1080	58.1831
1076	57.9251
1072	57.7395
1068	57.7943
1064	57.9659
1060	58.0086
1056	57.9538
1052	57.881
1048	57.7296
1044	57.6144
1040	57.6613
1036	57.6952
1032	57.6585
1028	57.6843
1024	57.6802
1020	57.4487
1016	57.2966
1012	57.555
1008	57.749
1004	57.7124
1000	57.7797
996	 57.7895
992	 57.6665
988	 57.5681
984	 57.5409
980	 57.5505
976	 57.4785
972	 57.3772
968	 57.3364
964	 57.2847
960	 57.2128
956	 57.1573
952	 57.115
948	 57.0976
944	 57.1492
940	 57.2215
936	 57.2038
932	 57.1422
928	 57.1239
924	 57.1089
920	 57.0624
916	 57.0824
912	 57.0835
908	 57.0287
904	 57.0412
900	 56.9946
896	 56.8968
892	 56.8941
888	 56.936
884	 56.8809
880	 56.627
876	 56.3644
872	 56.4345
868	 56.7186
864	 56.8546
860	 56.7641
856	 56.6414
852	 56.6528
848	 56.6871
844	 56.6239
840	 56.6013
836	 56.6065
832	 56.5672
828	 56.6083
824	 56.5922
820	 56.399
816	 56.2919
812	 56.3114
808	 56.2716
804	 56.2378
800	 56.3694
796	 56.5583
792	 56.4869
788	 56.279
784	 56.3328
780	 56.4053
776	 56.2544
772	 56.0908
768	 55.9136
764	 55.8023
760	 55.549
756	 55.1011
752	 55.4806
748	 56.2979
744	 56.2804
740	 55.7977
736	 55.5412
732	 55.5567
728	 55.5848
724	 55.4987
720	 55.5184
716	 55.5394
712	 55.3969
708	 55.3739
704	 55.4025
700	 55.3274
696	 55.3987
692	 55.4595
688	 55.2651
684	 55.0325
680	 54.9813
676	 55.0714
672	 54.9596
668	 54.8421
664	 55.1131
660	 55.3479
656	 55.2338
652	 55.0107
648	 54.8374
644	 54.7549
640	 54.7753
636	 54.6985
632	 54.4772
628	 54.3814
624	 54.4829
620	 54.6018
616	 54.6216
612	 54.5079
608	 54.4916
604	 54.6786
600	 54.561
596	 54.2939
592	 54.1591
588	 53.7362
584	 53.3623
580	 53.3872
576	 53.5099
572	 53.5152
568	 53.4478
564	 53.4863
560	 53.5607
556	 53.5191
552	 53.3535
548	 53.3278
544	 53.3036
540	 52.9962
536	 52.7207
532	 52.6601
528	 52.6877
524	 52.4591
520	 51.9698
516	 51.8727
512	 52.2281
508	 52.5238
504	 52.4211
500	 51.96
496	 51.6777
492	 51.6924
488	 51.5788
484	 51.2648
480	 50.9931
476	 50.9413
472	 50.8606
468	 51.0004
464	 51.1522
460	 50.5116
456	 50.4551
452	 50.7459
448	 49.6916
444	 48.879
440	 48.8419
436	 48.4242
432	 47.8497
428	 48.0122
424	 49.1187
420	 51.5186
416	 53.7384
412	 54.8521
408	 55.9579
404	 52.3237
400	 46.4655
396	 48.9541
392	 45.2311
388	 36.2021
384	 50.8611
380	 101.583
376	 108.832
372	 47.1197
370	 32.8821