File: Bakgrunnsmateriale/MATLAB/FTIR/ftir_data/subBb/Mapping_121/C-4040-8_e123_cm-1.asc
PE IR       SPECTRUM    SPECTRUM    ASCII       PEDS        1.60
  -1
C-38CF~1.ASC
17/03/27
16:18:59.00
17/03/27
16:18:59.00
tln
$C-4040-8_e0123$<ebV0>[-23.3,12.1,10.0,0.0,27,1,0]
370
64

2002,4.07
MIRTGS : RIGHTBACK : INTERNAL 2
MIR : ON : INTERNAL 2
OPTKBR

0.200000
8
8.000000
FILLER
SINGLE
SPECTRUM
UNLOCKED 256

DOUBLE

COMBINED
1
0
0

1.000000
BACKG

1
0
TRUE
51149
0
LEFT NOT FITTED RIGHT NOT FITTED 0
NONE
NONE
15600
12
4.427000
51148
TRUE
1 0 8 72 0 0 0 0

15798

#HDR
-1
-1
#GR
CM-1
EGY
2.38419e-05
0.0
5000
-1.000000
4631
8
2.455997
0.008106
#DATA
5000	0.769138
4996	0.772595
4992	0.773739
4988	0.774693
4984	0.778508
4980	0.781655
4976	0.781702
4972	0.782513
4968	0.784015
4964	0.784015
4960	0.783538
4956	0.783848
4952	0.785040
4948	0.788187
4944	0.791811
4940	0.792384
4936	0.793123
4932	0.796771
4928	0.799179
4924	0.800013
4920	0.801181
4916	0.801897
4912	0.802731
4908	0.804471
4904	0.805640
4900	0.804424
4896	0.804185
4892	0.808167
4888	0.812411
4884	0.815367
4880	0.817561
4876	0.819349
4872	0.821590
4868	0.821685
4864	0.820946
4860	0.824117
4856	0.829195
4852	0.832581
4848	0.834321
4844	0.836443
4840	0.840616
4836	0.844764
4832	0.846505
4828	0.846505
4824	0.847244
4820	0.849652
4816	0.853204
4812	0.857281
4808	0.861310
4804	0.864720
4800	0.867319
4796	0.868916
4792	0.870847
4788	0.873994
4784	0.876569
4780	0.879263
4776	0.883030
4772	0.885629
4768	0.885963
4764	0.885891
4760	0.887346
4756	0.889229
4752	0.890707
4748	0.891923
4744	0.893044
4740	0.894832
4736	0.897026
4732	0.899171
4728	0.901126
4724	0.902152
4720	0.901389
4716	0.900506
4712	0.901865
4708	0.903725
4704	0.904631
4700	0.905871
4696	0.906968
4692	0.907874
4688	0.908803
4684	0.909185
4680	0.909852
4676	0.910615
4672	0.911498
4668	0.911498
4664	0.909709
4660	0.908517
4656	0.909447
4652	0.912785
4648	0.916552
4644	0.918364
4640	0.918841
4636	0.919318
4632	0.920605
4628	0.922584
4624	0.924849
4620	0.926494
4616	0.927615
4612	0.928878
4608	0.930738
4604	0.933456
4600	0.935935
4596	0.938677
4592	0.941753
4588	0.944876
4584	0.948739
4580	0.951623
4576	0.952577
4572	0.954818
4568	0.958514
4564	0.961017
4560	0.964307
4556	0.968527
4552	0.971007
4548	0.973129
4544	0.976634
4540	0.981116
4536	0.984930
4532	0.986623
4528	0.987219
4524	0.987792
4520	0.987720
4516	0.988721
4512	0.991916
4508	0.995230
4504	0.997972
4500	0.999546
4496	0.999975
4492	1.000928
4488	1.002097
4484	1.002407
4480	1.002860
4476	1.004815
4472	1.008200
4468	1.010131
4464	1.008915
4460	1.007199
4456	1.006817
4452	1.008367
4448	1.009869
4444	1.010632
4440	1.010465
4436	1.008915
4432	1.009726
4428	1.013016
4424	1.014018
4420	1.012873
4416	1.013493
4412	1.016640
4408	1.018238
4404	1.015019
4400	1.010394
4396	1.005864
4392	1.006436
4388	1.000857
4384	1.009178
4380	1.029849
4376	0.998258
4372	0.973773
4368	0.992298
4364	1.009678
4360	1.035237
4356	1.054716
4352	1.063323
4348	1.068711
4344	1.069378
4340	1.072788
4336	1.080274
4332	1.088023
4328	1.091313
4324	1.091194
4320	1.093006
4316	1.096749
4312	1.102995
4308	1.111030
4304	1.116013
4300	1.118326
4296	1.121401
4292	1.125168
4288	1.129174
4284	1.134681
4280	1.138710
4276	1.140236
4272	1.144051
4268	1.149582
4264	1.152586
4260	1.156044
4256	1.161980
4252	1.165986
4248	1.168036
4244	1.171231
4240	1.173734
4236	1.174402
4232	1.174998
4228	1.176786
4224	1.179814
4220	1.182270
4216	1.184773
4212	1.188063
4208	1.189589
4204	1.190423
4200	1.193952
4196	1.198554
4192	1.200532
4188	1.202678
4184	1.207137
4180	1.208472
4176	1.205873
4172	1.206231
4168	1.208114
4164	1.207756
4160	1.210999
4156	1.216721
4152	1.217770
4148	1.216363
4144	1.218199
4140	1.222419
4136	1.225948
4132	1.230502
4128	1.236176
4124	1.240062
4120	1.243829
4116	1.248359
4112	1.253175
4108	1.258683
4104	1.263213
4100	1.266145
4096	1.268553
4092	1.272749
4088	1.279592
4084	1.285028
4080	1.289129
4076	1.294183
4072	1.299619
4068	1.305317
4064	1.311445
4060	1.318550
4056	1.325702
4052	1.331186
4048	1.335549
4044	1.339745
4040	1.344585
4036	1.350355
4032	1.355361
4028	1.359820
4024	1.364660
4020	1.368451
4016	1.371479
4012	1.376581
4008	1.383447
4004	1.388096
4000	1.390480
3996	1.393127
3992	1.395225
3988	1.397085
3984	1.400065
3980	1.402306
3976	1.403450
3972	1.404905
3968	1.406455
3964	1.408696
3960	1.412487
3956	1.416397
3952	1.419019
3948	1.420307
3944	1.420164
3940	1.419520
3936	1.419997
3932	1.421499
3928	1.422357
3924	1.422595
3920	1.424360
3916	1.428103
3912	1.431179
3908	1.429152
3904	1.424717
3900	1.426267
3896	1.431274
3892	1.432204
3888	1.431846
3884	1.433491
3880	1.435208
3876	1.436948
3872	1.440525
3868	1.445436
3864	1.450133
3860	1.450920
3856	1.446485
3852	1.450085
3848	1.463508
3844	1.469540
3840	1.468610
3836	1.472854
3832	1.482105
3828	1.487565
3824	1.487183
3820	1.488518
3816	1.495552
3812	1.503467
3808	1.507258
3804	1.509308
3800	1.514720
3796	1.523947
3792	1.532220
3788	1.538228
3784	1.542711
3780	1.545000
3776	1.547574
3772	1.550483
3768	1.552295
3764	1.553750
3760	1.554751
3756	1.551961
3752	1.546120
3748	1.544237
3744	1.549267
3740	1.556038
3736	1.559877
3732	1.563429
3728	1.566767
3724	1.568913
3720	1.571965
3716	1.572251
3712	1.570558
3708	1.572656
3704	1.574587
3700	1.574730
3696	1.574158
3692	1.570653
3688	1.569795
3684	1.573085
3680	1.571226
3676	1.565933
3672	1.566267
3668	1.572680
3664	1.578712
3660	1.578640
3656	1.574182
3652	1.569247
3648	1.568651
3644	1.574325
3640	1.579880
3636	1.580238
3632	1.575827
3628	1.574563
3624	1.578021
3620	1.579737
3616	1.580595
3612	1.582813
3608	1.587057
3604	1.592445
3600	1.595807
3596	1.596331
3592	1.595497
3588	1.596283
3584	1.600146
3580	1.604533
3576	1.606798
3572	1.606798
3568	1.607775
3564	1.612734
3560	1.617741
3556	1.618933
3552	1.619625
3548	1.622009
3544	1.624774
3540	1.625370
3536	1.624011
3532	1.623749
3528	1.624846
3524	1.626896
3520	1.628279
3516	1.626920
3512	1.626205
3508	1.627397
3504	1.627039
3500	1.624369
3496	1.622343
3492	1.621580
3488	1.619338
3484	1.616048
3480	1.615309
3476	1.615095
3472	1.612758
3468	1.609706
3464	1.606893
3460	1.605057
3456	1.602387
3452	1.597905
3448	1.594090
3444	1.590633
3440	1.587033
3436	1.584982
3432	1.584196
3428	1.584911
3424	1.587986
3420	1.590442
3416	1.591348
3412	1.592779
3408	1.595091
3404	1.597595
3400	1.599717
3396	1.601409
3392	1.603746
3388	1.606893
3384	1.609611
3380	1.612734
3376	1.616334
3372	1.619338
3368	1.623630
3364	1.630425
3360	1.637458
3356	1.641726
3352	1.646304
3348	1.653814
3344	1.660108
3340	1.664495
3336	1.670432
3332	1.677799
3328	1.684665
3324	1.689624
3320	1.693463
3316	1.698589
3312	1.705336
3308	1.711773
3304	1.717495
3300	1.723098
3296	1.728868
3292	1.735091
3288	1.740217
3284	1.744675
3280	1.749682
3276	1.753568
3272	1.756644
3268	1.760149
3264	1.763510
3260	1.766467
3256	1.769518
3252	1.772141
3248	1.775527
3244	1.778984
3240	1.779890
3236	1.780819
3232	1.783776
3228	1.786613
3224	1.787877
3220	1.789546
3216	1.792645
3212	1.794171
3208	1.793432
3204	1.792478
3200	1.790881
3196	1.790237
3192	1.791930
3188	1.793670
3184	1.794457
3180	1.795101
3176	1.797652
3172	1.801490
3168	1.803684
3164	1.804614
3160	1.806521
3156	1.810216
3152	1.813435
3148	1.815581
3144	1.818823
3140	1.822733
3136	1.826786
3132	1.832461
3128	1.838660
3124	1.842880
3120	1.845431
3116	1.847028
3112	1.850152
3108	1.858162
3104	1.868820
3100	1.878023
3096	1.885056
3092	1.892089
3088	1.900911
3084	1.910448
3080	1.917576
3076	1.922774
3072	1.927733
3068	1.932907
3064	1.939153
3060	1.946020
3056	1.952719
3052	1.959657
3048	1.966667
3044	1.971936
3040	1.974916
3036	1.976513
3032	1.976966
3028	1.974368
3024	1.968050
3020	1.962375
3016	1.966619
3012	1.983380
3008	2.003383
3004	2.018356
3000	2.026772
2996	2.030324
2992	2.031397
2988	2.029991
2984	2.025294
2980	2.016568
2976	2.002358
2972	1.981353
2968	1.957201
2964	1.938509
2960	1.928591
2956	1.924848
2952	1.921224
2948	1.909255
2944	1.884675
2940	1.851034
2936	1.815962
2932	1.786565
2928	1.768350
2924	1.772236
2920	1.805615
2916	1.854729
2912	1.898479
2908	1.928043
2904	1.947307
2900	1.961207
2896	1.972794
2892	1.985597
2888	1.997876
2884	2.006387
2880	2.009749
2876	2.003097
2872	1.983070
2868	1.950836
2864	1.918387
2860	1.908850
2856	1.929998
2852	1.967644
2848	2.007794
2844	2.042126
2840	2.067732
2836	2.088522
2832	2.105522
2828	2.118396
2824	2.129936
2820	2.139973
2816	2.148628
2812	2.157330
2808	2.165317
2804	2.173304
2800	2.182126
2796	2.189636
2792	2.194499
2788	2.200102
2784	2.209067
2780	2.218484
2776	2.225899
2772	2.231574
2768	2.236008
2764	2.239918
2760	2.243852
2756	2.247047
2752	2.249550
2748	2.251410
2744	2.252316
2740	2.254533
2736	2.257895
2732	2.259373
2728	2.258944
2724	2.257585
2720	2.255773
2716	2.254462
2712	2.253198
2708	2.250599
2704	2.247595
2700	2.244782
2696	2.241659
2692	2.239799
2688	2.240109
2684	2.239227
2680	2.236080
2676	2.233123
2672	2.229332
2668	2.225136
2664	2.222800
2660	2.221965
2656	2.221179
2652	2.220106
2648	2.220273
2644	2.220606
2640	2.219271
2636	2.217459
2632	2.217030
2628	2.218627
2624	2.220487
2620	2.221775
2616	2.222871
2612	2.223682
2608	2.224612
2604	2.225828
2600	2.227520
2596	2.229118
2592	2.230882
2588	2.234816
2584	2.240777
2580	2.247476
2576	2.254033
2572	2.259588
2568	2.265357
2564	2.271556
2560	2.276611
2556	2.280116
2552	2.283668
2548	2.287817
2544	2.292394
2540	2.297425
2536	2.302312
2532	2.306699
2528	2.310681
2524	2.313971
2520	2.317905
2516	2.323007
2512	2.326130
2508	2.327632
2504	2.328777
2500	2.329421
2496	2.330827
2492	2.331185
2488	2.328491
2484	2.325916
2480	2.324509
2476	2.322983
2472	2.320742
2468	2.316522
2464	2.312040
2460	2.309465
2456	2.306222
2452	2.301526
2448	2.296519
2444	2.291917
2440	2.289247
2436	2.286505
2432	2.281236
2428	2.277231
2424	2.273392
2420	2.265334
2416	2.260446
2412	2.262830
2408	2.263855
2404	2.259635
2400	2.254319
2396	2.251100
2392	2.249097
2388	2.247524
2384	2.247357
2380	2.246832
2376	2.243709
2372	2.238535
2368	2.233982
2364	2.233171
2360	2.237749
2356	2.247166
2352	2.256798
2348	2.262282
2344	2.264666
2340	2.267456
2336	2.272319
2332	2.278923
2328	2.286505
2324	2.294421
2320	2.302551
2316	2.310585
2312	2.317953
2308	2.324342
2304	2.331233
2300	2.339148
2296	2.345871
2292	2.351212
2288	2.355575
2284	2.359580
2280	2.364253
2276	2.368831
2272	2.372884
2268	2.375745
2264	2.377820
2260	2.379822
2256	2.380752
2252	2.380967
2248	2.382111
2244	2.383494
2240	2.383255
2236	2.381825
2232	2.380251
2228	2.380657
2224	2.381706
2220	2.379083
2216	2.374386
2212	2.370190
2208	2.365779
2204	2.361655
2200	2.358579
2196	2.354574
2192	2.349996
2188	2.347636
2184	2.345204
2180	2.341127
2176	2.338790
2172	2.337980
2168	2.336740
2164	2.335953
2160	2.336311
2156	2.337765
2152	2.338051
2148	2.336621
2144	2.335667
2140	2.334737
2136	2.333879
2132	2.333426
2128	2.334332
2124	2.336072
2120	2.336764
2116	2.337741
2112	2.339625
2108	2.340364
2104	2.339720
2100	2.339673
2096	2.339792
2092	2.338480
2088	2.337145
2084	2.337765
2080	2.342295
2076	2.350926
2072	2.359771
2068	2.366971
2064	2.374625
2060	2.382373
2056	2.390050
2052	2.399420
2048	2.409958
2044	2.419018
2040	2.426004
2036	2.432012
2032	2.436542
2028	2.440285
2024	2.444195
2020	2.447438
2016	2.450108
2012	2.452349
2008	2.453899
2004	2.455067
2000	2.455973
1996	2.455568
1992	2.454590
1988	2.454066
1984	2.452659
1980	2.449822
1976	2.446651
1972	2.443718
1968	2.441215
1964	2.437353
1960	2.432060
1956	2.428483
1952	2.427005
1948	2.424836
1944	2.421665
1940	2.418112
1936	2.413368
1932	2.407717
1928	2.403306
1924	2.399563
1920	2.395105
1916	2.391386
1912	2.388167
1908	2.384853
1904	2.381825
1900	2.378225
1896	2.374505
1892	2.373194
1888	2.374649
1884	2.376103
1880	2.376985
1876	2.377891
1872	2.377867
1868	2.378916
1864	2.382755
1860	2.387094
1856	2.391529
1852	2.394914
1848	2.395057
1844	2.396249
1840	2.401685
1836	2.406382
1832	2.407789
1828	2.409839
1824	2.415370
1820	2.422189
1816	2.427053
1812	2.429962
1808	2.432870
1804	2.434301
1800	2.432560
1796	2.429819
1792	2.428650
1788	2.429246
1784	2.429962
1780	2.428674
1776	2.422094
1772	2.414727
1768	2.413082
1764	2.411866
1760	2.407503
1756	2.399015
1752	2.386164
1748	2.374029
1744	2.361893
1740	2.344918
1736	2.327489
1732	2.322006
1728	2.326703
1724	2.324414
1720	2.311420
1716	2.302002
1712	2.300262
1708	2.292490
1704	2.273607
1700	2.254676
1696	2.251601
1692	2.257633
1688	2.250409
1684	2.239942
1680	2.238988
1676	2.234411
1672	2.226066
1668	2.220320
1664	2.214336
1660	2.201986
1656	2.179241
1652	2.162432
1648	2.160835
1644	2.161192
1640	2.153396
1636	2.141141
1632	2.133917
1628	2.124953
1624	2.106451
1620	2.078151
1616	2.039742
1612	1.998496
1608	1.972389
1604	1.975226
1600	1.993942
1596	2.008533
1592	2.014136
1588	2.012300
1584	2.004647
1580	1.992750
1576	1.983833
1572	1.981067
1568	1.975274
1564	1.955246
1560	1.931500
1556	1.931929
1552	1.950693
1548	1.958870
1544	1.958584
1540	1.981401
1536	2.033853
1532	2.083134
1528	2.107572
1524	2.112746
1520	2.110719
1516	2.104973
1512	2.090430
1508	2.061223
1504	1.993584
1500	1.851224
1496	1.701521
1492	1.683235
1488	1.789379
1484	1.900577
1480	1.958584
1476	1.974964
1472	1.974582
1468	1.965117
1464	1.937580
1460	1.880478
1456	1.803970
1452	1.759409
1448	1.781034
1444	1.829862
1440	1.857256
1436	1.865363
1432	1.869678
1428	1.870942
1424	1.865863
1420	1.855945
1416	1.843237
1412	1.815390
1408	1.767563
1404	1.729965
1400	1.732897
1396	1.764202
1392	1.788401
1388	1.788520
1384	1.785278
1380	1.796817
1376	1.809620
1372	1.816368
1368	1.819610
1364	1.818609
1360	1.816558
1356	1.815223
1352	1.814556
1348	1.814985
1344	1.815819
1340	1.818203
1336	1.825928
1332	1.837825
1328	1.847028
1324	1.851487
1320	1.854157
1316	1.855993
1312	1.856422
1308	1.855516
1304	1.855111
1300	1.856207
1296	1.856589
1292	1.855397
1288	1.854515
1284	1.852655
1280	1.845860
1276	1.831722
1272	1.804924
1268	1.761436
1264	1.720738
1260	1.717829
1256	1.754808
1252	1.796317
1248	1.820015
1244	1.830101
1240	1.833128
1236	1.831674
1232	1.827025
1228	1.820254
1224	1.811718
1220	1.797819
1216	1.778101
1212	1.759314
1208	1.748442
1204	1.745748
1200	1.745390
1196	1.743769
1192	1.739478
1188	1.732778
1184	1.723432
1180	1.710700
1176	1.697134
1172	1.683282
1168	1.666831
1164	1.647996
1160	1.629567
1156	1.616144
1152	1.608705
1148	1.603364
1144	1.596260
1140	1.586389
1136	1.573061
1132	1.556849
1128	1.539230
1124	1.520347
1120	1.499772
1116	1.478290
1112	1.458358
1108	1.441264
1104	1.429152
1100	1.422619
1096	1.419711
1092	1.420569
1088	1.423168
1084	1.424622
1080	1.425361
1076	1.427960
1072	1.433658
1068	1.439285
1064	1.439332
1060	1.422715
1056	1.372408
1052	1.312351
1048	1.306056
1044	1.348638
1040	1.380300
1036	1.384353
1032	1.376342
1028	1.367187
1024	1.359677
1020	1.356363
1016	1.362109
1012	1.374769
1008	1.387882
1004	1.397562
1000	1.402187
996	 1.403045
992	 1.398563
988	 1.387214
984	 1.377177
980	 1.373076
976	 1.367497
972	 1.356887
968	 1.344847
964	 1.332592
960	 1.318955
956	 1.302409
952	 1.285338
948	 1.273036
944	 1.265430
940	 1.260161
936	 1.253199
932	 1.243209
928	 1.234745
924	 1.226687
920	 1.215171
916	 1.199960
912	 1.183652
908	 1.169896
904	 1.159906
900	 1.153492
896	 1.147961
892	 1.138019
888	 1.118206
884	 1.085543
880	 1.049256
876	 1.029133
872	 1.036858
868	 1.061272
864	 1.081824
860	 1.091313
856	 1.092171
852	 1.087403
848	 1.080965
844	 1.074242
840	 1.061010
836	 1.027083
832	 0.962185
828	 0.885057
824	 0.846672
820	 0.872135
816	 0.920057
812	 0.945878
808	 0.949549
804	 0.946497
800	 0.946164
796	 0.951242
792	 0.960063
788	 0.969481
784	 0.975894
780	 0.977635
776	 0.977134
772	 0.975990
768	 0.972938
764	 0.967931
760	 0.964331
756	 0.962901
752	 0.959563
748	 0.952458
744	 0.942945
740	 0.933265
736	 0.923752
732	 0.912904
728	 0.901484
724	 0.890445
720	 0.879120
716	 0.868105
712	 0.856304
708	 0.841903
704	 0.826716
700	 0.811553
696	 0.791954
692	 0.762772
688	 0.736618
684	 0.730872
680	 0.735545
676	 0.734806
672	 0.726938
668	 0.715756
664	 0.706338
660	 0.698375
656	 0.688982
652	 0.678372
648	 0.666975
644	 0.655984
640	 0.646567
636	 0.635981
632	 0.624227
628	 0.613498
624	 0.602412
620	 0.590682
616	 0.577497
612	 0.558304
608	 0.536417
604	 0.523662
600	 0.521850
596	 0.521850
592	 0.518345
588	 0.512814
584	 0.507926
580	 0.504064
576	 0.500178
572	 0.496053
568	 0.491547
564	 0.486445
560	 0.480365
556	 0.473284
552	 0.465250
548	 0.457191
544	 0.450301
540	 0.443696
536	 0.436449
532	 0.428318
528	 0.418639
524	 0.407981
520	 0.398302
516	 0.389623
512	 0.380373
508	 0.370216
504	 0.359320
500	 0.347518
496	 0.334692
492	 0.320100
488	 0.304794
484	 0.289773
480	 0.275063
476	 0.261902
472	 0.250673
468	 0.239157
464	 0.225663
460	 0.211358
456	 0.197124
452	 0.183010
448	 0.171041
444	 0.161242
440	 0.150656
436	 0.138020
432	 0.124526
428	 0.112700
424	 0.102233
420	 0.090670
416	 0.079059
412	 0.069308
408	 0.060009
404	 0.052070
400	 0.045204
396	 0.033974
392	 0.021624
388	 0.015497
384	 0.014257
380	 0.012874
376	 0.010180
372	 0.008678
370	 0.008106