File: Bakgrunnsmateriale/MATLAB/FTIR/ftir_data/subBb/Mapping_121/C-4040-8_t32.asc
PE IR       SPECTRUM    SPECTRUM    ASCII       PEDS        1.60
  -1
C-A132~1.ASC
17/03/27
17:06:22.00
17/03/27
17:06:48.00
tln
$C-4040-8_t0032$<tbV0>[-10.4,-7.8,8.0,0.0,27,1,0]
27.028
64

2002,4.07
MIRTGS : RIGHTBACK : INTERNAL 2
MIR : ON : INTERNAL 2
OPTKBR

0.200000
8
8.000000
FILLER
RATIO
SPECTRUM
UNLOCKED 256

DOUBLE
64
COMBINED
1
0
0

0.002000
RATIO

1
0
TRUE
51149
0
LEFT NOT FITTED RIGHT NOT FITTED 0
NONE
NONE
15600
12
4.427000
51148
TRUE
1 0 8 72 0 0 0 0

15798

#HDR
-1
-1
#GR
µM
%T
2.38419e-05
0.0
2.000000
0.002000
12515
8
91.4162
45.2042
#DATA
2.000000	 64.6104
2.018000	 64.9945
2.036000	 64.7144
2.054000	 64.5759
2.072000	 64.8473
2.090000	 64.4987
2.108000	 64.9782
2.126000	 64.5025
2.144000	 64.6585
2.162000	 64.989
2.180000	 64.6051
2.198000	 64.7962
2.216000	 64.5809
2.234000	 64.4374
2.252000	 63.9529
2.270000	 64.1889
2.288000	 65.9493
2.306000	 64.7602
2.324000	 64.5215
2.342000	 64.7208
2.360000	 64.4256
2.378000	 64.6594
2.396000	 64.679
2.414000	 64.7892
2.432000	 64.4499
2.450000	 64.5889
2.468000	 64.2949
2.486000	 64.428
2.504000	 64.9449
2.522000	 64.8748
2.540000	 64.5191
2.558000	 64.2544
2.576000	 64.8383
2.594000	 64.651
2.612000	 64.4126
2.630000	 64.649
2.648000	 64.446
2.666000	 64.5568
2.684000	 64.7631
2.702000	 64.4584
2.720000	 64.4109
2.738000	 64.611
2.756000	 64.4566
2.774000	 64.3616
2.792000	 64.3
2.810000	 64.45
2.828000	 64.3251
2.846000	 64.4204
2.864000	 64.3748
2.882000	 64.2633
2.900000	 64.4234
2.918000	 64.2425
2.936000	 64.1108
2.954000	 64.0959
2.972000	 64.0572
2.990000	 64.2223
3.008000	 64.1773
3.026000	 64.0816
3.044000	 64.1863
3.062000	 64.2622
3.080000	 64.006
3.098000	 64.1043
3.116000	 63.9475
3.134000	 64.0147
3.152000	 64.0509
3.170000	 63.9824
3.188000	 63.9054
3.206000	 64.024
3.224000	 63.9328
3.242000	 63.9565
3.260000	 63.7868
3.278000	 63.8437
3.296000	 63.7861
3.314000	 63.7923
3.332000	 63.8128
3.350000	 63.8753
3.368000	 63.8756
3.386000	 63.5935
3.404000	 63.5322
3.422000	 63.4139
3.440000	 63.4715
3.458000	 63.71
3.476000	 63.6121
3.494000	 63.3296
3.512000	 63.4682
3.530000	 63.6063
3.548000	 63.6675
3.566000	 63.5635
3.584000	 63.6391
3.602000	 63.4533
3.620000	 63.5222
3.638000	 63.5901
3.656000	 63.4116
3.674000	 63.4751
3.692000	 63.2794
3.710000	 63.3916
3.728000	 63.353
3.746000	 63.4435
3.764000	 63.1394
3.782000	 63.1981
3.800000	 63.1753
3.818000	 63.1438
3.836000	 63.2032
3.854000	 63.2275
3.872000	 63.1979
3.890000	 63.108
3.908000	 63.1944
3.926000	 63.1965
3.944000	 63.1929
3.962000	 63.1253
3.980000	 62.9448
3.998000	 63.0809
4.016000	 62.8556
4.034000	 62.9625
4.052000	 62.9141
4.070000	 62.9012
4.088000	 62.9534
4.106000	 63.0849
4.124000	 62.5975
4.141999	 63.1854
4.160000	 62.778
4.178000	 62.82
4.196000	 62.8447
4.214000	 62.8198
4.232000	 62.805
4.250000	 62.7861
4.268000	 62.6268
4.286000	 62.7613
4.304000	 62.7194
4.322000	 62.7272
4.340000	 62.7588
4.358000	 62.57
4.375999	 62.6194
4.394000	 62.5988
4.412000	 62.5153
4.430000	 62.5355
4.448000	 62.5291
4.466000	 62.5191
4.484000	 62.5614
4.502000	 62.2911
4.520000	 62.3854
4.538000	 62.5362
4.556000	 62.5571
4.574000	 62.4668
4.592000	 62.5564
4.609999	 62.4767
4.628000	 62.2826
4.646000	 62.2001
4.664000	 62.2969
4.682000	 62.1395
4.700000	 62.3419
4.718000	 62.3282
4.736000	 62.1252
4.754000	 62.1284
4.772000	 62.1243
4.790000	 62.2399
4.808000	 62.3833
4.826000	 61.9576
4.843999	 62.1262
4.862000	 62.129
4.880000	 61.8628
4.898000	 62.0044
4.916000	 62.0159
4.934000	 62.046
4.952000	 61.9804
4.970000	 61.9677
4.988000	 62.0404
5.006000	 62.043
5.024000	 62.0251
5.042000	 61.9818
5.060000	 61.9259
5.077999	 61.9049
5.096000	 61.9045
5.114000	 61.8821
5.132000	 61.9257
5.150000	 61.8401
5.168000	 61.8473
5.186000	 61.8838
5.204000	 61.8328
5.222000	 61.7908
5.240000	 61.8329
5.258000	 61.7076
5.276000	 61.6451
5.294000	 61.6454
5.312000	 61.7014
5.330000	 61.699
5.348000	 61.6858
5.366000	 61.6588
5.384000	 61.5829
5.402000	 61.5682
5.420000	 61.5846
5.438000	 61.6125
5.456000	 61.6018
5.474000	 61.5443
5.492000	 61.5251
5.510000	 61.4801
5.528000	 61.3829
5.546000	 61.3998
5.564000	 61.4264
5.582000	 61.4296
5.600000	 61.4569
5.618000	 61.3298
5.636000	 61.2492
5.654000	 61.3267
5.672000	 61.4291
5.690000	 61.4205
5.708000	 61.3908
5.726000	 61.3517
5.744000	 61.2886
5.762000	 61.1862
5.780000	 61.146
5.798000	 61.0961
5.816000	 60.9973
5.834000	 61.1497
5.852000	 61.2432
5.870000	 61.2706
5.888000	 61.3177
5.906000	 61.2437
5.923999	 61.1986
5.942000	 61.1955
5.960000	 61.1257
5.978000	 61.0819
5.996000	 61.1351
6.014000	 61.1678
6.032000	 61.1373
6.050000	 61.0489
6.068000	 61.0354
6.086000	 61.1183
6.104000	 61.1604
6.122000	 61.1412
6.140000	 61.0842
6.158000	 60.9917
6.176000	 60.9526
6.194000	 60.9889
6.212000	 60.9859
6.230000	 60.9822
6.248000	 61.0263
6.266000	 61.0568
6.284000	 61.058
6.302000	 61.089
6.320000	 61.06
6.338000	 60.9022
6.356000	 60.7924
6.374000	 60.7585
6.392000	 60.7029
6.410000	 60.6683
6.428000	 60.6287
6.446000	 60.626
6.464000	 60.6033
6.482000	 60.5675
6.500000	 60.5984
6.518000	 60.6493
6.536000	 60.717
6.554000	 60.753
6.572000	 60.6877
6.590000	 60.5906
6.608000	 60.5642
6.626000	 60.5953
6.644000	 60.6254
6.662000	 60.6129
6.680000	 60.556
6.698000	 60.4865
6.716000	 60.475
6.734000	 60.5641
6.752000	 60.6151
6.770000	 60.5511
6.788000	 60.4987
6.806000	 60.519
6.824000	 60.5346
6.842000	 60.494
6.860000	 60.4327
6.878000	 60.4444
6.896000	 60.5443
6.914000	 60.599
6.932000	 60.5542
6.950000	 60.5268
6.968000	 60.5402
6.986000	 60.4893
7.004000	 60.392
7.022000	 60.3017
7.040000	 60.2387
7.058000	 60.2699
7.076000	 60.3573
7.094000	 60.3773
7.112000	 60.3207
7.130000	 60.2786
7.148000	 60.3291
7.166000	 60.4201
7.184000	 60.423
7.202000	 60.3406
7.220000	 60.261
7.238000	 60.2034
7.256000	 60.1639
7.274000	 60.1508
7.292000	 60.1418
7.310000	 60.1276
7.328000	 60.1525
7.346000	 60.2331
7.364000	 60.3119
7.382000	 60.3368
7.400000	 60.311
7.418000	 60.2449
7.436000	 60.1562
7.454000	 60.1062
7.472000	 60.1313
7.490000	 60.1628
7.508000	 60.1253
7.526000	 60.0532
7.544000	 60.0109
7.562000	 60.0151
7.580000	 60.0701
7.598000	 60.1493
7.616000	 60.1834
7.634000	 60.1574
7.652000	 60.116
7.670000	 60.0712
7.688000	 60.006
7.706000	 59.936
7.724000	 59.8951
7.742000	 59.8756
7.760000	 59.8497
7.778000	 59.8277
7.796000	 59.8339
7.814000	 59.8531
7.832000	 59.8616
7.850000	 59.8634
7.868000	 59.8576
7.886000	 59.8421
7.904000	 59.8512
7.922000	 59.9056
7.940000	 59.9531
7.958000	 59.9373
7.976000	 59.8804
7.994000	 59.8389
8.012000	 59.8237
8.030000	 59.8036
8.048000	 59.7712
8.065999	 59.7534
8.084000	 59.7628
8.102000	 59.777
8.120000	 59.771
8.138000	 59.7411
8.155999	 59.6976
8.173999	 59.6587
8.192000	 59.6346
8.210000	 59.6138
8.228000	 59.5921
8.246000	 59.5924
8.263999	 59.6205
8.282000	 59.6394
8.300000	 59.6287
8.318000	 59.6218
8.336000	 59.6449
8.353999	 59.6796
8.372000	 59.7049
8.390000	 59.716
8.408000	 59.6992
8.426000	 59.6432
8.443999	 59.577
8.462000	 59.5506
8.480000	 59.5724
8.498000	 59.602
8.516000	 59.5942
8.533999	 59.5365
8.552000	 59.4583
8.570000	 59.4085
8.588000	 59.4092
8.606000	 59.4372
8.624000	 59.4611
8.641999	 59.4847
8.660000	 59.5245
8.678000	 59.5712
8.696000	 59.6079
8.714000	 59.6426
8.731999	 59.6849
8.750000	 59.7075
8.768000	 59.6667
8.786000	 59.5609
8.804000	 59.4468
8.821999	 59.3885
8.840000	 59.4073
8.858000	 59.4744
8.876000	 59.5331
8.894000	 59.5223
8.911999	 59.405
8.930000	 59.2043
8.948000	 59.0056
8.966000	 58.9081
8.984000	 58.9506
9.001999	 59.0887
9.020000	 59.2424
9.038000	 59.3637
9.056000	 59.4603
9.074000	 59.5628
9.092000	 59.6735
9.109999	 59.7523
9.128000	 59.7444
9.146000	 59.6259
9.164000	 59.4259
9.182000	 59.2085
9.199999	 59.0357
9.218000	 58.9436
9.236000	 58.9479
9.254000	 59.0534
9.272000	 59.2406
9.289999	 59.4439
9.308000	 59.5665
9.326000	 59.5365
9.344000	 59.3643
9.362000	 59.1418
9.379999	 58.9768
9.398000	 58.9182
9.416000	 58.9342
9.434000	 58.9592
9.452000	 58.959
9.469999	 58.9598
9.488000	 59.0136
9.506000	 59.129
9.524000	 59.2423
9.542000	 59.2668
9.560000	 59.1726
9.577999	 59.0142
9.596000	 58.8825
9.614000	 58.8397
9.632000	 58.8913
9.650000	 58.9989
9.667999	 59.1108
9.686000	 59.1864
9.704000	 59.2047
9.722000	 59.1632
9.740000	 59.0774
9.757999	 58.9805
9.776000	 58.9133
9.794000	 58.9028
9.812000	 58.9446
9.830000	 59.0068
9.847999	 59.0524
9.866000	 59.06
9.884000	 59.0292
9.902000	 58.9695
9.920000	 58.8882
9.937999	 58.7921
9.956000	 58.6942
9.974000	 58.6145
9.992000	 58.5689
10.01	58.557
10.028	58.5668
10.046	58.5885
10.064	58.6264
10.082	58.6952
10.1	58.803
10.118	58.9357
10.136	59.0564
10.154	59.1259
10.172	59.1226
10.19	59.0566
10.208	58.9614
10.226	58.872
10.244	58.8076
10.262	58.7623
10.28	58.7167
10.298	58.6556
10.316	58.5795
10.334	58.5041
10.352	58.4471
10.37	58.4155
10.388	58.4029
10.406	58.3991
10.424	58.4022
10.442	58.4232
10.46	58.4764
10.478	58.5668
10.496	58.6786
10.514	58.7836
10.532	58.8522
10.55	58.8685
10.568	58.8337
10.586	58.7619
10.604	58.6684
10.622	58.5676
10.64	58.4709
10.658	58.3889
10.676	58.3327
10.694	58.3081
10.712	58.3131
10.73	58.337
10.748	58.3656
10.766	58.3884
10.784	58.4036
10.802	58.4168
10.82	58.4367
10.838	58.4683
10.856	58.5115
10.874	58.5611
10.892	58.6094
10.91	58.6488
10.928	58.6732
10.946	58.6772
10.964	58.6591
10.982	58.6217
11	58.5724
11.018	58.5219
11.036	58.4787
11.054	58.4472
11.072	58.4264
11.09	58.4134
11.108	58.4068
11.126	58.4073
11.144	58.4157
11.162	58.429
11.18	58.4397
11.198	58.4382
11.216	58.4178
11.234	58.3806
11.252	58.337
11.27	58.3002
11.288	58.2809
11.306	58.281
11.324	58.2947
11.342	58.3144
11.36	58.3357
11.378	58.3591
11.396	58.3875
11.414	58.4224
11.432	58.4594
11.45	58.4895
11.468	58.5025
11.486	58.4929
11.504	58.4621
11.522	58.417
11.54	58.3647
11.558	58.3102
11.576	58.2553
11.594	58.2005
11.612	58.1488
11.63	58.1058
11.648	58.0782
11.666	58.0713
11.684	58.0859
11.702	58.1184
11.72	58.1604
11.738	58.2012
11.756	58.2307
11.774	58.241
11.792	58.2287
11.81	58.1954
11.828	58.1466
11.846	58.0922
11.864	58.0442
11.882	58.013
11.9	58.0057
11.918	58.0232
11.936	58.0601
11.954	58.1059
11.972	58.1481
11.99	58.1755
12.008	58.1813
12.026	58.1639
12.044	58.1274
12.062	58.0794
12.08	58.0287
12.098	57.9826
12.116	57.9449
12.134	57.9141
12.152	57.8853
12.17	57.8523
12.188	57.8103
12.206	57.758
12.224	57.6992
12.242	57.6415
12.26	57.594
12.278	57.5652
12.296	57.5608
12.314	57.5814
12.332	57.6223
12.35	57.6746
12.368	57.7269
12.386	57.7678
12.404	57.7899
12.422	57.7912
12.44	57.7755
12.458	57.7506
12.476	57.7271
12.494	57.7137
12.512	57.7155
12.53	57.7328
12.548	57.761
12.566	57.793
12.584	57.8209
12.602	57.8383
12.62	57.8419
12.638	57.8318
12.656	57.8108
12.674	57.7829
12.692	57.7524
12.71	57.7228
12.728	57.6964
12.746	57.6747
12.764	57.6576
12.782	57.6444
12.8	57.6339
12.818	57.6246
12.836	57.6155
12.854	57.6053
12.872	57.5925
12.89	57.5759
12.908	57.5541
12.926	57.5256
12.944	57.4892
12.962	57.4448
12.98	57.3935
12.998	57.3382
13.016	57.283
13.034	57.2326
13.052	57.1912
13.07	57.1611
13.088	57.1422
13.106	57.1313
13.124	57.123
13.142	57.1117
13.16	57.0935
13.178	57.068
13.196	57.0384
13.214	57.0115
13.232	56.995
13.25	56.9961
13.268	57.0182
13.286	57.0602
13.304	57.116
13.322	57.1759
13.34	57.2287
13.358	57.2646
13.376	57.2767
13.394	57.263
13.412	57.2261
13.43	57.1722
13.448	57.1093
13.466	57.0454
13.484	56.9873
13.502	56.9393
13.52	56.9031
13.538	56.8787
13.556	56.8646
13.574	56.8584
13.592	56.8572
13.61	56.8583
13.628	56.8595
13.646	56.8587
13.664	56.8546
13.682	56.8462
13.7	56.8337
13.718	56.8181
13.736	56.8014
13.754	56.7857
13.772	56.7733
13.79	56.7658
13.808	56.764
13.826	56.7671
13.844	56.7738
13.862	56.7819
13.88	56.7897
13.898	56.7959
13.916	56.8
13.934	56.8032
13.952	56.8073
13.97	56.8147
13.988	56.8276
14.006	56.8476
14.024	56.8751
14.042	56.9096
14.06	56.9492
14.078	56.9913
14.096	57.033
14.114	57.0714
14.132	57.1039
14.15	57.1285
14.168	57.144
14.186	57.1491
14.204	57.1433
14.222	57.1262
14.24	57.0977
14.258	57.0582
14.276	57.0088
14.294	56.9511
14.312	56.8874
14.33	56.8205
14.348	56.7535
14.366	56.6899
14.384	56.6327
14.402	56.5844
14.42	56.5461
14.438	56.5182
14.456	56.4998
14.474	56.4893
14.492	56.4843
14.51	56.4821
14.528	56.48
14.546	56.4762
14.564	56.4694
14.582	56.459
14.6	56.445
14.618	56.4277
14.636	56.4076
14.654	56.3852
14.672	56.3604
14.69	56.3326
14.708	56.3015
14.726	56.2666
14.744	56.228
14.762	56.1863
14.78	56.1431
14.798	56.1008
14.816	56.0623
14.834	56.0312
14.852	56.0107
14.87	56.0031
14.888	56.0095
14.906	56.0302
14.924	56.0638
14.942	56.1074
14.96	56.1569
14.978	56.2077
14.996	56.2552
15.014	56.2953
15.032	56.3247
15.05	56.3417
15.068	56.3459
15.086	56.3379
15.104	56.3195
15.122	56.2934
15.14	56.2624
15.158	56.2286
15.176	56.1939
15.194	56.1593
15.212	56.1254
15.23	56.0921
15.248	56.0594
15.266	56.027
15.284	55.9954
15.302	55.9652
15.32	55.9371
15.338	55.9123
15.356	55.8916
15.374	55.8752
15.392	55.8627
15.41	55.8529
15.428	55.8439
15.446	55.8329
15.464	55.8171
15.482	55.7945
15.5	55.7635
15.518	55.7235
15.536	55.6767
15.554	55.6257
15.572	55.5744
15.59	55.5293
15.608	55.4957
15.626	55.4782
15.644	55.4816
15.662	55.5082
15.68	55.5574
15.698	55.6276
15.716	55.7143
15.734	55.8105
15.752	55.9096
15.77	56.0049
15.788	56.0877
15.806	56.1527
15.824	56.1963
15.842	56.2159
15.86	56.212
15.878	56.1872
15.896	56.1443
15.914	56.0891
15.932	56.0271
15.95	55.9625
15.968	55.9002
15.986	55.8438
16.004	55.7946
16.022	55.7535
16.04	55.72
16.058	55.6926
16.076	55.6698
16.094	55.6494
16.112	55.6297
16.13	55.6098
16.148	55.5889
16.166	55.5673
16.184	55.5458
16.202	55.5249
16.22	55.5063
16.238	55.4907
16.256	55.4786
16.274	55.4705
16.292	55.466
16.31	55.4646
16.328	55.4657
16.346	55.4683
16.364	55.4716
16.382	55.4755
16.4	55.4802
16.418	55.4863
16.436	55.4951
16.454	55.5081
16.472	55.5263
16.49	55.551
16.508	55.5823
16.526	55.6198
16.544	55.6617
16.562	55.7055
16.58	55.7491
16.598	55.788
16.616	55.8198
16.634	55.8418
16.652	55.8514
16.67	55.8479
16.688	55.8308
16.706	55.8016
16.724	55.762
16.742	55.7142
16.76	55.6624
16.778	55.6089
16.796	55.5575
16.814	55.5113
16.832	55.4718
16.85	55.4413
16.868	55.4201
16.886	55.4086
16.904	55.4056
16.922	55.4098
16.94	55.4196
16.958	55.4321
16.976	55.4457
16.994	55.4572
17.012	55.465
17.03	55.4676
17.048	55.4638
17.066	55.4535
17.084	55.4367
17.102	55.4149
17.12	55.3889
17.138	55.3613
17.156	55.3342
17.174	55.3094
17.192	55.2902
17.21	55.2777
17.228	55.2741
17.246	55.28
17.264	55.2961
17.282	55.3215
17.3	55.3554
17.318	55.3961
17.336	55.4408
17.354	55.4881
17.372	55.5338
17.39	55.5769
17.408	55.614
17.426	55.6437
17.444	55.6647
17.462	55.676
17.48	55.6776
17.498	55.6699
17.516	55.6536
17.534	55.6295
17.552	55.5994
17.57	55.5639
17.588	55.525
17.606	55.4831
17.624	55.4397
17.642	55.3952
17.66	55.35
17.678	55.3045
17.696	55.2589
17.714	55.2129
17.732	55.1663
17.75	55.1189
17.768	55.0703
17.786	55.0205
17.804	54.9695
17.822	54.9175
17.84	54.8652
17.858	54.813
17.876	54.7618
17.894	54.7131
17.912	54.6673
17.93	54.6265
17.948	54.5909
17.966	54.5624
17.984	54.5411
18.002	54.5281
18.02	54.5232
18.038	54.5268
18.056	54.5379
18.074	54.5563
18.092	54.5803
18.11	54.6095
18.128	54.6418
18.146	54.6766
18.164	54.7117
18.182	54.7466
18.2	54.7797
18.218	54.8103
18.236	54.8378
18.254	54.8617
18.272	54.8819
18.29	54.8984
18.308	54.9112
18.326	54.9207
18.344	54.9269
18.362	54.9302
18.38	54.9307
18.398	54.9282
18.416	54.9229
18.434	54.9145
18.452	54.9027
18.47	54.8874
18.488	54.8684
18.506	54.8454
18.524	54.8188
18.542	54.7882
18.56	54.7548
18.578	54.7185
18.596	54.6808
18.614	54.6419
18.632	54.6037
18.65	54.5664
18.668	54.5321
18.686	54.5008
18.704	54.4746
18.722	54.4533
18.74	54.4381
18.758	54.4289
18.776	54.4259
18.794	54.4288
18.812	54.437
18.83	54.4501
18.848	54.4671
18.866	54.4872
18.884	54.5092
18.902	54.5323
18.92	54.5551
18.938	54.577
18.956	54.5966
18.974	54.6134
18.992	54.6264
19.01	54.6352
19.028	54.6391
19.046	54.6381
19.064	54.6318
19.082	54.6203
19.1	54.6034
19.118	54.5815
19.136	54.5549
19.154	54.5239
19.172	54.4893
19.19	54.4516
19.208	54.4119
19.226	54.3706
19.244	54.3293
19.262	54.2883
19.28	54.2493
19.298	54.2124
19.316	54.1796
19.334	54.1507
19.352	54.1271
19.37	54.1088
19.388	54.0964
19.406	54.0899
19.424	54.0887
19.442	54.0931
19.46	54.1016
19.478	54.1142
19.496	54.1292
19.514	54.1462
19.532	54.1636
19.55	54.1803
19.568	54.1956
19.586	54.2081
19.604	54.2179
19.622	54.2237
19.64	54.226
19.658	54.2246
19.676	54.2197
19.694	54.2126
19.712	54.2029
19.73	54.1926
19.748	54.1817
19.766	54.1717
19.784	54.1631
19.802	54.1565
19.82	54.1527
19.838	54.1515
19.856	54.1533
19.874	54.1576
19.892	54.1636
19.91	54.1714
19.928	54.179
19.946	54.1868
19.964	54.1924
19.982	54.1957
20	54.1954
20.018	54.1904
20.036	54.1806
20.054	54.1648
20.072	54.1433
20.09	54.1159
20.108	54.0827
20.126	54.0447
20.144	54.0017
20.162	53.9555
20.18	53.9063
20.198	53.8556
20.216	53.8051
20.234	53.7549
20.252	53.7077
20.27	53.663
20.288	53.6231
20.306	53.5881
20.324	53.5588
20.342	53.5358
20.36	53.5189
20.378	53.5081
20.396	53.5035
20.414	53.5037
20.432	53.5091
20.45	53.5178
20.468	53.5294
20.486	53.543
20.504	53.5565
20.522	53.5704
20.54	53.5823
20.558	53.5924
20.576	53.5996
20.594	53.6032
20.612	53.6033
20.63	53.5994
20.648	53.5914
20.666	53.5799
20.684	53.5646
20.702	53.5464
20.72	53.5257
20.738	53.5026
20.756	53.4784
20.774	53.4529
20.792	53.4272
20.81	53.4015
20.828	53.3762
20.846	53.3518
20.864	53.3282
20.882	53.306
20.9	53.2851
20.918	53.2654
20.936	53.2471
20.954	53.23
20.972	53.2138
20.99	53.1987
21.008	53.1842
21.026	53.1701
21.044	53.1565
21.062	53.1428
21.08	53.1291
21.098	53.1153
21.116	53.101
21.134	53.0865
21.152	53.0715
21.17	53.0562
21.188	53.0405
21.206	53.0244
21.224	53.008
21.242	52.9913
21.26	52.9743
21.278	52.957
21.296	52.9394
21.314	52.9216
21.332	52.9034
21.35	52.8849
21.368	52.8659
21.386	52.8465
21.404	52.8266
21.422	52.8059
21.44	52.7845
21.458	52.7623
21.476	52.7391
21.494	52.7149
21.512	52.6894
21.53	52.6627
21.548	52.6346
21.566	52.6051
21.584	52.574
21.602	52.5416
21.62	52.5076
21.638	52.4723
21.656	52.4358
21.674	52.398
21.692	52.3594
21.71	52.32
21.728	52.2801
21.746	52.2406
21.764	52.201
21.782	52.1623
21.8	52.1252
21.818	52.0892
21.836	52.0556
21.854	52.0243
21.872	51.9955
21.89	51.9699
21.908	51.9474
21.926	51.9281
21.944	51.9124
21.962	51.9001
21.98	51.8909
21.998	51.8852
22.016	51.8822
22.034	51.8812
22.052	51.8824
22.07	51.885
22.088	51.8882
22.106	51.8923
22.124	51.8961
22.142	51.8995
22.16	51.9025
22.178	51.9043
22.196	51.9051
22.214	51.9047
22.232	51.903
22.25	51.8999
22.268	51.8959
22.286	51.8914
22.304	51.8861
22.322	51.8813
22.34	51.8769
22.358	51.8731
22.376	51.8713
22.394	51.8712
22.412	51.8733
22.43	51.8786
22.448	51.8869
22.466	51.898
22.484	51.9124
22.502	51.9299
22.52	51.9497
22.538	51.9717
22.556	51.9958
22.574	52.02
22.592	52.0446
22.61	52.0691
22.628	52.091
22.646	52.1108
22.664	52.1278
22.682	52.1399
22.7	52.1478
22.718	52.1508
22.736	52.1476
22.754	52.1385
22.772	52.1237
22.79	52.103
22.808	52.0762
22.826	52.0444
22.844	52.0078
22.862	51.9661
22.88	51.9209
22.898	51.8728
22.916	51.8213
22.934	51.7683
22.952	51.7141
22.97	51.6584
22.988	51.6028
23.006	51.5478
23.024	51.4929
23.042	51.439
23.06	51.3864
23.078	51.3348
23.096	51.2843
23.114	51.2352
23.132	51.1872
23.15	51.1393
23.168	51.0918
23.186	51.0445
23.204	50.997
23.222	50.9495
23.24	50.9017
23.258	50.8526
23.276	50.8026
23.294	50.7513
23.312	50.6974
23.33	50.6409
23.348	50.5819
23.366	50.5192
23.384	50.4526
23.402	50.3825
23.42	50.309
23.438	50.2321
23.456	50.1517
23.474	50.0685
23.492	49.9827
23.51	49.894
23.528	49.8021
23.546	49.7066
23.564	49.6079
23.582	49.5071
23.6	49.4042
23.618	49.299
23.636	49.1944
23.654	49.0916
23.672	48.9894
23.69	48.891
23.708	48.7984
23.726	48.7099
23.744	48.6279
23.762	48.554
23.78	48.4869
23.798	48.4285
23.816	48.3816
23.834	48.3447
23.852	48.3191
23.87	48.3072
23.888	48.3092
23.906	48.3242
23.924	48.352
23.942	48.3935
23.96	48.4477
23.978	48.5116
23.996	48.585
24.014	48.6688
24.032	48.7575
24.05	48.8482
24.068	48.9441
24.086	49.0397
24.104	49.1294
24.122	49.2169
24.14	49.2989
24.158	49.37
24.176	49.4316
24.194	49.4835
24.212	49.5228
24.23	49.5484
24.248	49.5617
24.266	49.5626
24.284	49.5506
24.302	49.5252
24.32	49.4894
24.338	49.4454
24.356	49.3906
24.374	49.3284
24.392	49.264
24.41	49.1954
24.428	49.1236
24.446	49.0548
24.464	48.9914
24.482	48.9307
24.5	48.8761
24.518	48.8305
24.536	48.7918
24.554	48.7617
24.572	48.7428
24.59	48.7348
24.608	48.7373
24.626	48.7514
24.644	48.7777
24.662	48.8153
24.68	48.8654
24.698	48.9291
24.716	49.0063
24.734	49.0963
24.752	49.1982
24.77	49.3112
24.788	49.4358
24.806	49.5737
24.824	49.7255
24.842	49.8897
24.86	50.0687
24.878	50.2649
24.896	50.4758
24.914	50.703
24.932	50.9524
24.95	51.2266
24.968	51.5221
24.986	51.843
25.004	52.1936
25.022	52.5702
25.04	52.9753
25.058	53.4153
25.076	53.8929
25.094	54.4041
25.112	54.9532
25.13	55.5442
25.148	56.1748
25.166	56.8457
25.184	57.5603
25.202	58.3207
25.22	59.1248
25.238	59.9728
25.256	60.8652
25.274	61.8037
25.292	62.7859
25.31	63.8074
25.328	64.867
25.346	65.9692
25.364	67.1049
25.382	68.2635
25.4	69.4505
25.418	70.6647
25.436	71.8918
25.454	73.1221
25.472	74.3678
25.49	75.6171
25.508	76.8535
25.526	78.077
25.544	79.2952
25.562	80.4888
25.58	81.6399
25.598	82.7622
25.616	83.849
25.634	84.8804
25.652	85.8449
25.67	86.7577
25.688	87.6058
25.706	88.3726
25.724	89.0579
25.742	89.6686
25.76	90.1936
25.778	90.6224
25.796	90.959
25.814	91.205
25.832	91.3581
25.85	91.4158
25.868	91.3779
25.886	91.2491
25.904	91.0346
25.922	90.732
25.94	90.339
25.958	89.8687
25.976	89.3343
25.994	88.7277
26.012	88.0507
26.03	87.3203
26.048	86.5507
26.066	85.7274
26.084	84.8595
26.102	83.9657
26.12	83.0572
26.138	82.1195
26.156	81.1637
26.174	80.204
26.192	79.2435
26.21	78.2718
26.228	77.3037
26.246	76.3546
26.264	75.4251
26.282	74.5085
26.3	73.6123
26.318	72.7439
26.336	71.9042
26.354	71.0893
26.372	70.2975
26.39	69.5273
26.408	68.7837
26.426	68.0623
26.444	67.3548
26.462	66.6548
26.48	65.9713
26.498	65.2981
26.516	64.6242
26.534	63.9418
26.552	63.2599
26.57	62.5736
26.588	61.8754
26.606	61.1599
26.624	60.4324
26.642	59.6914
26.66	58.9344
26.678	58.1579
26.696	57.3608
26.714	56.55
26.732	55.7329
26.75	54.9106
26.768	54.0738
26.786	53.2361
26.804	52.4124
26.822	51.6067
26.84	50.8035
26.858	50.0214
26.876	49.2812
26.894	48.5912
26.912	47.9328
26.93	47.3217
26.948	46.776
26.966	46.3035
26.984	45.8875
27.002	45.5409
27.02	45.2797
27.028	45.2042