File: Bakgrunnsmateriale/MATLAB/FTIR/ftir_data/subBb/Mapping_121/C-4040-8_t113_cm-1.asc
PE IR       SPECTRUM    SPECTRUM    ASCII       PEDS        1.60
  -1
C-4809~1.ASC
17/03/27
23:49:01.00
17/03/27
23:49:01.00
tln
$C-4040-8_t0113$<tbV0>[7.8,13.0,8.0,0.0,27,1,0]
370
64

2002,4.07
MIRTGS : RIGHTBACK : INTERNAL 2
MIR : ON : INTERNAL 2
OPTKBR

0.200000
8
8.000000
FILLER
RATIO
SPECTRUM
UNLOCKED 256

DOUBLE
64
COMBINED
1
0
0

1.000000
RATIO

1
0
TRUE
51149
0
LEFT NOT FITTED RIGHT NOT FITTED 0
NONE
NONE
15600
12
4.427000
51148
TRUE
1 0 8 72 0 0 0 0

15798

#HDR
-1
-1
#GR
CM-1
%T
2.38419e-05
0.0
5000
-1.000000
4631
8
67.937
11.1833
#DATA
5000	64.2686
4996	64.5916
4992	64.5436
4988	64.6643
4984	65.3123
4980	65.5545
4976	65.3258
4972	65.3723
4968	65.4597
4964	65.1659
4960	64.8668
4956	64.8323
4952	64.8931
4948	65.0345
4944	65.1288
4940	65.0914
4936	65.1729
4932	65.4665
4928	65.6094
4924	65.2958
4920	65.1258
4916	65.2342
4912	65.0663
4908	64.8307
4904	64.858
4900	65.1332
4896	65.4485
4892	65.6302
4888	65.3811
4884	64.7098
4880	64.5359
4876	64.8815
4872	64.9895
4868	64.985
4864	65.1223
4860	65.2643
4856	65.3506
4852	65.4011
4848	65.2373
4844	65.0386
4840	64.9848
4836	64.7547
4832	64.5532
4828	64.7636
4824	65.0026
4820	64.9256
4816	64.7747
4812	64.7274
4808	64.827
4804	64.9877
4800	64.8833
4796	64.7191
4792	64.8568
4788	64.9726
4784	64.8304
4780	64.7454
4776	64.7851
4772	64.7266
4768	64.6571
4764	64.6418
4760	64.613
4756	64.589
4752	64.7141
4748	64.8764
4744	64.9235
4740	65.1122
4736	65.1728
4732	64.8098
4728	64.5712
4724	64.6805
4720	64.9289
4716	65.1316
4712	65.1336
4708	65.0079
4704	64.8461
4700	64.7328
4696	64.6237
4692	64.5385
4688	64.5123
4684	64.4505
4680	64.5066
4676	64.7123
4672	64.9497
4668	65.0847
4664	65.0585
4660	64.9095
4656	64.7964
4652	64.8996
4648	65.0526
4644	65.1887
4640	65.2139
4636	64.911
4632	64.6316
4628	64.6277
4624	64.6859
4620	64.6389
4616	64.4505
4612	64.4627
4608	64.7568
4604	64.9635
4600	65.0047
4596	65.006
4592	65.0352
4588	65.1796
4584	65.3816
4580	65.4671
4576	65.4538
4572	65.3738
4568	65.2807
4564	65.3702
4560	65.4591
4556	65.376
4552	65.366
4548	65.7283
4544	66.2297
4540	66.1856
4536	65.4461
4532	64.7086
4528	64.5489
4524	64.5881
4520	64.7908
4516	65.3161
4512	65.6581
4508	65.6267
4504	65.4677
4500	65.399
4496	65.5867
4492	65.9036
4488	66.0421
4484	66.1492
4480	66.2987
4476	66.1104
4472	65.6979
4468	65.6918
4464	66.1729
4460	66.4857
4456	66.2536
4452	66.0913
4448	66.2011
4444	66.1569
4440	66.3421
4436	66.8205
4432	67.2955
4428	67.6986
4424	67.6979
4420	67.431
4416	67.2787
4412	66.7947
4408	64.2086
4404	59.978
4400	50.4511
4396	41.5417
4392	48.1509
4388	59.8931
4384	64.1518
4380	66.2014
4376	67.8402
4372	67.8728
4368	67.5709
4364	66.9051
4360	65.9297
4356	65.1026
4352	65.0891
4348	65.4525
4344	65.8646
4340	66.2501
4336	66.4592
4332	66.434
4328	66.3179
4324	66.2184
4320	66.0241
4316	65.6709
4312	65.3664
4308	65.3771
4304	65.4528
4300	65.2289
4296	65.0963
4292	65.1926
4288	65.3299
4284	65.5455
4280	65.6263
4276	65.5711
4272	65.5262
4268	65.4445
4264	65.4628
4260	65.5062
4256	65.4025
4252	65.2569
4248	65.2011
4244	65.2567
4240	65.2342
4236	65.1864
4232	65.3268
4228	65.5584
4224	65.6359
4220	65.5957
4216	65.6446
4212	65.7391
4208	65.6961
4204	65.5246
4200	65.4567
4196	65.3301
4192	64.9129
4188	64.6243
4184	64.8823
4180	65.4494
4176	65.5575
4172	65.1552
4168	65.1833
4164	65.3002
4160	64.9206
4156	64.7436
4152	64.9427
4148	65.0085
4144	64.8487
4140	64.7157
4136	64.7488
4132	64.8711
4128	65.0299
4124	65.1798
4120	65.1991
4116	65.0807
4112	64.9187
4108	64.8339
4104	64.8595
4100	64.9135
4096	64.9554
4092	64.9491
4088	64.8608
4084	64.8467
4080	65.0203
4076	65.1865
4072	65.1994
4068	65.0484
4064	64.9003
4060	64.9052
4056	64.8672
4052	64.8122
4048	64.7855
4044	64.7391
4040	64.8621
4036	65.101
4032	65.1355
4028	64.8929
4024	64.8185
4020	64.9704
4016	64.9731
4012	64.9256
4008	65.0246
4004	65.1025
4000	64.9928
3996	64.8818
3992	64.8717
3988	64.9649
3984	65.173
3980	65.3232
3976	65.2706
3972	65.1262
3968	65.1417
3964	65.2486
3960	65.3577
3956	65.5072
3952	65.5209
3948	65.3687
3944	65.1422
3940	65.0113
3936	65.0533
3932	65.091
3928	65.2005
3924	65.3998
3920	65.4759
3916	65.3959
3912	65.2337
3908	65.1451
3904	65.1334
3900	65.0673
3896	65.1385
3892	65.4536
3888	65.6848
3884	65.5752
3880	65.3388
3876	65.3264
3872	65.4086
3868	65.2926
3864	65.1141
3860	65.1407
3856	65.2537
3852	65.2056
3848	65.1083
3844	65.0536
3840	65.042
3836	65.1576
3832	65.3077
3828	65.3286
3824	65.3352
3820	65.4362
3816	65.4112
3812	65.2329
3808	65.0949
3804	65.1194
3800	65.2612
3796	65.3337
3792	65.3179
3788	65.3757
3784	65.5154
3780	65.6204
3776	65.5819
3772	65.388
3768	65.2531
3764	65.253
3760	65.2838
3756	65.2452
3752	65.199
3748	65.2642
3744	65.2757
3740	65.1999
3736	65.1915
3732	65.2447
3728	65.3163
3724	65.3253
3720	65.2871
3716	65.2615
3712	65.2628
3708	65.3188
3704	65.3271
3700	65.2537
3696	65.1978
3692	65.2078
3688	65.2454
3684	65.29
3680	65.3145
3676	65.2564
3672	65.2277
3668	65.3216
3664	65.3744
3660	65.3126
3656	65.2574
3652	65.2284
3648	65.1879
3644	65.1913
3640	65.2804
3636	65.3568
3632	65.3243
3628	65.2447
3624	65.1927
3620	65.1405
3616	65.1344
3612	65.2139
3608	65.282
3604	65.2229
3600	65.0823
3596	65.096
3592	65.2164
3588	65.2339
3584	65.1753
3580	65.1205
3576	65.1273
3572	65.1678
3568	65.147
3564	65.158
3560	65.4256
3556	65.7117
3552	65.484
3548	65.0696
3544	65.1396
3540	65.3522
3536	65.2163
3532	65.0916
3528	65.2617
3524	65.4377
3520	65.4134
3516	65.2986
3512	65.1307
3508	65.0378
3504	65.2061
3500	65.4193
3496	65.4495
3492	65.325
3488	65.1899
3484	65.1986
3480	65.3065
3476	65.3629
3472	65.3592
3468	65.4107
3464	65.4413
3460	65.339
3456	65.2326
3452	65.1522
3448	65.0772
3444	65.0114
3440	64.9517
3436	65.0324
3432	65.2112
3428	65.3579
3424	65.4018
3420	65.2383
3416	65.016
3412	65.0818
3408	65.3175
3404	65.3168
3400	65.1929
3396	65.1961
3392	65.2319
3388	65.246
3384	65.2464
3380	65.1615
3376	65.0417
3372	65.0033
3368	65.1052
3364	65.2078
3360	65.1324
3356	65.0643
3352	65.1488
3348	65.2076
3344	65.1877
3340	65.2143
3336	65.2478
3332	65.2172
3328	65.1772
3324	65.113
3320	65.0794
3316	65.19
3312	65.307
3308	65.2372
3304	65.0943
3300	65.0418
3296	65.0271
3292	65.0858
3288	65.2066
3284	65.1931
3280	65.0751
3276	65.0339
3272	65.0974
3268	65.1911
3264	65.3016
3260	65.3919
3256	65.3228
3252	65.1433
3248	65.0098
3244	64.8989
3240	64.8568
3236	64.9768
3232	65.101
3228	65.0696
3224	65.0182
3220	65.0994
3216	65.2011
3212	65.2767
3208	65.3613
3204	65.4093
3200	65.3129
3196	65.0426
3192	64.8954
3188	65.0083
3184	65.1461
3180	65.2249
3176	65.2861
3172	65.2946
3168	65.2375
3164	65.2115
3160	65.235
3156	65.1716
3152	65.1056
3148	65.0811
3144	64.9467
3140	64.8393
3136	64.96
3132	65.1581
3128	65.284
3124	65.3025
3120	65.3075
3116	65.3877
3112	65.3805
3108	65.3482
3104	65.3408
3100	65.2513
3096	65.1613
3092	65.1634
3088	65.2557
3084	65.3191
3080	65.2584
3076	65.1468
3072	65.1354
3068	65.2271
3064	65.2674
3060	65.2385
3056	65.228
3052	65.2893
3048	65.3797
3044	65.3913
3040	65.3993
3036	65.4705
3032	65.4272
3028	65.2483
3024	65.1548
3020	65.1902
3016	65.2208
3012	65.1799
3008	65.1289
3004	65.1672
3000	65.3009
2996	65.4277
2992	65.4
2988	65.2546
2984	65.1839
2980	65.1871
2976	65.1553
2972	65.0761
2968	65.0349
2964	65.0439
2960	65.0399
2956	65.0902
2952	65.1702
2948	65.171
2944	65.109
2940	64.9992
2936	64.9743
2932	65.0683
2928	65.0443
2924	64.9832
2920	65.0183
2916	64.9746
2912	64.9274
2908	65.0409
2904	65.1142
2900	65.0267
2896	64.9824
2892	65.034
2888	65.0479
2884	65.0551
2880	65.151
2876	65.2451
2872	65.281
2868	65.2621
2864	65.122
2860	64.9924
2856	65.0907
2852	65.2646
2848	65.1806
2844	65.0049
2840	65.0436
2836	65.1188
2832	65.0936
2828	65.0949
2824	65.0769
2820	65.0039
2816	65.0071
2812	65.0944
2808	65.1887
2804	65.2084
2800	65.164
2796	65.1282
2792	65.0831
2788	65.0824
2784	65.1549
2780	65.1608
2776	65.1277
2772	65.1269
2768	65.1034
2764	65.1232
2760	65.2185
2756	65.3091
2752	65.325
2748	65.2332
2744	65.1121
2740	65.0682
2736	65.0939
2732	65.1547
2728	65.2163
2724	65.254
2720	65.2652
2716	65.2389
2712	65.1864
2708	65.1355
2704	65.1342
2700	65.1635
2696	65.1323
2692	65.0996
2688	65.1926
2684	65.2512
2680	65.2016
2676	65.179
2672	65.1736
2668	65.182
2664	65.212
2660	65.2518
2656	65.2796
2652	65.2651
2648	65.2503
2644	65.2811
2640	65.2943
2636	65.2328
2632	65.1854
2628	65.1922
2624	65.2142
2620	65.2452
2616	65.2646
2612	65.3017
2608	65.3728
2604	65.3854
2600	65.3315
2596	65.3067
2592	65.2983
2588	65.25
2584	65.2071
2580	65.2067
2576	65.2181
2572	65.257
2568	65.2954
2564	65.2512
2560	65.2258
2556	65.3524
2552	65.4769
2548	65.433
2544	65.3491
2540	65.3336
2536	65.3072
2532	65.2226
2528	65.1973
2524	65.2435
2520	65.1981
2516	65.159
2512	65.3226
2508	65.4882
2504	65.4554
2500	65.3735
2496	65.2894
2492	65.0895
2488	64.9354
2484	65.0417
2480	65.2361
2476	65.3347
2472	65.3592
2468	65.3343
2464	65.2856
2460	65.3247
2456	65.395
2452	65.3782
2448	65.3684
2444	65.4565
2440	65.5566
2436	65.6219
2432	65.7119
2428	65.5874
2424	65.2516
2420	65.1461
2416	65.4539
2412	65.8418
2408	65.7767
2404	65.2717
2400	64.9463
2396	65.1684
2392	65.5103
2388	65.562
2384	65.4409
2380	65.3262
2376	65.3101
2372	65.3811
2368	65.4155
2364	65.3631
2360	65.2754
2356	65.238
2352	65.2684
2348	65.3093
2344	65.3346
2340	65.3152
2336	65.3114
2332	65.3495
2328	65.3105
2324	65.2585
2320	65.2903
2316	65.2628
2312	65.1916
2308	65.2519
2304	65.3684
2300	65.3834
2296	65.3277
2292	65.2758
2288	65.2468
2284	65.2367
2280	65.215
2276	65.2292
2272	65.2809
2268	65.29
2264	65.3159
2260	65.3415
2256	65.307
2252	65.3098
2248	65.3296
2244	65.3099
2240	65.3218
2236	65.3204
2232	65.2537
2228	65.2165
2224	65.2043
2220	65.2189
2216	65.2955
2212	65.3549
2208	65.3489
2204	65.3482
2200	65.3846
2196	65.3477
2192	65.2981
2188	65.3526
2184	65.3872
2180	65.347
2176	65.3244
2172	65.3024
2168	65.2336
2164	65.2529
2160	65.3119
2156	65.2766
2152	65.2376
2148	65.1676
2144	65.1645
2140	65.3054
2136	65.3625
2132	65.3155
2128	65.2965
2124	65.2709
2120	65.2712
2116	65.373
2112	65.4534
2108	65.4356
2104	65.4393
2100	65.4648
2096	65.4343
2092	65.3851
2088	65.2992
2084	65.1532
2080	65.0424
2076	65.0724
2072	65.2658
2068	65.5726
2064	65.748
2060	65.5519
2056	65.27
2052	65.1886
2048	65.2282
2044	65.2771
2040	65.2529
2036	65.2608
2032	65.408
2028	65.5237
2024	65.5001
2020	65.4239
2016	65.3654
2012	65.3405
2008	65.3335
2004	65.3205
2000	65.2624
1996	65.1912
1992	65.2046
1988	65.2821
1984	65.3668
1980	65.4356
1976	65.4629
1972	65.388
1968	65.2561
1964	65.2275
1960	65.2579
1956	65.275
1952	65.2956
1948	65.276
1944	65.224
1940	65.2152
1936	65.2563
1932	65.2844
1928	65.2899
1924	65.2794
1920	65.2962
1916	65.372
1912	65.3922
1908	65.3331
1904	65.3161
1900	65.3609
1896	65.3684
1892	65.2966
1888	65.2484
1884	65.302
1880	65.397
1876	65.3963
1872	65.2981
1868	65.2282
1864	65.1839
1860	65.1834
1856	65.2477
1852	65.2976
1848	65.3094
1844	65.2714
1840	65.1784
1836	65.15
1832	65.2431
1828	65.3351
1824	65.3631
1820	65.3092
1816	65.1599
1812	65.0614
1808	65.1439
1804	65.2977
1800	65.3687
1796	65.3084
1792	65.2064
1788	65.1996
1784	65.2365
1780	65.2327
1776	65.2629
1772	65.3191
1768	65.2967
1764	65.1782
1760	65.0261
1756	64.9962
1752	65.0924
1748	65.1113
1744	65.0683
1740	65.0607
1736	65.0037
1732	65.0045
1728	65.1878
1724	65.2576
1720	65.0676
1716	64.9509
1712	65.0704
1708	65.2604
1704	65.3175
1700	65.1526
1696	65.03
1692	65.1202
1688	65.1724
1684	65.1475
1680	65.2011
1676	65.2781
1672	65.3189
1668	65.3232
1664	65.2651
1660	65.1793
1656	65.1371
1652	65.198
1648	65.2064
1644	65.11
1640	65.1579
1636	65.2557
1632	65.2066
1628	65.1238
1624	65.111
1620	65.1509
1616	65.1968
1612	65.2017
1608	65.1473
1604	65.09
1600	65.1009
1596	65.1046
1592	64.9978
1588	64.9138
1584	64.8968
1580	64.8832
1576	64.9694
1572	65.0926
1568	65.0708
1564	64.9404
1560	64.934
1556	65.1036
1552	65.2346
1548	65.2045
1544	65.0237
1540	64.8973
1536	64.9882
1532	65.1283
1528	65.178
1524	65.1944
1520	65.1829
1516	65.1198
1512	65.1343
1508	65.2271
1504	65.2813
1500	65.2638
1496	65.1378
1492	65.0146
1488	65.0586
1484	65.1863
1480	65.2458
1476	65.1559
1472	65.0535
1468	65.1147
1464	65.1372
1460	65.0647
1456	65.1689
1452	65.2591
1448	65.1021
1444	64.9851
1440	65.0203
1436	65.0777
1432	65.1813
1428	65.2755
1424	65.2488
1420	65.1475
1416	65.0549
1412	65.024
1408	65.0476
1404	65.0026
1400	64.8509
1396	64.8749
1392	65.1263
1388	65.2268
1384	65.048
1380	64.8857
1376	64.9569
1372	65.0783
1368	65.0941
1364	65.1119
1360	65.1437
1356	65.1211
1352	65.1131
1348	65.1178
1344	65.029
1340	64.948
1336	64.9615
1332	64.9933
1328	64.9858
1324	64.976
1320	65.0809
1316	65.1694
1312	65.0791
1308	64.9624
1304	64.9178
1300	64.9135
1296	64.9213
1292	64.9329
1288	64.9471
1284	64.9436
1280	64.9623
1276	65.0444
1272	65.0842
1268	64.9611
1264	64.7995
1260	64.8209
1256	64.928
1252	64.9542
1248	64.9533
1244	64.9192
1240	64.8723
1236	64.8895
1232	64.9256
1228	64.9369
1224	65.0235
1220	65.1697
1216	65.1806
1212	65.0865
1208	65.0439
1204	65.0184
1200	64.9611
1196	64.9909
1192	65.0327
1188	64.9781
1184	64.9888
1180	65.0121
1176	64.942
1172	64.9007
1168	64.9026
1164	64.8686
1160	64.799
1156	64.7621
1152	64.8352
1148	64.919
1144	64.9164
1140	64.954
1136	64.998
1132	64.9553
1128	64.9166
1124	64.9115
1120	64.9365
1116	64.9939
1112	65.0514
1108	65.1417
1104	65.2863
1100	65.2874
1096	65.0068
1092	64.7915
1088	64.8458
1084	64.9428
1080	64.9531
1076	64.902
1072	64.8895
1068	64.9177
1064	64.8367
1060	64.6739
1056	64.5813
1052	64.5647
1048	64.6707
1044	64.9429
1040	65.076
1036	64.9257
1032	64.7723
1028	64.7263
1024	64.7566
1020	64.9069
1016	64.9676
1012	64.8565
1008	64.9242
1004	64.9809
1000	64.779
996	 64.7532
992	 64.9408
988	 64.9793
984	 64.8666
980	 64.7589
976	 64.6844
972	 64.6438
968	 64.6403
964	 64.6909
960	 64.7439
956	 64.6973
952	 64.6321
948	 64.6933
944	 64.7694
940	 64.6353
936	 64.5179
932	 64.6376
928	 64.7563
924	 64.8049
920	 64.7406
916	 64.6221
912	 64.7524
908	 64.9919
904	 65.0377
900	 64.9181
896	 64.8302
892	 64.654
888	 64.2846
884	 64.1703
880	 64.3944
876	 64.5278
872	 64.5676
868	 64.7385
864	 64.744
860	 64.357
856	 64.176
852	 64.4335
848	 64.5507
844	 64.3728
840	 64.197
836	 64.0824
832	 64.1936
828	 64.743
824	 64.986
820	 64.569
816	 64.302
812	 64.324
808	 64.2877
804	 64.1752
800	 64.1661
796	 64.3356
792	 64.3743
788	 64.1274
784	 63.9915
780	 63.9359
776	 63.8555
772	 63.9879
768	 64.0945
764	 63.9167
760	 63.8822
756	 64.1827
752	 64.4849
748	 64.5262
744	 64.3743
740	 64.3734
736	 64.3851
732	 63.9872
728	 63.5786
724	 63.6789
720	 63.904
716	 63.9246
712	 63.7858
708	 63.6018
704	 63.6102
700	 63.8088
696	 63.8148
692	 63.5188
688	 63.3945
684	 63.3932
680	 63.3086
676	 63.2963
672	 63.3358
668	 63.3903
664	 63.3611
660	 63.3277
656	 63.4536
652	 63.6075
648	 63.722
644	 63.6605
640	 63.3317
636	 63.1191
632	 63.2292
628	 63.3544
624	 63.3183
620	 63.3846
616	 63.346
612	 62.9476
608	 62.7887
604	 62.8719
600	 62.7768
596	 62.8368
592	 62.9214
588	 62.5989
584	 62.3129
580	 62.4448
576	 62.6654
572	 62.8918
568	 63.0125
564	 62.6852
560	 62.4641
556	 62.4923
552	 62.499
548	 62.7358
544	 63.1689
540	 63.329
536	 62.8738
532	 62.2993
528	 62.1858
524	 62.2335
520	 62.0536
516	 61.8092
512	 61.3813
508	 61.0188
504	 61.183
500	 61.2092
496	 61.0918
492	 61.2849
488	 61.192
484	 60.7223
480	 60.573
476	 60.8845
472	 61.2236
468	 61.338
464	 61.4856
460	 61.2525
456	 60.4724
452	 60.1188
448	 59.9733
444	 60.0146
440	 60.9896
436	 61.8552
432	 61.1878
428	 59.3542
424	 58.498
420	 60.1521
416	 62.7445
412	 64.9799
408	 66.4344
404	 64.9675
400	 61.3246
396	 61.4515
392	 64.9112
388	 59.5458
384	 37.1673
380	 17.1637
376	 11.5364
372	 16.4865
370	 30.0553