File: Bakgrunnsmateriale/MATLAB/FTIR/ftir_data/subBb/Mapping_121/C-4040-8_t118.asc
PE IR       SPECTRUM    SPECTRUM    ASCII       PEDS        1.60
  -1
C-8CD8~1.ASC
17/03/28
00:26:33.00
17/03/28
00:27:00.00
tln
$C-4040-8_t0118$<tbV0>[-5.2,13.0,8.0,0.0,27,1,0]
27.028
64

2002,4.07
MIRTGS : RIGHTBACK : INTERNAL 2
MIR : ON : INTERNAL 2
OPTKBR

0.200000
8
8.000000
FILLER
RATIO
SPECTRUM
UNLOCKED 256

DOUBLE
64
COMBINED
1
0
0

0.002000
RATIO

1
0
TRUE
51149
0
LEFT NOT FITTED RIGHT NOT FITTED 0
NONE
NONE
15600
12
4.427000
51148
TRUE
1 0 8 72 0 0 0 0

15798

#HDR
-1
-1
#GR
µM
%T
2.38419e-05
0.0
2.000000
0.002000
12515
8
100.891
9.752011
#DATA
2.000000	 64.909
2.018000	 64.227
2.036000	 65.0374
2.054000	 63.8263
2.072000	 64.4571
2.090000	 64.7186
2.108000	 65.0858
2.126000	 64.7212
2.144000	 65.0865
2.162000	 64.4469
2.180000	 65.1783
2.198000	 65.7344
2.216000	 65.5092
2.234000	 65.4546
2.252000	 65.4576
2.270000	 57.0884
2.288000	 67.7078
2.306000	 65.0664
2.324000	 65.4409
2.342000	 64.8722
2.360000	 65.0312
2.378000	 65.2392
2.396000	 65.689
2.414000	 64.5509
2.432000	 64.7669
2.450000	 64.8531
2.468000	 64.6922
2.486000	 64.5375
2.504000	 64.693
2.522000	 64.892
2.540000	 64.8993
2.558000	 64.7189
2.576000	 64.9891
2.594000	 64.9294
2.612000	 64.9157
2.630000	 64.9029
2.648000	 65.041
2.666000	 64.9727
2.684000	 65.0029
2.702000	 65.0125
2.720000	 64.9218
2.738000	 64.7457
2.756000	 64.8845
2.774000	 65.0867
2.792000	 64.6801
2.810000	 65.1012
2.828000	 64.9185
2.846000	 64.9277
2.864000	 64.8219
2.882000	 65.0744
2.900000	 65.0412
2.918000	 64.933
2.936000	 64.952
2.954000	 65.0185
2.972000	 65.0189
2.990000	 64.9899
3.008000	 64.9465
3.026000	 64.5581
3.044000	 65.0344
3.062000	 64.9361
3.080000	 64.8838
3.098000	 64.9167
3.116000	 65.0361
3.134000	 64.8731
3.152000	 65.0406
3.170000	 65.1396
3.188000	 64.6938
3.206000	 64.873
3.224000	 65.0977
3.242000	 65.2491
3.260000	 64.9398
3.278000	 64.8716
3.296000	 65.0815
3.314000	 65.0076
3.332000	 64.9026
3.350000	 65.0255
3.368000	 64.971
3.386000	 64.891
3.404000	 64.9037
3.422000	 64.7293
3.440000	 64.8759
3.458000	 64.7863
3.476000	 64.9322
3.494000	 64.5406
3.512000	 64.7926
3.530000	 64.8614
3.548000	 64.9426
3.566000	 65.0129
3.584000	 64.8809
3.602000	 64.888
3.620000	 64.9064
3.638000	 65.0067
3.656000	 64.7911
3.674000	 64.8932
3.692000	 65.0313
3.710000	 64.8825
3.728000	 64.8839
3.746000	 64.967
3.764000	 64.8764
3.782000	 65.0277
3.800000	 64.9286
3.818000	 64.85
3.836000	 64.8944
3.854000	 64.8689
3.872000	 64.8669
3.890000	 64.9517
3.908000	 64.9664
3.926000	 65.0813
3.944000	 64.9673
3.962000	 64.9996
3.980000	 64.8822
3.998000	 64.5862
4.016000	 64.6353
4.034000	 65.1281
4.052000	 65.0077
4.070000	 65.0583
4.088000	 65.1194
4.106000	 65.1978
4.124000	 65.0736
4.141999	 65.4226
4.160000	 65.2945
4.178000	 64.9337
4.196000	 65.0249
4.214000	 64.921
4.232000	 65.0001
4.250000	 64.9432
4.268000	 65.1196
4.286000	 65.1427
4.304000	 65.012
4.322000	 64.9582
4.340000	 65.0158
4.358000	 64.9937
4.375999	 64.8703
4.394000	 64.8064
4.412000	 65.0138
4.430000	 64.9948
4.448000	 64.9373
4.466000	 64.9859
4.484000	 64.9233
4.502000	 64.9931
4.520000	 65.0566
4.538000	 65.1156
4.556000	 65.116
4.574000	 65.0846
4.592000	 65.1285
4.609999	 64.8901
4.628000	 64.7619
4.646000	 64.8274
4.664000	 65.1009
4.682000	 64.85
4.700000	 65.117
4.718000	 65.0639
4.736000	 65.071
4.754000	 65.0363
4.772000	 65.0337
4.790000	 64.9485
4.808000	 64.9451
4.826000	 65.6585
4.843999	 65.9636
4.862000	 65.149
4.880000	 64.9218
4.898000	 64.9301
4.916000	 65.039
4.934000	 65.022
4.952000	 65.0381
4.970000	 64.9513
4.988000	 64.9952
5.006000	 64.9558
5.024000	 64.9454
5.042000	 65.0815
5.060000	 65.1239
5.077999	 64.9746
5.096000	 64.9422
5.114000	 65.0226
5.132000	 65.0164
5.150000	 64.9344
5.168000	 64.8372
5.186000	 64.9393
5.204000	 65.0702
5.222000	 65.0621
5.240000	 65.0663
5.258000	 64.9496
5.276000	 64.9371
5.294000	 64.9452
5.312000	 65.0325
5.330000	 64.9928
5.348000	 64.9175
5.366000	 64.8002
5.384000	 64.9072
5.402000	 64.9488
5.420000	 64.9016
5.438000	 64.9493
5.456000	 64.8966
5.474000	 64.829
5.492000	 64.881
5.510000	 64.8271
5.528000	 64.7634
5.546000	 64.9592
5.564000	 64.9744
5.582000	 64.8189
5.600000	 64.783
5.618000	 64.8565
5.636000	 64.8822
5.654000	 64.9099
5.672000	 64.8842
5.690000	 64.811
5.708000	 64.8974
5.726000	 64.8981
5.744000	 64.8115
5.762000	 64.6144
5.780000	 64.5563
5.798000	 64.7698
5.816000	 64.8531
5.834000	 64.8133
5.852000	 64.7282
5.870000	 64.8197
5.888000	 64.9249
5.906000	 64.9333
5.923999	 64.8595
5.942000	 64.8464
5.960000	 64.9383
5.978000	 64.9248
5.996000	 64.8842
6.014000	 64.7918
6.032000	 64.7222
6.050000	 64.8232
6.068000	 64.8482
6.086000	 64.7996
6.104000	 64.9093
6.122000	 64.9131
6.140000	 64.805
6.158000	 64.778
6.176000	 64.6918
6.194000	 64.7506
6.212000	 64.8699
6.230000	 64.8161
6.248000	 64.8097
6.266000	 64.8126
6.284000	 64.7731
6.302000	 64.7396
6.320000	 64.7227
6.338000	 64.632
6.356000	 64.5344
6.374000	 64.6136
6.392000	 64.7377
6.410000	 64.7822
6.428000	 64.7561
6.446000	 64.7514
6.464000	 64.8082
6.482000	 64.8592
6.500000	 64.9032
6.518000	 64.9059
6.536000	 64.8694
6.554000	 64.8138
6.572000	 64.7553
6.590000	 64.776
6.608000	 64.8761
6.626000	 64.9207
6.644000	 64.8908
6.662000	 64.8464
6.680000	 64.78
6.698000	 64.6998
6.716000	 64.6887
6.734000	 64.7789
6.752000	 64.805
6.770000	 64.7672
6.788000	 64.8052
6.806000	 64.812
6.824000	 64.707
6.842000	 64.5975
6.860000	 64.6034
6.878000	 64.7134
6.896000	 64.7978
6.914000	 64.7906
6.932000	 64.6953
6.950000	 64.5922
6.968000	 64.6856
6.986000	 64.928
7.004000	 65.0201
7.022000	 64.9582
7.040000	 64.8688
7.058000	 64.7387
7.076000	 64.6253
7.094000	 64.6235
7.112000	 64.6663
7.130000	 64.6621
7.148000	 64.6785
7.166000	 64.7375
7.184000	 64.7623
7.202000	 64.7413
7.220000	 64.6775
7.238000	 64.6469
7.256000	 64.7111
7.274000	 64.7444
7.292000	 64.6801
7.310000	 64.6321
7.328000	 64.6572
7.346000	 64.7041
7.364000	 64.7285
7.382000	 64.7168
7.400000	 64.6726
7.418000	 64.6297
7.436000	 64.6209
7.454000	 64.6162
7.472000	 64.5935
7.490000	 64.6171
7.508000	 64.7062
7.526000	 64.758
7.544000	 64.7227
7.562000	 64.6823
7.580000	 64.6932
7.598000	 64.7159
7.616000	 64.7212
7.634000	 64.7161
7.652000	 64.6739
7.670000	 64.5804
7.688000	 64.5031
7.706000	 64.4854
7.724000	 64.4561
7.742000	 64.3616
7.760000	 64.2799
7.778000	 64.3069
7.796000	 64.4209
7.814000	 64.5204
7.832000	 64.5408
7.850000	 64.5073
7.868000	 64.485
7.886000	 64.4983
7.904000	 64.5287
7.922000	 64.5524
7.940000	 64.5431
7.958000	 64.4929
7.976000	 64.4506
7.994000	 64.4716
8.012000	 64.5318
8.030000	 64.5678
8.048000	 64.5638
8.065999	 64.5417
8.084000	 64.5207
8.102000	 64.5217
8.120000	 64.5681
8.138000	 64.6517
8.155999	 64.7352
8.173999	 64.7845
8.192000	 64.7818
8.210000	 64.7238
8.228000	 64.6323
8.246000	 64.5532
8.263999	 64.518
8.282000	 64.5101
8.300000	 64.492
8.318000	 64.458
8.336000	 64.4377
8.353999	 64.4423
8.372000	 64.4453
8.390000	 64.4341
8.408000	 64.4397
8.426000	 64.4887
8.443999	 64.5491
8.462000	 64.5574
8.480000	 64.4929
8.498000	 64.3969
8.516000	 64.3279
8.533999	 64.3154
8.552000	 64.3535
8.570000	 64.4196
8.588000	 64.4901
8.606000	 64.5365
8.624000	 64.533
8.641999	 64.477
8.660000	 64.3979
8.678000	 64.333
8.696000	 64.2985
8.714000	 64.2848
8.731999	 64.28
8.750000	 64.2879
8.768000	 64.3207
8.786000	 64.3765
8.804000	 64.4319
8.821999	 64.4578
8.840000	 64.4402
8.858000	 64.3904
8.876000	 64.3346
8.894000	 64.299
8.911999	 64.2984
8.930000	 64.3323
8.948000	 64.3907
8.966000	 64.4637
8.984000	 64.5448
9.001999	 64.6286
9.020000	 64.7098
9.038000	 64.7782
9.056000	 64.8132
9.074000	 64.7874
9.092000	 64.6855
9.109999	 64.5265
9.128000	 64.3639
9.146000	 64.2604
9.164000	 64.2472
9.182000	 64.3043
9.199999	 64.372
9.218000	 64.3896
9.236000	 64.3369
9.254000	 64.2502
9.272000	 64.1934
9.289999	 64.2083
9.308000	 64.2811
9.326000	 64.3538
9.344000	 64.3645
9.362000	 64.2895
9.379999	 64.1562
9.398000	 64.0254
9.416000	 63.9531
9.434000	 63.9602
9.452000	 64.0243
9.469999	 64.1022
9.488000	 64.1621
9.506000	 64.1971
9.524000	 64.2188
9.542000	 64.2378
9.560000	 64.256
9.577999	 64.2727
9.596000	 64.2914
9.614000	 64.3156
9.632000	 64.3406
9.650000	 64.3525
9.667999	 64.336
9.686000	 64.2797
9.704000	 64.18
9.722000	 64.0478
9.740000	 63.9113
9.757999	 63.8097
9.776000	 63.7718
9.794000	 63.7957
9.812000	 63.8491
9.830000	 63.8987
9.847999	 63.9388
9.866000	 63.9893
9.884000	 64.0672
9.902000	 64.162
9.920000	 64.2397
9.937999	 64.2708
9.956000	 64.2565
9.974000	 64.2267
9.992000	 64.2166
10.01	64.243
10.028	64.295
10.046	64.3472
10.064	64.3776
10.082	64.3779
10.1	64.3537
10.118	64.3167
10.136	64.2767
10.154	64.238
10.172	64.2011
10.19	64.1676
10.208	64.1404
10.226	64.1213
10.244	64.1095
10.262	64.1026
10.28	64.097
10.298	64.0903
10.316	64.081
10.334	64.0697
10.352	64.0591
10.37	64.0529
10.388	64.0532
10.406	64.0578
10.424	64.0611
10.442	64.0587
10.46	64.0541
10.478	64.0596
10.496	64.0895
10.514	64.1475
10.532	64.219
10.55	64.2739
10.568	64.282
10.586	64.2298
10.604	64.1303
10.622	64.0188
10.64	63.9346
10.658	63.9029
10.676	63.9231
10.694	63.974
10.712	64.0257
10.73	64.0575
10.748	64.064
10.766	64.0556
10.784	64.0478
10.802	64.0503
10.82	64.0601
10.838	64.0656
10.856	64.0578
10.874	64.0368
10.892	64.0127
10.91	64.0002
10.928	64.0067
10.946	64.0323
10.964	64.0713
10.982	64.1175
11	64.1676
11.018	64.2194
11.036	64.2673
11.054	64.3001
11.072	64.307
11.09	64.2847
11.108	64.2438
11.126	64.2045
11.144	64.1825
11.162	64.1802
11.18	64.183
11.198	64.1653
11.216	64.1051
11.234	63.9958
11.252	63.8486
11.27	63.6869
11.288	63.5391
11.306	63.4248
11.324	63.3517
11.342	63.3167
11.36	63.3102
11.378	63.321
11.396	63.3417
11.414	63.3686
11.432	63.4032
11.45	63.4498
11.468	63.511
11.486	63.583
11.504	63.6558
11.522	63.7134
11.54	63.7401
11.558	63.7248
11.576	63.6663
11.594	63.5733
11.612	63.4618
11.63	63.3529
11.648	63.2655
11.666	63.2136
11.684	63.2023
11.702	63.2278
11.72	63.2798
11.738	63.3427
11.756	63.4028
11.774	63.4539
11.792	63.5008
11.81	63.5586
11.828	63.6464
11.846	63.7792
11.864	63.958
11.882	64.1643
11.9	64.3626
11.918	64.5071
11.936	64.5559
11.954	64.4836
11.972	64.2859
11.99	63.9852
12.008	63.6231
12.026	63.2526
12.044	62.929
12.062	62.701
12.08	62.601
12.098	62.641
12.116	62.8103
12.134	63.0761
12.152	63.3885
12.17	63.695
12.188	63.9488
12.206	64.119
12.224	64.1966
12.242	64.192
12.26	64.1286
12.278	64.0357
12.296	63.9396
12.314	63.8594
12.332	63.803
12.35	63.7704
12.368	63.7535
12.386	63.7423
12.404	63.7268
12.422	63.6999
12.44	63.6577
12.458	63.5986
12.476	63.5216
12.494	63.4278
12.512	63.3202
12.53	63.2039
12.548	63.088
12.566	62.9842
12.584	62.9066
12.602	62.8682
12.62	62.8765
12.638	62.9333
12.656	63.0341
12.674	63.1675
12.692	63.3178
12.71	63.4681
12.728	63.6038
12.746	63.7135
12.764	63.7915
12.782	63.8366
12.8	63.8525
12.818	63.8448
12.836	63.8192
12.854	63.7792
12.872	63.7283
12.89	63.6683
12.908	63.6019
12.926	63.5326
12.944	63.465
12.962	63.4031
12.98	63.3487
12.998	63.3007
13.016	63.2548
13.034	63.2052
13.052	63.1456
13.07	63.0726
13.088	62.9862
13.106	62.8916
13.124	62.7972
13.142	62.714
13.16	62.6534
13.178	62.625
13.196	62.633
13.214	62.6766
13.232	62.7498
13.25	62.8426
13.268	62.9427
13.286	63.0383
13.304	63.1203
13.322	63.1836
13.34	63.2274
13.358	63.2547
13.376	63.2709
13.394	63.2813
13.412	63.2902
13.43	63.2985
13.448	63.3043
13.466	63.3028
13.484	63.2889
13.502	63.258
13.52	63.2081
13.538	63.1405
13.556	63.0591
13.574	62.9686
13.592	62.8741
13.61	62.7794
13.628	62.6875
13.646	62.6003
13.664	62.5198
13.682	62.4488
13.7	62.3915
13.718	62.3526
13.736	62.337
13.754	62.3483
13.772	62.3881
13.79	62.4544
13.808	62.5416
13.826	62.6413
13.844	62.7426
13.862	62.8345
13.88	62.9065
13.898	62.9503
13.916	62.961
13.934	62.9371
13.952	62.8805
13.97	62.7963
13.988	62.6917
14.006	62.5759
14.024	62.459
14.042	62.3508
14.06	62.2599
14.078	62.1924
14.096	62.1514
14.114	62.1369
14.132	62.1461
14.15	62.1743
14.168	62.2156
14.186	62.2644
14.204	62.3158
14.222	62.3669
14.24	62.416
14.258	62.4634
14.276	62.51
14.294	62.5571
14.312	62.6055
14.33	62.6553
14.348	62.7056
14.366	62.755
14.384	62.8008
14.402	62.8406
14.42	62.8712
14.438	62.8898
14.456	62.894
14.474	62.8816
14.492	62.8517
14.51	62.804
14.528	62.7391
14.546	62.6593
14.564	62.5685
14.582	62.4718
14.6	62.3756
14.618	62.2869
14.636	62.2128
14.654	62.1582
14.672	62.1261
14.69	62.117
14.708	62.1295
14.726	62.159
14.744	62.1996
14.762	62.2442
14.78	62.2876
14.798	62.3255
14.816	62.356
14.834	62.3792
14.852	62.3978
14.87	62.4155
14.888	62.4364
14.906	62.4638
14.924	62.4998
14.942	62.544
14.96	62.5923
14.978	62.6389
14.996	62.677
15.014	62.6989
15.032	62.6971
15.05	62.6672
15.068	62.6082
15.086	62.522
15.104	62.4134
15.122	62.2917
15.14	62.1671
15.158	62.0493
15.176	61.9471
15.194	61.8683
15.212	61.8177
15.23	61.7957
15.248	61.8006
15.266	61.8287
15.284	61.8736
15.302	61.9287
15.32	61.988
15.338	62.0463
15.356	62.0987
15.374	62.1419
15.392	62.1743
15.41	62.1947
15.428	62.2024
15.446	62.1972
15.464	62.179
15.482	62.1478
15.5	62.1042
15.518	62.0496
15.536	61.9861
15.554	61.9166
15.572	61.8449
15.59	61.7762
15.608	61.7149
15.626	61.6649
15.644	61.6301
15.662	61.6127
15.68	61.613
15.698	61.6307
15.716	61.6638
15.734	61.7091
15.752	61.7633
15.77	61.8232
15.788	61.8846
15.806	61.9452
15.824	62.0031
15.842	62.0568
15.86	62.1059
15.878	62.15
15.896	62.189
15.914	62.222
15.932	62.2483
15.95	62.267
15.968	62.2767
15.986	62.2757
16.004	62.263
16.022	62.2377
16.04	62.1998
16.058	62.1505
16.076	62.0915
16.094	62.0262
16.112	61.9591
16.13	61.8938
16.148	61.8349
16.166	61.787
16.184	61.7527
16.202	61.7351
16.22	61.7354
16.238	61.7526
16.256	61.7857
16.274	61.8303
16.292	61.8822
16.31	61.9376
16.328	61.9896
16.346	62.0338
16.364	62.0666
16.382	62.084
16.4	62.0858
16.418	62.0719
16.436	62.0451
16.454	62.0094
16.472	61.9681
16.49	61.9275
16.508	61.892
16.526	61.8647
16.544	61.8497
16.562	61.8474
16.58	61.8583
16.598	61.8805
16.616	61.9111
16.634	61.9474
16.652	61.9844
16.67	62.019
16.688	62.0481
16.706	62.0683
16.724	62.0786
16.742	62.0775
16.76	62.0658
16.778	62.044
16.796	62.0135
16.814	61.9764
16.832	61.9338
16.85	61.8876
16.868	61.8386
16.886	61.7878
16.904	61.7348
16.922	61.679
16.94	61.6199
16.958	61.5554
16.976	61.4848
16.994	61.4068
17.012	61.321
17.03	61.227
17.048	61.1256
17.066	61.0179
17.084	60.9056
17.102	60.7919
17.12	60.6783
17.138	60.5692
17.156	60.4672
17.174	60.3748
17.192	60.2955
17.21	60.2304
17.228	60.1816
17.246	60.1495
17.264	60.1347
17.282	60.1363
17.3	60.1538
17.318	60.1858
17.336	60.2305
17.354	60.2866
17.372	60.3512
17.39	60.423
17.408	60.4994
17.426	60.5783
17.444	60.6583
17.462	60.7366
17.48	60.8122
17.498	60.8826
17.516	60.9466
17.534	61.003
17.552	61.05
17.57	61.0873
17.588	61.1138
17.606	61.1299
17.624	61.1356
17.642	61.1324
17.66	61.1204
17.678	61.1025
17.696	61.0795
17.714	61.0538
17.732	61.0269
17.75	61.0007
17.768	60.9763
17.786	60.9545
17.804	60.936
17.822	60.9208
17.84	60.9083
17.858	60.8977
17.876	60.8882
17.894	60.8783
17.912	60.8675
17.93	60.8544
17.948	60.8389
17.966	60.8206
17.984	60.7998
18.002	60.7767
18.02	60.7529
18.038	60.7292
18.056	60.7081
18.074	60.6904
18.092	60.6791
18.11	60.6747
18.128	60.6796
18.146	60.694
18.164	60.7194
18.182	60.755
18.2	60.8012
18.218	60.8561
18.236	60.9195
18.254	60.9879
18.272	61.0607
18.29	61.1335
18.308	61.2058
18.326	61.2727
18.344	61.3338
18.362	61.3854
18.38	61.4271
18.398	61.4566
18.416	61.4737
18.434	61.4776
18.452	61.4688
18.47	61.4469
18.488	61.4139
18.506	61.3703
18.524	61.3182
18.542	61.2582
18.56	61.1929
18.578	61.1229
18.596	61.0503
18.614	60.9754
18.632	60.9003
18.65	60.825
18.668	60.751
18.686	60.6781
18.704	60.6073
18.722	60.5388
18.74	60.4731
18.758	60.4106
18.776	60.3521
18.794	60.2978
18.812	60.2491
18.83	60.2064
18.848	60.1708
18.866	60.143
18.884	60.1242
18.902	60.1146
18.92	60.1155
18.938	60.1266
18.956	60.1483
18.974	60.1797
18.992	60.2204
19.01	60.2688
19.028	60.3233
19.046	60.3823
19.064	60.4432
19.082	60.5042
19.1	60.5621
19.118	60.6156
19.136	60.6613
19.154	60.6986
19.172	60.7246
19.19	60.7396
19.208	60.7417
19.226	60.7316
19.244	60.7092
19.262	60.6752
19.28	60.631
19.298	60.5772
19.316	60.5167
19.334	60.4495
19.352	60.3793
19.37	60.3059
19.388	60.2324
19.406	60.1588
19.424	60.087
19.442	60.0171
19.46	59.95
19.478	59.8858
19.496	59.8245
19.514	59.766
19.532	59.7101
19.55	59.6566
19.568	59.6053
19.586	59.556
19.604	59.5087
19.622	59.4634
19.64	59.4204
19.658	59.3799
19.676	59.3421
19.694	59.3077
19.712	59.2767
19.73	59.2498
19.748	59.2269
19.766	59.2077
19.784	59.1925
19.802	59.1802
19.82	59.1707
19.838	59.1631
19.856	59.1562
19.874	59.1497
19.892	59.1417
19.91	59.1324
19.928	59.1194
19.946	59.1028
19.964	59.0819
19.982	59.0562
20	59.0263
20.018	58.992
20.036	58.9544
20.054	58.9145
20.072	58.8724
20.09	58.8306
20.108	58.7885
20.126	58.7488
20.144	58.7113
20.162	58.6771
20.18	58.6471
20.198	58.6208
20.216	58.5983
20.234	58.5791
20.252	58.5618
20.27	58.5466
20.288	58.5305
20.306	58.5136
20.324	58.4939
20.342	58.47
20.36	58.4419
20.378	58.4078
20.396	58.3681
20.414	58.3233
20.432	58.2727
20.45	58.219
20.468	58.1623
20.486	58.1043
20.504	58.0484
20.522	57.9941
20.54	57.9462
20.558	57.9041
20.576	57.8709
20.594	57.8481
20.612	57.8356
20.63	57.8349
20.648	57.8456
20.666	57.8667
20.684	57.899
20.702	57.9393
20.72	57.9861
20.738	58.0387
20.756	58.0925
20.774	58.1488
20.792	58.2025
20.81	58.2527
20.828	58.2987
20.846	58.3379
20.864	58.3711
20.882	58.3985
20.9	58.4192
20.918	58.4359
20.936	58.4499
20.954	58.4616
20.972	58.4763
20.99	58.4925
21.008	58.515
21.026	58.5457
21.044	58.5848
21.062	58.6363
21.08	58.6992
21.098	58.7745
21.116	58.8632
21.134	58.9637
21.152	59.0743
21.17	59.1956
21.188	59.3228
21.206	59.4561
21.224	59.5927
21.242	59.7275
21.26	59.8621
21.278	59.9907
21.296	60.1126
21.314	60.2268
21.332	60.3293
21.35	60.4211
21.368	60.5008
21.386	60.5675
21.404	60.622
21.422	60.6647
21.44	60.6953
21.458	60.7157
21.476	60.7265
21.494	60.7281
21.512	60.7233
21.53	60.7114
21.548	60.6942
21.566	60.6734
21.584	60.6484
21.602	60.6209
21.62	60.5908
21.638	60.5589
21.656	60.5261
21.674	60.4921
21.692	60.4574
21.71	60.4219
21.728	60.3858
21.746	60.35
21.764	60.3143
21.782	60.2787
21.8	60.2432
21.818	60.2078
21.836	60.1735
21.854	60.1406
21.872	60.1089
21.89	60.0784
21.908	60.0492
21.926	60.0207
21.944	59.9926
21.962	59.965
21.98	59.9358
21.998	59.9055
22.016	59.8729
22.034	59.8354
22.052	59.7939
22.07	59.7465
22.088	59.6915
22.106	59.6298
22.124	59.5598
22.142	59.4806
22.16	59.3931
22.178	59.2977
22.196	59.1937
22.214	59.0831
22.232	58.968
22.25	58.8468
22.268	58.7242
22.286	58.6023
22.304	58.4799
22.322	58.3635
22.34	58.2535
22.358	58.1504
22.376	58.0593
22.394	57.9795
22.412	57.9118
22.43	57.8588
22.448	57.8199
22.466	57.7942
22.484	57.782
22.502	57.7835
22.52	57.795
22.538	57.8159
22.556	57.8463
22.574	57.8793
22.592	57.9152
22.61	57.9527
22.628	57.9841
22.646	58.0106
22.664	58.0304
22.682	58.0379
22.7	58.0344
22.718	58.0191
22.736	57.9899
22.754	57.9474
22.772	57.892
22.79	57.8236
22.808	57.7415
22.826	57.6495
22.844	57.549
22.862	57.4385
22.88	57.3253
22.898	57.2118
22.916	57.0962
22.934	56.9871
22.952	56.887
22.97	56.7941
22.988	56.7152
23.006	56.6518
23.024	56.6026
23.042	56.5717
23.06	56.5602
23.078	56.5667
23.096	56.5909
23.114	56.634
23.132	56.6944
23.15	56.7683
23.168	56.8569
23.186	56.9586
23.204	57.0684
23.222	57.1878
23.24	57.3149
23.258	57.4437
23.276	57.5756
23.294	57.7091
23.312	57.8383
23.33	57.9639
23.348	58.0854
23.366	58.1984
23.384	58.3027
23.402	58.3989
23.42	58.4852
23.438	58.5612
23.456	58.6274
23.474	58.6837
23.492	58.7296
23.51	58.7658
23.528	58.7931
23.546	58.8119
23.564	58.8219
23.582	58.824
23.6	58.8188
23.618	58.8058
23.636	58.7851
23.654	58.7565
23.672	58.7203
23.69	58.6759
23.708	58.6227
23.726	58.5615
23.744	58.4912
23.762	58.4112
23.78	58.3218
23.798	58.2231
23.816	58.1147
23.834	57.9966
23.852	57.8694
23.87	57.734
23.888	57.5901
23.906	57.438
23.924	57.2787
23.942	57.1126
23.96	56.9392
23.978	56.7582
23.996	56.5696
24.014	56.3735
24.032	56.1697
24.05	55.9585
24.068	55.7404
24.086	55.5136
24.104	55.2774
24.122	55.0346
24.14	54.7801
24.158	54.5073
24.176	54.2205
24.194	53.9161
24.212	53.5848
24.23	53.2258
24.248	52.8414
24.266	52.4238
24.284	51.9677
24.302	51.4774
24.32	50.9504
24.338	50.3841
24.356	49.7788
24.374	49.1361
24.392	48.4572
24.41	47.7374
24.428	46.9816
24.446	46.2013
24.464	45.3987
24.482	44.5681
24.5	43.7266
24.518	42.887
24.536	42.0342
24.554	41.1873
24.572	40.3725
24.59	39.5779
24.608	38.8092
24.626	38.0987
24.644	37.4588
24.662	36.8717
24.68	36.3648
24.698	35.9636
24.716	35.6529
24.734	35.4406
24.752	35.3445
24.77	35.369
24.788	35.5064
24.806	35.7585
24.824	36.1286
24.842	36.6198
24.86	37.2187
24.878	37.9108
24.896	38.7097
24.914	39.605
24.932	40.5643
24.95	41.5755
24.968	42.6617
24.986	43.7818
25.004	44.8937
25.022	46.0231
25.04	47.1556
25.058	48.2448
25.076	49.2726
25.094	50.2661
25.112	51.1903
25.13	52.0092
25.148	52.7381
25.166	53.3746
25.184	53.8972
25.202	54.2934
25.22	54.5742
25.238	54.74
25.256	54.7899
25.274	54.7158
25.292	54.5278
25.31	54.2438
25.328	53.8707
25.346	53.3924
25.364	52.8364
25.382	52.2332
25.4	51.5695
25.418	50.8467
25.436	50.1017
25.454	49.3608
25.472	48.5956
25.49	47.8297
25.508	47.0975
25.526	46.402
25.544	45.7269
25.562	45.1043
25.58	44.5642
25.598	44.0876
25.616	43.6813
25.634	43.3717
25.652	43.1739
25.67	43.0682
25.688	43.0707
25.706	43.2019
25.724	43.4631
25.742	43.8451
25.76	44.3591
25.778	45.0155
25.796	45.81
25.814	46.7406
25.832	47.8096
25.85	49.0203
25.868	50.3752
25.886	51.8633
25.904	53.4727
25.922	55.206
25.94	57.0695
25.958	59.0393
25.976	61.0915
25.994	63.2465
26.012	65.497
26.03	67.802
26.048	70.128
26.066	72.5132
26.084	74.9318
26.102	77.334
26.12	79.6927
26.138	82.0555
26.156	84.3754
26.174	86.5932
26.192	88.6947
26.21	90.7216
26.228	92.622
26.246	94.3408
26.264	95.8859
26.282	97.2794
26.3	98.4727
26.318	99.4179
26.336	100.135
26.354	100.631
26.372	100.873
26.39	100.829
26.408	100.515
26.426	99.9351
26.444	99.0794
26.462	97.9384
26.48	96.5097
26.498	94.8066
26.516	92.8438
26.534	90.6276
26.552	88.1313
26.57	85.3894
26.588	82.4468
26.606	79.3247
26.624	75.9707
26.642	72.442
26.66	68.8093
26.678	65.1029
26.696	61.2518
26.714	57.3288
26.732	53.42
26.75	49.5586
26.768	45.6647
26.786	41.8169
26.804	38.1066
26.822	34.5713
26.84	31.1332
26.858	27.8559
26.876	24.8129
26.894	22.0383
26.912	19.4728
26.93	17.1528
26.948	15.1227
26.966	13.4101
26.984	11.9858
27.002	10.849
27.02	10.0028
27.028	9.752011