File: Bakgrunnsmateriale/MATLAB/FTIR/ftir_data/subBb/Mapping_121/C-4040-8_t55_cm-1.asc
PE IR       SPECTRUM    SPECTRUM    ASCII       PEDS        1.60
  -1
C-1CEE~1.ASC
17/03/27
19:00:04.00
17/03/27
19:00:04.00
tln
$C-4040-8_t0055$<tbV0>[-13.0,-2.6,8.0,0.0,27,1,0]
370
64

2002,4.07
MIRTGS : RIGHTBACK : INTERNAL 2
MIR : ON : INTERNAL 2
OPTKBR

0.200000
8
8.000000
FILLER
RATIO
SPECTRUM
UNLOCKED 256

DOUBLE
64
COMBINED
1
0
0

1.000000
RATIO

1
0
TRUE
51149
0
LEFT NOT FITTED RIGHT NOT FITTED 0
NONE
NONE
15600
12
4.427000
51148
TRUE
1 0 8 72 0 0 0 0

15798

#HDR
-1
-1
#GR
CM-1
%T
2.38419e-05
0.0
5000
-1.000000
4631
8
78.4523
41.6477
#DATA
5000	64.7503
4996	65.03
4992	65.3162
4988	65.5126
4984	65.3808
4980	64.8851
4976	64.5945
4972	64.6438
4968	64.7739
4964	64.9287
4960	65.0664
4956	65.1224
4952	65.0599
4948	64.8655
4944	64.9627
4940	65.2867
4936	65.1528
4932	64.7874
4928	64.7864
4924	65.0648
4920	65.0997
4916	64.8023
4912	64.5486
4908	64.7194
4904	65.2915
4900	65.5845
4896	65.3881
4892	64.8583
4888	64.0421
4884	63.62
4880	63.8441
4876	64.3281
4872	64.9593
4868	65.2894
4864	65.0351
4860	64.7315
4856	64.6147
4852	64.5703
4848	64.7996
4844	65.0068
4840	64.9109
4836	64.8516
4832	64.7913
4828	64.773
4824	64.9148
4820	65.0295
4816	65.1188
4812	65.0762
4808	64.9816
4804	65.1096
4800	65.1277
4796	64.9204
4792	64.7624
4788	64.7697
4784	64.9757
4780	65.0133
4776	64.7142
4772	64.5059
4768	64.6076
4764	64.6832
4760	64.5779
4756	64.59
4752	64.6348
4748	64.5275
4744	64.5063
4740	64.5455
4736	64.4901
4732	64.5041
4728	64.6421
4724	64.7974
4720	64.9558
4716	65.0678
4712	65.1166
4708	65.1838
4704	65.0868
4700	64.8608
4696	64.7406
4692	64.6903
4688	64.8799
4684	65.1307
4680	64.9583
4676	64.6233
4672	64.5308
4668	64.5731
4664	64.5388
4660	64.4626
4656	64.5296
4652	64.7824
4648	65.0447
4644	64.9929
4640	64.8057
4636	64.8053
4632	64.7775
4628	64.8003
4624	64.8536
4620	64.7718
4616	64.6013
4612	64.4282
4608	64.4601
4604	64.6021
4600	64.7734
4596	64.8837
4592	64.8265
4588	64.8881
4584	65.1265
4580	65.0926
4576	64.8678
4572	64.941
4568	65.0136
4564	64.9288
4560	64.8576
4556	64.6372
4552	64.3753
4548	64.3891
4544	64.5582
4540	64.4559
4536	64.4863
4532	64.887
4528	65.0098
4524	65.0469
4520	65.2075
4516	65.2067
4512	65.1463
4508	65.0439
4504	64.8924
4500	64.9122
4496	65.0464
4492	64.9501
4488	64.7935
4484	64.9141
4480	65.0792
4476	65.0857
4472	65.1267
4468	65.2882
4464	65.4221
4460	65.3949
4456	65.3152
4452	65.2302
4448	64.9657
4444	64.8576
4440	65.0728
4436	65.2434
4432	65.2967
4428	65.2966
4424	65.1593
4420	64.8568
4416	64.7213
4412	65.0604
4408	65.6722
4404	66.1563
4400	66.0961
4396	65.8802
4392	65.8115
4388	65.5143
4384	65.166
4380	65.481
4376	65.7494
4372	66.3535
4368	67.0064
4364	63.1803
4360	56.6005
4356	53.1722
4352	61.0457
4348	71.6071
4344	69.4575
4340	64.2063
4336	63.9969
4332	65.6764
4328	66.4304
4324	66.2215
4320	66.2116
4316	66.1069
4312	65.7511
4308	65.5883
4304	65.5601
4300	65.2722
4296	65.1854
4292	65.102
4288	65.0065
4284	65.3007
4280	65.5499
4276	65.5386
4272	65.2946
4268	64.8706
4264	64.8369
4260	65.1314
4256	65.2231
4252	65.1407
4248	64.9861
4244	64.9374
4240	64.9538
4236	64.8359
4232	64.7691
4228	64.8126
4224	64.8999
4220	64.9911
4216	64.985
4212	64.9736
4208	65.1871
4204	65.4077
4200	65.3257
4196	65.2283
4192	65.2801
4188	65.0208
4184	64.6477
4180	64.7928
4176	64.9651
4172	64.77
4168	64.6111
4164	64.7003
4160	64.9298
4156	65.0798
4152	65.0825
4148	64.9984
4144	64.985
4140	65.0564
4136	64.9376
4132	64.7451
4128	64.8296
4124	64.9937
4120	64.9568
4116	64.8377
4112	64.9214
4108	65.1789
4104	65.2393
4100	65.1045
4096	65.0969
4092	65.1502
4088	65.1048
4084	65.1104
4080	65.1756
4076	65.2247
4072	65.2455
4068	65.1941
4064	65.0787
4060	64.9782
4056	64.9719
4052	65.04
4048	65.1122
4044	65.1371
4040	65.1087
4036	65.0338
4032	64.9564
4028	64.943
4024	65.0129
4020	65.1781
4016	65.3008
4012	65.2046
4008	65.0023
4004	64.8871
4000	64.9246
3996	65.0397
3992	65.116
3988	65.0801
3984	64.9734
3980	64.9681
3976	64.9518
3972	64.8062
3968	64.7785
3964	64.9239
3960	65.0907
3956	65.1366
3952	65.0958
3948	65.1145
3944	65.1588
3940	65.1811
3936	65.1551
3932	65.0987
3928	64.9495
3924	64.7635
3920	64.7784
3916	65.0282
3912	65.3053
3908	65.2941
3904	65.0488
3900	64.9666
3896	65.0999
3892	65.1763
3888	65.1954
3884	65.2384
3880	65.2955
3876	65.4165
3872	65.5217
3868	65.5074
3864	65.3639
3860	65.2448
3856	65.2375
3852	65.2115
3848	65.1138
3844	65.0031
3840	65.0091
3836	65.0788
3832	65.0917
3828	65.0769
3824	65.0758
3820	65.0905
3816	65.1117
3812	65.2265
3808	65.3335
3804	65.2305
3800	65.0484
3796	65.0512
3792	65.2096
3788	65.3084
3784	65.2943
3780	65.2524
3776	65.2034
3772	65.1358
3768	65.1505
3764	65.2069
3760	65.1503
3756	65.0788
3752	65.1091
3748	65.196
3744	65.3217
3740	65.3164
3736	65.1432
3732	65.1111
3728	65.2403
3724	65.3147
3720	65.2501
3716	65.1277
3712	65.1428
3708	65.2337
3704	65.1779
3700	65.1058
3696	65.1567
3692	65.2206
3688	65.284
3684	65.2853
3680	65.2117
3676	65.2465
3672	65.3424
3668	65.3623
3664	65.3069
3660	65.2187
3656	65.1801
3652	65.1655
3648	65.1907
3644	65.2554
3640	65.2536
3636	65.1992
3632	65.1345
3628	65.0882
3624	65.0991
3620	65.1551
3616	65.1398
3612	65.0837
3608	65.1151
3604	65.1335
3600	65.1034
3596	65.0931
3592	65.0717
3588	65.0484
3584	65.0751
3580	65.1932
3576	65.3317
3572	65.2972
3568	65.141
3564	65.1504
3560	65.262
3556	65.2249
3552	65.0826
3548	64.987
3544	64.9821
3540	65.0196
3536	65.096
3532	65.1238
3528	65.0286
3524	64.9997
3520	65.08
3516	65.1344
3512	65.1766
3508	65.1999
3504	65.2367
3500	65.3327
3496	65.3496
3492	65.2851
3488	65.2351
3484	65.1787
3480	65.1625
3476	65.1802
3472	65.1357
3468	65.1123
3464	65.1
3460	65.0596
3456	65.1462
3452	65.2721
3448	65.2884
3444	65.2713
3440	65.2318
3436	65.1966
3432	65.2721
3428	65.4126
3424	65.3981
3420	65.1884
3416	65.0707
3412	65.1582
3408	65.3192
3404	65.3942
3400	65.305
3396	65.2335
3392	65.2585
3388	65.2523
3384	65.1961
3380	65.167
3376	65.1798
3372	65.2067
3368	65.2872
3364	65.3715
3360	65.3592
3356	65.2965
3352	65.1934
3348	65.1038
3344	65.1193
3340	65.1718
3336	65.2262
3332	65.3217
3328	65.3897
3324	65.3766
3320	65.3749
3316	65.3293
3312	65.1625
3308	65.0689
3304	65.1054
3300	65.1316
3296	65.1534
3292	65.1301
3288	65.0489
3284	65.0473
3280	65.1102
3276	65.1499
3272	65.2225
3268	65.3113
3264	65.2966
3260	65.2175
3256	65.1838
3252	65.2006
3248	65.1788
3244	65.0819
3240	65.0221
3236	65.095
3232	65.2376
3228	65.2465
3224	65.0713
3220	65.0725
3216	65.2429
3212	65.2663
3208	65.2399
3204	65.1778
3200	65.048
3196	64.9754
3192	64.9873
3188	65.1097
3184	65.2385
3180	65.2205
3176	65.1401
3172	65.1057
3168	65.0549
3164	64.9148
3160	64.8586
3156	65.0248
3152	65.2048
3148	65.2096
3144	65.0643
3140	64.9594
3136	65.0847
3132	65.2318
3128	65.1126
3124	64.9117
3120	64.8863
3116	64.9786
3112	65.0639
3108	65.1701
3104	65.2877
3100	65.3399
3096	65.3532
3092	65.3658
3088	65.3522
3084	65.2653
3080	65.1883
3076	65.1969
3072	65.2029
3068	65.2105
3064	65.2354
3060	65.2206
3056	65.199
3052	65.1873
3048	65.1952
3044	65.2196
3040	65.2652
3036	65.3363
3032	65.3126
3028	65.2553
3024	65.2561
3020	65.2205
3016	65.1793
3012	65.2096
3008	65.2417
3004	65.2146
3000	65.2153
2996	65.2616
2992	65.2137
2988	65.091
2984	65.0753
2980	65.1633
2976	65.2146
2972	65.2187
2968	65.2218
2964	65.2257
2960	65.27
2956	65.3106
2952	65.2751
2948	65.2112
2944	65.1402
2940	65.0986
2936	65.1277
2932	65.0836
2928	64.8937
2924	64.7639
2920	64.7798
2916	64.8914
2912	65.0599
2908	65.2018
2904	65.2882
2900	65.2631
2896	65.1619
2892	65.1498
2888	65.1901
2884	65.169
2880	65.1195
2876	65.134
2872	65.1893
2868	65.1874
2864	65.1685
2860	65.1576
2856	65.0472
2852	64.8766
2848	64.88
2844	65.0684
2840	65.2071
2836	65.2044
2832	65.1231
2828	65.072
2824	65.1361
2820	65.2379
2816	65.2345
2812	65.1671
2808	65.1659
2804	65.2081
2800	65.2515
2796	65.3126
2792	65.3194
2788	65.2068
2784	65.0952
2780	65.1222
2776	65.2152
2772	65.2746
2768	65.3355
2764	65.354
2760	65.2539
2756	65.1769
2752	65.2111
2748	65.2368
2744	65.2391
2740	65.2806
2736	65.3153
2732	65.278
2728	65.2425
2724	65.2761
2720	65.2555
2716	65.1839
2712	65.1903
2708	65.223
2704	65.2302
2700	65.2432
2696	65.2146
2692	65.1166
2688	65.0979
2684	65.2216
2680	65.3132
2676	65.3186
2672	65.3398
2668	65.3676
2664	65.3466
2660	65.2934
2656	65.2547
2652	65.241
2648	65.2369
2644	65.2449
2640	65.311
2636	65.4066
2632	65.4334
2628	65.4188
2624	65.4171
2620	65.3826
2616	65.3337
2612	65.3648
2608	65.3867
2604	65.332
2600	65.3031
2596	65.3335
2592	65.3664
2588	65.3219
2584	65.2617
2580	65.2904
2576	65.3237
2572	65.3029
2568	65.2916
2564	65.3075
2560	65.3221
2556	65.3425
2552	65.3742
2548	65.3831
2544	65.3601
2540	65.3174
2536	65.2437
2532	65.1488
2528	65.0838
2524	65.1343
2520	65.3079
2516	65.415
2512	65.3732
2508	65.3739
2504	65.3938
2500	65.2893
2496	65.1574
2492	65.0855
2488	65.1321
2484	65.2493
2480	65.2937
2476	65.276
2472	65.229
2468	65.192
2464	65.1828
2460	65.2217
2456	65.2875
2452	65.3317
2448	65.3457
2444	65.3277
2440	65.3431
2436	65.3808
2432	65.395
2428	65.417
2424	65.5169
2420	65.5938
2416	65.5067
2412	65.3581
2408	65.3177
2404	65.4314
2400	65.5087
2396	65.4646
2392	65.4024
2388	65.3265
2384	65.2838
2380	65.3186
2376	65.2929
2372	65.2071
2368	65.2053
2364	65.2581
2360	65.3316
2356	65.3839
2352	65.3417
2348	65.275
2344	65.2393
2340	65.2334
2336	65.2761
2332	65.3056
2328	65.2853
2324	65.2527
2320	65.1868
2316	65.1496
2312	65.2064
2308	65.2956
2304	65.3644
2300	65.3326
2296	65.2451
2292	65.2208
2288	65.2427
2284	65.2839
2280	65.3003
2276	65.2656
2272	65.2432
2268	65.2836
2264	65.3402
2260	65.3799
2256	65.4188
2252	65.4335
2248	65.3994
2244	65.3323
2240	65.3094
2236	65.3466
2232	65.38
2228	65.379
2224	65.3531
2220	65.3549
2216	65.3376
2212	65.2678
2208	65.2407
2204	65.2712
2200	65.312
2196	65.3333
2192	65.3489
2188	65.3663
2184	65.3658
2180	65.3747
2176	65.393
2172	65.3909
2168	65.3573
2164	65.3393
2160	65.3785
2156	65.3734
2152	65.3221
2148	65.3508
2144	65.3559
2140	65.2709
2136	65.2383
2132	65.2724
2128	65.3152
2124	65.3217
2120	65.2986
2116	65.278
2112	65.2385
2108	65.2616
2104	65.3674
2100	65.4147
2096	65.408
2092	65.4211
2088	65.3832
2084	65.2576
2080	65.0923
2076	64.9777
2072	65.0861
2068	65.3415
2064	65.4117
2060	65.3219
2056	65.3426
2052	65.4172
2048	65.3665
2044	65.2879
2040	65.2842
2036	65.3037
2032	65.3504
2028	65.3996
2024	65.3811
2020	65.3207
2016	65.2816
2012	65.303
2008	65.3496
2004	65.3884
2000	65.3685
1996	65.2826
1992	65.271
1988	65.3556
1984	65.4096
1980	65.3676
1976	65.3521
1972	65.4048
1968	65.3763
1964	65.3209
1960	65.343
1956	65.3394
1952	65.3161
1948	65.3358
1944	65.3261
1940	65.269
1936	65.2536
1932	65.3046
1928	65.3064
1924	65.2757
1920	65.3049
1916	65.3296
1912	65.3075
1908	65.2957
1904	65.3342
1900	65.3988
1896	65.443
1892	65.4414
1888	65.3717
1884	65.3014
1880	65.3153
1876	65.3379
1872	65.3218
1868	65.3118
1864	65.3403
1860	65.3546
1856	65.2681
1852	65.2061
1848	65.2686
1844	65.3245
1840	65.3257
1836	65.3263
1832	65.3292
1828	65.3219
1824	65.3043
1820	65.3009
1816	65.2965
1812	65.2727
1808	65.2899
1804	65.336
1800	65.3379
1796	65.31
1792	65.2807
1788	65.2572
1784	65.2662
1780	65.313
1776	65.3918
1772	65.4536
1768	65.4051
1764	65.2903
1760	65.216
1756	65.2043
1752	65.2151
1748	65.1945
1744	65.1709
1740	65.1661
1736	65.1209
1732	65.0408
1728	64.9939
1724	65.0385
1720	65.1468
1716	65.2115
1712	65.2132
1708	65.2686
1704	65.3735
1700	65.3682
1696	65.2764
1692	65.2176
1688	65.2395
1684	65.3277
1680	65.3778
1676	65.3327
1672	65.2754
1668	65.2976
1664	65.3162
1660	65.2414
1656	65.2192
1652	65.2801
1648	65.262
1644	65.2086
1640	65.2175
1636	65.239
1632	65.2461
1628	65.253
1624	65.2664
1620	65.3007
1616	65.268
1612	65.1782
1608	65.187
1604	65.2352
1600	65.2164
1596	65.1827
1592	65.1364
1588	65.1507
1584	65.223
1580	65.2605
1576	65.2997
1572	65.311
1568	65.2619
1564	65.1649
1560	65.0799
1556	65.1168
1552	65.1977
1548	65.1612
1544	65.0775
1540	65.0744
1536	65.085
1532	65.1184
1528	65.2113
1524	65.2763
1520	65.2944
1516	65.2649
1512	65.1982
1508	65.1939
1504	65.2868
1500	65.339
1496	65.2524
1492	65.1673
1488	65.2081
1484	65.2739
1480	65.273
1476	65.1877
1472	65.084
1468	65.0465
1464	65.0209
1460	64.9426
1456	64.8814
1452	64.9369
1448	65.0171
1444	65.098
1440	65.2653
1436	65.3036
1432	65.1594
1428	65.0841
1424	65.1435
1420	65.1935
1416	65.1724
1412	65.1402
1408	65.1467
1404	65.1708
1400	65.0991
1396	65.0636
1392	65.1871
1388	65.2862
1384	65.287
1380	65.2307
1376	65.1669
1372	65.1772
1368	65.2087
1364	65.1415
1360	65.0769
1356	65.1325
1352	65.1544
1348	65.092
1344	65.0418
1340	65.0216
1336	65.042
1332	65.0524
1328	65.029
1324	65.0793
1320	65.1895
1316	65.265
1312	65.2568
1308	65.1336
1304	65.0352
1300	65.0277
1296	65.0356
1292	65.0664
1288	65.1311
1284	65.1461
1280	65.0994
1276	65.0897
1272	65.0791
1268	65.062
1264	65.0959
1260	65.1102
1256	65.0672
1252	65.0697
1248	65.1706
1244	65.1947
1240	65.1209
1236	65.0552
1232	64.9309
1228	64.8984
1224	64.9336
1220	64.8601
1216	64.8801
1212	64.9602
1208	64.9797
1204	64.9511
1200	64.8996
1196	65.0196
1192	65.1506
1188	65.0925
1184	65.0634
1180	65.0626
1176	64.8428
1172	64.632
1168	64.8502
1164	65.2054
1160	65.2065
1156	65.0948
1152	65.3031
1148	65.6034
1144	65.521
1140	65.2039
1136	64.9488
1132	64.86
1128	65.0155
1124	65.1135
1120	65.0757
1116	65.0664
1112	64.953
1108	64.8982
1104	65.1
1100	65.1034
1096	64.5989
1092	64.3611
1088	64.8785
1084	65.3927
1080	65.4435
1076	65.2576
1072	65.0225
1068	64.9425
1064	65.0886
1060	65.2399
1056	65.2155
1052	65.0837
1048	64.988
1044	65.0038
1040	65.0624
1036	65.0193
1032	64.9363
1028	64.9557
1024	64.9423
1020	64.8084
1016	64.8316
1012	65.0728
1008	65.1203
1004	64.9475
1000	64.9839
996	 65.0628
992	 64.9587
988	 64.9307
984	 64.978
980	 65.0483
976	 65.0333
972	 64.7764
968	 64.5497
964	 64.6467
960	 64.8783
956	 64.904
952	 64.8058
948	 64.8172
944	 64.8857
940	 64.8818
936	 64.813
932	 64.8256
928	 64.9585
924	 65.0412
920	 65.0227
916	 64.9357
912	 64.8022
908	 64.8358
904	 64.902
900	 64.7202
896	 64.5686
892	 64.6069
888	 64.6888
884	 64.7089
880	 64.6504
876	 64.6114
872	 64.6918
868	 64.8167
864	 64.7668
860	 64.6187
856	 64.5877
852	 64.6914
848	 64.8132
844	 64.768
840	 64.6721
836	 64.6595
832	 64.5877
828	 64.5897
824	 64.7462
820	 64.7094
816	 64.5203
812	 64.4763
808	 64.4831
804	 64.4659
800	 64.5345
796	 64.5723
792	 64.4313
788	 64.3075
784	 64.2896
780	 64.3257
776	 64.4983
772	 64.6514
768	 64.6181
764	 64.5759
760	 64.4589
756	 64.154
752	 64.1906
748	 64.4632
744	 64.2997
740	 64.0891
736	 64.1765
732	 64.1653
728	 63.9552
724	 63.8618
720	 64.1294
716	 64.44
712	 64.3379
708	 64.114
704	 64.1686
700	 64.3197
696	 64.2738
692	 64.0302
688	 63.6782
684	 63.4144
680	 63.4746
676	 63.6006
672	 63.4912
668	 63.346
664	 63.3297
660	 63.4941
656	 63.7541
652	 63.8015
648	 63.5169
644	 63.1313
640	 62.974
636	 62.9192
632	 62.8487
628	 63.0311
624	 63.3312
620	 63.3846
616	 63.409
612	 63.4896
608	 63.3711
604	 63.2128
600	 63.0342
596	 62.838
592	 62.6694
588	 62.4698
584	 62.5508
580	 62.6692
576	 62.5797
572	 62.7503
568	 63.0149
564	 62.8649
560	 62.6089
556	 62.7183
552	 62.8782
548	 62.9603
544	 62.9487
540	 62.7683
536	 62.791
532	 62.7264
528	 62.5364
524	 62.4141
520	 61.8811
516	 61.4162
512	 61.6988
508	 62.2393
504	 62.3665
500	 62.1912
496	 61.7821
492	 61.2864
488	 61.1866
484	 61.0199
480	 60.3851
476	 60.1211
472	 60.4343
468	 60.5155
464	 60.4676
460	 60.977
456	 61.3268
452	 60.0597
448	 59.0058
444	 59.8385
440	 59.6259
436	 58.1995
432	 59.3958
428	 62.1865
424	 62.1689
420	 60.6308
416	 59.5633
412	 59.4913
408	 61.9744
404	 63.3214
400	 64.482
396	 74.4423
392	 76.517
388	 62.3538
384	 60.6079
380	 74.0727
376	 72.804
372	 50.5682
370	 41.6477