File: Bakgrunnsmateriale/MATLAB/FTIR/ftir_data/subBb/Mapping_121/C-4040-8_t36_cm-1.asc
PE IR       SPECTRUM    SPECTRUM    ASCII       PEDS        1.60
  -1
C-1B6E~1.ASC
17/03/27
17:25:27.00
17/03/27
17:25:27.00
tln
$C-4040-8_t0036$<tbV0>[7.8,-5.2,8.0,0.0,27,1,0]
370
64

2002,4.07
MIRTGS : RIGHTBACK : INTERNAL 2
MIR : ON : INTERNAL 2
OPTKBR

0.200000
8
8.000000
FILLER
RATIO
SPECTRUM
UNLOCKED 256

DOUBLE
64
COMBINED
1
0
0

1.000000
RATIO

1
0
TRUE
51149
0
LEFT NOT FITTED RIGHT NOT FITTED 0
NONE
NONE
15600
12
4.427000
51148
TRUE
1 0 8 72 0 0 0 0

15798

#HDR
-1
-1
#GR
CM-1
%T
2.38419e-05
0.0
5000
-1.000000
4631
8
103.776
43.2876
#DATA
5000	64.4344
4996	64.327
4992	64.4983
4988	64.6346
4984	64.2968
4980	63.9164
4976	63.8208
4972	63.6851
4968	63.6582
4964	64.0115
4960	64.5263
4956	64.827
4952	64.8317
4948	64.6394
4944	64.4284
4940	64.4636
4936	64.4299
4932	64.1924
4928	64.1935
4924	64.2659
4920	64.1968
4916	64.2694
4912	64.44
4908	64.5041
4904	64.5244
4900	64.7192
4896	64.7533
4892	64.2876
4888	63.9405
4884	64.0739
4880	64.2799
4876	64.3461
4872	64.4526
4868	64.7398
4864	64.7973
4860	64.3754
4856	64.1683
4852	64.2471
4848	64.2287
4844	64.201
4840	64.2212
4836	64.2977
4832	64.2976
4828	64.3363
4824	64.5071
4820	64.5358
4816	64.5006
4812	64.4578
4808	64.2022
4804	63.9749
4800	64.0774
4796	64.3891
4792	64.5207
4788	64.3863
4784	64.3939
4780	64.4322
4776	64.2544
4772	64.179
4768	64.2993
4764	64.3403
4760	64.3396
4756	64.4719
4752	64.545
4748	64.53
4744	64.4968
4740	64.3527
4736	64.3155
4732	64.3918
4728	64.3807
4724	64.3639
4720	64.3795
4716	64.3893
4712	64.3286
4708	64.2937
4704	64.3704
4700	64.4468
4696	64.5546
4692	64.63
4688	64.6009
4684	64.4413
4680	64.2007
4676	64.1396
4672	64.1945
4668	64.2579
4664	64.4499
4660	64.7606
4656	64.9573
4652	64.7779
4648	64.4471
4644	64.3117
4640	64.3562
4636	64.354
4632	64.1829
4628	64.0669
4624	64.133
4620	64.3448
4616	64.5842
4612	64.6049
4608	64.4782
4604	64.4503
4600	64.4006
4596	64.3568
4592	64.486
4588	64.4591
4584	64.199
4580	64.0779
4576	64.0418
4572	64.0083
4568	64.2262
4564	64.5215
4560	64.4978
4556	64.2587
4552	64.1915
4548	64.3436
4544	64.2791
4540	63.8422
4536	63.6228
4532	63.8568
4528	64.0216
4524	64.0986
4520	64.2821
4516	64.1653
4512	63.8893
4508	63.9001
4504	63.9105
4500	63.7923
4496	63.9406
4492	64.2169
4488	64.2559
4484	64.2353
4480	64.1954
4476	63.9902
4472	63.7311
4468	63.7698
4464	64.0557
4460	64.1927
4456	64.1862
4452	64.0188
4448	63.8404
4444	63.8218
4440	63.8758
4436	64.0834
4432	64.186
4428	63.9343
4424	63.6693
4420	63.7223
4416	63.8662
4412	63.8728
4408	63.8378
4404	63.9906
4400	64.1606
4396	64.4645
4392	64.7608
4388	65.4401
4384	64.89
4380	62.8114
4376	63.53
4372	64.4847
4368	64.117
4364	64.9215
4360	68.8425
4356	72.6476
4352	69.5909
4348	65.2999
4344	64.4526
4340	64.2003
4336	63.6203
4332	63.2277
4328	63.5309
4324	64.1343
4320	64.46
4316	64.4939
4312	64.2944
4308	63.9943
4304	63.9685
4300	64.0494
4296	64.0736
4292	64.0483
4288	63.9798
4284	63.967
4280	64.1554
4276	64.4113
4272	64.2054
4268	63.7398
4264	63.9051
4260	64.3217
4256	64.1768
4252	63.955
4248	64.029
4244	63.9874
4240	63.9588
4236	64.1784
4232	64.3119
4228	64.2557
4224	64.2477
4220	64.3168
4216	64.1924
4212	64.0549
4208	64.2066
4204	64.3318
4200	64.2403
4196	64.307
4192	64.5168
4188	64.3091
4184	63.9041
4180	63.94
4176	64.3634
4172	64.4597
4168	64.1406
4164	64.1006
4160	64.1987
4156	64.1515
4152	64.1048
4148	64.1185
4144	64.1724
4140	64.1443
4136	64.1315
4132	64.156
4128	64.1141
4124	64.0933
4120	64.0211
4116	63.9531
4112	63.9166
4108	63.7969
4104	63.7831
4100	63.9138
4096	64.063
4092	64.1577
4088	64.1182
4084	64.1296
4080	64.2404
4076	64.245
4072	64.1148
4068	64.038
4064	64.1496
4060	64.271
4056	64.3018
4052	64.3416
4048	64.4324
4044	64.4821
4040	64.3291
4036	64.1194
4032	64.0873
4028	64.0853
4024	64.0108
4020	64.0645
4016	64.2886
4012	64.3204
4008	64.0171
4004	63.7357
4000	63.7383
3996	63.9375
3992	64.1106
3988	64.1371
3984	64.0974
3980	64.104
3976	64.0798
3972	64.1004
3968	64.2596
3964	64.2813
3960	64.1095
3956	63.9945
3952	63.9872
3948	63.9859
3944	63.9712
3940	63.9924
3936	64.0463
3932	64.041
3928	63.9903
3924	63.9914
3920	63.9118
3916	63.7925
3912	63.8407
3908	63.9818
3904	64.0902
3900	64.1429
3896	64.2127
3892	64.3587
3888	64.4473
3884	64.337
3880	64.1906
3876	64.0833
3872	63.9308
3868	63.9181
3864	64.0693
3860	64.1001
3856	64.0611
3852	64.0192
3848	63.8725
3844	63.838
3840	63.9922
3836	64.1546
3832	64.2033
3828	64.2055
3824	64.1974
3820	64.0446
3816	63.9165
3812	63.964
3808	63.9942
3804	63.9403
3800	63.9005
3796	63.8654
3792	63.7835
3788	63.7028
3784	63.7386
3780	63.8144
3776	63.7852
3772	63.7623
3768	63.8391
3764	63.9484
3760	64.0374
3756	64.0608
3752	64.0058
3748	63.9263
3744	63.8607
3740	63.8665
3736	63.9344
3732	64.0138
3728	64.143
3724	64.252
3720	64.202
3716	64.0833
3712	63.9143
3708	63.658
3704	63.6425
3700	63.9321
3696	64.0889
3692	64.0268
3688	64.0023
3684	64.0025
3680	63.9361
3676	63.8368
3672	63.7501
3668	63.7108
3664	63.6973
3660	63.7386
3656	63.7741
3652	63.7897
3648	63.8463
3644	63.8128
3640	63.7262
3636	63.758
3632	63.8764
3628	63.909
3624	63.8356
3620	63.8098
3616	63.8327
3612	63.8365
3608	63.8173
3604	63.7676
3600	63.7355
3596	63.7605
3592	63.7742
3588	63.7644
3584	63.7643
3580	63.7525
3576	63.7694
3572	63.8129
3568	63.7713
3564	63.6698
3560	63.6081
3556	63.6293
3552	63.6558
3548	63.5731
3544	63.4612
3540	63.4362
3536	63.4819
3532	63.6139
3528	63.7899
3524	63.8326
3520	63.7974
3516	63.8314
3512	63.8298
3508	63.7621
3504	63.7295
3500	63.6891
3496	63.6108
3492	63.5827
3488	63.6621
3484	63.7624
3480	63.6618
3476	63.5059
3472	63.5593
3468	63.69
3464	63.6986
3460	63.6476
3456	63.7086
3452	63.7633
3448	63.713
3444	63.6857
3440	63.7044
3436	63.6457
3432	63.5489
3428	63.5576
3424	63.5584
3420	63.5067
3416	63.4961
3412	63.5019
3408	63.4337
3404	63.317
3400	63.3589
3396	63.5549
3392	63.6118
3388	63.4942
3384	63.4379
3380	63.3883
3376	63.3064
3372	63.3713
3368	63.5024
3364	63.4925
3360	63.366
3356	63.3639
3352	63.4356
3348	63.395
3344	63.423
3340	63.5894
3336	63.6525
3332	63.5448
3328	63.4612
3324	63.451
3320	63.4337
3316	63.4097
3312	63.3407
3308	63.2915
3304	63.3318
3300	63.3586
3296	63.3305
3292	63.279
3288	63.1954
3284	63.1748
3280	63.3323
3276	63.4871
3272	63.4773
3268	63.4346
3264	63.4856
3260	63.5255
3256	63.4496
3252	63.4068
3248	63.4226
3244	63.3513
3240	63.2199
3236	63.1766
3232	63.2158
3228	63.2215
3224	63.1985
3220	63.1581
3216	63.0893
3212	63.0962
3208	63.2024
3204	63.2392
3200	63.2418
3196	63.2575
3192	63.1848
3188	63.127
3184	63.1745
3180	63.2164
3176	63.1098
3172	62.9375
3168	62.9153
3164	63.0073
3160	63.0701
3156	63.0481
3152	63.0121
3148	63.0517
3144	63.0982
3140	63.1047
3136	63.0392
3132	62.8932
3128	62.7223
3124	62.6647
3120	62.8909
3116	63.2117
3112	63.3462
3108	63.269
3104	63.1314
3100	63.0708
3096	63.0207
3092	62.9731
3088	62.9544
3084	62.9529
3080	63.0284
3076	63.1075
3072	63.1073
3068	63.0296
3064	62.9617
3060	62.9556
3056	62.9384
3052	62.8661
3048	62.7699
3044	62.739
3040	62.7825
3036	62.8749
3032	62.9027
3028	62.8143
3024	62.733
3020	62.7149
3016	62.7407
3012	62.7657
3008	62.7724
3004	62.76
3000	62.7735
2996	62.8214
2992	62.8266
2988	62.7928
2984	62.7948
2980	62.814
2976	62.792
2972	62.7517
2968	62.6926
2964	62.6073
2960	62.5946
2956	62.6403
2952	62.6332
2948	62.6622
2944	62.7407
2940	62.7092
2936	62.5736
2932	62.4327
2928	62.3474
2924	62.2691
2920	62.1845
2916	62.23
2912	62.3578
2908	62.4422
2904	62.4778
2900	62.4837
2896	62.4803
2892	62.464
2888	62.4501
2884	62.4491
2880	62.4178
2876	62.4285
2872	62.529
2868	62.5907
2864	62.5611
2860	62.5063
2856	62.4576
2852	62.4867
2848	62.5799
2844	62.6302
2840	62.6232
2836	62.5311
2832	62.4212
2828	62.3857
2824	62.409
2820	62.4472
2816	62.4749
2812	62.535
2808	62.5835
2804	62.5561
2800	62.5366
2796	62.5448
2792	62.494
2788	62.4248
2784	62.4032
2780	62.3674
2776	62.3343
2772	62.3528
2768	62.3875
2764	62.4099
2760	62.4367
2756	62.4168
2752	62.3172
2748	62.2857
2744	62.3636
2740	62.3716
2736	62.2881
2732	62.2542
2728	62.2938
2724	62.3076
2720	62.2892
2716	62.2799
2712	62.2444
2708	62.2251
2704	62.2393
2700	62.2802
2696	62.3798
2692	62.3823
2688	62.2246
2684	62.1151
2680	62.1056
2676	62.1324
2672	62.1794
2668	62.1581
2664	62.097
2660	62.0535
2656	62.0353
2652	62.06
2648	62.0604
2644	62.0801
2640	62.1114
2636	62.1001
2632	62.101
2628	62.0814
2624	62.0185
2620	61.9692
2616	61.9701
2612	61.9675
2608	61.9337
2604	61.9021
2600	61.8737
2596	61.9038
2592	61.983
2588	61.9761
2584	61.8583
2580	61.7638
2576	61.8073
2572	61.8955
2568	61.8804
2564	61.8068
2560	61.7846
2556	61.82
2552	61.8453
2548	61.8596
2544	61.857
2540	61.7866
2536	61.7478
2532	61.8407
2528	61.9112
2524	61.8422
2520	61.7773
2516	61.7937
2512	61.7935
2508	61.7341
2504	61.7213
2500	61.7838
2496	61.7354
2492	61.608
2488	61.6026
2484	61.6382
2480	61.655
2476	61.659
2472	61.6395
2468	61.6255
2464	61.5769
2460	61.5515
2456	61.571
2452	61.5984
2448	61.6398
2444	61.5632
2440	61.3925
2436	61.3972
2432	61.4917
2428	61.3737
2424	61.226
2420	61.3556
2416	61.5215
2412	61.3934
2408	61.1682
2404	61.2061
2400	61.3921
2396	61.4491
2392	61.4331
2388	61.4107
2384	61.3736
2380	61.3363
2376	61.2933
2372	61.3057
2368	61.3402
2364	61.3043
2360	61.2531
2356	61.2377
2352	61.2452
2348	61.2669
2344	61.256
2340	61.1428
2336	61.0332
2332	61.0626
2328	61.1331
2324	61.1403
2320	61.1068
2316	61.0971
2312	61.1505
2308	61.2077
2304	61.1658
2300	61.0744
2296	61.0651
2292	61.1115
2288	61.1108
2284	61.0802
2280	61.0622
2276	61.0348
2272	61.0266
2268	61.0384
2264	61.0135
2260	60.9833
2256	61.0006
2252	61.0508
2248	61.044
2244	60.9436
2240	60.867
2236	60.8557
2232	60.8429
2228	60.8145
2224	60.7947
2220	60.7839
2216	60.7647
2212	60.7772
2208	60.8429
2204	60.8911
2200	60.8556
2196	60.813
2192	60.8223
2188	60.8
2184	60.783
2180	60.791
2176	60.736
2172	60.6763
2168	60.6279
2164	60.5847
2160	60.5678
2156	60.5179
2152	60.4886
2148	60.5297
2144	60.5704
2140	60.5797
2136	60.5897
2132	60.62
2128	60.6191
2124	60.588
2120	60.5937
2116	60.6213
2112	60.5963
2108	60.5227
2104	60.4965
2100	60.5112
2096	60.5093
2092	60.546
2088	60.6323
2084	60.6966
2080	60.6665
2076	60.4767
2072	60.2896
2068	60.3275
2064	60.3881
2060	60.2777
2056	60.1835
2052	60.2458
2048	60.3556
2044	60.3497
2040	60.2734
2036	60.2509
2032	60.2529
2028	60.2358
2024	60.2323
2020	60.2413
2016	60.2403
2012	60.2506
2008	60.2643
2004	60.2432
2000	60.2
1996	60.1845
1992	60.2009
1988	60.1921
1984	60.1603
1980	60.15
1976	60.1569
1972	60.1646
1968	60.1244
1964	60.071
1960	60.0881
1956	60.0842
1952	60.0144
1948	59.9705
1944	59.9534
1940	59.9268
1936	59.9296
1932	59.9851
1928	60.0188
1924	59.9934
1920	59.9601
1916	59.9631
1912	59.9614
1908	59.8695
1904	59.7918
1900	59.816
1896	59.8382
1892	59.8053
1888	59.747
1884	59.755
1880	59.8253
1876	59.8373
1872	59.8119
1868	59.8105
1864	59.7613
1860	59.6951
1856	59.7088
1852	59.7559
1848	59.8198
1844	59.8483
1840	59.7596
1836	59.6844
1832	59.6875
1828	59.6537
1824	59.5686
1820	59.5011
1816	59.4897
1812	59.5352
1808	59.5496
1804	59.5075
1800	59.5008
1796	59.4963
1792	59.4523
1788	59.4402
1784	59.4374
1780	59.4116
1776	59.3843
1772	59.3723
1768	59.393
1764	59.419
1760	59.4145
1756	59.4138
1752	59.4451
1748	59.4484
1744	59.3833
1740	59.3041
1736	59.2522
1732	59.1605
1728	59.0587
1724	59.0992
1720	59.2041
1716	59.2084
1712	59.1617
1708	59.1808
1704	59.2458
1700	59.2268
1696	59.1503
1692	59.1337
1688	59.1047
1684	59.053
1680	59.095
1676	59.1305
1672	59.067
1668	58.9956
1664	58.9544
1660	58.9763
1656	59.0183
1652	59.0172
1648	59.0248
1644	58.9775
1640	58.8784
1636	58.8827
1632	58.9137
1628	58.8369
1624	58.7355
1620	58.6636
1616	58.6444
1612	58.7248
1608	58.8091
1604	58.8052
1600	58.779
1596	58.7832
1592	58.7865
1588	58.7988
1584	58.8356
1580	58.8328
1576	58.7179
1572	58.5997
1568	58.599
1564	58.6287
1560	58.6442
1556	58.675
1552	58.6514
1548	58.5992
1544	58.5566
1540	58.4712
1536	58.4423
1532	58.5293
1528	58.6192
1524	58.6079
1520	58.5651
1516	58.5968
1512	58.7116
1508	58.8236
1504	58.7523
1500	58.5932
1496	58.5692
1492	58.5751
1488	58.5329
1484	58.5585
1480	58.5764
1476	58.4753
1472	58.3582
1468	58.2292
1464	58.0939
1460	58.2305
1456	58.5182
1452	58.5767
1448	58.4705
1444	58.3621
1440	58.3265
1436	58.3727
1432	58.2956
1428	58.1427
1424	58.1762
1420	58.212
1416	58.1329
1412	58.13
1408	58.0986
1404	57.9878
1400	57.9585
1396	57.9971
1392	58.0522
1388	58.0966
1384	58.0751
1380	58.0226
1376	57.9741
1372	57.8862
1368	57.808
1364	57.8422
1360	57.9258
1356	57.9463
1352	57.9371
1348	57.8956
1344	57.8315
1340	57.8552
1336	57.9341
1332	57.9324
1328	57.8627
1324	57.8234
1320	57.8124
1316	57.817
1312	57.8581
1308	57.8957
1304	57.8584
1300	57.7852
1296	57.7886
1292	57.7942
1288	57.7427
1284	57.7567
1280	57.8184
1276	57.7863
1272	57.6926
1268	57.7016
1264	57.7937
1260	57.8451
1256	57.8177
1252	57.7602
1248	57.7658
1244	57.8022
1240	57.7397
1236	57.5819
1232	57.5181
1228	57.5901
1224	57.6005
1220	57.5194
1216	57.4723
1212	57.4536
1208	57.3953
1204	57.3653
1200	57.3983
1196	57.4346
1192	57.4396
1188	57.3641
1184	57.3137
1180	57.3931
1176	57.4612
1172	57.4541
1168	57.3892
1164	57.2993
1160	57.2846
1156	57.3191
1152	57.309
1148	57.2521
1144	57.1551
1140	57.137
1136	57.3246
1132	57.4914
1128	57.3151
1124	56.9653
1120	56.8456
1116	56.9707
1112	57.1279
1108	57.151
1104	57.0108
1100	56.9825
1096	57.2292
1092	57.4817
1088	57.6291
1084	57.575
1080	57.3028
1076	57.0472
1072	56.8848
1068	56.8238
1064	56.8592
1060	56.9139
1056	56.874
1052	56.8587
1048	57.0606
1044	57.299
1040	57.3025
1036	57.1439
1032	57.0065
1028	56.9227
1024	56.948
1020	57.014
1016	56.9954
1012	56.9657
1008	56.8354
1004	56.649
1000	56.6063
996	 56.5749
992	 56.6729
988	 57.0062
984	 57.0548
980	 56.7482
976	 56.6594
972	 56.7962
968	 56.7439
964	 56.5182
960	 56.4562
956	 56.578
952	 56.6982
948	 56.7853
944	 56.7529
940	 56.6134
936	 56.5873
932	 56.6387
928	 56.5883
924	 56.5594
920	 56.6953
916	 56.8019
912	 56.6304
908	 56.3892
904	 56.4263
900	 56.478
896	 56.4216
892	 56.4472
888	 56.4614
884	 56.5037
880	 56.5769
876	 56.4938
872	 56.2954
868	 56.1857
864	 56.2062
860	 56.2072
856	 56.17
852	 56.2031
848	 56.2691
844	 56.1697
840	 55.8821
836	 55.778
832	 55.9428
828	 56.028
824	 55.97
820	 55.8655
816	 55.7915
812	 55.8225
808	 55.8854
804	 55.8922
800	 55.8441
796	 55.8755
792	 56.0664
788	 56.1314
784	 55.917
780	 55.76
776	 55.7087
772	 55.5584
768	 55.3969
764	 55.4575
760	 55.6416
756	 55.5779
752	 55.3616
748	 55.2521
744	 55.3411
740	 55.6323
736	 55.7561
732	 55.6093
728	 55.4403
724	 55.4348
720	 55.5914
716	 55.5457
712	 55.3643
708	 55.4029
704	 55.5487
700	 55.4946
696	 55.2509
692	 55.1909
688	 55.2757
684	 55.1788
680	 55.0596
676	 54.9221
672	 54.7577
668	 54.7603
664	 54.8293
660	 55.0157
656	 55.1476
652	 54.8975
648	 54.6313
644	 54.5061
640	 54.3437
636	 54.498
632	 54.7867
628	 54.621
624	 54.4723
620	 54.5483
616	 54.4147
612	 54.4158
608	 54.701
604	 54.7307
600	 54.4057
596	 54.0653
592	 54.0216
588	 54.1705
584	 54.0874
580	 53.8885
576	 53.7219
572	 53.5907
568	 53.8506
564	 54.0955
560	 53.9257
556	 53.6837
552	 53.3977
548	 53.2613
544	 53.4558
540	 53.5707
536	 53.5435
532	 53.3994
528	 53.1707
524	 53.3293
520	 53.7129
516	 53.7072
512	 53.6584
508	 53.9055
504	 53.8882
500	 53.3818
496	 52.9281
492	 53.0595
488	 53.3411
484	 53.3453
480	 53.502
476	 53.5832
472	 53.1493
468	 52.983
464	 53.2372
460	 52.5255
456	 51.2712
452	 51.4687
448	 52.3126
444	 52.0246
440	 51.1914
436	 51.1217
432	 51.7559
428	 51.2219
424	 50.2339
420	 49.6332
416	 47.0511
412	 43.5904
408	 44.5331
404	 46.5638
400	 44.1625
396	 46.6955
392	 60.5756
388	 76.931
384	 86.8363
380	 95.7318
376	 103.677
372	 75.1457
370	 56.5584