File: Bakgrunnsmateriale/MATLAB/FTIR/ftir_data/subBb/Mapping_121/C-4040-8_t44_cm-1.asc
PE IR       SPECTRUM    SPECTRUM    ASCII       PEDS        1.60
  -1
C-9B6F~1.ASC
17/03/27
18:02:21.00
17/03/27
18:02:21.00
tln
$C-4040-8_t0044$<tbV0>[-13.0,-5.2,8.0,0.0,27,1,0]
370
64

2002,4.07
MIRTGS : RIGHTBACK : INTERNAL 2
MIR : ON : INTERNAL 2
OPTKBR

0.200000
8
8.000000
FILLER
RATIO
SPECTRUM
UNLOCKED 256

DOUBLE
64
COMBINED
1
0
0

1.000000
RATIO

1
0
TRUE
51149
0
LEFT NOT FITTED RIGHT NOT FITTED 0
NONE
NONE
15600
12
4.427000
51148
TRUE
1 0 8 72 0 0 0 0

15798

#HDR
-1
-1
#GR
CM-1
%T
2.38419e-05
0.0
5000
-1.000000
4631
8
77.6596
26.1243
#DATA
5000	64.718
4996	64.7067
4992	65.0436
4988	64.755
4984	64.2763
4980	64.5122
4976	65.1563
4972	65.3373
4968	65.0281
4964	64.8987
4960	64.9831
4956	65.0204
4952	65.1168
4948	65.1929
4944	65.0827
4940	64.9606
4936	64.8528
4932	64.5815
4928	64.3631
4924	64.4247
4920	64.6432
4916	64.8252
4912	64.9041
4908	65.0033
4904	65.0775
4900	65.2546
4896	65.4049
4892	65.0287
4888	64.7627
4884	65.1458
4880	65.4329
4876	65.386
4872	65.4465
4868	65.454
4864	65.2058
4860	64.9364
4856	64.6413
4852	64.5068
4848	64.828
4844	65.0203
4840	64.8615
4836	64.8554
4832	65.043
4828	65.2335
4824	65.1415
4820	64.8396
4816	64.8514
4812	65.1229
4808	65.1317
4804	64.9435
4800	64.968
4796	65.0953
4792	65.0103
4788	64.8236
4784	64.8514
4780	64.9583
4776	64.9044
4772	64.7393
4768	64.6261
4764	64.6947
4760	64.8937
4756	65.1803
4752	65.327
4748	65.1988
4744	65.1804
4740	65.3162
4736	65.2922
4732	65.0592
4728	64.7973
4724	64.7505
4720	64.9937
4716	65.296
4712	65.3264
4708	65.2086
4704	65.1064
4700	64.871
4696	64.7364
4692	64.7765
4688	64.7062
4684	64.6968
4680	64.8459
4676	64.9333
4672	64.8949
4668	64.7968
4664	64.8065
4660	64.928
4656	65.0532
4652	65.153
4648	65.1318
4644	64.9828
4640	64.8546
4636	64.8504
4632	64.8584
4628	64.817
4624	64.8298
4620	64.9405
4616	64.9772
4612	64.7608
4608	64.3865
4604	64.3075
4600	64.6778
4596	65.0112
4592	65.1805
4588	65.2086
4584	65.0124
4580	64.9017
4576	64.9768
4572	64.8864
4568	64.8126
4564	65.0707
4560	65.2526
4556	65.1674
4552	65.1394
4548	65.2623
4544	65.1788
4540	64.9023
4536	64.9911
4532	65.3993
4528	65.5654
4524	65.1706
4520	64.6384
4516	64.4781
4512	64.6838
4508	64.9412
4504	64.9227
4500	64.9279
4496	65.0038
4492	64.9536
4488	64.9556
4484	64.908
4480	64.8988
4476	65.1046
4472	65.1142
4468	64.8336
4464	64.8586
4460	65.2927
4456	65.5203
4452	65.3592
4448	65.311
4444	65.457
4440	65.4959
4436	65.4113
4432	65.1063
4428	64.7034
4424	64.4824
4420	64.4703
4416	64.6352
4412	64.8597
4408	65.0627
4404	65.3966
4400	65.7183
4396	65.7638
4392	65.3902
4388	65.9676
4384	65.8295
4380	64.4851
4376	66.6125
4372	68.0044
4368	63.5764
4364	57.0495
4360	60.2813
4356	67.5345
4352	64.7453
4348	63.4033
4344	65.6901
4340	65.1556
4336	64.7008
4332	64.659
4328	64.8646
4324	65.2024
4320	65.2918
4316	65.169
4312	65.0303
4308	64.8512
4304	64.941
4300	65.3167
4296	65.4874
4292	65.4026
4288	65.2483
4284	65.2324
4280	65.2344
4276	65.1072
4272	65.1293
4268	65.3131
4264	65.3335
4260	65.0061
4256	64.6557
4252	64.69
4248	64.781
4244	64.5944
4240	64.5368
4236	64.8438
4232	65.164
4228	65.1442
4224	64.9275
4220	64.9097
4216	64.9983
4212	65.0261
4208	65.0625
4204	65.0854
4200	65.0797
4196	64.9856
4192	65.221
4188	65.6569
4184	65.1293
4180	64.0832
4176	63.8075
4172	64.2398
4168	64.7188
4164	64.9324
4160	64.969
4156	65.0269
4152	65.2447
4148	65.4801
4144	65.5307
4140	65.4836
4136	65.41
4132	65.3612
4128	65.3443
4124	65.2548
4120	65.1184
4116	64.9788
4112	64.7722
4108	64.7029
4104	64.9318
4100	65.1589
4096	65.245
4092	65.206
4088	65.0368
4084	65.0281
4080	65.1375
4076	65.1154
4072	65.1195
4068	65.1681
4064	65.0799
4060	64.8879
4056	64.7836
4052	64.8879
4048	65.0634
4044	65.1249
4040	65.0485
4036	64.9133
4032	64.9543
4028	65.1363
4024	65.1769
4020	65.1716
4016	65.2051
4012	65.1749
4008	65.0737
4004	65.0088
4000	65.0212
3996	64.9746
3992	64.9612
3988	65.0028
3984	64.9238
3980	64.8783
3976	64.9957
3972	65.1549
3968	65.2178
3964	65.1684
3960	65.1771
3956	65.1953
3952	65.0452
3948	64.8691
3944	64.8362
3940	64.8818
3936	64.9014
3932	64.9933
3928	65.1871
3924	65.2657
3920	65.1701
3916	65.0407
3912	64.9406
3908	64.9427
3904	65.1156
3900	65.1889
3896	65.1057
3892	65.1546
3888	65.2719
3884	65.2848
3880	65.2809
3876	65.3251
3872	65.249
3868	65.0563
3864	65.0192
3860	65.0795
3856	65.0681
3852	65.0691
3848	65.0378
3844	65.0089
3840	65.0523
3836	64.9729
3832	64.8797
3828	65.0739
3824	65.2605
3820	65.1362
3816	65.0464
3812	65.1222
3808	65.173
3804	65.2067
3800	65.1979
3796	65.1305
3792	65.1018
3788	65.1283
3784	65.1964
3780	65.2088
3776	65.0708
3772	64.99
3768	65.0964
3764	65.1447
3760	65.115
3756	65.1894
3752	65.2312
3748	65.17
3744	65.1723
3740	65.1856
3736	65.1059
3732	65.0874
3728	65.2183
3724	65.3488
3720	65.3286
3716	65.1845
3712	65.0879
3708	65.1016
3704	65.1318
3700	65.1166
3696	65.0409
3692	64.9648
3688	65.0058
3684	65.1289
3680	65.1431
3676	65.0647
3672	65.0816
3668	65.0927
3664	64.943
3660	64.851
3656	64.993
3652	65.1792
3648	65.2582
3644	65.2326
3640	65.1323
3636	65.0679
3632	65.1348
3628	65.2371
3624	65.2466
3620	65.1676
3616	65.0992
3612	65.096
3608	65.0597
3604	64.958
3600	64.9446
3596	65.076
3592	65.1394
3588	65.0642
3584	65.0347
3580	65.0818
3576	65.0895
3572	65.1062
3568	65.1236
3564	65.068
3560	65.1049
3556	65.2332
3552	65.284
3548	65.2323
3544	65.1141
3540	65.0771
3536	65.117
3532	65.0696
3528	65.0286
3524	65.1343
3520	65.3235
3516	65.4231
3512	65.3798
3508	65.31
3504	65.2844
3500	65.3284
3496	65.3541
3492	65.2357
3488	65.0788
3484	65.0438
3480	65.0354
3476	65.0771
3472	65.1749
3468	65.1478
3464	65.1045
3460	65.1944
3456	65.3068
3452	65.3064
3448	65.2507
3444	65.2708
3440	65.3658
3436	65.4153
3432	65.3808
3428	65.2814
3424	65.1202
3420	65.0601
3416	65.1854
3412	65.2771
3408	65.1732
3404	65.0175
3400	64.9764
3396	65.0807
3392	65.2127
3388	65.2436
3384	65.2484
3380	65.233
3376	65.1772
3372	65.2131
3368	65.2967
3364	65.2972
3360	65.2872
3356	65.318
3352	65.284
3348	65.2126
3344	65.2164
3340	65.2204
3336	65.1907
3332	65.159
3328	65.1237
3324	65.1703
3320	65.2222
3316	65.1267
3312	65.0323
3308	65.1258
3304	65.2369
3300	65.2301
3296	65.1528
3292	65.0803
3288	65.1186
3284	65.1161
3280	65.0401
3276	65.0718
3272	65.1325
3268	65.1692
3264	65.1565
3260	65.0701
3256	65.1512
3252	65.3793
3248	65.432
3244	65.4186
3240	65.4577
3236	65.4068
3232	65.3014
3228	65.2418
3224	65.2652
3220	65.2376
3216	65.0496
3212	64.9092
3208	64.9634
3204	65.1019
3200	65.2426
3196	65.3249
3192	65.2721
3188	65.2024
3184	65.2798
3180	65.3589
3176	65.2449
3172	65.1365
3168	65.1866
3164	65.1452
3160	65.0024
3156	65.0301
3152	65.1752
3148	65.2505
3144	65.2142
3140	65.1312
3136	65.1527
3132	65.3439
3128	65.5042
3124	65.4504
3120	65.3042
3116	65.2146
3112	65.1853
3108	65.1262
3104	65.0417
3100	65.0362
3096	65.1248
3092	65.2925
3088	65.3878
3084	65.3142
3080	65.2893
3076	65.3517
3072	65.3498
3068	65.2605
3064	65.1745
3060	65.1603
3056	65.1293
3052	65.0783
3048	65.0773
3044	65.123
3040	65.2272
3036	65.3035
3032	65.243
3028	65.1254
3024	65.0575
3020	65.0863
3016	65.1619
3012	65.2278
3008	65.2292
3004	65.1174
3000	65.1091
2996	65.2506
2992	65.3076
2988	65.2721
2984	65.2383
2980	65.1996
2976	65.1996
2972	65.2483
2968	65.1977
2964	65.054
2960	65.0248
2956	65.1026
2952	65.1629
2948	65.1875
2944	65.1423
2940	65.0962
2936	65.1428
2932	65.1114
2928	64.973
2924	64.9239
2920	64.9359
2916	64.925
2912	64.9328
2908	65.0532
2904	65.2226
2900	65.3066
2896	65.386
2892	65.4163
2888	65.3035
2884	65.1919
2880	65.098
2876	65.0557
2872	65.1111
2868	65.1111
2864	65.1566
2860	65.2627
2856	65.1951
2852	65.132
2848	65.2114
2844	65.2286
2840	65.1736
2836	65.1869
2832	65.2749
2828	65.3211
2824	65.2469
2820	65.2023
2816	65.2947
2812	65.3572
2808	65.2983
2804	65.2498
2800	65.2477
2796	65.2051
2792	65.1795
2788	65.2352
2784	65.3438
2780	65.4338
2776	65.4397
2772	65.368
2768	65.3064
2764	65.2847
2760	65.3103
2756	65.3804
2752	65.3707
2748	65.2891
2744	65.2698
2740	65.2764
2736	65.2707
2732	65.2785
2728	65.2554
2724	65.2018
2720	65.1909
2716	65.2601
2712	65.3592
2708	65.3601
2704	65.2634
2700	65.2206
2696	65.29
2692	65.3424
2688	65.2792
2684	65.1938
2680	65.126
2676	65.1016
2672	65.191
2668	65.2851
2664	65.3131
2660	65.3264
2656	65.3227
2652	65.3162
2648	65.293
2644	65.2498
2640	65.304
2636	65.3937
2632	65.3402
2628	65.2343
2624	65.2045
2620	65.2032
2616	65.1878
2612	65.1806
2608	65.1996
2604	65.2149
2600	65.2061
2596	65.2297
2592	65.2848
2588	65.315
2584	65.3308
2580	65.337
2576	65.2979
2572	65.2076
2568	65.1174
2564	65.1176
2560	65.2127
2556	65.3004
2552	65.3171
2548	65.3364
2544	65.3577
2540	65.3618
2536	65.3754
2532	65.4031
2528	65.4389
2524	65.4303
2520	65.2997
2516	65.17
2512	65.1876
2508	65.2056
2504	65.2142
2500	65.2805
2496	65.2524
2492	65.1495
2488	65.1728
2484	65.2607
2480	65.2968
2476	65.2627
2472	65.1934
2468	65.239
2464	65.3565
2460	65.3901
2456	65.3305
2452	65.2885
2448	65.3063
2444	65.2306
2440	65.0235
2436	64.9049
2432	64.9718
2428	65.1122
2424	65.3415
2420	65.56
2416	65.5644
2412	65.4405
2408	65.2874
2404	65.1446
2400	65.1333
2396	65.2733
2392	65.4032
2388	65.3603
2384	65.1974
2380	65.1192
2376	65.1936
2372	65.3172
2368	65.4095
2364	65.4514
2360	65.3842
2356	65.2488
2352	65.1796
2348	65.1498
2344	65.1418
2340	65.1457
2336	65.1278
2332	65.1747
2328	65.2814
2324	65.3692
2320	65.4089
2316	65.3823
2312	65.3463
2308	65.3646
2304	65.3396
2300	65.2479
2296	65.2045
2292	65.1839
2288	65.1934
2284	65.2492
2280	65.258
2276	65.2214
2272	65.2266
2268	65.2812
2264	65.2611
2260	65.1825
2256	65.216
2252	65.3466
2248	65.3978
2244	65.3426
2240	65.2891
2236	65.3
2232	65.3707
2228	65.3732
2224	65.2702
2220	65.2119
2216	65.2327
2212	65.3065
2208	65.4118
2204	65.4205
2200	65.3463
2196	65.3366
2192	65.394
2188	65.4462
2184	65.4432
2180	65.4152
2176	65.3888
2172	65.3935
2168	65.4675
2164	65.4577
2160	65.2621
2156	64.9927
2152	64.8576
2148	64.9245
2144	65.073
2140	65.2509
2136	65.3653
2132	65.3766
2128	65.3281
2124	65.2962
2120	65.3225
2116	65.3109
2112	65.3124
2108	65.3421
2104	65.3312
2100	65.3165
2096	65.3088
2092	65.3519
2088	65.4493
2084	65.484
2080	65.5056
2076	65.6167
2072	65.5317
2068	65.1274
2064	64.8652
2060	65.0237
2056	65.3653
2052	65.5734
2048	65.5257
2044	65.3599
2040	65.2486
2036	65.2685
2032	65.3954
2028	65.414
2024	65.3126
2020	65.2852
2016	65.3256
2012	65.382
2008	65.4132
2004	65.3805
2000	65.3822
1996	65.4474
1992	65.4542
1988	65.4061
1984	65.357
1980	65.291
1976	65.2622
1972	65.2498
1968	65.1866
1964	65.2129
1960	65.3645
1956	65.4426
1952	65.3965
1948	65.3327
1944	65.3013
1940	65.2982
1936	65.333
1932	65.3955
1928	65.4287
1924	65.3817
1920	65.303
1916	65.2672
1912	65.2737
1908	65.3022
1904	65.3163
1900	65.3032
1896	65.3061
1892	65.3219
1888	65.3234
1884	65.3208
1880	65.2982
1876	65.295
1872	65.3411
1868	65.3695
1864	65.4088
1860	65.4418
1856	65.3597
1852	65.2566
1848	65.2121
1844	65.18
1840	65.2222
1836	65.3629
1832	65.4705
1828	65.4716
1824	65.442
1820	65.4008
1816	65.3298
1812	65.3107
1808	65.3242
1804	65.3368
1800	65.3634
1796	65.3449
1792	65.2669
1788	65.1777
1784	65.1454
1780	65.1928
1776	65.2534
1772	65.2679
1768	65.2614
1764	65.2662
1760	65.3135
1756	65.375
1752	65.3423
1748	65.2417
1744	65.1745
1740	65.1792
1736	65.2389
1732	65.2503
1728	65.1615
1724	65.0561
1720	65.0503
1716	65.1891
1712	65.3315
1708	65.3454
1704	65.3189
1700	65.3207
1696	65.2836
1692	65.2696
1688	65.323
1684	65.3043
1680	65.2691
1676	65.2956
1672	65.2704
1668	65.1915
1664	65.1593
1660	65.2087
1656	65.2424
1652	65.2278
1648	65.2254
1644	65.2245
1640	65.2498
1636	65.3135
1632	65.3099
1628	65.2662
1624	65.3144
1620	65.3607
1616	65.3525
1612	65.3848
1608	65.3658
1604	65.2519
1600	65.2021
1596	65.2587
1592	65.323
1588	65.3216
1584	65.2978
1580	65.2013
1576	65.0706
1572	65.0935
1568	65.1375
1564	65.0975
1560	65.0547
1556	65.0322
1552	65.0594
1548	65.1285
1544	65.1553
1540	65.0841
1536	65.0223
1532	65.0396
1528	65.1052
1524	65.1909
1520	65.1793
1516	65.1008
1512	65.1513
1508	65.2655
1504	65.3142
1500	65.3624
1496	65.3869
1492	65.2739
1488	65.1952
1484	65.2517
1480	65.2531
1476	65.1717
1472	65.0972
1468	65.0412
1464	65.0479
1460	65.1905
1456	65.3371
1452	65.3421
1448	65.3328
1444	65.2952
1440	65.1708
1436	65.1721
1432	65.2829
1428	65.2458
1424	65.1532
1420	65.2079
1416	65.261
1412	65.202
1408	65.1137
1404	65.052
1400	65.0567
1396	65.0843
1392	65.0877
1388	65.077
1384	65.0206
1380	64.9618
1376	64.9664
1372	64.9682
1368	64.9282
1364	64.9022
1360	64.9689
1356	65.0694
1352	65.0948
1348	65.0563
1344	65.0444
1340	65.1734
1336	65.325
1332	65.3074
1328	65.213
1324	65.1915
1320	65.1888
1316	65.1019
1312	65.0604
1308	65.1498
1304	65.1967
1300	65.1519
1296	65.1148
1292	65.1217
1288	65.096
1284	65.0182
1280	64.9942
1276	65.0541
1272	65.1065
1268	65.1176
1264	65.1235
1260	65.1004
1256	65.0237
1252	64.9965
1248	65.0642
1244	65.1076
1240	65.0791
1236	65.0481
1232	65.0804
1228	65.1176
1224	65.0987
1220	65.0817
1216	65.0559
1212	65.0394
1208	65.066
1204	65.0368
1200	64.985
1196	64.975
1192	64.9246
1188	64.864
1184	64.8729
1180	64.9219
1176	65.0045
1172	65.0744
1168	65.0702
1164	65.0397
1160	64.9862
1156	64.8904
1152	64.8463
1148	64.8947
1144	64.9571
1140	64.909
1136	64.8257
1132	64.8617
1128	64.913
1124	64.8852
1120	64.7353
1116	64.645
1112	64.9943
1108	65.4616
1104	65.465
1100	65.2856
1096	65.3221
1092	65.3346
1088	65.1399
1084	64.8521
1080	64.6804
1076	64.7449
1072	64.8895
1068	64.8605
1064	64.6563
1060	64.5808
1056	64.766
1052	65.0349
1048	65.2358
1044	65.3117
1040	65.2583
1036	65.2144
1032	65.2015
1028	65.0515
1024	64.9955
1020	65.2327
1016	65.366
1012	65.2383
1008	65.083
1004	65.0049
1000	64.9086
996	 64.7851
992	 64.7919
988	 65.0208
984	 65.2044
980	 65.0202
976	 64.8632
972	 64.9428
968	 64.9009
964	 64.724
960	 64.6427
956	 64.7752
952	 65.0172
948	 65.1644
944	 65.0716
940	 64.7536
936	 64.5666
932	 64.6786
928	 64.7505
924	 64.7378
920	 64.8853
916	 65.0168
912	 64.8987
908	 64.8054
904	 64.8684
900	 64.8479
896	 64.8276
892	 64.8604
888	 64.8108
884	 64.7266
880	 64.6557
876	 64.6546
872	 64.7491
868	 64.785
864	 64.7445
860	 64.8175
856	 64.9068
852	 64.848
848	 64.8107
844	 64.7578
840	 64.5863
836	 64.5556
832	 64.6825
828	 64.6147
824	 64.4639
820	 64.4723
816	 64.4273
812	 64.3137
808	 64.3764
804	 64.5572
800	 64.5751
796	 64.5137
792	 64.532
788	 64.489
784	 64.3538
780	 64.2793
776	 64.2177
772	 64.1168
768	 64.1688
764	 64.1604
760	 63.6503
756	 63.0376
752	 63.1405
748	 63.7677
744	 63.8754
740	 63.6309
736	 63.9176
732	 64.3164
728	 64.2773
724	 64.0575
720	 63.8458
716	 63.651
712	 63.6317
708	 63.7973
704	 63.9096
700	 63.7458
696	 63.4578
692	 63.4706
688	 63.6326
684	 63.6252
680	 63.526
676	 63.3869
672	 63.3819
668	 63.4144
664	 63.2466
660	 63.2146
656	 63.3173
652	 63.2327
648	 63.1775
644	 63.2167
640	 63.159
636	 63.0834
632	 63.0495
628	 63.0978
624	 63.3433
620	 63.4544
616	 63.0797
612	 62.7786
608	 62.8883
604	 63.0896
600	 63.2165
596	 63.1835
592	 63.2297
588	 63.3133
584	 63.1064
580	 62.8372
576	 62.7342
572	 62.7198
568	 62.5994
564	 62.4085
560	 62.4474
556	 62.6085
552	 62.7263
548	 62.8997
544	 62.7483
540	 62.2715
536	 62.0505
532	 62.1786
528	 62.5479
524	 62.738
520	 62.5222
516	 62.2485
512	 62.3352
508	 62.6534
504	 62.7276
500	 62.5108
496	 61.9544
492	 61.3681
488	 61.1441
484	 61.2343
480	 61.1974
476	 60.8924
472	 60.7735
468	 61.17
464	 61.6135
460	 61.2282
456	 60.2708
452	 59.8155
448	 59.9377
444	 60.0089
440	 60.173
436	 59.7189
432	 58.4683
428	 58.4185
424	 59.7623
420	 60.2749
416	 57.9423
412	 52.9215
408	 47.2697
404	 42.1457
400	 42.1307
396	 54.5836
392	 66.0414
388	 44.2961
384	 26.1243
380	 43.2953
376	 66.9924
372	 77.6596
370	 75.187