File: Bakgrunnsmateriale/MATLAB/FTIR/ftir_data/subBb/Mapping_121/C-4040-8_t77_cm-1.asc
PE IR       SPECTRUM    SPECTRUM    ASCII       PEDS        1.60
  -1
C-1DEF~1.ASC
17/03/27
20:48:57.00
17/03/27
20:48:57.00
tln
$C-4040-8_t0077$<tbV0>[-13.0,2.6,8.0,0.0,27,1,0]
370
64

2002,4.07
MIRTGS : RIGHTBACK : INTERNAL 2
MIR : ON : INTERNAL 2
OPTKBR

0.200000
8
8.000000
FILLER
RATIO
SPECTRUM
UNLOCKED 256

DOUBLE
64
COMBINED
1
0
0

1.000000
RATIO

1
0
TRUE
51149
0
LEFT NOT FITTED RIGHT NOT FITTED 0
NONE
NONE
15600
12
4.427000
51148
TRUE
1 0 8 72 0 0 0 0

15798

#HDR
-1
-1
#GR
CM-1
%T
2.38419e-05
0.0
5000
-1.000000
4631
8
122.472
19.1855
#DATA
5000	64.6724
4996	64.8715
4992	64.884
4988	64.6499
4984	64.7055
4980	65.0984
4976	65.4571
4972	65.3772
4968	64.7815
4964	64.3185
4960	64.3492
4956	64.5937
4952	64.8335
4948	64.7605
4944	64.3692
4940	64.1518
4936	64.0169
4932	64.0442
4928	64.4705
4924	64.7113
4920	64.5691
4916	64.5558
4912	64.6701
4908	64.6638
4904	64.8054
4900	64.9268
4896	64.7262
4892	64.4235
4888	64.0443
4884	64.2371
4880	65.0625
4876	65.3561
4872	65.0511
4868	64.6021
4864	64.2708
4860	64.4058
4856	64.7245
4852	64.7311
4848	64.5131
4844	64.3473
4840	64.3621
4836	64.5613
4832	64.7769
4828	64.8268
4824	64.8379
4820	64.8774
4816	64.8516
4812	64.8999
4808	65.0773
4804	65.1789
4800	65.0269
4796	64.8064
4792	64.6748
4788	64.6239
4784	64.6969
4780	64.7934
4776	64.9176
4772	64.9872
4768	64.9415
4764	64.8849
4760	64.8215
4756	64.8534
4752	64.9953
4748	65.1894
4744	65.2775
4740	65.1578
4736	65.1018
4732	65.2538
4728	65.2825
4724	65.09
4720	65.0822
4716	65.3196
4712	65.5655
4708	65.5257
4704	65.0903
4700	64.7264
4696	64.7325
4692	64.9042
4688	65.1187
4684	65.3848
4680	65.5992
4676	65.7152
4672	65.7235
4668	65.5129
4664	65.1833
4660	65.0341
4656	65.1311
4652	65.2081
4648	65.1588
4644	65.2241
4640	65.2948
4636	65.2078
4632	65.0495
4628	64.8809
4624	64.8125
4620	64.8922
4616	65.0984
4612	65.2053
4608	65.1224
4604	65.0397
4600	64.9704
4596	64.8861
4592	64.8515
4588	64.7882
4584	64.5818
4580	64.4362
4576	64.6407
4572	64.9251
4568	64.8002
4564	64.4835
4560	64.4031
4556	64.403
4552	64.4194
4548	64.3068
4544	64.0369
4540	64.3082
4536	64.8886
4532	65.032
4528	64.7919
4524	64.4295
4520	64.276
4516	64.3277
4512	64.3196
4508	64.1226
4504	63.9081
4500	63.8846
4496	63.8852
4492	63.9693
4488	64.0155
4484	63.8036
4480	63.5289
4476	63.4663
4472	63.7043
4468	63.7536
4464	63.4734
4460	63.3623
4456	63.505
4452	63.7766
4448	63.9365
4444	63.7398
4440	63.453
4436	63.3974
4432	63.4075
4428	63.499
4424	63.5413
4420	63.3669
4416	63.1305
4412	62.7132
4408	61.8305
4404	61.1469
4400	61.026
4396	59.7998
4392	58.4086
4388	66.3982
4384	105.621
4380	118.928
4376	86.3739
4372	71.4668
4368	67.0976
4364	64.869
4360	63.4709
4356	63.6001
4352	63.8088
4348	63.9142
4344	64.2104
4340	64.1225
4336	63.8735
4332	63.8394
4328	63.9968
4324	64.1204
4320	64.0664
4316	64.0563
4312	64.1573
4308	64.2609
4304	64.2951
4300	64.205
4296	64.1558
4292	64.221
4288	64.1933
4284	64.1077
4280	64.1297
4276	64.122
4272	64.1567
4268	64.254
4264	64.2427
4260	64.1545
4256	63.987
4252	63.8759
4248	64.0624
4244	64.3492
4240	64.5098
4236	64.64
4232	64.6819
4228	64.659
4224	64.6427
4220	64.5313
4216	64.4301
4212	64.4106
4208	64.4526
4204	64.6638
4200	64.7925
4196	64.592
4192	64.5112
4188	64.7404
4184	64.9384
4180	65.095
4176	65.2221
4172	65.0835
4168	64.8249
4164	64.7292
4160	64.7078
4156	64.7105
4152	64.6938
4148	64.6745
4144	64.764
4140	64.8718
4136	64.9147
4132	64.9505
4128	65.0312
4124	65.108
4120	65.1422
4116	65.0541
4112	64.8467
4108	64.8366
4104	64.9571
4100	64.9474
4096	65.0421
4092	65.1294
4088	65.0205
4084	65.0199
4080	65.1242
4076	65.1721
4072	65.1678
4068	65.1619
4064	65.135
4060	65.0773
4056	65.0714
4052	64.9659
4048	64.793
4044	64.8262
4040	65.0297
4036	65.133
4032	65.0416
4028	64.984
4024	65.0524
4020	65.0999
4016	65.0854
4012	65.0627
4008	64.9832
4004	64.8443
4000	64.9127
3996	65.2338
3992	65.3738
3988	65.1758
3984	65.1036
3980	65.2918
3976	65.2592
3972	64.9266
3968	64.6993
3964	64.745
3960	64.8978
3956	64.904
3952	64.7996
3948	64.8347
3944	64.9365
3940	64.8942
3936	64.813
3932	64.8862
3928	65.004
3924	65.0282
3920	65.1595
3916	65.3444
3912	65.2856
3908	65.0802
3904	64.9752
3900	64.9636
3896	64.9267
3892	64.954
3888	65.0276
3884	65.0098
3880	64.9232
3876	64.842
3872	64.8826
3868	65.0507
3864	65.0826
3860	64.8848
3856	64.7407
3852	64.7411
3848	64.7757
3844	64.8608
3840	64.8903
3836	64.7224
3832	64.5782
3828	64.5276
3824	64.4877
3820	64.6504
3816	64.8093
3812	64.8143
3808	64.9072
3804	64.9422
3800	64.8326
3796	64.7488
3792	64.7648
3788	64.8872
3784	65.0003
3780	64.9587
3776	64.8632
3772	64.8055
3768	64.7684
3764	64.8011
3760	64.8399
3756	64.904
3752	64.9847
3748	65.006
3744	65.0471
3740	65.1043
3736	65.0549
3732	64.9454
3728	64.989
3724	65.1588
3720	65.1845
3716	65.0636
3712	65.0221
3708	65.0436
3704	64.9679
3700	64.8655
3696	64.9755
3692	65.1591
3688	65.1052
3684	65.0096
3680	64.9988
3676	64.9302
3672	64.8548
3668	64.8266
3664	64.8793
3660	64.9939
3656	65.0066
3652	64.9239
3648	64.8806
3644	64.9645
3640	65.1523
3636	65.2092
3632	65.1037
3628	65.0639
3624	65.1297
3620	65.1391
3616	65.087
3612	65.0529
3608	65.0207
3604	65.1352
3600	65.312
3596	65.2645
3592	65.1602
3588	65.1572
3584	65.1308
3580	65.0602
3576	65.0047
3572	64.9733
3568	64.9635
3564	65.0458
3560	65.1847
3556	65.1648
3552	65.013
3548	64.9818
3544	64.9872
3540	64.9512
3536	65.032
3532	65.13
3528	65.1362
3524	65.0712
3520	64.9792
3516	64.9663
3512	64.9987
3508	65.0422
3504	65.1026
3500	65.0991
3496	65.064
3492	64.9949
3488	64.9074
3484	64.9913
3480	65.1244
3476	65.0273
3472	64.7845
3468	64.6687
3464	64.8182
3460	65.0861
3456	65.2344
3452	65.2133
3448	65.0857
3444	64.9797
3440	64.9767
3436	64.937
3432	64.7978
3428	64.7139
3424	64.753
3420	64.9094
3416	65.0823
3412	65.0964
3408	64.9885
3404	64.8551
3400	64.7875
3396	64.7984
3392	64.8495
3388	65.0289
3384	65.1886
3380	65.17
3376	65.1064
3372	65.0722
3368	65.0762
3364	65.1292
3360	65.1183
3356	64.9431
3352	64.7727
3348	64.7459
3344	64.7535
3340	64.8069
3336	65
3332	65.1258
3328	65.049
3324	64.9894
3320	65.0486
3316	65.1182
3312	65.1037
3308	65.0513
3304	65.061
3300	65.097
3296	65.0599
3292	64.9835
3288	64.9534
3284	64.9608
3280	65.0125
3276	65.0275
3272	64.9927
3268	65.0298
3264	65.0462
3260	64.9966
3256	65.0103
3252	64.9937
3248	64.8696
3244	64.822
3240	64.8579
3236	64.919
3232	64.9964
3228	64.9922
3224	64.9457
3220	64.9415
3216	64.9934
3212	65.0336
3208	65.0286
3204	65.0439
3200	65.0594
3196	65.0801
3192	65.0769
3188	65.0393
3184	65.0301
3180	64.9927
3176	64.9365
3172	64.9692
3168	65.0447
3164	65.0012
3160	64.9088
3156	64.9082
3152	64.963
3148	65.048
3144	65.2179
3140	65.3481
3136	65.3232
3132	65.2835
3128	65.1646
3124	64.9799
3120	64.8655
3116	64.7233
3112	64.6266
3108	64.718
3104	64.9191
3100	65.0925
3096	65.1744
3092	65.1329
3088	65.077
3084	65.0808
3080	65.0125
3076	64.9661
3072	65.0805
3068	65.169
3064	65.0831
3060	65.0132
3056	65.1056
3052	65.1539
3048	65.041
3044	64.8981
3040	64.9042
3036	65.115
3032	65.2463
3028	65.1159
3024	64.976
3020	64.9824
3016	65.0244
3012	65.0279
3008	64.993
3004	64.9446
3000	64.9258
2996	64.9601
2992	64.9737
2988	64.9325
2984	64.9228
2980	64.9106
2976	64.8259
2972	64.7395
2968	64.7312
2964	64.7532
2960	64.7596
2956	64.8339
2952	64.9202
2948	64.9185
2944	64.951
2940	65.0023
2936	64.9626
2932	64.8714
2928	64.7204
2924	64.5715
2920	64.5115
2916	64.5885
2912	64.7587
2908	64.8998
2904	64.9661
2900	64.9596
2896	64.9463
2892	64.9347
2888	64.9226
2884	64.9069
2880	64.7877
2876	64.6996
2872	64.8626
2868	65.1074
2864	65.1455
2860	64.9819
2856	64.886
2852	64.9424
2848	64.9504
2844	64.8883
2840	64.8936
2836	64.9409
2832	64.9707
2828	65.0126
2824	65.0492
2820	65.0748
2816	65.0932
2812	65.1212
2808	65.1731
2804	65.2035
2800	65.1641
2796	65.0794
2792	65.0945
2788	65.1803
2784	65.1909
2780	65.1534
2776	65.1384
2772	65.1282
2768	65.093
2764	65.0869
2760	65.1422
2756	65.1984
2752	65.2111
2748	65.2306
2744	65.2353
2740	65.1865
2736	65.1815
2732	65.1883
2728	65.1579
2724	65.1587
2720	65.1474
2716	65.1074
2712	65.0895
2708	65.1063
2704	65.1448
2700	65.1645
2696	65.1388
2692	65.0814
2688	65.0592
2684	65.1002
2680	65.1403
2676	65.1268
2672	65.1176
2668	65.1242
2664	65.08
2660	65.0418
2656	65.0474
2652	65.0398
2648	65.0248
2644	65.034
2640	65.0513
2636	65.0276
2632	65.0115
2628	65.0698
2624	65.1125
2620	65.0973
2616	65.0677
2612	65.0488
2608	65.0516
2604	65.0449
2600	65.0105
2596	64.9649
2592	64.981
2588	65.0797
2584	65.142
2580	65.1345
2576	65.1066
2572	65.0476
2568	64.9807
2564	64.9884
2560	65.0448
2556	65.0417
2552	65.0093
2548	65.0381
2544	65.0883
2540	65.0766
2536	65.0658
2532	65.1092
2528	65.1203
2524	65.1313
2520	65.1772
2516	65.2091
2512	65.2768
2508	65.323
2504	65.2693
2500	65.2277
2496	65.1752
2492	65.0793
2488	65.0921
2484	65.1724
2480	65.1897
2476	65.1813
2472	65.1699
2468	65.1098
2464	65.0875
2460	65.1597
2456	65.2129
2452	65.2331
2448	65.2795
2444	65.2956
2440	65.2302
2436	65.1105
2432	64.8712
2428	64.6408
2424	64.7037
2420	64.9785
2416	65.2073
2412	65.3122
2408	65.2709
2404	65.0687
2400	64.9734
2396	65.0901
2392	65.1809
2388	65.1996
2384	65.2197
2380	65.2849
2376	65.2937
2372	65.1607
2368	65.0668
2364	65.0635
2360	65.106
2356	65.2027
2352	65.2014
2348	65.0799
2344	65.0912
2340	65.2073
2336	65.1726
2332	65.1169
2328	65.1567
2324	65.1425
2320	65.1095
2316	65.1655
2312	65.2575
2308	65.2836
2304	65.2163
2300	65.1437
2296	65.129
2292	65.17
2288	65.2679
2284	65.3358
2280	65.3083
2276	65.2332
2272	65.1546
2268	65.1613
2264	65.2491
2260	65.2843
2256	65.2918
2252	65.3299
2248	65.3208
2244	65.2612
2240	65.217
2236	65.1872
2232	65.1896
2228	65.248
2224	65.2684
2220	65.2016
2216	65.1966
2212	65.2564
2208	65.2459
2204	65.1572
2200	65.1162
2196	65.1736
2192	65.2018
2188	65.1747
2184	65.1404
2180	65.1359
2176	65.1578
2172	65.1728
2168	65.1589
2164	65.0799
2160	65.0594
2156	65.1456
2152	65.1694
2148	65.1487
2144	65.1963
2140	65.245
2136	65.2272
2132	65.2286
2128	65.2201
2124	65.1707
2120	65.1726
2116	65.168
2112	65.1526
2108	65.1759
2104	65.1692
2100	65.1644
2096	65.1827
2092	65.1858
2088	65.2095
2084	65.2358
2080	65.2765
2076	65.3649
2072	65.3354
2068	65.1299
2064	64.9996
2060	65.0878
2056	65.2449
2052	65.3256
2048	65.2962
2044	65.2059
2040	65.129
2036	65.0856
2032	65.1425
2028	65.2345
2024	65.2182
2020	65.1656
2016	65.1519
2012	65.1458
2008	65.1339
2004	65.0935
2000	65.0507
1996	65.0944
1992	65.1673
1988	65.1956
1984	65.2006
1980	65.1842
1976	65.1712
1972	65.169
1968	65.1586
1964	65.1614
1960	65.2114
1956	65.2555
1952	65.2418
1948	65.2099
1944	65.1612
1940	65.0971
1936	65.063
1932	65.106
1928	65.2191
1924	65.3033
1920	65.2961
1916	65.2266
1912	65.1654
1908	65.2034
1904	65.2904
1900	65.2843
1896	65.2414
1892	65.2182
1888	65.1826
1884	65.1718
1880	65.1961
1876	65.2265
1872	65.2282
1868	65.1852
1864	65.1383
1860	65.1373
1856	65.1522
1852	65.1719
1848	65.2355
1844	65.256
1840	65.1862
1836	65.1491
1832	65.1815
1828	65.2495
1824	65.3308
1820	65.3799
1816	65.3902
1812	65.3747
1808	65.2937
1804	65.1699
1800	65.1171
1796	65.1201
1792	65.0917
1788	65.116
1784	65.2164
1780	65.2144
1776	65.152
1772	65.1665
1768	65.216
1764	65.2585
1760	65.2598
1756	65.1814
1752	65.0588
1748	64.9805
1744	65.0077
1740	65.1058
1736	65.1302
1732	65.0258
1728	64.944
1724	64.9551
1720	65.1197
1716	65.347
1712	65.2236
1708	64.9554
1704	64.961
1700	65.0545
1696	65.1016
1692	65.1322
1688	65.1428
1684	65.1251
1680	65.106
1676	65.1168
1672	65.1216
1668	65.121
1664	65.0783
1660	65.0301
1656	65.0721
1652	65.127
1648	65.0992
1644	65.0237
1640	64.9254
1636	64.871
1632	64.9333
1628	64.9632
1624	64.9363
1620	64.9417
1616	64.9122
1612	64.876
1608	64.9007
1604	64.9426
1600	64.9703
1596	64.9627
1592	64.9304
1588	64.9296
1584	64.9527
1580	64.9137
1576	64.8593
1572	64.8682
1568	64.8789
1564	64.8548
1560	64.8303
1556	64.8097
1552	64.7859
1548	64.7917
1544	64.8066
1540	64.8412
1536	64.8952
1532	64.8888
1528	64.8865
1524	64.9085
1520	64.8833
1516	64.8728
1512	64.9562
1508	65.0667
1504	65.073
1500	64.9537
1496	64.8508
1492	64.9175
1488	64.9906
1484	64.9591
1480	64.9429
1476	64.9307
1472	64.8993
1468	64.8998
1464	64.9639
1460	65.0627
1456	65.0651
1452	64.9359
1448	64.7977
1444	64.7471
1440	64.8826
1436	65.0907
1432	65.1288
1428	65.0459
1424	64.9803
1420	64.9548
1416	64.9374
1412	64.9648
1408	65.0368
1404	65.0142
1400	64.9696
1396	65.0309
1392	65.0227
1388	64.9194
1384	64.8795
1380	64.8989
1376	64.9204
1372	64.9057
1368	64.8653
1364	64.8245
1360	64.8307
1356	64.8694
1352	64.873
1348	64.906
1344	65.0009
1340	65.0905
1336	65.0694
1332	64.933
1328	64.8621
1324	64.9089
1320	64.9507
1316	64.9717
1312	64.973
1308	64.9489
1304	64.9589
1300	64.9782
1296	64.9609
1292	64.9201
1288	64.9025
1284	64.9554
1280	65.0342
1276	65.017
1272	64.9444
1268	64.9428
1264	64.9783
1260	64.9925
1256	64.9689
1252	64.9515
1248	64.9265
1244	64.8392
1240	64.8322
1236	64.9418
1232	64.9949
1228	64.9214
1224	64.7978
1220	64.7562
1216	64.808
1212	64.9079
1208	64.9877
1204	64.9872
1200	64.9356
1196	64.8526
1192	64.8379
1188	64.862
1184	64.8935
1180	64.9315
1176	64.8522
1172	64.7628
1168	64.7167
1164	64.6523
1160	64.6347
1156	64.7133
1152	64.7938
1148	64.7389
1144	64.6166
1140	64.5778
1136	64.6766
1132	64.7898
1128	64.7829
1124	64.6856
1120	64.6137
1116	64.626
1112	64.7349
1108	64.9602
1104	65.0861
1100	64.9413
1096	64.6266
1092	64.3679
1088	64.4264
1084	64.7954
1080	65.1524
1076	65.149
1072	64.8806
1068	64.7047
1064	64.6932
1060	64.8276
1056	64.9402
1052	64.7817
1048	64.6993
1044	64.9832
1040	65.1232
1036	64.8891
1032	64.6272
1028	64.4976
1024	64.4285
1020	64.4083
1016	64.4897
1012	64.6886
1008	64.9053
1004	64.935
1000	64.7245
996	 64.5996
992	 64.6336
988	 64.6084
984	 64.5827
980	 64.6284
976	 64.6796
972	 64.758
968	 64.7861
964	 64.7057
960	 64.8374
956	 65.0055
952	 64.8412
948	 64.8015
944	 65.0448
940	 64.9848
936	 64.6985
932	 64.6136
928	 64.5853
924	 64.6247
920	 64.8975
916	 64.9704
912	 64.5906
908	 64.3159
904	 64.376
900	 64.5472
896	 64.7542
892	 64.8535
888	 64.7736
884	 64.7565
880	 64.7776
876	 64.6493
872	 64.6521
868	 64.805
864	 64.728
860	 64.4674
856	 64.2954
852	 64.3054
848	 64.3545
844	 64.3199
840	 64.4699
836	 64.771
832	 64.8201
828	 64.6616
824	 64.5288
820	 64.5274
816	 64.6157
812	 64.5097
808	 64.2809
804	 64.2196
800	 64.2284
796	 64.1024
792	 64.074
788	 64.2742
784	 64.3388
780	 64.2817
776	 64.2958
772	 64.2304
768	 64.033
764	 63.8735
760	 63.8968
756	 64.0469
752	 64.0719
748	 64.0005
744	 63.8902
740	 63.6005
736	 63.4364
732	 63.6339
728	 63.9248
724	 64.1136
720	 64.1353
716	 63.9739
712	 63.7882
708	 63.5741
704	 63.3413
700	 63.3643
696	 63.5467
692	 63.6247
688	 63.714
684	 63.8141
680	 63.7562
676	 63.6031
672	 63.4362
668	 63.1712
664	 62.8134
660	 62.7399
656	 63.0073
652	 63.0542
648	 62.8476
644	 62.8937
640	 63.1227
636	 63.2209
632	 63.245
628	 63.1103
624	 62.9326
620	 62.9067
616	 62.9116
612	 62.9318
608	 63.0567
604	 63.1956
600	 62.8593
596	 62.3774
592	 62.3968
588	 62.6115
584	 62.8683
580	 63.1563
576	 63.1836
572	 62.929
568	 62.6809
564	 62.6673
560	 62.6674
556	 62.5537
552	 62.7843
548	 63.2451
544	 63.1309
540	 62.7183
536	 62.508
532	 62.2727
528	 62.1204
524	 61.7909
520	 61.2988
516	 61.5363
512	 62.1494
508	 62.1335
504	 61.713
500	 61.4295
496	 61.3512
492	 61.4767
488	 61.8607
484	 62.3814
480	 62.5117
476	 62.0742
472	 61.0891
468	 60.0609
464	 59.8846
460	 60.1563
456	 60.4608
452	 61.0277
448	 61.5075
444	 61.3278
440	 61.3687
436	 62.2763
432	 62.2368
428	 59.8745
424	 57.0336
420	 56.008
416	 55.5701
412	 54.1389
408	 53.9873
404	 60.3008
400	 71.7901
396	 76.5569
392	 69.5513
388	 55.8767
384	 48.6288
380	 44.3194
376	 24.1208
372	 24.8421
370	 39.3078