File: Bakgrunnsmateriale/MATLAB/FTIR/ftir_data/subBb/Mapping_121/C-4040-8_t48.asc
PE IR       SPECTRUM    SPECTRUM    ASCII       PEDS        1.60
  -1
C-C53A~1.ASC
17/03/27
18:27:45.00
17/03/27
18:28:12.00
tln
$C-4040-8_t0048$<tbV0>[5.2,-2.6,8.0,0.0,27,1,0]
27.028
64

2002,4.07
MIRTGS : RIGHTBACK : INTERNAL 2
MIR : ON : INTERNAL 2
OPTKBR

0.200000
8
8.000000
FILLER
RATIO
SPECTRUM
UNLOCKED 256

DOUBLE
64
COMBINED
1
0
0

0.002000
RATIO

1
0
TRUE
51149
0
LEFT NOT FITTED RIGHT NOT FITTED 0
NONE
NONE
15600
12
4.427000
51148
TRUE
1 0 8 72 0 0 0 0

15798

#HDR
-1
-1
#GR
µM
%T
2.38419e-05
0.0
2.000000
0.002000
12515
8
98.0445
34.7146
#DATA
2.000000	 65.5016
2.018000	 65.5433
2.036000	 64.9943
2.054000	 65.1777
2.072000	 64.8137
2.090000	 65.0475
2.108000	 64.6853
2.126000	 64.9103
2.144000	 64.4474
2.162000	 65.0215
2.180000	 64.8987
2.198000	 64.7955
2.216000	 65.4745
2.234000	 65.3809
2.252000	 65.6731
2.270000	 66.3713
2.288000	 65.7404
2.306000	 67.7302
2.324000	 65.6856
2.342000	 65.594
2.360000	 65.0057
2.378000	 65.0561
2.396000	 64.3119
2.414000	 65.2019
2.432000	 64.6845
2.450000	 65.0664
2.468000	 64.9172
2.486000	 65.1403
2.504000	 65.0814
2.522000	 65.0576
2.540000	 64.9305
2.558000	 65.2071
2.576000	 64.9275
2.594000	 65.0849
2.612000	 64.9521
2.630000	 65.2681
2.648000	 65.2792
2.666000	 65.1073
2.684000	 65.459
2.702000	 65.1795
2.720000	 65.1074
2.738000	 65.2579
2.756000	 64.9782
2.774000	 65.1978
2.792000	 65.1875
2.810000	 65.1836
2.828000	 65.1268
2.846000	 65.0704
2.864000	 65.1001
2.882000	 64.9076
2.900000	 65.164
2.918000	 65.374
2.936000	 65.3131
2.954000	 65.2747
2.972000	 65.1157
2.990000	 65.3121
3.008000	 65.2336
3.026000	 65.1025
3.044000	 65.0234
3.062000	 65.3825
3.080000	 65.2969
3.098000	 65.2437
3.116000	 65.3454
3.134000	 64.9414
3.152000	 65.4418
3.170000	 65.452
3.188000	 65.2021
3.206000	 64.5662
3.224000	 65.1333
3.242000	 65.2749
3.260000	 65.2901
3.278000	 65.2793
3.296000	 65.2408
3.314000	 65.2205
3.332000	 65.2902
3.350000	 65.0939
3.368000	 65.0956
3.386000	 65.1689
3.404000	 65.1025
3.422000	 65.1545
3.440000	 65.1921
3.458000	 65.0537
3.476000	 65.0167
3.494000	 64.9204
3.512000	 65.148
3.530000	 65.3211
3.548000	 65.4013
3.566000	 65.165
3.584000	 65.0562
3.602000	 65.1629
3.620000	 65.3599
3.638000	 65.159
3.656000	 65.2538
3.674000	 65.2454
3.692000	 65.2697
3.710000	 65.1541
3.728000	 65.2234
3.746000	 65.1779
3.764000	 65.3243
3.782000	 65.1863
3.800000	 65.2261
3.818000	 65.2416
3.836000	 65.3526
3.854000	 65.2112
3.872000	 65.239
3.890000	 65.195
3.908000	 65.2717
3.926000	 65.4057
3.944000	 65.2593
3.962000	 65.2581
3.980000	 65.2178
3.998000	 65.1099
4.016000	 65.0619
4.034000	 65.2687
4.052000	 65.0801
4.070000	 65.2447
4.088000	 65.3019
4.106000	 65.3037
4.124000	 65.3825
4.141999	 65.4117
4.160000	 65.2455
4.178000	 65.2366
4.196000	 65.3231
4.214000	 65.2866
4.232000	 65.3158
4.250000	 65.2274
4.268000	 65.2297
4.286000	 65.3704
4.304000	 65.1557
4.322000	 65.0459
4.340000	 65.2493
4.358000	 65.3525
4.375999	 65.4076
4.394000	 65.2528
4.412000	 65.3479
4.430000	 65.2154
4.448000	 65.4248
4.466000	 65.2271
4.484000	 65.3997
4.502000	 65.248
4.520000	 65.2507
4.538000	 65.1637
4.556000	 65.2747
4.574000	 65.2771
4.592000	 65.1187
4.609999	 65.2214
4.628000	 65.3717
4.646000	 65.4167
4.664000	 65.1211
4.682000	 65.1787
4.700000	 65.3254
4.718000	 65.176
4.736000	 65.2736
4.754000	 65.2875
4.772000	 65.2703
4.790000	 65.1221
4.808000	 65.0549
4.826000	 65.2919
4.843999	 64.9858
4.862000	 64.7377
4.880000	 64.8652
4.898000	 65.1642
4.916000	 65.4027
4.934000	 65.4985
4.952000	 65.3442
4.970000	 65.1832
4.988000	 65.2851
5.006000	 65.3126
5.024000	 65.2001
5.042000	 65.2063
5.060000	 65.1802
5.077999	 65.1527
5.096000	 65.0491
5.114000	 65.1664
5.132000	 65.1847
5.150000	 65.1809
5.168000	 65.2671
5.186000	 65.3993
5.204000	 65.2917
5.222000	 65.3221
5.240000	 65.2615
5.258000	 65.1812
5.276000	 65.2357
5.294000	 65.252
5.312000	 65.2368
5.330000	 65.2105
5.348000	 65.0947
5.366000	 65.0993
5.384000	 65.0539
5.402000	 65.0748
5.420000	 65.2059
5.438000	 65.1948
5.456000	 65.3001
5.474000	 65.3436
5.492000	 65.2845
5.510000	 65.2407
5.528000	 65.2253
5.546000	 65.2168
5.564000	 65.0687
5.582000	 65.1393
5.600000	 65.1867
5.618000	 65.2081
5.636000	 65.2803
5.654000	 65.3141
5.672000	 65.0432
5.690000	 64.9625
5.708000	 65.037
5.726000	 65.0472
5.744000	 65.0316
5.762000	 65.0871
5.780000	 65.2142
5.798000	 65.2135
5.816000	 65.2053
5.834000	 65.23
5.852000	 65.1868
5.870000	 65.2214
5.888000	 65.2705
5.906000	 65.1905
5.923999	 65.0981
5.942000	 65.1779
5.960000	 65.1566
5.978000	 65.0841
5.996000	 65.1537
6.014000	 65.2234
6.032000	 65.1561
6.050000	 65.1577
6.068000	 65.1897
6.086000	 65.2308
6.104000	 65.196
6.122000	 65.1134
6.140000	 65.162
6.158000	 65.2257
6.176000	 65.2483
6.194000	 65.2247
6.212000	 65.212
6.230000	 65.2507
6.248000	 65.2378
6.266000	 65.078
6.284000	 64.9566
6.302000	 65.0145
6.320000	 65.0689
6.338000	 65.098
6.356000	 65.1449
6.374000	 65.097
6.392000	 65.0065
6.410000	 64.9313
6.428000	 64.8676
6.446000	 64.9055
6.464000	 64.9648
6.482000	 65.015
6.500000	 65.03
6.518000	 64.9643
6.536000	 64.9295
6.554000	 64.9168
6.572000	 64.9369
6.590000	 64.9795
6.608000	 64.935
6.626000	 64.8934
6.644000	 64.9925
6.662000	 65.1699
6.680000	 65.2236
6.698000	 65.1295
6.716000	 65.0862
6.734000	 65.0898
6.752000	 65.0404
6.770000	 64.9724
6.788000	 64.9513
6.806000	 64.9744
6.824000	 65.0021
6.842000	 64.8676
6.860000	 64.5629
6.878000	 64.4946
6.896000	 64.7248
6.914000	 64.8622
6.932000	 64.9065
6.950000	 64.9773
6.968000	 64.9691
6.986000	 64.9164
7.004000	 64.9473
7.022000	 64.9911
7.040000	 64.9489
7.058000	 64.9184
7.076000	 64.9636
7.094000	 64.9854
7.112000	 64.9704
7.130000	 64.9564
7.148000	 64.9173
7.166000	 64.9001
7.184000	 64.9386
7.202000	 64.9797
7.220000	 65.0142
7.238000	 65.0235
7.256000	 64.975
7.274000	 64.9197
7.292000	 64.9208
7.310000	 64.953
7.328000	 64.9673
7.346000	 64.9783
7.364000	 64.9883
7.382000	 64.9358
7.400000	 64.8466
7.418000	 64.8453
7.436000	 64.9376
7.454000	 65.0095
7.472000	 65.0322
7.490000	 65.0599
7.508000	 65.0927
7.526000	 65.0962
7.544000	 65.0823
7.562000	 65.063
7.580000	 65.0378
7.598000	 65.0371
7.616000	 65.0626
7.634000	 65.0617
7.652000	 65.0235
7.670000	 64.9722
7.688000	 64.8995
7.706000	 64.8147
7.724000	 64.771
7.742000	 64.7898
7.760000	 64.8431
7.778000	 64.9034
7.796000	 64.9535
7.814000	 64.9782
7.832000	 64.9616
7.850000	 64.8903
7.868000	 64.7901
7.886000	 64.7376
7.904000	 64.7856
7.922000	 64.8956
7.940000	 64.9821
7.958000	 64.9947
7.976000	 64.9495
7.994000	 64.9137
8.012000	 64.9455
8.030000	 65.0168
8.048000	 65.0316
8.065999	 64.9456
8.084000	 64.8217
8.102000	 64.7618
8.120000	 64.8093
8.138000	 64.9202
8.155999	 65.0013
8.173999	 64.9965
8.192000	 64.9453
8.210000	 64.9334
8.228000	 64.9923
8.246000	 65.0661
8.263999	 65.0871
8.282000	 65.0641
8.300000	 65.0554
8.318000	 65.075
8.336000	 65.0758
8.353999	 65.0345
8.372000	 64.989
8.390000	 64.9766
8.408000	 64.9733
8.426000	 64.927
8.443999	 64.8288
8.462000	 64.7284
8.480000	 64.6864
8.498000	 64.7296
8.516000	 64.8287
8.533999	 64.9146
8.552000	 64.9328
8.570000	 64.8912
8.588000	 64.8486
8.606000	 64.8499
8.624000	 64.8843
8.641999	 64.9068
8.660000	 64.9019
8.678000	 64.901
8.696000	 64.942
8.714000	 65.0131
8.731999	 65.0473
8.750000	 64.9733
8.768000	 64.7951
8.786000	 64.6233
8.804000	 64.601
8.821999	 64.7644
8.840000	 64.9782
8.858000	 65.0533
8.876000	 64.9389
8.894000	 64.7681
8.911999	 64.7094
8.930000	 64.7936
8.948000	 64.9075
8.966000	 64.9149
8.984000	 64.7754
9.001999	 64.5545
9.020000	 64.3626
9.038000	 64.2883
9.056000	 64.35
9.074000	 64.4844
9.092000	 64.5846
9.109999	 64.5821
9.128000	 64.5072
9.146000	 64.4623
9.164000	 64.5292
9.182000	 64.6906
9.199999	 64.8486
9.218000	 64.907
9.236000	 64.8418
9.254000	 64.7055
9.272000	 64.5702
9.289999	 64.4773
9.308000	 64.4289
9.326000	 64.4136
9.344000	 64.4302
9.362000	 64.4856
9.379999	 64.5788
9.398000	 64.6857
9.416000	 64.7658
9.434000	 64.788
9.452000	 64.7575
9.469999	 64.7177
9.488000	 64.7202
9.506000	 64.7822
9.524000	 64.872
9.542000	 64.9391
9.560000	 64.9608
9.577999	 64.9555
9.596000	 64.9553
9.614000	 64.9736
9.632000	 64.9979
9.650000	 65.0041
9.667999	 64.9781
9.686000	 64.9282
9.704000	 64.8785
9.722000	 64.8491
9.740000	 64.8384
9.757999	 64.8257
9.776000	 64.7906
9.794000	 64.7342
9.812000	 64.6827
9.830000	 64.6688
9.847999	 64.7046
9.866000	 64.7715
9.884000	 64.8348
9.902000	 64.8672
9.920000	 64.8658
9.937999	 64.8514
9.956000	 64.8497
9.974000	 64.8695
9.992000	 64.8952
10.01	64.8977
10.028	64.8568
10.046	64.7787
10.064	64.6919
10.082	64.6275
10.1	64.5996
10.118	64.5982
10.136	64.6027
10.154	64.6004
10.172	64.5953
10.19	64.6003
10.208	64.6206
10.226	64.6461
10.244	64.6558
10.262	64.6317
10.28	64.5735
10.298	64.4999
10.316	64.4395
10.334	64.4145
10.352	64.4297
10.37	64.4741
10.388	64.5285
10.406	64.5781
10.424	64.616
10.442	64.6411
10.46	64.6532
10.478	64.6504
10.496	64.6329
10.514	64.6067
10.532	64.5841
10.55	64.575
10.568	64.5804
10.586	64.5913
10.604	64.5968
10.622	64.5921
10.64	64.5843
10.658	64.5863
10.676	64.607
10.694	64.6432
10.712	64.6827
10.73	64.7132
10.748	64.73
10.766	64.7372
10.784	64.7412
10.802	64.7445
10.82	64.7441
10.838	64.7345
10.856	64.7133
10.874	64.6824
10.892	64.6458
10.91	64.6062
10.928	64.5642
10.946	64.5223
10.964	64.4883
10.982	64.4747
11	64.4912
11.018	64.5367
11.036	64.5971
11.054	64.6491
11.072	64.6711
11.09	64.6507
11.108	64.591
11.126	64.5094
11.144	64.4288
11.162	64.3715
11.18	64.3487
11.198	64.36
11.216	64.3962
11.234	64.4454
11.252	64.4985
11.27	64.5522
11.288	64.6064
11.306	64.6598
11.324	64.7047
11.342	64.7279
11.36	64.7176
11.378	64.6706
11.396	64.5976
11.414	64.5214
11.432	64.4667
11.45	64.4478
11.468	64.4643
11.486	64.5027
11.504	64.5449
11.522	64.5761
11.54	64.5919
11.558	64.5962
11.576	64.5976
11.594	64.6016
11.612	64.6083
11.63	64.6127
11.648	64.6097
11.666	64.5972
11.684	64.5798
11.702	64.5662
11.72	64.5649
11.738	64.5795
11.756	64.6069
11.774	64.6379
11.792	64.662
11.81	64.6728
11.828	64.67
11.846	64.6589
11.864	64.6477
11.882	64.642
11.9	64.6416
11.918	64.64
11.936	64.6279
11.954	64.598
11.972	64.5483
11.99	64.4842
12.008	64.4154
12.026	64.3529
12.044	64.3057
12.062	64.2773
12.08	64.266
12.098	64.2665
12.116	64.2716
12.134	64.2744
12.152	64.2698
12.17	64.2556
12.188	64.2333
12.206	64.2067
12.224	64.1825
12.242	64.168
12.26	64.1696
12.278	64.1897
12.296	64.2264
12.314	64.2722
12.332	64.3168
12.35	64.3502
12.368	64.3654
12.386	64.3614
12.404	64.3425
12.422	64.317
12.44	64.2944
12.458	64.2822
12.476	64.2839
12.494	64.2986
12.512	64.3214
12.53	64.3444
12.548	64.3591
12.566	64.3587
12.584	64.3398
12.602	64.3031
12.62	64.2528
12.638	64.1959
12.656	64.1403
12.674	64.0927
12.692	64.0572
12.71	64.0346
12.728	64.0234
12.746	64.0208
12.764	64.0242
12.782	64.0324
12.8	64.0469
12.818	64.0708
12.836	64.1073
12.854	64.1578
12.872	64.2208
12.89	64.2915
12.908	64.3631
12.926	64.4279
12.944	64.4789
12.962	64.5122
12.98	64.5276
12.998	64.5274
13.016	64.5164
13.034	64.4993
13.052	64.4799
13.07	64.4599
13.088	64.4395
13.106	64.4183
13.124	64.3961
13.142	64.3748
13.16	64.3587
13.178	64.3552
13.196	64.372
13.214	64.4166
13.232	64.4942
13.25	64.6057
13.268	64.7459
13.286	64.9039
13.304	65.0649
13.322	65.211
13.34	65.3251
13.358	65.3931
13.376	65.4072
13.394	65.3665
13.412	65.2777
13.43	65.1536
13.448	65.0102
13.466	64.8648
13.484	64.7319
13.502	64.6217
13.52	64.5387
13.538	64.4816
13.556	64.4448
13.574	64.4196
13.592	64.3967
13.61	64.3682
13.628	64.3284
13.646	64.2746
13.664	64.2063
13.682	64.1246
13.7	64.032
13.718	63.9313
13.736	63.8255
13.754	63.7173
13.772	63.6101
13.79	63.5078
13.808	63.4157
13.826	63.3388
13.844	63.2825
13.862	63.2515
13.88	63.2488
13.898	63.2742
13.916	63.3247
13.934	63.3949
13.952	63.4774
13.97	63.5641
13.988	63.6474
14.006	63.7216
14.024	63.7835
14.042	63.8337
14.06	63.8753
14.078	63.9129
14.096	63.9513
14.114	63.9946
14.132	64.0449
14.15	64.1016
14.168	64.161
14.186	64.2172
14.204	64.2637
14.222	64.2937
14.24	64.3028
14.258	64.2889
14.276	64.2535
14.294	64.2007
14.312	64.1363
14.33	64.0668
14.348	63.9986
14.366	63.9367
14.384	63.8846
14.402	63.843
14.42	63.8107
14.438	63.7862
14.456	63.7671
14.474	63.7512
14.492	63.7365
14.51	63.7219
14.528	63.7069
14.546	63.6915
14.564	63.6758
14.582	63.6599
14.6	63.6433
14.618	63.6253
14.636	63.6056
14.654	63.584
14.672	63.5607
14.69	63.5361
14.708	63.511
14.726	63.4861
14.744	63.4627
14.762	63.4412
14.78	63.4219
14.798	63.4051
14.816	63.3911
14.834	63.3803
14.852	63.3731
14.87	63.3702
14.888	63.3721
14.906	63.3789
14.924	63.3909
14.942	63.4076
14.96	63.4286
14.978	63.4533
14.996	63.4809
15.014	63.5112
15.032	63.5442
15.05	63.5799
15.068	63.6186
15.086	63.6604
15.104	63.7051
15.122	63.752
15.14	63.7994
15.158	63.845
15.176	63.886
15.194	63.919
15.212	63.9408
15.23	63.949
15.248	63.9425
15.266	63.9206
15.284	63.885
15.302	63.8385
15.32	63.7842
15.338	63.7256
15.356	63.6664
15.374	63.6098
15.392	63.5582
15.41	63.5132
15.428	63.4761
15.446	63.4474
15.464	63.4276
15.482	63.4167
15.5	63.4146
15.518	63.4212
15.536	63.4357
15.554	63.4573
15.572	63.4844
15.59	63.5149
15.608	63.5469
15.626	63.5783
15.644	63.6069
15.662	63.6304
15.68	63.6476
15.698	63.6578
15.716	63.6611
15.734	63.6584
15.752	63.6508
15.77	63.6397
15.788	63.6269
15.806	63.6141
15.824	63.6024
15.842	63.5929
15.86	63.5856
15.878	63.5809
15.896	63.5787
15.914	63.579
15.932	63.5821
15.95	63.5882
15.968	63.5976
15.986	63.6109
16.004	63.6284
16.022	63.6503
16.04	63.6764
16.058	63.706
16.076	63.7386
16.094	63.7724
16.112	63.806
16.13	63.8382
16.148	63.8674
16.166	63.8922
16.184	63.9121
16.202	63.9264
16.22	63.9347
16.238	63.9373
16.256	63.9344
16.274	63.9265
16.292	63.9137
16.31	63.8963
16.328	63.8743
16.346	63.8473
16.364	63.8154
16.382	63.7778
16.4	63.7345
16.418	63.6853
16.436	63.6301
16.454	63.5693
16.472	63.5031
16.49	63.4325
16.508	63.359
16.526	63.2834
16.544	63.2075
16.562	63.1329
16.58	63.0607
16.598	62.9924
16.616	62.9293
16.634	62.8722
16.652	62.8222
16.67	62.78
16.688	62.7462
16.706	62.7214
16.724	62.7059
16.742	62.7001
16.76	62.7036
16.778	62.7161
16.796	62.737
16.814	62.7644
16.832	62.7973
16.85	62.833
16.868	62.8691
16.886	62.9036
16.904	62.9333
16.922	62.9571
16.94	62.9733
16.958	62.9817
16.976	62.9822
16.994	62.9761
17.012	62.9649
17.03	62.9498
17.048	62.9339
17.066	62.918
17.084	62.9039
17.102	62.8923
17.12	62.8834
17.138	62.8764
17.156	62.8697
17.174	62.8622
17.192	62.8508
17.21	62.8344
17.228	62.8105
17.246	62.7785
17.264	62.7376
17.282	62.6884
17.3	62.6318
17.318	62.57
17.336	62.5062
17.354	62.4425
17.372	62.3837
17.39	62.3314
17.408	62.2895
17.426	62.2598
17.444	62.2435
17.462	62.2416
17.48	62.2537
17.498	62.2792
17.516	62.3162
17.534	62.3633
17.552	62.4172
17.57	62.4769
17.588	62.5383
17.606	62.5998
17.624	62.6586
17.642	62.712
17.66	62.7589
17.678	62.7963
17.696	62.8239
17.714	62.84
17.732	62.8449
17.75	62.8382
17.768	62.8212
17.786	62.7944
17.804	62.7604
17.822	62.7201
17.84	62.6767
17.858	62.632
17.876	62.5884
17.894	62.5484
17.912	62.513
17.93	62.4846
17.948	62.4636
17.966	62.4508
17.984	62.446
18.002	62.449
18.02	62.4587
18.038	62.4744
18.056	62.4942
18.074	62.5175
18.092	62.5423
18.11	62.5682
18.128	62.5936
18.146	62.6183
18.164	62.6413
18.182	62.6624
18.2	62.6813
18.218	62.6978
18.236	62.7117
18.254	62.7227
18.272	62.7307
18.29	62.7352
18.308	62.736
18.326	62.7327
18.344	62.7253
18.362	62.7134
18.38	62.6974
18.398	62.6774
18.416	62.6543
18.434	62.629
18.452	62.6026
18.47	62.576
18.488	62.551
18.506	62.5283
18.524	62.5093
18.542	62.4945
18.56	62.4844
18.578	62.4791
18.596	62.4781
18.614	62.4814
18.632	62.4873
18.65	62.4959
18.668	62.5051
18.686	62.5149
18.704	62.5234
18.722	62.5305
18.74	62.5354
18.758	62.5384
18.776	62.5395
18.794	62.5394
18.812	62.5389
18.83	62.5388
18.848	62.5405
18.866	62.5443
18.884	62.5512
18.902	62.561
18.92	62.574
18.938	62.589
18.956	62.6053
18.974	62.6213
18.992	62.6352
19.01	62.6456
19.028	62.6502
19.046	62.6483
19.064	62.6376
19.082	62.6184
19.1	62.5895
19.118	62.5519
19.136	62.506
19.154	62.4531
19.172	62.3955
19.19	62.3345
19.208	62.2738
19.226	62.214
19.244	62.1592
19.262	62.1093
19.28	62.0677
19.298	62.0341
19.316	62.0103
19.334	61.996
19.352	61.991
19.37	61.9953
19.388	62.0066
19.406	62.0251
19.424	62.0475
19.442	62.0739
19.46	62.1011
19.478	62.1288
19.496	62.1548
19.514	62.1783
19.532	62.1983
19.55	62.2138
19.568	62.2248
19.586	62.2308
19.604	62.232
19.622	62.2285
19.64	62.2204
19.658	62.2088
19.676	62.1937
19.694	62.1765
19.712	62.1571
19.73	62.137
19.748	62.1164
19.766	62.0964
19.784	62.0772
19.802	62.0598
19.82	62.0445
19.838	62.0317
19.856	62.0223
19.874	62.0159
19.892	62.0129
19.91	62.0132
19.928	62.0163
19.946	62.0225
19.964	62.0302
19.982	62.0395
20	62.0487
20.018	62.0572
20.036	62.0639
20.054	62.0667
20.072	62.0657
20.09	62.0582
20.108	62.0445
20.126	62.0226
20.144	61.9926
20.162	61.9538
20.18	61.9058
20.198	61.8491
20.216	61.7841
20.234	61.7111
20.252	61.632
20.27	61.5462
20.288	61.457
20.306	61.3641
20.324	61.2699
20.342	61.1759
20.36	61.0821
20.378	60.9907
20.396	60.9011
20.414	60.8147
20.432	60.7314
20.45	60.651
20.468	60.5738
20.486	60.4995
20.504	60.428
20.522	60.3592
20.54	60.2925
20.558	60.2276
20.576	60.1651
20.594	60.1047
20.612	60.0472
20.63	59.994
20.648	59.9446
20.666	59.902
20.684	59.8659
20.702	59.8383
20.72	59.8205
20.738	59.8126
20.756	59.8167
20.774	59.8325
20.792	59.8601
20.81	59.9001
20.828	59.9511
20.846	60.0122
20.864	60.0835
20.882	60.1606
20.9	60.2446
20.918	60.3314
20.936	60.4186
20.954	60.506
20.972	60.5879
20.99	60.6654
21.008	60.7347
21.026	60.7939
21.044	60.8431
21.062	60.8796
21.08	60.9039
21.098	60.916
21.116	60.915
21.134	60.9023
21.152	60.8794
21.17	60.8457
21.188	60.8049
21.206	60.7571
21.224	60.704
21.242	60.6496
21.26	60.5927
21.278	60.5373
21.296	60.4839
21.314	60.4334
21.332	60.3885
21.35	60.3483
21.368	60.3147
21.386	60.288
21.404	60.2683
21.422	60.2563
21.44	60.2521
21.458	60.2555
21.476	60.2666
21.494	60.2854
21.512	60.3122
21.53	60.3467
21.548	60.3893
21.566	60.4402
21.584	60.4994
21.602	60.5679
21.62	60.6455
21.638	60.7326
21.656	60.8299
21.674	60.9371
21.692	61.0546
21.71	61.1826
21.728	61.3208
21.746	61.4685
21.764	61.6262
21.782	61.7921
21.8	61.9653
21.818	62.1459
21.836	62.33
21.854	62.5181
21.872	62.7083
21.89	62.8956
21.908	63.0821
21.926	63.263
21.944	63.4352
21.962	63.6
21.98	63.7516
21.998	63.8899
22.016	64.0141
22.034	64.1207
22.052	64.2105
22.07	64.2826
22.088	64.3354
22.106	64.3698
22.124	64.3866
22.142	64.3855
22.16	64.3675
22.178	64.3356
22.196	64.2883
22.214	64.2287
22.232	64.1607
22.25	64.0824
22.268	63.9978
22.286	63.9094
22.304	63.8159
22.322	63.7214
22.34	63.6266
22.358	63.5312
22.376	63.4372
22.394	63.3447
22.412	63.2531
22.43	63.1627
22.448	63.0736
22.466	62.9847
22.484	62.8953
22.502	62.8059
22.52	62.7148
22.538	62.6216
22.556	62.5265
22.574	62.4286
22.592	62.3274
22.61	62.2235
22.628	62.117
22.646	62.0074
22.664	61.8958
22.682	61.7838
22.7	61.6702
22.718	61.5571
22.736	61.4467
22.754	61.3374
22.772	61.232
22.79	61.1329
22.808	61.0386
22.826	60.9515
22.844	60.8735
22.862	60.8036
22.88	60.7421
22.898	60.6897
22.916	60.6461
22.934	60.6097
22.952	60.5805
22.97	60.5584
22.988	60.5402
23.006	60.5259
23.024	60.5153
23.042	60.5045
23.06	60.4938
23.078	60.4827
23.096	60.4669
23.114	60.4462
23.132	60.4209
23.15	60.3883
23.168	60.3482
23.186	60.3011
23.204	60.2465
23.222	60.1835
23.24	60.1136
23.258	60.0394
23.276	59.9597
23.294	59.876
23.312	59.7925
23.33	59.7077
23.348	59.6232
23.366	59.5449
23.384	59.4714
23.402	59.404
23.42	59.3497
23.438	59.3089
23.456	59.2808
23.474	59.2697
23.492	59.2773
23.51	59.3017
23.528	59.3424
23.546	59.4004
23.564	59.4749
23.582	59.5616
23.6	59.6599
23.618	59.7708
23.636	59.8877
23.654	60.008
23.672	60.1347
23.69	60.2596
23.708	60.3775
23.726	60.4929
23.744	60.5987
23.762	60.6885
23.78	60.7667
23.798	60.8286
23.816	60.8682
23.834	60.8879
23.852	60.8866
23.87	60.861
23.888	60.8109
23.906	60.7376
23.924	60.6421
23.942	60.5227
23.96	60.381
23.978	60.2223
23.996	60.047
24.014	59.8537
24.032	59.6507
24.05	59.4426
24.068	59.2241
24.086	59.0049
24.104	58.7939
24.122	58.5842
24.14	58.3834
24.158	58.2022
24.176	58.0364
24.194	57.8886
24.212	57.769
24.23	57.6791
24.248	57.6159
24.266	57.5864
24.284	57.595
24.302	57.6379
24.32	57.7176
24.338	57.8366
24.356	57.9942
24.374	58.1895
24.392	58.4225
24.41	58.6949
24.428	59.0046
24.446	59.3471
24.464	59.7226
24.482	60.1329
24.5	60.5686
24.518	61.0222
24.536	61.5008
24.554	61.9961
24.572	62.4965
24.59	63.0068
24.608	63.5247
24.626	64.0361
24.644	64.5347
24.662	65.0277
24.68	65.5069
24.698	65.9647
24.716	66.4071
24.734	66.8294
24.752	67.2229
24.77	67.5837
24.788	67.9164
24.806	68.2247
24.824	68.5091
24.842	68.7636
24.86	69.0015
24.878	69.2376
24.896	69.4616
24.914	69.6797
24.932	69.916
24.95	70.1804
24.968	70.4565
24.986	70.7696
25.004	71.1465
25.022	71.575
25.04	72.0587
25.058	72.6174
25.076	73.2615
25.094	73.9803
25.112	74.7783
25.13	75.661
25.148	76.6351
25.166	77.6894
25.184	78.808
25.202	79.9896
25.22	81.247
25.238	82.5468
25.256	83.8557
25.274	85.198
25.292	86.56
25.31	87.8964
25.328	89.1843
25.346	90.4565
25.364	91.6758
25.382	92.7988
25.4	93.8349
25.418	94.7905
25.436	95.6357
25.454	96.347
25.472	96.9399
25.49	97.412
25.508	97.7559
25.526	97.9647
25.544	98.0433
25.562	98.0032
25.58	97.8546
25.598	97.5825
25.616	97.2001
25.634	96.7345
25.652	96.1988
25.67	95.5698
25.688	94.8767
25.706	94.1539
25.724	93.3986
25.742	92.5993
25.76	91.7886
25.778	90.9969
25.796	90.2039
25.814	89.4171
25.832	88.663
25.85	87.9599
25.868	87.2907
25.886	86.6628
25.904	86.0879
25.922	85.5701
25.94	85.1029
25.958	84.6886
25.976	84.3299
25.994	84.0331
26.012	83.7922
26.03	83.5944
26.048	83.43
26.066	83.315
26.084	83.2356
26.102	83.1677
26.12	83.0987
26.138	83.0523
26.156	83.0038
26.174	82.9222
26.192	82.8006
26.21	82.6607
26.228	82.4742
26.246	82.2113
26.264	81.8736
26.282	81.4737
26.3	80.991
26.318	80.4053
26.336	79.7212
26.354	78.9441
26.372	78.0676
26.39	77.0852
26.408	75.9925
26.426	74.7983
26.444	73.5138
26.462	72.1463
26.48	70.6766
26.498	69.1236
26.516	67.5165
26.534	65.874
26.552	64.1651
26.57	62.4154
26.588	60.6617
26.606	58.9253
26.624	57.1724
26.642	55.4287
26.66	53.7283
26.678	52.0891
26.696	50.4826
26.714	48.9285
26.732	47.4515
26.75	46.0658
26.768	44.7542
26.786	43.5215
26.804	42.3749
26.822	41.3197
26.84	40.3523
26.858	39.4685
26.876	38.664
26.894	37.9394
26.912	37.3004
26.93	36.7358
26.948	36.2331
26.966	35.78
26.984	35.3775
27.002	35.0414
27.02	34.7878
27.028	34.7146