File: Bakgrunnsmateriale/MATLAB/FTIR/ftir_data/subBb/Mapping_121/C-4040-8_t110.asc
PE IR       SPECTRUM    SPECTRUM    ASCII       PEDS        1.60
  -1
C-8CB8~1.ASC
17/03/27
23:28:56.00
17/03/27
23:29:23.00
tln
$C-4040-8_t0110$<tbV0>[-13.0,10.4,8.0,0.0,27,1,0]
27.028
64

2002,4.07
MIRTGS : RIGHTBACK : INTERNAL 2
MIR : ON : INTERNAL 2
OPTKBR

0.200000
8
8.000000
FILLER
RATIO
SPECTRUM
UNLOCKED 256

DOUBLE
64
COMBINED
1
0
0

0.002000
RATIO

1
0
TRUE
51149
0
LEFT NOT FITTED RIGHT NOT FITTED 0
NONE
NONE
15600
12
4.427000
51148
TRUE
1 0 8 72 0 0 0 0

15798

#HDR
-1
-1
#GR
µM
%T
2.38419e-05
0.0
2.000000
0.002000
12515
8
189.675
46.225
#DATA
2.000000	 65.4393
2.018000	 65.3557
2.036000	 65.4812
2.054000	 65.3936
2.072000	 64.5551
2.090000	 65.184
2.108000	 64.649
2.126000	 65.0794
2.144000	 64.9727
2.162000	 65.0317
2.180000	 65.2863
2.198000	 64.7495
2.216000	 64.6198
2.234000	 64.8758
2.252000	 65.0264
2.270000	 61.9081
2.288000	 65.5688
2.306000	 64.538
2.324000	 64.4276
2.342000	 64.8294
2.360000	 64.5595
2.378000	 64.8305
2.396000	 64.9065
2.414000	 64.7852
2.432000	 65.023
2.450000	 64.9042
2.468000	 65.0472
2.486000	 65.2325
2.504000	 65.0995
2.522000	 65.3028
2.540000	 64.8773
2.558000	 65.1346
2.576000	 64.9988
2.594000	 65.2783
2.612000	 64.8933
2.630000	 64.9027
2.648000	 65.0779
2.666000	 65.1801
2.684000	 65.1879
2.702000	 65.2653
2.720000	 64.7923
2.738000	 65.0069
2.756000	 65.1987
2.774000	 64.9674
2.792000	 65.1895
2.810000	 65.0166
2.828000	 65.1784
2.846000	 65.3978
2.864000	 65.1267
2.882000	 64.9114
2.900000	 64.8187
2.918000	 65.116
2.936000	 65.2797
2.954000	 64.9176
2.972000	 65.0234
2.990000	 65.2919
3.008000	 65.0209
3.026000	 65.0284
3.044000	 65.1588
3.062000	 65.176
3.080000	 65.1293
3.098000	 65.21
3.116000	 65.1631
3.134000	 64.9404
3.152000	 65.0384
3.170000	 65.0437
3.188000	 65.0092
3.206000	 65.002
3.224000	 65.3399
3.242000	 65.071
3.260000	 65.1458
3.278000	 65.0354
3.296000	 65.2007
3.314000	 65.0435
3.332000	 65.3375
3.350000	 64.9912
3.368000	 64.96
3.386000	 64.9159
3.404000	 65.1304
3.422000	 64.6322
3.440000	 64.8458
3.458000	 64.8589
3.476000	 64.9309
3.494000	 65.0742
3.512000	 64.7139
3.530000	 65.2293
3.548000	 65.0967
3.566000	 65.0712
3.584000	 65.2599
3.602000	 65.2319
3.620000	 65.2327
3.638000	 65.1635
3.656000	 65.2543
3.674000	 65.2371
3.692000	 65.1523
3.710000	 65.2406
3.728000	 65.2233
3.746000	 65.2745
3.764000	 65.2336
3.782000	 65.249
3.800000	 65.1321
3.818000	 65.2443
3.836000	 65.1104
3.854000	 65.1164
3.872000	 65.2128
3.890000	 65.1684
3.908000	 65.1265
3.926000	 65.2918
3.944000	 65.2205
3.962000	 65.0557
3.980000	 65.425
3.998000	 65.3671
4.016000	 65.3595
4.034000	 65.347
4.052000	 65.3778
4.070000	 65.2828
4.088000	 65.0441
4.106000	 64.9966
4.124000	 64.6925
4.141999	 65.2054
4.160000	 65.0704
4.178000	 65.2943
4.196000	 65.2349
4.214000	 65.3537
4.232000	 65.1767
4.250000	 65.0596
4.268000	 65.0169
4.286000	 65.2061
4.304000	 65.167
4.322000	 65.2594
4.340000	 65.2923
4.358000	 65.3
4.375999	 65.2185
4.394000	 65.3195
4.412000	 65.0913
4.430000	 65.136
4.448000	 65.2191
4.466000	 65.2121
4.484000	 65.2312
4.502000	 65.2539
4.520000	 65.0773
4.538000	 65.2553
4.556000	 65.2419
4.574000	 65.2309
4.592000	 65.2957
4.609999	 65.2768
4.628000	 65.3262
4.646000	 65.2604
4.664000	 64.8394
4.682000	 64.9462
4.700000	 65.1791
4.718000	 65.3055
4.736000	 65.3616
4.754000	 65.2176
4.772000	 65.2154
4.790000	 65.1148
4.808000	 65.1379
4.826000	 65.55
4.843999	 65.5312
4.862000	 64.9966
4.880000	 64.9842
4.898000	 65.3113
4.916000	 65.2089
4.934000	 65.2798
4.952000	 65.2668
4.970000	 65.3225
4.988000	 65.2976
5.006000	 65.242
5.024000	 65.2348
5.042000	 65.2891
5.060000	 65.274
5.077999	 65.3748
5.096000	 65.2718
5.114000	 65.1428
5.132000	 65.1499
5.150000	 65.2336
5.168000	 65.2663
5.186000	 65.2833
5.204000	 65.2729
5.222000	 65.217
5.240000	 65.2084
5.258000	 65.3646
5.276000	 65.3427
5.294000	 65.2247
5.312000	 65.1325
5.330000	 65.0712
5.348000	 65.1448
5.366000	 65.1589
5.384000	 65.1062
5.402000	 65.0993
5.420000	 65.2932
5.438000	 65.3635
5.456000	 65.2981
5.474000	 65.3363
5.492000	 65.3392
5.510000	 65.3544
5.528000	 65.2568
5.546000	 65.2254
5.564000	 65.1841
5.582000	 65.1553
5.600000	 65.1848
5.618000	 65.1864
5.636000	 65.2484
5.654000	 65.2623
5.672000	 65.2333
5.690000	 65.2327
5.708000	 65.1702
5.726000	 65.0749
5.744000	 65.0933
5.762000	 64.9386
5.780000	 64.9009
5.798000	 65.1228
5.816000	 64.9919
5.834000	 64.993
5.852000	 65.1438
5.870000	 65.2532
5.888000	 65.2662
5.906000	 65.2394
5.923999	 65.1945
5.942000	 65.1977
5.960000	 65.1865
5.978000	 65.1277
5.996000	 65.0837
6.014000	 65.1643
6.032000	 65.1141
6.050000	 64.9771
6.068000	 65.0119
6.086000	 65.2087
6.104000	 65.3411
6.122000	 65.1866
6.140000	 65.0224
6.158000	 65.0695
6.176000	 65.1546
6.194000	 65.0729
6.212000	 65.0385
6.230000	 65.0271
6.248000	 65.0185
6.266000	 65.0957
6.284000	 65.1066
6.302000	 65.0444
6.320000	 65.0689
6.338000	 65.025
6.356000	 64.8687
6.374000	 64.8868
6.392000	 64.946
6.410000	 64.9988
6.428000	 65.0817
6.446000	 65.0697
6.464000	 65.0254
6.482000	 65.0201
6.500000	 65.0717
6.518000	 65.1338
6.536000	 65.1098
6.554000	 65.0619
6.572000	 65.0643
6.590000	 65.0223
6.608000	 64.9483
6.626000	 64.9768
6.644000	 65.0708
6.662000	 65.1825
6.680000	 65.3026
6.698000	 65.2789
6.716000	 65.1147
6.734000	 65.0193
6.752000	 65.0216
6.770000	 65.0346
6.788000	 65.0427
6.806000	 65.0636
6.824000	 65.0781
6.842000	 65.045
6.860000	 64.9847
6.878000	 64.9659
6.896000	 65.013
6.914000	 65.0896
6.932000	 65.1083
6.950000	 65.0737
6.968000	 65.0549
6.986000	 65.0042
7.004000	 64.9529
7.022000	 64.9954
7.040000	 65.0613
7.058000	 65.0755
7.076000	 65.0651
7.094000	 65.0825
7.112000	 65.1049
7.130000	 65.0774
7.148000	 65.037
7.166000	 65.0066
7.184000	 64.9585
7.202000	 64.926
7.220000	 64.9314
7.238000	 64.9285
7.256000	 64.893
7.274000	 64.8678
7.292000	 64.8868
7.310000	 64.9362
7.328000	 64.9751
7.346000	 64.9734
7.364000	 64.9613
7.382000	 64.9996
7.400000	 65.0858
7.418000	 65.136
7.436000	 65.0817
7.454000	 64.9604
7.472000	 64.8568
7.490000	 64.8071
7.508000	 64.8067
7.526000	 64.8279
7.544000	 64.8377
7.562000	 64.8309
7.580000	 64.8067
7.598000	 64.7483
7.616000	 64.668
7.634000	 64.6206
7.652000	 64.6408
7.670000	 64.6996
7.688000	 64.7405
7.706000	 64.757
7.724000	 64.7965
7.742000	 64.8626
7.760000	 64.889
7.778000	 64.8462
7.796000	 64.7863
7.814000	 64.7617
7.832000	 64.7686
7.850000	 64.7704
7.868000	 64.7431
7.886000	 64.7134
7.904000	 64.7316
7.922000	 64.8035
7.940000	 64.8934
7.958000	 64.9742
7.976000	 65.0222
7.994000	 65.0131
8.012000	 64.968
8.030000	 64.9375
8.048000	 64.9226
8.065999	 64.8823
8.084000	 64.8189
8.102000	 64.7861
8.120000	 64.8042
8.138000	 64.8328
8.155999	 64.8379
8.173999	 64.836
8.192000	 64.8555
8.210000	 64.8889
8.228000	 64.8998
8.246000	 64.8669
8.263999	 64.805
8.282000	 64.7478
8.300000	 64.7207
8.318000	 64.732
8.336000	 64.7719
8.353999	 64.809
8.372000	 64.8122
8.390000	 64.7926
8.408000	 64.7849
8.426000	 64.7971
8.443999	 64.8091
8.462000	 64.8078
8.480000	 64.7956
8.498000	 64.7826
8.516000	 64.7893
8.533999	 64.8395
8.552000	 64.9243
8.570000	 64.9946
8.588000	 65.0113
8.606000	 64.9825
8.624000	 64.938
8.641999	 64.886
8.660000	 64.8193
8.678000	 64.7473
8.696000	 64.6924
8.714000	 64.658
8.731999	 64.6267
8.750000	 64.5931
8.768000	 64.5786
8.786000	 64.6049
8.804000	 64.6645
8.821999	 64.7241
8.840000	 64.7501
8.858000	 64.7339
8.876000	 64.6973
8.894000	 64.6737
8.911999	 64.6817
8.930000	 64.7114
8.948000	 64.7444
8.966000	 64.7787
8.984000	 64.8172
9.001999	 64.8471
9.020000	 64.8475
9.038000	 64.816
9.056000	 64.7669
9.074000	 64.7097
9.092000	 64.6482
9.109999	 64.6023
9.128000	 64.6058
9.146000	 64.6592
9.164000	 64.7091
9.182000	 64.7044
9.199999	 64.659
9.218000	 64.6385
9.236000	 64.6854
9.254000	 64.7769
9.272000	 64.8537
9.289999	 64.8768
9.308000	 64.8472
9.326000	 64.7835
9.344000	 64.7071
9.362000	 64.6418
9.379999	 64.6066
9.398000	 64.5997
9.416000	 64.5963
9.434000	 64.5709
9.452000	 64.524
9.469999	 64.4881
9.488000	 64.4998
9.506000	 64.5633
9.524000	 64.6381
9.542000	 64.6703
9.560000	 64.6349
9.577999	 64.5521
9.596000	 64.4683
9.614000	 64.4233
9.632000	 64.4334
9.650000	 64.495
9.667999	 64.5956
9.686000	 64.7202
9.704000	 64.8493
9.722000	 64.9554
9.740000	 65.0101
9.757999	 64.9966
9.776000	 64.9205
9.794000	 64.8047
9.812000	 64.6766
9.830000	 64.56
9.847999	 64.4723
9.866000	 64.4243
9.884000	 64.4161
9.902000	 64.4329
9.920000	 64.4479
9.937999	 64.4342
9.956000	 64.3833
9.974000	 64.3113
9.992000	 64.2537
10.01	64.2463
10.028	64.3085
10.046	64.4317
10.064	64.5842
10.082	64.7242
10.1	64.8142
10.118	64.8362
10.136	64.7948
10.154	64.7119
10.172	64.6156
10.19	64.528
10.208	64.4607
10.226	64.4171
10.244	64.3976
10.262	64.4038
10.28	64.4347
10.298	64.4808
10.316	64.5226
10.334	64.5369
10.352	64.5099
10.37	64.4468
10.388	64.3738
10.406	64.3236
10.424	64.3207
10.442	64.3678
10.46	64.4453
10.478	64.5217
10.496	64.5696
10.514	64.5763
10.532	64.5481
10.55	64.5039
10.568	64.4649
10.586	64.4457
10.604	64.4491
10.622	64.4674
10.64	64.4881
10.658	64.5016
10.676	64.5077
10.694	64.5152
10.712	64.5368
10.73	64.5816
10.748	64.6504
10.766	64.7354
10.784	64.8264
10.802	64.9142
10.82	64.9914
10.838	65.0484
10.856	65.0724
10.874	65.0477
10.892	64.9674
10.91	64.8413
10.928	64.6978
10.946	64.5752
10.964	64.5017
10.982	64.4834
11	64.5
11.018	64.5151
11.036	64.4972
11.054	64.434
11.072	64.3399
11.09	64.249
11.108	64.1961
11.126	64.2052
11.144	64.2777
11.162	64.3932
11.18	64.5197
11.198	64.6218
11.216	64.6731
11.234	64.6615
11.252	64.5917
11.27	64.481
11.288	64.3542
11.306	64.2362
11.324	64.1486
11.342	64.1059
11.36	64.1139
11.378	64.1718
11.396	64.2716
11.414	64.398
11.432	64.5315
11.45	64.6515
11.468	64.7383
11.486	64.7809
11.504	64.7799
11.522	64.7496
11.54	64.7119
11.558	64.6928
11.576	64.7123
11.594	64.7761
11.612	64.8761
11.63	64.9901
11.648	65.0899
11.666	65.1481
11.684	65.1443
11.702	65.0705
11.72	64.9307
11.738	64.741
11.756	64.5239
11.774	64.3055
11.792	64.1114
11.81	63.96
11.828	63.8613
11.846	63.8164
11.864	63.8175
11.882	63.8536
11.9	63.9148
11.918	63.9965
11.936	64.0985
11.954	64.2223
11.972	64.3669
11.99	64.5235
12.008	64.6764
12.026	64.8036
12.044	64.8818
12.062	64.8907
12.08	64.8192
12.098	64.6695
12.116	64.4582
12.134	64.215
12.152	63.9766
12.17	63.7762
12.188	63.6376
12.206	63.5691
12.224	63.5621
12.242	63.5963
12.26	63.6473
12.278	63.6942
12.296	63.7246
12.314	63.7367
12.332	63.737
12.35	63.735
12.368	63.7399
12.386	63.7554
12.404	63.7808
12.422	63.8122
12.44	63.8461
12.458	63.8805
12.476	63.9172
12.494	63.9591
12.512	64.0082
12.53	64.0631
12.548	64.1178
12.566	64.1636
12.584	64.1901
12.602	64.1894
12.62	64.16
12.638	64.1064
12.656	64.0372
12.674	63.964
12.692	63.8972
12.71	63.8438
12.728	63.8055
12.746	63.7798
12.764	63.7613
12.782	63.7447
12.8	63.726
12.818	63.7043
12.836	63.6818
12.854	63.6638
12.872	63.6545
12.89	63.6578
12.908	63.6747
12.926	63.7029
12.944	63.7371
12.962	63.772
12.98	63.8034
12.998	63.8285
13.016	63.847
13.034	63.8605
13.052	63.8714
13.07	63.8819
13.088	63.8936
13.106	63.9071
13.124	63.9222
13.142	63.9376
13.16	63.9508
13.178	63.9581
13.196	63.9567
13.214	63.944
13.232	63.9192
13.25	63.8831
13.268	63.8387
13.286	63.7891
13.304	63.7363
13.322	63.6803
13.34	63.6191
13.358	63.5484
13.376	63.4634
13.394	63.3602
13.412	63.2383
13.43	63.1015
13.448	62.9588
13.466	62.8219
13.484	62.7039
13.502	62.6161
13.52	62.5661
13.538	62.5562
13.556	62.5834
13.574	62.641
13.592	62.7201
13.61	62.8119
13.628	62.9081
13.646	63.0019
13.664	63.0883
13.682	63.1628
13.7	63.2229
13.718	63.2669
13.736	63.2953
13.754	63.3105
13.772	63.3161
13.79	63.3169
13.808	63.3167
13.826	63.3191
13.844	63.3249
13.862	63.3326
13.88	63.338
13.898	63.3353
13.916	63.319
13.934	63.2844
13.952	63.2292
13.97	63.1551
13.988	63.0676
14.006	62.9751
14.024	62.8876
14.042	62.8152
14.06	62.7661
14.078	62.745
14.096	62.7527
14.114	62.7859
14.132	62.8384
14.15	62.9017
14.168	62.9668
14.186	63.0254
14.204	63.0703
14.222	63.0975
14.24	63.1068
14.258	63.1007
14.276	63.0841
14.294	63.0623
14.312	63.0407
14.33	63.0235
14.348	63.0134
14.366	63.0109
14.384	63.0149
14.402	63.0239
14.42	63.036
14.438	63.0502
14.456	63.0662
14.474	63.0846
14.492	63.1069
14.51	63.1348
14.528	63.1692
14.546	63.21
14.564	63.2558
14.582	63.3044
14.6	63.3524
14.618	63.3961
14.636	63.4312
14.654	63.4544
14.672	63.4635
14.69	63.4576
14.708	63.4365
14.726	63.4011
14.744	63.3534
14.762	63.2959
14.78	63.2315
14.798	63.1642
14.816	63.0981
14.834	63.0379
14.852	62.9888
14.87	62.9541
14.888	62.9366
14.906	62.9374
14.924	62.9557
14.942	62.9881
14.96	63.0289
14.978	63.0716
14.996	63.1092
15.014	63.135
15.032	63.1428
15.05	63.1293
15.068	63.0937
15.086	63.0374
15.104	62.9638
15.122	62.8791
15.14	62.7905
15.158	62.7044
15.176	62.6273
15.194	62.5651
15.212	62.5218
15.23	62.4992
15.248	62.4975
15.266	62.5154
15.284	62.55
15.302	62.5967
15.32	62.6508
15.338	62.7072
15.356	62.7602
15.374	62.8035
15.392	62.8331
15.41	62.846
15.428	62.8393
15.446	62.8136
15.464	62.7709
15.482	62.7142
15.5	62.6484
15.518	62.5803
15.536	62.516
15.554	62.4608
15.572	62.4201
15.59	62.3978
15.608	62.3949
15.626	62.411
15.644	62.4443
15.662	62.49
15.68	62.5434
15.698	62.5999
15.716	62.6537
15.734	62.7006
15.752	62.7382
15.77	62.7645
15.788	62.7792
15.806	62.7837
15.824	62.7799
15.842	62.7704
15.86	62.7586
15.878	62.747
15.896	62.7379
15.914	62.7331
15.932	62.7336
15.95	62.7395
15.968	62.7503
15.986	62.7645
16.004	62.7803
16.022	62.7954
16.04	62.8072
16.058	62.8134
16.076	62.8125
16.094	62.8028
16.112	62.7841
16.13	62.7564
16.148	62.7204
16.166	62.6778
16.184	62.6302
16.202	62.5796
16.22	62.5289
16.238	62.4794
16.256	62.4328
16.274	62.3904
16.292	62.352
16.31	62.3178
16.328	62.287
16.346	62.2591
16.364	62.2335
16.382	62.2098
16.4	62.1885
16.418	62.1699
16.436	62.1557
16.454	62.1472
16.472	62.1456
16.49	62.1529
16.508	62.1696
16.526	62.1958
16.544	62.2306
16.562	62.2713
16.58	62.3161
16.598	62.3606
16.616	62.4015
16.634	62.4361
16.652	62.4603
16.67	62.473
16.688	62.4725
16.706	62.4589
16.724	62.4334
16.742	62.397
16.76	62.3532
16.778	62.3037
16.796	62.2517
16.814	62.1995
16.832	62.1484
16.85	62.1001
16.868	62.0545
16.886	62.0118
16.904	61.9714
16.922	61.9329
16.94	61.8957
16.958	61.8599
16.976	61.8257
16.994	61.7941
17.012	61.7668
17.03	61.7448
17.048	61.7309
17.066	61.7261
17.084	61.732
17.102	61.7492
17.12	61.7779
17.138	61.8168
17.156	61.8637
17.174	61.9167
17.192	61.9708
17.21	62.0237
17.228	62.0703
17.246	62.1071
17.264	62.1315
17.282	62.1397
17.3	62.1314
17.318	62.1048
17.336	62.0615
17.354	62.0019
17.372	61.93
17.39	61.8477
17.408	61.7597
17.426	61.6702
17.444	61.5819
17.462	61.5002
17.48	61.4265
17.498	61.3649
17.516	61.3161
17.534	61.2816
17.552	61.2609
17.57	61.2538
17.588	61.2584
17.606	61.2731
17.624	61.2955
17.642	61.3228
17.66	61.3535
17.678	61.3839
17.696	61.4133
17.714	61.4391
17.732	61.4609
17.75	61.4776
17.768	61.4895
17.786	61.4968
17.804	61.5005
17.822	61.5012
17.84	61.5009
17.858	61.5003
17.876	61.501
17.894	61.504
17.912	61.5102
17.93	61.5201
17.948	61.5339
17.966	61.5516
17.984	61.5727
18.002	61.5969
18.02	61.6231
18.038	61.6508
18.056	61.6784
18.074	61.7055
18.092	61.7302
18.11	61.7522
18.128	61.7697
18.146	61.7825
18.164	61.7893
18.182	61.7898
18.2	61.7833
18.218	61.7695
18.236	61.7482
18.254	61.7193
18.272	61.6829
18.29	61.6397
18.308	61.5898
18.326	61.5349
18.344	61.4753
18.362	61.4129
18.38	61.3486
18.398	61.2844
18.416	61.2215
18.434	61.1619
18.452	61.1073
18.47	61.0588
18.488	61.0181
18.506	60.9857
18.524	60.9623
18.542	60.9483
18.56	60.9431
18.578	60.9469
18.596	60.9579
18.614	60.9759
18.632	60.9981
18.65	61.0244
18.668	61.0512
18.686	61.0781
18.704	61.1016
18.722	61.1214
18.74	61.1341
18.758	61.1396
18.776	61.1354
18.794	61.1214
18.812	61.0962
18.83	61.0602
18.848	61.0127
18.866	60.9547
18.884	60.8867
18.902	60.81
18.92	60.726
18.938	60.6363
18.956	60.5434
18.974	60.4489
18.992	60.3557
19.01	60.2656
19.028	60.182
19.046	60.1065
19.064	60.0425
19.082	59.991
19.1	59.9548
19.118	59.934
19.136	59.9305
19.154	59.9435
19.172	59.9735
19.19	60.0196
19.208	60.0803
19.226	60.1546
19.244	60.2388
19.262	60.3324
19.28	60.4303
19.298	60.5324
19.316	60.6333
19.334	60.733
19.352	60.8269
19.37	60.9152
19.388	60.9948
19.406	61.0657
19.424	61.1267
19.442	61.1777
19.46	61.2192
19.478	61.251
19.496	61.2744
19.514	61.2896
19.532	61.298
19.55	61.3001
19.568	61.2968
19.586	61.289
19.604	61.2768
19.622	61.2613
19.64	61.2423
19.658	61.2203
19.676	61.1952
19.694	61.1675
19.712	61.1371
19.73	61.1047
19.748	61.0701
19.766	61.0345
19.784	60.9981
19.802	60.9621
19.82	60.9269
19.838	60.8936
19.856	60.8639
19.874	60.8375
19.892	60.8161
19.91	60.7993
19.928	60.7873
19.946	60.7803
19.964	60.7765
19.982	60.7763
20	60.7767
20.018	60.7769
20.036	60.775
20.054	60.7673
20.072	60.7539
20.09	60.7299
20.108	60.6959
20.126	60.648
20.144	60.5861
20.162	60.5095
20.18	60.4171
20.198	60.3103
20.216	60.19
20.234	60.0569
20.252	59.9159
20.27	59.7659
20.288	59.6144
20.306	59.4609
20.324	59.3112
20.342	59.1689
20.36	59.0351
20.378	58.9165
20.396	58.8118
20.414	58.726
20.432	58.6591
20.45	58.6116
20.468	58.5848
20.486	58.5768
20.504	58.5862
20.522	58.6128
20.54	58.6511
20.558	58.7021
20.576	58.76
20.594	58.8227
20.612	58.8883
20.63	58.9503
20.648	59.0101
20.666	59.0619
20.684	59.1058
20.702	59.1398
20.72	59.1615
20.738	59.172
20.756	59.171
20.774	59.1584
20.792	59.1365
20.81	59.1049
20.828	59.0661
20.846	59.0236
20.864	58.9767
20.882	58.9308
20.9	58.8852
20.918	58.8435
20.936	58.8085
20.954	58.7797
20.972	58.7609
20.99	58.7516
21.008	58.7526
21.026	58.7651
21.044	58.7879
21.062	58.8201
21.08	58.8623
21.098	58.9109
21.116	58.966
21.134	59.0257
21.152	59.0861
21.17	59.1486
21.188	59.208
21.206	59.2638
21.224	59.3149
21.242	59.3572
21.26	59.3919
21.278	59.4164
21.296	59.43
21.314	59.4329
21.332	59.4241
21.35	59.4038
21.368	59.373
21.386	59.3314
21.404	59.28
21.422	59.2207
21.44	59.1529
21.458	59.079
21.476	58.9999
21.494	58.9158
21.512	58.8296
21.53	58.7406
21.548	58.6507
21.566	58.5617
21.584	58.4731
21.602	58.3873
21.62	58.3042
21.638	58.2246
21.656	58.1499
21.674	58.0797
21.692	58.0152
21.71	57.9567
21.728	57.9042
21.746	57.8588
21.764	57.8201
21.782	57.7887
21.8	57.7649
21.818	57.7486
21.836	57.7401
21.854	57.7394
21.872	57.7465
21.89	57.7613
21.908	57.784
21.926	57.8135
21.944	57.8495
21.962	57.892
21.98	57.9394
21.998	57.9921
22.016	58.049
22.034	58.1082
22.052	58.1706
22.07	58.2343
22.088	58.2982
22.106	58.3628
22.124	58.4259
22.142	58.4871
22.16	58.5464
22.178	58.6023
22.196	58.655
22.214	58.7042
22.232	58.7491
22.25	58.79
22.268	58.8271
22.286	58.8603
22.304	58.8896
22.322	58.916
22.34	58.9392
22.358	58.9598
22.376	58.9787
22.394	58.9958
22.412	59.0115
22.43	59.0268
22.448	59.0411
22.466	59.0554
22.484	59.0703
22.502	59.0856
22.52	59.1016
22.538	59.1187
22.556	59.1367
22.574	59.1551
22.592	59.1743
22.61	59.1937
22.628	59.2114
22.646	59.228
22.664	59.2425
22.682	59.2525
22.7	59.2594
22.718	59.261
22.736	59.2548
22.754	59.2424
22.772	59.2208
22.79	59.1875
22.808	59.1442
22.826	59.088
22.844	59.017
22.862	58.9324
22.88	58.8327
22.898	58.7169
22.916	58.5856
22.934	58.44
22.952	58.2795
22.97	58.1047
22.988	57.9185
23.006	57.7204
23.024	57.511
23.042	57.2966
23.06	57.0762
23.078	56.8511
23.096	56.6291
23.114	56.4089
23.132	56.1922
23.15	55.9881
23.168	55.7952
23.186	55.6148
23.204	55.4553
23.222	55.3153
23.24	55.1958
23.258	55.1031
23.276	55.0369
23.294	54.9969
23.312	54.9857
23.33	55.0041
23.348	55.0507
23.366	55.1244
23.384	55.2269
23.402	55.356
23.42	55.5068
23.438	55.6807
23.456	55.8762
23.474	56.0856
23.492	56.3094
23.51	56.5474
23.528	56.7906
23.546	57.0379
23.564	57.2907
23.582	57.5402
23.6	57.7836
23.618	58.0237
23.636	58.2535
23.654	58.4698
23.672	58.6757
23.69	58.8656
23.708	59.0358
23.726	59.1892
23.744	59.322
23.762	59.4306
23.78	59.5171
23.798	59.5798
23.816	59.6165
23.834	59.6279
23.852	59.6141
23.87	59.5747
23.888	59.5096
23.906	59.4192
23.924	59.3044
23.942	59.1647
23.96	59.0007
23.978	58.8138
23.996	58.6038
24.014	58.3706
24.032	58.1177
24.05	57.8467
24.068	57.5556
24.086	57.2486
24.104	56.9295
24.122	56.5952
24.14	56.2493
24.158	55.8964
24.176	55.5348
24.194	55.1656
24.212	54.7935
24.23	54.4185
24.248	54.0396
24.266	53.6618
24.284	53.2876
24.302	52.9142
24.32	52.5453
24.338	52.1844
24.356	51.83
24.374	51.4826
24.392	51.1439
24.41	50.8137
24.428	50.4918
24.446	50.1787
24.464	49.8744
24.482	49.5785
24.5	49.2926
24.518	49.0182
24.536	48.7538
24.554	48.501
24.572	48.262
24.59	48.0374
24.608	47.8261
24.626	47.627
24.644	47.4396
24.662	47.2644
24.68	47.1009
24.698	46.9486
24.716	46.8059
24.734	46.6755
24.752	46.5607
24.77	46.4616
24.788	46.3772
24.806	46.3102
24.824	46.2632
24.842	46.236
24.86	46.2254
24.878	46.2281
24.896	46.2456
24.914	46.2772
24.932	46.319
24.95	46.3697
24.968	46.4317
24.986	46.5008
25.004	46.5726
25.022	46.6486
25.04	46.7286
25.058	46.8106
25.076	46.8933
25.094	46.9777
25.112	47.0637
25.13	47.1505
25.148	47.2362
25.166	47.3234
25.184	47.4164
25.202	47.5159
25.22	47.6186
25.238	47.7317
25.256	47.8624
25.274	48.0061
25.292	48.1648
25.31	48.3469
25.328	48.5568
25.346	48.7892
25.364	49.0485
25.382	49.3402
25.4	49.6636
25.418	50.0175
25.436	50.4037
25.454	50.8243
25.472	51.2794
25.49	51.7664
25.508	52.2826
25.526	52.8291
25.544	53.407
25.562	54.0092
25.58	54.6297
25.598	55.2744
25.616	55.9393
25.634	56.6142
25.652	57.294
25.67	57.9867
25.688	58.6836
25.706	59.3743
25.724	60.0593
25.742	60.7423
25.76	61.4147
25.778	62.0686
25.796	62.7097
25.814	63.3358
25.832	63.9391
25.85	64.5143
25.868	65.0657
25.886	65.5925
25.904	66.0929
25.922	66.5669
25.94	67.0157
25.958	67.4372
25.976	67.8295
25.994	68.189
26.012	68.5193
26.03	68.8276
26.048	69.1194
26.066	69.3844
26.084	69.6321
26.102	69.8778
26.12	70.1284
26.138	70.3652
26.156	70.6115
26.174	70.8959
26.192	71.225
26.21	71.5787
26.228	71.9827
26.246	72.4644
26.264	73.0162
26.282	73.6283
26.3	74.333
26.318	75.1618
26.336	76.0956
26.354	77.1347
26.372	78.3118
26.39	79.6569
26.408	81.1488
26.426	82.7912
26.444	84.6062
26.462	86.6126
26.48	88.7963
26.498	91.1586
26.516	93.7078
26.534	96.4531
26.552	99.3985
26.57	102.527
26.588	105.82
26.606	109.271
26.624	112.908
26.642	116.694
26.66	120.584
26.678	124.561
26.696	128.675
26.714	132.867
26.732	137.069
26.75	141.258
26.768	145.501
26.786	149.723
26.804	153.839
26.822	157.813
26.84	161.721
26.858	165.498
26.876	169.07
26.894	172.401
26.912	175.553
26.93	178.487
26.948	181.16
26.966	183.579
26.984	185.831
27.002	187.775
27.02	189.256
27.028	189.675