File: Bakgrunnsmateriale/MATLAB/FTIR/ftir_data/subBb/Mapping_121/C-4040-8_t16.asc
PE IR       SPECTRUM    SPECTRUM    ASCII       PEDS        1.60
  -1
C-B922~1.ASC
17/03/27
15:45:23.00
17/03/27
15:45:49.00
tln
$C-4040-8_t0016$<tbV0>[2.6,-10.4,8.0,0.0,27,1,0]
27.028
64

2002,4.07
MIRTGS : RIGHTBACK : INTERNAL 2
MIR : ON : INTERNAL 2
OPTKBR

0.200000
8
8.000000
FILLER
RATIO
SPECTRUM
UNLOCKED 256

DOUBLE
64
COMBINED
1
0
0

0.002000
RATIO

1
0
TRUE
51149
0
LEFT NOT FITTED RIGHT NOT FITTED 0
NONE
NONE
15600
12
4.427000
51148
TRUE
1 0 8 72 0 0 0 0

15798

#HDR
-1
-1
#GR
µM
%T
2.38419e-05
0.0
2.000000
0.002000
12515
8
70.0241
6.322476
#DATA
2.000000	 63.7287
2.018000	 63.2578
2.036000	 63.9807
2.054000	 63.7643
2.072000	 63.7565
2.090000	 63.835
2.108000	 63.773
2.126000	 63.2147
2.144000	 63.8323
2.162000	 63.3012
2.180000	 63.8834
2.198000	 63.1523
2.216000	 63.9697
2.234000	 64.457
2.252000	 67.3258
2.270000	 62.7809
2.288000	 65.5707
2.306000	 63.7198
2.324000	 63.561
2.342000	 63.4224
2.360000	 63.1738
2.378000	 63.0561
2.396000	 63.2308
2.414000	 62.8547
2.432000	 63.0091
2.450000	 63.1737
2.468000	 63.2402
2.486000	 63.1581
2.504000	 63.1659
2.522000	 62.8539
2.540000	 62.8344
2.558000	 62.8991
2.576000	 62.8637
2.594000	 63.0708
2.612000	 62.6367
2.630000	 63.102
2.648000	 62.6821
2.666000	 63.0089
2.684000	 62.6165
2.702000	 62.558
2.720000	 62.7802
2.738000	 62.527
2.756000	 62.4481
2.774000	 62.1402
2.792000	 62.3057
2.810000	 62.2403
2.828000	 61.9665
2.846000	 61.8814
2.864000	 61.8521
2.882000	 61.8409
2.900000	 61.6074
2.918000	 61.6873
2.936000	 61.7053
2.954000	 61.4213
2.972000	 61.3503
2.990000	 61.2153
3.008000	 61.2774
3.026000	 61.1898
3.044000	 60.9971
3.062000	 61.017
3.080000	 60.8157
3.098000	 60.8355
3.116000	 60.8644
3.134000	 60.5021
3.152000	 60.465
3.170000	 60.5538
3.188000	 60.2467
3.206000	 60.5482
3.224000	 60.2668
3.242000	 60.2697
3.260000	 60.2483
3.278000	 60.2261
3.296000	 60.0686
3.314000	 59.8989
3.332000	 60.0654
3.350000	 59.7192
3.368000	 59.5299
3.386000	 59.4932
3.404000	 59.4937
3.422000	 59.235
3.440000	 59.2023
3.458000	 59.3202
3.476000	 59.182
3.494000	 59.1894
3.512000	 59.1515
3.530000	 59.1152
3.548000	 59.0454
3.566000	 58.8581
3.584000	 58.7713
3.602000	 58.7944
3.620000	 58.6541
3.638000	 58.6157
3.656000	 58.5609
3.674000	 58.468
3.692000	 58.3271
3.710000	 58.3271
3.728000	 58.0855
3.746000	 58.172
3.764000	 57.9865
3.782000	 57.8605
3.800000	 57.8912
3.818000	 57.6745
3.836000	 57.7133
3.854000	 57.67
3.872000	 57.5334
3.890000	 57.5109
3.908000	 57.4767
3.926000	 57.1858
3.944000	 57.2252
3.962000	 57.2099
3.980000	 57.0828
3.998000	 57.0173
4.016000	 57.0225
4.034000	 56.7522
4.052000	 56.8122
4.070000	 56.6697
4.088000	 56.755
4.106000	 56.5826
4.124000	 56.537
4.141999	 56.1751
4.160000	 56.2491
4.178000	 56.2898
4.196000	 56.2349
4.214000	 56.224
4.232000	 56.1675
4.250000	 56.0525
4.268000	 55.7991
4.286000	 55.9658
4.304000	 55.8815
4.322000	 55.739
4.340000	 55.627
4.358000	 55.5121
4.375999	 55.422
4.394000	 55.525
4.412000	 55.3906
4.430000	 55.3184
4.448000	 55.3578
4.466000	 55.1633
4.484000	 55.0611
4.502000	 54.9203
4.520000	 54.9787
4.538000	 54.8955
4.556000	 54.8539
4.574000	 54.7806
4.592000	 54.7791
4.609999	 54.7099
4.628000	 54.6132
4.646000	 54.4136
4.664000	 54.3099
4.682000	 54.3004
4.700000	 54.3196
4.718000	 54.2579
4.736000	 54.2715
4.754000	 54.1036
4.772000	 54.0657
4.790000	 54.0847
4.808000	 54.0007
4.826000	 53.7791
4.843999	 53.9504
4.862000	 53.738
4.880000	 53.8488
4.898000	 53.7835
4.916000	 53.6285
4.934000	 53.5475
4.952000	 53.3489
4.970000	 53.2991
4.988000	 53.3403
5.006000	 53.3591
5.024000	 53.3417
5.042000	 53.2572
5.060000	 53.1115
5.077999	 53.0953
5.096000	 53.0049
5.114000	 52.9013
5.132000	 52.8563
5.150000	 52.8666
5.168000	 52.8249
5.186000	 52.783
5.204000	 52.7571
5.222000	 52.7439
5.240000	 52.6208
5.258000	 52.5015
5.276000	 52.5139
5.294000	 52.4958
5.312000	 52.4074
5.330000	 52.316
5.348000	 52.2717
5.366000	 52.2117
5.384000	 52.168
5.402000	 52.0848
5.420000	 52.0505
5.438000	 51.9822
5.456000	 51.9539
5.474000	 51.965
5.492000	 51.881
5.510000	 51.7501
5.528000	 51.76
5.546000	 51.7919
5.564000	 51.7701
5.582000	 51.7054
5.600000	 51.687
5.618000	 51.6677
5.636000	 51.5708
5.654000	 51.4458
5.672000	 51.4082
5.690000	 51.4714
5.708000	 51.4282
5.726000	 51.273
5.744000	 51.1501
5.762000	 51.2529
5.780000	 51.1917
5.798000	 51.0616
5.816000	 51.1933
5.834000	 51.0959
5.852000	 50.9331
5.870000	 51.133
5.888000	 51.1839
5.906000	 50.9417
5.923999	 50.9679
5.942000	 50.976
5.960000	 50.7678
5.978000	 50.7123
5.996000	 50.6339
6.014000	 50.4904
6.032000	 50.5689
6.050000	 50.8283
6.068000	 50.6679
6.086000	 50.4508
6.104000	 50.4386
6.122000	 50.3347
6.140000	 50.1501
6.158000	 50.1453
6.176000	 50.1928
6.194000	 50.0992
6.212000	 49.9998
6.230000	 50.0042
6.248000	 49.8443
6.266000	 49.7827
6.284000	 49.8352
6.302000	 49.7633
6.320000	 49.708
6.338000	 49.7646
6.356000	 49.7196
6.374000	 49.6286
6.392000	 49.7271
6.410000	 49.8729
6.428000	 49.736
6.446000	 49.5359
6.464000	 49.5584
6.482000	 49.7033
6.500000	 49.6478
6.518000	 49.4915
6.536000	 49.4278
6.554000	 49.4257
6.572000	 49.4354
6.590000	 49.3163
6.608000	 49.2843
6.626000	 49.4436
6.644000	 49.3896
6.662000	 49.1142
6.680000	 48.9337
6.698000	 48.9078
6.716000	 48.902
6.734000	 48.8252
6.752000	 48.7879
6.770000	 48.8828
6.788000	 48.9793
6.806000	 48.9167
6.824000	 48.8128
6.842000	 48.8102
6.860000	 48.7696
6.878000	 48.5646
6.896000	 48.3545
6.914000	 48.3378
6.932000	 48.4911
6.950000	 48.5662
6.968000	 48.3779
6.986000	 48.1747
7.004000	 48.2067
7.022000	 48.3447
7.040000	 48.3997
7.058000	 48.3422
7.076000	 48.2163
7.094000	 48.0339
7.112000	 47.8913
7.130000	 47.939
7.148000	 48.0686
7.166000	 48.0863
7.184000	 48.0266
7.202000	 47.9769
7.220000	 47.9425
7.238000	 47.891
7.256000	 47.815
7.274000	 47.7649
7.292000	 47.7572
7.310000	 47.7555
7.328000	 47.752
7.346000	 47.7352
7.364000	 47.6933
7.382000	 47.6628
7.400000	 47.6605
7.418000	 47.6605
7.436000	 47.6185
7.454000	 47.5132
7.472000	 47.4125
7.490000	 47.3906
7.508000	 47.4174
7.526000	 47.4469
7.544000	 47.4602
7.562000	 47.4362
7.580000	 47.3858
7.598000	 47.348
7.616000	 47.3329
7.634000	 47.3244
7.652000	 47.3098
7.670000	 47.2737
7.688000	 47.201
7.706000	 47.1088
7.724000	 47.0562
7.742000	 47.0871
7.760000	 47.1541
7.778000	 47.1553
7.796000	 47.0634
7.814000	 46.9381
7.832000	 46.8372
7.850000	 46.7898
7.868000	 46.8057
7.886000	 46.8385
7.904000	 46.8039
7.922000	 46.7089
7.940000	 46.666
7.958000	 46.7174
7.976000	 46.7725
7.994000	 46.7522
8.012000	 46.6774
8.030000	 46.5952
8.048000	 46.5128
8.065999	 46.4342
8.084000	 46.3913
8.102000	 46.4102
8.120000	 46.4723
8.138000	 46.5315
8.155999	 46.5559
8.173999	 46.5424
8.192000	 46.5037
8.210000	 46.456
8.228000	 46.4164
8.246000	 46.392
8.263999	 46.3696
8.282000	 46.3295
8.300000	 46.2717
8.318000	 46.2152
8.336000	 46.1766
8.353999	 46.1577
8.372000	 46.156
8.390000	 46.1701
8.408000	 46.1908
8.426000	 46.1938
8.443999	 46.1563
8.462000	 46.0807
8.480000	 45.9953
8.498000	 45.9317
8.516000	 45.908
8.533999	 45.9281
8.552000	 45.9754
8.570000	 46.0071
8.588000	 45.9783
8.606000	 45.8871
8.624000	 45.7829
8.641999	 45.7198
8.660000	 45.7107
8.678000	 45.7269
8.696000	 45.7292
8.714000	 45.697
8.731999	 45.6383
8.750000	 45.5786
8.768000	 45.5346
8.786000	 45.5
8.804000	 45.4654
8.821999	 45.4401
8.840000	 45.4404
8.858000	 45.458
8.876000	 45.4643
8.894000	 45.4429
8.911999	 45.407
8.930000	 45.3782
8.948000	 45.362
8.966000	 45.3509
8.984000	 45.3353
9.001999	 45.3024
9.020000	 45.2318
9.038000	 45.1123
9.056000	 44.9654
9.074000	 44.8458
9.092000	 44.805
9.109999	 44.8511
9.128000	 44.9404
9.146000	 45.0113
9.164000	 45.0273
9.182000	 44.993
9.199999	 44.9361
9.218000	 44.8807
9.236000	 44.8381
9.254000	 44.8154
9.272000	 44.8199
9.289999	 44.8521
9.308000	 44.8966
9.326000	 44.926
9.344000	 44.9195
9.362000	 44.8798
9.379999	 44.8297
9.398000	 44.793
9.416000	 44.7757
9.434000	 44.7662
9.452000	 44.7511
9.469999	 44.7292
9.488000	 44.7109
9.506000	 44.7041
9.524000	 44.7039
9.542000	 44.6973
9.560000	 44.6756
9.577999	 44.6416
9.596000	 44.6049
9.614000	 44.5733
9.632000	 44.5486
9.650000	 44.5279
9.667999	 44.5056
9.686000	 44.4726
9.704000	 44.4209
9.722000	 44.351
9.740000	 44.2761
9.757999	 44.2161
9.776000	 44.1828
9.794000	 44.1703
9.812000	 44.162
9.830000	 44.1485
9.847999	 44.1366
9.866000	 44.1365
9.884000	 44.1453
9.902000	 44.1478
9.920000	 44.1347
9.937999	 44.1186
9.956000	 44.1248
9.974000	 44.1642
9.992000	 44.2166
10.01	44.2402
10.028	44.2005
10.046	44.0987
10.064	43.9693
10.082	43.8578
10.1	43.797
10.118	43.7942
10.136	43.835
10.154	43.8946
10.172	43.948
10.19	43.9772
10.208	43.9736
10.226	43.9379
10.244	43.879
10.262	43.8099
10.28	43.7438
10.298	43.6899
10.316	43.652
10.334	43.6297
10.352	43.6224
10.37	43.6312
10.388	43.6577
10.406	43.6994
10.424	43.7423
10.442	43.7614
10.46	43.7356
10.478	43.6617
10.496	43.5648
10.514	43.4877
10.532	43.4688
10.55	43.5171
10.568	43.6081
10.586	43.6921
10.604	43.7267
10.622	43.6954
10.64	43.6166
10.658	43.5269
10.676	43.461
10.694	43.4306
10.712	43.4237
10.73	43.4164
10.748	43.3872
10.766	43.327
10.784	43.2373
10.802	43.1233
10.82	42.9902
10.838	42.8448
10.856	42.701
10.874	42.5839
10.892	42.521
10.91	42.5319
10.928	42.6125
10.946	42.7333
10.964	42.8494
10.982	42.9171
11	42.916
11.018	42.8522
11.036	42.75
11.054	42.6361
11.072	42.5266
11.09	42.4262
11.108	42.3342
11.126	42.2526
11.144	42.1884
11.162	42.1504
11.18	42.1422
11.198	42.1595
11.216	42.1916
11.234	42.226
11.252	42.2544
11.27	42.2743
11.288	42.2859
11.306	42.2897
11.324	42.2853
11.342	42.273
11.36	42.2549
11.378	42.2356
11.396	42.2194
11.414	42.2091
11.432	42.2032
11.45	42.1976
11.468	42.1865
11.486	42.1649
11.504	42.1306
11.522	42.0859
11.54	42.0373
11.558	41.994
11.576	41.9663
11.594	41.9616
11.612	41.9828
11.63	42.0263
11.648	42.0834
11.666	42.1421
11.684	42.1925
11.702	42.2307
11.72	42.2588
11.738	42.2829
11.756	42.3088
11.774	42.3384
11.792	42.3676
11.81	42.388
11.828	42.39
11.846	42.3658
11.864	42.3129
11.882	42.2344
11.9	42.1385
11.918	42.0363
11.936	41.9389
11.954	41.8554
11.972	41.7921
11.99	41.752
12.008	41.7349
12.026	41.7382
12.044	41.7568
12.062	41.7844
12.08	41.8143
12.098	41.8399
12.116	41.8563
12.134	41.8612
12.152	41.8546
12.17	41.8373
12.188	41.8111
12.206	41.777
12.224	41.7361
12.242	41.6892
12.26	41.6384
12.278	41.5868
12.296	41.5385
12.314	41.4973
12.332	41.4658
12.35	41.4437
12.368	41.4284
12.386	41.4154
12.404	41.3997
12.422	41.3766
12.44	41.3439
12.458	41.302
12.476	41.2537
12.494	41.2031
12.512	41.1546
12.53	41.1124
12.548	41.0791
12.566	41.0555
12.584	41.0413
12.602	41.0354
12.62	41.0358
12.638	41.0406
12.656	41.0481
12.674	41.057
12.692	41.0664
12.71	41.0761
12.728	41.086
12.746	41.0965
12.764	41.1077
12.782	41.1197
12.8	41.1328
12.818	41.1467
12.836	41.1615
12.854	41.1772
12.872	41.1935
12.89	41.2098
12.908	41.2244
12.926	41.2349
12.944	41.2385
12.962	41.2318
12.98	41.2126
12.998	41.1801
13.016	41.1354
13.034	41.0813
13.052	41.0223
13.07	40.9631
13.088	40.9079
13.106	40.8588
13.124	40.816
13.142	40.7776
13.16	40.7405
13.178	40.7014
13.196	40.6577
13.214	40.6078
13.232	40.5524
13.25	40.4936
13.268	40.4344
13.286	40.3785
13.304	40.3299
13.322	40.2918
13.34	40.2663
13.358	40.254
13.376	40.2543
13.394	40.2648
13.412	40.2824
13.43	40.3036
13.448	40.3252
13.466	40.3444
13.484	40.359
13.502	40.3673
13.52	40.3682
13.538	40.361
13.556	40.345
13.574	40.3196
13.592	40.2848
13.61	40.2414
13.628	40.1912
13.646	40.1372
13.664	40.0829
13.682	40.0329
13.7	39.9911
13.718	39.9599
13.736	39.9402
13.754	39.9307
13.772	39.9284
13.79	39.9295
13.808	39.9298
13.826	39.9261
13.844	39.9161
13.862	39.8988
13.88	39.8741
13.898	39.8427
13.916	39.8057
13.934	39.7642
13.952	39.7192
13.97	39.6717
13.988	39.6225
14.006	39.5727
14.024	39.5235
14.042	39.4767
14.06	39.4341
14.078	39.398
14.096	39.3706
14.114	39.3541
14.132	39.3495
14.15	39.3574
14.168	39.3768
14.186	39.4059
14.204	39.4413
14.222	39.4791
14.24	39.5147
14.258	39.5438
14.276	39.563
14.294	39.5701
14.312	39.5642
14.33	39.5463
14.348	39.5183
14.366	39.4841
14.384	39.4478
14.402	39.4129
14.42	39.3822
14.438	39.357
14.456	39.3374
14.474	39.3223
14.492	39.3096
14.51	39.2967
14.528	39.281
14.546	39.2601
14.564	39.2331
14.582	39.1995
14.6	39.1598
14.618	39.1154
14.636	39.0683
14.654	39.0212
14.672	38.9763
14.69	38.9358
14.708	38.9012
14.726	38.8735
14.744	38.853
14.762	38.8392
14.78	38.8315
14.798	38.829
14.816	38.8309
14.834	38.8369
14.852	38.8465
14.87	38.8601
14.888	38.8783
14.906	38.9015
14.924	38.93
14.942	38.9637
14.96	39.0009
14.978	39.0393
14.996	39.0755
15.014	39.1057
15.032	39.1252
15.05	39.1301
15.068	39.1178
15.086	39.0872
15.104	39.0382
15.122	38.9736
15.14	38.8973
15.158	38.8139
15.176	38.7282
15.194	38.6452
15.212	38.5695
15.23	38.5038
15.248	38.4502
15.266	38.4096
15.284	38.3822
15.302	38.3674
15.32	38.364
15.338	38.3707
15.356	38.3863
15.374	38.4087
15.392	38.4363
15.41	38.4674
15.428	38.4999
15.446	38.5313
15.464	38.5596
15.482	38.5826
15.5	38.5986
15.518	38.606
15.536	38.6045
15.554	38.5941
15.572	38.5758
15.59	38.5513
15.608	38.5224
15.626	38.4908
15.644	38.4584
15.662	38.4267
15.68	38.3964
15.698	38.3677
15.716	38.3403
15.734	38.3131
15.752	38.2852
15.77	38.2557
15.788	38.2235
15.806	38.1882
15.824	38.15
15.842	38.109
15.86	38.0661
15.878	38.0224
15.896	37.979
15.914	37.9376
15.932	37.8994
15.95	37.865
15.968	37.8354
15.986	37.8105
16.004	37.7902
16.022	37.7742
16.04	37.7613
16.058	37.7508
16.076	37.7417
16.094	37.7329
16.112	37.7237
16.13	37.7138
16.148	37.7025
16.166	37.6901
16.184	37.6769
16.202	37.6634
16.22	37.6509
16.238	37.6405
16.256	37.633
16.274	37.6299
16.292	37.6322
16.31	37.6406
16.328	37.6558
16.346	37.6774
16.364	37.7053
16.382	37.7381
16.4	37.7736
16.418	37.8103
16.436	37.8447
16.454	37.8739
16.472	37.896
16.49	37.9074
16.508	37.9066
16.526	37.8923
16.544	37.8636
16.562	37.8213
16.58	37.7659
16.598	37.6998
16.616	37.6255
16.634	37.545
16.652	37.4625
16.67	37.3802
16.688	37.3006
16.706	37.2267
16.724	37.1598
16.742	37.1014
16.76	37.0522
16.778	37.0123
16.796	36.9816
16.814	36.9588
16.832	36.9433
16.85	36.9335
16.868	36.9277
16.886	36.9248
16.904	36.9229
16.922	36.9212
16.94	36.9184
16.958	36.9138
16.976	36.9072
16.994	36.8984
17.012	36.8878
17.03	36.876
17.048	36.8642
17.066	36.8532
17.084	36.8443
17.102	36.8387
17.12	36.8369
17.138	36.8397
17.156	36.8467
17.174	36.8581
17.192	36.8721
17.21	36.8877
17.228	36.9027
17.246	36.9147
17.264	36.9223
17.282	36.9222
17.3	36.9136
17.318	36.8943
17.336	36.8638
17.354	36.8215
17.372	36.7682
17.39	36.7046
17.408	36.6324
17.426	36.554
17.444	36.4709
17.462	36.387
17.48	36.3033
17.498	36.2234
17.516	36.1486
17.534	36.0809
17.552	36.0219
17.57	35.972
17.588	35.9323
17.606	35.9024
17.624	35.8824
17.642	35.8714
17.66	35.8691
17.678	35.8739
17.696	35.8855
17.714	35.9023
17.732	35.9235
17.75	35.948
17.768	35.9746
17.786	36.0026
17.804	36.0303
17.822	36.0573
17.84	36.0819
17.858	36.1033
17.876	36.1205
17.894	36.1323
17.912	36.1381
17.93	36.1368
17.948	36.1282
17.966	36.1116
17.984	36.0872
18.002	36.055
18.02	36.0158
18.038	35.9698
18.056	35.9187
18.074	35.8627
18.092	35.8038
18.11	35.7424
18.128	35.6805
18.146	35.6184
18.164	35.5576
18.182	35.4985
18.2	35.4419
18.218	35.3886
18.236	35.3388
18.254	35.2933
18.272	35.2522
18.29	35.2161
18.308	35.185
18.326	35.1592
18.344	35.1387
18.362	35.1234
18.38	35.1131
18.398	35.1077
18.416	35.1063
18.434	35.1085
18.452	35.1131
18.47	35.1196
18.488	35.1263
18.506	35.1327
18.524	35.137
18.542	35.1389
18.56	35.137
18.578	35.131
18.596	35.1204
18.614	35.1051
18.632	35.0855
18.65	35.0617
18.668	35.0349
18.686	35.0054
18.704	34.975
18.722	34.944
18.74	34.9141
18.758	34.8854
18.776	34.8593
18.794	34.8358
18.812	34.8154
18.83	34.7979
18.848	34.7833
18.866	34.7709
18.884	34.7603
18.902	34.7509
18.92	34.7415
18.938	34.7319
18.956	34.7208
18.974	34.7082
18.992	34.6932
19.01	34.6757
19.028	34.6552
19.046	34.6318
19.064	34.6052
19.082	34.5755
19.1	34.5424
19.118	34.5062
19.136	34.4667
19.154	34.424
19.172	34.3782
19.19	34.3294
19.208	34.278
19.226	34.2241
19.244	34.1684
19.262	34.111
19.28	34.0531
19.298	33.9946
19.316	33.9372
19.334	33.8808
19.352	33.8269
19.37	33.7755
19.388	33.728
19.406	33.6846
19.424	33.646
19.442	33.6124
19.46	33.5835
19.478	33.5595
19.496	33.5395
19.514	33.5236
19.532	33.5104
19.55	33.4994
19.568	33.4897
19.586	33.4806
19.604	33.4718
19.622	33.4618
19.64	33.4512
19.658	33.4397
19.676	33.4274
19.694	33.4152
19.712	33.403
19.73	33.3929
19.748	33.3849
19.766	33.3813
19.784	33.3824
19.802	33.3898
19.82	33.4048
19.838	33.4274
19.856	33.4589
19.874	33.4986
19.892	33.5465
19.91	33.6025
19.928	33.6642
19.946	33.7322
19.964	33.8025
19.982	33.8753
20	33.9466
20.018	34.0147
20.036	34.0779
20.054	34.1321
20.072	34.1776
20.09	34.2099
20.108	34.2297
20.126	34.2343
20.144	34.2235
20.162	34.1973
20.18	34.155
20.198	34.0981
20.216	34.0278
20.234	33.9445
20.252	33.8527
20.27	33.7514
20.288	33.6467
20.306	33.5381
20.324	33.4302
20.342	33.3259
20.36	33.2261
20.378	33.1361
20.396	33.0547
20.414	32.9866
20.432	32.9315
20.45	32.8909
20.468	32.8661
20.486	32.8563
20.504	32.862
20.522	32.8828
20.54	32.9166
20.558	32.964
20.576	33.0218
20.594	33.0892
20.612	33.1648
20.63	33.2449
20.648	33.3301
20.666	33.4159
20.684	33.5027
20.702	33.5879
20.72	33.6695
20.738	33.7478
20.756	33.8198
20.774	33.8862
20.792	33.9452
20.81	33.9966
20.828	34.04
20.846	34.0746
20.864	34.1007
20.882	34.1174
20.9	34.125
20.918	34.1231
20.936	34.1114
20.954	34.09
20.972	34.059
20.99	34.0182
21.008	33.9678
21.026	33.9077
21.044	33.8383
21.062	33.7601
21.08	33.673
21.098	33.5784
21.116	33.4763
21.134	33.3677
21.152	33.2547
21.17	33.1367
21.188	33.0168
21.206	32.895
21.224	32.7727
21.242	32.653
21.26	32.5348
21.278	32.4213
21.296	32.3127
21.314	32.2097
21.332	32.1142
21.35	32.0258
21.368	31.9456
21.386	31.8742
21.404	31.8112
21.422	31.7573
21.44	31.7124
21.458	31.6758
21.476	31.6476
21.494	31.6273
21.512	31.6138
21.53	31.6074
21.548	31.6067
21.566	31.6109
21.584	31.6203
21.602	31.6327
21.62	31.6485
21.638	31.6666
21.656	31.6857
21.674	31.7063
21.692	31.7266
21.71	31.7463
21.728	31.7652
21.746	31.7809
21.764	31.7941
21.782	31.8035
21.8	31.8078
21.818	31.8077
21.836	31.8011
21.854	31.7878
21.872	31.7678
21.89	31.7403
21.908	31.7054
21.926	31.6633
21.944	31.6134
21.962	31.5562
21.98	31.4934
21.998	31.4243
22.016	31.3503
22.034	31.2742
22.052	31.1944
22.07	31.1145
22.088	31.0367
22.106	30.9599
22.124	30.8889
22.142	30.8241
22.16	30.7659
22.178	30.7186
22.196	30.6812
22.214	30.655
22.232	30.6424
22.25	30.6425
22.268	30.6554
22.286	30.6819
22.304	30.7214
22.322	30.7718
22.34	30.8337
22.358	30.9058
22.376	30.9834
22.394	31.0684
22.412	31.1573
22.43	31.2447
22.448	31.3335
22.466	31.4184
22.484	31.4951
22.502	31.5661
22.52	31.6261
22.538	31.6729
22.556	31.7077
22.574	31.7271
22.592	31.73
22.61	31.7173
22.628	31.6883
22.646	31.6423
22.664	31.5808
22.682	31.5056
22.7	31.4151
22.718	31.3127
22.736	31.2018
22.754	31.0801
22.772	30.9526
22.79	30.8236
22.808	30.6903
22.826	30.5586
22.844	30.4324
22.862	30.3092
22.88	30.1943
22.898	30.0902
22.916	29.9951
22.934	29.9128
22.952	29.8446
22.97	29.7893
22.988	29.7489
23.006	29.724
23.024	29.7139
23.042	29.7179
23.06	29.7368
23.078	29.7694
23.096	29.813
23.114	29.8684
23.132	29.9345
23.15	30.0072
23.168	30.0876
23.186	30.1745
23.204	30.2633
23.222	30.3547
23.24	30.4482
23.258	30.5398
23.276	30.6299
23.294	30.7184
23.312	30.8028
23.33	30.8831
23.348	30.9596
23.366	31.0312
23.384	31.0979
23.402	31.1599
23.42	31.2173
23.438	31.2699
23.456	31.3179
23.474	31.3621
23.492	31.4023
23.51	31.4388
23.528	31.4724
23.546	31.5036
23.564	31.5321
23.582	31.5579
23.6	31.5814
23.618	31.6025
23.636	31.6201
23.654	31.6339
23.672	31.6443
23.69	31.6498
23.708	31.6491
23.726	31.6434
23.744	31.6312
23.762	31.6115
23.78	31.5854
23.798	31.5514
23.816	31.5078
23.834	31.4556
23.852	31.394
23.87	31.3216
23.888	31.2382
23.906	31.1445
23.924	31.0408
23.942	30.9262
23.96	30.8016
23.978	30.6696
23.996	30.5304
24.014	30.3832
24.032	30.2322
24.05	30.0795
24.068	29.9224
24.086	29.7659
24.104	29.6142
24.122	29.4641
24.14	29.3192
24.158	29.1851
24.176	29.0594
24.194	28.9438
24.212	28.8437
24.23	28.7599
24.248	28.6909
24.266	28.6401
24.284	28.6098
24.302	28.598
24.32	28.6061
24.338	28.6356
24.356	28.6856
24.374	28.7564
24.392	28.8487
24.41	28.9632
24.428	29.0989
24.446	29.2542
24.464	29.4292
24.482	29.6245
24.5	29.8367
24.518	30.0635
24.536	30.3079
24.554	30.5654
24.572	30.8303
24.59	31.1055
24.608	31.3893
24.626	31.6729
24.644	31.9533
24.662	32.2355
24.68	32.5105
24.698	32.7703
24.716	33.0206
24.734	33.2572
24.752	33.4721
24.77	33.6653
24.788	33.8387
24.806	33.9866
24.824	34.1047
24.842	34.1962
24.86	34.2596
24.878	34.2929
24.896	34.2955
24.914	34.2688
24.932	34.2134
24.95	34.1291
24.968	34.0146
24.986	33.8746
25.004	33.7136
25.022	33.5289
25.04	33.3221
25.058	33.0986
25.076	32.86
25.094	32.6034
25.112	32.3336
25.13	32.0554
25.148	31.7673
25.166	31.4691
25.184	31.1629
25.202	30.8499
25.22	30.529
25.238	30.2006
25.256	29.8651
25.274	29.5249
25.292	29.1773
25.31	28.8177
25.328	28.4443
25.346	28.0613
25.364	27.6623
25.382	27.2398
25.4	26.7961
25.418	26.3318
25.436	25.8408
25.454	25.318
25.472	24.7668
25.49	24.1866
25.508	23.5756
25.526	22.9302
25.544	22.2518
25.562	21.5487
25.58	20.8281
25.598	20.0802
25.616	19.313
25.634	18.5428
25.652	17.7774
25.67	17.0012
25.688	16.2343
25.706	15.5003
25.724	14.7971
25.742	14.1163
25.76	13.4805
25.778	12.9109
25.796	12.3982
25.814	11.9417
25.832	11.5503
25.85	11.2316
25.868	10.9831
25.886	10.7988
25.904	10.6729
25.922	10.6105
25.94	10.6149
25.958	10.6638
25.976	10.7353
25.994	10.8432
26.012	10.9848
26.03	11.1321
26.048	11.2613
26.066	11.3946
26.084	11.52
26.102	11.612
26.12	11.6535
26.138	11.662
26.156	11.6294
26.174	11.5434
26.192	11.3942
26.21	11.1876
26.228	10.9338
26.246	10.6432
26.264	10.3073
26.282	9.924552
26.3	9.520302
26.318	9.119320
26.336	8.704760
26.354	8.279028
26.372	7.872255
26.39	7.511746
26.408	7.175415
26.426	6.870418
26.444	6.623258
26.462	6.456718
26.48	6.356509
26.498	6.322476
26.516	6.362007
26.534	6.481843
26.552	6.680775
26.57	6.952941
26.588	7.292589
26.606	7.698571
26.624	8.181021
26.642	8.724892
26.66	9.312296
26.678	9.935573
26.696	10.6124
26.714	11.3246
26.732	12.0504
26.75	12.7797
26.768	13.5307
26.786	14.2891
26.804	15.0383
26.822	15.7702
26.84	16.498
26.858	17.2133
26.876	17.9064
26.894	18.5715
26.912	19.2147
26.93	19.8359
26.948	20.4338
26.966	21.0278
26.984	21.6477
27.002	22.2196
27.02	22.6629
27.028	22.7838