File: Bakgrunnsmateriale/MATLAB/FTIR/ftir_data/subBb/Mapping_121/C-4040-8_t04.asc
PE IR       SPECTRUM    SPECTRUM    ASCII       PEDS        1.60
  -1
C-B52A~1.ASC
17/03/27
14:49:25.00
17/03/27
14:49:51.00
tln
$C-4040-8_t0004$<tbV0>[5.2,-13.0,8.0,0.0,27,1,0]
27.028
64

2002,4.07
MIRTGS : RIGHTBACK : INTERNAL 2
MIR : ON : INTERNAL 2
OPTKBR

0.200000
8
8.000000
FILLER
RATIO
SPECTRUM
UNLOCKED 256

DOUBLE
64
COMBINED
1
0
0

0.002000
RATIO

1
0
TRUE
51149
0
LEFT NOT FITTED RIGHT NOT FITTED 0
NONE
NONE
15600
12
4.427000
51148
TRUE
1 0 8 72 0 0 0 0

15798

#HDR
-1
-1
#GR
µM
%T
2.38419e-05
0.0
2.000000
0.002000
12515
8
69.624
-0.073742
#DATA
2.000000	 63.5407
2.018000	 62.8415
2.036000	 64.0165
2.054000	 62.9806
2.072000	 63.0602
2.090000	 63.6984
2.108000	 63.3018
2.126000	 63.5877
2.144000	 63.1314
2.162000	 63.5093
2.180000	 63.412
2.198000	 62.6768
2.216000	 63.1297
2.234000	 63.5347
2.252000	 66.3176
2.270000	 65.9139
2.288000	 63.907
2.306000	 63.4636
2.324000	 63.1022
2.342000	 63.014
2.360000	 62.6168
2.378000	 62.8227
2.396000	 62.0032
2.414000	 62.7018
2.432000	 62.6123
2.450000	 62.7346
2.468000	 62.6865
2.486000	 62.5861
2.504000	 62.6987
2.522000	 62.6312
2.540000	 62.4375
2.558000	 62.4403
2.576000	 62.1456
2.594000	 62.4056
2.612000	 62.059
2.630000	 62.3756
2.648000	 61.8645
2.666000	 62.1382
2.684000	 61.6727
2.702000	 62.0038
2.720000	 61.9827
2.738000	 61.8163
2.756000	 61.6214
2.774000	 61.2329
2.792000	 61.5048
2.810000	 61.232
2.828000	 61.2902
2.846000	 60.9531
2.864000	 60.8731
2.882000	 61.0012
2.900000	 60.8931
2.918000	 60.538
2.936000	 60.5885
2.954000	 60.5022
2.972000	 60.3469
2.990000	 60.2738
3.008000	 60.0827
3.026000	 60.0454
3.044000	 59.8828
3.062000	 59.8957
3.080000	 59.7648
3.098000	 59.7354
3.116000	 59.8316
3.134000	 59.702
3.152000	 59.2659
3.170000	 59.3317
3.188000	 59.3296
3.206000	 59.2533
3.224000	 59.1741
3.242000	 58.8531
3.260000	 59.0116
3.278000	 58.8768
3.296000	 58.745
3.314000	 58.6699
3.332000	 58.5807
3.350000	 58.3755
3.368000	 58.2415
3.386000	 58.0844
3.404000	 58.0074
3.422000	 57.8368
3.440000	 57.6105
3.458000	 57.6983
3.476000	 57.6156
3.494000	 57.4031
3.512000	 57.2674
3.530000	 57.3949
3.548000	 57.3492
3.566000	 57.2258
3.584000	 57.0334
3.602000	 56.9701
3.620000	 56.8844
3.638000	 56.9049
3.656000	 56.7065
3.674000	 56.6848
3.692000	 56.4811
3.710000	 56.3958
3.728000	 56.3552
3.746000	 56.2368
3.764000	 56.0387
3.782000	 55.9285
3.800000	 55.9205
3.818000	 55.6893
3.836000	 55.7392
3.854000	 55.5488
3.872000	 55.4454
3.890000	 55.3688
3.908000	 55.3153
3.926000	 55.2745
3.944000	 55.1288
3.962000	 55.0626
3.980000	 54.9144
3.998000	 54.8815
4.016000	 54.6485
4.034000	 54.7273
4.052000	 54.5973
4.070000	 54.5347
4.088000	 54.5416
4.106000	 54.5242
4.124000	 54.3052
4.141999	 54.0475
4.160000	 53.963
4.178000	 53.8026
4.196000	 53.9085
4.214000	 53.8333
4.232000	 53.7548
4.250000	 53.5762
4.268000	 53.3164
4.286000	 53.4464
4.304000	 53.2767
4.322000	 53.3157
4.340000	 53.2051
4.358000	 53.0786
4.375999	 52.9463
4.394000	 52.9081
4.412000	 52.9086
4.430000	 52.726
4.448000	 52.6892
4.466000	 52.4961
4.484000	 52.4796
4.502000	 52.3474
4.520000	 52.2466
4.538000	 52.2207
4.556000	 52.1031
4.574000	 51.994
4.592000	 51.97
4.609999	 51.9391
4.628000	 52.009
4.646000	 51.7117
4.664000	 51.5812
4.682000	 51.6462
4.700000	 51.4145
4.718000	 51.3267
4.736000	 51.4312
4.754000	 51.3235
4.772000	 51.1484
4.790000	 51.1569
4.808000	 51.1733
4.826000	 50.842
4.843999	 50.6646
4.862000	 50.8061
4.880000	 50.6201
4.898000	 50.6025
4.916000	 50.6404
4.934000	 50.5528
4.952000	 50.3013
4.970000	 50.3406
4.988000	 50.3482
5.006000	 50.3427
5.024000	 50.2111
5.042000	 50.0518
5.060000	 50.0032
5.077999	 49.9627
5.096000	 49.8971
5.114000	 49.7891
5.132000	 49.7262
5.150000	 49.6813
5.168000	 49.5817
5.186000	 49.4876
5.204000	 49.5068
5.222000	 49.4076
5.240000	 49.3091
5.258000	 49.202
5.276000	 49.2385
5.294000	 49.1452
5.312000	 49.004
5.330000	 48.9829
5.348000	 48.9186
5.366000	 48.7901
5.384000	 48.7136
5.402000	 48.6877
5.420000	 48.7157
5.438000	 48.6089
5.456000	 48.5325
5.474000	 48.4798
5.492000	 48.398
5.510000	 48.3996
5.528000	 48.2496
5.546000	 48.2108
5.564000	 48.2161
5.582000	 48.1542
5.600000	 48.0851
5.618000	 48.0515
5.636000	 48.0654
5.654000	 47.9692
5.672000	 47.8734
5.690000	 47.8668
5.708000	 47.714
5.726000	 47.6175
5.744000	 47.675
5.762000	 47.6546
5.780000	 47.565
5.798000	 47.4636
5.816000	 47.3946
5.834000	 47.3224
5.852000	 47.2779
5.870000	 47.339
5.888000	 47.415
5.906000	 47.2613
5.923999	 47.185
5.942000	 47.1541
5.960000	 46.9797
5.978000	 46.9937
5.996000	 46.9735
6.014000	 46.8124
6.032000	 46.912
6.050000	 47.0508
6.068000	 46.8519
6.086000	 46.6363
6.104000	 46.5446
6.122000	 46.5207
6.140000	 46.4489
6.158000	 46.4684
6.176000	 46.4632
6.194000	 46.3088
6.212000	 46.202
6.230000	 46.2453
6.248000	 46.2036
6.266000	 46.0771
6.284000	 46.0444
6.302000	 46.055
6.320000	 45.9309
6.338000	 45.8152
6.356000	 45.8377
6.374000	 45.8229
6.392000	 45.826
6.410000	 45.9019
6.428000	 45.814
6.446000	 45.6727
6.464000	 45.6644
6.482000	 45.7059
6.500000	 45.6295
6.518000	 45.4838
6.536000	 45.4235
6.554000	 45.4486
6.572000	 45.4458
6.590000	 45.3422
6.608000	 45.2944
6.626000	 45.4094
6.644000	 45.4304
6.662000	 45.2451
6.680000	 45.0874
6.698000	 44.9972
6.716000	 44.8954
6.734000	 44.803
6.752000	 44.74
6.770000	 44.7146
6.788000	 44.6879
6.806000	 44.617
6.824000	 44.5527
6.842000	 44.5992
6.860000	 44.7458
6.878000	 44.8078
6.896000	 44.7106
6.914000	 44.5618
6.932000	 44.4452
6.950000	 44.4173
6.968000	 44.3898
6.986000	 44.2505
7.004000	 44.1569
7.022000	 44.2398
7.040000	 44.3123
7.058000	 44.2283
7.076000	 44.0715
7.094000	 43.9523
7.112000	 43.9583
7.130000	 44.0431
7.148000	 44.0402
7.166000	 43.9533
7.184000	 43.8927
7.202000	 43.852
7.220000	 43.7743
7.238000	 43.6677
7.256000	 43.6135
7.274000	 43.6381
7.292000	 43.646
7.310000	 43.5956
7.328000	 43.5693
7.346000	 43.5808
7.364000	 43.5481
7.382000	 43.4553
7.400000	 43.3578
7.418000	 43.286
7.436000	 43.2298
7.454000	 43.1765
7.472000	 43.132
7.490000	 43.1137
7.508000	 43.1235
7.526000	 43.1381
7.544000	 43.1362
7.562000	 43.1184
7.580000	 43.0861
7.598000	 43.0318
7.616000	 42.968
7.634000	 42.9313
7.652000	 42.9365
7.670000	 42.9477
7.688000	 42.9191
7.706000	 42.8498
7.724000	 42.7832
7.742000	 42.7545
7.760000	 42.7401
7.778000	 42.6758
7.796000	 42.5416
7.814000	 42.4047
7.832000	 42.3413
7.850000	 42.3498
7.868000	 42.3771
7.886000	 42.394
7.904000	 42.3992
7.922000	 42.3907
7.940000	 42.3666
7.958000	 42.3312
7.976000	 42.2936
7.994000	 42.2583
8.012000	 42.2131
8.030000	 42.1389
8.048000	 42.058
8.065999	 42.0349
8.084000	 42.0966
8.102000	 42.1859
8.120000	 42.2253
8.138000	 42.1926
8.155999	 42.1108
8.173999	 42.0083
8.192000	 41.9074
8.210000	 41.8179
8.228000	 41.7347
8.246000	 41.6609
8.263999	 41.6224
8.282000	 41.6383
8.300000	 41.6801
8.318000	 41.693
8.336000	 41.6563
8.353999	 41.5999
8.372000	 41.5586
8.390000	 41.5321
8.408000	 41.5015
8.426000	 41.4603
8.443999	 41.4127
8.462000	 41.3639
8.480000	 41.3222
8.498000	 41.2979
8.516000	 41.2887
8.533999	 41.2779
8.552000	 41.2572
8.570000	 41.2377
8.588000	 41.234
8.606000	 41.2389
8.624000	 41.2263
8.641999	 41.1757
8.660000	 41.0969
8.678000	 41.023
8.696000	 40.9797
8.714000	 40.965
8.731999	 40.9613
8.750000	 40.9604
8.768000	 40.9688
8.786000	 40.9947
8.804000	 41.0308
8.821999	 41.0558
8.840000	 41.0459
8.858000	 40.9935
8.876000	 40.9133
8.894000	 40.8333
8.911999	 40.7732
8.930000	 40.7289
8.948000	 40.6778
8.966000	 40.6028
8.984000	 40.5177
9.001999	 40.4624
9.020000	 40.4687
9.038000	 40.524
9.056000	 40.5736
9.074000	 40.5641
9.092000	 40.4882
9.109999	 40.388
9.128000	 40.3185
9.146000	 40.3029
9.164000	 40.3206
9.182000	 40.3292
9.199999	 40.2985
9.218000	 40.2305
9.236000	 40.1525
9.254000	 40.0963
9.272000	 40.0789
9.289999	 40.0968
9.308000	 40.1292
9.326000	 40.1503
9.344000	 40.1451
9.362000	 40.1161
9.379999	 40.0763
9.398000	 40.0369
9.416000	 40.0022
9.434000	 39.9725
9.452000	 39.9468
9.469999	 39.9241
9.488000	 39.9047
9.506000	 39.8926
9.524000	 39.8963
9.542000	 39.9221
9.560000	 39.9636
9.577999	 39.9995
9.596000	 40.0036
9.614000	 39.9587
9.632000	 39.867
9.650000	 39.7531
9.667999	 39.6533
9.686000	 39.5956
9.704000	 39.5853
9.722000	 39.6062
9.740000	 39.6356
9.757999	 39.6588
9.776000	 39.6732
9.794000	 39.6808
9.812000	 39.6823
9.830000	 39.6767
9.847999	 39.6633
9.866000	 39.6385
9.884000	 39.5919
9.902000	 39.5129
9.920000	 39.4047
9.937999	 39.2915
9.956000	 39.2074
9.974000	 39.1739
9.992000	 39.1852
10.01	39.213
10.028	39.2289
10.046	39.2226
10.064	39.2046
10.082	39.1932
10.1	39.2014
10.118	39.2298
10.136	39.2675
10.154	39.2978
10.172	39.3034
10.19	39.2717
10.208	39.1996
10.226	39.0943
10.244	38.972
10.262	38.8529
10.28	38.7552
10.298	38.6922
10.316	38.6695
10.334	38.6831
10.352	38.7199
10.37	38.7605
10.388	38.7895
10.406	38.8003
10.424	38.7968
10.442	38.7873
10.46	38.7774
10.478	38.7668
10.496	38.7516
10.514	38.7296
10.532	38.7047
10.55	38.6824
10.568	38.6668
10.586	38.6559
10.604	38.6424
10.622	38.6175
10.64	38.5736
10.658	38.5073
10.676	38.4215
10.694	38.3249
10.712	38.2298
10.73	38.148
10.748	38.0865
10.766	38.0465
10.784	38.0247
10.802	38.0175
10.82	38.0252
10.838	38.0517
10.856	38.099
10.874	38.1623
10.892	38.2285
10.91	38.2794
10.928	38.2999
10.946	38.282
10.964	38.2286
10.982	38.1516
11	38.0675
11.018	37.9927
11.036	37.937
11.054	37.9015
11.072	37.8798
11.09	37.8617
11.108	37.8399
11.126	37.8147
11.144	37.7943
11.162	37.791
11.18	37.8127
11.198	37.8574
11.216	37.9115
11.234	37.9551
11.252	37.9702
11.27	37.9495
11.288	37.8993
11.306	37.835
11.324	37.776
11.342	37.7359
11.36	37.7181
11.378	37.7155
11.396	37.7153
11.414	37.7034
11.432	37.6698
11.45	37.6116
11.468	37.5315
11.486	37.4367
11.504	37.3369
11.522	37.2443
11.54	37.1709
11.558	37.1271
11.576	37.1186
11.594	37.1439
11.612	37.1933
11.63	37.2522
11.648	37.3059
11.666	37.3414
11.684	37.3514
11.702	37.3336
11.72	37.2883
11.738	37.2182
11.756	37.128
11.774	37.0253
11.792	36.922
11.81	36.8331
11.828	36.774
11.846	36.7559
11.864	36.7801
11.882	36.8375
11.9	36.9096
11.918	36.9741
11.936	37.0128
11.954	37.016
11.972	36.9839
11.99	36.9254
12.008	36.853
12.026	36.7766
12.044	36.7004
12.062	36.6212
12.08	36.5325
12.098	36.4295
12.116	36.3162
12.134	36.2071
12.152	36.1237
12.17	36.0864
12.188	36.1077
12.206	36.1849
12.224	36.3005
12.242	36.4287
12.26	36.5439
12.278	36.6274
12.296	36.6715
12.314	36.6801
12.332	36.6632
12.35	36.6319
12.368	36.5946
12.386	36.554
12.404	36.5092
12.422	36.4572
12.44	36.3975
12.458	36.3333
12.476	36.2719
12.494	36.2217
12.512	36.1889
12.53	36.1741
12.548	36.1713
12.566	36.1702
12.584	36.1595
12.602	36.1315
12.62	36.0842
12.638	36.022
12.656	35.954
12.674	35.8906
12.692	35.8405
12.71	35.8082
12.728	35.794
12.746	35.795
12.764	35.806
12.782	35.8219
12.8	35.8378
12.818	35.85
12.836	35.8548
12.854	35.8492
12.872	35.8312
12.89	35.7996
12.908	35.7548
12.926	35.6991
12.944	35.6365
12.962	35.5705
12.98	35.5032
12.998	35.4339
13.016	35.3599
13.034	35.2784
13.052	35.1874
13.07	35.0886
13.088	34.9888
13.106	34.9001
13.124	34.8364
13.142	34.8115
13.16	34.8343
13.178	34.9072
13.196	35.0236
13.214	35.1705
13.232	35.3296
13.25	35.4828
13.268	35.6149
13.286	35.7176
13.304	35.7891
13.322	35.8345
13.34	35.8625
13.358	35.8825
13.376	35.9011
13.394	35.9205
13.412	35.9382
13.43	35.9461
13.448	35.934
13.466	35.8914
13.484	35.811
13.502	35.6898
13.52	35.5304
13.538	35.341
13.556	35.1345
13.574	34.927
13.592	34.7353
13.61	34.5738
13.628	34.4536
13.646	34.3804
13.664	34.3544
13.682	34.37
13.7	34.4172
13.718	34.4837
13.736	34.5573
13.754	34.6264
13.772	34.6835
13.79	34.725
13.808	34.7518
13.826	34.7674
13.844	34.7774
13.862	34.7882
13.88	34.8047
13.898	34.8296
13.916	34.8627
13.934	34.9012
13.952	34.9405
13.97	34.9744
13.988	34.9966
14.006	35.001
14.024	34.9827
14.042	34.9383
14.06	34.8664
14.078	34.7674
14.096	34.6432
14.114	34.4978
14.132	34.3374
14.15	34.1692
14.168	34.0012
14.186	33.842
14.204	33.7001
14.222	33.5837
14.24	33.4984
14.258	33.4478
14.276	33.4323
14.294	33.4497
14.312	33.4951
14.33	33.5617
14.348	33.6407
14.366	33.7225
14.384	33.7975
14.402	33.8576
14.42	33.8965
14.438	33.91
14.456	33.8965
14.474	33.8567
14.492	33.7936
14.51	33.7129
14.528	33.6213
14.546	33.5263
14.564	33.4348
14.582	33.3534
14.6	33.2871
14.618	33.2396
14.636	33.2127
14.654	33.2062
14.672	33.2182
14.69	33.2456
14.708	33.2845
14.726	33.3301
14.744	33.3774
14.762	33.4217
14.78	33.4596
14.798	33.4885
14.816	33.5071
14.834	33.5152
14.852	33.5143
14.87	33.5065
14.888	33.4942
14.906	33.4801
14.924	33.4662
14.942	33.4543
14.96	33.4453
14.978	33.4392
14.996	33.4359
15.014	33.4348
15.032	33.4349
15.05	33.4355
15.068	33.4366
15.086	33.4379
15.104	33.4395
15.122	33.4418
15.14	33.4446
15.158	33.4475
15.176	33.4494
15.194	33.4495
15.212	33.4459
15.23	33.437
15.248	33.4214
15.266	33.3977
15.284	33.3652
15.302	33.3239
15.32	33.2745
15.338	33.2179
15.356	33.1553
15.374	33.0885
15.392	33.0187
15.41	32.9471
15.428	32.8747
15.446	32.8024
15.464	32.7306
15.482	32.6596
15.5	32.5898
15.518	32.522
15.536	32.4568
15.554	32.3952
15.572	32.3378
15.59	32.286
15.608	32.2407
15.626	32.2025
15.644	32.1723
15.662	32.1503
15.68	32.1365
15.698	32.131
15.716	32.1338
15.734	32.1449
15.752	32.164
15.77	32.1907
15.788	32.2244
15.806	32.2639
15.824	32.308
15.842	32.3548
15.86	32.4015
15.878	32.4458
15.896	32.4854
15.914	32.5173
15.932	32.54
15.95	32.5522
15.968	32.5533
15.986	32.5437
16.004	32.5248
16.022	32.4978
16.04	32.466
16.058	32.4319
16.076	32.3976
16.094	32.3665
16.112	32.3401
16.13	32.3195
16.148	32.3057
16.166	32.2982
16.184	32.2959
16.202	32.2975
16.22	32.2999
16.238	32.301
16.256	32.2987
16.274	32.2896
16.292	32.2722
16.31	32.2449
16.328	32.2064
16.346	32.1569
16.364	32.0968
16.382	32.0277
16.4	31.9517
16.418	31.8708
16.436	31.7885
16.454	31.7078
16.472	31.6309
16.49	31.5608
16.508	31.4988
16.526	31.446
16.544	31.4027
16.562	31.3681
16.58	31.3417
16.598	31.3217
16.616	31.3069
16.634	31.2962
16.652	31.2879
16.67	31.2814
16.688	31.2759
16.706	31.2711
16.724	31.2668
16.742	31.263
16.76	31.2596
16.778	31.2563
16.796	31.2526
16.814	31.248
16.832	31.2418
16.85	31.2329
16.868	31.2208
16.886	31.2047
16.904	31.1837
16.922	31.1579
16.94	31.1267
16.958	31.0904
16.976	31.0495
16.994	31.0047
17.012	30.9571
17.03	30.9077
17.048	30.858
17.066	30.8091
17.084	30.7622
17.102	30.7187
17.12	30.6791
17.138	30.6448
17.156	30.6164
17.174	30.5948
17.192	30.5806
17.21	30.5741
17.228	30.5757
17.246	30.5848
17.264	30.6013
17.282	30.6237
17.3	30.6513
17.318	30.6821
17.336	30.7142
17.354	30.7462
17.372	30.775
17.39	30.7994
17.408	30.8168
17.426	30.8261
17.444	30.8264
17.462	30.817
17.48	30.7983
17.498	30.7708
17.516	30.7361
17.534	30.6952
17.552	30.6511
17.57	30.6047
17.588	30.5595
17.606	30.5167
17.624	30.4789
17.642	30.4475
17.66	30.4233
17.678	30.4077
17.696	30.4005
17.714	30.4014
17.732	30.4095
17.75	30.4242
17.768	30.4426
17.786	30.464
17.804	30.4848
17.822	30.504
17.84	30.5181
17.858	30.5256
17.876	30.5242
17.894	30.5118
17.912	30.4876
17.93	30.4499
17.948	30.3988
17.966	30.3344
17.984	30.2576
18.002	30.1698
18.02	30.0736
18.038	29.9705
18.056	29.865
18.074	29.7582
18.092	29.6557
18.11	29.5583
18.128	29.4711
18.146	29.3946
18.164	29.3322
18.182	29.2841
18.2	29.2516
18.218	29.2337
18.236	29.2305
18.254	29.2394
18.272	29.2599
18.29	29.2876
18.308	29.3221
18.326	29.3584
18.344	29.3962
18.362	29.431
18.38	29.4626
18.398	29.4884
18.416	29.5082
18.434	29.5207
18.452	29.5265
18.47	29.5254
18.488	29.5191
18.506	29.5075
18.524	29.4932
18.542	29.4764
18.56	29.4594
18.578	29.4424
18.596	29.4272
18.614	29.4138
18.632	29.4033
18.65	29.3954
18.668	29.3899
18.686	29.3866
18.704	29.3846
18.722	29.3836
18.74	29.3817
18.758	29.3787
18.776	29.3727
18.794	29.3634
18.812	29.3489
18.83	29.3292
18.848	29.303
18.866	29.2703
18.884	29.2304
18.902	29.1838
18.92	29.1304
18.938	29.071
18.956	29.0064
18.974	28.9374
18.992	28.8654
19.01	28.7916
19.028	28.7177
19.046	28.6447
19.064	28.5744
19.082	28.5076
19.1	28.4462
19.118	28.3904
19.136	28.3418
19.154	28.3003
19.172	28.2666
19.19	28.2404
19.208	28.2215
19.226	28.2094
19.244	28.203
19.262	28.202
19.28	28.2044
19.298	28.21
19.316	28.2166
19.334	28.2241
19.352	28.2302
19.37	28.2351
19.388	28.2369
19.406	28.2356
19.424	28.2301
19.442	28.2204
19.46	28.2062
19.478	28.1872
19.496	28.164
19.514	28.1364
19.532	28.1051
19.55	28.07
19.568	28.0318
19.586	27.991
19.604	27.9479
19.622	27.9032
19.64	27.8569
19.658	27.8099
19.676	27.7623
19.694	27.7149
19.712	27.6678
19.73	27.622
19.748	27.5773
19.766	27.5347
19.784	27.4943
19.802	27.4568
19.82	27.4226
19.838	27.3919
19.856	27.3656
19.874	27.3436
19.892	27.3266
19.91	27.3144
19.928	27.3076
19.946	27.306
19.964	27.3093
19.982	27.3177
20	27.3301
20.018	27.3463
20.036	27.3655
20.054	27.3865
20.072	27.4092
20.09	27.4315
20.108	27.4538
20.126	27.4736
20.144	27.4911
20.162	27.5045
20.18	27.5132
20.198	27.5166
20.216	27.5136
20.234	27.5043
20.252	27.4882
20.27	27.4652
20.288	27.4356
20.306	27.3994
20.324	27.3574
20.342	27.3101
20.36	27.2581
20.378	27.2031
20.396	27.1447
20.414	27.0856
20.432	27.0253
20.45	26.9661
20.468	26.9088
20.486	26.8539
20.504	26.8033
20.522	26.7567
20.54	26.7155
20.558	26.6797
20.576	26.6496
20.594	26.6255
20.612	26.6073
20.63	26.595
20.648	26.5885
20.666	26.5872
20.684	26.5914
20.702	26.6004
20.72	26.6136
20.738	26.631
20.756	26.6516
20.774	26.6757
20.792	26.7024
20.81	26.7318
20.828	26.7634
20.846	26.7964
20.864	26.831
20.882	26.8659
20.9	26.9015
20.918	26.9363
20.936	26.9695
20.954	27.0013
20.972	27.0294
20.99	27.0545
21.008	27.0745
21.026	27.0886
21.044	27.0964
21.062	27.0956
21.08	27.0867
21.098	27.0679
21.116	27.0386
21.134	26.9988
21.152	26.9474
21.17	26.8848
21.188	26.8111
21.206	26.7259
21.224	26.6301
21.242	26.5246
21.26	26.4091
21.278	26.2861
21.296	26.1553
21.314	26.0182
21.332	25.8775
21.35	25.7322
21.368	25.5856
21.386	25.4381
21.404	25.2905
21.422	25.1461
21.44	25.0039
21.458	24.8662
21.476	24.7339
21.494	24.6071
21.512	24.4882
21.53	24.3767
21.548	24.2741
21.566	24.1814
21.584	24.0983
21.602	24.0272
21.62	23.9678
21.638	23.9207
21.656	23.8872
21.674	23.8668
21.692	23.8606
21.71	23.8692
21.728	23.892
21.746	23.9297
21.764	23.9821
21.782	24.0487
21.8	24.1293
21.818	24.2239
21.836	24.3296
21.854	24.4469
21.872	24.5741
21.89	24.7078
21.908	24.8497
21.926	24.9951
21.944	25.1414
21.962	25.2899
21.98	25.4346
21.998	25.576
22.016	25.7126
22.034	25.8398
22.052	25.9589
22.07	26.0677
22.088	26.1641
22.106	26.2491
22.124	26.3214
22.142	26.3803
22.16	26.4265
22.178	26.4611
22.196	26.4832
22.214	26.4949
22.232	26.4985
22.25	26.4927
22.268	26.4809
22.286	26.465
22.304	26.444
22.322	26.4219
22.34	26.3989
22.358	26.3753
22.376	26.354
22.394	26.3345
22.412	26.3175
22.43	26.3043
22.448	26.2947
22.466	26.2884
22.484	26.2852
22.502	26.2854
22.52	26.2872
22.538	26.2901
22.556	26.2942
22.574	26.2975
22.592	26.2998
22.61	26.301
22.628	26.2993
22.646	26.2948
22.664	26.2873
22.682	26.2757
22.7	26.2603
22.718	26.2409
22.736	26.2172
22.754	26.1893
22.772	26.1576
22.79	26.1224
22.808	26.0834
22.826	26.0415
22.844	25.9968
22.862	25.9492
22.88	25.8996
22.898	25.8486
22.916	25.7957
22.934	25.7417
22.952	25.687
22.97	25.6312
22.988	25.5737
23.006	25.5144
23.024	25.4534
23.042	25.3893
23.06	25.3222
23.078	25.2522
23.096	25.179
23.114	25.1023
23.132	25.0225
23.15	24.9403
23.168	24.8556
23.186	24.7685
23.204	24.6794
23.222	24.5877
23.24	24.4943
23.258	24.4015
23.276	24.308
23.294	24.2154
23.312	24.1279
23.33	24.0444
23.348	23.9662
23.366	23.898
23.384	23.8394
23.402	23.7906
23.42	23.7555
23.438	23.7342
23.456	23.7263
23.474	23.7339
23.492	23.758
23.51	23.7974
23.528	23.8518
23.546	23.9216
23.564	24.0065
23.582	24.1036
23.6	24.2126
23.618	24.3343
23.636	24.4639
23.654	24.5994
23.672	24.7429
23.69	24.8897
23.708	25.0371
23.726	25.1873
23.744	25.337
23.762	25.4827
23.78	25.626
23.798	25.7664
23.816	25.9026
23.834	26.0343
23.852	26.1629
23.87	26.2899
23.888	26.4142
23.906	26.537
23.924	26.6612
23.942	26.7865
23.96	26.9129
23.978	27.0426
23.996	27.1765
24.014	27.3137
24.032	27.4554
24.05	27.603
24.068	27.756
24.086	27.9131
24.104	28.0734
24.122	28.2384
24.14	28.4055
24.158	28.571
24.176	28.7378
24.194	28.9031
24.212	29.0596
24.23	29.2071
24.248	29.347
24.266	29.4725
24.284	29.5802
24.302	29.6745
24.32	29.7478
24.338	29.7934
24.356	29.8161
24.374	29.8118
24.392	29.7735
24.41	29.7032
24.428	29.6005
24.446	29.4587
24.464	29.2747
24.482	29.0519
24.5	28.7877
24.518	28.4797
24.536	28.1295
24.554	27.7367
24.572	27.3006
24.59	26.8202
24.608	26.2971
24.626	25.7338
24.644	25.1309
24.662	24.4868
24.68	23.8067
24.698	23.095
24.716	22.348
24.734	21.5696
24.752	20.7664
24.77	19.9366
24.788	19.0799
24.806	18.2066
24.824	17.3226
24.842	16.4197
24.86	15.5093
24.878	14.6049
24.896	13.6997
24.914	12.7968
24.932	11.9126
24.95	11.0544
24.968	10.2119
24.986	9.398758
25.004	8.629729
25.022	7.896436
25.04	7.202765
25.058	6.562965
25.076	5.983152
25.094	5.454935
25.112	4.986870
25.13	4.587841
25.148	4.254061
25.166	3.985664
25.184	3.787308
25.202	3.662395
25.22	3.608620
25.238	3.623089
25.256	3.703172
25.274	3.851251
25.292	4.065089
25.31	4.339336
25.328	4.671714
25.346	5.066415
25.364	5.516326
25.382	6.013439
25.4	6.560219
25.418	7.156726
25.436	7.795154
25.454	8.469871
25.472	9.186723
25.49	9.940448
25.508	10.7234
25.526	11.5368
25.544	12.3838
25.562	13.2518
25.58	14.1296
25.598	15.0274
25.616	15.9387
25.634	16.8474
25.652	17.7457
25.67	18.6479
25.688	19.5367
25.706	20.3915
25.724	21.214
25.742	22.0116
25.76	22.7651
25.778	23.4568
25.796	24.0955
25.814	24.6808
25.832	25.2034
25.85	25.6561
25.868	26.0428
25.886	26.3664
25.904	26.6287
25.922	26.8245
25.94	26.9523
25.958	27.0309
25.976	27.0785
25.994	27.083
26.012	27.0471
26.03	26.9956
26.048	26.949
26.066	26.8884
26.084	26.8238
26.102	26.7776
26.12	26.7647
26.138	26.7698
26.156	26.8
26.174	26.8661
26.192	26.9755
26.21	27.123
26.228	27.3026
26.246	27.5088
26.264	27.7488
26.282	28.0228
26.3	28.3107
26.318	28.5931
26.336	28.8837
26.354	29.1802
26.372	29.4584
26.39	29.6961
26.408	29.9138
26.426	30.1031
26.444	30.2383
26.462	30.2978
26.48	30.2966
26.498	30.233
26.516	30.0976
26.534	29.8829
26.552	29.5953
26.57	29.2341
26.588	28.7964
26.606	28.2796
26.624	27.6851
26.642	27.015
26.66	26.2717
26.678	25.4547
26.696	24.5603
26.714	23.5962
26.732	22.5712
26.75	21.4892
26.768	20.3432
26.786	19.1396
26.804	17.8856
26.822	16.5813
26.84	15.2176
26.858	13.81
26.876	12.3759
26.894	10.9197
26.912	9.423742
26.93	7.909512
26.948	6.401305
26.966	4.849752
26.984	3.144033
27.002	1.527296
27.02	0.265445
27.028	-0.073742