File: Bakgrunnsmateriale/MATLAB/FTIR/ftir_data/subBb/Mapping_121/C-4040-8_t13_cm-1.asc
PE IR       SPECTRUM    SPECTRUM    ASCII       PEDS        1.60
  -1
C-1AE1~1.ASC
17/03/27
15:31:33.00
17/03/27
15:31:33.00
tln
$C-4040-8_t0013$<tbV0>[10.4,-10.4,8.0,0.0,27,1,0]
370
64

2002,4.07
MIRTGS : RIGHTBACK : INTERNAL 2
MIR : ON : INTERNAL 2
OPTKBR

0.200000
8
8.000000
FILLER
RATIO
SPECTRUM
UNLOCKED 256

DOUBLE
64
COMBINED
1
0
0

1.000000
RATIO

1
0
TRUE
51149
0
LEFT NOT FITTED RIGHT NOT FITTED 0
NONE
NONE
15600
12
4.427000
51148
TRUE
1 0 8 72 0 0 0 0

15798

#HDR
-1
-1
#GR
CM-1
%T
2.38419e-05
0.0
5000
-1.000000
4631
8
77.6714
31.798
#DATA
5000	63.8203
4996	63.9571
4992	64.4145
4988	64.6128
4984	64.3723
4980	63.9614
4976	63.4923
4972	63.5118
4968	64.058
4964	63.7135
4960	62.8232
4956	62.917
4952	63.2979
4948	63.1738
4944	62.6684
4940	62.573
4936	63.4448
4932	64.0229
4928	63.4129
4924	62.916
4920	63.2882
4916	63.7881
4912	64.1404
4908	64.2849
4904	64.4379
4900	64.6168
4896	64.3981
4892	64.3771
4888	64.6827
4884	64.5936
4880	64.3937
4876	64.482
4872	64.3625
4868	64.084
4864	64.0683
4860	64.0305
4856	63.9336
4852	63.9489
4848	64.0354
4844	64.2438
4840	64.429
4836	64.4531
4832	64.3572
4828	64.1949
4824	64.0466
4820	64.0121
4816	64.0367
4812	64.0503
4808	64.0421
4804	63.9961
4800	63.9035
4796	63.7487
4792	63.8349
4788	64.0935
4784	64.0855
4780	64.0325
4776	64.1006
4772	64.077
4768	64.0449
4764	63.962
4760	63.8762
4756	64.1487
4752	64.4236
4748	64.4095
4744	64.3279
4740	64.0931
4736	63.78
4732	63.7339
4728	63.9601
4724	64.0457
4720	63.9514
4716	63.9727
4712	64.1207
4708	64.3067
4704	64.3726
4700	64.2215
4696	64.0391
4692	64.0868
4688	64.2557
4684	64.2079
4680	64.0246
4676	63.9497
4672	63.952
4668	64.0193
4664	64.1029
4660	64.2618
4656	64.5125
4652	64.4306
4648	64.1331
4644	64.0561
4640	64.0917
4636	64.0983
4632	64.1057
4628	64.0923
4624	64.0813
4620	64.1006
4616	64.0194
4612	64.0177
4608	64.1515
4604	63.9694
4600	63.7007
4596	63.8515
4592	64.0338
4588	63.9194
4584	63.766
4580	63.8652
4576	64.0632
4572	63.9255
4568	63.774
4564	63.9516
4560	64.1254
4556	64.0298
4552	63.6811
4548	63.5008
4544	63.5026
4540	63.3935
4536	63.4224
4532	63.5743
4528	63.6009
4524	63.5418
4520	63.5472
4516	63.5876
4512	63.5325
4508	63.5292
4504	63.6493
4500	63.5278
4496	63.1192
4492	62.8124
4488	62.8415
4484	62.8603
4480	63.2213
4476	63.6055
4472	63.57
4468	63.839
4464	64.1085
4460	64.3909
4456	65.1295
4452	67.1999
4448	69.3614
4444	68.862
4440	65.9388
4436	62.3433
4432	61.1526
4428	62.119
4424	62.367
4420	62.1392
4416	61.9726
4412	61.4877
4408	61.2558
4404	61.008
4400	60.5258
4396	60.4182
4392	64.4296
4388	74.1218
4384	77.2895
4380	71.7497
4376	68.0918
4372	66.3484
4368	65.0586
4364	64.6848
4360	64.6902
4356	64.4892
4352	63.7756
4348	63.1375
4344	62.798
4340	62.9215
4336	63.1288
4332	63.0336
4328	63.0184
4324	63.1904
4320	63.2801
4316	63.2529
4312	63.1715
4308	63.1962
4304	63.3166
4300	63.329
4296	63.2595
4292	63.2076
4288	63.0629
4284	63.0346
4280	63.1918
4276	63.3159
4272	63.3792
4268	63.3126
4264	63.2252
4260	63.2344
4256	63.2812
4252	63.2982
4248	63.167
4244	63.1163
4240	63.3767
4236	63.6148
4232	63.5348
4228	63.3079
4224	63.2858
4220	63.4269
4216	63.4859
4212	63.505
4208	63.4377
4204	63.2293
4200	63.0985
4196	63.1511
4192	63.1691
4188	63.1805
4184	63.1191
4180	62.7279
4176	62.5925
4172	63.0283
4168	63.3961
4164	63.4505
4160	63.4948
4156	63.5278
4152	63.411
4148	63.3232
4144	63.2194
4140	63.0748
4136	63.2471
4132	63.6041
4128	63.8208
4124	63.8784
4120	63.7913
4116	63.7939
4112	63.8352
4108	63.681
4104	63.5171
4100	63.4065
4096	63.3719
4092	63.5938
4088	63.8666
4084	63.9487
4080	63.9946
4076	63.9727
4072	63.8323
4068	63.7998
4064	63.8136
4060	63.7599
4056	63.8372
4052	63.9123
4048	63.7135
4044	63.5372
4040	63.6132
4036	63.7714
4032	63.8939
4028	63.9423
4024	63.9853
4020	64.0259
4016	63.97
4012	63.939
4008	63.98
4004	63.9913
4000	63.9306
3996	63.8375
3992	63.7974
3988	63.7792
3984	63.7497
3980	63.6342
3976	63.3925
3972	63.1886
3968	63.2379
3964	63.4567
3960	63.5262
3956	63.5772
3952	63.712
3948	63.7244
3944	63.6579
3940	63.5109
3936	63.3749
3932	63.38
3928	63.403
3924	63.4759
3920	63.5697
3916	63.5669
3912	63.4894
3908	63.4789
3904	63.6521
3900	63.7331
3896	63.5286
3892	63.31
3888	63.303
3884	63.4281
3880	63.5057
3876	63.5336
3872	63.5415
3868	63.4876
3864	63.4323
3860	63.5141
3856	63.7316
3852	63.7291
3848	63.4972
3844	63.3984
3840	63.4816
3836	63.6375
3832	63.6366
3828	63.4377
3824	63.3269
3820	63.4266
3816	63.4273
3812	63.3192
3808	63.4523
3804	63.6834
3800	63.6892
3796	63.5243
3792	63.4056
3788	63.3507
3784	63.2685
3780	63.1473
3776	63.1199
3772	63.3152
3768	63.5416
3764	63.5485
3760	63.456
3756	63.561
3752	63.7618
3748	63.7613
3744	63.6319
3740	63.5837
3736	63.6239
3732	63.5435
3728	63.393
3724	63.4083
3720	63.466
3716	63.5013
3712	63.562
3708	63.5291
3704	63.451
3700	63.3448
3696	63.2524
3692	63.3754
3688	63.4746
3684	63.371
3680	63.3739
3676	63.5149
3672	63.5079
3668	63.3289
3664	63.2059
3660	63.2017
3656	63.255
3652	63.3597
3648	63.3263
3644	63.1109
3640	62.9864
3636	63.0936
3632	63.2997
3628	63.2597
3624	63.0177
3620	62.9295
3616	63.0172
3612	63.1562
3608	63.2035
3604	63.1834
3600	63.2372
3596	63.2512
3592	63.2105
3588	63.1939
3584	63.1141
3580	63.0492
3576	63.0174
3572	62.954
3568	62.9397
3564	62.9893
3560	63.1623
3556	63.3262
3552	63.2607
3548	63.1286
3544	63.064
3540	63.0021
3536	62.9456
3532	62.9716
3528	63.0131
3524	62.9158
3520	62.8733
3516	62.9737
3512	62.9609
3508	62.894
3504	62.9111
3500	62.9406
3496	62.9032
3492	62.7293
3488	62.5544
3484	62.6949
3480	62.9687
3476	62.9579
3472	62.8003
3468	62.7502
3464	62.7485
3460	62.6956
3456	62.663
3452	62.7002
3448	62.7096
3444	62.6879
3440	62.672
3436	62.6449
3432	62.6767
3428	62.7123
3424	62.5931
3420	62.4001
3416	62.4126
3412	62.6081
3408	62.6814
3404	62.6421
3400	62.6187
3396	62.5529
3392	62.4471
3388	62.3637
3384	62.3373
3380	62.4441
3376	62.5417
3372	62.4751
3368	62.4624
3364	62.5668
3360	62.5725
3356	62.4466
3352	62.3963
3348	62.536
3344	62.6362
3340	62.6254
3336	62.6452
3332	62.6437
3328	62.5428
3324	62.344
3320	62.1858
3316	62.2275
3312	62.3333
3308	62.3438
3304	62.3005
3300	62.2499
3296	62.2636
3292	62.3526
3288	62.3781
3284	62.335
3280	62.3453
3276	62.3663
3272	62.3041
3268	62.226
3264	62.2229
3260	62.2243
3256	62.122
3252	62.0366
3248	62.1059
3244	62.1949
3240	62.2239
3236	62.2504
3232	62.2309
3228	62.1917
3224	62.2224
3220	62.2474
3216	62.1818
3212	62.0964
3208	62.0732
3204	62.0978
3200	62.1154
3196	62.0877
3192	62.0796
3188	62.111
3184	62.0851
3180	62.0341
3176	61.9777
3172	61.9126
3168	61.9164
3164	61.9926
3160	62.0749
3156	62.0567
3152	61.9456
3148	61.8507
3144	61.7895
3140	61.7908
3136	61.839
3132	61.8039
3128	61.7599
3124	61.857
3120	61.9742
3116	61.9927
3112	61.884
3108	61.7848
3104	61.8263
3100	61.8631
3096	61.8839
3092	61.913
3088	61.9193
3084	61.9148
3080	61.8558
3076	61.778
3072	61.775
3068	61.8838
3064	61.9797
3060	61.9257
3056	61.8083
3052	61.7546
3048	61.7484
3044	61.7326
3040	61.6975
3036	61.6741
3032	61.6592
3028	61.6688
3024	61.7547
3020	61.8111
3016	61.7255
3012	61.5953
3008	61.4735
3004	61.3863
3000	61.4765
2996	61.6196
2992	61.573
2988	61.4431
2984	61.385
2980	61.3859
2976	61.3566
2972	61.2908
2968	61.2602
2964	61.2555
2960	61.263
2956	61.2421
2952	61.2271
2948	61.3008
2944	61.4006
2940	61.4294
2936	61.3537
2932	61.2232
2928	61.1569
2924	61.1464
2920	61.0944
2916	60.9972
2912	60.8882
2908	60.8873
2904	61.0353
2900	61.119
2896	61.0195
2892	60.9661
2888	61.029
2884	61.0455
2880	61.0165
2876	61.0315
2872	61.123
2868	61.1816
2864	61.1672
2860	61.1163
2856	61.0634
2852	61.0534
2848	61.0454
2844	61.0746
2840	61.1115
2836	61.1005
2832	61.046
2828	60.956
2824	60.947
2820	61.021
2816	61.0368
2812	60.9859
2808	60.9215
2804	60.8681
2800	60.8724
2796	60.8756
2792	60.8566
2788	60.9164
2784	60.9807
2780	60.9468
2776	60.8629
2772	60.7845
2768	60.7601
2764	60.772
2760	60.7668
2756	60.7646
2752	60.792
2748	60.8363
2744	60.8313
2740	60.7704
2736	60.7434
2732	60.7489
2728	60.7085
2724	60.6473
2720	60.645
2716	60.6452
2712	60.6072
2708	60.5959
2704	60.601
2700	60.6132
2696	60.6378
2692	60.6019
2688	60.5373
2684	60.525
2680	60.5129
2676	60.4682
2672	60.414
2668	60.3683
2664	60.3735
2660	60.3769
2656	60.3332
2652	60.3142
2648	60.3014
2644	60.2539
2640	60.2239
2636	60.2435
2632	60.281
2628	60.3075
2624	60.2855
2620	60.1744
2616	60.0865
2612	60.1043
2608	60.1053
2604	60.0681
2600	60.0496
2596	60.0651
2592	60.1194
2588	60.1356
2584	60.1184
2580	60.1223
2576	60.1138
2572	60.0804
2568	60.0254
2564	59.9543
2560	59.9015
2556	59.888
2552	59.9033
2548	59.9469
2544	59.9428
2540	59.8589
2536	59.8244
2532	59.8929
2528	59.9219
2524	59.8582
2520	59.8247
2516	59.8468
2512	59.8445
2508	59.8183
2504	59.7968
2500	59.7178
2496	59.6172
2492	59.607
2488	59.6033
2484	59.5481
2480	59.5899
2476	59.7105
2472	59.7656
2468	59.7605
2464	59.7198
2460	59.6426
2456	59.5425
2452	59.5041
2448	59.5533
2444	59.59
2440	59.5852
2436	59.5579
2432	59.5624
2428	59.5271
2424	59.3098
2420	59.0766
2416	58.9737
2412	58.9669
2408	59.0857
2404	59.2257
2400	59.2431
2396	59.2187
2392	59.2296
2388	59.2184
2384	59.17
2380	59.1537
2376	59.1843
2372	59.202
2368	59.2121
2364	59.238
2360	59.2314
2356	59.1924
2352	59.1474
2348	59.0627
2344	59.0044
2340	59.0708
2336	59.1499
2332	59.1034
2328	58.9852
2324	58.8956
2320	58.8536
2316	58.8323
2312	58.8245
2308	58.8657
2304	58.9433
2300	58.9655
2296	58.9041
2292	58.8229
2288	58.8113
2284	58.8727
2280	58.8665
2276	58.8109
2272	58.8329
2268	58.8686
2264	58.8506
2260	58.8067
2256	58.7657
2252	58.7528
2248	58.7181
2244	58.6137
2240	58.5579
2236	58.6056
2232	58.6334
2228	58.6132
2224	58.5896
2220	58.5398
2216	58.4867
2212	58.4591
2208	58.4077
2204	58.3478
2200	58.354
2196	58.4123
2192	58.4079
2188	58.3271
2184	58.3157
2180	58.3586
2176	58.3424
2172	58.3026
2168	58.2723
2164	58.2545
2160	58.2577
2156	58.2462
2152	58.2148
2148	58.1483
2144	58.1153
2140	58.1448
2136	58.0272
2132	57.8646
2128	57.8773
2124	57.9501
2120	57.9952
2116	57.9506
2112	57.8178
2108	57.7674
2104	57.8245
2100	57.8818
2096	57.906
2092	57.9046
2088	57.9313
2084	57.9719
2080	57.9565
2076	57.9147
2072	57.8601
2068	57.8261
2064	57.834
2060	57.7783
2056	57.6537
2052	57.596
2048	57.6199
2044	57.6455
2040	57.6466
2036	57.6248
2032	57.6044
2028	57.5541
2024	57.4429
2020	57.3993
2016	57.4737
2012	57.5607
2008	57.5882
2004	57.5159
2000	57.4371
1996	57.4189
1992	57.4082
1988	57.4403
1984	57.4599
1980	57.391
1976	57.3135
1972	57.2949
1968	57.32
1964	57.342
1960	57.3395
1956	57.2957
1952	57.2202
1948	57.2074
1944	57.221
1940	57.1613
1936	57.1319
1932	57.1455
1928	57.1217
1924	57.113
1920	57.1039
1916	57.0662
1912	57.032
1908	56.9568
1904	56.8761
1900	56.8989
1896	56.9676
1892	56.9814
1888	56.9304
1884	56.869
1880	56.8357
1876	56.8012
1872	56.7454
1868	56.69
1864	56.6967
1860	56.7317
1856	56.6683
1852	56.5998
1848	56.6639
1844	56.7173
1840	56.65
1836	56.5836
1832	56.5953
1828	56.5888
1824	56.5442
1820	56.5485
1816	56.5935
1812	56.6272
1808	56.6096
1804	56.5397
1800	56.504
1796	56.5627
1792	56.6426
1788	56.6472
1784	56.5778
1780	56.5081
1776	56.5371
1772	56.607
1768	56.5726
1764	56.4939
1760	56.4325
1756	56.3673
1752	56.3486
1748	56.3475
1744	56.293
1740	56.2692
1736	56.3125
1732	56.2623
1728	56.1342
1724	56.0866
1720	56.1311
1716	56.1543
1712	56.096
1708	56.085
1704	56.1749
1700	56.2317
1696	56.1448
1692	56.0216
1688	55.9869
1684	55.9478
1680	55.8685
1676	55.8858
1672	55.9481
1668	55.9012
1664	55.822
1660	55.8685
1656	56.0663
1652	56.1498
1648	55.9875
1644	55.788
1640	55.7116
1636	55.7299
1632	55.6273
1628	55.4493
1624	55.4308
1620	55.5332
1616	55.5664
1612	55.4959
1608	55.4515
1604	55.4193
1600	55.3611
1596	55.3342
1592	55.3394
1588	55.3702
1584	55.3702
1580	55.3982
1576	55.4566
1572	55.3545
1568	55.223
1564	55.3554
1560	55.5997
1556	55.5826
1552	55.3907
1548	55.3444
1544	55.4936
1540	55.5428
1536	55.3598
1532	55.1889
1528	55.1976
1524	55.3352
1520	55.3616
1516	55.2375
1512	55.2436
1508	55.3941
1504	55.3644
1500	55.1683
1496	55.0551
1492	55.0509
1488	55.0335
1484	54.9179
1480	54.8382
1476	54.9012
1472	54.9105
1468	54.7987
1464	54.7987
1460	54.9
1456	54.8428
1452	54.6961
1448	54.7102
1444	54.7521
1440	54.7254
1436	54.7097
1432	54.5938
1428	54.4411
1424	54.4517
1420	54.4918
1416	54.3989
1412	54.2931
1408	54.3058
1404	54.4305
1400	54.4807
1396	54.3728
1392	54.2902
1388	54.2714
1384	54.2091
1380	54.1171
1376	54.1087
1372	54.1744
1368	54.1789
1364	54.1322
1360	54.1239
1356	54.1299
1352	54.0955
1348	54.066
1344	54.0705
1340	54.0452
1336	53.9835
1332	53.9085
1328	53.8881
1324	53.9577
1320	54.0137
1316	53.9736
1312	53.8637
1308	53.8275
1304	53.8628
1300	53.8321
1296	53.797
1292	53.792
1288	53.7687
1284	53.7654
1280	53.7389
1276	53.6534
1272	53.6038
1268	53.6469
1264	53.7034
1260	53.7373
1256	53.7852
1252	53.7701
1248	53.6953
1244	53.6201
1240	53.5283
1236	53.4987
1232	53.5292
1228	53.4867
1224	53.4558
1220	53.4727
1216	53.4437
1212	53.4427
1208	53.4399
1204	53.3579
1200	53.3192
1196	53.3434
1192	53.3039
1188	53.2159
1184	53.1604
1180	53.1263
1176	53.0917
1172	53.0518
1168	53.063
1164	53.1057
1160	53.0931
1156	53.0692
1152	53.0676
1148	53.0588
1144	53.0025
1140	52.9706
1136	53.0187
1132	53.0379
1128	53.0005
1124	52.9645
1120	52.9586
1116	52.9893
1112	52.9988
1108	52.9411
1104	52.8412
1100	52.6953
1096	52.6054
1092	52.6992
1088	52.7875
1084	52.7233
1080	52.6123
1076	52.4699
1072	52.4136
1068	52.4732
1064	52.5356
1060	52.6427
1056	52.7151
1052	52.7019
1048	52.6632
1044	52.6721
1040	52.7264
1036	52.6875
1032	52.6384
1028	52.6459
1024	52.5759
1020	52.4901
1016	52.5022
1012	52.5638
1008	52.5279
1004	52.4036
1000	52.3568
996	 52.3798
992	 52.3972
988	 52.3785
984	 52.3301
980	 52.2774
976	 52.2763
972	 52.3499
968	 52.3623
964	 52.2204
960	 52.0226
956	 51.8865
952	 51.8331
948	 51.819
944	 51.8428
940	 51.8276
936	 51.7344
932	 51.752
928	 51.7737
924	 51.5267
920	 51.3643
916	 51.7162
912	 52.1262
908	 51.9066
904	 51.1004
900	 50.6039
896	 51.0178
892	 51.5219
888	 51.4888
884	 51.3461
880	 51.4448
876	 51.5951
872	 51.4663
868	 51.3415
864	 51.3527
860	 51.3164
856	 51.262
852	 51.209
848	 51.1942
844	 51.1902
840	 51.1819
836	 51.1975
832	 51.1787
828	 51.1486
824	 51.2634
820	 51.3991
816	 51.3454
812	 51.2338
808	 51.1647
804	 51.1302
800	 51.1046
796	 51.0633
792	 51.1252
788	 51.265
784	 51.2916
780	 51.2299
776	 51.1091
772	 50.9288
768	 50.8284
764	 50.7447
760	 50.5667
756	 50.5513
752	 50.7524
748	 50.7857
744	 50.5272
740	 50.2538
736	 50.241
732	 50.3069
728	 50.2173
724	 50.2243
720	 50.3893
716	 50.4139
712	 50.3004
708	 50.214
704	 50.1507
700	 50.1844
696	 50.2417
692	 50.1018
688	 49.8567
684	 49.6335
680	 49.4039
676	 49.1664
672	 49.0953
668	 49.3102
664	 49.5059
660	 49.5727
656	 49.6691
652	 49.6459
648	 49.5532
644	 49.4959
640	 49.3628
636	 49.3104
632	 49.3411
628	 49.2652
624	 49.0618
620	 48.9977
616	 49.2486
612	 49.2268
608	 48.7259
604	 48.5727
600	 48.7837
596	 48.7389
592	 48.6211
588	 48.6827
584	 48.8481
580	 48.8049
576	 48.4256
572	 48.1061
568	 47.9329
564	 47.8766
560	 48.0551
556	 48.124
552	 47.9988
548	 48.0015
544	 47.9632
540	 47.7709
536	 47.5653
532	 47.5213
528	 47.4519
524	 46.9294
520	 46.561
516	 46.6684
512	 46.7515
508	 46.7865
504	 47.0828
500	 48.1316
496	 48.9208
492	 48.2321
488	 47.3804
484	 47.6688
480	 48.2951
476	 47.8367
472	 46.1496
468	 44.6895
464	 44.348
460	 44.2588
456	 44.1059
452	 44.0061
448	 44.7681
444	 46.5675
440	 46.4792
436	 44.5938
432	 44.3974
428	 45.3216
424	 45.1356
420	 45.2164
416	 46.9305
412	 47.1874
408	 44.3729
404	 42.5541
400	 43.5598
396	 45.8843
392	 48.4198
388	 54.6863
384	 51.7079
380	 37.1809
376	 33.8693
372	 33.4992
370	 31.798