File: Bakgrunnsmateriale/MATLAB/FTIR/ftir_data/subBb/Mapping_121/C-4040-8_t38.asc
PE IR       SPECTRUM    SPECTRUM    ASCII       PEDS        1.60
  -1
C-C13A~1.ASC
17/03/27
17:34:40.00
17/03/27
17:35:06.00
tln
$C-4040-8_t0038$<tbV0>[2.6,-5.2,8.0,0.0,27,1,0]
27.028
64

2002,4.07
MIRTGS : RIGHTBACK : INTERNAL 2
MIR : ON : INTERNAL 2
OPTKBR

0.200000
8
8.000000
FILLER
RATIO
SPECTRUM
UNLOCKED 256

DOUBLE
64
COMBINED
1
0
0

0.002000
RATIO

1
0
TRUE
51149
0
LEFT NOT FITTED RIGHT NOT FITTED 0
NONE
NONE
15600
12
4.427000
51148
TRUE
1 0 8 72 0 0 0 0

15798

#HDR
-1
-1
#GR
µM
%T
2.38419e-05
0.0
2.000000
0.002000
12515
8
75.844
3.986572
#DATA
2.000000	 63.8367
2.018000	 63.4549
2.036000	 63.5592
2.054000	 63.269
2.072000	 63.3787
2.090000	 63.0536
2.108000	 63.5455
2.126000	 63.224
2.144000	 62.9193
2.162000	 63.3003
2.180000	 63.0688
2.198000	 62.8451
2.216000	 62.142
2.234000	 62.5949
2.252000	 62.3405
2.270000	 62.6124
2.288000	 64.4433
2.306000	 63.8318
2.324000	 62.0172
2.342000	 62.403
2.360000	 61.8491
2.378000	 62.0256
2.396000	 61.6316
2.414000	 62.4187
2.432000	 61.9795
2.450000	 61.8663
2.468000	 62.0176
2.486000	 61.9549
2.504000	 61.7037
2.522000	 61.6409
2.540000	 61.5036
2.558000	 61.2319
2.576000	 61.3418
2.594000	 61.17
2.612000	 60.9005
2.630000	 60.8044
2.648000	 60.7606
2.666000	 60.9111
2.684000	 60.7539
2.702000	 60.5829
2.720000	 60.2015
2.738000	 60.3429
2.756000	 60.0494
2.774000	 60.1309
2.792000	 59.9294
2.810000	 59.9248
2.828000	 59.7142
2.846000	 59.6313
2.864000	 59.4838
2.882000	 59.2933
2.900000	 59.3244
2.918000	 58.9958
2.936000	 58.6909
2.954000	 58.5444
2.972000	 58.4875
2.990000	 58.4922
3.008000	 58.1655
3.026000	 58.4029
3.044000	 58.1205
3.062000	 57.7425
3.080000	 57.7465
3.098000	 57.5449
3.116000	 57.3201
3.134000	 57.3648
3.152000	 56.9554
3.170000	 56.8583
3.188000	 56.8716
3.206000	 56.5877
3.224000	 56.4941
3.242000	 56.3813
3.260000	 56.3581
3.278000	 55.9756
3.296000	 55.8587
3.314000	 55.7066
3.332000	 55.6338
3.350000	 55.4613
3.368000	 55.4095
3.386000	 55.0942
3.404000	 54.9132
3.422000	 54.4663
3.440000	 54.6661
3.458000	 54.5575
3.476000	 54.5101
3.494000	 54.2608
3.512000	 54.0218
3.530000	 54.1924
3.548000	 54.0668
3.566000	 53.9563
3.584000	 53.7023
3.602000	 53.464
3.620000	 53.4756
3.638000	 53.2755
3.656000	 52.9679
3.674000	 52.9927
3.692000	 52.771
3.710000	 52.736
3.728000	 52.4212
3.746000	 52.3474
3.764000	 52.2128
3.782000	 52.1204
3.800000	 51.9724
3.818000	 51.7708
3.836000	 51.681
3.854000	 51.3766
3.872000	 51.3346
3.890000	 51.1614
3.908000	 51.0397
3.926000	 51.0264
3.944000	 50.8565
3.962000	 50.7203
3.980000	 50.4746
3.998000	 50.4039
4.016000	 50.2455
4.034000	 49.9198
4.052000	 49.9183
4.070000	 49.8187
4.088000	 49.7292
4.106000	 49.4851
4.124000	 49.5187
4.141999	 49.4311
4.160000	 49.0534
4.178000	 49.066
4.196000	 48.9867
4.214000	 48.8736
4.232000	 48.7195
4.250000	 48.5777
4.268000	 48.5059
4.286000	 48.4468
4.304000	 48.2281
4.322000	 48.0255
4.340000	 47.8298
4.358000	 47.7935
4.375999	 47.7583
4.394000	 47.5467
4.412000	 47.4358
4.430000	 47.3351
4.448000	 47.2553
4.466000	 47.1213
4.484000	 47.0278
4.502000	 46.7706
4.520000	 46.7347
4.538000	 46.6291
4.556000	 46.4581
4.574000	 46.4521
4.592000	 46.4256
4.609999	 46.1791
4.628000	 46.1191
4.646000	 45.9357
4.664000	 45.9163
4.682000	 45.7872
4.700000	 45.638
4.718000	 45.5537
4.736000	 45.4657
4.754000	 45.2925
4.772000	 45.1709
4.790000	 45.2769
4.808000	 45.1991
4.826000	 44.9298
4.843999	 44.8441
4.862000	 44.9293
4.880000	 44.6493
4.898000	 44.5311
4.916000	 44.4405
4.934000	 44.3547
4.952000	 44.1746
4.970000	 44.0051
4.988000	 44.0339
5.006000	 43.9242
5.024000	 43.7744
5.042000	 43.6958
5.060000	 43.5743
5.077999	 43.4356
5.096000	 43.4053
5.114000	 43.4226
5.132000	 43.245
5.150000	 43.1038
5.168000	 43.0601
5.186000	 43.0103
5.204000	 42.9379
5.222000	 42.8703
5.240000	 42.6489
5.258000	 42.4533
5.276000	 42.3466
5.294000	 42.2837
5.312000	 42.2486
5.330000	 42.1259
5.348000	 42.1135
5.366000	 42.0995
5.384000	 41.9803
5.402000	 41.8892
5.420000	 41.8496
5.438000	 41.7475
5.456000	 41.6462
5.474000	 41.597
5.492000	 41.5176
5.510000	 41.4331
5.528000	 41.3284
5.546000	 41.2752
5.564000	 41.221
5.582000	 41.0882
5.600000	 40.9506
5.618000	 40.8448
5.636000	 40.8452
5.654000	 40.8209
5.672000	 40.7138
5.690000	 40.6877
5.708000	 40.524
5.726000	 40.3074
5.744000	 40.1587
5.762000	 40.1434
5.780000	 40.1502
5.798000	 39.9955
5.816000	 39.9636
5.834000	 40.0365
5.852000	 39.9368
5.870000	 39.795
5.888000	 39.7741
5.906000	 39.7795
5.923999	 39.706
5.942000	 39.597
5.960000	 39.5113
5.978000	 39.3729
5.996000	 39.2963
6.014000	 39.2417
6.032000	 39.2065
6.050000	 39.1291
6.068000	 39.0296
6.086000	 38.9529
6.104000	 38.9053
6.122000	 38.9519
6.140000	 38.8953
6.158000	 38.7351
6.176000	 38.6018
6.194000	 38.5529
6.212000	 38.5286
6.230000	 38.4598
6.248000	 38.3407
6.266000	 38.303
6.284000	 38.2634
6.302000	 38.194
6.320000	 38.1762
6.338000	 38.1305
6.356000	 38.0223
6.374000	 37.9131
6.392000	 37.9046
6.410000	 37.9021
6.428000	 37.786
6.446000	 37.6249
6.464000	 37.5677
6.482000	 37.5362
6.500000	 37.3979
6.518000	 37.296
6.536000	 37.3201
6.554000	 37.3696
6.572000	 37.3246
6.590000	 37.2006
6.608000	 37.1558
6.626000	 37.1875
6.644000	 37.1191
6.662000	 36.9817
6.680000	 36.9083
6.698000	 36.8251
6.716000	 36.723
6.734000	 36.7247
6.752000	 36.7099
6.770000	 36.5946
6.788000	 36.4986
6.806000	 36.4799
6.824000	 36.4821
6.842000	 36.4368
6.860000	 36.3791
6.878000	 36.3045
6.896000	 36.1823
6.914000	 36.1053
6.932000	 36.0735
6.950000	 36.0325
6.968000	 35.9869
6.986000	 35.9579
7.004000	 35.9295
7.022000	 35.8781
7.040000	 35.8672
7.058000	 35.8852
7.076000	 35.8109
7.094000	 35.6714
7.112000	 35.6083
7.130000	 35.6256
7.148000	 35.6103
7.166000	 35.5274
7.184000	 35.4505
7.202000	 35.4313
7.220000	 35.4386
7.238000	 35.4308
7.256000	 35.3983
7.274000	 35.2981
7.292000	 35.1258
7.310000	 35.0084
7.328000	 35.0181
7.346000	 35.0406
7.364000	 34.9799
7.382000	 34.8945
7.400000	 34.8588
7.418000	 34.8589
7.436000	 34.8564
7.454000	 34.8405
7.472000	 34.8129
7.490000	 34.7617
7.508000	 34.6688
7.526000	 34.556
7.544000	 34.4688
7.562000	 34.4173
7.580000	 34.3889
7.598000	 34.3734
7.616000	 34.3524
7.634000	 34.3221
7.652000	 34.299
7.670000	 34.2863
7.688000	 34.2701
7.706000	 34.234
7.724000	 34.1649
7.742000	 34.0877
7.760000	 34.0525
7.778000	 34.0616
7.796000	 34.0665
7.814000	 34.033
7.832000	 33.9569
7.850000	 33.8569
7.868000	 33.7768
7.886000	 33.7423
7.904000	 33.7357
7.922000	 33.7323
7.940000	 33.7243
7.958000	 33.7013
7.976000	 33.6467
7.994000	 33.564
8.012000	 33.4843
8.030000	 33.4382
8.048000	 33.4187
8.065999	 33.3935
8.084000	 33.3515
8.102000	 33.3064
8.120000	 33.2585
8.138000	 33.1842
8.155999	 33.0695
8.173999	 32.9476
8.192000	 32.8812
8.210000	 32.8957
8.228000	 32.9454
8.246000	 32.9564
8.263999	 32.9017
8.282000	 32.8204
8.300000	 32.7755
8.318000	 32.7933
8.336000	 32.8375
8.353999	 32.8462
8.372000	 32.7851
8.390000	 32.669
8.408000	 32.5478
8.426000	 32.4847
8.443999	 32.5134
8.462000	 32.5977
8.480000	 32.6547
8.498000	 32.638
8.516000	 32.5671
8.533999	 32.475
8.552000	 32.3744
8.570000	 32.2756
8.588000	 32.1958
8.606000	 32.143
8.624000	 32.1145
8.641999	 32.1141
8.660000	 32.1433
8.678000	 32.18
8.696000	 32.1887
8.714000	 32.1437
8.731999	 32.0364
8.750000	 31.8861
8.768000	 31.7458
8.786000	 31.6816
8.804000	 31.722
8.821999	 31.8298
8.840000	 31.922
8.858000	 31.9245
8.876000	 31.8133
8.894000	 31.6263
8.911999	 31.4399
8.930000	 31.3223
8.948000	 31.2903
8.966000	 31.3115
8.984000	 31.3478
9.001999	 31.3943
9.020000	 31.47
9.038000	 31.5821
9.056000	 31.7062
9.074000	 31.799
9.092000	 31.8166
9.109999	 31.7306
9.128000	 31.5464
9.146000	 31.3195
9.164000	 31.1352
9.182000	 31.0453
9.199999	 31.0296
9.218000	 31.0245
9.236000	 30.9865
9.254000	 30.9252
9.272000	 30.8793
9.289999	 30.8716
9.308000	 30.8889
9.326000	 30.8999
9.344000	 30.8859
9.362000	 30.8556
9.379999	 30.8375
9.398000	 30.8504
9.416000	 30.8773
9.434000	 30.8752
9.452000	 30.8126
9.469999	 30.7056
9.488000	 30.6094
9.506000	 30.5756
9.524000	 30.6093
9.542000	 30.6691
9.560000	 30.7011
9.577999	 30.6751
9.596000	 30.5947
9.614000	 30.4907
9.632000	 30.4026
9.650000	 30.359
9.667999	 30.3624
9.686000	 30.3894
9.704000	 30.4054
9.722000	 30.3874
9.740000	 30.3353
9.757999	 30.2665
9.776000	 30.2007
9.794000	 30.1474
9.812000	 30.1064
9.830000	 30.073
9.847999	 30.0427
9.866000	 30.0133
9.884000	 29.9849
9.902000	 29.9579
9.920000	 29.9316
9.937999	 29.9038
9.956000	 29.8707
9.974000	 29.8284
9.992000	 29.7744
10.01	29.7084
10.028	29.6333
10.046	29.5568
10.064	29.493
10.082	29.4586
10.1	29.4652
10.118	29.5099
10.136	29.5756
10.154	29.6398
10.172	29.6838
10.19	29.6989
10.208	29.6868
10.226	29.6543
10.244	29.6112
10.262	29.5678
10.28	29.5317
10.298	29.5043
10.316	29.4779
10.334	29.4399
10.352	29.3808
10.37	29.3006
10.388	29.2092
10.406	29.1203
10.424	29.0475
10.442	28.9983
10.46	28.9735
10.478	28.9681
10.496	28.9737
10.514	28.9835
10.532	28.9911
10.55	28.9916
10.568	28.9792
10.586	28.9484
10.604	28.8981
10.622	28.8345
10.64	28.772
10.658	28.7268
10.676	28.7078
10.694	28.7094
10.712	28.7141
10.73	28.704
10.748	28.6708
10.766	28.621
10.784	28.5703
10.802	28.5356
10.82	28.5246
10.838	28.5333
10.856	28.5494
10.874	28.556
10.892	28.5398
10.91	28.4948
10.928	28.4243
10.946	28.3407
10.964	28.262
10.982	28.2059
11	28.1816
11.018	28.1873
11.036	28.21
11.054	28.2319
11.072	28.2397
11.09	28.2292
11.108	28.206
11.126	28.1802
11.144	28.1598
11.162	28.1455
11.18	28.1308
11.198	28.1059
11.216	28.0646
11.234	28.0082
11.252	27.9453
11.27	27.888
11.288	27.8482
11.306	27.8313
11.324	27.837
11.342	27.8609
11.36	27.8968
11.378	27.9378
11.396	27.9778
11.414	28.0092
11.432	28.0237
11.45	28.0133
11.468	27.9728
11.486	27.9034
11.504	27.8136
11.522	27.7184
11.54	27.6327
11.558	27.5686
11.576	27.5301
11.594	27.5114
11.612	27.4996
11.63	27.4786
11.648	27.4358
11.666	27.3662
11.684	27.2757
11.702	27.1793
11.72	27.0966
11.738	27.045
11.756	27.0325
11.774	27.0566
11.792	27.1048
11.81	27.1603
11.828	27.2076
11.846	27.2364
11.864	27.2447
11.882	27.2362
11.9	27.2175
11.918	27.1942
11.936	27.1692
11.954	27.1427
11.972	27.1133
11.99	27.0797
12.008	27.0409
12.026	26.9964
12.044	26.9469
12.062	26.8949
12.08	26.8445
12.098	26.8006
12.116	26.768
12.134	26.7491
12.152	26.7429
12.17	26.7453
12.188	26.7505
12.206	26.7532
12.224	26.7507
12.242	26.7437
12.26	26.7345
12.278	26.7259
12.296	26.7188
12.314	26.7111
12.332	26.6981
12.35	26.6759
12.368	26.6424
12.386	26.5995
12.404	26.5521
12.422	26.5062
12.44	26.4665
12.458	26.4346
12.476	26.4091
12.494	26.3864
12.512	26.3628
12.53	26.3369
12.548	26.3102
12.566	26.2867
12.584	26.2712
12.602	26.2674
12.62	26.2759
12.638	26.2938
12.656	26.3156
12.674	26.3345
12.692	26.3446
12.71	26.3419
12.728	26.3248
12.746	26.2938
12.764	26.2513
12.782	26.2006
12.8	26.1452
12.818	26.0878
12.836	26.0303
12.854	25.9729
12.872	25.9158
12.89	25.8585
12.908	25.8006
12.926	25.7425
12.944	25.6852
12.962	25.6301
12.98	25.5784
12.998	25.5314
13.016	25.4901
13.034	25.4553
13.052	25.4277
13.07	25.4081
13.088	25.3964
13.106	25.3919
13.124	25.3931
13.142	25.397
13.16	25.3995
13.178	25.3963
13.196	25.3829
13.214	25.3566
13.232	25.3174
13.25	25.2679
13.268	25.2133
13.286	25.1601
13.304	25.1142
13.322	25.0802
13.34	25.0599
13.358	25.0521
13.376	25.0525
13.394	25.0555
13.412	25.0558
13.43	25.0489
13.448	25.0329
13.466	25.0089
13.484	24.9807
13.502	24.9537
13.52	24.9341
13.538	24.927
13.556	24.935
13.574	24.9579
13.592	24.9918
13.61	25.03
13.628	25.0639
13.646	25.0848
13.664	25.0856
13.682	25.0616
13.7	25.0129
13.718	24.9438
13.736	24.8625
13.754	24.7797
13.772	24.7067
13.79	24.653
13.808	24.6254
13.826	24.6261
13.844	24.653
13.862	24.7005
13.88	24.7606
13.898	24.8244
13.916	24.8836
13.934	24.9315
13.952	24.9634
13.97	24.9769
13.988	24.9715
14.006	24.9481
14.024	24.9087
14.042	24.8559
14.06	24.7923
14.078	24.7209
14.096	24.6445
14.114	24.5662
14.132	24.4892
14.15	24.4159
14.168	24.3485
14.186	24.2881
14.204	24.2349
14.222	24.1881
14.24	24.1463
14.258	24.1081
14.276	24.0721
14.294	24.0372
14.312	24.0029
14.33	23.9688
14.348	23.935
14.366	23.9015
14.384	23.8681
14.402	23.834
14.42	23.7979
14.438	23.7583
14.456	23.714
14.474	23.6642
14.492	23.6089
14.51	23.5492
14.528	23.487
14.546	23.4252
14.564	23.3668
14.582	23.3148
14.6	23.2716
14.618	23.2388
14.636	23.2163
14.654	23.2031
14.672	23.1969
14.69	23.1952
14.708	23.1951
14.726	23.1936
14.744	23.1882
14.762	23.1779
14.78	23.1626
14.798	23.1432
14.816	23.1212
14.834	23.099
14.852	23.0796
14.87	23.0651
14.888	23.057
14.906	23.0558
14.924	23.0611
14.942	23.071
14.96	23.0825
14.978	23.0923
14.996	23.097
15.014	23.093
15.032	23.0777
15.05	23.0497
15.068	23.0093
15.086	22.9577
15.104	22.8973
15.122	22.832
15.14	22.7662
15.158	22.704
15.176	22.6491
15.194	22.605
15.212	22.5737
15.23	22.5558
15.248	22.5506
15.266	22.5566
15.284	22.5711
15.302	22.5906
15.32	22.6123
15.338	22.6332
15.356	22.6505
15.374	22.6621
15.392	22.6673
15.41	22.6655
15.428	22.6568
15.446	22.6426
15.464	22.624
15.482	22.6021
15.5	22.5786
15.518	22.5551
15.536	22.5329
15.554	22.5132
15.572	22.4971
15.59	22.4848
15.608	22.4765
15.626	22.4719
15.644	22.47
15.662	22.4692
15.68	22.4679
15.698	22.4642
15.716	22.4558
15.734	22.4406
15.752	22.4173
15.77	22.3848
15.788	22.3428
15.806	22.2924
15.824	22.2349
15.842	22.1727
15.86	22.1093
15.878	22.0477
15.896	21.9906
15.914	21.9415
15.932	21.9022
15.95	21.8735
15.968	21.8561
15.986	21.8485
16.004	21.8488
16.022	21.8549
16.04	21.8628
16.058	21.8696
16.076	21.8729
16.094	21.8696
16.112	21.858
16.13	21.8374
16.148	21.8074
16.166	21.769
16.184	21.7237
16.202	21.6732
16.22	21.6203
16.238	21.567
16.256	21.5152
16.274	21.4668
16.292	21.4226
16.31	21.3831
16.328	21.3482
16.346	21.3171
16.364	21.289
16.382	21.2622
16.4	21.2357
16.418	21.2087
16.436	21.1798
16.454	21.1488
16.472	21.1155
16.49	21.08
16.508	21.0429
16.526	21.0048
16.544	20.9666
16.562	20.9291
16.58	20.8929
16.598	20.8591
16.616	20.8283
16.634	20.8011
16.652	20.7784
16.67	20.7607
16.688	20.7486
16.706	20.7428
16.724	20.7436
16.742	20.7515
16.76	20.7665
16.778	20.7884
16.796	20.8167
16.814	20.8498
16.832	20.8869
16.85	20.9251
16.868	20.9623
16.886	20.9964
16.904	21.0238
16.922	21.0428
16.94	21.0511
16.958	21.0465
16.976	21.0287
16.994	20.9971
17.012	20.9529
17.03	20.8965
17.048	20.831
17.066	20.7579
17.084	20.6799
17.102	20.6003
17.12	20.5206
17.138	20.4441
17.156	20.3716
17.174	20.3044
17.192	20.2432
17.21	20.1878
17.228	20.1379
17.246	20.0925
17.264	20.0512
17.282	20.0123
17.3	19.9754
17.318	19.9393
17.336	19.904
17.354	19.8691
17.372	19.835
17.39	19.802
17.408	19.7711
17.426	19.7427
17.444	19.7175
17.462	19.6961
17.48	19.6788
17.498	19.6656
17.516	19.6564
17.534	19.6511
17.552	19.6486
17.57	19.6485
17.588	19.6496
17.606	19.6516
17.624	19.654
17.642	19.6566
17.66	19.6595
17.678	19.663
17.696	19.6675
17.714	19.6736
17.732	19.6818
17.75	19.6927
17.768	19.7062
17.786	19.7227
17.804	19.7412
17.822	19.7616
17.84	19.7823
17.858	19.8022
17.876	19.8199
17.894	19.8337
17.912	19.8429
17.93	19.8458
17.948	19.8425
17.966	19.8323
17.984	19.816
18.002	19.794
18.02	19.768
18.038	19.7392
18.056	19.7103
18.074	19.6824
18.092	19.6582
18.11	19.6381
18.128	19.624
18.146	19.6155
18.164	19.613
18.182	19.6154
18.2	19.6217
18.218	19.6295
18.236	19.6377
18.254	19.6424
18.272	19.6429
18.29	19.6351
18.308	19.6187
18.326	19.5908
18.344	19.5512
18.362	19.4988
18.38	19.4341
18.398	19.3577
18.416	19.271
18.434	19.1754
18.452	19.0736
18.47	18.9672
18.488	18.86
18.506	18.7531
18.524	18.6511
18.542	18.5546
18.56	18.4675
18.578	18.3902
18.596	18.3256
18.614	18.2736
18.632	18.2355
18.65	18.2111
18.668	18.1999
18.686	18.2014
18.704	18.2136
18.722	18.2359
18.74	18.2654
18.758	18.3013
18.776	18.3404
18.794	18.3821
18.812	18.4235
18.83	18.4641
18.848	18.5015
18.866	18.5355
18.884	18.5652
18.902	18.5909
18.92	18.6123
18.938	18.6304
18.956	18.6459
18.974	18.6596
18.992	18.6727
19.01	18.6857
19.028	18.7001
19.046	18.7159
19.064	18.7339
19.082	18.7538
19.1	18.7754
19.118	18.798
19.136	18.8204
19.154	18.8416
19.172	18.8597
19.19	18.8739
19.208	18.8815
19.226	18.8824
19.244	18.8742
19.262	18.8571
19.28	18.8297
19.298	18.7924
19.316	18.7455
19.334	18.6893
19.352	18.626
19.37	18.5556
19.388	18.4817
19.406	18.4042
19.424	18.3274
19.442	18.2512
19.46	18.1792
19.478	18.112
19.496	18.0516
19.514	17.9989
19.532	17.9545
19.55	17.9193
19.568	17.8927
19.586	17.8746
19.604	17.8642
19.622	17.8605
19.64	17.8629
19.658	17.8689
19.676	17.8785
19.694	17.889
19.712	17.9005
19.73	17.9104
19.748	17.9187
19.766	17.9236
19.784	17.9249
19.802	17.9219
19.82	17.9139
19.838	17.9011
19.856	17.8831
19.874	17.86
19.892	17.8323
19.91	17.8
19.928	17.764
19.946	17.7241
19.964	17.6817
19.982	17.6368
20	17.5902
20.018	17.5424
20.036	17.494
20.054	17.4456
20.072	17.3974
20.09	17.3503
20.108	17.3042
20.126	17.2597
20.144	17.2167
20.162	17.1754
20.18	17.1359
20.198	17.0981
20.216	17.062
20.234	17.0274
20.252	16.9944
20.27	16.9629
20.288	16.9327
20.306	16.9036
20.324	16.8756
20.342	16.8485
20.36	16.8225
20.378	16.7977
20.396	16.7741
20.414	16.7521
20.432	16.7315
20.45	16.7128
20.468	16.696
20.486	16.6814
20.504	16.6689
20.522	16.6586
20.54	16.6504
20.558	16.6443
20.576	16.6397
20.594	16.6364
20.612	16.634
20.63	16.6314
20.648	16.629
20.666	16.6248
20.684	16.6193
20.702	16.611
20.72	16.599
20.738	16.5833
20.756	16.5624
20.774	16.5367
20.792	16.5056
20.81	16.4688
20.828	16.4267
20.846	16.3797
20.864	16.3277
20.882	16.2726
20.9	16.2138
20.918	16.1533
20.936	16.0923
20.954	16.031
20.972	15.9722
20.99	15.9153
21.008	15.8627
21.026	15.8152
21.044	15.773
21.062	15.7378
21.08	15.7092
21.098	15.6877
21.116	15.6737
21.134	15.6664
21.152	15.6654
21.17	15.6708
21.188	15.6804
21.206	15.6944
21.224	15.7114
21.242	15.7291
21.26	15.7483
21.278	15.7658
21.296	15.7815
21.314	15.7945
21.332	15.8026
21.35	15.8064
21.368	15.8043
21.386	15.7957
21.404	15.7806
21.422	15.7584
21.44	15.7291
21.458	15.6933
21.476	15.6507
21.494	15.6018
21.512	15.5483
21.53	15.4897
21.548	15.4274
21.566	15.3622
21.584	15.294
21.602	15.2252
21.62	15.1552
21.638	15.0854
21.656	15.0178
21.674	14.9516
21.692	14.889
21.71	14.8305
21.728	14.7763
21.746	14.7279
21.764	14.685
21.782	14.6483
21.8	14.6183
21.818	14.5947
21.836	14.5778
21.854	14.5678
21.872	14.5642
21.89	14.5665
21.908	14.5749
21.926	14.5884
21.944	14.6064
21.962	14.629
21.98	14.6543
21.998	14.6826
22.016	14.7129
22.034	14.7429
22.052	14.7735
22.07	14.8029
22.088	14.83
22.106	14.8552
22.124	14.877
22.142	14.8951
22.16	14.9095
22.178	14.9196
22.196	14.9254
22.214	14.9269
22.232	14.9242
22.25	14.917
22.268	14.9063
22.286	14.8923
22.304	14.8749
22.322	14.8555
22.34	14.8341
22.358	14.8111
22.376	14.7878
22.394	14.7639
22.412	14.74
22.43	14.7173
22.448	14.6954
22.466	14.6745
22.484	14.6551
22.502	14.637
22.52	14.6201
22.538	14.6045
22.556	14.5901
22.574	14.5765
22.592	14.5635
22.61	14.5512
22.628	14.5397
22.646	14.5286
22.664	14.5185
22.682	14.5103
22.7	14.5032
22.718	14.499
22.736	14.4997
22.754	14.5038
22.772	14.5141
22.79	14.5326
22.808	14.5579
22.826	14.593
22.844	14.6398
22.862	14.6969
22.88	14.7674
22.898	14.8531
22.916	14.9526
22.934	15.0675
22.952	15.1987
22.97	15.3453
22.988	15.5055
23.006	15.6802
23.024	15.8682
23.042	16.0644
23.06	16.2695
23.078	16.4824
23.096	16.6959
23.114	16.9115
23.132	17.1273
23.15	17.3344
23.168	17.5343
23.186	17.7254
23.204	17.8996
23.222	18.0583
23.24	18.2003
23.258	18.3187
23.276	18.414
23.294	18.4862
23.312	18.5305
23.33	18.5469
23.348	18.5362
23.366	18.4972
23.384	18.4287
23.402	18.3326
23.42	18.212
23.438	18.0657
23.456	17.8953
23.474	17.7066
23.492	17.4995
23.51	17.274
23.528	17.0377
23.546	16.7912
23.564	16.5336
23.582	16.2732
23.6	16.0123
23.618	15.7483
23.636	15.4896
23.654	15.2401
23.672	14.9961
23.69	14.7641
23.708	14.5483
23.726	14.3456
23.744	14.1595
23.762	13.9937
23.78	13.8461
23.798	13.718
23.816	13.6112
23.834	13.5254
23.852	13.46
23.87	13.4144
23.888	13.3896
23.906	13.3842
23.924	13.3959
23.942	13.4255
23.96	13.4723
23.978	13.5323
23.996	13.6047
24.014	13.6908
24.032	13.7857
24.05	13.8866
24.068	13.9966
24.086	14.1103
24.104	14.2229
24.122	14.3384
24.14	14.452
24.158	14.5575
24.176	14.6579
24.194	14.7509
24.212	14.8291
24.23	14.8923
24.248	14.942
24.266	14.9714
24.284	14.9768
24.302	14.9621
24.32	14.9224
24.338	14.8527
24.356	14.7564
24.374	14.6311
24.392	14.4726
24.41	14.2808
24.428	14.0569
24.446	13.8002
24.464	13.5096
24.482	13.1854
24.5	12.831
24.518	12.4483
24.536	12.0336
24.554	11.5932
24.572	11.1358
24.59	10.6571
24.608	10.1596
24.626	9.654817
24.644	9.146180
24.662	8.627028
24.68	8.111831
24.698	7.613572
24.716	7.122327
24.734	6.646190
24.752	6.199922
24.77	5.782194
24.788	5.390087
24.806	5.038395
24.824	4.736830
24.842	4.475515
24.86	4.263697
24.878	4.113275
24.896	4.021139
24.914	3.986572
24.932	4.016882
24.95	4.116850
24.968	4.282700
24.986	4.513867
25.004	4.810360
25.022	5.175169
25.04	5.604084
25.058	6.090051
25.076	6.631979
25.094	7.234545
25.112	7.885281
25.13	8.572093
25.148	9.305006
25.166	10.0766
25.184	10.8689
25.202	11.6758
25.22	12.509
25.238	13.3496
25.256	14.1777
25.274	15.0041
25.292	15.8247
25.31	16.6208
25.328	17.3818
25.346	18.1206
25.364	18.8253
25.382	19.4816
25.4	20.0922
25.418	20.6595
25.436	21.1754
25.454	21.6332
25.472	22.037
25.49	22.3869
25.508	22.6815
25.526	22.9194
25.544	23.1016
25.562	23.2315
25.58	23.3119
25.598	23.3395
25.616	23.3172
25.634	23.2517
25.652	23.1456
25.67	22.9921
25.688	22.8018
25.706	22.5867
25.724	22.3447
25.742	22.072
25.76	21.7836
25.778	21.4934
25.796	21.1927
25.814	20.8844
25.832	20.5794
25.85	20.2848
25.868	19.9925
25.886	19.7082
25.904	19.4396
25.922	19.1875
25.94	18.9475
25.958	18.7267
25.976	18.5319
25.994	18.3603
26.012	18.2113
26.03	18.0908
26.048	18.0036
26.066	17.9452
26.084	17.9177
26.102	17.926
26.12	17.9733
26.138	18.0566
26.156	18.1765
26.174	18.3343
26.192	18.5292
26.21	18.7595
26.228	19.0297
26.246	19.3445
26.264	19.7063
26.282	20.112
26.3	20.5587
26.318	21.0437
26.336	21.5759
26.354	22.1497
26.372	22.7484
26.39	23.3577
26.408	23.9948
26.426	24.65
26.444	25.2992
26.462	25.9235
26.48	26.5479
26.498	27.1561
26.516	27.7187
26.534	28.215
26.552	28.6709
26.57	29.0711
26.588	29.3919
26.606	29.6174
26.624	29.7647
26.642	29.8281
26.66	29.7978
26.678	29.6664
26.696	29.4383
26.714	29.1184
26.732	28.7115
26.75	28.2147
26.768	27.6181
26.786	26.9436
26.804	26.2153
26.822	25.4414
26.84	24.6003
26.858	23.7147
26.876	22.8101
26.894	21.8978
26.912	20.9565
26.93	20.0026
26.948	19.0554
26.966	18.0874
26.984	17.0282
27.002	16.0264
27.02	15.2449
27.028	15.0346