File: Bakgrunnsmateriale/MATLAB/FTIR/ftir_data/subBb/Mapping_121/C-4040-8_e122_cm-1.asc
PE IR       SPECTRUM    SPECTRUM    ASCII       PEDS        1.60
  -1
C-4040~1.ASC
17/03/27
14:29:38.00
17/03/27
14:29:38.00
tln
$C-4040-8_e0122$<ebV0>[-23.3,12.1,10.0,0.0,27,1,0]
370
64

2002,4.07
MIRTGS : RIGHTBACK : INTERNAL 2
MIR : ON : INTERNAL 2
OPTKBR

0.200000
8
8.000000
FILLER
SINGLE
SPECTRUM
UNLOCKED 256

DOUBLE

COMBINED
1
0
0

1.000000
BACKG

1
0
TRUE
51149
0
LEFT NOT FITTED RIGHT NOT FITTED 0
NONE
NONE
15600
12
4.427000
51148
TRUE
1 0 8 72 0 0 0 0

15798

#HDR
-1
-1
#GR
CM-1
EGY
2.38419e-05
0.0
5000
-1.000000
4631
8
2.455806
0.009918
#DATA
5000	0.768876
4996	0.773239
4992	0.771427
4988	0.768613
4984	0.772309
4980	0.778532
4976	0.784373
4972	0.786638
4968	0.783729
4964	0.788450
4960	0.797820
4956	0.797319
4952	0.793409
4948	0.797319
4944	0.809383
4940	0.812625
4936	0.800871
4932	0.793862
4928	0.800085
4924	0.805258
4920	0.802087
4916	0.798487
4912	0.795841
4908	0.794601
4904	0.795531
4900	0.799036
4896	0.805544
4892	0.808835
4888	0.808787
4884	0.809550
4880	0.812315
4876	0.815844
4872	0.818896
4868	0.822377
4864	0.824308
4860	0.824856
4856	0.827026
4852	0.830507
4848	0.832509
4844	0.832986
4840	0.833725
4836	0.835537
4832	0.839996
4828	0.845956
4824	0.850915
4820	0.854873
4816	0.858473
4812	0.861597
4808	0.863432
4804	0.864553
4800	0.866484
4796	0.869393
4792	0.871133
4788	0.871086
4784	0.872683
4780	0.875830
4776	0.878047
4772	0.880336
4768	0.883889
4764	0.887632
4760	0.890302
4756	0.891184
4752	0.891065
4748	0.891423
4744	0.893306
4740	0.896692
4736	0.900101
4732	0.902271
4728	0.902795
4724	0.903010
4720	0.903701
4716	0.904297
4712	0.904822
4708	0.904536
4704	0.904369
4700	0.905346
4696	0.906753
4692	0.906825
4688	0.905513
4684	0.905656
4680	0.907206
4676	0.908184
4672	0.909662
4668	0.911259
4664	0.911808
4660	0.911355
4656	0.910854
4652	0.912547
4648	0.915050
4644	0.916361
4640	0.916671
4636	0.916981
4632	0.918340
4628	0.919890
4624	0.921368
4620	0.922918
4616	0.924968
4612	0.927448
4608	0.928950
4604	0.930953
4600	0.934052
4596	0.936818
4592	0.940251
4588	0.943946
4584	0.947475
4580	0.949835
4576	0.951051
4572	0.954818
4568	0.959086
4564	0.960946
4560	0.962400
4556	0.965404
4552	0.971055
4548	0.974845
4544	0.977110
4540	0.981235
4536	0.984311
4532	0.987315
4528	0.989055
4524	0.988698
4520	0.989127
4516	0.991010
4512	0.993013
4508	0.992846
4504	0.992059
4500	0.994801
4496	0.999307
4492	1.004028
4488	1.005744
4484	1.005387
4480	1.001214
4476	0.999021
4472	1.001787
4468	0.999045
4464	0.994563
4460	0.989341
4456	0.978159
4452	0.945067
4448	0.911617
4444	0.916743
4440	0.958871
4436	1.016712
4432	1.039099
4428	1.027607
4424	1.024103
4420	1.024222
4416	1.023650
4412	1.023149
4408	1.020002
4404	1.020908
4400	1.024866
4396	1.026678
4392	1.028037
4388	1.029348
4384	1.029872
4380	1.032376
4376	1.037096
4372	1.040077
4368	1.041078
4364	1.043009
4360	1.045465
4356	1.048350
4352	1.052689
4348	1.057291
4344	1.061725
4340	1.066136
4336	1.071071
4332	1.077198
4328	1.083278
4324	1.087665
4320	1.091980
4316	1.098656
4312	1.104736
4308	1.108956
4304	1.113438
4300	1.117277
4296	1.119685
4292	1.122951
4288	1.128625
4284	1.134014
4280	1.137733
4276	1.141810
4272	1.145005
4268	1.147890
4264	1.152348
4260	1.156401
4256	1.159477
4252	1.162767
4248	1.166749
4244	1.171088
4240	1.173543
4236	1.174736
4232	1.177263
4228	1.180434
4224	1.182198
4220	1.183032
4216	1.185059
4212	1.187276
4208	1.188230
4204	1.189732
4200	1.192665
4196	1.195263
4192	1.199054
4188	1.203393
4184	1.206731
4180	1.210832
4176	1.214265
4172	1.215195
4168	1.212906
4164	1.210546
4160	1.210927
4156	1.213455
4152	1.218318
4148	1.223349
4144	1.226425
4140	1.228165
4136	1.229429
4132	1.230382
4128	1.232647
4124	1.236820
4120	1.241040
4116	1.244330
4112	1.248764
4108	1.254796
4104	1.260375
4100	1.265692
4096	1.270389
4092	1.272916
4088	1.276016
4084	1.281285
4080	1.286816
4076	1.293158
4072	1.300048
4068	1.305532
4064	1.310062
4060	1.314592
4056	1.319742
4052	1.326656
4048	1.334095
4044	1.339149
4040	1.341795
4036	1.344633
4032	1.349258
4028	1.354885
4024	1.359295
4020	1.362276
4016	1.366329
4012	1.371026
4008	1.374673
4004	1.379132
4000	1.383900
3996	1.386833
3992	1.389932
3988	1.394224
3984	1.398944
3980	1.404619
3976	1.408505
3972	1.409125
3968	1.408076
3964	1.407432
3960	1.409244
3956	1.411533
3952	1.412296
3948	1.411962
3944	1.411771
3940	1.414966
3936	1.418662
3932	1.419043
3928	1.417660
3924	1.416945
3920	1.419043
3916	1.422309
3912	1.423573
3908	1.421499
3904	1.418161
3900	1.419711
3896	1.424980
3892	1.427459
3888	1.428818
3884	1.432490
3880	1.437401
3876	1.438236
3872	1.435160
3868	1.436376
3864	1.442408
3860	1.442790
3856	1.433897
3852	1.436114
3848	1.453018
3844	1.460504
3840	1.458573
3836	1.463174
3832	1.475381
3828	1.485157
3824	1.487922
3820	1.487469
3816	1.491904
3812	1.499319
3808	1.499176
3804	1.496863
3800	1.503777
3796	1.518321
3792	1.530241
3788	1.535654
3784	1.539301
3780	1.543617
3776	1.546096
3772	1.544904
3768	1.544785
3764	1.548147
3760	1.549887
3756	1.543498
3752	1.532387
3748	1.528549
3744	1.535606
3740	1.544404
3736	1.547431
3732	1.553153
3728	1.562166
3724	1.565980
3720	1.566123
3716	1.562094
3712	1.559090
3708	1.564979
3704	1.571178
3700	1.572918
3696	1.571178
3692	1.563191
3688	1.560592
3684	1.566648
3680	1.563358
3676	1.552653
3672	1.552391
3668	1.563763
3664	1.572918
3660	1.572251
3656	1.566362
3652	1.559400
3648	1.560211
3644	1.571631
3640	1.579475
3636	1.576709
3632	1.568174
3628	1.567149
3624	1.574707
3620	1.578068
3616	1.578259
3612	1.579475
3608	1.583933
3604	1.590013
3600	1.592373
3596	1.592206
3592	1.590275
3588	1.589727
3584	1.595067
3580	1.601219
3576	1.604461
3572	1.606059
3568	1.606583
3564	1.608777
3560	1.612377
3556	1.615405
3552	1.617646
3548	1.619100
3544	1.620459
3540	1.621270
3536	1.621055
3532	1.620602
3528	1.621222
3524	1.623320
3520	1.626276
3516	1.628470
3512	1.629853
3508	1.629304
3504	1.625895
3500	1.623392
3496	1.622128
3492	1.619243
3488	1.615738
3484	1.611995
3480	1.609396
3476	1.608657
3472	1.606869
3468	1.604366
3464	1.602387
3460	1.600027
3456	1.597571
3452	1.595020
3448	1.591658
3444	1.587843
3440	1.584649
3436	1.583385
3432	1.583766
3428	1.584506
3424	1.585650
3420	1.587152
3416	1.587462
3412	1.587605
3408	1.590418
3404	1.594614
3400	1.597809
3396	1.600790
3392	1.603007
3388	1.604604
3384	1.606559
3380	1.607680
3376	1.610207
3372	1.616144
3368	1.621699
3364	1.626682
3360	1.633882
3356	1.641106
3352	1.646709
3348	1.651597
3344	1.657056
3340	1.662802
3336	1.667690
3332	1.673102
3328	1.680207
3324	1.687383
3320	1.693701
3316	1.698613
3312	1.703047
3308	1.709032
3304	1.716041
3300	1.722240
3296	1.727175
3292	1.731753
3288	1.737356
3284	1.743340
3280	1.747083
3276	1.749563
3272	1.753878
3268	1.759552
3264	1.764798
3260	1.769185
3256	1.772570
3252	1.774597
3248	1.775884
3244	1.779031
3240	1.782727
3236	1.783728
3232	1.783895
3228	1.785397
3224	1.785850
3220	1.785111
3216	1.785373
3212	1.785683
3208	1.786136
3204	1.788449
3200	1.791405
3196	1.794075
3192	1.795721
3188	1.795363
3184	1.795315
3180	1.796174
3176	1.798582
3172	1.802659
3168	1.803994
3164	1.802921
3160	1.803135
3156	1.805186
3152	1.808333
3148	1.811933
3144	1.816916
3140	1.822328
3136	1.826429
3132	1.831483
3128	1.836538
3124	1.838612
3120	1.840424
3116	1.845407
3112	1.853156
3108	1.861214
3104	1.868271
3100	1.875567
3096	1.883721
3092	1.892614
3088	1.900839
3084	1.908373
3080	1.915597
3076	1.921296
3072	1.925826
3068	1.929664
3064	1.933670
3060	1.939201
3056	1.946401
3052	1.954269
3048	1.961135
3044	1.967024
3040	1.972246
3036	1.975679
3032	1.976394
3028	1.972293
3024	1.962566
3020	1.955294
3016	1.961398
3012	1.980257
3008	2.000856
3004	2.015519
3000	2.023077
2996	2.026605
2992	2.028727
2988	2.028059
2984	2.024173
2980	2.016973
2976	2.004694
2972	1.985001
2968	1.959657
2964	1.937627
2960	1.925778
2956	1.922941
2952	1.920604
2948	1.908898
2944	1.883101
2940	1.846694
2936	1.810598
2932	1.781892
2928	1.763772
2924	1.767826
2920	1.801252
2916	1.850247
2912	1.895523
2908	1.927804
2904	1.947498
2900	1.960444
2896	1.972222
2892	1.983880
2888	1.994657
2884	2.002406
2880	2.005553
2876	2.001833
2872	1.984047
2868	1.950550
2864	1.915931
2860	1.905226
2856	1.926493
2852	1.964092
2848	2.003788
2844	2.037835
2840	2.063989
2836	2.085041
2832	2.102613
2828	2.116394
2824	2.126359
2820	2.135276
2816	2.145576
2812	2.155637
2808	2.164030
2804	2.172231
2800	2.180361
2796	2.187848
2792	2.193975
2788	2.199864
2784	2.207827
2780	2.216839
2776	2.225041
2772	2.231526
2768	2.235770
2764	2.239036
2760	2.242469
2756	2.245211
2752	2.246618
2748	2.248072
2744	2.250266
2740	2.251911
2736	2.253007
2732	2.253913
2728	2.253866
2724	2.253413
2720	2.252960
2716	2.252054
2712	2.250623
2708	2.248072
2704	2.244782
2700	2.241659
2696	2.238321
2692	2.235937
2688	2.235269
2684	2.234649
2680	2.233576
2676	2.231097
2672	2.227568
2668	2.224874
2664	2.222418
2660	2.220439
2656	2.218961
2652	2.217555
2648	2.217030
2644	2.216649
2640	2.215790
2636	2.215528
2632	2.215337
2628	2.214646
2624	2.215194
2620	2.218365
2616	2.221941
2612	2.223634
2608	2.224802
2604	2.225661
2600	2.225971
2596	2.226901
2592	2.228760
2588	2.233123
2584	2.238821
2580	2.244544
2576	2.251791
2572	2.258849
2568	2.264332
2564	2.269387
2560	2.274394
2556	2.278828
2552	2.283430
2548	2.288055
2544	2.292752
2540	2.298212
2536	2.303600
2532	2.307271
2528	2.309393
2524	2.311682
2520	2.314901
2516	2.317905
2512	2.320456
2508	2.323174
2504	2.325010
2500	2.327370
2496	2.329182
2492	2.327203
2488	2.325940
2484	2.327013
2480	2.325296
2476	2.320551
2472	2.316212
2468	2.312707
2464	2.308988
2460	2.305626
2456	2.303791
2452	2.300524
2448	2.293848
2444	2.287173
2440	2.282786
2436	2.279710
2432	2.276015
2428	2.272820
2424	2.272319
2420	2.271342
2416	2.268314
2412	2.265501
2408	2.263092
2404	2.260160
2400	2.256178
2396	2.251887
2392	2.248358
2388	2.246069
2384	2.244687
2380	2.242684
2376	2.239060
2372	2.234625
2368	2.230858
2364	2.229094
2360	2.232336
2356	2.241683
2352	2.252364
2348	2.259850
2344	2.263927
2340	2.265381
2336	2.266812
2332	2.272701
2328	2.282214
2324	2.291560
2320	2.299904
2316	2.308011
2312	2.315926
2308	2.322626
2304	2.328252
2300	2.335000
2296	2.342796
2292	2.349829
2288	2.355217
2284	2.358722
2280	2.361559
2276	2.364826
2272	2.367973
2268	2.370238
2264	2.372145
2260	2.374792
2256	2.377533
2252	2.378630
2248	2.379250
2244	2.380895
2240	2.381801
2236	2.380871
2232	2.379274
2228	2.377963
2224	2.376842
2220	2.374458
2216	2.370977
2212	2.367973
2208	2.364635
2204	2.361321
2200	2.358579
2196	2.355003
2192	2.351522
2188	2.349853
2184	2.347755
2180	2.343750
2176	2.339911
2172	2.337527
2168	2.335834
2164	2.333688
2160	2.332019
2156	2.332139
2152	2.333378
2148	2.334141
2144	2.333784
2140	2.332353
2136	2.331948
2132	2.333140
2128	2.333998
2124	2.334690
2120	2.334332
2116	2.333784
2112	2.336144
2108	2.338504
2104	2.338528
2100	2.337908
2096	2.337026
2092	2.335977
2088	2.334928
2084	2.335953
2080	2.341651
2076	2.350616
2072	2.360916
2068	2.369594
2064	2.375340
2060	2.382683
2056	2.392649
2052	2.401614
2048	2.408552
2044	2.414584
2040	2.420711
2036	2.427029
2032	2.432417
2028	2.437806
2024	2.443456
2020	2.447605
2016	2.450108
2012	2.451038
2008	2.451968
2004	2.454590
2000	2.455759
1996	2.454042
1992	2.453541
1988	2.453494
1984	2.451324
1980	2.448821
1976	2.446079
1972	2.441477
1968	2.436208
1964	2.432322
1960	2.429866
1956	2.427816
1952	2.424979
1948	2.420186
1944	2.415418
1940	2.412962
1936	2.411031
1932	2.407693
1928	2.403545
1924	2.397489
1920	2.390670
1916	2.386426
1912	2.383089
1908	2.379679
1904	2.376961
1900	2.373027
1896	2.368688
1892	2.366733
1888	2.368354
1884	2.371597
1880	2.374339
1876	2.376079
1872	2.375841
1868	2.376866
1864	2.381181
1860	2.385449
1856	2.389192
1852	2.391266
1848	2.389430
1844	2.390146
1840	2.398872
1836	2.406001
1832	2.405047
1828	2.404880
1824	2.410674
1820	2.417373
1816	2.421331
1812	2.424263
1808	2.427220
1804	2.427840
1800	2.426028
1796	2.421736
1792	2.419185
1788	2.421498
1784	2.422761
1780	2.420306
1776	2.411627
1772	2.402639
1768	2.403903
1764	2.404952
1760	2.399158
1756	2.389931
1752	2.377295
1748	2.366065
1744	2.354812
1740	2.335453
1736	2.313852
1732	2.308106
1728	2.315711
1724	2.313494
1720	2.295398
1716	2.284693
1712	2.289843
1708	2.284908
1704	2.259635
1700	2.235102
1696	2.235054
1692	2.246332
1688	2.236557
1684	2.222609
1680	2.226042
1676	2.224564
1672	2.214550
1668	2.210140
1664	2.207684
1660	2.192878
1656	2.158761
1652	2.135038
1648	2.139616
1644	2.149748
1640	2.145147
1636	2.131128
1632	2.125835
1628	2.118968
1624	2.097296
1620	2.065396
1616	2.028155
1612	1.992201
1608	1.968502
1604	1.971077
1600	1.991224
1596	2.007460
1592	2.013254
1588	2.010560
1584	2.001714
1580	1.986312
1576	1.973605
1572	1.971364
1568	1.966547
1564	1.940965
1560	1.909947
1556	1.913666
1552	1.939654
1548	1.946926
1544	1.939010
1540	1.958060
1536	2.016520
1532	2.072000
1528	2.095627
1524	2.095556
1520	2.091264
1516	2.088952
1512	2.075219
1508	2.043294
1504	1.978111
1500	1.841855
1496	1.696324
1492	1.678824
1488	1.784300
1484	1.897335
1480	1.954865
1476	1.966261
1472	1.963210
1468	1.954770
1464	1.926875
1460	1.867222
1456	1.792716
1452	1.754498
1448	1.779747
1444	1.828551
1440	1.852750
1436	1.858448
1432	1.865220
1428	1.868510
1424	1.861238
1420	1.848435
1416	1.837086
1412	1.813030
1408	1.766276
1404	1.726913
1400	1.727867
1396	1.758193
1392	1.781725
1388	1.782536
1384	1.781511
1380	1.794075
1376	1.806163
1372	1.811552
1368	1.814484
1364	1.814436
1360	1.814317
1356	1.814389
1352	1.812291
1348	1.809954
1344	1.809406
1340	1.813459
1336	1.824188
1332	1.836013
1328	1.842927
1324	1.846289
1320	1.848721
1316	1.851463
1312	1.854085
1308	1.854324
1304	1.852965
1300	1.852679
1296	1.853108
1292	1.852631
1288	1.851272
1284	1.850056
1280	1.846504
1276	1.834440
1272	1.806592
1268	1.760864
1264	1.719355
1260	1.717329
1256	1.754498
1252	1.795959
1248	1.819944
1244	1.830148
1240	1.833915
1236	1.831698
1232	1.825380
1228	1.818823
1224	1.810097
1220	1.795887
1216	1.777291
1212	1.758360
1208	1.745152
1204	1.740550
1200	1.741123
1196	1.741242
1192	1.737022
1188	1.729202
1184	1.719474
1180	1.708698
1176	1.697039
1172	1.682686
1168	1.663970
1164	1.643061
1160	1.625466
1156	1.614975
1152	1.608633
1148	1.601743
1144	1.593852
1140	1.584267
1136	1.571846
1132	1.556110
1128	1.537179
1124	1.517271
1120	1.496553
1116	1.474857
1112	1.454877
1108	1.439261
1104	1.429581
1100	1.425909
1096	1.424980
1092	1.424098
1088	1.425313
1084	1.428079
1080	1.428771
1076	1.429748
1072	1.432943
1068	1.435899
1064	1.434755
1060	1.417541
1056	1.367521
1052	1.309204
1048	1.303529
1044	1.344966
1040	1.375555
1036	1.382040
1032	1.377272
1028	1.366424
1024	1.357698
1020	1.357626
1016	1.365065
1012	1.374006
1008	1.382899
1004	1.391673
1000	1.395726
996	 1.395630
992	 1.392650
988	 1.385903
984	 1.378726
980	 1.372599
976	 1.365327
972	 1.355147
968	 1.341867
964	 1.327466
960	 1.313185
956	 1.299619
952	 1.287102
948	 1.275563
944	 1.265931
940	 1.258826
936	 1.251578
932	 1.242327
928	 1.233196
924	 1.224923
920	 1.215243
916	 1.201891
912	 1.186037
908	 1.172161
904	 1.162552
900	 1.156425
896	 1.150441
892	 1.139140
888	 1.118326
884	 1.086378
880	 1.050782
876	 1.030540
872	 1.037597
868	 1.062321
864	 1.084065
860	 1.092171
856	 1.090407
852	 1.085329
848	 1.079988
844	 1.073336
840	 1.059746
836	 1.027417
832	 0.963973
828	 0.885915
824	 0.846529
820	 0.870871
816	 0.917601
812	 0.944161
808	 0.949096
804	 0.946283
800	 0.945234
796	 0.949621
792	 0.958395
788	 0.967884
784	 0.974273
780	 0.976347
776	 0.974893
772	 0.971984
768	 0.969052
764	 0.965905
760	 0.961971
756	 0.957202
752	 0.951743
748	 0.944924
744	 0.937724
740	 0.932598
736	 0.925803
732	 0.913953
728	 0.901222
724	 0.890207
720	 0.879096
716	 0.866985
712	 0.855326
708	 0.843739
704	 0.830078
700	 0.811934
696	 0.788331
692	 0.759840
688	 0.736522
684	 0.730895
680	 0.734639
676	 0.732445
672	 0.723934
668	 0.713729
664	 0.704026
660	 0.694942
656	 0.684928
652	 0.673484
648	 0.661253
644	 0.650095
640	 0.640749
636	 0.630617
632	 0.619864
628	 0.610160
624	 0.600647
620	 0.590038
616	 0.574970
612	 0.554370
608	 0.533747
604	 0.522708
600	 0.522089
596	 0.521445
592	 0.516200
588	 0.510048
584	 0.504565
580	 0.500178
576	 0.497007
572	 0.493645
568	 0.489807
564	 0.484371
560	 0.477290
556	 0.471210
552	 0.465774
548	 0.458478
544	 0.449943
540	 0.442337
536	 0.435638
532	 0.426554
528	 0.416064
524	 0.408911
520	 0.402259
516	 0.392198
512	 0.380969
508	 0.371050
504	 0.359916
500	 0.342655
496	 0.325179
492	 0.313925
488	 0.302314
484	 0.285911
480	 0.268864
476	 0.255870
472	 0.248241
468	 0.241255
464	 0.228834
460	 0.212430
456	 0.195860
452	 0.182199
448	 0.170397
444	 0.158143
440	 0.148582
436	 0.140237
432	 0.128936
428	 0.115060
424	 0.099730
420	 0.085520
416	 0.074195
412	 0.065469
408	 0.057554
404	 0.047183
400	 0.039124
396	 0.036644
392	 0.031065
388	 0.020670
384	 0.013732
380	 0.012683
376	 0.012874
372	 0.011396
370	 0.009918