File: Bakgrunnsmateriale/MATLAB/FTIR/ftir_data/subBb/Mapping_121/C-4040-8_t02.asc
PE IR       SPECTRUM    SPECTRUM    ASCII       PEDS        1.60
  -1
C-A522~1.ASC
17/03/27
14:40:11.00
17/03/27
14:40:37.00
tln
$C-4040-8_t0002$<tbV0>[10.4,-13.0,8.0,0.0,27,1,0]
27.028
64

2002,4.07
MIRTGS : RIGHTBACK : INTERNAL 2
MIR : ON : INTERNAL 2
OPTKBR

0.200000
8
8.000000
FILLER
RATIO
SPECTRUM
UNLOCKED 256

DOUBLE
64
COMBINED
1
0
0

0.002000
RATIO

1
0
TRUE
51149
0
LEFT NOT FITTED RIGHT NOT FITTED 0
NONE
NONE
15600
12
4.427000
51148
TRUE
1 0 8 72 0 0 0 0

15798

#HDR
-1
-1
#GR
µM
%T
2.38419e-05
0.0
2.000000
0.002000
12515
8
69.4416
-0.657820
#DATA
2.000000	 63.306
2.018000	 62.3435
2.036000	 63.545
2.054000	 63.4904
2.072000	 63.2377
2.090000	 63.1017
2.108000	 62.9307
2.126000	 63.0065
2.144000	 62.9063
2.162000	 63.5339
2.180000	 63.3495
2.198000	 63.4332
2.216000	 63.1967
2.234000	 63.7557
2.252000	 66.2862
2.270000	 65.828
2.288000	 63.7568
2.306000	 63.3094
2.324000	 63.0115
2.342000	 62.8318
2.360000	 62.4913
2.378000	 62.3557
2.396000	 61.6155
2.414000	 61.7696
2.432000	 62.1173
2.450000	 62.2125
2.468000	 62.1515
2.486000	 62.193
2.504000	 62.3994
2.522000	 62.0565
2.540000	 61.9316
2.558000	 62.1446
2.576000	 61.6723
2.594000	 61.8142
2.612000	 61.7401
2.630000	 61.9064
2.648000	 61.284
2.666000	 61.6657
2.684000	 61.5739
2.702000	 61.1092
2.720000	 61.4184
2.738000	 61.1861
2.756000	 61.2651
2.774000	 60.7583
2.792000	 60.8603
2.810000	 60.8858
2.828000	 60.5393
2.846000	 60.4073
2.864000	 60.3854
2.882000	 60.3338
2.900000	 60.1267
2.918000	 60.0239
2.936000	 60.0448
2.954000	 59.9255
2.972000	 59.7433
2.990000	 59.5547
3.008000	 59.4316
3.026000	 59.5659
3.044000	 59.3134
3.062000	 59.158
3.080000	 59.0341
3.098000	 58.8996
3.116000	 59.183
3.134000	 58.6838
3.152000	 58.7338
3.170000	 58.6136
3.188000	 58.4903
3.206000	 58.5277
3.224000	 58.3361
3.242000	 58.2006
3.260000	 58.1564
3.278000	 58.2201
3.296000	 57.7877
3.314000	 57.8064
3.332000	 57.6398
3.350000	 57.645
3.368000	 57.5318
3.386000	 57.3355
3.404000	 57.1703
3.422000	 56.82
3.440000	 56.9735
3.458000	 56.88
3.476000	 56.6114
3.494000	 56.6316
3.512000	 56.5492
3.530000	 56.6304
3.548000	 56.3901
3.566000	 56.3637
3.584000	 56.2968
3.602000	 56.1062
3.620000	 56.0051
3.638000	 55.9967
3.656000	 55.8437
3.674000	 55.7849
3.692000	 55.6605
3.710000	 55.623
3.728000	 55.4814
3.746000	 55.2473
3.764000	 55.2117
3.782000	 55.0951
3.800000	 55.0054
3.818000	 54.9684
3.836000	 54.6899
3.854000	 54.6884
3.872000	 54.6348
3.890000	 54.4196
3.908000	 54.3564
3.926000	 54.34
3.944000	 54.0932
3.962000	 54.156
3.980000	 53.9893
3.998000	 53.9678
4.016000	 53.8764
4.034000	 53.7198
4.052000	 53.628
4.070000	 53.6012
4.088000	 53.6154
4.106000	 53.3397
4.124000	 53.1847
4.141999	 53.1037
4.160000	 53.0308
4.178000	 53.0092
4.196000	 52.8838
4.214000	 52.7433
4.232000	 52.6954
4.250000	 52.6347
4.268000	 52.5301
4.286000	 52.5612
4.304000	 52.3264
4.322000	 52.2144
4.340000	 52.2602
4.358000	 52.0524
4.375999	 52.031
4.394000	 51.9767
4.412000	 51.8265
4.430000	 51.89
4.448000	 51.7532
4.466000	 51.5961
4.484000	 51.5521
4.502000	 51.4114
4.520000	 51.4273
4.538000	 51.3546
4.556000	 51.2413
4.574000	 51.0511
4.592000	 50.9245
4.609999	 50.8614
4.628000	 50.884
4.646000	 50.6098
4.664000	 50.7712
4.682000	 50.6649
4.700000	 50.4464
4.718000	 50.4678
4.736000	 50.3592
4.754000	 50.1741
4.772000	 50.2431
4.790000	 50.1757
4.808000	 50.0167
4.826000	 49.9225
4.843999	 49.9441
4.862000	 49.7995
4.880000	 49.7664
4.898000	 49.7602
4.916000	 49.7637
4.934000	 49.6532
4.952000	 49.4787
4.970000	 49.4486
4.988000	 49.4944
5.006000	 49.4524
5.024000	 49.2146
5.042000	 49.1081
5.060000	 49.1081
5.077999	 49.0922
5.096000	 48.9774
5.114000	 48.8917
5.132000	 48.7987
5.150000	 48.7102
5.168000	 48.6782
5.186000	 48.5538
5.204000	 48.4983
5.222000	 48.4471
5.240000	 48.3848
5.258000	 48.2663
5.276000	 48.2447
5.294000	 48.1608
5.312000	 47.9984
5.330000	 47.9385
5.348000	 47.9782
5.366000	 47.9791
5.384000	 47.8873
5.402000	 47.8051
5.420000	 47.7037
5.438000	 47.6402
5.456000	 47.6088
5.474000	 47.5748
5.492000	 47.5127
5.510000	 47.5893
5.528000	 47.4827
5.546000	 47.3254
5.564000	 47.3019
5.582000	 47.3035
5.600000	 47.222
5.618000	 47.198
5.636000	 47.1888
5.654000	 47.1691
5.672000	 47.1157
5.690000	 47.0982
5.708000	 46.9807
5.726000	 46.8259
5.744000	 46.7457
5.762000	 46.7357
5.780000	 46.7531
5.798000	 46.7239
5.816000	 46.6092
5.834000	 46.4805
5.852000	 46.4637
5.870000	 46.5591
5.888000	 46.5041
5.906000	 46.3103
5.923999	 46.279
5.942000	 46.2696
5.960000	 46.1638
5.978000	 46.1604
5.996000	 46.0819
6.014000	 45.9676
6.032000	 46.0095
6.050000	 46.1461
6.068000	 46.0799
6.086000	 45.8915
6.104000	 45.7377
6.122000	 45.6202
6.140000	 45.4976
6.158000	 45.4704
6.176000	 45.4925
6.194000	 45.4737
6.212000	 45.4735
6.230000	 45.4211
6.248000	 45.2788
6.266000	 45.2345
6.284000	 45.2334
6.302000	 45.1811
6.320000	 45.1065
6.338000	 45.1254
6.356000	 45.0907
6.374000	 44.9596
6.392000	 45.0138
6.410000	 45.1146
6.428000	 44.9803
6.446000	 44.8421
6.464000	 44.9237
6.482000	 45.0579
6.500000	 44.9942
6.518000	 44.8271
6.536000	 44.7548
6.554000	 44.7873
6.572000	 44.7683
6.590000	 44.6563
6.608000	 44.6555
6.626000	 44.7448
6.644000	 44.7014
6.662000	 44.6053
6.680000	 44.5629
6.698000	 44.4532
6.716000	 44.3325
6.734000	 44.2567
6.752000	 44.214
6.770000	 44.1996
6.788000	 44.1635
6.806000	 44.1441
6.824000	 44.1636
6.842000	 44.1677
6.860000	 44.1493
6.878000	 44.0455
6.896000	 43.8972
6.914000	 43.8387
6.932000	 43.7696
6.950000	 43.6928
6.968000	 43.6778
6.986000	 43.6182
7.004000	 43.5587
7.022000	 43.5881
7.040000	 43.5985
7.058000	 43.5232
7.076000	 43.4159
7.094000	 43.3334
7.112000	 43.3022
7.130000	 43.3025
7.148000	 43.2937
7.166000	 43.2813
7.184000	 43.2883
7.202000	 43.2802
7.220000	 43.2231
7.238000	 43.1537
7.256000	 43.1186
7.274000	 43.1068
7.292000	 43.0397
7.310000	 42.9059
7.328000	 42.8175
7.346000	 42.8068
7.364000	 42.7986
7.382000	 42.7924
7.400000	 42.8307
7.418000	 42.8925
7.436000	 42.9069
7.454000	 42.8292
7.472000	 42.7076
7.490000	 42.6415
7.508000	 42.6535
7.526000	 42.6711
7.544000	 42.6445
7.562000	 42.6249
7.580000	 42.6569
7.598000	 42.6769
7.616000	 42.6192
7.634000	 42.5164
7.652000	 42.4389
7.670000	 42.4079
7.688000	 42.4062
7.706000	 42.4155
7.724000	 42.4231
7.742000	 42.4336
7.760000	 42.4567
7.778000	 42.4632
7.796000	 42.4066
7.814000	 42.2978
7.832000	 42.1975
7.850000	 42.1461
7.868000	 42.1441
7.886000	 42.1678
7.904000	 42.1821
7.922000	 42.1775
7.940000	 42.1817
7.958000	 42.1963
7.976000	 42.1783
7.994000	 42.1093
8.012000	 42.028
8.030000	 41.976
8.048000	 41.9522
8.065999	 41.9347
8.084000	 41.919
8.102000	 41.9225
8.120000	 41.9498
8.138000	 41.9743
8.155999	 41.9672
8.173999	 41.9259
8.192000	 41.8621
8.210000	 41.7864
8.228000	 41.7152
8.246000	 41.6684
8.263999	 41.6522
8.282000	 41.6588
8.300000	 41.6717
8.318000	 41.6615
8.336000	 41.6001
8.353999	 41.4983
8.372000	 41.4082
8.390000	 41.368
8.408000	 41.3608
8.426000	 41.343
8.443999	 41.2987
8.462000	 41.2443
8.480000	 41.1967
8.498000	 41.159
8.516000	 41.1286
8.533999	 41.1008
8.552000	 41.0676
8.570000	 41.0262
8.588000	 40.9862
8.606000	 40.9561
8.624000	 40.9307
8.641999	 40.9012
8.660000	 40.8777
8.678000	 40.8822
8.696000	 40.9198
8.714000	 40.9644
8.731999	 40.9798
8.750000	 40.9493
8.768000	 40.8847
8.786000	 40.814
8.804000	 40.7597
8.821999	 40.724
8.840000	 40.6909
8.858000	 40.6465
8.876000	 40.5978
8.894000	 40.5675
8.911999	 40.5702
8.930000	 40.5984
8.948000	 40.6333
8.966000	 40.6626
8.984000	 40.684
9.001999	 40.6948
9.020000	 40.6848
9.038000	 40.6395
9.056000	 40.5461
9.074000	 40.41
9.092000	 40.2651
9.109999	 40.1623
9.128000	 40.1363
9.146000	 40.1811
9.164000	 40.2565
9.182000	 40.3183
9.199999	 40.342
9.218000	 40.3261
9.236000	 40.281
9.254000	 40.2229
9.272000	 40.1694
9.289999	 40.1368
9.308000	 40.1347
9.326000	 40.1602
9.344000	 40.1949
9.362000	 40.2155
9.379999	 40.2074
9.398000	 40.1738
9.416000	 40.1282
9.434000	 40.0784
9.452000	 40.0206
9.469999	 39.9515
9.488000	 39.881
9.506000	 39.8265
9.524000	 39.7959
9.542000	 39.7812
9.560000	 39.7745
9.577999	 39.7795
9.596000	 39.8039
9.614000	 39.8412
9.632000	 39.8663
9.650000	 39.8566
9.667999	 39.8146
9.686000	 39.7648
9.704000	 39.7285
9.722000	 39.7049
9.740000	 39.6777
9.757999	 39.6394
9.776000	 39.6037
9.794000	 39.5943
9.812000	 39.6216
9.830000	 39.6727
9.847999	 39.7224
9.866000	 39.751
9.884000	 39.7523
9.902000	 39.7289
9.920000	 39.6847
9.937999	 39.6238
9.956000	 39.5536
9.974000	 39.4853
9.992000	 39.4296
10.01	39.3907
10.028	39.3659
10.046	39.3493
10.064	39.3383
10.082	39.3324
10.1	39.3303
10.118	39.3272
10.136	39.3191
10.154	39.3057
10.172	39.2909
10.19	39.277
10.208	39.2598
10.226	39.2319
10.244	39.1897
10.262	39.1394
10.28	39.0945
10.298	39.0646
10.316	39.0481
10.334	39.0326
10.352	39.0072
10.37	38.9704
10.388	38.932
10.406	38.9032
10.424	38.8889
10.442	38.8826
10.46	38.8723
10.478	38.8481
10.496	38.8098
10.514	38.7671
10.532	38.7349
10.55	38.725
10.568	38.7407
10.586	38.7742
10.604	38.8102
10.622	38.832
10.64	38.8296
10.658	38.8022
10.676	38.7569
10.694	38.7028
10.712	38.6476
10.73	38.5958
10.748	38.5502
10.766	38.5127
10.784	38.4845
10.802	38.4649
10.82	38.4513
10.838	38.4397
10.856	38.4269
10.874	38.4123
10.892	38.3979
10.91	38.3853
10.928	38.3741
10.946	38.3619
10.964	38.3455
10.982	38.3239
11	38.3005
11.018	38.2818
11.036	38.2732
11.054	38.276
11.072	38.2857
11.09	38.2926
11.108	38.288
11.126	38.2673
11.144	38.2332
11.162	38.1957
11.18	38.1671
11.198	38.1582
11.216	38.1723
11.234	38.2035
11.252	38.2371
11.27	38.2561
11.288	38.2459
11.306	38.2011
11.324	38.1276
11.342	38.0397
11.36	37.9548
11.378	37.8877
11.396	37.8443
11.414	37.8225
11.432	37.8141
11.45	37.81
11.468	37.8026
11.486	37.788
11.504	37.765
11.522	37.7344
11.54	37.6979
11.558	37.6581
11.576	37.6181
11.594	37.5812
11.612	37.5506
11.63	37.5286
11.648	37.516
11.666	37.5119
11.684	37.5148
11.702	37.5231
11.72	37.535
11.738	37.5481
11.756	37.5595
11.774	37.5658
11.792	37.5631
11.81	37.55
11.828	37.5275
11.846	37.4998
11.864	37.4726
11.882	37.4508
11.9	37.4369
11.918	37.4296
11.936	37.4242
11.954	37.415
11.972	37.3972
11.99	37.3692
12.008	37.3335
12.026	37.2944
12.044	37.2568
12.062	37.2229
12.08	37.1915
12.098	37.1596
12.116	37.1239
12.134	37.0846
12.152	37.0461
12.17	37.0156
12.188	37.0007
12.206	37.0057
12.224	37.0295
12.242	37.0653
12.26	37.1031
12.278	37.1318
12.296	37.1427
12.314	37.1314
12.332	37.0989
12.35	37.0503
12.368	36.9929
12.386	36.934
12.404	36.8788
12.422	36.8294
12.44	36.7857
12.458	36.7475
12.476	36.7156
12.494	36.6927
12.512	36.6833
12.53	36.6913
12.548	36.7186
12.566	36.7633
12.584	36.8202
12.602	36.8812
12.62	36.9376
12.638	36.9816
12.656	37.0086
12.674	37.0169
12.692	37.0078
12.71	36.9839
12.728	36.9487
12.746	36.9055
12.764	36.8578
12.782	36.8095
12.8	36.7646
12.818	36.7273
12.836	36.7005
12.854	36.6855
12.872	36.6816
12.89	36.6859
12.908	36.6943
12.926	36.7025
12.944	36.7066
12.962	36.7044
12.98	36.6945
12.998	36.6768
13.016	36.6514
13.034	36.619
13.052	36.5804
13.07	36.537
13.088	36.4911
13.106	36.4456
13.124	36.4041
13.142	36.3694
13.16	36.3431
13.178	36.3249
13.196	36.3121
13.214	36.3013
13.232	36.2892
13.25	36.2737
13.268	36.255
13.286	36.2348
13.304	36.2156
13.322	36.1999
13.34	36.1885
13.358	36.1802
13.376	36.1721
13.394	36.1603
13.412	36.1411
13.43	36.1128
13.448	36.0757
13.466	36.0325
13.484	35.9876
13.502	35.9463
13.52	35.913
13.538	35.8906
13.556	35.8797
13.574	35.8791
13.592	35.8866
13.61	35.8993
13.628	35.9141
13.646	35.9279
13.664	35.9381
13.682	35.9422
13.7	35.9384
13.718	35.9257
13.736	35.9039
13.754	35.874
13.772	35.8381
13.79	35.7995
13.808	35.7613
13.826	35.7269
13.844	35.6984
13.862	35.6775
13.88	35.664
13.898	35.6562
13.916	35.6512
13.934	35.6451
13.952	35.6339
13.97	35.614
13.988	35.5829
14.006	35.5398
14.024	35.4857
14.042	35.4237
14.06	35.3583
14.078	35.295
14.096	35.2394
14.114	35.1965
14.132	35.1702
14.15	35.1618
14.168	35.1706
14.186	35.1931
14.204	35.2243
14.222	35.2574
14.24	35.2868
14.258	35.3073
14.276	35.3153
14.294	35.3087
14.312	35.2869
14.33	35.2503
14.348	35.2004
14.366	35.1387
14.384	35.0673
14.402	34.9884
14.42	34.905
14.438	34.8203
14.456	34.738
14.474	34.6617
14.492	34.5943
14.51	34.5388
14.528	34.4968
14.546	34.4689
14.564	34.4544
14.582	34.452
14.6	34.4601
14.618	34.4769
14.636	34.5016
14.654	34.5338
14.672	34.5733
14.69	34.6196
14.708	34.6713
14.726	34.7258
14.744	34.7784
14.762	34.8227
14.78	34.8519
14.798	34.8597
14.816	34.8409
14.834	34.792
14.852	34.7136
14.87	34.6097
14.888	34.4864
14.906	34.3516
14.924	34.2146
14.942	34.0847
14.96	33.9701
14.978	33.8763
14.996	33.8073
15.014	33.7656
15.032	33.7518
15.05	33.7654
15.068	33.8055
15.086	33.8707
15.104	33.9594
15.122	34.069
15.14	34.1952
15.158	34.3325
15.176	34.4741
15.194	34.6113
15.212	34.7328
15.23	34.8291
15.248	34.8917
15.266	34.9137
15.284	34.8908
15.302	34.8238
15.32	34.717
15.338	34.5769
15.356	34.4135
15.374	34.2398
15.392	34.0668
15.41	33.9048
15.428	33.7638
15.446	33.6514
15.464	33.5707
15.482	33.5231
15.5	33.5077
15.518	33.5205
15.536	33.5564
15.554	33.6099
15.572	33.6749
15.59	33.744
15.608	33.8115
15.626	33.8725
15.644	33.9224
15.662	33.9574
15.68	33.976
15.698	33.9774
15.716	33.9618
15.734	33.9316
15.752	33.8894
15.77	33.8383
15.788	33.7827
15.806	33.7259
15.824	33.6704
15.842	33.6186
15.86	33.5715
15.878	33.5291
15.896	33.4915
15.914	33.4574
15.932	33.4259
15.95	33.396
15.968	33.3667
15.986	33.3378
16.004	33.3095
16.022	33.2822
16.04	33.2566
16.058	33.2334
16.076	33.2127
16.094	33.1946
16.112	33.1786
16.13	33.1642
16.148	33.1504
16.166	33.1363
16.184	33.1212
16.202	33.1045
16.22	33.086
16.238	33.0664
16.256	33.0462
16.274	33.0272
16.292	33.0103
16.31	32.9966
16.328	32.9872
16.346	32.982
16.364	32.9808
16.382	32.9829
16.4	32.9873
16.418	32.9932
16.436	32.9992
16.454	33.0044
16.472	33.0084
16.49	33.0105
16.508	33.0107
16.526	33.0091
16.544	33.0058
16.562	33.0011
16.58	32.995
16.598	32.9871
16.616	32.9768
16.634	32.9634
16.652	32.9458
16.67	32.9234
16.688	32.8955
16.706	32.8621
16.724	32.8237
16.742	32.7809
16.76	32.7361
16.778	32.6906
16.796	32.6473
16.814	32.6089
16.832	32.5771
16.85	32.5546
16.868	32.5417
16.886	32.5392
16.904	32.5459
16.922	32.5602
16.94	32.5804
16.958	32.6023
16.976	32.6239
16.994	32.6408
17.012	32.6502
17.03	32.65
17.048	32.6375
17.066	32.6126
17.084	32.5747
17.102	32.5254
17.12	32.4657
17.138	32.3988
17.156	32.3277
17.174	32.2548
17.192	32.1851
17.21	32.1202
17.228	32.0641
17.246	32.0187
17.264	31.9856
17.282	31.9661
17.3	31.9602
17.318	31.9679
17.336	31.9878
17.354	32.0191
17.372	32.0584
17.39	32.1043
17.408	32.1532
17.426	32.2021
17.444	32.249
17.462	32.2896
17.48	32.323
17.498	32.3458
17.516	32.3573
17.534	32.3561
17.552	32.3421
17.57	32.3152
17.588	32.2762
17.606	32.2262
17.624	32.1666
17.642	32.0995
17.66	32.0259
17.678	31.9487
17.696	31.8686
17.714	31.7879
17.732	31.7075
17.75	31.629
17.768	31.5532
17.786	31.4807
17.804	31.4125
17.822	31.3485
17.84	31.2894
17.858	31.2348
17.876	31.1849
17.894	31.1393
17.912	31.0979
17.93	31.0601
17.948	31.0256
17.966	30.994
17.984	30.9651
18.002	30.9385
18.02	30.9141
18.038	30.8919
18.056	30.872
18.074	30.8543
18.092	30.8395
18.11	30.8277
18.128	30.8197
18.146	30.8158
18.164	30.8167
18.182	30.8227
18.2	30.8342
18.218	30.8514
18.236	30.8745
18.254	30.9026
18.272	30.9358
18.29	30.9726
18.308	31.0126
18.326	31.0532
18.344	31.0939
18.362	31.1315
18.38	31.1652
18.398	31.1919
18.416	31.2104
18.434	31.2185
18.452	31.2151
18.47	31.1988
18.488	31.1695
18.506	31.1269
18.524	31.0722
18.542	31.0056
18.56	30.9299
18.578	30.8455
18.596	30.7567
18.614	30.6637
18.632	30.5716
18.65	30.4806
18.668	30.3953
18.686	30.3159
18.704	30.246
18.722	30.1857
18.74	30.1368
18.758	30.0989
18.776	30.0725
18.794	30.0568
18.812	30.0507
18.83	30.0535
18.848	30.0635
18.866	30.0796
18.884	30.0997
18.902	30.1228
18.92	30.1468
18.938	30.1709
18.956	30.1934
18.974	30.2138
18.992	30.2309
19.01	30.2441
19.028	30.2528
19.046	30.2565
19.064	30.2548
19.082	30.2476
19.1	30.2343
19.118	30.2153
19.136	30.1903
19.154	30.1598
19.172	30.1243
19.19	30.0843
19.208	30.041
19.226	29.9949
19.244	29.948
19.262	29.9006
19.28	29.8548
19.298	29.8106
19.316	29.7708
19.334	29.7349
19.352	29.7043
19.37	29.679
19.388	29.6589
19.406	29.6442
19.424	29.6328
19.442	29.6252
19.46	29.6181
19.478	29.6116
19.496	29.6024
19.514	29.5899
19.532	29.572
19.55	29.547
19.568	29.5146
19.586	29.4733
19.604	29.4238
19.622	29.3658
19.64	29.3
19.658	29.2289
19.676	29.1524
19.694	29.0752
19.712	28.9966
19.73	28.9225
19.748	28.8524
19.766	28.7909
19.784	28.7386
19.802	28.6978
19.82	28.6705
19.838	28.6563
19.856	28.6567
19.874	28.6708
19.892	28.6982
19.91	28.7386
19.928	28.789
19.946	28.85
19.964	28.9174
19.982	28.9912
20	29.0681
20.018	29.1464
20.036	29.2247
20.054	29.2998
20.072	29.3719
20.09	29.4377
20.108	29.4975
20.126	29.5488
20.144	29.5916
20.162	29.6245
20.18	29.6467
20.198	29.6583
20.216	29.6582
20.234	29.6468
20.252	29.6239
20.27	29.5895
20.288	29.5443
20.306	29.488
20.324	29.4218
20.342	29.3461
20.36	29.2618
20.378	29.1712
20.396	29.0738
20.414	28.9736
20.432	28.87
20.45	28.7667
20.468	28.665
20.486	28.5664
20.504	28.4746
20.522	28.389
20.54	28.3138
20.558	28.2484
20.576	28.1952
20.594	28.1553
20.612	28.1284
20.63	28.1158
20.648	28.117
20.666	28.1314
20.684	28.1594
20.702	28.199
20.72	28.2493
20.738	28.3096
20.756	28.3765
20.774	28.4509
20.792	28.5287
20.81	28.6096
20.828	28.6917
20.846	28.7716
20.864	28.8501
20.882	28.9229
20.9	28.9904
20.918	29.0505
20.936	29.1013
20.954	29.1433
20.972	29.1741
20.99	29.1941
21.008	29.2029
21.026	29.1999
21.044	29.1857
21.062	29.1605
21.08	29.124
21.098	29.0782
21.116	29.0231
21.134	28.9597
21.152	28.8904
21.17	28.8145
21.188	28.7349
21.206	28.652
21.224	28.5667
21.242	28.4811
21.26	28.3947
21.278	28.309
21.296	28.2246
21.314	28.1412
21.332	28.0592
21.35	27.9786
21.368	27.8985
21.386	27.819
21.404	27.7397
21.422	27.659
21.44	27.5776
21.458	27.4937
21.476	27.4065
21.494	27.3161
21.512	27.2215
21.53	27.1224
21.548	27.0196
21.566	26.9129
21.584	26.8026
21.602	26.6913
21.62	26.5783
21.638	26.4657
21.656	26.3563
21.674	26.2489
21.692	26.1479
21.71	26.054
21.728	25.9675
21.746	25.892
21.764	25.8267
21.782	25.7729
21.8	25.7325
21.818	25.7047
21.836	25.6892
21.854	25.6864
21.872	25.6953
21.89	25.7145
21.908	25.7448
21.926	25.7832
21.944	25.8279
21.962	25.8796
21.98	25.9347
21.998	25.9931
22.016	26.0542
22.034	26.1152
22.052	26.1767
22.07	26.238
22.088	26.298
22.106	26.3572
22.124	26.4156
22.142	26.473
22.16	26.5298
22.178	26.5871
22.196	26.6445
22.214	26.7028
22.232	26.7629
22.25	26.8245
22.268	26.8879
22.286	26.9538
22.304	27.0219
22.322	27.0916
22.34	27.1634
22.358	27.2365
22.376	27.3091
22.394	27.3821
22.412	27.4536
22.43	27.521
22.448	27.5856
22.466	27.6449
22.484	27.6969
22.502	27.7427
22.52	27.7799
22.538	27.8072
22.556	27.8255
22.574	27.833
22.592	27.8294
22.61	27.815
22.628	27.7889
22.646	27.7511
22.664	27.702
22.682	27.6419
22.7	27.5706
22.718	27.4887
22.736	27.3972
22.754	27.2956
22.772	27.185
22.79	27.066
22.808	26.9382
22.826	26.8029
22.844	26.661
22.862	26.5119
22.88	26.3571
22.898	26.1972
22.916	26.0318
22.934	25.8633
22.952	25.6918
22.97	25.5173
22.988	25.3432
23.006	25.1697
23.024	24.9968
23.042	24.829
23.06	24.6663
23.078	24.5088
23.096	24.3611
23.114	24.2227
23.132	24.0941
23.15	23.9795
23.168	23.8785
23.186	23.7914
23.204	23.7214
23.222	23.6684
23.24	23.6322
23.258	23.6142
23.276	23.615
23.294	23.6336
23.312	23.6685
23.33	23.7207
23.348	23.7889
23.366	23.8698
23.384	23.9643
23.402	24.0712
23.42	24.1856
23.438	24.3085
23.456	24.4389
23.474	24.5711
23.492	24.7052
23.51	24.8414
23.528	24.9737
23.546	25.1009
23.564	25.2243
23.582	25.3392
23.6	25.4436
23.618	25.5393
23.636	25.6236
23.654	25.6951
23.672	25.7551
23.69	25.8018
23.708	25.8342
23.726	25.8531
23.744	25.8576
23.762	25.847
23.78	25.8216
23.798	25.7814
23.816	25.7257
23.834	25.6548
23.852	25.5689
23.87	25.468
23.888	25.3522
23.906	25.2215
23.924	25.076
23.942	24.9156
23.96	24.7406
23.978	24.5514
23.996	24.3479
24.014	24.13
24.032	23.8991
24.05	23.6554
24.068	23.3983
24.086	23.1299
24.104	22.852
24.122	22.5627
24.14	22.2648
24.158	21.9626
24.176	21.6534
24.194	21.3396
24.212	21.0274
24.23	20.7173
24.248	20.4077
24.266	20.1048
24.284	19.8113
24.302	19.5237
24.32	19.2478
24.338	18.9889
24.356	18.7426
24.374	18.5132
24.392	18.3073
24.41	18.123
24.428	17.9607
24.446	17.8264
24.464	17.7227
24.482	17.6466
24.5	17.6012
24.518	17.5892
24.536	17.6093
24.554	17.6614
24.572	17.7458
24.59	17.864
24.608	18.0142
24.626	18.1929
24.644	18.3995
24.662	18.6358
24.68	18.8963
24.698	19.1761
24.716	19.481
24.734	19.8044
24.752	20.136
24.77	20.4762
24.788	20.8272
24.806	21.1799
24.824	21.5283
24.842	21.878
24.86	22.2241
24.878	22.5604
24.896	22.8875
24.914	23.2067
24.932	23.516
24.95	23.8138
24.968	24.1007
24.986	24.3787
25.004	24.6494
25.022	24.9104
25.04	25.164
25.058	25.4152
25.076	25.6657
25.094	25.9125
25.112	26.1603
25.13	26.4136
25.148	26.6699
25.166	26.9303
25.184	27.199
25.202	27.4784
25.22	27.7663
25.238	28.0633
25.256	28.3707
25.274	28.6883
25.292	29.0157
25.31	29.3528
25.328	29.6996
25.346	30.0566
25.364	30.4224
25.382	30.7954
25.4	31.1764
25.418	31.5651
25.436	31.9596
25.454	32.3583
25.472	32.7632
25.49	33.1723
25.508	33.583
25.526	33.9966
25.544	34.4139
25.562	34.8288
25.58	35.2357
25.598	35.6407
25.616	36.0395
25.634	36.4224
25.652	36.7844
25.67	37.1348
25.688	37.4624
25.706	37.754
25.724	38.0116
25.742	38.2396
25.76	38.4241
25.778	38.5523
25.796	38.6331
25.814	38.6634
25.832	38.6318
25.85	38.5308
25.868	38.3683
25.886	38.1405
25.904	37.841
25.922	37.4659
25.94	37.0185
25.958	36.5039
25.976	35.927
25.994	35.2816
26.012	34.5711
26.03	33.8083
26.048	33.0033
26.066	32.1433
26.084	31.2381
26.102	30.3058
26.12	29.3567
26.138	28.3751
26.156	27.3753
26.174	26.3756
26.192	25.3811
26.21	24.3797
26.228	23.3849
26.246	22.4112
26.264	21.4586
26.282	20.5209
26.3	19.6064
26.318	18.7233
26.336	17.8695
26.354	17.0429
26.372	16.2469
26.39	15.4846
26.408	14.7564
26.426	14.0598
26.444	13.3925
26.462	12.7526
26.48	12.1441
26.498	11.5631
26.516	11.004
26.534	10.4631
26.552	9.945765
26.57	9.447792
26.588	8.962758
26.606	8.486852
26.624	8.025645
26.642	7.575068
26.66	7.129688
26.678	6.686055
26.696	6.247702
26.714	5.813749
26.732	5.382745
26.75	4.953573
26.768	4.526824
26.786	4.103215
26.804	3.683419
26.822	3.266361
26.84	2.849820
26.858	2.439062
26.876	2.039759
26.894	1.653341
26.912	1.273722
26.93	0.908129
26.948	0.564676
26.966	0.240262
26.984	-0.082450
27.002	-0.372602
27.02	-0.596037
27.028	-0.657820