File: Bakgrunnsmateriale/MATLAB/FTIR/ftir_data/subBb/Mapping_121/C-4040-8_t67.asc
PE IR       SPECTRUM    SPECTRUM    ASCII       PEDS        1.60
  -1
C-BD36~1.ASC
17/03/27
20:02:48.00
17/03/27
20:03:14.00
tln
$C-4040-8_t0067$<tbV0>[13.0,2.6,8.0,0.0,27,1,0]
27.028
64

2002,4.07
MIRTGS : RIGHTBACK : INTERNAL 2
MIR : ON : INTERNAL 2
OPTKBR

0.200000
8
8.000000
FILLER
RATIO
SPECTRUM
UNLOCKED 256

DOUBLE
64
COMBINED
1
0
0

0.002000
RATIO

1
0
TRUE
51149
0
LEFT NOT FITTED RIGHT NOT FITTED 0
NONE
NONE
15600
12
4.427000
51148
TRUE
1 0 8 72 0 0 0 0

15798

#HDR
-1
-1
#GR
µM
%T
2.38419e-05
0.0
2.000000
0.002000
12515
8
66.7899
34.8647
#DATA
2.000000	 64.984
2.018000	 65.1579
2.036000	 65.0915
2.054000	 64.6586
2.072000	 64.7609
2.090000	 64.4816
2.108000	 64.8077
2.126000	 64.6343
2.144000	 64.7069
2.162000	 64.9375
2.180000	 65.1391
2.198000	 65.3698
2.216000	 65.7789
2.234000	 65.2248
2.252000	 65.6213
2.270000	 64.9525
2.288000	 63.6033
2.306000	 66.4491
2.324000	 66.0237
2.342000	 65.6852
2.360000	 65.6758
2.378000	 65.3986
2.396000	 64.9991
2.414000	 65.0053
2.432000	 64.4894
2.450000	 65.1133
2.468000	 64.7372
2.486000	 65.0083
2.504000	 64.9957
2.522000	 65.0446
2.540000	 65.0907
2.558000	 65.4027
2.576000	 65.1181
2.594000	 65.1105
2.612000	 65.139
2.630000	 65.1678
2.648000	 65.0164
2.666000	 65.0344
2.684000	 65.1498
2.702000	 65.0976
2.720000	 65.0955
2.738000	 65.1418
2.756000	 65.1579
2.774000	 65.0706
2.792000	 65.2042
2.810000	 65.2551
2.828000	 65.1086
2.846000	 65.087
2.864000	 65.084
2.882000	 65.2259
2.900000	 65.3535
2.918000	 64.8293
2.936000	 64.8853
2.954000	 65.2358
2.972000	 65.2204
2.990000	 65.1331
3.008000	 65.0839
3.026000	 65.1461
3.044000	 65.2761
3.062000	 65.2955
3.080000	 65.0071
3.098000	 64.9942
3.116000	 65.0927
3.134000	 65.1257
3.152000	 64.9873
3.170000	 65.0712
3.188000	 65.1726
3.206000	 64.8836
3.224000	 65.0747
3.242000	 65.1099
3.260000	 65.2475
3.278000	 65.1775
3.296000	 64.9632
3.314000	 65.1067
3.332000	 64.9849
3.350000	 65.0682
3.368000	 64.9549
3.386000	 64.964
3.404000	 65.0147
3.422000	 64.8255
3.440000	 64.9302
3.458000	 65.1547
3.476000	 64.9384
3.494000	 65.2041
3.512000	 65.0935
3.530000	 65.1127
3.548000	 65.3145
3.566000	 65.1685
3.584000	 65.1927
3.602000	 65.2527
3.620000	 65.3142
3.638000	 65.1865
3.656000	 65.1311
3.674000	 65.1152
3.692000	 65.31
3.710000	 65.2498
3.728000	 65.1783
3.746000	 65.2459
3.764000	 65.1797
3.782000	 65.1648
3.800000	 65.3765
3.818000	 65.1799
3.836000	 65.2198
3.854000	 65.1464
3.872000	 65.4168
3.890000	 65.2443
3.908000	 65.285
3.926000	 65.1602
3.944000	 65.2081
3.962000	 65.2278
3.980000	 65.224
3.998000	 64.8831
4.016000	 65.1348
4.034000	 65.3062
4.052000	 65.3549
4.070000	 65.1774
4.088000	 65.1925
4.106000	 65.4565
4.124000	 64.9568
4.141999	 64.9858
4.160000	 65.1109
4.178000	 65.1901
4.196000	 65.2354
4.214000	 65.2545
4.232000	 65.1879
4.250000	 65.1576
4.268000	 65.2083
4.286000	 65.2119
4.304000	 65.2325
4.322000	 65.2951
4.340000	 65.2947
4.358000	 65.1828
4.375999	 65.3037
4.394000	 65.3215
4.412000	 65.2875
4.430000	 65.2831
4.448000	 65.3008
4.466000	 65.276
4.484000	 65.3485
4.502000	 65.3212
4.520000	 65.2705
4.538000	 65.1887
4.556000	 65.2841
4.574000	 65.3263
4.592000	 65.2731
4.609999	 65.3738
4.628000	 65.2184
4.646000	 65.1307
4.664000	 65.386
4.682000	 65.4108
4.700000	 65.2089
4.718000	 65.2332
4.736000	 65.2484
4.754000	 65.3576
4.772000	 65.2155
4.790000	 65.298
4.808000	 65.3961
4.826000	 65.3341
4.843999	 65.0855
4.862000	 65.1179
4.880000	 65.2925
4.898000	 65.316
4.916000	 65.2697
4.934000	 65.2647
4.952000	 65.3222
4.970000	 65.464
4.988000	 65.2896
5.006000	 65.1527
5.024000	 65.205
5.042000	 65.1857
5.060000	 65.1921
5.077999	 65.241
5.096000	 65.2587
5.114000	 65.3131
5.132000	 65.2568
5.150000	 65.2155
5.168000	 65.1567
5.186000	 65.178
5.204000	 65.2733
5.222000	 65.2845
5.240000	 65.2474
5.258000	 65.2017
5.276000	 65.213
5.294000	 65.2274
5.312000	 65.2092
5.330000	 65.298
5.348000	 65.3485
5.366000	 65.2745
5.384000	 65.2729
5.402000	 65.2125
5.420000	 65.1796
5.438000	 65.1776
5.456000	 65.1962
5.474000	 65.2989
5.492000	 65.3775
5.510000	 65.3508
5.528000	 65.1932
5.546000	 65.2085
5.564000	 65.3417
5.582000	 65.2515
5.600000	 65.2194
5.618000	 65.2483
5.636000	 65.1707
5.654000	 65.1576
5.672000	 65.2675
5.690000	 65.3469
5.708000	 65.2199
5.726000	 65.0258
5.744000	 64.9507
5.762000	 65.0164
5.780000	 65.0479
5.798000	 65.0609
5.816000	 65.1408
5.834000	 65.1707
5.852000	 65.0087
5.870000	 65.0596
5.888000	 65.18
5.906000	 65.1804
5.923999	 65.1853
5.942000	 65.104
5.960000	 65.0817
5.978000	 65.0581
5.996000	 65.1303
6.014000	 65.1688
6.032000	 65.0808
6.050000	 65.087
6.068000	 65.1276
6.086000	 65.1598
6.104000	 65.1086
6.122000	 65.0246
6.140000	 65.0642
6.158000	 65.0256
6.176000	 64.854
6.194000	 64.7743
6.212000	 64.8211
6.230000	 64.9221
6.248000	 64.9959
6.266000	 64.9663
6.284000	 64.9599
6.302000	 65.0298
6.320000	 65.0128
6.338000	 64.9376
6.356000	 64.8945
6.374000	 64.9052
6.392000	 64.9264
6.410000	 64.904
6.428000	 64.892
6.446000	 64.9187
6.464000	 65.0125
6.482000	 65.0106
6.500000	 64.9713
6.518000	 65.0417
6.536000	 65.0809
6.554000	 65.058
6.572000	 65.0163
6.590000	 64.9483
6.608000	 64.8959
6.626000	 64.9786
6.644000	 65.0848
6.662000	 65.0935
6.680000	 65.0985
6.698000	 65.1007
6.716000	 65.0402
6.734000	 64.9324
6.752000	 64.9184
6.770000	 65.0213
6.788000	 65.0648
6.806000	 65.0451
6.824000	 65.0324
6.842000	 64.9992
6.860000	 64.9271
6.878000	 64.8409
6.896000	 64.8153
6.914000	 64.8628
6.932000	 64.9504
6.950000	 65.0647
6.968000	 65.1246
6.986000	 65.0838
7.004000	 64.9795
7.022000	 64.8723
7.040000	 64.8498
7.058000	 64.9226
7.076000	 65.0008
7.094000	 65.025
7.112000	 65.0129
7.130000	 65.0273
7.148000	 65.0923
7.166000	 65.1193
7.184000	 65.0394
7.202000	 64.9405
7.220000	 64.9272
7.238000	 65.0017
7.256000	 65.1303
7.274000	 65.2274
7.292000	 65.2026
7.310000	 65.0898
7.328000	 64.9955
7.346000	 64.9743
7.364000	 64.9747
7.382000	 64.926
7.400000	 64.8861
7.418000	 64.9187
7.436000	 64.9647
7.454000	 64.9828
7.472000	 64.9956
7.490000	 64.987
7.508000	 64.9449
7.526000	 64.9102
7.544000	 64.9082
7.562000	 64.9046
7.580000	 64.8781
7.598000	 64.8691
7.616000	 64.8956
7.634000	 64.9075
7.652000	 64.8912
7.670000	 64.9004
7.688000	 64.9488
7.706000	 65.0019
7.724000	 65.0487
7.742000	 65.0842
7.760000	 65.0852
7.778000	 65.0655
7.796000	 65.0669
7.814000	 65.0704
7.832000	 65.0198
7.850000	 64.9262
7.868000	 64.8608
7.886000	 64.8573
7.904000	 64.8828
7.922000	 64.8963
7.940000	 64.8959
7.958000	 64.9016
7.976000	 64.9045
7.994000	 64.8696
8.012000	 64.7916
8.030000	 64.7137
8.048000	 64.686
8.065999	 64.7269
8.084000	 64.8132
8.102000	 64.8888
8.120000	 64.9105
8.138000	 64.8962
8.155999	 64.9011
8.173999	 64.9401
8.192000	 64.9691
8.210000	 64.9449
8.228000	 64.872
8.246000	 64.7923
8.263999	 64.7508
8.282000	 64.7655
8.300000	 64.8079
8.318000	 64.8243
8.336000	 64.7956
8.353999	 64.7535
8.372000	 64.7369
8.390000	 64.7527
8.408000	 64.774
8.426000	 64.7699
8.443999	 64.7416
8.462000	 64.7125
8.480000	 64.6899
8.498000	 64.6575
8.516000	 64.6053
8.533999	 64.5483
8.552000	 64.5133
8.570000	 64.5172
8.588000	 64.5578
8.606000	 64.6167
8.624000	 64.668
8.641999	 64.6949
8.660000	 64.7011
8.678000	 64.705
8.696000	 64.7173
8.714000	 64.7338
8.731999	 64.7483
8.750000	 64.766
8.768000	 64.7898
8.786000	 64.8048
8.804000	 64.7904
8.821999	 64.7506
8.840000	 64.7189
8.858000	 64.7223
8.876000	 64.7496
8.894000	 64.7645
8.911999	 64.7425
8.930000	 64.6873
8.948000	 64.6196
8.966000	 64.5649
8.984000	 64.5496
9.001999	 64.5871
9.020000	 64.6552
9.038000	 64.6991
9.056000	 64.674
9.074000	 64.5846
9.092000	 64.4773
9.109999	 64.3984
9.128000	 64.3645
9.146000	 64.364
9.164000	 64.3787
9.182000	 64.3957
9.199999	 64.4065
9.218000	 64.4053
9.236000	 64.3922
9.254000	 64.3728
9.272000	 64.3564
9.289999	 64.3507
9.308000	 64.3621
9.326000	 64.3952
9.344000	 64.4524
9.362000	 64.528
9.379999	 64.6037
9.398000	 64.6591
9.416000	 64.6881
9.434000	 64.7047
9.452000	 64.7287
9.469999	 64.7627
9.488000	 64.7852
9.506000	 64.7689
9.524000	 64.7069
9.542000	 64.6202
9.560000	 64.5448
9.577999	 64.5103
9.596000	 64.5244
9.614000	 64.5681
9.632000	 64.6038
9.650000	 64.5997
9.667999	 64.5537
9.686000	 64.4953
9.704000	 64.4565
9.722000	 64.4379
9.740000	 64.4043
9.757999	 64.3226
9.776000	 64.2047
9.794000	 64.1122
9.812000	 64.1104
9.830000	 64.2112
9.847999	 64.3618
9.866000	 64.4865
9.884000	 64.5409
9.902000	 64.5323
9.920000	 64.4955
9.937999	 64.4556
9.956000	 64.4136
9.974000	 64.3619
9.992000	 64.3038
10.01	64.2585
10.028	64.2477
10.046	64.2795
10.064	64.3476
10.082	64.439
10.1	64.5405
10.118	64.6409
10.136	64.729
10.154	64.7905
10.172	64.8096
10.19	64.7745
10.208	64.6864
10.226	64.5655
10.244	64.4507
10.262	64.3832
10.28	64.3825
10.298	64.4317
10.316	64.4818
10.334	64.4901
10.352	64.452
10.37	64.4043
10.388	64.3953
10.406	64.4431
10.424	64.5238
10.442	64.5909
10.46	64.617
10.478	64.6144
10.496	64.6252
10.514	64.6853
10.532	64.7988
10.55	64.9366
10.568	65.0589
10.586	65.1326
10.604	65.1415
10.622	65.0836
10.64	64.9689
10.658	64.8192
10.676	64.6696
10.694	64.5572
10.712	64.5095
10.73	64.5293
10.748	64.5968
10.766	64.684
10.784	64.7723
10.802	64.8569
10.82	64.9401
10.838	65.017
10.856	65.0748
10.874	65.0993
10.892	65.0872
10.91	65.0501
10.928	65.0071
10.946	64.9737
10.964	64.9518
10.982	64.9323
11	64.9051
11.018	64.8695
11.036	64.8341
11.054	64.8095
11.072	64.7992
11.09	64.7978
11.108	64.7958
11.126	64.7846
11.144	64.7615
11.162	64.7276
11.18	64.687
11.198	64.6441
11.216	64.6025
11.234	64.5671
11.252	64.5437
11.27	64.5374
11.288	64.5502
11.306	64.5782
11.324	64.6115
11.342	64.6378
11.36	64.647
11.378	64.6327
11.396	64.5939
11.414	64.5357
11.432	64.4676
11.45	64.4013
11.468	64.348
11.486	64.3143
11.504	64.3004
11.522	64.3001
11.54	64.3044
11.558	64.304
11.576	64.2925
11.594	64.2686
11.612	64.2359
11.63	64.2016
11.648	64.1736
11.666	64.1589
11.684	64.1615
11.702	64.1815
11.72	64.2148
11.738	64.2548
11.756	64.2942
11.774	64.3264
11.792	64.3476
11.81	64.358
11.828	64.3604
11.846	64.3595
11.864	64.3597
11.882	64.3636
11.9	64.371
11.918	64.3803
11.936	64.3893
11.954	64.3965
11.972	64.4011
11.99	64.4029
12.008	64.4014
12.026	64.3944
12.044	64.3784
12.062	64.3488
12.08	64.3024
12.098	64.2394
12.116	64.1648
12.134	64.0881
12.152	64.0207
12.17	63.9716
12.188	63.946
12.206	63.9423
12.224	63.9546
12.242	63.9754
12.26	63.9992
12.278	64.0229
12.296	64.0461
12.314	64.0693
12.332	64.0926
12.35	64.1147
12.368	64.1333
12.386	64.1465
12.404	64.1534
12.422	64.1541
12.44	64.1503
12.458	64.1426
12.476	64.131
12.494	64.1135
12.512	64.0869
12.53	64.0482
12.548	63.9959
12.566	63.9321
12.584	63.8618
12.602	63.7929
12.62	63.7344
12.638	63.6946
12.656	63.68
12.674	63.693
12.692	63.7325
12.71	63.7937
12.728	63.869
12.746	63.949
12.764	64.024
12.782	64.0855
12.8	64.1278
12.818	64.148
12.836	64.1465
12.854	64.1259
12.872	64.0912
12.89	64.0472
12.908	63.9983
12.926	63.9475
12.944	63.8972
12.962	63.8492
12.98	63.805
12.998	63.7664
13.016	63.7353
13.034	63.7133
13.052	63.7005
13.07	63.6954
13.088	63.6942
13.106	63.6919
13.124	63.683
13.142	63.6637
13.16	63.6325
13.178	63.5914
13.196	63.5452
13.214	63.5008
13.232	63.4657
13.25	63.4464
13.268	63.4462
13.286	63.4666
13.304	63.5064
13.322	63.5626
13.34	63.631
13.358	63.7067
13.376	63.7852
13.394	63.8613
13.412	63.9294
13.43	63.9838
13.448	64.0191
13.466	64.031
13.484	64.0179
13.502	63.9814
13.52	63.9265
13.538	63.8612
13.556	63.7948
13.574	63.736
13.592	63.6912
13.61	63.6626
13.628	63.6485
13.646	63.6438
13.664	63.6413
13.682	63.6343
13.7	63.6176
13.718	63.5889
13.736	63.549
13.754	63.5014
13.772	63.4511
13.79	63.403
13.808	63.3608
13.826	63.3267
13.844	63.3007
13.862	63.2819
13.88	63.2683
13.898	63.2581
13.916	63.2498
13.934	63.2427
13.952	63.2362
13.97	63.2294
13.988	63.2208
14.006	63.2081
14.024	63.1887
14.042	63.1596
14.06	63.1191
14.078	63.0664
14.096	63.003
14.114	62.9321
14.132	62.8591
14.15	62.7906
14.168	62.7338
14.186	62.6951
14.204	62.6793
14.222	62.6888
14.24	62.7229
14.258	62.7781
14.276	62.8485
14.294	62.927
14.312	63.0062
14.33	63.0797
14.348	63.1421
14.366	63.1898
14.384	63.2211
14.402	63.236
14.42	63.2355
14.438	63.2211
14.456	63.195
14.474	63.1593
14.492	63.116
14.51	63.0681
14.528	63.0187
14.546	62.9716
14.564	62.9305
14.582	62.8991
14.6	62.8806
14.618	62.8772
14.636	62.8887
14.654	62.9127
14.672	62.9448
14.69	62.9794
14.708	63.0099
14.726	63.0302
14.744	63.0341
14.762	63.0189
14.78	62.9835
14.798	62.9287
14.816	62.8571
14.834	62.7722
14.852	62.6786
14.87	62.5805
14.888	62.4815
14.906	62.3845
14.924	62.2917
14.942	62.2051
14.96	62.126
14.978	62.0563
14.996	61.9978
15.014	61.9522
15.032	61.9209
15.05	61.9048
15.068	61.9039
15.086	61.9171
15.104	61.9426
15.122	61.9768
15.14	62.0162
15.158	62.0574
15.176	62.0976
15.194	62.1343
15.212	62.1664
15.23	62.1937
15.248	62.2166
15.266	62.2358
15.284	62.2523
15.302	62.2669
15.32	62.2801
15.338	62.2922
15.356	62.3034
15.374	62.3139
15.392	62.324
15.41	62.334
15.428	62.3449
15.446	62.3573
15.464	62.3717
15.482	62.3884
15.5	62.4067
15.518	62.4251
15.536	62.4413
15.554	62.4527
15.572	62.4566
15.59	62.4501
15.608	62.4318
15.626	62.4012
15.644	62.359
15.662	62.3085
15.68	62.2534
15.698	62.1979
15.716	62.1473
15.734	62.1062
15.752	62.0775
15.77	62.0634
15.788	62.0646
15.806	62.0793
15.824	62.1054
15.842	62.1395
15.86	62.1765
15.878	62.213
15.896	62.2455
15.914	62.2701
15.932	62.2851
15.95	62.2892
15.968	62.2815
15.986	62.2626
16.004	62.2333
16.022	62.1947
16.04	62.1482
16.058	62.0953
16.076	62.0373
16.094	61.9761
16.112	61.9141
16.13	61.8529
16.148	61.795
16.166	61.7432
16.184	61.6993
16.202	61.6652
16.22	61.6429
16.238	61.6326
16.256	61.6348
16.274	61.6487
16.292	61.6724
16.31	61.7045
16.328	61.742
16.346	61.7824
16.364	61.8235
16.382	61.8628
16.4	61.8991
16.418	61.9314
16.436	61.9595
16.454	61.9837
16.472	62.0044
16.49	62.0227
16.508	62.0396
16.526	62.0555
16.544	62.071
16.562	62.0856
16.58	62.0988
16.598	62.1095
16.616	62.1162
16.634	62.1177
16.652	62.1121
16.67	62.0985
16.688	62.076
16.706	62.0441
16.724	62.0034
16.742	61.9544
16.76	61.8989
16.778	61.8383
16.796	61.7751
16.814	61.7124
16.832	61.6517
16.85	61.5969
16.868	61.55
16.886	61.5129
16.904	61.4881
16.922	61.476
16.94	61.4776
16.958	61.4923
16.976	61.5197
16.994	61.5581
17.012	61.6053
17.03	61.6597
17.048	61.7174
17.066	61.7763
17.084	61.8334
17.102	61.8851
17.12	61.9301
17.138	61.9648
17.156	61.9882
17.174	61.9985
17.192	61.9948
17.21	61.9768
17.228	61.9445
17.246	61.8988
17.264	61.8404
17.282	61.7714
17.3	61.693
17.318	61.6076
17.336	61.5179
17.354	61.4252
17.372	61.3332
17.39	61.2432
17.408	61.158
17.426	61.0794
17.444	61.0088
17.462	60.948
17.48	60.8974
17.498	60.8581
17.516	60.8298
17.534	60.8128
17.552	60.8058
17.57	60.8085
17.588	60.819
17.606	60.8363
17.624	60.8587
17.642	60.8843
17.66	60.9124
17.678	60.9402
17.696	60.9673
17.714	60.9919
17.732	61.0134
17.75	61.0309
17.768	61.0441
17.786	61.0529
17.804	61.0574
17.822	61.0578
17.84	61.055
17.858	61.0497
17.876	61.0427
17.894	61.0352
17.912	61.0278
17.93	61.0221
17.948	61.0182
17.966	61.0175
17.984	61.02
18.002	61.0264
18.02	61.0365
18.038	61.0504
18.056	61.0675
18.074	61.0876
18.092	61.1094
18.11	61.1328
18.128	61.156
18.146	61.1789
18.164	61.2002
18.182	61.2193
18.2	61.2356
18.218	61.2485
18.236	61.2575
18.254	61.2624
18.272	61.2631
18.29	61.2596
18.308	61.2521
18.326	61.2412
18.344	61.227
18.362	61.2102
18.38	61.1909
18.398	61.1698
18.416	61.1471
18.434	61.1236
18.452	61.0994
18.47	61.0749
18.488	61.0502
18.506	61.0255
18.524	61.0006
18.542	60.9753
18.56	60.9495
18.578	60.9231
18.596	60.8957
18.614	60.8673
18.632	60.8376
18.65	60.8064
18.668	60.7737
18.686	60.7393
18.704	60.7033
18.722	60.6658
18.74	60.627
18.758	60.5871
18.776	60.5467
18.794	60.5061
18.812	60.4661
18.83	60.427
18.848	60.3894
18.866	60.3537
18.884	60.3206
18.902	60.2904
18.92	60.2638
18.938	60.2411
18.956	60.2228
18.974	60.2089
18.992	60.1998
19.01	60.1956
19.028	60.1965
19.046	60.2025
19.064	60.2137
19.082	60.2299
19.1	60.2511
19.118	60.2769
19.136	60.307
19.154	60.3409
19.172	60.3777
19.19	60.4168
19.208	60.457
19.226	60.4977
19.244	60.537
19.262	60.5748
19.28	60.6092
19.298	60.6403
19.316	60.6664
19.334	60.6878
19.352	60.704
19.37	60.715
19.388	60.7216
19.406	60.7236
19.424	60.7226
19.442	60.7185
19.46	60.7134
19.478	60.7075
19.496	60.7023
19.514	60.6982
19.532	60.696
19.55	60.6965
19.568	60.6993
19.586	60.7047
19.604	60.7121
19.622	60.7208
19.64	60.7305
19.658	60.7393
19.676	60.7473
19.694	60.7523
19.712	60.7545
19.73	60.7518
19.748	60.7443
19.766	60.7311
19.784	60.7118
19.802	60.6866
19.82	60.655
19.838	60.6179
19.856	60.5756
19.874	60.5286
19.892	60.4783
19.91	60.4246
19.928	60.3698
19.946	60.3135
19.964	60.2577
19.982	60.2026
20	60.1493
20.018	60.0984
20.036	60.0504
20.054	60.0061
20.072	59.9654
20.09	59.9293
20.108	59.8977
20.126	59.8711
20.144	59.8496
20.162	59.8336
20.18	59.8231
20.198	59.8183
20.216	59.8194
20.234	59.8263
20.252	59.8389
20.27	59.8571
20.288	59.8802
20.306	59.9083
20.324	59.9403
20.342	59.9756
20.36	60.0133
20.378	60.0513
20.396	60.0899
20.414	60.1257
20.432	60.1591
20.45	60.1875
20.468	60.2098
20.486	60.2255
20.504	60.2324
20.522	60.231
20.54	60.2201
20.558	60.1994
20.576	60.1697
20.594	60.1307
20.612	60.0837
20.63	60.0304
20.648	59.9707
20.666	59.9082
20.684	59.8424
20.702	59.7764
20.72	59.7122
20.738	59.6499
20.756	59.5927
20.774	59.5401
20.792	59.4939
20.81	59.4547
20.828	59.422
20.846	59.3961
20.864	59.3767
20.882	59.3622
20.9	59.3531
20.918	59.3469
20.936	59.3424
20.954	59.3394
20.972	59.3343
20.99	59.3279
21.008	59.3178
21.026	59.3028
21.044	59.2833
21.062	59.2579
21.08	59.2268
21.098	59.1905
21.116	59.1488
21.134	59.1025
21.152	59.0532
21.17	59.0004
21.188	58.9469
21.206	58.8929
21.224	58.8394
21.242	58.7891
21.26	58.7412
21.278	58.6981
21.296	58.6601
21.314	58.6275
21.332	58.6017
21.35	58.5823
21.368	58.5696
21.386	58.564
21.404	58.5652
21.422	58.5732
21.44	58.5879
21.458	58.6091
21.476	58.6364
21.494	58.6698
21.512	58.7092
21.53	58.7544
21.548	58.8054
21.566	58.8622
21.584	58.9249
21.602	58.9935
21.62	59.0681
21.638	59.1486
21.656	59.2348
21.674	59.327
21.692	59.4242
21.71	59.5265
21.728	59.6334
21.746	59.7435
21.764	59.8575
21.782	59.9732
21.8	60.0891
21.818	60.2058
21.836	60.3197
21.854	60.4314
21.872	60.5392
21.89	60.6393
21.908	60.7333
21.926	60.8179
21.944	60.8911
21.962	60.9539
21.98	61.0026
21.998	61.0369
22.016	61.0567
22.034	61.0604
22.052	61.0483
22.07	61.0202
22.088	60.9756
22.106	60.9147
22.124	60.8389
22.142	60.748
22.16	60.6427
22.178	60.5255
22.196	60.3954
22.214	60.2549
22.232	60.1067
22.25	59.9494
22.268	59.7869
22.286	59.621
22.304	59.4509
22.322	59.2814
22.34	59.1128
22.358	58.9455
22.376	58.7836
22.394	58.6262
22.412	58.4748
22.43	58.3321
22.448	58.1969
22.466	58.0708
22.484	57.9553
22.502	57.8496
22.52	57.7544
22.538	57.6706
22.556	57.5974
22.574	57.5348
22.592	57.4828
22.61	57.4411
22.628	57.4082
22.646	57.385
22.664	57.3701
22.682	57.3613
22.7	57.3595
22.718	57.3629
22.736	57.3691
22.754	57.3793
22.772	57.3915
22.79	57.404
22.808	57.4177
22.826	57.4312
22.844	57.4435
22.862	57.4554
22.88	57.4648
22.898	57.4708
22.916	57.474
22.934	57.4734
22.952	57.4686
22.97	57.4598
22.988	57.4467
23.006	57.429
23.024	57.407
23.042	57.3817
23.06	57.3527
23.078	57.3206
23.096	57.2871
23.114	57.2519
23.132	57.2155
23.15	57.1806
23.168	57.147
23.186	57.1148
23.204	57.0861
23.222	57.0606
23.24	57.0387
23.258	57.0221
23.276	57.0103
23.294	57.0039
23.312	57.0051
23.33	57.014
23.348	57.0303
23.366	57.0546
23.384	57.0875
23.402	57.1283
23.42	57.1754
23.438	57.2298
23.456	57.2905
23.474	57.3545
23.492	57.422
23.51	57.4928
23.528	57.5636
23.546	57.6344
23.564	57.7054
23.582	57.7719
23.6	57.8324
23.618	57.8887
23.636	57.9352
23.654	57.9696
23.672	57.9942
23.69	58.0044
23.708	57.9972
23.726	57.9747
23.744	57.9347
23.762	57.8749
23.78	57.7965
23.798	57.6989
23.816	57.5809
23.834	57.4422
23.852	57.2842
23.87	57.1081
23.888	56.9123
23.906	56.699
23.924	56.4728
23.942	56.2319
23.96	55.9775
23.978	55.7175
23.996	55.4531
24.014	55.1816
24.032	54.9139
24.05	54.6558
24.068	54.4005
24.086	54.1596
24.104	53.9436
24.122	53.7447
24.14	53.571
24.158	53.4345
24.176	53.3309
24.194	53.2624
24.212	53.2391
24.23	53.2624
24.248	53.3292
24.266	53.4463
24.284	53.6182
24.302	53.8418
24.32	54.1169
24.338	54.4445
24.356	54.8263
24.374	55.2576
24.392	55.7321
24.41	56.2549
24.428	56.8217
24.446	57.4178
24.464	58.0397
24.482	58.6943
24.5	59.3639
24.518	60.0347
24.536	60.7208
24.554	61.4057
24.572	62.0668
24.59	62.7123
24.608	63.3391
24.626	63.9233
24.644	64.4556
24.662	64.9491
24.68	65.3838
24.698	65.7412
24.716	66.0331
24.734	66.2525
24.752	66.3848
24.77	66.4278
24.788	66.387
24.806	66.2569
24.824	66.0322
24.842	65.7136
24.86	65.308
24.878	64.8222
24.896	64.2497
24.914	63.5959
24.932	62.8766
24.95	62.0974
24.968	61.2471
24.986	60.3471
25.004	59.4195
25.022	58.4515
25.04	57.4502
25.058	56.4391
25.076	55.4273
25.094	54.4014
25.112	53.3792
25.13	52.379
25.148	51.3924
25.166	50.4219
25.184	49.4795
25.202	48.5714
25.22	47.6906
25.238	46.8423
25.256	46.0322
25.274	45.2608
25.292	44.5253
25.31	43.8234
25.328	43.1554
25.346	42.5238
25.364	41.9219
25.382	41.3421
25.4	40.7853
25.418	40.2528
25.436	39.7404
25.454	39.2442
25.472	38.7647
25.49	38.3044
25.508	37.8661
25.526	37.4486
25.544	37.0507
25.562	36.6783
25.58	36.3369
25.598	36.0207
25.616	35.7334
25.634	35.4836
25.652	35.2758
25.67	35.1026
25.688	34.9718
25.706	34.8927
25.724	34.865
25.742	34.8849
25.76	34.9598
25.778	35.0971
25.796	35.2938
25.814	35.5489
25.832	35.864
25.85	36.2412
25.868	36.6805
25.886	37.1782
25.904	37.7305
25.922	38.3394
25.94	39.0071
25.958	39.7218
25.976	40.4719
25.994	41.2648
26.012	42.0988
26.03	42.9585
26.048	43.8308
26.066	44.7276
26.084	45.6425
26.102	46.5614
26.12	47.4759
26.138	48.3975
26.156	49.3171
26.174	50.2229
26.192	51.1103
26.21	51.9868
26.228	52.8474
26.246	53.6867
26.264	54.5052
26.282	55.3053
26.3	56.0824
26.318	56.8323
26.336	57.5572
26.354	58.2574
26.372	58.9293
26.39	59.5698
26.408	60.184
26.426	60.7688
26.444	61.3173
26.462	61.8244
26.48	62.2993
26.498	62.7351
26.516	63.1202
26.534	63.4468
26.552	63.7262
26.57	63.951
26.588	64.1096
26.606	64.1956
26.624	64.2201
26.642	64.175
26.66	64.0492
26.678	63.8351
26.696	63.5389
26.714	63.1626
26.732	62.7072
26.75	62.1695
26.768	61.5441
26.786	60.8461
26.804	60.0923
26.822	59.2849
26.84	58.4044
26.858	57.4798
26.876	56.5428
26.894	55.6033
26.912	54.6296
26.93	53.6568
26.948	52.7243
26.966	51.8299
26.984	50.9082
27.002	50.0624
27.02	49.4076
27.028	49.2285