File: Bakgrunnsmateriale/MATLAB/FTIR/ftir_data/subBb/Mapping_121/C-4040-8_t29.asc
PE IR       SPECTRUM    SPECTRUM    ASCII       PEDS        1.60
  -1
C-CD2E~1.ASC
17/03/27
16:52:31.00
17/03/27
16:52:57.00
tln
$C-4040-8_t0029$<tbV0>[-2.6,-7.8,8.0,0.0,27,1,0]
27.028
64

2002,4.07
MIRTGS : RIGHTBACK : INTERNAL 2
MIR : ON : INTERNAL 2
OPTKBR

0.200000
8
8.000000
FILLER
RATIO
SPECTRUM
UNLOCKED 256

DOUBLE
64
COMBINED
1
0
0

0.002000
RATIO

1
0
TRUE
51149
0
LEFT NOT FITTED RIGHT NOT FITTED 0
NONE
NONE
15600
12
4.427000
51148
TRUE
1 0 8 72 0 0 0 0

15798

#HDR
-1
-1
#GR
µM
%T
2.38419e-05
0.0
2.000000
0.002000
12515
8
67.9514
28.9195
#DATA
2.000000	 63.9295
2.018000	 63.9557
2.036000	 64.0664
2.054000	 63.8527
2.072000	 64.064
2.090000	 63.3186
2.108000	 64.1282
2.126000	 63.8698
2.144000	 63.7823
2.162000	 63.7556
2.180000	 63.9918
2.198000	 63.7154
2.216000	 64.2284
2.234000	 64.5069
2.252000	 64.2868
2.270000	 64.2194
2.288000	 64.6906
2.306000	 64.4227
2.324000	 64.4431
2.342000	 64.7728
2.360000	 63.8602
2.378000	 63.6814
2.396000	 63.464
2.414000	 63.9208
2.432000	 62.996
2.450000	 63.3553
2.468000	 63.2703
2.486000	 63.2091
2.504000	 63.2888
2.522000	 63.4368
2.540000	 63.267
2.558000	 63.2034
2.576000	 63.6236
2.594000	 63.4075
2.612000	 63.2351
2.630000	 63.0246
2.648000	 63.2046
2.666000	 63.0472
2.684000	 63.1342
2.702000	 62.8883
2.720000	 62.8657
2.738000	 62.7869
2.756000	 62.6779
2.774000	 62.6387
2.792000	 62.6592
2.810000	 62.6034
2.828000	 62.5444
2.846000	 62.5303
2.864000	 62.3122
2.882000	 62.3196
2.900000	 62.431
2.918000	 62.2588
2.936000	 62.2051
2.954000	 62.0168
2.972000	 61.9176
2.990000	 62.0101
3.008000	 61.8881
3.026000	 61.573
3.044000	 61.7556
3.062000	 61.8741
3.080000	 61.6055
3.098000	 61.3232
3.116000	 61.3313
3.134000	 61.2274
3.152000	 61.3298
3.170000	 61.117
3.188000	 60.9192
3.206000	 61.1153
3.224000	 60.8227
3.242000	 61.0248
3.260000	 60.9887
3.278000	 60.8178
3.296000	 60.9448
3.314000	 60.6523
3.332000	 60.6233
3.350000	 60.4847
3.368000	 60.4492
3.386000	 60.3906
3.404000	 60.1636
3.422000	 59.9615
3.440000	 60.0354
3.458000	 60.0211
3.476000	 59.9362
3.494000	 60.0287
3.512000	 59.888
3.530000	 59.803
3.548000	 59.7435
3.566000	 59.6806
3.584000	 59.6892
3.602000	 59.5802
3.620000	 59.5532
3.638000	 59.416
3.656000	 59.2993
3.674000	 59.1979
3.692000	 59.0948
3.710000	 59.1932
3.728000	 59.0497
3.746000	 58.908
3.764000	 58.7455
3.782000	 58.7888
3.800000	 58.7526
3.818000	 58.5124
3.836000	 58.5944
3.854000	 58.5424
3.872000	 58.4386
3.890000	 58.3963
3.908000	 58.3195
3.926000	 58.3478
3.944000	 58.3016
3.962000	 58.1204
3.980000	 57.879
3.998000	 57.994
4.016000	 57.9591
4.034000	 57.8415
4.052000	 57.7065
4.070000	 57.5749
4.088000	 57.7709
4.106000	 57.5729
4.124000	 57.4914
4.141999	 57.35
4.160000	 57.2508
4.178000	 57.3711
4.196000	 57.2061
4.214000	 57.0596
4.232000	 57.0964
4.250000	 56.886
4.268000	 56.8671
4.286000	 56.8102
4.304000	 56.6213
4.322000	 56.6711
4.340000	 56.78
4.358000	 56.6276
4.375999	 56.5313
4.394000	 56.432
4.412000	 56.252
4.430000	 56.2999
4.448000	 56.3356
4.466000	 56.1374
4.484000	 56.1795
4.502000	 55.9242
4.520000	 56.0257
4.538000	 55.92
4.556000	 55.9455
4.574000	 55.8982
4.592000	 55.8106
4.609999	 55.6775
4.628000	 55.7518
4.646000	 55.5777
4.664000	 55.5874
4.682000	 55.5189
4.700000	 55.3575
4.718000	 55.3384
4.736000	 55.2488
4.754000	 55.2186
4.772000	 55.0537
4.790000	 55.1293
4.808000	 55.0322
4.826000	 54.7569
4.843999	 55.0092
4.862000	 55.0432
4.880000	 54.9037
4.898000	 54.6736
4.916000	 54.6443
4.934000	 54.6384
4.952000	 54.63
4.970000	 54.5316
4.988000	 54.4735
5.006000	 54.407
5.024000	 54.3322
5.042000	 54.2837
5.060000	 54.2461
5.077999	 54.1886
5.096000	 54.1112
5.114000	 54.098
5.132000	 53.9356
5.150000	 53.8975
5.168000	 53.8785
5.186000	 53.8395
5.204000	 53.7941
5.222000	 53.7143
5.240000	 53.6987
5.258000	 53.5438
5.276000	 53.4979
5.294000	 53.4534
5.312000	 53.4753
5.330000	 53.4706
5.348000	 53.345
5.366000	 53.3016
5.384000	 53.3408
5.402000	 53.235
5.420000	 53.119
5.438000	 53.0559
5.456000	 53.0028
5.474000	 52.9811
5.492000	 52.9719
5.510000	 52.9307
5.528000	 52.8891
5.546000	 52.8946
5.564000	 52.8396
5.582000	 52.744
5.600000	 52.6951
5.618000	 52.5756
5.636000	 52.5399
5.654000	 52.4854
5.672000	 52.5394
5.690000	 52.5216
5.708000	 52.4133
5.726000	 52.328
5.744000	 52.2689
5.762000	 52.2376
5.780000	 52.2959
5.798000	 52.2282
5.816000	 52.0101
5.834000	 51.9437
5.852000	 51.9943
5.870000	 52.0566
5.888000	 52.0345
5.906000	 51.93
5.923999	 51.8175
5.942000	 51.7612
5.960000	 51.7152
5.978000	 51.674
5.996000	 51.6271
6.014000	 51.669
6.032000	 51.6504
6.050000	 51.4951
6.068000	 51.4317
6.086000	 51.5011
6.104000	 51.4635
6.122000	 51.3009
6.140000	 51.1905
6.158000	 51.1151
6.176000	 51.0945
6.194000	 51.1363
6.212000	 51.1401
6.230000	 51.0601
6.248000	 51.047
6.266000	 51.0559
6.284000	 51.1037
6.302000	 51.125
6.320000	 51.0299
6.338000	 50.8597
6.356000	 50.7061
6.374000	 50.669
6.392000	 50.6698
6.410000	 50.6164
6.428000	 50.5711
6.446000	 50.5815
6.464000	 50.5579
6.482000	 50.4894
6.500000	 50.385
6.518000	 50.3388
6.536000	 50.3972
6.554000	 50.4452
6.572000	 50.4051
6.590000	 50.3266
6.608000	 50.332
6.626000	 50.3341
6.644000	 50.2387
6.662000	 50.1268
6.680000	 50.0777
6.698000	 50.0879
6.716000	 50.1176
6.734000	 50.1571
6.752000	 50.1183
6.770000	 50.0545
6.788000	 50.0387
6.806000	 49.9933
6.824000	 49.9219
6.842000	 49.8588
6.860000	 49.8157
6.878000	 49.8093
6.896000	 49.8409
6.914000	 49.8621
6.932000	 49.8125
6.950000	 49.7234
6.968000	 49.6439
6.986000	 49.567
7.004000	 49.49
7.022000	 49.4338
7.040000	 49.3826
7.058000	 49.3389
7.076000	 49.3653
7.094000	 49.4179
7.112000	 49.3837
7.130000	 49.2915
7.148000	 49.2319
7.166000	 49.1962
7.184000	 49.1409
7.202000	 49.0875
7.220000	 49.0598
7.238000	 49.025
7.256000	 48.9896
7.274000	 48.9805
7.292000	 48.9412
7.310000	 48.8299
7.328000	 48.7295
7.346000	 48.7303
7.364000	 48.7902
7.382000	 48.8103
7.400000	 48.7854
7.418000	 48.7464
7.436000	 48.6826
7.454000	 48.6336
7.472000	 48.6531
7.490000	 48.6727
7.508000	 48.6225
7.526000	 48.5641
7.544000	 48.5597
7.562000	 48.5796
7.580000	 48.5782
7.598000	 48.5418
7.616000	 48.4885
7.634000	 48.4538
7.652000	 48.4345
7.670000	 48.3994
7.688000	 48.3557
7.706000	 48.3308
7.724000	 48.3224
7.742000	 48.3066
7.760000	 48.2678
7.778000	 48.2186
7.796000	 48.1974
7.814000	 48.2135
7.832000	 48.2188
7.850000	 48.1775
7.868000	 48.1244
7.886000	 48.1114
7.904000	 48.1329
7.922000	 48.1356
7.940000	 48.083
7.958000	 47.9919
7.976000	 47.9056
7.994000	 47.8527
8.012000	 47.8395
8.030000	 47.8579
8.048000	 47.886
8.065999	 47.9059
8.084000	 47.9236
8.102000	 47.9405
8.120000	 47.9259
8.138000	 47.8576
8.155999	 47.7626
8.173999	 47.6784
8.192000	 47.6113
8.210000	 47.562
8.228000	 47.5428
8.246000	 47.5396
8.263999	 47.507
8.282000	 47.4243
8.300000	 47.3359
8.318000	 47.3034
8.336000	 47.3327
8.353999	 47.3731
8.372000	 47.3788
8.390000	 47.3493
8.408000	 47.3075
8.426000	 47.2771
8.443999	 47.2825
8.462000	 47.3345
8.480000	 47.4047
8.498000	 47.4425
8.516000	 47.4256
8.533999	 47.3705
8.552000	 47.2932
8.570000	 47.1981
8.588000	 47.1062
8.606000	 47.057
8.624000	 47.0643
8.641999	 47.0985
8.660000	 47.1203
8.678000	 47.1187
8.696000	 47.1062
8.714000	 47.0885
8.731999	 47.0543
8.750000	 46.9926
8.768000	 46.9063
8.786000	 46.8077
8.804000	 46.7042
8.821999	 46.6015
8.840000	 46.5115
8.858000	 46.4547
8.876000	 46.4449
8.894000	 46.4831
8.911999	 46.5536
8.930000	 46.6276
8.948000	 46.6743
8.966000	 46.688
8.984000	 46.7014
9.001999	 46.7619
9.020000	 46.8857
9.038000	 47.0422
9.056000	 47.178
9.074000	 47.2468
9.092000	 47.217
9.109999	 47.0774
9.128000	 46.85
9.146000	 46.5896
9.164000	 46.3556
9.182000	 46.1819
9.199999	 46.075
9.218000	 46.0358
9.236000	 46.0611
9.254000	 46.1296
9.272000	 46.2023
9.289999	 46.2497
9.308000	 46.2725
9.326000	 46.2913
9.344000	 46.3205
9.362000	 46.3524
9.379999	 46.3609
9.398000	 46.3176
9.416000	 46.2025
9.434000	 46.0185
9.452000	 45.7987
9.469999	 45.6026
9.488000	 45.4878
9.506000	 45.4769
9.524000	 45.5443
9.542000	 45.6376
9.560000	 45.7121
9.577999	 45.7471
9.596000	 45.7406
9.614000	 45.7004
9.632000	 45.6419
9.650000	 45.587
9.667999	 45.5555
9.686000	 45.5525
9.704000	 45.567
9.722000	 45.5819
9.740000	 45.5877
9.757999	 45.5871
9.776000	 45.5895
9.794000	 45.6027
9.812000	 45.6303
9.830000	 45.6703
9.847999	 45.7124
9.866000	 45.737
9.884000	 45.7219
9.902000	 45.6597
9.920000	 45.5696
9.937999	 45.4884
9.956000	 45.4414
9.974000	 45.4222
9.992000	 45.3986
10.01	45.342
10.028	45.2569
10.046	45.1825
10.064	45.165
10.082	45.2242
10.1	45.3397
10.118	45.4617
10.136	45.5397
10.154	45.5448
10.172	45.4778
10.19	45.3653
10.208	45.2446
10.226	45.1476
10.244	45.0922
10.262	45.0774
10.28	45.0888
10.298	45.1067
10.316	45.1129
10.334	45.0959
10.352	45.053
10.37	44.9888
10.388	44.9162
10.406	44.853
10.424	44.818
10.442	44.8222
10.46	44.8646
10.478	44.9319
10.496	45.0029
10.514	45.0585
10.532	45.0869
10.55	45.0845
10.568	45.054
10.586	45.0005
10.604	44.9289
10.622	44.8465
10.64	44.7632
10.658	44.6904
10.676	44.6383
10.694	44.6111
10.712	44.6046
10.73	44.607
10.748	44.6055
10.766	44.5919
10.784	44.5668
10.802	44.5383
10.82	44.5157
10.838	44.5051
10.856	44.5059
10.874	44.5126
10.892	44.519
10.91	44.5204
10.928	44.5155
10.946	44.5044
10.964	44.4884
10.982	44.4686
11	44.4471
11.018	44.4272
11.036	44.4112
11.054	44.3992
11.072	44.3894
11.09	44.3798
11.108	44.3711
11.126	44.3674
11.144	44.3739
11.162	44.3931
11.18	44.4213
11.198	44.4482
11.216	44.4619
11.234	44.454
11.252	44.4235
11.27	44.3775
11.288	44.3277
11.306	44.2837
11.324	44.2501
11.342	44.2252
11.36	44.2036
11.378	44.1796
11.396	44.1505
11.414	44.1168
11.432	44.0816
11.45	44.048
11.468	44.0184
11.486	43.9948
11.504	43.9783
11.522	43.9694
11.54	43.967
11.558	43.9675
11.576	43.9649
11.594	43.9528
11.612	43.9254
11.63	43.8812
11.648	43.8234
11.666	43.7593
11.684	43.6986
11.702	43.6495
11.72	43.6171
11.738	43.6012
11.756	43.5975
11.774	43.5989
11.792	43.5988
11.81	43.5928
11.828	43.5797
11.846	43.5618
11.864	43.5435
11.882	43.5291
11.9	43.5218
11.918	43.5219
11.936	43.527
11.954	43.5326
11.972	43.5328
11.99	43.5219
12.008	43.4952
12.026	43.4508
12.044	43.3902
12.062	43.3193
12.08	43.247
12.098	43.1832
12.116	43.135
12.134	43.1043
12.152	43.0873
12.17	43.0771
12.188	43.0663
12.206	43.0511
12.224	43.0326
12.242	43.0159
12.26	43.0074
12.278	43.0119
12.296	43.0302
12.314	43.0581
12.332	43.0883
12.35	43.1127
12.368	43.1245
12.386	43.1206
12.404	43.102
12.422	43.0734
12.44	43.0404
12.458	43.0082
12.476	42.9807
12.494	42.9599
12.512	42.9461
12.53	42.9388
12.548	42.9371
12.566	42.9404
12.584	42.9466
12.602	42.9531
12.62	42.9561
12.638	42.9522
12.656	42.9392
12.674	42.917
12.692	42.8882
12.71	42.8573
12.728	42.829
12.746	42.807
12.764	42.7918
12.782	42.7809
12.8	42.7693
12.818	42.7507
12.836	42.7206
12.854	42.6771
12.872	42.6217
12.89	42.5591
12.908	42.4958
12.926	42.4383
12.944	42.3915
12.962	42.3579
12.98	42.3377
12.998	42.329
13.016	42.3289
13.034	42.334
13.052	42.3415
13.07	42.3489
13.088	42.3544
13.106	42.3565
13.124	42.3542
13.142	42.3469
13.16	42.3337
13.178	42.3146
13.196	42.2896
13.214	42.2592
13.232	42.2241
13.25	42.1854
13.268	42.1443
13.286	42.1023
13.304	42.0612
13.322	42.023
13.34	41.9898
13.358	41.9625
13.376	41.9414
13.394	41.9253
13.412	41.9121
13.43	41.8992
13.448	41.8839
13.466	41.8645
13.484	41.8403
13.502	41.8117
13.52	41.7802
13.538	41.7478
13.556	41.7167
13.574	41.6887
13.592	41.6649
13.61	41.6457
13.628	41.6306
13.646	41.6185
13.664	41.6078
13.682	41.5968
13.7	41.5837
13.718	41.5667
13.736	41.5446
13.754	41.5167
13.772	41.4836
13.79	41.4471
13.808	41.4104
13.826	41.3773
13.844	41.3519
13.862	41.337
13.88	41.3345
13.898	41.3441
13.916	41.3637
13.934	41.3901
13.952	41.4192
13.97	41.4475
13.988	41.4721
14.006	41.4915
14.024	41.5054
14.042	41.5142
14.06	41.5186
14.078	41.5192
14.096	41.5158
14.114	41.5075
14.132	41.4931
14.15	41.4713
14.168	41.4414
14.186	41.4035
14.204	41.3588
14.222	41.3095
14.24	41.258
14.258	41.2068
14.276	41.1575
14.294	41.111
14.312	41.0675
14.33	41.0264
14.348	40.9871
14.366	40.949
14.384	40.912
14.402	40.877
14.42	40.8453
14.438	40.8187
14.456	40.7985
14.474	40.7859
14.492	40.781
14.51	40.7828
14.528	40.789
14.546	40.7967
14.564	40.8029
14.582	40.8045
14.6	40.7992
14.618	40.7851
14.636	40.7616
14.654	40.7296
14.672	40.6903
14.69	40.6456
14.708	40.598
14.726	40.5501
14.744	40.5049
14.762	40.4649
14.78	40.4318
14.798	40.4067
14.816	40.3898
14.834	40.3804
14.852	40.3768
14.87	40.3766
14.888	40.3779
14.906	40.3785
14.924	40.3768
14.942	40.3721
14.96	40.3643
14.978	40.3542
14.996	40.3429
15.014	40.3319
15.032	40.3226
15.05	40.3159
15.068	40.3118
15.086	40.3102
15.104	40.31
15.122	40.3096
15.14	40.3071
15.158	40.301
15.176	40.2897
15.194	40.2719
15.212	40.2469
15.23	40.2149
15.248	40.1761
15.266	40.1314
15.284	40.0821
15.302	40.0298
15.32	39.9762
15.338	39.9231
15.356	39.8726
15.374	39.827
15.392	39.7877
15.41	39.7556
15.428	39.7315
15.446	39.7146
15.464	39.7034
15.482	39.6963
15.5	39.6908
15.518	39.6837
15.536	39.6726
15.554	39.6559
15.572	39.6317
15.59	39.6
15.608	39.5617
15.626	39.5183
15.644	39.4721
15.662	39.4265
15.68	39.3837
15.698	39.346
15.716	39.3159
15.734	39.294
15.752	39.2803
15.77	39.2746
15.788	39.2751
15.806	39.2799
15.824	39.2874
15.842	39.2955
15.86	39.3026
15.878	39.3078
15.896	39.3106
15.914	39.3109
15.932	39.3094
15.95	39.3063
15.968	39.3026
15.986	39.299
16.004	39.2957
16.022	39.2933
16.04	39.2919
16.058	39.2913
16.076	39.2912
16.094	39.2912
16.112	39.2907
16.13	39.2893
16.148	39.2866
16.166	39.2823
16.184	39.2762
16.202	39.2684
16.22	39.2586
16.238	39.2468
16.256	39.233
16.274	39.2172
16.292	39.1991
16.31	39.1788
16.328	39.156
16.346	39.1311
16.364	39.1039
16.382	39.0754
16.4	39.0463
16.418	39.0172
16.436	38.9899
16.454	38.9655
16.472	38.9451
16.49	38.9298
16.508	38.9201
16.526	38.9159
16.544	38.9166
16.562	38.921
16.58	38.9281
16.598	38.9358
16.616	38.9427
16.634	38.9475
16.652	38.9486
16.67	38.9456
16.688	38.9378
16.706	38.9259
16.724	38.9103
16.742	38.8922
16.76	38.8727
16.778	38.8527
16.796	38.8334
16.814	38.8154
16.832	38.7989
16.85	38.7839
16.868	38.7698
16.886	38.7561
16.904	38.7412
16.922	38.7243
16.94	38.7043
16.958	38.6801
16.976	38.6514
16.994	38.6177
17.012	38.5799
17.03	38.5383
17.048	38.4948
17.066	38.4505
17.084	38.4075
17.102	38.3682
17.12	38.3337
17.138	38.3067
17.156	38.288
17.174	38.2786
17.192	38.279
17.21	38.2889
17.228	38.3074
17.246	38.3327
17.264	38.3636
17.282	38.3964
17.3	38.4295
17.318	38.4593
17.336	38.4831
17.354	38.499
17.372	38.5039
17.39	38.4975
17.408	38.478
17.426	38.446
17.444	38.4015
17.462	38.3462
17.48	38.281
17.498	38.2084
17.516	38.1303
17.534	38.0484
17.552	37.9654
17.57	37.8824
17.588	37.8017
17.606	37.7242
17.624	37.6512
17.642	37.5836
17.66	37.5219
17.678	37.4668
17.696	37.4186
17.714	37.3777
17.732	37.3443
17.75	37.3186
17.768	37.3007
17.786	37.2908
17.804	37.2884
17.822	37.2933
17.84	37.305
17.858	37.3228
17.876	37.3459
17.894	37.3729
17.912	37.4034
17.93	37.4352
17.948	37.4677
17.966	37.4991
17.984	37.5287
18.002	37.5551
18.02	37.5778
18.038	37.596
18.056	37.6093
18.074	37.6176
18.092	37.6207
18.11	37.6188
18.128	37.612
18.146	37.6005
18.164	37.5845
18.182	37.5644
18.2	37.5403
18.218	37.5129
18.236	37.4823
18.254	37.4494
18.272	37.4144
18.29	37.3784
18.308	37.3417
18.326	37.3057
18.344	37.2707
18.362	37.2385
18.38	37.2093
18.398	37.1846
18.416	37.1644
18.434	37.1498
18.452	37.1405
18.47	37.1368
18.488	37.1379
18.506	37.1438
18.524	37.1526
18.542	37.1642
18.56	37.1762
18.578	37.1883
18.596	37.1981
18.614	37.2053
18.632	37.2076
18.65	37.2049
18.668	37.1957
18.686	37.1802
18.704	37.1578
18.722	37.1289
18.74	37.0942
18.758	37.0541
18.776	37.0101
18.794	36.9627
18.812	36.9138
18.83	36.8641
18.848	36.8153
18.866	36.768
18.884	36.7237
18.902	36.6827
18.92	36.6461
18.938	36.6137
18.956	36.5863
18.974	36.5634
18.992	36.5453
19.01	36.5315
19.028	36.5217
19.046	36.5155
19.064	36.5123
19.082	36.5116
19.1	36.5127
19.118	36.5153
19.136	36.5186
19.154	36.522
19.172	36.5248
19.19	36.5265
19.208	36.5262
19.226	36.5236
19.244	36.5175
19.262	36.5078
19.28	36.4934
19.298	36.4745
19.316	36.4503
19.334	36.421
19.352	36.3864
19.37	36.3467
19.388	36.3026
19.406	36.254
19.424	36.2025
19.442	36.148
19.46	36.0923
19.478	36.0355
19.496	35.9794
19.514	35.9244
19.532	35.8715
19.55	35.8215
19.568	35.7747
19.586	35.7319
19.604	35.6929
19.622	35.658
19.64	35.6268
19.658	35.5991
19.676	35.5747
19.694	35.5526
19.712	35.5329
19.73	35.5145
19.748	35.4974
19.766	35.4809
19.784	35.4647
19.802	35.4486
19.82	35.4325
19.838	35.4164
19.856	35.4005
19.874	35.3848
19.892	35.3701
19.91	35.3563
19.928	35.3446
19.946	35.3348
19.964	35.3281
19.982	35.3245
20	35.3244
20.018	35.3283
20.036	35.3361
20.054	35.3481
20.072	35.364
20.09	35.3836
20.108	35.4068
20.126	35.4326
20.144	35.4614
20.162	35.4916
20.18	35.5231
20.198	35.5551
20.216	35.5865
20.234	35.6173
20.252	35.6459
20.27	35.6726
20.288	35.6957
20.306	35.7155
20.324	35.731
20.342	35.7417
20.36	35.7473
20.378	35.747
20.396	35.741
20.414	35.7285
20.432	35.7096
20.45	35.6842
20.468	35.652
20.486	35.6136
20.504	35.5691
20.522	35.5188
20.54	35.4638
20.558	35.4039
20.576	35.3411
20.594	35.2757
20.612	35.2087
20.63	35.1427
20.648	35.0771
20.666	35.0152
20.684	34.9568
20.702	34.9039
20.72	34.8582
20.738	34.8195
20.756	34.7899
20.774	34.769
20.792	34.7574
20.81	34.7555
20.828	34.7626
20.846	34.7779
20.864	34.8015
20.882	34.8305
20.9	34.8657
20.918	34.904
20.936	34.9437
20.954	34.9847
20.972	35.0224
20.99	35.0579
21.008	35.088
21.026	35.1112
21.044	35.1275
21.062	35.1345
21.08	35.1327
21.098	35.1216
21.116	35.1005
21.134	35.0702
21.152	35.0316
21.17	34.9843
21.188	34.9309
21.206	34.8712
21.224	34.8067
21.242	34.7401
21.26	34.6705
21.278	34.6011
21.296	34.5323
21.314	34.4646
21.332	34.4003
21.35	34.3387
21.368	34.2813
21.386	34.2285
21.404	34.1802
21.422	34.1369
21.44	34.0986
21.458	34.065
21.476	34.0361
21.494	34.0119
21.512	33.9916
21.53	33.9754
21.548	33.9628
21.566	33.9535
21.584	33.9476
21.602	33.9445
21.62	33.9444
21.638	33.947
21.656	33.9524
21.674	33.9605
21.692	33.9711
21.71	33.9845
21.728	34.0004
21.746	34.0185
21.764	34.039
21.782	34.0613
21.8	34.085
21.818	34.1102
21.836	34.1355
21.854	34.1612
21.872	34.1865
21.89	34.2098
21.908	34.2318
21.926	34.2509
21.944	34.2661
21.962	34.2778
21.98	34.2843
21.998	34.2853
22.016	34.2809
22.034	34.2698
22.052	34.2523
22.07	34.2283
22.088	34.1973
22.106	34.1596
22.124	34.1158
22.142	34.0657
22.16	34.0098
22.178	33.9495
22.196	33.8843
22.214	33.8154
22.232	33.7446
22.25	33.671
22.268	33.5966
22.286	33.5226
22.304	33.4485
22.322	33.3762
22.34	33.3062
22.358	33.2385
22.376	33.1745
22.394	33.1142
22.412	33.0576
22.43	33.0057
22.448	32.9583
22.466	32.9149
22.484	32.8753
22.502	32.8398
22.52	32.8068
22.538	32.7761
22.556	32.7478
22.574	32.7197
22.592	32.6918
22.61	32.6639
22.628	32.6341
22.646	32.6027
22.664	32.5693
22.682	32.5326
22.7	32.4925
22.718	32.4494
22.736	32.403
22.754	32.353
22.772	32.3006
22.79	32.2468
22.808	32.1905
22.826	32.1346
22.844	32.0804
22.862	32.0268
22.88	31.9771
22.898	31.9327
22.916	31.8925
22.934	31.8597
22.952	31.8354
22.97	31.8187
22.988	31.8118
23.006	31.8152
23.024	31.8284
23.042	31.8512
23.06	31.8844
23.078	31.9272
23.096	31.9779
23.114	32.0374
23.132	32.1046
23.15	32.1758
23.168	32.2522
23.186	32.3323
23.204	32.4111
23.222	32.4898
23.24	32.5671
23.258	32.6377
23.276	32.7025
23.294	32.7608
23.312	32.8085
23.33	32.8456
23.348	32.8723
23.366	32.8863
23.384	32.8873
23.402	32.8759
23.42	32.852
23.438	32.8149
23.456	32.7655
23.474	32.7063
23.492	32.6367
23.51	32.5572
23.528	32.472
23.546	32.3814
23.564	32.2848
23.582	32.1875
23.6	32.091
23.618	31.9936
23.636	31.9
23.654	31.8126
23.672	31.7293
23.69	31.6537
23.708	31.5885
23.726	31.5318
23.744	31.4855
23.762	31.4517
23.78	31.4294
23.798	31.4189
23.816	31.4211
23.834	31.436
23.852	31.4629
23.87	31.5012
23.888	31.5517
23.906	31.6132
23.924	31.6841
23.942	31.7646
23.96	31.8544
23.978	31.9513
23.996	32.0546
24.014	32.165
24.032	32.2803
24.05	32.3992
24.068	32.5228
24.086	32.6496
24.104	32.7783
24.122	32.9095
24.14	33.0428
24.158	33.1779
24.176	33.3149
24.194	33.4537
24.212	33.5941
24.23	33.7359
24.248	33.8792
24.266	34.0243
24.284	34.1717
24.302	34.3214
24.32	34.4724
24.338	34.6238
24.356	34.7772
24.374	34.9302
24.392	35.0796
24.41	35.2273
24.428	35.3719
24.446	35.5078
24.464	35.6333
24.482	35.7513
24.5	35.8555
24.518	35.9408
24.536	36.0117
24.554	36.0639
24.572	36.0913
24.59	36.0952
24.608	36.0758
24.626	36.0292
24.644	35.953
24.662	35.8494
24.68	35.7179
24.698	35.5578
24.716	35.3675
24.734	35.1505
24.752	34.9113
24.77	34.6484
24.788	34.3619
24.806	34.0597
24.824	33.7467
24.842	33.417
24.86	33.0783
24.878	32.7406
24.896	32.3996
24.914	32.0567
24.932	31.722
24.95	31.4
24.968	31.0845
24.986	30.7833
25.004	30.5048
25.022	30.246
25.04	30.007
25.058	29.7924
25.076	29.6051
25.094	29.443
25.112	29.3045
25.13	29.1883
25.148	29.0964
25.166	29.0266
25.184	28.9747
25.202	28.939
25.22	28.9223
25.238	28.9202
25.256	28.9285
25.274	28.95
25.292	28.9832
25.31	29.0228
25.328	29.066
25.346	29.1167
25.364	29.1703
25.382	29.2213
25.4	29.2696
25.418	29.3168
25.436	29.3618
25.454	29.403
25.472	29.4396
25.49	29.4744
25.508	29.5104
25.526	29.5483
25.544	29.5865
25.562	29.6268
25.58	29.6705
25.598	29.7175
25.616	29.7673
25.634	29.8195
25.652	29.8742
25.67	29.9322
25.688	29.9917
25.706	30.0506
25.724	30.1093
25.742	30.1685
25.76	30.2254
25.778	30.2774
25.796	30.3253
25.814	30.3696
25.832	30.4095
25.85	30.4442
25.868	30.4733
25.886	30.4987
25.904	30.522
25.922	30.5429
25.94	30.56
25.958	30.5775
25.976	30.5995
25.994	30.623
26.012	30.6488
26.03	30.6823
26.048	30.7283
26.066	30.7827
26.084	30.8473
26.102	30.9267
26.12	31.0237
26.138	31.135
26.156	31.2625
26.174	31.4085
26.192	31.574
26.21	31.7572
26.228	31.9593
26.246	32.1814
26.264	32.4245
26.282	32.6877
26.3	32.9691
26.318	33.267
26.336	33.5859
26.354	33.9231
26.372	34.2702
26.39	34.6197
26.408	34.9779
26.426	35.3425
26.444	35.7054
26.462	36.0603
26.48	36.4143
26.498	36.7635
26.516	37.0999
26.534	37.417
26.552	37.719
26.57	38.0066
26.588	38.2794
26.606	38.5359
26.624	38.774
26.642	38.9989
26.66	39.2165
26.678	39.4277
26.696	39.6236
26.714	39.8173
26.732	40.0237
26.75	40.2476
26.768	40.4737
26.786	40.7192
26.804	41.0035
26.822	41.3334
26.84	41.6909
26.858	42.0936
26.876	42.5615
26.894	43.1043
26.912	43.7062
26.93	44.3759
26.948	45.1241
26.966	46.0158
26.984	47.1304
27.002	48.2484
27.02	49.133
27.028	49.364