File: Bakgrunnsmateriale/MATLAB/FTIR/ftir_data/subBb/Mapping_121/C-4040-8_t40_cm-1.asc
PE IR       SPECTRUM    SPECTRUM    ASCII       PEDS        1.60
  -1
C-9B61~1.ASC
17/03/27
17:43:54.00
17/03/27
17:43:54.00
tln
$C-4040-8_t0040$<tbV0>[-2.6,-5.2,8.0,0.0,27,1,0]
370
64

2002,4.07
MIRTGS : RIGHTBACK : INTERNAL 2
MIR : ON : INTERNAL 2
OPTKBR

0.200000
8
8.000000
FILLER
RATIO
SPECTRUM
UNLOCKED 256

DOUBLE
64
COMBINED
1
0
0

1.000000
RATIO

1
0
TRUE
51149
0
LEFT NOT FITTED RIGHT NOT FITTED 0
NONE
NONE
15600
12
4.427000
51148
TRUE
1 0 8 72 0 0 0 0

15798

#HDR
-1
-1
#GR
CM-1
%T
2.38419e-05
0.0
5000
-1.000000
4631
8
67.031
0.731563
#DATA
5000	63.4793
4996	63.2842
4992	63.2632
4988	63.5109
4984	63.4781
4980	63.2245
4976	63.1478
4972	63.2371
4968	63.3488
4964	63.2221
4960	63.2794
4956	63.6365
4952	63.7884
4948	63.7552
4944	63.6256
4940	63.4032
4936	63.2123
4932	63.1731
4928	63.279
4924	63.3778
4920	63.5003
4916	63.5622
4912	63.4228
4908	63.4083
4904	63.6137
4900	63.8976
4896	64.0587
4892	63.8226
4888	63.4654
4884	63.4406
4880	63.7698
4876	63.8969
4872	63.4205
4868	63.2311
4864	63.6916
4860	63.939
4856	63.9723
4852	64.1736
4848	64.4468
4844	64.3191
4840	63.6317
4836	63.0409
4832	63.0124
4828	63.406
4824	63.7797
4820	63.9075
4816	63.8692
4812	63.7319
4808	63.5578
4804	63.4448
4800	63.5148
4796	63.7383
4792	63.842
4788	63.8185
4784	63.8335
4780	63.6521
4776	63.3587
4772	63.2857
4768	63.4099
4764	63.6553
4760	63.8661
4756	63.9109
4752	63.8752
4748	63.789
4744	63.6772
4740	63.6699
4736	63.6588
4732	63.5917
4728	63.6281
4724	63.7422
4720	63.7964
4716	63.6937
4712	63.6021
4708	63.7649
4704	63.8647
4700	63.6822
4696	63.5825
4692	63.5499
4688	63.485
4684	63.5028
4680	63.4906
4676	63.4352
4672	63.4528
4668	63.6342
4664	63.8934
4660	63.9804
4656	63.9322
4652	63.6488
4648	63.1832
4644	63.0106
4640	63.2184
4636	63.5767
4632	63.6269
4628	63.3045
4624	63.1388
4620	63.4478
4616	63.7312
4612	63.6578
4608	63.6183
4604	63.6681
4600	63.6564
4596	63.5823
4592	63.5282
4588	63.4259
4584	63.2522
4580	63.2093
4576	63.3148
4572	63.3162
4568	63.203
4564	63.2457
4560	63.3423
4556	63.4224
4552	63.4619
4548	63.3988
4544	63.3129
4540	63.1728
4536	63.2319
4532	63.4898
4528	63.5284
4524	63.4115
4520	63.4692
4516	63.5833
4512	63.4908
4508	63.397
4504	63.4838
4500	63.3864
4496	63.126
4492	63.191
4488	63.3845
4484	63.3626
4480	63.343
4476	63.3065
4472	62.9317
4468	62.7486
4464	63.1549
4460	63.5171
4456	63.5606
4452	63.4769
4448	63.4284
4444	63.4574
4440	63.5524
4436	63.6164
4432	63.575
4428	63.481
4424	63.2508
4420	63.0708
4416	62.9269
4412	62.6535
4408	62.6905
4404	63.3518
4400	63.6991
4396	63.6753
4392	63.666
4388	64.5511
4384	64.4012
4380	63.0188
4376	65.2874
4372	67.031
4368	65.8359
4364	66.4499
4360	63.2701
4356	55.0588
4352	55.5014
4348	62.419
4344	64.7534
4340	65.1124
4336	65.0345
4332	64.2653
4328	64.1658
4324	64.466
4320	64.5672
4316	64.068
4312	63.4342
4308	63.1917
4304	63.1858
4300	63.3075
4296	63.2663
4292	63.154
4288	63.2552
4284	63.0988
4280	62.956
4276	63.246
4272	63.3973
4268	63.2593
4264	63.1612
4260	63.1089
4256	63.1391
4252	63.169
4248	63.0074
4244	62.8409
4240	62.9223
4236	63.1281
4232	63.245
4228	63.2656
4224	63.2433
4220	63.1765
4216	63.0177
4212	62.8468
4208	62.7494
4204	62.672
4200	62.6849
4196	62.7758
4192	62.7731
4188	62.7687
4184	62.9424
4180	63.1437
4176	63.1708
4172	62.8996
4168	62.6122
4164	62.8027
4160	63.0297
4156	62.9322
4152	62.8679
4148	62.8998
4144	62.9894
4140	63.1133
4136	63.0249
4132	62.7874
4128	62.6614
4124	62.6173
4120	62.5514
4116	62.533
4112	62.594
4108	62.5971
4104	62.5392
4100	62.506
4096	62.5585
4092	62.6407
4088	62.6063
4084	62.554
4080	62.5566
4076	62.5637
4072	62.5927
4068	62.6374
4064	62.5889
4060	62.4338
4056	62.326
4052	62.3595
4048	62.507
4044	62.5731
4040	62.4703
4036	62.3798
4032	62.403
4028	62.4425
4024	62.4703
4020	62.5018
4016	62.5243
4012	62.5183
4008	62.3593
4004	62.2006
4000	62.3048
3996	62.4651
3992	62.5497
3988	62.625
3984	62.5523
3980	62.4125
3976	62.4152
3972	62.4791
3968	62.503
3964	62.4671
3960	62.3131
3956	62.1154
3952	62.0342
3948	62.0713
3944	62.2185
3940	62.3232
3936	62.2148
3932	62.1183
3928	62.1959
3924	62.2928
3920	62.2021
3916	61.9599
3912	61.9063
3908	62.108
3904	62.2506
3900	62.2366
3896	62.1886
3892	62.1503
3888	62.1651
3884	62.2537
3880	62.3763
3876	62.4068
3872	62.2731
3868	62.1499
3864	62.1629
3860	62.2231
3856	62.1068
3852	61.8417
3848	61.7041
3844	61.7049
3840	61.7925
3836	61.9133
3832	61.9419
3828	62.0499
3824	62.252
3820	62.244
3816	62.122
3812	62.0619
3808	62.0129
3804	61.9547
3800	61.9019
3796	61.9005
3792	61.9373
3788	61.8769
3784	61.7387
3780	61.7269
3776	61.8635
3772	61.9687
3768	61.9755
3764	61.999
3760	62.0243
3756	61.9845
3752	61.8858
3748	61.7272
3744	61.6835
3740	61.7835
3736	61.7249
3732	61.5546
3728	61.5575
3724	61.6427
3720	61.5799
3716	61.4821
3712	61.5004
3708	61.5514
3704	61.5946
3700	61.5596
3696	61.4607
3692	61.4812
3688	61.6054
3684	61.6343
3680	61.5636
3676	61.4996
3672	61.4362
3668	61.3738
3664	61.2784
3660	61.2038
3656	61.1979
3652	61.2606
3648	61.4035
3644	61.4296
3640	61.3063
3636	61.2239
3632	61.2332
3628	61.2573
3624	61.2529
3620	61.2373
3616	61.2174
3612	61.1978
3608	61.198
3604	61.1789
3600	61.114
3596	61.1314
3592	61.211
3588	61.1519
3584	60.9743
3580	60.9011
3576	60.991
3572	61.044
3568	60.9969
3564	60.9615
3560	60.8911
3556	60.8419
3552	60.93
3548	61.0103
3544	60.9644
3540	60.8272
3536	60.7511
3532	60.818
3528	60.8517
3524	60.7331
3520	60.6583
3516	60.7179
3512	60.7379
3508	60.7093
3504	60.7131
3500	60.7997
3496	60.8619
3492	60.7897
3488	60.6589
3484	60.5336
3480	60.4136
3476	60.4108
3472	60.5909
3468	60.7182
3464	60.6247
3460	60.4623
3456	60.4632
3452	60.5327
3448	60.5067
3444	60.4889
3440	60.4921
3436	60.4488
3432	60.4072
3428	60.3494
3424	60.2749
3420	60.2831
3416	60.3209
3412	60.2866
3408	60.2163
3404	60.2269
3400	60.2468
3396	60.1449
3392	59.9703
3388	59.8443
3384	59.8683
3380	59.974
3376	60.0478
3372	59.9688
3368	59.7987
3364	59.7548
3360	59.7961
3356	59.8825
3352	59.9758
3348	59.9953
3344	59.9893
3340	59.9667
3336	59.9173
3332	59.8542
3328	59.8596
3324	59.932
3320	59.9032
3316	59.8169
3312	59.7609
3308	59.7244
3304	59.6912
3300	59.6417
3296	59.5183
3292	59.37
3288	59.3606
3284	59.3866
3280	59.389
3276	59.4823
3272	59.5488
3268	59.4985
3264	59.4913
3260	59.6047
3256	59.6891
3252	59.5923
3248	59.3743
3244	59.2396
3240	59.2529
3236	59.3133
3232	59.2938
3228	59.1823
3224	59.0821
3220	59.0286
3216	58.9621
3212	58.9441
3208	59.0105
3204	59.0004
3200	59.0005
3196	59.0272
3192	58.9371
3188	58.9266
3184	58.974
3180	58.9283
3176	58.8714
3172	58.7855
3168	58.7621
3164	58.8712
3160	58.9515
3156	58.9232
3152	58.8253
3148	58.7121
3144	58.6766
3140	58.767
3136	58.8648
3132	58.8669
3128	58.7647
3124	58.655
3120	58.6555
3116	58.6769
3112	58.6137
3108	58.4298
3104	58.277
3100	58.3644
3096	58.4788
3092	58.4209
3088	58.3366
3084	58.299
3080	58.3129
3076	58.3839
3072	58.4098
3068	58.3012
3064	58.1901
3060	58.1865
3056	58.1672
3052	58.0939
3048	58.0123
3044	57.9677
3040	57.9959
3036	58.0063
3032	57.9707
3028	57.9674
3024	57.9615
3020	57.9123
3016	57.8916
3012	57.8969
3008	57.826
3004	57.7048
3000	57.6708
2996	57.7285
2992	57.7491
2988	57.7283
2984	57.7297
2980	57.7099
2976	57.663
2972	57.6375
2968	57.6003
2964	57.5174
2960	57.4143
2956	57.328
2952	57.2919
2948	57.2642
2944	57.1867
2940	57.0709
2936	56.986
2932	56.9463
2928	56.9502
2924	56.9602
2920	56.8688
2916	56.7475
2912	56.7524
2908	56.873
2904	56.9128
2900	56.8695
2896	56.8909
2892	56.893
2888	56.8367
2884	56.7411
2880	56.5751
2876	56.51
2872	56.5889
2868	56.6542
2864	56.6196
2860	56.4556
2856	56.356
2852	56.428
2848	56.5389
2844	56.6204
2840	56.6259
2836	56.5348
2832	56.4407
2828	56.4067
2824	56.414
2820	56.4402
2816	56.3751
2812	56.2795
2808	56.2739
2804	56.2374
2800	56.174
2796	56.1582
2792	56.1698
2788	56.165
2784	56.1083
2780	56.0403
2776	55.9685
2772	55.8954
2768	55.8867
2764	55.8852
2760	55.8413
2756	55.8159
2752	55.8011
2748	55.7683
2744	55.759
2740	55.7385
2736	55.6427
2732	55.5356
2728	55.4888
2724	55.4618
2720	55.4211
2716	55.3832
2712	55.36
2708	55.3517
2704	55.3398
2700	55.3546
2696	55.3759
2692	55.3038
2688	55.1762
2684	55.1098
2680	55.0788
2676	55.0394
2672	55.0463
2668	55.0297
2664	54.9763
2660	54.9525
2656	54.9146
2652	54.8619
2648	54.792
2644	54.7565
2640	54.771
2636	54.7576
2632	54.7184
2628	54.6367
2624	54.5243
2620	54.4526
2616	54.4011
2612	54.3421
2608	54.3252
2604	54.3756
2600	54.4416
2596	54.4623
2592	54.4171
2588	54.3261
2584	54.2388
2580	54.1885
2576	54.1901
2572	54.1811
2568	54.0975
2564	54.0313
2560	54.0319
2556	54.0845
2552	54.1105
2548	54.0738
2544	54.0173
2540	53.9436
2536	53.9001
2532	53.8829
2528	53.843
2524	53.8312
2520	53.7694
2516	53.6415
2512	53.5848
2508	53.5273
2504	53.431
2500	53.3681
2496	53.3314
2492	53.3537
2488	53.4451
2484	53.4416
2480	53.3407
2476	53.2723
2472	53.1958
2468	53.1713
2464	53.1845
2460	53.1037
2456	52.9973
2452	52.9261
2448	52.8938
2444	52.8941
2440	52.8144
2436	52.6628
2432	52.6161
2428	52.6749
2424	52.6847
2420	52.6887
2416	52.6818
2412	52.5797
2408	52.5301
2404	52.4894
2400	52.3704
2396	52.3085
2392	52.3159
2388	52.3041
2384	52.2905
2380	52.2834
2376	52.206
2372	52.1233
2368	52.1331
2364	52.128
2360	52.0355
2356	51.9619
2352	51.951
2348	51.9399
2344	51.8791
2340	51.8279
2336	51.8179
2332	51.7746
2328	51.7074
2324	51.6653
2320	51.6336
2316	51.5656
2312	51.4909
2308	51.4791
2304	51.477
2300	51.4397
2296	51.4287
2292	51.4284
2288	51.3882
2284	51.3241
2280	51.2506
2276	51.1786
2272	51.0705
2268	50.9761
2264	50.9894
2260	51.0027
2256	50.9536
2252	50.8958
2248	50.8001
2244	50.7231
2240	50.7312
2236	50.7303
2232	50.6908
2228	50.6133
2224	50.5207
2220	50.5165
2216	50.5323
2212	50.4691
2208	50.4079
2204	50.3854
2200	50.3706
2196	50.3966
2192	50.4005
2188	50.3119
2184	50.2215
2180	50.1663
2176	50.1119
2172	50.0712
2168	50.0338
2164	49.9807
2160	49.9241
2156	49.8344
2152	49.773
2148	49.7724
2144	49.7552
2140	49.7446
2136	49.731
2132	49.6951
2128	49.617
2124	49.4941
2120	49.3938
2116	49.322
2112	49.2613
2108	49.2229
2104	49.2227
2100	49.2172
2096	49.2222
2092	49.2328
2088	49.2243
2084	49.2727
2080	49.2036
2076	49.0269
2072	48.9969
2068	49.0028
2064	48.9095
2060	48.7906
2056	48.708
2052	48.6414
2048	48.5674
2044	48.5281
2040	48.4844
2036	48.4192
2032	48.3889
2028	48.3528
2024	48.3457
2020	48.3277
2016	48.2742
2012	48.2891
2008	48.3015
2004	48.2596
2000	48.2214
1996	48.1686
1992	48.0524
1988	47.9735
1984	47.9772
1980	47.9346
1976	47.823
1972	47.7311
1968	47.6513
1964	47.5762
1960	47.5813
1956	47.5878
1952	47.5128
1948	47.4165
1944	47.3365
1940	47.2956
1936	47.2889
1932	47.2747
1928	47.2419
1924	47.1835
1920	47.1274
1916	47.1405
1912	47.14
1908	47.0422
1904	46.9383
1900	46.8747
1896	46.8394
1892	46.7995
1888	46.7278
1884	46.6914
1880	46.6784
1876	46.6059
1872	46.5245
1868	46.4932
1864	46.4782
1860	46.4311
1856	46.3149
1852	46.2182
1848	46.2011
1844	46.2389
1840	46.2798
1836	46.212
1832	46.0963
1828	46.0516
1824	46.0514
1820	46.01
1816	45.9247
1812	45.8708
1808	45.8275
1804	45.7461
1800	45.6492
1796	45.6328
1792	45.7132
1788	45.7458
1784	45.6698
1780	45.5563
1776	45.4445
1772	45.3419
1768	45.2685
1764	45.2547
1760	45.2833
1756	45.2683
1752	45.2104
1748	45.1446
1744	45.0436
1740	44.9049
1736	44.8107
1732	44.7678
1728	44.7181
1724	44.7006
1720	44.6903
1716	44.6513
1712	44.6521
1708	44.6885
1704	44.6406
1700	44.5372
1696	44.4697
1692	44.406
1688	44.3744
1684	44.3494
1680	44.2964
1676	44.2615
1672	44.1979
1668	44.1369
1664	44.1258
1660	44.0959
1656	44.0098
1652	43.9301
1648	43.9224
1644	43.9055
1640	43.806
1636	43.725
1632	43.7343
1628	43.7059
1624	43.591
1620	43.4876
1616	43.4222
1612	43.3813
1608	43.3218
1604	43.2164
1600	43.151
1596	43.1743
1592	43.2083
1588	43.2121
1584	43.1654
1580	43.0414
1576	42.9461
1572	42.9697
1568	42.9497
1564	42.8245
1560	42.7473
1556	42.6985
1552	42.6056
1548	42.5575
1544	42.554
1540	42.4656
1536	42.3615
1532	42.3435
1528	42.3574
1524	42.3316
1520	42.2501
1516	42.1679
1512	42.1379
1508	42.1439
1504	42.1264
1500	42.0618
1496	41.993
1492	41.9626
1488	41.9523
1484	41.9083
1480	41.8115
1476	41.7168
1472	41.6211
1468	41.5007
1464	41.4515
1460	41.5386
1456	41.6226
1452	41.5481
1448	41.4237
1444	41.3017
1440	41.1656
1436	41.1628
1432	41.1837
1428	41.0913
1424	41.0665
1420	41.1103
1416	41.0866
1412	41.0257
1408	40.9544
1404	40.8498
1400	40.7257
1396	40.6141
1392	40.5672
1388	40.6346
1384	40.6893
1380	40.6059
1376	40.5059
1372	40.4268
1368	40.3002
1364	40.2034
1360	40.2118
1356	40.2392
1352	40.1715
1348	40.0364
1344	39.9156
1340	39.8857
1336	39.9497
1332	39.9737
1328	39.9165
1324	39.831
1320	39.749
1316	39.7255
1312	39.7594
1308	39.7418
1304	39.6643
1300	39.6378
1296	39.638
1292	39.5697
1288	39.4411
1284	39.3411
1280	39.309
1276	39.2653
1272	39.1975
1268	39.2383
1264	39.3079
1260	39.2394
1256	39.1239
1252	39.0485
1248	38.9822
1244	38.9231
1240	38.86
1236	38.7625
1232	38.7171
1228	38.6894
1224	38.5614
1220	38.4885
1216	38.5091
1212	38.4866
1208	38.4147
1204	38.3423
1200	38.3439
1196	38.4169
1192	38.3987
1188	38.1865
1184	37.9879
1180	37.9885
1176	38.0766
1172	38.0821
1168	37.8882
1164	37.6374
1160	37.5158
1156	37.4306
1152	37.4243
1148	37.5169
1144	37.4722
1140	37.2852
1136	37.1486
1132	37.1651
1128	37.2473
1124	37.2257
1120	37.255
1116	37.3981
1112	37.3225
1108	37.0525
1104	37.0244
1100	37.144
1096	37.1054
1092	37.1161
1088	37.2269
1084	37.1831
1080	36.9225
1076	36.5846
1072	36.3312
1068	36.2351
1064	36.2227
1060	36.2343
1056	36.3096
1052	36.3862
1048	36.3447
1044	36.2463
1040	36.1634
1036	36.0894
1032	36.029
1028	35.9889
1024	36.0219
1020	36.0471
1016	35.9405
1012	35.7447
1008	35.5256
1004	35.3706
1000	35.3686
996	 35.408
992	 35.448
988	 35.5266
984	 35.4968
980	 35.3607
976	 35.2529
972	 35.166
968	 35.0687
964	 34.9971
960	 34.9835
956	 35.036
952	 35.0491
948	 34.9261
944	 34.7828
940	 34.661
936	 34.5928
932	 34.6179
928	 34.5788
924	 34.4598
920	 34.406
916	 34.3987
912	 34.3358
908	 34.2898
904	 34.3327
900	 34.319
896	 34.2411
892	 34.101
888	 33.8875
884	 33.7681
880	 33.7703
876	 33.8051
872	 33.7117
868	 33.5226
864	 33.4348
860	 33.4052
856	 33.3577
852	 33.2913
848	 33.1953
844	 33.1198
840	 33.0826
836	 33.05
832	 32.9523
828	 32.7115
824	 32.5781
820	 32.7487
816	 32.8883
812	 32.8062
808	 32.6708
804	 32.5002
800	 32.2548
796	 32.1047
792	 32.0271
788	 31.9822
784	 32.0663
780	 32.0998
776	 31.9656
772	 31.7551
768	 31.6063
764	 31.5963
760	 31.5994
756	 31.5186
752	 31.3667
748	 31.2028
744	 31.137
740	 31.2502
736	 31.3138
732	 31.1364
728	 30.9112
724	 30.8364
720	 30.8792
716	 30.8021
712	 30.5372
708	 30.2615
704	 30.0021
700	 29.7863
696	 29.7847
692	 29.7788
688	 29.6299
684	 29.6361
680	 29.6569
676	 29.3773
672	 29.0673
668	 29.0659
664	 29.0978
660	 28.9402
656	 28.7328
652	 28.6074
648	 28.5492
644	 28.4023
640	 28.3063
636	 28.3926
632	 28.3758
628	 28.3344
624	 28.3314
620	 28.1265
616	 27.9358
612	 27.8943
608	 27.8076
604	 27.6885
600	 27.5283
596	 27.2408
592	 26.9693
588	 26.7551
584	 26.6026
580	 26.569
576	 26.6746
572	 26.6606
568	 26.3217
564	 26.003
560	 25.819
556	 25.7297
552	 25.8784
548	 25.9837
544	 25.6277
540	 25.152
536	 24.9009
532	 24.7071
528	 24.6731
524	 24.8657
520	 25.1349
516	 25.1094
512	 24.6527
508	 24.1786
504	 23.7442
500	 23.2747
496	 22.9178
492	 22.7557
488	 22.8188
484	 23.1053
480	 23.1065
476	 22.5799
472	 22.1741
468	 22.2406
464	 22.4875
460	 22.3701
456	 21.4315
452	 20.1959
448	 19.6256
444	 19.3362
440	 19.6041
436	 20.9805
432	 21.8845
428	 21.0341
424	 19.3537
420	 17.8296
416	 16.3089
412	 14.7253
408	 14.5714
404	 17.8715
400	 23.4709
396	 30.1859
392	 29.8716
388	 11.1903
384	 0.965285
380	 17.9408
376	 42.3441
372	 39.7729
370	 33.5709