File: Bakgrunnsmateriale/MATLAB/FTIR/ftir_data/subBb/Mapping_121/C-4040-8_t117.asc
PE IR       SPECTRUM    SPECTRUM    ASCII       PEDS        1.60
  -1
C-88D8~1.ASC
17/03/28
00:21:56.00
17/03/28
00:22:22.00
tln
$C-4040-8_t0117$<tbV0>[-2.6,13.0,8.0,0.0,27,1,0]
27.028
64

2002,4.07
MIRTGS : RIGHTBACK : INTERNAL 2
MIR : ON : INTERNAL 2
OPTKBR

0.200000
8
8.000000
FILLER
RATIO
SPECTRUM
UNLOCKED 256

DOUBLE
64
COMBINED
1
0
0

0.002000
RATIO

1
0
TRUE
51149
0
LEFT NOT FITTED RIGHT NOT FITTED 0
NONE
NONE
15600
12
4.427000
51148
TRUE
1 0 8 72 0 0 0 0

15798

#HDR
-1
-1
#GR
µM
%T
2.38419e-05
0.0
2.000000
0.002000
12515
8
89.8925
22.7808
#DATA
2.000000	 64.5975
2.018000	 64.3527
2.036000	 65.0808
2.054000	 64.2664
2.072000	 64.4168
2.090000	 65.2654
2.108000	 65.044
2.126000	 65.1708
2.144000	 65.088
2.162000	 64.6544
2.180000	 65.0679
2.198000	 64.9315
2.216000	 64.8965
2.234000	 65.095
2.252000	 65.9122
2.270000	 64.47
2.288000	 66.7033
2.306000	 64.3939
2.324000	 64.908
2.342000	 64.9501
2.360000	 64.8676
2.378000	 64.8074
2.396000	 65.6662
2.414000	 64.7295
2.432000	 64.8003
2.450000	 65.1883
2.468000	 65.2301
2.486000	 65.143
2.504000	 65.231
2.522000	 65.1596
2.540000	 64.8287
2.558000	 65.1789
2.576000	 65.1615
2.594000	 65.3189
2.612000	 64.8175
2.630000	 65.1531
2.648000	 65.2746
2.666000	 65.2592
2.684000	 65.1557
2.702000	 65.0429
2.720000	 65.0583
2.738000	 65.1481
2.756000	 65.3008
2.774000	 65.4374
2.792000	 65.0456
2.810000	 65.157
2.828000	 65.2701
2.846000	 65.197
2.864000	 64.9974
2.882000	 65.53
2.900000	 65.1025
2.918000	 65.096
2.936000	 65.2469
2.954000	 65.2955
2.972000	 65.0525
2.990000	 65.0383
3.008000	 65.1263
3.026000	 65.2507
3.044000	 65.3439
3.062000	 65.1155
3.080000	 65.257
3.098000	 65.1238
3.116000	 65.1953
3.134000	 65.1264
3.152000	 65.0274
3.170000	 65.1392
3.188000	 65.0561
3.206000	 64.9727
3.224000	 65.4045
3.242000	 65.3357
3.260000	 65.291
3.278000	 65.1589
3.296000	 65.2882
3.314000	 65.0829
3.332000	 65.339
3.350000	 65.1743
3.368000	 65.148
3.386000	 65.1476
3.404000	 64.8907
3.422000	 64.7271
3.440000	 64.9995
3.458000	 65.1554
3.476000	 65.1313
3.494000	 64.8083
3.512000	 65.1237
3.530000	 65.0495
3.548000	 65.2092
3.566000	 65.2125
3.584000	 65.0831
3.602000	 65.1343
3.620000	 65.2561
3.638000	 65.0927
3.656000	 65.2225
3.674000	 65.2176
3.692000	 65.2744
3.710000	 65.2524
3.728000	 65.2234
3.746000	 65.1331
3.764000	 65.0996
3.782000	 65.2561
3.800000	 65.0515
3.818000	 65.0864
3.836000	 65.116
3.854000	 65.2534
3.872000	 65.074
3.890000	 65.1716
3.908000	 65.2004
3.926000	 65.2962
3.944000	 65.3562
3.962000	 65.3849
3.980000	 65.3599
3.998000	 65.3024
4.016000	 65.1308
4.034000	 65.2628
4.052000	 65.2529
4.070000	 65.1098
4.088000	 65.2719
4.106000	 65.1708
4.124000	 64.9941
4.141999	 65.699
4.160000	 65.2648
4.178000	 65.3272
4.196000	 65.3286
4.214000	 65.1885
4.232000	 65.2501
4.250000	 65.2546
4.268000	 65.3312
4.286000	 65.398
4.304000	 65.2838
4.322000	 65.2178
4.340000	 65.3392
4.358000	 65.316
4.375999	 65.3265
4.394000	 65.2407
4.412000	 65.4175
4.430000	 65.2855
4.448000	 65.3563
4.466000	 65.1927
4.484000	 65.3183
4.502000	 65.3006
4.520000	 65.3447
4.538000	 65.4104
4.556000	 65.3119
4.574000	 65.2739
4.592000	 65.191
4.609999	 65.3833
4.628000	 65.3351
4.646000	 65.1514
4.664000	 65.3164
4.682000	 65.1842
4.700000	 65.3034
4.718000	 65.2949
4.736000	 65.3125
4.754000	 65.2734
4.772000	 65.2941
4.790000	 65.0634
4.808000	 64.8979
4.826000	 65.4457
4.843999	 66.2408
4.862000	 65.2436
4.880000	 65.1111
4.898000	 65.2084
4.916000	 65.2586
4.934000	 65.2468
4.952000	 65.269
4.970000	 65.3227
4.988000	 65.2333
5.006000	 65.0267
5.024000	 65.1597
5.042000	 65.2906
5.060000	 65.2797
5.077999	 65.2402
5.096000	 65.2735
5.114000	 65.3147
5.132000	 65.3018
5.150000	 65.2052
5.168000	 65.0989
5.186000	 65.1572
5.204000	 65.2028
5.222000	 65.2582
5.240000	 65.3199
5.258000	 65.2335
5.276000	 65.1652
5.294000	 65.2583
5.312000	 65.1994
5.330000	 65.178
5.348000	 65.1409
5.366000	 65.1284
5.384000	 65.2142
5.402000	 65.2084
5.420000	 65.1916
5.438000	 65.1534
5.456000	 65.1563
5.474000	 65.2221
5.492000	 65.21
5.510000	 65.0707
5.528000	 65.1202
5.546000	 65.2054
5.564000	 65.2925
5.582000	 65.1557
5.600000	 65.1876
5.618000	 65.2571
5.636000	 65.132
5.654000	 65.1778
5.672000	 65.1152
5.690000	 65.0344
5.708000	 65.0743
5.726000	 65.0824
5.744000	 64.9344
5.762000	 64.7941
5.780000	 64.9034
5.798000	 65.1491
5.816000	 65.0243
5.834000	 64.9506
5.852000	 64.9876
5.870000	 64.951
5.888000	 65.146
5.906000	 65.2213
5.923999	 65.0685
5.942000	 65.0512
5.960000	 65.1441
5.978000	 65.231
5.996000	 65.2122
6.014000	 65.1223
6.032000	 65.1059
6.050000	 65.0871
6.068000	 65.0754
6.086000	 65.0253
6.104000	 64.9867
6.122000	 65.007
6.140000	 64.9647
6.158000	 64.9534
6.176000	 64.9798
6.194000	 64.9163
6.212000	 64.9484
6.230000	 65.0128
6.248000	 65.0892
6.266000	 65.1412
6.284000	 65.0157
6.302000	 64.9397
6.320000	 64.9815
6.338000	 64.9906
6.356000	 64.9624
6.374000	 64.9623
6.392000	 64.9225
6.410000	 64.9178
6.428000	 64.9715
6.446000	 65.0166
6.464000	 65.001
6.482000	 64.8863
6.500000	 64.8913
6.518000	 65.0844
6.536000	 65.2261
6.554000	 65.1871
6.572000	 65.0953
6.590000	 65.0381
6.608000	 65.0449
6.626000	 65.1417
6.644000	 65.2388
6.662000	 65.2604
6.680000	 65.1689
6.698000	 65.1185
6.716000	 65.202
6.734000	 65.1858
6.752000	 65.0993
6.770000	 65.0656
6.788000	 65.0663
6.806000	 65.0911
6.824000	 65.0406
6.842000	 64.9982
6.860000	 65.0858
6.878000	 65.1176
6.896000	 65.0346
6.914000	 64.9474
6.932000	 64.9325
6.950000	 65.0494
6.968000	 65.2425
6.986000	 65.3241
7.004000	 65.1536
7.022000	 64.8941
7.040000	 64.7742
7.058000	 64.7833
7.076000	 64.8567
7.094000	 64.9392
7.112000	 64.9642
7.130000	 64.9555
7.148000	 64.9449
7.166000	 64.9315
7.184000	 64.9492
7.202000	 64.9751
7.220000	 64.9409
7.238000	 64.8817
7.256000	 64.8591
7.274000	 64.8515
7.292000	 64.8605
7.310000	 64.9264
7.328000	 65.0036
7.346000	 65.0099
7.364000	 64.9643
7.382000	 64.9375
7.400000	 64.9295
7.418000	 64.907
7.436000	 64.8957
7.454000	 64.9329
7.472000	 64.9827
7.490000	 65.0086
7.508000	 65.0395
7.526000	 65.06
7.544000	 65.023
7.562000	 64.9899
7.580000	 65.0231
7.598000	 65.0551
7.616000	 65.0383
7.634000	 65.0071
7.652000	 64.9599
7.670000	 64.8885
7.688000	 64.8454
7.706000	 64.8506
7.724000	 64.861
7.742000	 64.8619
7.760000	 64.8744
7.778000	 64.894
7.796000	 64.9005
7.814000	 64.8915
7.832000	 64.8675
7.850000	 64.8343
7.868000	 64.812
7.886000	 64.7952
7.904000	 64.7648
7.922000	 64.7447
7.940000	 64.7698
7.958000	 64.816
7.976000	 64.8385
7.994000	 64.8325
8.012000	 64.8136
8.030000	 64.8008
8.048000	 64.8084
8.065999	 64.8239
8.084000	 64.8216
8.102000	 64.8033
8.120000	 64.801
8.138000	 64.8404
8.155999	 64.9184
8.173999	 64.9891
8.192000	 64.99
8.210000	 64.9091
8.228000	 64.8015
8.246000	 64.7279
8.263999	 64.7043
8.282000	 64.7149
8.300000	 64.7407
8.318000	 64.7661
8.336000	 64.7862
8.353999	 64.8012
8.372000	 64.8056
8.390000	 64.7973
8.408000	 64.7912
8.426000	 64.8005
8.443999	 64.8152
8.462000	 64.813
8.480000	 64.7903
8.498000	 64.7626
8.516000	 64.7459
8.533999	 64.7519
8.552000	 64.7841
8.570000	 64.8261
8.588000	 64.8415
8.606000	 64.8039
8.624000	 64.7281
8.641999	 64.6542
8.660000	 64.6084
8.678000	 64.5871
8.696000	 64.5805
8.714000	 64.5937
8.731999	 64.6334
8.750000	 64.686
8.768000	 64.7291
8.786000	 64.7606
8.804000	 64.7917
8.821999	 64.8163
8.840000	 64.8053
8.858000	 64.7473
8.876000	 64.6721
8.894000	 64.6243
8.911999	 64.6194
8.930000	 64.642
8.948000	 64.6796
8.966000	 64.7413
8.984000	 64.8433
9.001999	 64.9872
9.020000	 65.16
9.038000	 65.3339
9.056000	 65.4612
9.074000	 65.4853
9.092000	 65.3804
9.109999	 65.1837
9.128000	 64.981
9.146000	 64.8473
9.164000	 64.8017
9.182000	 64.813
9.199999	 64.8341
9.218000	 64.832
9.236000	 64.8003
9.254000	 64.761
9.272000	 64.7453
9.289999	 64.766
9.308000	 64.8071
9.326000	 64.8376
9.344000	 64.8394
9.362000	 64.8129
9.379999	 64.7635
9.398000	 64.6931
9.416000	 64.6104
9.434000	 64.5438
9.452000	 64.5305
9.469999	 64.5939
9.488000	 64.7263
9.506000	 64.8828
9.524000	 64.9991
9.542000	 65.0213
9.560000	 64.9402
9.577999	 64.7957
9.596000	 64.6532
9.614000	 64.566
9.632000	 64.5485
9.650000	 64.5758
9.667999	 64.6009
9.686000	 64.5779
9.704000	 64.4805
9.722000	 64.3155
9.740000	 64.1251
9.757999	 63.9771
9.776000	 63.9369
9.794000	 64.0335
9.812000	 64.24
9.830000	 64.4883
9.847999	 64.7061
9.866000	 64.8462
9.884000	 64.8978
9.902000	 64.8789
9.920000	 64.822
9.937999	 64.7574
9.956000	 64.6973
9.974000	 64.6373
9.992000	 64.5703
10.01	64.5012
10.028	64.4527
10.046	64.4517
10.064	64.5055
10.082	64.5947
10.1	64.6824
10.118	64.7354
10.136	64.7419
10.154	64.708
10.172	64.6479
10.19	64.5761
10.208	64.501
10.226	64.4253
10.244	64.349
10.262	64.2728
10.28	64.2034
10.298	64.1564
10.316	64.1536
10.334	64.2083
10.352	64.3134
10.37	64.439
10.388	64.5453
10.406	64.6048
10.424	64.6146
10.442	64.5958
10.46	64.5748
10.478	64.5681
10.496	64.574
10.514	64.5785
10.532	64.5679
10.55	64.5364
10.568	64.487
10.586	64.428
10.604	64.3691
10.622	64.3211
10.64	64.2952
10.658	64.2998
10.676	64.3351
10.694	64.3899
10.712	64.4443
10.73	64.4815
10.748	64.4935
10.766	64.4877
10.784	64.4802
10.802	64.4863
10.82	64.5119
10.838	64.5518
10.856	64.5947
10.874	64.6283
10.892	64.6443
10.91	64.6391
10.928	64.6135
10.946	64.5743
10.964	64.5338
10.982	64.506
11	64.4975
11.018	64.5026
11.036	64.5028
11.054	64.4736
11.072	64.4004
11.09	64.2877
11.108	64.1595
11.126	64.0504
11.144	63.9856
11.162	63.9716
11.18	63.9949
11.198	64.0298
11.216	64.0529
11.234	64.0528
11.252	64.0307
11.27	63.997
11.288	63.9657
11.306	63.9486
11.324	63.9528
11.342	63.98
11.36	64.027
11.378	64.085
11.396	64.1421
11.414	64.1861
11.432	64.2107
11.45	64.2186
11.468	64.2198
11.486	64.2249
11.504	64.2395
11.522	64.2592
11.54	64.2704
11.558	64.2577
11.576	64.2109
11.594	64.1313
11.612	64.0321
11.63	63.9365
11.648	63.868
11.666	63.8434
11.684	63.8676
11.702	63.9331
11.72	64.0217
11.738	64.1108
11.756	64.1811
11.774	64.2203
11.792	64.2252
11.81	64.2022
11.828	64.1645
11.846	64.1288
11.864	64.1107
11.882	64.119
11.9	64.1541
11.918	64.2065
11.936	64.26
11.954	64.2956
11.972	64.2943
11.99	64.2425
12.008	64.1346
12.026	63.9736
12.044	63.771
12.062	63.5485
12.08	63.336
12.098	63.1671
12.116	63.0753
12.134	63.0845
12.152	63.2014
12.17	63.4138
12.188	63.691
12.206	63.9886
12.224	64.2618
12.242	64.4776
12.26	64.621
12.278	64.6969
12.296	64.7256
12.314	64.7333
12.332	64.7388
12.35	64.7469
12.368	64.7457
12.386	64.714
12.404	64.6307
12.422	64.4872
12.44	64.2942
12.458	64.0802
12.476	63.8856
12.494	63.7505
12.512	63.7009
12.53	63.7407
12.548	63.8506
12.566	63.9956
12.584	64.1342
12.602	64.2306
12.62	64.2634
12.638	64.2305
12.656	64.1467
12.674	64.0361
12.692	63.9245
12.71	63.8338
12.728	63.7771
12.746	63.7581
12.764	63.7706
12.782	63.8031
12.8	63.8419
12.818	63.8753
12.836	63.8946
12.854	63.8969
12.872	63.8837
12.89	63.8607
12.908	63.8349
12.926	63.8134
12.944	63.8007
12.962	63.7982
12.98	63.8032
12.998	63.8107
13.016	63.814
13.034	63.8068
13.052	63.7844
13.07	63.746
13.088	63.6952
13.106	63.6402
13.124	63.591
13.142	63.5582
13.16	63.5524
13.178	63.5812
13.196	63.648
13.214	63.7508
13.232	63.8826
13.25	64.0323
13.268	64.1864
13.286	64.3308
13.304	64.4523
13.322	64.5407
13.34	64.5894
13.358	64.5965
13.376	64.5641
13.394	64.4982
13.412	64.4074
13.43	64.3018
13.448	64.1923
13.466	64.0886
13.484	63.9985
13.502	63.9263
13.52	63.8724
13.538	63.8332
13.556	63.8021
13.574	63.7705
13.592	63.7299
13.61	63.6735
13.628	63.5983
13.646	63.5062
13.664	63.4043
13.682	63.3028
13.7	63.2141
13.718	63.1496
13.736	63.1174
13.754	63.1208
13.772	63.1571
13.79	63.2185
13.808	63.2937
13.826	63.3693
13.844	63.4327
13.862	63.4745
13.88	63.4897
13.898	63.4773
13.916	63.4408
13.934	63.387
13.952	63.3241
13.97	63.2609
13.988	63.2045
14.006	63.1602
14.024	63.1297
14.042	63.1129
14.06	63.1075
14.078	63.1094
14.096	63.114
14.114	63.117
14.132	63.1151
14.15	63.1067
14.168	63.0918
14.186	63.072
14.204	63.0504
14.222	63.0305
14.24	63.0154
14.258	63.0071
14.276	63.006
14.294	63.0111
14.312	63.02
14.33	63.0293
14.348	63.0354
14.366	63.0352
14.384	63.0272
14.402	63.0117
14.42	62.9907
14.438	62.967
14.456	62.944
14.474	62.9252
14.492	62.9134
14.51	62.9104
14.528	62.9159
14.546	62.9285
14.564	62.9461
14.582	62.9662
14.6	62.9865
14.618	63.005
14.636	63.0205
14.654	63.0323
14.672	63.0402
14.69	63.0443
14.708	63.045
14.726	63.0421
14.744	63.0355
14.762	63.025
14.78	63.0104
14.798	62.9921
14.816	62.9708
14.834	62.9471
14.852	62.9228
14.87	62.8985
14.888	62.8747
14.906	62.8513
14.924	62.827
14.942	62.8003
14.96	62.7691
14.978	62.7312
14.996	62.6855
15.014	62.6313
15.032	62.5698
15.05	62.5033
15.068	62.435
15.086	62.3684
15.104	62.3073
15.122	62.2556
15.14	62.2156
15.158	62.1884
15.176	62.1745
15.194	62.1732
15.212	62.1828
15.23	62.202
15.248	62.2296
15.266	62.2647
15.284	62.3068
15.302	62.3555
15.32	62.4099
15.338	62.4693
15.356	62.5316
15.374	62.5933
15.392	62.6507
15.41	62.6998
15.428	62.736
15.446	62.7556
15.464	62.7569
15.482	62.7393
15.5	62.704
15.518	62.6553
15.536	62.5986
15.554	62.5393
15.572	62.4843
15.59	62.4407
15.608	62.413
15.626	62.4044
15.644	62.417
15.662	62.45
15.68	62.5008
15.698	62.5663
15.716	62.6414
15.734	62.7203
15.752	62.7988
15.77	62.8723
15.788	62.9365
15.806	62.9888
15.824	63.0276
15.842	63.0518
15.86	63.0613
15.878	63.0573
15.896	63.0408
15.914	63.0139
15.932	62.9792
15.95	62.9386
15.968	62.8945
15.986	62.8493
16.004	62.8041
16.022	62.7601
16.04	62.7178
16.058	62.677
16.076	62.6374
16.094	62.5987
16.112	62.5604
16.13	62.5223
16.148	62.484
16.166	62.4461
16.184	62.4092
16.202	62.374
16.22	62.3422
16.238	62.3144
16.256	62.2913
16.274	62.2736
16.292	62.2612
16.31	62.2539
16.328	62.2507
16.346	62.2502
16.364	62.2512
16.382	62.2519
16.4	62.2509
16.418	62.2471
16.436	62.2395
16.454	62.2282
16.472	62.213
16.49	62.1945
16.508	62.1732
16.526	62.1496
16.544	62.1245
16.562	62.0985
16.58	62.072
16.598	62.0459
16.616	62.0206
16.634	61.9964
16.652	61.9745
16.67	61.9552
16.688	61.9389
16.706	61.9264
16.724	61.9177
16.742	61.9128
16.76	61.9112
16.778	61.9122
16.796	61.9147
16.814	61.9169
16.832	61.9178
16.85	61.915
16.868	61.9072
16.886	61.8932
16.904	61.8713
16.922	61.8409
16.94	61.8012
16.958	61.7524
16.976	61.6948
16.994	61.6291
17.012	61.5574
17.03	61.4807
17.048	61.4022
17.066	61.3237
17.084	61.248
17.102	61.1788
17.12	61.1177
17.138	61.0687
17.156	61.0334
17.174	61.0138
17.192	61.0119
17.21	61.0279
17.228	61.0626
17.246	61.1149
17.264	61.1842
17.282	61.2676
17.3	61.3633
17.318	61.4679
17.336	61.5772
17.354	61.6889
17.372	61.797
17.39	61.8998
17.408	61.9922
17.426	62.0718
17.444	62.1364
17.462	62.1836
17.48	62.213
17.498	62.2237
17.516	62.2169
17.534	62.1928
17.552	62.1544
17.57	62.1027
17.588	62.0417
17.606	61.9735
17.624	61.9015
17.642	61.8292
17.66	61.7583
17.678	61.6931
17.696	61.6343
17.714	61.5847
17.732	61.5446
17.75	61.5152
17.768	61.4957
17.786	61.4863
17.804	61.4852
17.822	61.4918
17.84	61.5039
17.858	61.5206
17.876	61.5404
17.894	61.5618
17.912	61.5842
17.93	61.6065
17.948	61.6285
17.966	61.6497
17.984	61.6701
18.002	61.6893
18.02	61.7075
18.038	61.7246
18.056	61.7403
18.074	61.7545
18.092	61.767
18.11	61.7775
18.128	61.7856
18.146	61.7913
18.164	61.7944
18.182	61.7952
18.2	61.7936
18.218	61.7902
18.236	61.7852
18.254	61.7792
18.272	61.7724
18.29	61.7655
18.308	61.7586
18.326	61.752
18.344	61.7458
18.362	61.74
18.38	61.7345
18.398	61.7289
18.416	61.7227
18.434	61.7152
18.452	61.7056
18.47	61.6931
18.488	61.6772
18.506	61.6577
18.524	61.6343
18.542	61.6069
18.56	61.5757
18.578	61.5408
18.596	61.503
18.614	61.4624
18.632	61.4201
18.65	61.3762
18.668	61.332
18.686	61.2873
18.704	61.2432
18.722	61.1997
18.74	61.1573
18.758	61.1161
18.776	61.0763
18.794	61.0377
18.812	61.0005
18.83	60.9645
18.848	60.9297
18.866	60.896
18.884	60.8633
18.902	60.8316
18.92	60.8008
18.938	60.771
18.956	60.7424
18.974	60.7152
18.992	60.6896
19.01	60.6663
19.028	60.646
19.046	60.6295
19.064	60.6179
19.082	60.6121
19.1	60.6136
19.118	60.6228
19.136	60.6413
19.154	60.6688
19.172	60.7066
19.19	60.7539
19.208	60.8101
19.226	60.8744
19.244	60.9443
19.262	61.0192
19.28	61.0941
19.298	61.1688
19.316	61.237
19.334	61.2988
19.352	61.3476
19.37	61.3836
19.388	61.4015
19.406	61.4014
19.424	61.3807
19.442	61.3389
19.46	61.277
19.478	61.1943
19.496	61.0947
19.514	60.9779
19.532	60.8495
19.55	60.711
19.568	60.567
19.586	60.4218
19.604	60.2775
19.622	60.1407
19.64	60.0112
19.658	59.8953
19.676	59.7921
19.694	59.7056
19.712	59.6352
19.73	59.5815
19.748	59.5447
19.766	59.5224
19.784	59.5146
19.802	59.5183
19.82	59.5319
19.838	59.5538
19.856	59.5804
19.874	59.6117
19.892	59.644
19.91	59.6777
19.928	59.7102
19.946	59.7416
19.964	59.7713
19.982	59.7989
20	59.8252
20.018	59.8499
20.036	59.8739
20.054	59.8978
20.072	59.9218
20.09	59.9467
20.108	59.9724
20.126	59.9991
20.144	60.027
20.162	60.055
20.18	60.0833
20.198	60.1108
20.216	60.1363
20.234	60.1596
20.252	60.1785
20.27	60.1933
20.288	60.2023
20.306	60.2054
20.324	60.2023
20.342	60.1922
20.36	60.1758
20.378	60.1538
20.396	60.1261
20.414	60.0946
20.432	60.0591
20.45	60.0217
20.468	59.9834
20.486	59.9448
20.504	59.9079
20.522	59.8722
20.54	59.8395
20.558	59.8099
20.576	59.7833
20.594	59.7602
20.612	59.7399
20.63	59.7212
20.648	59.7045
20.666	59.6877
20.684	59.6709
20.702	59.6528
20.72	59.6324
20.738	59.6099
20.756	59.5842
20.774	59.5556
20.792	59.5247
20.81	59.4909
20.828	59.4558
20.846	59.4207
20.864	59.3853
20.882	59.3529
20.9	59.3229
20.918	59.2976
20.936	59.2788
20.954	59.2662
20.972	59.2623
20.99	59.2666
21.008	59.2795
21.026	59.3016
21.044	59.3322
21.062	59.3697
21.08	59.4149
21.098	59.4645
21.116	59.5183
21.134	59.5749
21.152	59.6309
21.17	59.6872
21.188	59.7402
21.206	59.7893
21.224	59.8338
21.242	59.8715
21.26	59.9028
21.278	59.9274
21.296	59.9445
21.314	59.9551
21.332	59.9601
21.35	59.959
21.368	59.9545
21.386	59.9469
21.404	59.9371
21.422	59.928
21.44	59.9187
21.458	59.9114
21.476	59.9075
21.494	59.9065
21.512	59.9093
21.53	59.9163
21.548	59.9264
21.566	59.9394
21.584	59.9552
21.602	59.9705
21.62	59.9863
21.638	60.0002
21.656	60.0093
21.674	60.0148
21.692	60.013
21.71	60.0028
21.728	59.9845
21.746	59.9556
21.764	59.9164
21.782	59.8669
21.8	59.8064
21.818	59.7353
21.836	59.6558
21.854	59.5675
21.872	59.4719
21.89	59.3723
21.908	59.2673
21.926	59.1603
21.944	59.0532
21.962	58.9453
21.98	58.8403
21.998	58.7385
22.016	58.6401
22.034	58.5471
22.052	58.4589
22.07	58.3762
22.088	58.2997
22.106	58.2291
22.124	58.1645
22.142	58.1061
22.16	58.0536
22.178	58.0071
22.196	57.9665
22.214	57.9318
22.232	57.9028
22.25	57.8796
22.268	57.8626
22.286	57.8519
22.304	57.8473
22.322	57.8499
22.34	57.8597
22.358	57.8768
22.376	57.9016
22.394	57.9343
22.412	57.9746
22.43	58.0222
22.448	58.0776
22.466	58.1395
22.484	58.2075
22.502	58.2819
22.52	58.3606
22.538	58.4429
22.556	58.5292
22.574	58.6165
22.592	58.705
22.61	58.7941
22.628	58.8811
22.646	58.9666
22.664	59.0495
22.682	59.1271
22.7	59.2003
22.718	59.268
22.736	59.3281
22.754	59.3815
22.772	59.4276
22.79	59.4653
22.808	59.4952
22.826	59.5174
22.844	59.5321
22.862	59.539
22.88	59.5395
22.898	59.5338
22.916	59.5218
22.934	59.5056
22.952	59.4856
22.97	59.4615
22.988	59.4358
23.006	59.4089
23.024	59.3804
23.042	59.353
23.06	59.3265
23.078	59.301
23.096	59.2792
23.114	59.2609
23.132	59.2462
23.15	59.2365
23.168	59.232
23.186	59.2324
23.204	59.2384
23.222	59.2504
23.24	59.2678
23.258	59.2896
23.276	59.3161
23.294	59.3469
23.312	59.3806
23.33	59.4183
23.348	59.4587
23.366	59.4988
23.384	59.5396
23.402	59.58
23.42	59.6157
23.438	59.6473
23.456	59.6742
23.474	59.692
23.492	59.7002
23.51	59.6994
23.528	59.6867
23.546	59.6615
23.564	59.6245
23.582	59.5737
23.6	59.5083
23.618	59.429
23.636	59.3351
23.654	59.2257
23.672	59.1011
23.69	58.963
23.708	58.8117
23.726	58.6461
23.744	58.47
23.762	58.2864
23.78	58.0925
23.798	57.8925
23.816	57.6911
23.834	57.4853
23.852	57.2785
23.87	57.0762
23.888	56.8754
23.906	56.6791
23.924	56.495
23.942	56.3218
23.96	56.1597
23.978	56.0169
23.996	55.8956
24.014	55.7927
24.032	55.7151
24.05	55.6672
24.068	55.6453
24.086	55.653
24.104	55.694
24.122	55.7673
24.14	55.8718
24.158	56.0077
24.176	56.1768
24.194	56.3763
24.212	56.6009
24.23	56.8515
24.248	57.1283
24.266	57.4231
24.284	57.7324
24.302	58.0611
24.32	58.3994
24.338	58.7385
24.356	59.0862
24.374	59.4341
24.392	59.769
24.41	60.0947
24.428	60.4102
24.446	60.7027
24.464	60.9669
24.482	61.2087
24.5	61.4217
24.518	61.6001
24.536	61.7473
24.554	61.8618
24.572	61.9402
24.59	61.9822
24.608	61.9892
24.626	61.9613
24.644	61.8981
24.662	61.7997
24.68	61.668
24.698	61.5045
24.716	61.3066
24.734	61.0781
24.752	60.8247
24.77	60.5467
24.788	60.2427
24.806	59.9169
24.824	59.572
24.842	59.2056
24.86	58.8202
24.878	58.419
24.896	58.0022
24.914	57.569
24.932	57.1193
24.95	56.6536
24.968	56.1722
24.986	55.6738
25.004	55.1566
25.022	54.6221
25.04	54.0694
25.058	53.4967
25.076	52.9025
25.094	52.2874
25.112	51.6535
25.13	51.0024
25.148	50.3326
25.166	49.6453
25.184	48.9438
25.202	48.2286
25.22	47.4974
25.238	46.7557
25.256	46.0092
25.274	45.2553
25.292	44.4947
25.31	43.7321
25.328	42.9701
25.346	42.2056
25.364	41.4414
25.382	40.6806
25.4	39.9237
25.418	39.1694
25.436	38.4174
25.454	37.6676
25.472	36.9211
25.49	36.1761
25.508	35.4304
25.526	34.6827
25.544	33.9341
25.562	33.1856
25.58	32.4376
25.598	31.6866
25.616	30.9363
25.634	30.1936
25.652	29.4608
25.67	28.7302
25.688	28.0137
25.706	27.3248
25.724	26.6591
25.742	26.0127
25.76	25.4064
25.778	24.8588
25.796	24.355
25.814	23.9017
25.832	23.5194
25.85	23.2202
25.868	22.9866
25.886	22.8336
25.904	22.7808
25.922	22.8328
25.94	22.9782
25.958	23.2276
25.976	23.5916
25.994	24.0678
26.012	24.6531
26.03	25.3515
26.048	26.167
26.066	27.0998
26.084	28.1457
26.102	29.3003
26.12	30.5621
26.138	31.9371
26.156	33.4153
26.174	34.9846
26.192	36.6436
26.21	38.4006
26.228	40.2401
26.246	42.1455
26.264	44.1227
26.282	46.1765
26.3	48.2831
26.318	50.4194
26.336	52.6004
26.354	54.8241
26.372	57.0635
26.39	59.2946
26.408	61.5421
26.426	63.7941
26.444	66.0178
26.462	68.1874
26.48	70.3344
26.498	72.44
26.516	74.4684
26.534	76.3954
26.552	78.2552
26.57	80.0249
26.588	81.67
26.606	83.1695
26.624	84.5533
26.642	85.8031
26.66	86.8934
26.678	87.8102
26.696	88.574
26.714	89.1743
26.732	89.5969
26.75	89.8325
26.768	89.8901
26.786	89.7724
26.804	89.4814
26.822	89.0142
26.84	88.3654
26.858	87.5515
26.876	86.5901
26.894	85.4838
26.912	84.2124
26.93	82.8065
26.948	81.3001
26.966	79.6182
26.984	77.5971
27.002	75.6009
27.02	74.0273
27.028	73.6132