File: Bakgrunnsmateriale/MATLAB/FTIR/ftir_data/subBb/Mapping_121/C-4040-8_t121.asc
PE IR       SPECTRUM    SPECTRUM    ASCII       PEDS        1.60
  -1
C-80C2~1.ASC
17/03/28
00:40:25.00
17/03/28
00:40:51.00
tln
$C-4040-8_t0121$<tbV0>[-13.0,13.0,8.0,0.0,27,1,0]
27.028
64

2002,4.07
MIRTGS : RIGHTBACK : INTERNAL 2
MIR : ON : INTERNAL 2
OPTKBR

0.200000
8
8.000000
FILLER
RATIO
SPECTRUM
UNLOCKED 256

DOUBLE
64
COMBINED
1
0
0

0.002000
RATIO

1
0
TRUE
51149
0
LEFT NOT FITTED RIGHT NOT FITTED 0
NONE
NONE
15600
12
4.427000
51148
TRUE
1 0 8 72 0 0 0 0

15798

#HDR
-1
-1
#GR
µM
%T
2.38419e-05
0.0
2.000000
0.002000
12515
8
84.243
42.2389
#DATA
2.000000	 64.5864
2.018000	 63.5523
2.036000	 64.554
2.054000	 64.9374
2.072000	 64.5549
2.090000	 64.8771
2.108000	 64.9466
2.126000	 64.373
2.144000	 64.6923
2.162000	 64.7098
2.180000	 64.8297
2.198000	 65.7633
2.216000	 65.3247
2.234000	 65.6984
2.252000	 66.1807
2.270000	 57.4389
2.288000	 66.7111
2.306000	 65.3157
2.324000	 65.4683
2.342000	 64.8018
2.360000	 64.9444
2.378000	 65.2246
2.396000	 64.7189
2.414000	 64.5688
2.432000	 64.4641
2.450000	 64.8433
2.468000	 64.834
2.486000	 64.9155
2.504000	 64.8408
2.522000	 64.8993
2.540000	 64.8474
2.558000	 64.782
2.576000	 64.8941
2.594000	 64.9898
2.612000	 64.9424
2.630000	 64.824
2.648000	 64.9292
2.666000	 64.8032
2.684000	 64.8921
2.702000	 65.0252
2.720000	 64.9155
2.738000	 64.6622
2.756000	 64.8769
2.774000	 65.0491
2.792000	 64.5367
2.810000	 65.4405
2.828000	 64.8009
2.846000	 64.8514
2.864000	 64.9635
2.882000	 65.0776
2.900000	 64.9765
2.918000	 64.9421
2.936000	 65.0685
2.954000	 64.818
2.972000	 64.9709
2.990000	 64.7107
3.008000	 64.7455
3.026000	 64.6246
3.044000	 64.8965
3.062000	 64.9063
3.080000	 64.7032
3.098000	 64.7565
3.116000	 64.8629
3.134000	 64.8421
3.152000	 64.828
3.170000	 64.8023
3.188000	 64.6329
3.206000	 64.4806
3.224000	 65.0627
3.242000	 64.9265
3.260000	 64.898
3.278000	 64.7883
3.296000	 65.0811
3.314000	 64.925
3.332000	 64.886
3.350000	 64.9485
3.368000	 64.9357
3.386000	 64.7619
3.404000	 64.8187
3.422000	 64.7203
3.440000	 64.5841
3.458000	 64.7811
3.476000	 64.7877
3.494000	 64.6975
3.512000	 64.8927
3.530000	 64.7946
3.548000	 64.8161
3.566000	 64.9452
3.584000	 64.8314
3.602000	 64.8122
3.620000	 64.9594
3.638000	 64.8598
3.656000	 64.8707
3.674000	 64.9582
3.692000	 64.8596
3.710000	 65.0399
3.728000	 64.9612
3.746000	 65.0175
3.764000	 64.9839
3.782000	 64.9255
3.800000	 64.8326
3.818000	 64.8729
3.836000	 64.9919
3.854000	 64.9992
3.872000	 64.8358
3.890000	 64.93
3.908000	 64.9785
3.926000	 65.0388
3.944000	 65.0498
3.962000	 65.0609
3.980000	 64.9415
3.998000	 64.934
4.016000	 64.8926
4.034000	 65.0514
4.052000	 65.0146
4.070000	 65.1298
4.088000	 64.9473
4.106000	 65.213
4.124000	 64.96
4.141999	 65.6636
4.160000	 65.0128
4.178000	 64.8783
4.196000	 64.9456
4.214000	 65.0333
4.232000	 64.9835
4.250000	 64.9929
4.268000	 64.917
4.286000	 64.8816
4.304000	 64.8951
4.322000	 64.8827
4.340000	 65.0141
4.358000	 65.0239
4.375999	 64.9891
4.394000	 64.9563
4.412000	 65.1487
4.430000	 65.0136
4.448000	 65.0455
4.466000	 64.9293
4.484000	 64.9128
4.502000	 64.8898
4.520000	 64.9389
4.538000	 65.0403
4.556000	 65.1599
4.574000	 64.9439
4.592000	 65.0117
4.609999	 64.9331
4.628000	 64.9915
4.646000	 65.0392
4.664000	 65.162
4.682000	 64.9993
4.700000	 64.9486
4.718000	 65.1041
4.736000	 65.0724
4.754000	 64.9605
4.772000	 65.0125
4.790000	 64.9994
4.808000	 64.7884
4.826000	 65.0261
4.843999	 65.3584
4.862000	 65.0679
4.880000	 64.9614
4.898000	 64.9893
4.916000	 64.9959
4.934000	 65.0954
4.952000	 65.1212
4.970000	 64.95
4.988000	 64.9528
5.006000	 64.8795
5.024000	 64.9416
5.042000	 65.1102
5.060000	 65.0493
5.077999	 64.9321
5.096000	 65.0488
5.114000	 65.0466
5.132000	 64.9539
5.150000	 64.8884
5.168000	 64.8425
5.186000	 64.9535
5.204000	 65.0495
5.222000	 65.0654
5.240000	 65.052
5.258000	 64.9582
5.276000	 64.9724
5.294000	 65.0316
5.312000	 65.0409
5.330000	 65.0948
5.348000	 64.9523
5.366000	 64.8995
5.384000	 65.0365
5.402000	 65.0851
5.420000	 64.926
5.438000	 64.859
5.456000	 65.0097
5.474000	 65.0581
5.492000	 65.0284
5.510000	 64.9018
5.528000	 64.8322
5.546000	 64.8937
5.564000	 64.9885
5.582000	 64.8472
5.600000	 64.7856
5.618000	 64.8506
5.636000	 64.8842
5.654000	 64.9592
5.672000	 64.922
5.690000	 64.8722
5.708000	 64.803
5.726000	 64.6705
5.744000	 64.5946
5.762000	 64.4701
5.780000	 64.4149
5.798000	 64.5971
5.816000	 64.7849
5.834000	 64.8656
5.852000	 64.8268
5.870000	 64.8442
5.888000	 64.8355
5.906000	 64.7969
5.923999	 64.7582
5.942000	 64.8327
5.960000	 64.8998
5.978000	 64.8564
5.996000	 64.7729
6.014000	 64.7804
6.032000	 64.758
6.050000	 64.7376
6.068000	 64.7374
6.086000	 64.7046
6.104000	 64.8449
6.122000	 64.8474
6.140000	 64.7635
6.158000	 64.7834
6.176000	 64.732
6.194000	 64.7148
6.212000	 64.7373
6.230000	 64.6794
6.248000	 64.7265
6.266000	 64.8166
6.284000	 64.744
6.302000	 64.636
6.320000	 64.6144
6.338000	 64.6493
6.356000	 64.6575
6.374000	 64.6371
6.392000	 64.6695
6.410000	 64.7451
6.428000	 64.724
6.446000	 64.6769
6.464000	 64.6486
6.482000	 64.6823
6.500000	 64.8153
6.518000	 64.903
6.536000	 64.8724
6.554000	 64.754
6.572000	 64.6895
6.590000	 64.672
6.608000	 64.6661
6.626000	 64.6524
6.644000	 64.6355
6.662000	 64.6824
6.680000	 64.6916
6.698000	 64.6574
6.716000	 64.7306
6.734000	 64.8747
6.752000	 64.9231
6.770000	 64.8366
6.788000	 64.7607
6.806000	 64.7862
6.824000	 64.8157
6.842000	 64.7292
6.860000	 64.5914
6.878000	 64.5425
6.896000	 64.561
6.914000	 64.5782
6.932000	 64.6256
6.950000	 64.6879
6.968000	 64.7916
6.986000	 64.9021
7.004000	 64.8709
7.022000	 64.7914
7.040000	 64.7705
7.058000	 64.6949
7.076000	 64.5763
7.094000	 64.5342
7.112000	 64.5447
7.130000	 64.5373
7.148000	 64.5159
7.166000	 64.5275
7.184000	 64.6018
7.202000	 64.6686
7.220000	 64.66
7.238000	 64.6701
7.256000	 64.7181
7.274000	 64.6638
7.292000	 64.5586
7.310000	 64.5728
7.328000	 64.6691
7.346000	 64.7226
7.364000	 64.7057
7.382000	 64.6473
7.400000	 64.6046
7.418000	 64.6212
7.436000	 64.6462
7.454000	 64.6033
7.472000	 64.5404
7.490000	 64.5604
7.508000	 64.6426
7.526000	 64.7078
7.544000	 64.746
7.562000	 64.7715
7.580000	 64.745
7.598000	 64.6472
7.616000	 64.5568
7.634000	 64.5439
7.652000	 64.554
7.670000	 64.5223
7.688000	 64.4841
7.706000	 64.4752
7.724000	 64.4758
7.742000	 64.486
7.760000	 64.5374
7.778000	 64.6155
7.796000	 64.6558
7.814000	 64.6338
7.832000	 64.6006
7.850000	 64.6051
7.868000	 64.6205
7.886000	 64.585
7.904000	 64.496
7.922000	 64.4326
7.940000	 64.4591
7.958000	 64.5324
7.976000	 64.5693
7.994000	 64.5487
8.012000	 64.5027
8.030000	 64.476
8.048000	 64.4975
8.065999	 64.5481
8.084000	 64.5707
8.102000	 64.5425
8.120000	 64.4943
8.138000	 64.4639
8.155999	 64.478
8.173999	 64.5342
8.192000	 64.5844
8.210000	 64.5801
8.228000	 64.5329
8.246000	 64.5003
8.263999	 64.5162
8.282000	 64.5638
8.300000	 64.6029
8.318000	 64.6117
8.336000	 64.6105
8.353999	 64.6211
8.372000	 64.6244
8.390000	 64.5941
8.408000	 64.5481
8.426000	 64.5275
8.443999	 64.5369
8.462000	 64.5368
8.480000	 64.5
8.498000	 64.445
8.516000	 64.4144
8.533999	 64.4309
8.552000	 64.4807
8.570000	 64.5324
8.588000	 64.5649
8.606000	 64.5733
8.624000	 64.5651
8.641999	 64.5557
8.660000	 64.5553
8.678000	 64.557
8.696000	 64.5467
8.714000	 64.5247
8.731999	 64.5135
8.750000	 64.5344
8.768000	 64.5853
8.786000	 64.6413
8.804000	 64.6715
8.821999	 64.6531
8.840000	 64.5793
8.858000	 64.4662
8.876000	 64.3522
8.894000	 64.2856
8.911999	 64.2958
8.930000	 64.3691
8.948000	 64.4518
8.966000	 64.4871
8.984000	 64.4593
9.001999	 64.4022
9.020000	 64.365
9.038000	 64.3676
9.056000	 64.3838
9.074000	 64.369
9.092000	 64.2982
9.109999	 64.1815
9.128000	 64.0542
9.146000	 63.9583
9.164000	 63.9253
9.182000	 63.9602
9.199999	 64.0322
9.218000	 64.0915
9.236000	 64.1062
9.254000	 64.0922
9.272000	 64.0988
9.289999	 64.1651
9.308000	 64.2902
9.326000	 64.438
9.344000	 64.5602
9.362000	 64.6199
9.379999	 64.6035
9.398000	 64.5231
9.416000	 64.4066
9.434000	 64.2866
9.452000	 64.1879
9.469999	 64.13
9.488000	 64.1267
9.506000	 64.1739
9.524000	 64.2391
9.542000	 64.2769
9.560000	 64.2647
9.577999	 64.2179
9.596000	 64.1716
9.614000	 64.1512
9.632000	 64.1593
9.650000	 64.1823
9.667999	 64.2079
9.686000	 64.2303
9.704000	 64.2459
9.722000	 64.2439
9.740000	 64.2096
9.757999	 64.1382
9.776000	 64.0485
9.794000	 63.9801
9.812000	 63.9706
9.830000	 64.025
9.847999	 64.1067
9.866000	 64.1642
9.884000	 64.1722
9.902000	 64.1488
9.920000	 64.1379
9.937999	 64.1694
9.956000	 64.2327
9.974000	 64.2884
9.992000	 64.302
10.01	64.2712
10.028	64.2283
10.046	64.2139
10.064	64.2483
10.082	64.3215
10.1	64.4026
10.118	64.4608
10.136	64.4848
10.154	64.4829
10.172	64.4726
10.19	64.4683
10.208	64.4726
10.226	64.4782
10.244	64.4741
10.262	64.4505
10.28	64.403
10.298	64.3357
10.316	64.26
10.334	64.1901
10.352	64.1357
10.37	64.0969
10.388	64.0635
10.406	64.0247
10.424	63.979
10.442	63.9402
10.46	63.9278
10.478	63.9553
10.496	64.0173
10.514	64.0933
10.532	64.1567
10.55	64.1905
10.568	64.1923
10.586	64.1717
10.604	64.1411
10.622	64.1101
10.64	64.0833
10.658	64.0647
10.676	64.0592
10.694	64.0717
10.712	64.1052
10.73	64.1577
10.748	64.2207
10.766	64.2821
10.784	64.3284
10.802	64.3478
10.82	64.3353
10.838	64.2949
10.856	64.2395
10.874	64.1882
10.892	64.1564
10.91	64.1516
10.928	64.1699
10.946	64.2013
10.964	64.2382
10.982	64.2785
11	64.3241
11.018	64.3734
11.036	64.4139
11.054	64.423
11.072	64.3796
11.09	64.2758
11.108	64.126
11.126	63.9644
11.144	63.8265
11.162	63.7368
11.18	63.6989
11.198	63.6986
11.216	63.7157
11.234	63.7353
11.252	63.7521
11.27	63.7699
11.288	63.7944
11.306	63.827
11.324	63.8634
11.342	63.896
11.36	63.9191
11.378	63.9317
11.396	63.9384
11.414	63.9468
11.432	63.9634
11.45	63.9915
11.468	64.029
11.486	64.0678
11.504	64.0967
11.522	64.1041
11.54	64.0823
11.558	64.0315
11.576	63.9611
11.594	63.8866
11.612	63.8269
11.63	63.7974
11.648	63.8029
11.666	63.8359
11.684	63.8778
11.702	63.9075
11.72	63.9078
11.738	63.8756
11.756	63.8226
11.774	63.7729
11.792	63.7531
11.81	63.7812
11.828	63.8594
11.846	63.9733
11.864	64.0962
11.882	64.1997
11.9	64.2612
11.918	64.2709
11.936	64.2331
11.954	64.1609
11.972	64.0717
11.99	63.9816
12.008	63.9004
12.026	63.8329
12.044	63.7813
12.062	63.748
12.08	63.7374
12.098	63.7544
12.116	63.8032
12.134	63.8833
12.152	63.9863
12.17	64.0974
12.188	64.1962
12.206	64.2618
12.224	64.2778
12.242	64.2378
12.26	64.1467
12.278	64.0224
12.296	63.8923
12.314	63.7876
12.332	63.735
12.35	63.7514
12.368	63.8384
12.386	63.9812
12.404	64.152
12.422	64.3163
12.44	64.4425
12.458	64.5077
12.476	64.5013
12.494	64.4283
12.512	64.3054
12.53	64.1562
12.548	64.0043
12.566	63.8681
12.584	63.7586
12.602	63.6787
12.62	63.6238
12.638	63.5866
12.656	63.56
12.674	63.5391
12.692	63.5227
12.71	63.5113
12.728	63.5064
12.746	63.5079
12.764	63.5127
12.782	63.515
12.8	63.5075
12.818	63.4847
12.836	63.4442
12.854	63.3892
12.872	63.3278
12.89	63.2723
12.908	63.235
12.926	63.2251
12.944	63.2456
12.962	63.292
12.98	63.3527
12.998	63.4116
13.016	63.4524
13.034	63.4633
13.052	63.4397
13.07	63.3862
13.088	63.3146
13.106	63.2413
13.124	63.183
13.142	63.1526
13.16	63.1572
13.178	63.1957
13.196	63.2606
13.214	63.3398
13.232	63.4202
13.25	63.4918
13.268	63.5485
13.286	63.591
13.304	63.6252
13.322	63.6605
13.34	63.7063
13.358	63.769
13.376	63.8496
13.394	63.9424
13.412	64.0362
13.43	64.1158
13.448	64.166
13.466	64.1745
13.484	64.1353
13.502	64.0495
13.52	63.9253
13.538	63.7759
13.556	63.6166
13.574	63.4619
13.592	63.3222
13.61	63.2028
13.628	63.1037
13.646	63.0211
13.664	62.9495
13.682	62.8842
13.7	62.8227
13.718	62.7654
13.736	62.7155
13.754	62.6767
13.772	62.6531
13.79	62.646
13.808	62.6544
13.826	62.6734
13.844	62.6965
13.862	62.7165
13.88	62.7275
13.898	62.7258
13.916	62.7109
13.934	62.6858
13.952	62.6557
13.97	62.6267
13.988	62.6038
14.006	62.5905
14.024	62.5877
14.042	62.5934
14.06	62.6035
14.078	62.6136
14.096	62.6198
14.114	62.6202
14.132	62.6151
14.15	62.6067
14.168	62.5982
14.186	62.5938
14.204	62.5966
14.222	62.6088
14.24	62.63
14.258	62.6585
14.276	62.6916
14.294	62.7261
14.312	62.7594
14.33	62.7894
14.348	62.8154
14.366	62.8381
14.384	62.8586
14.402	62.8778
14.42	62.8957
14.438	62.9112
14.456	62.9219
14.474	62.9242
14.492	62.9141
14.51	62.8872
14.528	62.841
14.546	62.7746
14.564	62.6898
14.582	62.5902
14.6	62.4816
14.618	62.3711
14.636	62.2664
14.654	62.1735
14.672	62.0967
14.69	62.0381
14.708	61.9974
14.726	61.972
14.744	61.9569
14.762	61.9465
14.78	61.9361
14.798	61.9221
14.816	61.9025
14.834	61.878
14.852	61.8515
14.87	61.8277
14.888	61.8111
14.906	61.8061
14.924	61.8159
14.942	61.8419
14.96	61.882
14.978	61.9321
14.996	61.9869
15.014	62.0395
15.032	62.0825
15.05	62.1096
15.068	62.1171
15.086	62.1032
15.104	62.0685
15.122	62.0167
15.14	61.954
15.158	61.8872
15.176	61.8235
15.194	61.7702
15.212	61.7339
15.23	61.7178
15.248	61.7237
15.266	61.7511
15.284	61.7974
15.302	61.8579
15.32	61.9273
15.338	62.0002
15.356	62.0709
15.374	62.1344
15.392	62.1881
15.41	62.2307
15.428	62.2619
15.446	62.2839
15.464	62.2992
15.482	62.3106
15.5	62.3212
15.518	62.334
15.536	62.3504
15.554	62.3707
15.572	62.3949
15.59	62.4209
15.608	62.4468
15.626	62.4704
15.644	62.4896
15.662	62.5029
15.68	62.51
15.698	62.5108
15.716	62.5058
15.734	62.4963
15.752	62.4829
15.77	62.4668
15.788	62.4488
15.806	62.4291
15.824	62.4078
15.842	62.3846
15.86	62.3588
15.878	62.3302
15.896	62.2983
15.914	62.2632
15.932	62.2256
15.95	62.1867
15.968	62.1478
15.986	62.1112
16.004	62.0783
16.022	62.0503
16.04	62.0282
16.058	62.0112
16.076	61.9987
16.094	61.9882
16.112	61.9769
16.13	61.9623
16.148	61.9405
16.166	61.9092
16.184	61.8677
16.202	61.8154
16.22	61.7554
16.238	61.6911
16.256	61.626
16.274	61.568
16.292	61.5225
16.31	61.4945
16.328	61.4904
16.346	61.5117
16.364	61.5593
16.382	61.6314
16.4	61.7227
16.418	61.8287
16.436	61.9396
16.454	62.0476
16.472	62.1463
16.49	62.2268
16.508	62.2859
16.526	62.3211
16.544	62.3327
16.562	62.3244
16.58	62.2995
16.598	62.2657
16.616	62.2286
16.634	62.1929
16.652	62.1651
16.67	62.1467
16.688	62.1395
16.706	62.1423
16.724	62.1528
16.742	62.1679
16.76	62.1824
16.778	62.1938
16.796	62.1971
16.814	62.1901
16.832	62.1715
16.85	62.1404
16.868	62.0983
16.886	62.0463
16.904	61.988
16.922	61.9257
16.94	61.8623
16.958	61.8009
16.976	61.7428
16.994	61.69
17.012	61.6422
17.03	61.5995
17.048	61.5601
17.066	61.5228
17.084	61.4859
17.102	61.4478
17.12	61.4078
17.138	61.3653
17.156	61.3212
17.174	61.276
17.192	61.2326
17.21	61.1924
17.228	61.1589
17.246	61.1346
17.264	61.1213
17.282	61.1217
17.3	61.136
17.318	61.1648
17.336	61.2061
17.354	61.2588
17.372	61.3186
17.39	61.3835
17.408	61.4484
17.426	61.5095
17.444	61.5639
17.462	61.6066
17.48	61.6365
17.498	61.6506
17.516	61.6491
17.534	61.6314
17.552	61.5995
17.57	61.5542
17.588	61.4993
17.606	61.4367
17.624	61.3696
17.642	61.3016
17.66	61.2344
17.678	61.1717
17.696	61.1142
17.714	61.0648
17.732	61.024
17.75	60.9929
17.768	60.9722
17.786	60.962
17.804	60.9625
17.822	60.9738
17.84	60.9954
17.858	61.0271
17.876	61.0683
17.894	61.1178
17.912	61.1755
17.93	61.239
17.948	61.308
17.966	61.3796
17.984	61.4526
18.002	61.5242
18.02	61.5923
18.038	61.6549
18.056	61.7092
18.074	61.7541
18.092	61.7873
18.11	61.8083
18.128	61.8158
18.146	61.8102
18.164	61.7918
18.182	61.7617
18.2	61.721
18.218	61.6721
18.236	61.6162
18.254	61.5567
18.272	61.4942
18.29	61.4324
18.308	61.3719
18.326	61.3152
18.344	61.2626
18.362	61.2161
18.38	61.1754
18.398	61.1411
18.416	61.1126
18.434	61.0898
18.452	61.0715
18.47	61.0571
18.488	61.0451
18.506	61.0351
18.524	61.0254
18.542	61.0157
18.56	61.0045
18.578	60.9915
18.596	60.9758
18.614	60.9574
18.632	60.936
18.65	60.9115
18.668	60.8846
18.686	60.8554
18.704	60.8249
18.722	60.7933
18.74	60.7622
18.758	60.7319
18.776	60.7039
18.794	60.6785
18.812	60.6572
18.83	60.6402
18.848	60.6285
18.866	60.6222
18.884	60.6219
18.902	60.6275
18.92	60.6392
18.938	60.6567
18.956	60.6795
18.974	60.7071
18.992	60.7387
19.01	60.7735
19.028	60.8105
19.046	60.8489
19.064	60.8875
19.082	60.9255
19.1	60.9617
19.118	60.9954
19.136	61.0254
19.154	61.0514
19.172	61.0721
19.19	61.0876
19.208	61.0967
19.226	61.0995
19.244	61.0954
19.262	61.0845
19.28	61.0665
19.298	61.0414
19.316	61.0096
19.334	60.9711
19.352	60.9265
19.37	60.8758
19.388	60.8205
19.406	60.7603
19.424	60.6971
19.442	60.6308
19.46	60.5635
19.478	60.4952
19.496	60.4281
19.514	60.3624
19.532	60.2997
19.55	60.2411
19.568	60.1871
19.586	60.1391
19.604	60.097
19.622	60.062
19.64	60.0338
19.658	60.0124
19.676	59.9979
19.694	59.9891
19.712	59.9861
19.73	59.987
19.748	59.992
19.766	59.9983
19.784	60.0058
19.802	60.0126
19.82	60.0176
19.838	60.02
19.856	60.0182
19.874	60.0123
19.892	60.0014
19.91	59.9857
19.928	59.9653
19.946	59.9401
19.964	59.9121
19.982	59.881
20	59.849
20.018	59.8173
20.036	59.7868
20.054	59.76
20.072	59.7365
20.09	59.7189
20.108	59.7067
20.126	59.701
20.144	59.7022
20.162	59.7096
20.18	59.7234
20.198	59.7425
20.216	59.7657
20.234	59.7927
20.252	59.8204
20.27	59.8494
20.288	59.8763
20.306	59.9011
20.324	59.9218
20.342	59.9368
20.36	59.946
20.378	59.9476
20.396	59.942
20.414	59.9286
20.432	59.9072
20.45	59.8785
20.468	59.8426
20.486	59.8002
20.504	59.7528
20.522	59.7002
20.54	59.6448
20.558	59.5863
20.576	59.5268
20.594	59.4672
20.612	59.4078
20.63	59.3505
20.648	59.2949
20.666	59.2426
20.684	59.1937
20.702	59.1486
20.72	59.1078
20.738	59.0713
20.756	59.0395
20.774	59.0123
20.792	58.9897
20.81	58.9716
20.828	58.9582
20.846	58.9495
20.864	58.9453
20.882	58.9459
20.9	58.951
20.918	58.961
20.936	58.976
20.954	58.996
20.972	59.0211
20.99	59.0512
21.008	59.0866
21.026	59.1275
21.044	59.1738
21.062	59.226
21.08	59.284
21.098	59.3475
21.116	59.4169
21.134	59.4917
21.152	59.5711
21.17	59.6555
21.188	59.7435
21.206	59.835
21.224	59.9293
21.242	60.0248
21.26	60.1221
21.278	60.2184
21.296	60.3138
21.314	60.4073
21.332	60.4963
21.35	60.5816
21.368	60.6607
21.386	60.7332
21.404	60.7987
21.422	60.8551
21.44	60.9029
21.458	60.9415
21.476	60.9704
21.494	60.99
21.512	61.0003
21.53	61.0012
21.548	60.9936
21.566	60.9782
21.584	60.9549
21.602	60.9253
21.62	60.8891
21.638	60.8476
21.656	60.8025
21.674	60.753
21.692	60.7011
21.71	60.647
21.728	60.5909
21.746	60.5346
21.764	60.4778
21.782	60.4209
21.8	60.3646
21.818	60.3086
21.836	60.2534
21.854	60.1993
21.872	60.146
21.89	60.0932
21.908	60.0411
21.926	59.9894
21.944	59.9379
21.962	59.8867
21.98	59.8351
21.998	59.7831
22.016	59.7306
22.034	59.6774
22.052	59.6235
22.07	59.5688
22.088	59.5131
22.106	59.4564
22.124	59.3989
22.142	59.3406
22.16	59.2817
22.178	59.222
22.196	59.1617
22.214	59.1007
22.232	59.0392
22.25	58.9773
22.268	58.9144
22.286	58.8505
22.304	58.7855
22.322	58.7185
22.34	58.6494
22.358	58.5779
22.376	58.5029
22.394	58.4245
22.412	58.3424
22.43	58.2559
22.448	58.1652
22.466	58.07
22.484	57.97
22.502	57.8652
22.52	57.7563
22.538	57.643
22.556	57.5257
22.574	57.4072
22.592	57.2868
22.61	57.1657
22.628	57.0486
22.646	56.9342
22.664	56.8245
22.682	56.7241
22.7	56.6311
22.718	56.5483
22.736	56.479
22.754	56.4216
22.772	56.3786
22.79	56.3525
22.808	56.3422
22.826	56.3485
22.844	56.3727
22.862	56.4142
22.88	56.4708
22.898	56.5422
22.916	56.6287
22.934	56.7252
22.952	56.8308
22.97	56.9461
22.988	57.0643
23.006	57.185
23.024	57.3084
23.042	57.4273
23.06	57.5418
23.078	57.6516
23.096	57.75
23.114	57.837
23.132	57.9127
23.15	57.9726
23.168	58.0167
23.186	58.0455
23.204	58.0573
23.222	58.0514
23.24	58.0291
23.258	57.9921
23.276	57.9387
23.294	57.8712
23.312	57.7946
23.33	57.7074
23.348	57.6112
23.366	57.5119
23.384	57.4093
23.402	57.3034
23.42	57.1983
23.438	57.0937
23.456	56.9898
23.474	56.8899
23.492	56.7941
23.51	56.7021
23.528	56.6169
23.546	56.5392
23.564	56.4682
23.582	56.4054
23.6	56.3514
23.618	56.3056
23.636	56.2681
23.654	56.2387
23.672	56.2174
23.69	56.2044
23.708	56.1998
23.726	56.2033
23.744	56.2156
23.762	56.2373
23.78	56.2672
23.798	56.3076
23.816	56.361
23.834	56.425
23.852	56.5026
23.87	56.5981
23.888	56.7094
23.906	56.8383
23.924	56.9901
23.942	57.1643
23.96	57.3606
23.978	57.5834
23.996	57.8338
24.014	58.1101
24.032	58.416
24.05	58.754
24.068	59.1221
24.086	59.5212
24.104	59.9531
24.122	60.4188
24.14	60.9143
24.158	61.4353
24.176	61.9851
24.194	62.5601
24.212	63.1514
24.23	63.76
24.248	64.3867
24.266	65.019
24.284	65.6508
24.302	66.2889
24.32	66.9227
24.338	67.5418
24.356	68.1517
24.374	68.7493
24.392	69.328
24.41	69.8882
24.428	70.4309
24.446	70.9537
24.464	71.4541
24.482	71.933
24.5	72.3952
24.518	72.8445
24.536	73.2782
24.554	73.6986
24.572	74.1092
24.59	74.5093
24.608	74.899
24.626	75.281
24.644	75.6586
24.662	76.0312
24.68	76.3924
24.698	76.7371
24.716	77.0724
24.734	77.3901
24.752	77.6773
24.77	77.9387
24.788	78.1748
24.806	78.3643
24.824	78.4939
24.842	78.579
24.86	78.6026
24.878	78.5435
24.896	78.4095
24.914	78.1994
24.932	77.8944
24.95	77.4837
24.968	76.978
24.986	76.3714
25.004	75.6569
25.022	74.8326
25.04	73.9046
25.058	72.8792
25.076	71.7552
25.094	70.5276
25.112	69.2164
25.13	67.8407
25.148	66.3819
25.166	64.855
25.184	63.2943
25.202	61.7109
25.22	60.0822
25.238	58.4461
25.256	56.8414
25.274	55.2444
25.292	53.6659
25.31	52.1491
25.328	50.7168
25.346	49.3387
25.364	48.0458
25.382	46.875
25.4	45.8168
25.418	44.8667
25.436	44.0519
25.454	43.3938
25.472	42.8753
25.49	42.5032
25.508	42.2903
25.526	42.2417
25.544	42.35
25.562	42.6144
25.58	43.035
25.598	43.6183
25.616	44.3552
25.634	45.2309
25.652	46.2392
25.67	47.3943
25.688	48.6741
25.706	50.053
25.724	51.5369
25.742	53.1327
25.76	54.8056
25.778	56.5242
25.796	58.3173
25.814	60.1677
25.832	62.0326
25.85	63.8868
25.868	65.7669
25.886	67.6384
25.904	69.4567
25.922	71.2176
25.94	72.946
25.958	74.5993
25.976	76.1344
25.994	77.5681
26.012	78.9042
26.03	80.1099
26.048	81.1564
26.066	82.063
26.084	82.8263
26.102	83.4302
26.12	83.8626
26.138	84.1307
26.156	84.2399
26.174	84.1943
26.192	83.9883
26.21	83.6167
26.228	83.1053
26.246	82.4805
26.264	81.7329
26.282	80.8546
26.3	79.8847
26.318	78.8606
26.336	77.7595
26.354	76.5837
26.372	75.3747
26.39	74.17
26.408	72.9404
26.426	71.6952
26.444	70.4701
26.462	69.2946
26.48	68.1423
26.498	67.0231
26.516	65.9611
26.534	64.9743
26.552	64.0461
26.57	63.1812
26.588	62.3901
26.606	61.6802
26.624	61.0456
26.642	60.4852
26.66	59.9994
26.678	59.5899
26.696	59.2589
26.714	58.9992
26.732	58.8027
26.75	58.666
26.768	58.5961
26.786	58.5858
26.804	58.6271
26.822	58.7173
26.84	58.8641
26.858	59.0583
26.876	59.2898
26.894	59.5545
26.912	59.8614
26.93	60.2019
26.948	60.5661
26.966	60.9708
26.984	61.4563
27.002	61.9354
27.02	62.3131
27.028	62.4125