File: Bakgrunnsmateriale/MATLAB/FTIR/ftir_data/subBb/Mapping_121/C-4040-8_t54.asc
PE IR       SPECTRUM    SPECTRUM    ASCII       PEDS        1.60
  -1
C-B93A~1.ASC
17/03/27
18:55:27.00
17/03/27
18:55:53.00
tln
$C-4040-8_t0054$<tbV0>[-10.4,-2.6,8.0,0.0,27,1,0]
27.028
64

2002,4.07
MIRTGS : RIGHTBACK : INTERNAL 2
MIR : ON : INTERNAL 2
OPTKBR

0.200000
8
8.000000
FILLER
RATIO
SPECTRUM
UNLOCKED 256

DOUBLE
64
COMBINED
1
0
0

0.002000
RATIO

1
0
TRUE
51149
0
LEFT NOT FITTED RIGHT NOT FITTED 0
NONE
NONE
15600
12
4.427000
51148
TRUE
1 0 8 72 0 0 0 0

15798

#HDR
-1
-1
#GR
µM
%T
2.38419e-05
0.0
2.000000
0.002000
12515
8
101.85
31.8779
#DATA
2.000000	 64.5466
2.018000	 64.8249
2.036000	 64.8269
2.054000	 64.6278
2.072000	 64.8682
2.090000	 64.9731
2.108000	 64.6178
2.126000	 64.8832
2.144000	 64.9549
2.162000	 64.782
2.180000	 64.9552
2.198000	 64.9591
2.216000	 64.8435
2.234000	 64.9444
2.252000	 64.6665
2.270000	 65.0705
2.288000	 65.4497
2.306000	 66.2699
2.324000	 64.7987
2.342000	 64.9379
2.360000	 64.3267
2.378000	 64.6931
2.396000	 64.8413
2.414000	 65.3606
2.432000	 64.9043
2.450000	 65.2786
2.468000	 65.1526
2.486000	 64.9249
2.504000	 65.2139
2.522000	 65.239
2.540000	 64.924
2.558000	 65.1222
2.576000	 65.0255
2.594000	 64.7801
2.612000	 64.5512
2.630000	 65.1675
2.648000	 65.228
2.666000	 65.2505
2.684000	 65.1398
2.702000	 65.1122
2.720000	 65.0969
2.738000	 65.1901
2.756000	 65.1386
2.774000	 65.1728
2.792000	 65.1712
2.810000	 64.8371
2.828000	 65.1231
2.846000	 65.0941
2.864000	 64.9738
2.882000	 65.0375
2.900000	 65.1717
2.918000	 65.3538
2.936000	 65.1684
2.954000	 65.3976
2.972000	 65.2014
2.990000	 65.2052
3.008000	 65.3119
3.026000	 65.0178
3.044000	 65.0571
3.062000	 65.1893
3.080000	 65.2318
3.098000	 65.3465
3.116000	 65.4034
3.134000	 65.1687
3.152000	 65.3358
3.170000	 65.1705
3.188000	 65.1049
3.206000	 64.8745
3.224000	 65.2763
3.242000	 65.3339
3.260000	 65.2238
3.278000	 65.3185
3.296000	 64.9167
3.314000	 65.1894
3.332000	 64.9508
3.350000	 65.1782
3.368000	 65.1068
3.386000	 65.1145
3.404000	 65.0638
3.422000	 64.7486
3.440000	 65.1389
3.458000	 64.9821
3.476000	 65.1501
3.494000	 64.9994
3.512000	 65.0449
3.530000	 65.116
3.548000	 65.1979
3.566000	 65.2387
3.584000	 64.9653
3.602000	 65.212
3.620000	 65.3529
3.638000	 65.2204
3.656000	 65.2597
3.674000	 65.1533
3.692000	 65.2225
3.710000	 65.1671
3.728000	 65.1683
3.746000	 65.344
3.764000	 65.3031
3.782000	 65.2474
3.800000	 65.239
3.818000	 65.3125
3.836000	 65.372
3.854000	 65.3196
3.872000	 65.3507
3.890000	 65.2434
3.908000	 65.2934
3.926000	 65.2646
3.944000	 65.1842
3.962000	 65.1437
3.980000	 65.3528
3.998000	 65.1833
4.016000	 65.0926
4.034000	 65.4466
4.052000	 65.1005
4.070000	 65.2175
4.088000	 65.1171
4.106000	 65.2182
4.124000	 65.5101
4.141999	 65.0295
4.160000	 65.1584
4.178000	 65.2582
4.196000	 65.1969
4.214000	 65.2079
4.232000	 65.3237
4.250000	 65.1908
4.268000	 65.2847
4.286000	 65.3074
4.304000	 65.2037
4.322000	 65.1425
4.340000	 65.3955
4.358000	 65.328
4.375999	 65.375
4.394000	 65.2326
4.412000	 65.317
4.430000	 65.3361
4.448000	 65.4063
4.466000	 65.362
4.484000	 65.4099
4.502000	 65.3223
4.520000	 65.2697
4.538000	 65.2808
4.556000	 65.2994
4.574000	 65.3151
4.592000	 65.2264
4.609999	 65.2061
4.628000	 65.3838
4.646000	 65.3702
4.664000	 65.1783
4.682000	 65.3067
4.700000	 65.2389
4.718000	 65.2087
4.736000	 65.1566
4.754000	 65.2623
4.772000	 65.3243
4.790000	 65.141
4.808000	 65.2182
4.826000	 65.3731
4.843999	 64.9546
4.862000	 65.3116
4.880000	 65.3614
4.898000	 65.251
4.916000	 65.1771
4.934000	 65.2602
4.952000	 65.1442
4.970000	 65.1722
4.988000	 65.2736
5.006000	 65.291
5.024000	 65.2616
5.042000	 65.2271
5.060000	 65.2354
5.077999	 65.2342
5.096000	 65.2119
5.114000	 65.2211
5.132000	 65.271
5.150000	 65.2607
5.168000	 65.3326
5.186000	 65.4133
5.204000	 65.4119
5.222000	 65.4055
5.240000	 65.3594
5.258000	 65.2033
5.276000	 65.328
5.294000	 65.3615
5.312000	 65.2777
5.330000	 65.2366
5.348000	 65.2161
5.366000	 65.278
5.384000	 65.3168
5.402000	 65.3138
5.420000	 65.3485
5.438000	 65.2378
5.456000	 65.2925
5.474000	 65.3931
5.492000	 65.3728
5.510000	 65.2325
5.528000	 65.1864
5.546000	 65.3422
5.564000	 65.257
5.582000	 65.1668
5.600000	 65.1444
5.618000	 65.1454
5.636000	 65.2718
5.654000	 65.2744
5.672000	 65.2541
5.690000	 65.2816
5.708000	 65.2762
5.726000	 65.1881
5.744000	 65.1132
5.762000	 65.0727
5.780000	 65.0406
5.798000	 65.0018
5.816000	 65.0414
5.834000	 65.0659
5.852000	 65.2425
5.870000	 65.3669
5.888000	 65.3271
5.906000	 65.2547
5.923999	 65.2109
5.942000	 65.318
5.960000	 65.2421
5.978000	 65.1892
5.996000	 65.3132
6.014000	 65.29
6.032000	 65.1264
6.050000	 65.1146
6.068000	 65.1321
6.086000	 65.1395
6.104000	 65.0875
6.122000	 65.0385
6.140000	 65.1426
6.158000	 65.1897
6.176000	 65.1803
6.194000	 65.1312
6.212000	 65.0166
6.230000	 65.0189
6.248000	 65.0212
6.266000	 64.9459
6.284000	 64.9442
6.302000	 65.0078
6.320000	 65.0628
6.338000	 65.1118
6.356000	 65.1063
6.374000	 65.0723
6.392000	 64.982
6.410000	 64.8799
6.428000	 64.956
6.446000	 65.0091
6.464000	 64.9291
6.482000	 64.9693
6.500000	 65.0393
6.518000	 64.964
6.536000	 64.9222
6.554000	 64.9669
6.572000	 65.001
6.590000	 65.0277
6.608000	 65.0457
6.626000	 65.0713
6.644000	 65.116
6.662000	 65.1205
6.680000	 65.0794
6.698000	 65.0397
6.716000	 65.0721
6.734000	 65.1126
6.752000	 65.0536
6.770000	 64.9758
6.788000	 64.9656
6.806000	 65.0026
6.824000	 65.038
6.842000	 65.0043
6.860000	 64.8204
6.878000	 64.6703
6.896000	 64.8397
6.914000	 65.0656
6.932000	 65.0864
6.950000	 65.0319
6.968000	 64.9306
6.986000	 64.8303
7.004000	 64.8622
7.022000	 64.9803
7.040000	 65.0362
7.058000	 65.0322
7.076000	 65.0602
7.094000	 65.0627
7.112000	 65.0258
7.130000	 65.0634
7.148000	 65.1431
7.166000	 65.1863
7.184000	 65.2136
7.202000	 65.2279
7.220000	 65.2107
7.238000	 65.1635
7.256000	 65.1179
7.274000	 65.0706
7.292000	 64.9962
7.310000	 64.9403
7.328000	 64.9427
7.346000	 64.9767
7.364000	 65.0336
7.382000	 65.0821
7.400000	 65.0599
7.418000	 65.0153
7.436000	 65.0476
7.454000	 65.1215
7.472000	 65.1248
7.490000	 65.0558
7.508000	 65.0209
7.526000	 65.0684
7.544000	 65.134
7.562000	 65.1494
7.580000	 65.1206
7.598000	 65.1057
7.616000	 65.1547
7.634000	 65.2369
7.652000	 65.2725
7.670000	 65.2443
7.688000	 65.1922
7.706000	 65.1261
7.724000	 65.0533
7.742000	 65.0235
7.760000	 65.0643
7.778000	 65.1257
7.796000	 65.1469
7.814000	 65.1342
7.832000	 65.1192
7.850000	 65.0831
7.868000	 65.007
7.886000	 64.9466
7.904000	 64.9516
7.922000	 64.986
7.940000	 65.0094
7.958000	 65.0289
7.976000	 65.0317
7.994000	 64.9981
8.012000	 64.9827
8.030000	 65.0374
8.048000	 65.1011
8.065999	 65.0776
8.084000	 64.9794
8.102000	 64.9115
8.120000	 64.9367
8.138000	 65.0259
8.155999	 65.125
8.173999	 65.2202
8.192000	 65.3003
8.210000	 65.3147
8.228000	 65.2409
8.246000	 65.1533
8.263999	 65.1376
8.282000	 65.1787
8.300000	 65.1956
8.318000	 65.1426
8.336000	 65.0172
8.353999	 64.8613
8.372000	 64.7754
8.390000	 64.8323
8.408000	 64.9606
8.426000	 65.0005
8.443999	 64.8995
8.462000	 64.766
8.480000	 64.7247
8.498000	 64.8017
8.516000	 64.9447
8.533999	 65.084
8.552000	 65.1626
8.570000	 65.1424
8.588000	 65.0413
8.606000	 64.948
8.624000	 64.9617
8.641999	 65.0977
8.660000	 65.2768
8.678000	 65.4111
8.696000	 65.4731
8.714000	 65.4578
8.731999	 65.3239
8.750000	 65.0447
8.768000	 64.7035
8.786000	 64.4762
8.804000	 64.4836
8.821999	 64.68
8.840000	 64.9043
8.858000	 65.0321
8.876000	 65.0638
8.894000	 65.0726
8.911999	 65.0987
8.930000	 65.1173
8.948000	 65.0891
8.966000	 65.0113
8.984000	 64.9142
9.001999	 64.8262
9.020000	 64.7627
9.038000	 64.7386
9.056000	 64.7626
9.074000	 64.8118
9.092000	 64.8238
9.109999	 64.7427
9.128000	 64.5817
9.146000	 64.4367
9.164000	 64.4169
9.182000	 64.5478
9.199999	 64.7439
9.218000	 64.8766
9.236000	 64.8734
9.254000	 64.765
9.272000	 64.6437
9.289999	 64.586
9.308000	 64.6072
9.326000	 64.6727
9.344000	 64.737
9.362000	 64.7777
9.379999	 64.8048
9.398000	 64.8413
9.416000	 64.8938
9.434000	 64.9456
9.452000	 64.9731
9.469999	 64.9707
9.488000	 64.9509
9.506000	 64.9241
9.524000	 64.8854
9.542000	 64.8272
9.560000	 64.7611
9.577999	 64.7151
9.596000	 64.7069
9.614000	 64.7264
9.632000	 64.7455
9.650000	 64.7418
9.667999	 64.7122
9.686000	 64.6672
9.704000	 64.6196
9.722000	 64.576
9.740000	 64.539
9.757999	 64.5132
9.776000	 64.502
9.794000	 64.5016
9.812000	 64.5013
9.830000	 64.4923
9.847999	 64.4784
9.866000	 64.4718
9.884000	 64.4805
9.902000	 64.5015
9.920000	 64.5274
9.937999	 64.56
9.956000	 64.6146
9.974000	 64.7009
9.992000	 64.804
10.01	64.8864
10.028	64.9123
10.046	64.8796
10.064	64.8205
10.082	64.777
10.1	64.7716
10.118	64.7947
10.136	64.8191
10.154	64.8236
10.172	64.8039
10.19	64.769
10.208	64.7279
10.226	64.6859
10.244	64.6467
10.262	64.6181
10.28	64.6079
10.298	64.6201
10.316	64.647
10.334	64.6702
10.352	64.67
10.37	64.6353
10.388	64.574
10.406	64.5081
10.424	64.4623
10.442	64.4505
10.46	64.4716
10.478	64.5136
10.496	64.5625
10.514	64.6089
10.532	64.6475
10.55	64.6739
10.568	64.6826
10.586	64.669
10.604	64.6342
10.622	64.5883
10.64	64.5486
10.658	64.5319
10.676	64.5473
10.694	64.5921
10.712	64.6534
10.73	64.7148
10.748	64.762
10.766	64.7867
10.784	64.7869
10.802	64.7666
10.82	64.7341
10.838	64.7002
10.856	64.675
10.874	64.6644
10.892	64.6666
10.91	64.6725
10.928	64.6717
10.946	64.6578
10.964	64.6346
10.982	64.6135
11	64.6051
11.018	64.613
11.036	64.6291
11.054	64.6377
11.072	64.6246
11.09	64.5827
11.108	64.5162
11.126	64.4377
11.144	64.3611
11.162	64.2977
11.18	64.2536
11.198	64.231
11.216	64.23
11.234	64.2483
11.252	64.2818
11.27	64.3253
11.288	64.3727
11.306	64.4195
11.324	64.4629
11.342	64.5018
11.36	64.5347
11.378	64.5592
11.396	64.5727
11.414	64.5731
11.432	64.5611
11.45	64.5405
11.468	64.5175
11.486	64.4977
11.504	64.4847
11.522	64.4788
11.54	64.4785
11.558	64.4822
11.576	64.4895
11.594	64.5008
11.612	64.5163
11.63	64.5346
11.648	64.5527
11.666	64.5662
11.684	64.571
11.702	64.5656
11.72	64.5518
11.738	64.5346
11.756	64.5198
11.774	64.512
11.792	64.5134
11.81	64.523
11.828	64.5375
11.846	64.5525
11.864	64.5644
11.882	64.5708
11.9	64.5694
11.918	64.558
11.936	64.5345
11.954	64.4973
11.972	64.4471
11.99	64.3878
12.008	64.3276
12.026	64.2775
12.044	64.2487
12.062	64.2479
12.08	64.2748
12.098	64.3212
12.116	64.3733
12.134	64.4158
12.152	64.4371
12.17	64.4329
12.188	64.4074
12.206	64.3719
12.224	64.3412
12.242	64.3284
12.26	64.3415
12.278	64.3808
12.296	64.4388
12.314	64.5024
12.332	64.5573
12.35	64.5921
12.368	64.6007
12.386	64.5844
12.404	64.5506
12.422	64.5097
12.44	64.4722
12.458	64.4441
12.476	64.4256
12.494	64.4114
12.512	64.3925
12.53	64.3601
12.548	64.309
12.566	64.2398
12.584	64.1588
12.602	64.0768
12.62	64.0057
12.638	63.9559
12.656	63.9337
12.674	63.9404
12.692	63.972
12.71	64.0204
12.728	64.0755
12.746	64.1276
12.764	64.1695
12.782	64.1981
12.8	64.2142
12.818	64.2218
12.836	64.226
12.854	64.2307
12.872	64.238
12.89	64.247
12.908	64.2554
12.926	64.2597
12.944	64.2573
12.962	64.2466
12.98	64.2277
12.998	64.2024
13.016	64.1727
13.034	64.1405
13.052	64.1065
13.07	64.0706
13.088	64.0327
13.106	63.9931
13.124	63.9533
13.142	63.9166
13.16	63.8869
13.178	63.8692
13.196	63.8675
13.214	63.8854
13.232	63.9247
13.25	63.985
13.268	64.0632
13.286	64.1527
13.304	64.2447
13.322	64.3282
13.34	64.3917
13.358	64.4259
13.376	64.425
13.394	64.3888
13.412	64.3231
13.43	64.2381
13.448	64.1472
13.466	64.0635
13.484	63.9978
13.502	63.9553
13.52	63.936
13.538	63.934
13.556	63.9399
13.574	63.9433
13.592	63.935
13.61	63.9098
13.628	63.867
13.646	63.8103
13.664	63.7461
13.682	63.6821
13.7	63.625
13.718	63.5792
13.736	63.5464
13.754	63.5249
13.772	63.5117
13.79	63.5033
13.808	63.4973
13.826	63.4928
13.844	63.4904
13.862	63.4926
13.88	63.502
13.898	63.5206
13.916	63.5485
13.934	63.5843
13.952	63.6247
13.97	63.6652
13.988	63.7012
14.006	63.7293
14.024	63.7479
14.042	63.7578
14.06	63.762
14.078	63.7652
14.096	63.7718
14.114	63.786
14.132	63.8099
14.15	63.8436
14.168	63.8849
14.186	63.9291
14.204	63.9708
14.222	64.0032
14.24	64.0209
14.258	64.0197
14.276	63.9976
14.294	63.9551
14.312	63.8946
14.33	63.8203
14.348	63.7376
14.366	63.653
14.384	63.573
14.402	63.5029
14.42	63.4468
14.438	63.4071
14.456	63.3843
14.474	63.3766
14.492	63.3807
14.51	63.3914
14.528	63.4031
14.546	63.4106
14.564	63.4098
14.582	63.3982
14.6	63.3748
14.618	63.3404
14.636	63.2978
14.654	63.2508
14.672	63.2027
14.69	63.1568
14.708	63.1153
14.726	63.08
14.744	63.0515
14.762	63.0293
14.78	63.0127
14.798	63.0011
14.816	62.9938
14.834	62.9906
14.852	62.991
14.87	62.9947
14.888	63.0011
14.906	63.0095
14.924	63.0187
14.942	63.027
14.96	63.033
14.978	63.0354
14.996	63.0338
15.014	63.0287
15.032	63.0218
15.05	63.0161
15.068	63.0144
15.086	63.0196
15.104	63.0343
15.122	63.0603
15.14	63.0974
15.158	63.1439
15.176	63.1967
15.194	63.2516
15.212	63.3032
15.23	63.3468
15.248	63.3786
15.266	63.3955
15.284	63.3963
15.302	63.3814
15.32	63.3526
15.338	63.3121
15.356	63.2628
15.374	63.208
15.392	63.1498
15.41	63.09
15.428	63.0297
15.446	62.9693
15.464	62.909
15.482	62.8491
15.5	62.7901
15.518	62.7329
15.536	62.6791
15.554	62.6307
15.572	62.5898
15.59	62.5595
15.608	62.542
15.626	62.5388
15.644	62.5516
15.662	62.5798
15.68	62.6221
15.698	62.6764
15.716	62.7391
15.734	62.8056
15.752	62.8717
15.77	62.9335
15.788	62.9862
15.806	63.0274
15.824	63.0559
15.842	63.0705
15.86	63.0726
15.878	63.0641
15.896	63.047
15.914	63.0252
15.932	63.0017
15.95	62.9789
15.968	62.9593
15.986	62.9449
16.004	62.9362
16.022	62.9338
16.04	62.9374
16.058	62.9465
16.076	62.9605
16.094	62.9791
16.112	63.0018
16.13	63.0284
16.148	63.0591
16.166	63.0936
16.184	63.1314
16.202	63.172
16.22	63.2138
16.238	63.2549
16.256	63.2936
16.274	63.3265
16.292	63.3515
16.31	63.3667
16.328	63.3699
16.346	63.3608
16.364	63.3393
16.382	63.3066
16.4	63.265
16.418	63.216
16.436	63.1635
16.454	63.1101
16.472	63.058
16.49	63.0103
16.508	62.9684
16.526	62.9333
16.544	62.9052
16.562	62.8832
16.58	62.8667
16.598	62.8539
16.616	62.8435
16.634	62.8345
16.652	62.8254
16.67	62.8157
16.688	62.8049
16.706	62.7932
16.724	62.781
16.742	62.7688
16.76	62.7572
16.778	62.7466
16.796	62.7373
16.814	62.7287
16.832	62.7206
16.85	62.7113
16.868	62.6995
16.886	62.6841
16.904	62.6629
16.922	62.6351
16.94	62.5993
16.958	62.5552
16.976	62.503
16.994	62.4435
17.012	62.379
17.03	62.3108
17.048	62.2432
17.066	62.1783
17.084	62.1197
17.102	62.0709
17.12	62.0334
17.138	62.0097
17.156	61.9995
17.174	62.0032
17.192	62.0179
17.21	62.0421
17.228	62.0716
17.246	62.1025
17.264	62.1318
17.282	62.1541
17.3	62.1678
17.318	62.1693
17.336	62.1582
17.354	62.1336
17.372	62.0969
17.39	62.0493
17.408	61.9938
17.426	61.9337
17.444	61.871
17.462	61.8109
17.48	61.7546
17.498	61.706
17.516	61.6663
17.534	61.6368
17.552	61.6177
17.57	61.6091
17.588	61.6095
17.606	61.6177
17.624	61.6322
17.642	61.6506
17.66	61.672
17.678	61.6938
17.696	61.7158
17.714	61.7366
17.732	61.7565
17.75	61.7751
17.768	61.7935
17.786	61.8122
17.804	61.8326
17.822	61.8552
17.84	61.8816
17.858	61.9121
17.876	61.9473
17.894	61.987
17.912	62.0312
17.93	62.0787
17.948	62.1291
17.966	62.1802
17.984	62.2311
18.002	62.2794
18.02	62.3237
18.038	62.3625
18.056	62.3945
18.074	62.419
18.092	62.4354
18.11	62.4438
18.128	62.4448
18.146	62.4387
18.164	62.4269
18.182	62.4103
18.2	62.3901
18.218	62.3678
18.236	62.3441
18.254	62.3201
18.272	62.2962
18.29	62.2727
18.308	62.2497
18.326	62.2266
18.344	62.2034
18.362	62.1793
18.38	62.1543
18.398	62.1277
18.416	62.0996
18.434	62.0701
18.452	62.0398
18.47	62.0091
18.488	61.979
18.506	61.9498
18.524	61.9232
18.542	61.8993
18.56	61.8794
18.578	61.8637
18.596	61.8528
18.614	61.8466
18.632	61.8446
18.65	61.8466
18.668	61.8516
18.686	61.8593
18.704	61.8679
18.722	61.8772
18.74	61.8862
18.758	61.8949
18.776	61.903
18.794	61.9111
18.812	61.9196
18.83	61.9294
18.848	61.9418
18.866	61.9572
18.884	61.9773
18.902	62.002
18.92	62.0327
18.938	62.0683
18.956	62.1091
18.974	62.1532
18.992	62.1994
19.01	62.2456
19.028	62.2889
19.046	62.3274
19.064	62.3576
19.082	62.3781
19.1	62.3854
19.118	62.379
19.136	62.3565
19.154	62.3186
19.172	62.2644
19.19	62.1954
19.208	62.1133
19.226	62.0197
19.244	61.9188
19.262	61.8115
19.28	61.7044
19.298	61.5976
19.316	61.4983
19.334	61.4062
19.352	61.3276
19.37	61.262
19.388	61.2136
19.406	61.1821
19.424	61.1684
19.442	61.1727
19.46	61.1931
19.478	61.2298
19.496	61.2789
19.514	61.34
19.532	61.4088
19.55	61.4834
19.568	61.561
19.586	61.6379
19.604	61.7131
19.622	61.7823
19.64	61.8458
19.658	61.9002
19.676	61.9459
19.694	61.9812
19.712	62.0062
19.73	62.0214
19.748	62.0266
19.766	62.0232
19.784	62.0114
19.802	61.9927
19.82	61.968
19.838	61.9382
19.856	61.9049
19.874	61.868
19.892	61.8293
19.91	61.7884
19.928	61.7466
19.946	61.7036
19.964	61.66
19.982	61.6159
20	61.5714
20.018	61.5267
20.036	61.4822
20.054	61.4384
20.072	61.3953
20.09	61.3545
20.108	61.3155
20.126	61.2806
20.144	61.2495
20.162	61.2241
20.18	61.2048
20.198	61.1924
20.216	61.1885
20.234	61.1925
20.252	61.2054
20.27	61.227
20.288	61.2564
20.306	61.2939
20.324	61.3372
20.342	61.3854
20.36	61.4374
20.378	61.4894
20.396	61.5421
20.414	61.5904
20.432	61.6348
20.45	61.6718
20.468	61.6997
20.486	61.7181
20.504	61.7242
20.522	61.7186
20.54	61.7003
20.558	61.6691
20.576	61.6265
20.594	61.5723
20.612	61.5081
20.63	61.4366
20.648	61.3573
20.666	61.275
20.684	61.1891
20.702	61.1033
20.72	61.0199
20.738	60.939
20.756	60.8646
20.774	60.7959
20.792	60.7347
20.81	60.6817
20.828	60.6365
20.846	60.5996
20.864	60.5707
20.882	60.5491
20.9	60.535
20.918	60.527
20.936	60.5243
20.954	60.5268
20.972	60.5324
20.99	60.5416
21.008	60.5528
21.026	60.5656
21.044	60.5797
21.062	60.5942
21.08	60.6093
21.098	60.6246
21.116	60.6399
21.134	60.6552
21.152	60.6707
21.17	60.6862
21.188	60.7016
21.206	60.7171
21.224	60.7323
21.242	60.7468
21.26	60.7608
21.278	60.7732
21.296	60.7843
21.314	60.7934
21.332	60.7994
21.35	60.8027
21.368	60.8017
21.386	60.7961
21.404	60.7857
21.422	60.7689
21.44	60.7463
21.458	60.717
21.476	60.6806
21.494	60.6375
21.512	60.5879
21.53	60.5313
21.548	60.4695
21.566	60.4031
21.584	60.332
21.602	60.2592
21.62	60.1841
21.638	60.1086
21.656	60.0359
21.674	59.9647
21.692	59.8982
21.71	59.8368
21.728	59.7808
21.746	59.7325
21.764	59.6917
21.782	59.6579
21.8	59.6314
21.818	59.6119
21.836	59.5974
21.854	59.5886
21.872	59.5835
21.89	59.5781
21.908	59.5743
21.926	59.5673
21.944	59.554
21.962	59.5359
21.98	59.507
21.998	59.4673
22.016	59.4159
22.034	59.3493
22.052	59.2682
22.07	59.1724
22.088	59.0609
22.106	58.9343
22.124	58.7949
22.142	58.6418
22.16	58.477
22.178	58.3064
22.196	58.1276
22.214	57.9459
22.232	57.768
22.25	57.5903
22.268	57.421
22.286	57.2648
22.304	57.1191
22.322	56.9921
22.34	56.8847
22.358	56.7969
22.376	56.7336
22.394	56.6946
22.412	56.6795
22.43	56.6894
22.448	56.7246
22.466	56.7823
22.484	56.8613
22.502	56.9625
22.52	57.08
22.538	57.2122
22.556	57.3597
22.574	57.5144
22.592	57.6765
22.61	57.8446
22.628	58.0108
22.646	58.1769
22.664	58.34
22.682	58.493
22.7	58.6383
22.718	58.7729
22.736	58.892
22.754	58.9976
22.772	59.0878
22.79	59.1604
22.808	59.2161
22.826	59.2555
22.844	59.2782
22.862	59.2842
22.88	59.2755
22.898	59.2526
22.916	59.2151
22.934	59.1667
22.952	59.1081
22.97	59.0389
22.988	58.9635
23.006	58.8822
23.024	58.7948
23.042	58.706
23.06	58.6157
23.078	58.5242
23.096	58.4355
23.114	58.3491
23.132	58.2657
23.15	58.1887
23.168	58.1178
23.186	58.0534
23.204	57.9981
23.222	57.9513
23.24	57.9137
23.258	57.8878
23.276	57.8734
23.294	57.8705
23.312	57.8805
23.33	57.9031
23.348	57.9386
23.366	57.9888
23.384	58.0529
23.402	58.1317
23.42	58.2279
23.438	58.3417
23.456	58.4726
23.474	58.6218
23.492	58.7903
23.51	58.977
23.528	59.1799
23.546	59.3993
23.564	59.6351
23.582	59.8829
23.6	60.1418
23.618	60.413
23.636	60.6904
23.654	60.9719
23.672	61.26
23.69	61.5468
23.708	61.8272
23.726	62.1059
23.744	62.3747
23.762	62.6269
23.78	62.8676
23.798	63.0902
23.816	63.2863
23.834	63.4605
23.852	63.6089
23.87	63.7248
23.888	63.8084
23.906	63.8612
23.924	63.8828
23.942	63.8705
23.96	63.827
23.978	63.7588
23.996	63.666
24.014	63.5468
24.032	63.4135
24.05	63.2724
24.068	63.1161
24.086	62.9583
24.104	62.8115
24.122	62.6663
24.14	62.5328
24.158	62.4261
24.176	62.3417
24.194	62.2815
24.212	62.2565
24.23	62.269
24.248	62.3154
24.266	62.4008
24.284	62.5294
24.302	62.6993
24.32	62.9068
24.338	63.1492
24.356	63.4322
24.374	63.7465
24.392	64.0792
24.41	64.4366
24.428	64.8147
24.446	65.1943
24.464	65.5696
24.482	65.9495
24.5	66.3162
24.518	66.6552
24.536	66.9776
24.554	67.2738
24.572	67.5294
24.59	67.7472
24.608	67.928
24.626	68.0618
24.644	68.1421
24.662	68.1737
24.68	68.1586
24.698	68.0982
24.716	67.9905
24.734	67.8384
24.752	67.6468
24.77	67.4094
24.788	67.1292
24.806	66.8255
24.824	66.509
24.842	66.1622
24.86	65.8116
24.878	65.4884
24.896	65.1769
24.914	64.884
24.932	64.6469
24.95	64.4825
24.968	64.3666
24.986	64.3313
25.004	64.4115
25.022	64.5941
25.04	64.8802
25.058	65.2894
25.076	65.8338
25.094	66.5036
25.112	67.2958
25.13	68.2093
25.148	69.2584
25.166	70.4253
25.184	71.6793
25.202	73.0146
25.22	74.4542
25.238	75.9466
25.256	77.4397
25.274	78.9671
25.292	80.512
25.31	82.0127
25.328	83.4362
25.346	84.826
25.364	86.1371
25.382	87.3166
25.4	88.3754
25.418	89.3218
25.436	90.1206
25.454	90.7437
25.472	91.2093
25.49	91.5154
25.508	91.6535
25.526	91.6182
25.544	91.415
25.562	91.051
25.58	90.5325
25.598	89.8471
25.616	89.0075
25.634	88.0372
25.652	86.9485
25.67	85.7226
25.688	84.3821
25.706	82.9541
25.724	81.4332
25.742	79.8117
25.76	78.1241
25.778	76.4009
25.796	74.6088
25.814	72.7703
25.832	70.9372
25.85	69.1387
25.868	67.3281
25.886	65.5528
25.904	63.8726
25.922	62.2881
25.94	60.7648
25.958	59.3754
25.976	58.1927
25.994	57.1873
26.012	56.3533
26.03	55.7483
26.048	55.4229
26.066	55.345
26.084	55.5185
26.102	55.9674
26.12	56.7139
26.138	57.7538
26.156	59.0622
26.174	60.6137
26.192	62.4187
26.21	64.5018
26.228	66.7858
26.246	69.1903
26.264	71.7444
26.282	74.4723
26.3	77.2604
26.318	79.9978
26.336	82.7515
26.354	85.5171
26.372	88.1753
26.39	90.6177
26.408	92.9274
26.426	95.0809
26.444	96.9807
26.462	98.5445
26.48	99.834
26.498	100.838
26.516	101.513
26.534	101.824
26.552	101.79
26.57	101.423
26.588	100.729
26.606	99.7036
26.624	98.3261
26.642	96.6386
26.66	94.6902
26.678	92.4985
26.696	90.0098
26.714	87.2894
26.732	84.4136
26.75	81.4133
26.768	78.2204
26.786	74.9007
26.804	71.5307
26.822	68.1401
26.84	64.6624
26.858	61.1586
26.876	57.6986
26.894	54.3126
26.912	50.942
26.93	47.6314
26.948	44.4333
26.966	41.2743
26.984	37.9634
27.002	34.9007
27.02	32.5248
27.028	31.8779