File: Bakgrunnsmateriale/MATLAB/FTIR/ftir_data/subBb/Mapping_121/C-4040-8_t65_cm-1.asc
PE IR       SPECTRUM    SPECTRUM    ASCII       PEDS        1.60
  -1
C-9CEE~1.ASC
17/03/27
19:46:50.00
17/03/27
19:46:50.00
tln
$C-4040-8_t0065$<tbV0>[-10.4,0.0,8.0,0.0,27,1,0]
370
64

2002,4.07
MIRTGS : RIGHTBACK : INTERNAL 2
MIR : ON : INTERNAL 2
OPTKBR

0.200000
8
8.000000
FILLER
RATIO
SPECTRUM
UNLOCKED 256

DOUBLE
64
COMBINED
1
0
0

1.000000
RATIO

1
0
TRUE
51149
0
LEFT NOT FITTED RIGHT NOT FITTED 0
NONE
NONE
15600
12
4.427000
51148
TRUE
1 0 8 72 0 0 0 0

15798

#HDR
-1
-1
#GR
CM-1
%T
2.38419e-05
0.0
5000
-1.000000
4631
8
90.842
37.8965
#DATA
5000	64.7607
4996	64.8628
4992	64.8957
4988	65.069
4984	64.9109
4980	64.6456
4976	64.929
4972	65.4156
4968	65.4429
4964	65.0158
4960	64.6033
4956	64.3815
4952	64.4795
4948	64.8792
4944	65.1053
4940	65.0717
4936	65.0553
4932	65.1515
4928	65.2203
4924	65.0609
4920	64.8143
4916	64.8277
4912	64.9685
4908	65.1073
4904	65.3592
4900	65.4363
4896	65.2335
4892	64.8241
4888	64.0174
4884	63.3706
4880	63.8231
4876	64.9372
4872	65.5042
4868	65.1866
4864	64.5628
4860	64.2786
4856	64.4498
4852	64.7108
4848	64.8106
4844	64.8253
4840	64.6983
4836	64.5174
4832	64.5352
4828	64.6767
4824	64.7908
4820	64.8208
4816	64.7885
4812	64.7816
4808	64.7945
4804	64.81
4800	64.7393
4796	64.5519
4792	64.5477
4788	64.773
4784	64.8481
4780	64.804
4776	64.793
4772	64.5844
4768	64.352
4764	64.3681
4760	64.457
4756	64.6295
4752	64.8085
4748	64.7641
4744	64.6663
4740	64.5494
4736	64.4047
4732	64.3389
4728	64.3457
4724	64.4381
4720	64.5384
4716	64.6412
4712	64.8023
4708	64.8851
4704	64.7568
4700	64.5489
4696	64.5076
4692	64.6742
4688	64.758
4684	64.6419
4680	64.5331
4676	64.4553
4672	64.3717
4668	64.4788
4664	64.7657
4660	64.802
4656	64.6276
4652	64.6454
4648	64.8282
4644	64.956
4640	64.9289
4636	64.7862
4632	64.6993
4628	64.7581
4624	64.7373
4620	64.5922
4616	64.6054
4612	64.6328
4608	64.5941
4604	64.7603
4600	64.943
4596	64.8347
4592	64.5716
4588	64.5856
4584	64.9856
4580	65.213
4576	64.9591
4572	64.6803
4568	64.7323
4564	64.9469
4560	64.9917
4556	64.7362
4552	64.426
4548	64.39
4544	64.5998
4540	64.8185
4536	64.9308
4532	64.8401
4528	64.5499
4524	64.5358
4520	64.9861
4516	65.3804
4512	65.5049
4508	65.4503
4504	65.1839
4500	64.912
4496	64.9193
4492	65.0993
4488	65.172
4484	65.1246
4480	65.2023
4476	65.2765
4472	65.0342
4468	64.7254
4464	64.7857
4460	65.1639
4456	65.2693
4452	65.0155
4448	64.9891
4444	65.1396
4440	65.1509
4436	65.316
4432	65.4372
4428	65.3082
4424	65.2949
4420	65.1694
4416	64.8355
4412	64.7376
4408	64.8518
4404	64.8798
4400	64.521
4396	64.1825
4392	63.8361
4388	63.7059
4384	66.6044
4380	67.3073
4376	63.2003
4372	65.5195
4368	72.6871
4364	69.8184
4360	60.8074
4356	58.9401
4352	63.2957
4348	65.2933
4344	65.4552
4340	66.2348
4336	65.9005
4332	65.4097
4328	65.3195
4324	65.1018
4320	65.0855
4316	65.2561
4312	65.1845
4308	64.969
4304	64.9061
4300	64.925
4296	65.0019
4292	65.0616
4288	65.095
4284	65.3713
4280	65.7877
4276	65.7961
4272	65.4375
4268	65.1389
4264	64.991
4260	65.1222
4256	65.3206
4252	65.1634
4248	64.8825
4244	64.759
4240	64.7029
4236	64.7927
4232	65.0212
4228	65.1539
4224	65.1141
4220	65.0574
4216	65.1043
4212	64.952
4208	64.6801
4204	64.6646
4200	64.7932
4196	64.8954
4192	65.1306
4188	65.2475
4184	64.7398
4180	64.3898
4176	64.8132
4172	65.2632
4168	65.1709
4164	64.8803
4160	64.8923
4156	64.9661
4152	64.9333
4148	65.0095
4144	65.1982
4140	65.2842
4136	65.0908
4132	64.7939
4128	64.6857
4124	64.7095
4120	64.6412
4116	64.5267
4112	64.5347
4108	64.6567
4104	64.7718
4100	64.9083
4096	65.0852
4092	65.1477
4088	65.148
4084	65.148
4080	65.1604
4076	65.2683
4072	65.3236
4068	65.1426
4064	64.8446
4060	64.7684
4056	64.972
4052	65.1671
4048	65.0892
4044	64.8574
4040	64.7915
4036	64.8479
4032	64.8443
4028	64.7768
4024	64.8241
4020	65.1088
4016	65.3882
4012	65.3734
4008	65.1548
4004	65.0251
4000	65.0286
3996	65.0012
3992	64.9207
3988	64.7878
3984	64.6388
3980	64.6416
3976	64.7506
3972	64.8243
3968	64.8698
3964	64.9061
3960	64.9389
3956	64.9641
3952	65.0267
3948	65.1028
3944	65.1001
3940	64.9947
3936	64.9012
3932	64.9075
3928	64.8011
3924	64.6595
3920	64.733
3916	64.8795
3912	64.9197
3908	64.8212
3904	64.7281
3900	64.8787
3896	65.1305
3892	65.1762
3888	65.0722
3884	64.9686
3880	64.9664
3876	65.0776
3872	65.1903
3868	65.2092
3864	65.0797
3860	64.935
3856	64.9834
3852	65.0487
3848	64.9934
3844	65.0066
3840	65.0763
3836	65.0688
3832	64.9278
3828	64.8025
3824	64.9366
3820	65.1582
3816	65.1808
3812	65.1479
3808	65.1855
3804	65.1709
3800	65.0767
3796	65.0346
3792	65.1301
3788	65.2779
3784	65.3461
3780	65.2717
3776	65.1203
3772	65.0759
3768	65.1898
3764	65.2699
3760	65.1608
3756	65.0116
3752	65.0028
3748	65.0039
3744	64.9861
3740	64.9982
3736	64.9982
3732	65.1093
3728	65.2514
3724	65.2353
3720	65.1414
3716	65.0737
3712	65.052
3708	65.0283
3704	64.9053
3700	64.8077
3696	64.9146
3692	65.0773
3688	65.1729
3684	65.217
3680	65.2193
3676	65.2467
3672	65.2267
3668	65.1209
3664	65.066
3660	65.0911
3656	65.1379
3652	65.1054
3648	64.9935
3644	64.9101
3640	64.8704
3636	64.8381
3632	64.7815
3628	64.7756
3624	64.8439
3620	64.8915
3616	64.9808
3612	65.0726
3608	64.927
3604	64.7043
3600	64.7457
3596	64.8491
3592	64.8546
3588	64.925
3584	64.97
3580	65.0193
3576	65.1719
3572	65.1918
3568	64.982
3564	64.8181
3560	64.8842
3556	64.9741
3552	64.9539
3548	64.9046
3544	64.8993
3540	64.9385
3536	64.9337
3532	64.9031
3528	64.9146
3524	64.9344
3520	64.932
3516	64.9746
3512	65.0443
3508	65.0414
3504	64.9887
3500	64.9539
3496	64.8885
3492	64.9069
3488	65.1501
3484	65.3239
3480	65.2338
3476	65.0827
3472	65.0795
3468	65.1721
3464	65.1686
3460	65.2311
3456	65.4524
3452	65.4793
3448	65.258
3444	65.1105
3440	65.1367
3436	65.1746
3432	65.142
3428	65.113
3424	65.2009
3420	65.3003
3416	65.2306
3412	65.1194
3408	65.0841
3404	65.0868
3400	65.1989
3396	65.3911
3392	65.5243
3388	65.5175
3384	65.3341
3380	65.1539
3376	65.1302
3372	65.2133
3368	65.3016
3364	65.2843
3360	65.1753
3356	65.1266
3352	65.0759
3348	64.9487
3344	64.937
3340	65.0124
3336	65.0348
3332	65.0563
3328	65.1581
3324	65.2348
3320	65.1531
3316	65.0657
3312	65.028
3308	65.0451
3304	65.1748
3300	65.2291
3296	65.161
3292	65.074
3288	65.0084
3284	65.0633
3280	65.1658
3276	65.1628
3272	65.145
3268	65.1526
3264	65.086
3260	65.0896
3256	65.264
3252	65.3396
3248	65.2381
3244	65.1399
3240	65.0831
3236	65.0729
3232	65.1593
3228	65.1968
3224	65.0654
3220	64.991
3216	65.0245
3212	65.0653
3208	65.138
3204	65.1828
3200	65.175
3196	65.0954
3192	64.9955
3188	65.0642
3184	65.2379
3180	65.3134
3176	65.2928
3172	65.3073
3168	65.2966
3164	65.2008
3160	65.2204
3156	65.3189
3152	65.2752
3148	65.1452
3144	65.0499
3140	65.024
3136	65.1572
3132	65.3261
3128	65.1834
3124	64.8738
3120	64.8381
3116	64.966
3112	64.988
3108	65.0682
3104	65.2836
3100	65.3686
3096	65.3281
3092	65.2746
3088	65.1467
3084	65.0159
3080	65.0167
3076	65.1031
3072	65.1265
3068	65.1418
3064	65.2268
3060	65.2997
3056	65.3282
3052	65.2939
3048	65.1882
3044	65.0782
3040	65.0773
3036	65.193
3032	65.2105
3028	65.1387
3024	65.17
3020	65.2295
3016	65.2
3012	65.0927
3008	64.9649
3004	64.8536
3000	64.8606
2996	65.0331
2992	65.1332
2988	65.0728
2984	65.061
2980	65.1197
2976	65.1544
2972	65.2229
2968	65.3192
2964	65.326
2960	65.2338
2956	65.1123
2952	65.0309
2948	65.019
2944	65.0603
2940	65.1234
2936	65.0846
2932	64.9269
2928	64.8465
2924	64.8304
2920	64.7556
2916	64.6974
2912	64.7583
2908	64.8924
2904	65.014
2900	65.084
2896	65.0901
2892	65.1018
2888	65.1424
2884	65.1535
2880	65.1123
2876	65.0874
2872	65.1277
2868	65.1368
2864	65.1048
2860	65.0918
2856	65.0288
2852	64.9138
2848	64.9499
2844	65.1122
2840	65.1492
2836	65.0944
2832	65.064
2828	65.0802
2824	65.1641
2820	65.2422
2816	65.2362
2812	65.1983
2808	65.2282
2804	65.2687
2800	65.2313
2796	65.1527
2792	65.0572
2788	64.9841
2784	64.9696
2780	65.008
2776	65.1262
2772	65.2243
2768	65.1801
2764	65.0773
2760	64.9688
2756	64.931
2752	65.0427
2748	65.1207
2744	65.1072
2740	65.1102
2736	65.0926
2732	65.0805
2728	65.148
2724	65.2152
2720	65.1827
2716	65.0998
2712	65.1057
2708	65.1766
2704	65.1736
2700	65.0881
2696	64.982
2692	64.9395
2688	65.0216
2684	65.1476
2680	65.2072
2676	65.2302
2672	65.2832
2668	65.2909
2664	65.2047
2660	65.1535
2656	65.1498
2652	65.112
2648	65.0883
2644	65.119
2640	65.1624
2636	65.1774
2632	65.1639
2628	65.168
2624	65.2177
2620	65.2454
2616	65.2529
2612	65.2912
2608	65.2852
2604	65.2341
2600	65.2242
2596	65.2277
2592	65.1552
2588	65.0759
2584	65.1354
2580	65.1971
2576	65.1508
2572	65.1257
2568	65.1338
2564	65.1361
2560	65.1618
2556	65.2259
2552	65.2574
2548	65.2059
2544	65.168
2540	65.1718
2536	65.1166
2532	65.0433
2528	65.0473
2524	65.1377
2520	65.2823
2516	65.3404
2512	65.2336
2508	65.0724
2504	64.937
2500	64.9084
2496	65.0115
2492	65.0849
2488	65.12
2484	65.1807
2480	65.2084
2476	65.2047
2472	65.1783
2468	65.1283
2464	65.102
2460	65.1358
2456	65.2026
2452	65.2431
2448	65.2408
2444	65.2279
2440	65.1666
2436	65.09
2432	65.1142
2428	65.1966
2424	65.3318
2420	65.4068
2416	65.2256
2412	64.9573
2408	64.9076
2404	65.097
2400	65.2035
2396	65.1632
2392	65.1929
2388	65.2313
2384	65.1775
2380	65.1097
2376	65.0944
2372	65.1181
2368	65.1453
2364	65.1541
2360	65.1824
2356	65.228
2352	65.2106
2348	65.1479
2344	65.1311
2340	65.1594
2336	65.2146
2332	65.2915
2328	65.3443
2324	65.3694
2320	65.3128
2316	65.2056
2312	65.1702
2308	65.2102
2304	65.2812
2300	65.2935
2296	65.2518
2292	65.2349
2288	65.23
2284	65.1945
2280	65.1479
2276	65.1587
2272	65.1736
2268	65.1396
2264	65.153
2260	65.2291
2256	65.317
2252	65.3688
2248	65.3551
2244	65.2953
2240	65.2507
2236	65.2901
2232	65.3164
2228	65.2531
2224	65.1874
2220	65.2128
2216	65.281
2212	65.249
2208	65.1802
2204	65.1894
2200	65.1768
2196	65.1078
2192	65.0599
2188	65.043
2184	65.0693
2180	65.1443
2176	65.1923
2172	65.1972
2168	65.2171
2164	65.2577
2160	65.2699
2156	65.2406
2152	65.32
2148	65.4267
2144	65.3328
2140	65.2281
2136	65.2291
2132	65.1877
2128	65.1582
2124	65.2101
2120	65.282
2116	65.2739
2112	65.1686
2108	65.0976
2104	65.1216
2100	65.1564
2096	65.1376
2092	65.1462
2088	65.2603
2084	65.3912
2080	65.3751
2076	65.2224
2072	65.1649
2068	65.2585
2064	65.2537
2060	65.1196
2056	65.0465
2052	65.0826
2048	65.138
2044	65.1229
2040	65.1121
2036	65.1877
2032	65.3046
2028	65.3576
2024	65.2882
2020	65.1433
2016	65.0454
2012	65.0875
2008	65.1437
2004	65.1531
2000	65.1909
1996	65.2506
1992	65.3022
1988	65.3113
1984	65.2828
1980	65.2621
1976	65.2926
1972	65.3441
1968	65.3185
1964	65.2164
1960	65.1405
1956	65.1643
1952	65.2087
1948	65.1921
1944	65.1795
1940	65.1894
1936	65.1983
1932	65.2219
1928	65.2209
1924	65.2012
1920	65.2439
1916	65.2842
1912	65.2441
1908	65.2039
1904	65.2028
1900	65.2113
1896	65.2416
1892	65.2936
1888	65.2897
1884	65.2511
1880	65.2377
1876	65.1806
1872	65.0907
1868	65.044
1864	65.0671
1860	65.1144
1856	65.1445
1852	65.215
1848	65.2985
1844	65.328
1840	65.326
1836	65.3137
1832	65.2766
1828	65.1908
1824	65.1264
1820	65.2042
1816	65.309
1812	65.3048
1808	65.2628
1804	65.1877
1800	65.1176
1796	65.1332
1792	65.1548
1788	65.1248
1784	65.1059
1780	65.1239
1776	65.1538
1772	65.1867
1768	65.2091
1764	65.1661
1760	65.093
1756	65.1036
1752	65.1359
1748	65.0849
1744	64.9669
1740	64.8798
1736	64.885
1732	64.9623
1728	65.0568
1724	65.128
1720	65.1472
1716	65.0486
1712	64.8986
1708	64.9224
1704	65.1221
1700	65.289
1696	65.3291
1692	65.2231
1688	65.138
1684	65.208
1680	65.2621
1676	65.2188
1672	65.1873
1668	65.2297
1664	65.2195
1660	65.0757
1656	65.0012
1652	65.0619
1648	65.0852
1644	65.0537
1640	65.026
1636	65.0109
1632	65.0321
1628	65.0541
1624	65.0632
1620	65.1201
1616	65.1396
1612	65.0301
1608	64.9292
1604	64.9463
1600	65.026
1596	65.0283
1592	64.9473
1588	64.9527
1584	64.981
1580	64.9662
1576	65.031
1572	65.0875
1568	65.0722
1564	64.9911
1560	64.8704
1556	64.8591
1552	64.8844
1548	64.8613
1544	64.8647
1540	64.8959
1536	64.9245
1532	64.9234
1528	64.8876
1524	64.9002
1520	65.01
1516	65.0919
1512	65.103
1508	65.1435
1504	65.207
1500	65.2227
1496	65.1561
1492	65.0753
1488	65.0864
1484	65.118
1480	65.0859
1476	64.9925
1472	64.9412
1468	65.0079
1464	65.0496
1460	64.9311
1456	64.7329
1452	64.7483
1448	64.961
1444	65.0295
1440	64.9445
1436	64.8818
1432	64.9588
1428	65.1068
1424	65.1614
1420	65.1199
1416	65.0491
1412	64.9951
1408	64.9924
1404	65.063
1400	65.1038
1396	65.061
1392	65.056
1388	65.0996
1384	65.1193
1380	65.0961
1376	65.048
1372	65.0206
1368	65.0122
1364	65.0153
1360	65.0777
1356	65.1547
1352	65.14
1348	65.0468
1344	64.9705
1340	64.9494
1336	64.9575
1332	65.0084
1328	65.0689
1324	65.0118
1320	64.9042
1316	64.8847
1312	64.9581
1308	65.0616
1304	65.0938
1300	65.0515
1296	64.9875
1292	64.9505
1288	64.9933
1284	65.0334
1280	64.969
1276	64.9074
1272	64.9262
1268	64.9883
1264	65.0453
1260	65.0188
1256	64.968
1252	64.9824
1248	64.988
1244	64.9437
1240	64.8872
1236	64.8084
1232	64.7492
1228	64.7789
1224	64.8445
1220	64.8591
1216	64.8778
1212	64.9477
1208	65.026
1204	65.1054
1200	65.083
1196	64.924
1192	64.7925
1188	64.7284
1184	64.6944
1180	64.7693
1176	64.8601
1172	64.8603
1168	64.8737
1164	64.9595
1160	65.0247
1156	64.9952
1152	64.9441
1148	64.946
1144	64.8752
1140	64.6689
1136	64.6067
1132	64.7668
1128	64.8389
1124	64.7558
1120	64.7306
1116	64.7812
1112	64.7356
1108	64.5264
1104	64.3481
1100	64.4538
1096	64.5617
1092	64.5867
1088	64.9486
1084	65.2273
1080	65.0292
1076	64.7999
1072	64.7116
1068	64.6927
1064	64.7856
1060	64.8764
1056	64.8422
1052	64.8271
1048	64.8295
1044	64.7715
1040	64.7894
1036	64.8827
1032	64.9024
1028	64.7073
1024	64.4454
1020	64.2835
1016	64.2825
1012	64.7123
1008	65.0504
1004	64.8751
1000	64.9599
996	 65.1149
992	 64.8347
988	 64.6066
984	 64.5084
980	 64.4526
976	 64.3812
972	 64.1763
968	 64.1022
964	 64.3537
960	 64.7916
956	 65.0973
952	 65.1098
948	 64.9182
944	 64.6909
940	 64.5613
936	 64.6535
932	 64.8615
928	 64.8961
924	 64.836
920	 64.8786
916	 64.8822
912	 64.7125
908	 64.6082
904	 64.6429
900	 64.5944
896	 64.4353
892	 64.3344
888	 64.4305
884	 64.6153
880	 64.666
876	 64.5557
872	 64.4674
868	 64.4144
864	 64.3858
860	 64.4521
856	 64.4635
852	 64.4763
848	 64.4472
844	 64.2202
840	 64.1938
836	 64.3152
832	 64.1965
828	 64.1304
824	 64.3343
820	 64.5232
816	 64.556
812	 64.4838
808	 64.3778
804	 64.368
800	 64.4295
796	 64.3329
792	 63.9673
788	 63.6724
784	 63.8201
780	 64.2185
776	 64.4542
772	 64.4467
768	 64.3324
764	 64.3016
760	 64.3637
756	 64.1769
752	 64.0963
748	 64.314
744	 64.0518
740	 63.7698
736	 64.0204
732	 63.9951
728	 63.6405
724	 63.3846
720	 63.239
716	 63.3419
712	 63.5362
708	 63.5672
704	 63.5987
700	 63.7853
696	 64.013
692	 64.031
688	 63.6664
684	 63.1632
680	 62.9967
676	 63.3192
672	 63.5885
668	 63.3774
664	 63.1905
660	 63.3729
656	 63.5398
652	 63.3126
648	 62.8838
644	 62.8033
640	 63.0981
636	 63.098
632	 62.9063
628	 63.0136
624	 63.1668
620	 63.2399
616	 63.3067
612	 63.2684
608	 63.2219
604	 63.2408
600	 63.011
596	 62.7028
592	 62.6614
588	 62.6363
584	 62.4581
580	 62.1934
576	 61.9907
572	 62.1062
568	 62.407
564	 62.5346
560	 62.6312
556	 62.7945
552	 62.7503
548	 62.6377
544	 62.4758
540	 62.0115
536	 61.7234
532	 61.7613
528	 61.9022
524	 62.0258
520	 61.5241
516	 60.9557
512	 61.2103
508	 61.6414
504	 61.6794
500	 61.4615
496	 61.2537
492	 61.1658
488	 60.853
484	 60.5304
480	 60.5041
476	 60.27
472	 59.8096
468	 60.1017
464	 60.6859
460	 60.4548
456	 60.5256
452	 60.6855
448	 60.3286
444	 60.7821
440	 60.3569
436	 57.7572
432	 56.8792
428	 59.2806
424	 60.9077
420	 60.1286
416	 58.0663
412	 59.9412
408	 67.6795
404	 70.6171
400	 67.7782
396	 67.1074
392	 66.0553
388	 71.1184
384	 86.6773
380	 86.1395
376	 52.836
372	 39.4397
370	 49.8614