File: Bakgrunnsmateriale/MATLAB/FTIR/ftir_data/subBb/Mapping_121/C-4040-8_t63_cm-1.asc
PE IR       SPECTRUM    SPECTRUM    ASCII       PEDS        1.60
  -1
C-9CE1~1.ASC
17/03/27
19:37:36.00
17/03/27
19:37:36.00
tln
$C-4040-8_t0063$<tbV0>[-5.2,0.0,8.0,0.0,27,1,0]
370
64

2002,4.07
MIRTGS : RIGHTBACK : INTERNAL 2
MIR : ON : INTERNAL 2
OPTKBR

0.200000
8
8.000000
FILLER
RATIO
SPECTRUM
UNLOCKED 256

DOUBLE
64
COMBINED
1
0
0

1.000000
RATIO

1
0
TRUE
51149
0
LEFT NOT FITTED RIGHT NOT FITTED 0
NONE
NONE
15600
12
4.427000
51148
TRUE
1 0 8 72 0 0 0 0

15798

#HDR
-1
-1
#GR
CM-1
%T
2.38419e-05
0.0
5000
-1.000000
4631
8
105.967
50.082
#DATA
5000	64.9925
4996	64.9351
4992	64.7956
4988	64.7527
4984	64.8025
4980	64.7204
4976	64.5411
4972	64.4691
4968	64.7621
4964	65.484
4960	65.9482
4956	65.6028
4952	65.0101
4948	64.9556
4944	65.4872
4940	65.783
4936	65.3011
4932	64.6757
4928	64.7089
4924	65.1757
4920	65.2009
4916	64.8546
4912	64.7503
4908	65.0085
4904	65.3609
4900	65.5086
4896	65.624
4892	65.7389
4888	65.2758
4884	64.3466
4880	64.0622
4876	64.3624
4872	64.6018
4868	64.862
4864	64.8657
4860	64.7408
4856	64.9935
4852	65.4093
4848	65.4875
4844	65.2312
4840	65.0984
4836	65.1146
4832	65.0331
4828	64.9882
4824	65.0918
4820	65.2452
4816	65.3649
4812	65.1962
4808	64.9139
4804	64.9363
4800	65.0629
4796	65.2352
4792	65.3647
4788	65.1911
4784	65.067
4780	65.1516
4776	65.0891
4772	64.9404
4768	64.9502
4764	64.8748
4760	64.6729
4756	64.7489
4752	64.8311
4748	64.5892
4744	64.4305
4740	64.3795
4736	64.1771
4732	64.0653
4728	64.2445
4724	64.5056
4720	64.7069
4716	64.7723
4712	64.7773
4708	64.8612
4704	64.7609
4700	64.5258
4696	64.5968
4692	64.7766
4688	64.6756
4684	64.5537
4680	64.5219
4676	64.4259
4672	64.3829
4668	64.4153
4664	64.4425
4660	64.4785
4656	64.481
4652	64.3828
4648	64.4307
4644	64.7352
4640	64.8929
4636	64.7815
4632	64.5917
4628	64.5078
4624	64.5821
4620	64.5764
4616	64.412
4612	64.2243
4608	64.1909
4604	64.4749
4600	64.8289
4596	64.9932
4592	65.0789
4588	65.0805
4584	65.0397
4580	64.9027
4576	64.6106
4572	64.5325
4568	64.7617
4564	64.9385
4560	64.8804
4556	64.8136
4552	64.9052
4548	65.1267
4544	65.4096
4540	65.5355
4536	65.418
4532	65.2202
4528	64.9952
4524	64.9552
4520	65.0315
4516	65.035
4512	65.3412
4508	65.6567
4504	65.5429
4500	65.4554
4496	65.534
4492	65.5278
4488	65.5048
4484	65.5594
4480	65.7263
4476	66.0011
4472	66.0855
4468	65.8196
4464	65.5345
4460	65.4967
4456	65.7303
4452	65.9803
4448	65.9676
4444	66.0155
4440	66.1636
4436	66.1971
4432	66.2797
4428	66.466
4424	66.5087
4420	66.4095
4416	66.4279
4412	66.5211
4408	66.3653
4404	66.1637
4400	66.1282
4396	66.1345
4392	66.0793
4388	65.6464
4384	65.3072
4380	64.6808
4376	58.9182
4372	50.5927
4368	53.6695
4364	57.5618
4360	52.983
4356	56.0723
4352	64.9596
4348	67.0513
4344	66.4118
4340	66.8941
4336	67.0028
4332	66.8066
4328	66.4074
4324	66.2313
4320	66.3858
4316	66.358
4312	66.041
4308	65.8832
4304	65.8962
4300	65.916
4296	66.0472
4292	65.9473
4288	65.6726
4284	65.7876
4280	66.1206
4276	66.3079
4272	66.2428
4268	65.8511
4264	65.5183
4260	65.5079
4256	65.4692
4252	65.3998
4248	65.5227
4244	65.6256
4240	65.5327
4236	65.5116
4232	65.5349
4228	65.3569
4224	65.281
4220	65.4136
4216	65.5154
4212	65.4069
4208	65.2337
4204	65.2971
4200	65.4789
4196	65.5578
4192	65.6102
4188	65.3437
4184	64.8249
4180	64.7253
4176	64.3384
4172	63.8534
4168	64.4807
4164	65.2884
4160	65.374
4156	65.1141
4152	64.9612
4148	64.9863
4144	64.9928
4140	64.9686
4136	64.8237
4132	64.5612
4128	64.5708
4124	64.9238
4120	65.1403
4116	65.0425
4112	64.7896
4108	64.593
4104	64.5688
4100	64.5672
4096	64.7144
4092	64.931
4088	64.9001
4084	64.7789
4080	64.6812
4076	64.6859
4072	64.8772
4068	64.8781
4064	64.6149
4060	64.5494
4056	64.6282
4052	64.6645
4048	64.7005
4044	64.6594
4040	64.5876
4036	64.5857
4032	64.5512
4028	64.5248
4024	64.6832
4020	64.85
4016	64.8455
4012	64.7579
4008	64.6961
4004	64.7526
4000	64.9311
3996	65.0401
3992	64.9776
3988	64.9247
3984	65.0333
3980	65.0948
3976	64.9456
3972	64.8181
3968	64.857
3964	64.9442
3960	64.9728
3956	64.9364
3952	64.89
3948	64.9081
3944	65.044
3940	65.1655
3936	65.1226
3932	65.1289
3928	65.1628
3924	65.0639
3920	64.9805
3916	64.9344
3912	64.9431
3908	64.9812
3904	64.9346
3900	64.9099
3896	64.9448
3892	64.962
3888	65.1139
3884	65.29
3880	65.2386
3876	65.1943
3872	65.3038
3868	65.3293
3864	65.1813
3860	65.0833
3856	65.2079
3852	65.3459
3848	65.3359
3844	65.3245
3840	65.3392
3836	65.3068
3832	65.1513
3828	65.0314
3824	65.0943
3820	65.0927
3816	65.0887
3812	65.2327
3808	65.271
3804	65.2321
3800	65.2779
3796	65.3434
3792	65.3402
3788	65.2206
3784	65.1026
3780	65.1109
3776	65.1488
3772	65.1098
3768	65.0744
3764	65.1174
3760	65.186
3756	65.1604
3752	65.0958
3748	65.1082
3744	65.1494
3740	65.197
3736	65.2844
3732	65.3148
3728	65.1659
3724	65.0033
3720	65.0474
3716	65.1665
3712	65.1935
3708	65.1268
3704	64.9931
3700	65.0274
3696	65.2076
3692	65.2014
3688	65.0984
3684	65.0134
3680	64.922
3676	64.915
3672	64.9005
3668	64.835
3664	64.827
3660	64.8981
3656	65.0366
3652	65.1178
3648	65.072
3644	65.0124
3640	65.0778
3636	65.2408
3632	65.2856
3628	65.1565
3624	65.0348
3620	65.0551
3616	65.1361
3612	65.1227
3608	65.0281
3604	64.9875
3600	65.0267
3596	65.0112
3592	64.9083
3588	64.8991
3584	65.0574
3580	65.2307
3576	65.2089
3572	65.0347
3568	64.9324
3564	64.9189
3560	64.8948
3556	64.8895
3552	65.029
3548	65.1699
3544	65.0857
3540	64.9651
3536	65.0041
3532	65.0664
3528	65.0889
3524	65.0572
3520	64.9402
3516	64.9272
3512	65.0284
3508	65.1061
3504	65.1378
3500	65.0267
3496	64.842
3492	64.8683
3488	65.1132
3484	65.2342
3480	65.1967
3476	65.2533
3472	65.3874
3468	65.4037
3464	65.1993
3460	65.0946
3456	65.2363
3452	65.3004
3448	65.2451
3444	65.2513
3440	65.3029
3436	65.3301
3432	65.3264
3428	65.2624
3424	65.19
3420	65.1116
3416	65.0877
3412	65.1743
3408	65.23
3404	65.2684
3400	65.3639
3396	65.4264
3392	65.3891
3388	65.3017
3384	65.1714
3380	65.0054
3376	64.9397
3372	65.0728
3368	65.2765
3364	65.3373
3360	65.2381
3356	65.137
3352	65.0344
3348	64.9513
3344	65.098
3340	65.3116
3336	65.3028
3332	65.222
3328	65.1943
3324	65.1904
3320	65.2606
3316	65.3434
3312	65.2592
3308	65.0935
3304	65.0489
3300	65.0984
3296	65.2395
3292	65.2647
3288	65.1026
3284	65.1078
3280	65.1484
3276	65.0392
3272	65.0659
3268	65.1966
3264	65.2106
3260	65.2482
3256	65.3738
3252	65.3495
3248	65.1536
3244	65.0202
3240	64.9936
3236	65.0805
3232	65.2322
3228	65.1241
3224	64.826
3220	64.828
3216	65.0515
3212	65.1318
3208	65.0872
3204	65.0336
3200	65.0723
3196	65.1181
3192	65.0801
3188	65.0981
3184	65.1664
3180	65.2292
3176	65.2895
3172	65.3467
3168	65.3648
3164	65.2691
3160	65.1536
3156	65.1092
3152	65.0366
3148	64.9588
3144	64.9165
3140	64.8477
3136	64.9011
3132	65.0364
3128	64.9344
3124	64.7629
3120	64.8839
3116	65.0767
3112	65.0833
3108	65.0894
3104	65.1922
3100	65.2674
3096	65.3134
3092	65.3827
3088	65.3782
3084	65.236
3080	65.1258
3076	65.2012
3072	65.3019
3068	65.2891
3064	65.2065
3060	65.088
3056	65.0643
3052	65.1526
3048	65.171
3044	65.1026
3040	65.0995
3036	65.1801
3032	65.2008
3028	65.1522
3024	65.1495
3020	65.186
3016	65.222
3012	65.2299
3008	65.1578
3004	65.0593
3000	65.0621
2996	65.1923
2992	65.2359
2988	65.1133
2984	65.0602
2980	65.1025
2976	65.1071
2972	65.0806
2968	65.0689
2964	65.0767
2960	65.1308
2956	65.198
2952	65.1857
2948	65.1191
2944	65.0686
2940	65.0943
2936	65.1189
2932	65.0525
2928	65.0201
2924	65.0029
2920	64.9128
2916	64.9099
2912	65.0456
2908	65.1192
2904	65.1009
2900	65.0847
2896	65.0354
2892	64.9862
2888	65.0596
2884	65.1866
2880	65.17
2876	65.1101
2872	65.1011
2868	65.0769
2864	65.115
2860	65.1575
2856	65.0709
2852	64.9601
2848	64.9663
2844	65.0032
2840	65.0356
2836	65.0824
2832	65.0702
2828	65.0747
2824	65.114
2820	65.1099
2816	65.087
2812	65.0836
2808	65.1439
2804	65.2182
2800	65.2254
2796	65.1848
2792	65.1452
2788	65.1623
2784	65.1959
2780	65.1963
2776	65.2026
2772	65.2029
2768	65.1628
2764	65.0941
2760	65.0398
2756	65.0301
2752	65.0695
2748	65.1486
2744	65.2031
2740	65.1978
2736	65.2014
2732	65.2455
2728	65.2612
2724	65.1767
2720	65.028
2716	64.9865
2712	65.0826
2708	65.1473
2704	65.1432
2700	65.1322
2696	65.0938
2692	65.0378
2688	65.0571
2684	65.1074
2680	65.0885
2676	65.0898
2672	65.1693
2668	65.2437
2664	65.2849
2660	65.3117
2656	65.2867
2652	65.2038
2648	65.1354
2644	65.1204
2640	65.1544
2636	65.2077
2632	65.2381
2628	65.2553
2624	65.2732
2620	65.2388
2616	65.1833
2612	65.2158
2608	65.2647
2604	65.2277
2600	65.1734
2596	65.1897
2592	65.2269
2588	65.2235
2584	65.2174
2580	65.2034
2576	65.1719
2572	65.1487
2568	65.155
2564	65.2065
2560	65.2917
2556	65.3673
2552	65.3865
2548	65.3508
2544	65.2855
2540	65.2236
2536	65.1664
2532	65.1401
2528	65.1506
2524	65.1664
2520	65.2049
2516	65.2645
2512	65.3255
2508	65.3476
2504	65.3031
2500	65.2161
2496	65.1603
2492	65.1074
2488	65.0641
2484	65.1253
2480	65.1899
2476	65.2154
2472	65.2682
2468	65.2909
2464	65.2533
2460	65.2662
2456	65.3023
2452	65.345
2448	65.4409
2444	65.4297
2440	65.3312
2436	65.2647
2432	65.2088
2428	65.2518
2424	65.4139
2420	65.3774
2416	65.0812
2412	64.9676
2408	65.1925
2404	65.5276
2400	65.6756
2396	65.5406
2392	65.3339
2388	65.2461
2384	65.2875
2380	65.3204
2376	65.2799
2372	65.2634
2368	65.2887
2364	65.3238
2360	65.3701
2356	65.3534
2352	65.2885
2348	65.2322
2344	65.2052
2340	65.228
2336	65.2491
2332	65.2451
2328	65.1806
2324	65.0769
2320	65.0279
2316	65.0495
2312	65.1531
2308	65.2953
2304	65.3465
2300	65.2977
2296	65.2718
2292	65.2923
2288	65.2799
2284	65.2076
2280	65.1566
2276	65.2088
2272	65.2679
2268	65.2221
2264	65.1589
2260	65.1941
2256	65.3117
2252	65.4103
2248	65.438
2244	65.4086
2240	65.3777
2236	65.4285
2232	65.5027
2228	65.4573
2224	65.2848
2220	65.1704
2216	65.2205
2212	65.2692
2208	65.2002
2204	65.1442
2200	65.1928
2196	65.233
2192	65.2207
2188	65.2069
2184	65.1913
2180	65.1668
2176	65.1332
2172	65.1553
2168	65.2609
2164	65.3373
2160	65.325
2156	65.2992
2152	65.2886
2148	65.2513
2144	65.2454
2140	65.2836
2136	65.2649
2132	65.238
2128	65.2632
2124	65.2532
2120	65.233
2116	65.289
2112	65.316
2108	65.2835
2104	65.3296
2100	65.3706
2096	65.2791
2092	65.1942
2088	65.1627
2084	65.173
2080	65.2638
2076	65.255
2072	65.198
2068	65.1958
2064	65.1363
2060	65.1438
2056	65.211
2052	65.2409
2048	65.2313
2044	65.1751
2040	65.1755
2036	65.2863
2032	65.4255
2028	65.4292
2024	65.2844
2020	65.1339
2016	65.091
2012	65.192
2008	65.3048
2004	65.3318
2000	65.2774
1996	65.235
1992	65.31
1988	65.3628
1984	65.2953
1980	65.2338
1976	65.2627
1972	65.3
1968	65.2503
1964	65.1891
1960	65.1845
1956	65.211
1952	65.2404
1948	65.2679
1944	65.2602
1940	65.218
1936	65.2584
1932	65.329
1928	65.2741
1924	65.1792
1920	65.1766
1916	65.2178
1912	65.2267
1908	65.1835
1904	65.1569
1900	65.2258
1896	65.3301
1892	65.3904
1888	65.3786
1884	65.3458
1880	65.3213
1876	65.2588
1872	65.1984
1868	65.1804
1864	65.193
1860	65.2222
1856	65.2437
1852	65.2517
1848	65.227
1844	65.2043
1840	65.2214
1836	65.2281
1832	65.2657
1828	65.3316
1824	65.307
1820	65.2679
1816	65.2756
1812	65.2746
1808	65.2939
1804	65.2939
1800	65.2401
1796	65.194
1792	65.2175
1788	65.2773
1784	65.2886
1780	65.258
1776	65.204
1772	65.2227
1768	65.2752
1764	65.1712
1760	65.0819
1756	65.1373
1752	65.157
1748	65.1082
1744	65.038
1740	64.9622
1736	64.928
1732	64.9497
1728	64.9822
1724	65.0457
1720	65.1168
1716	65.0893
1712	65.0472
1708	65.0705
1704	65.0995
1700	65.1313
1696	65.1391
1692	65.0872
1688	65.0285
1684	65.0483
1680	65.1523
1676	65.2526
1672	65.294
1668	65.2881
1664	65.2329
1660	65.1539
1656	65.1594
1652	65.2155
1648	65.2048
1644	65.1408
1640	65.1141
1636	65.1225
1632	65.1147
1628	65.1128
1624	65.153
1620	65.1854
1616	65.1292
1612	65.0357
1608	64.9948
1604	65.0318
1600	65.0865
1596	65.0704
1592	65.0132
1588	65.0049
1584	65.0471
1580	65.1507
1576	65.2616
1572	65.2259
1568	65.1038
1564	65.0663
1560	65.1208
1556	65.1437
1552	65.0902
1548	65.0624
1544	65.1395
1540	65.1855
1536	65.0915
1532	65.0297
1528	65.0502
1524	65.0376
1520	65.0333
1516	65.0352
1512	64.9743
1508	64.932
1504	64.9855
1500	65.0844
1496	65.1435
1492	65.1377
1488	65.0872
1484	65.0049
1480	64.9634
1476	64.9997
1472	65.0315
1468	65.0458
1464	65.0219
1460	64.8728
1456	64.7274
1452	64.7789
1448	64.8988
1444	64.9037
1440	64.9196
1436	65.0279
1432	65.0785
1428	65.0802
1424	65.1144
1420	65.1161
1416	65.0963
1412	65.0515
1408	64.9588
1404	64.9853
1400	65.1187
1396	65.1846
1392	65.2162
1388	65.2267
1384	65.1828
1380	65.155
1376	65.1557
1372	65.1065
1368	65.0203
1364	64.9333
1360	64.9018
1356	64.9574
1352	64.9759
1348	64.9568
1344	65.003
1340	65.0324
1336	65.0228
1332	65.0841
1328	65.1639
1324	65.1327
1320	65.0164
1316	64.9735
1312	65.0354
1308	65.0533
1304	64.9861
1300	64.9223
1296	64.9154
1292	64.9518
1288	64.9982
1284	64.9832
1280	64.903
1276	64.9132
1272	64.977
1268	64.9815
1264	65.0149
1260	65.0286
1256	64.9627
1252	64.9658
1248	65.0754
1244	65.1488
1240	65.0817
1236	64.9873
1232	64.9323
1228	64.8586
1224	64.8039
1220	64.821
1216	64.8792
1212	64.8827
1208	64.8704
1204	64.8583
1200	64.7909
1196	64.8004
1192	64.8877
1188	64.8522
1184	64.7515
1180	64.7826
1176	64.8743
1172	64.8561
1168	64.7469
1164	64.7411
1160	64.8696
1156	64.9387
1152	64.9451
1148	65.024
1144	65.014
1140	64.7458
1136	64.5447
1132	64.7131
1128	64.9402
1124	64.9114
1120	64.8758
1116	64.9152
1112	64.8427
1108	64.6471
1104	64.4522
1100	64.4507
1096	64.4642
1092	64.585
1088	65.1594
1084	65.6801
1080	65.5344
1076	64.9641
1072	64.6613
1068	64.7743
1064	64.9162
1060	64.8475
1056	64.6298
1052	64.4332
1048	64.332
1044	64.4152
1040	64.5966
1036	64.6738
1032	64.778
1028	64.9537
1024	64.9224
1020	64.754
1016	64.6807
1012	64.6964
1008	64.738
1004	64.7196
1000	64.7532
996	 64.8535
992	 64.8644
988	 64.8196
984	 64.8245
980	 64.8976
976	 64.8634
972	 64.7132
968	 64.5759
964	 64.4278
960	 64.2973
956	 64.2497
952	 64.2488
948	 64.292
944	 64.4048
940	 64.4911
936	 64.6224
932	 64.796
928	 64.7502
924	 64.505
920	 64.361
916	 64.4106
912	 64.4646
908	 64.5253
904	 64.6449
900	 64.6019
896	 64.3759
892	 64.2598
888	 64.3171
884	 64.4357
880	 64.5701
876	 64.5955
872	 64.5396
868	 64.6028
864	 64.6588
860	 64.6131
856	 64.6359
852	 64.6544
848	 64.6396
844	 64.6297
840	 64.5083
836	 64.2743
832	 64.0926
828	 64.1793
824	 64.4141
820	 64.3907
816	 64.3124
812	 64.4046
808	 64.35
804	 64.2401
800	 64.1278
796	 63.8092
792	 63.5489
788	 63.5906
784	 63.7994
780	 63.9862
776	 64.1052
772	 64.1574
768	 64.0354
764	 63.8274
760	 63.6711
756	 63.4682
752	 63.4126
748	 63.6887
744	 64.1076
740	 64.4623
736	 64.376
732	 63.7951
728	 63.3937
724	 63.3445
720	 63.4507
716	 63.7086
712	 63.7218
708	 63.5222
704	 63.5086
700	 63.5701
696	 63.6587
692	 63.6881
688	 63.4894
684	 63.2797
680	 63.2762
676	 63.3619
672	 63.2126
668	 62.8994
664	 62.7322
660	 62.9032
656	 63.3342
652	 63.397
648	 63.1312
644	 62.9908
640	 62.8909
636	 62.989
632	 63.3544
628	 63.45
624	 63.2823
620	 63.2603
616	 63.3723
612	 63.2564
608	 62.7151
604	 62.3604
600	 62.2668
596	 62.1225
592	 62.2688
588	 62.4464
584	 62.3443
580	 62.13
576	 61.8491
572	 61.8412
568	 62.1318
564	 62.146
560	 61.959
556	 61.9894
552	 61.8473
548	 61.6018
544	 61.696
540	 61.9515
536	 62.155
532	 61.9181
528	 61.4559
524	 61.215
520	 60.8936
516	 60.7126
512	 60.9872
508	 61.4109
504	 61.739
500	 61.8646
496	 61.9691
492	 62.4053
488	 62.5475
484	 61.3425
480	 60.0475
476	 60.0043
472	 60.205
468	 60.4145
464	 60.4727
460	 59.6862
456	 59.1037
452	 58.5879
448	 57.5941
444	 57.7504
440	 58.8924
436	 59.6824
432	 58.7054
428	 56.5453
424	 56.4671
420	 58.6574
416	 59.1002
412	 59.315
408	 62.2787
404	 59.2702
400	 53.0106
396	 68.2972
392	 95.0954
388	 95.3513
384	 79.233
380	 82.793
376	 103.107
372	 101.972
370	 96.3523