File: Bakgrunnsmateriale/MATLAB/FTIR/ftir_data/subBb/Mapping_121/C-4040-8_t17_cm-1.asc
PE IR       SPECTRUM    SPECTRUM    ASCII       PEDS        1.60
  -1
C-1AEF~1.ASC
17/03/27
15:50:00.00
17/03/27
15:50:00.00
tln
$C-4040-8_t0017$<tbV0>[0.0,-10.4,8.0,0.0,27,1,0]
370
64

2002,4.07
MIRTGS : RIGHTBACK : INTERNAL 2
MIR : ON : INTERNAL 2
OPTKBR

0.200000
8
8.000000
FILLER
RATIO
SPECTRUM
UNLOCKED 256

DOUBLE
64
COMBINED
1
0
0

1.000000
RATIO

1
0
TRUE
51149
0
LEFT NOT FITTED RIGHT NOT FITTED 0
NONE
NONE
15600
12
4.427000
51148
TRUE
1 0 8 72 0 0 0 0

15798

#HDR
-1
-1
#GR
CM-1
%T
2.38419e-05
0.0
5000
-1.000000
4631
8
70.4563
35.0217
#DATA
5000	63.8445
4996	63.7238
4992	64.0329
4988	64.7067
4984	64.6886
4980	63.9154
4976	63.2359
4972	63.2677
4968	63.5722
4964	62.932
4960	62.1146
4956	62.4909
4952	63.2438
4948	63.138
4944	62.2267
4940	62.1475
4936	63.2823
4932	63.9673
4928	63.7241
4924	63.5188
4920	63.7392
4916	64.0845
4912	64.4339
4908	64.5712
4904	64.5663
4900	64.4295
4896	64.0345
4892	63.785
4888	63.8696
4884	64.2036
4880	64.2643
4876	63.9842
4872	63.8331
4868	63.7576
4864	63.867
4860	64.0451
4856	63.8422
4852	63.5313
4848	63.7112
4844	64.1869
4840	64.4272
4836	64.3582
4832	63.9967
4828	63.5881
4824	63.4012
4820	63.3547
4816	63.3337
4812	63.3094
4808	63.4496
4804	63.7978
4800	63.9365
4796	63.7663
4792	63.7285
4788	63.8036
4784	63.7495
4780	63.7405
4776	63.9431
4772	64.1513
4768	64.0116
4764	63.6241
4760	63.4716
4756	63.6966
4752	63.9817
4748	64.1517
4744	64.1952
4740	64.0516
4736	63.7544
4732	63.4893
4728	63.4851
4724	63.6277
4720	63.816
4716	64.0268
4712	64.0542
4708	63.9729
4704	63.8527
4700	63.7615
4696	63.8497
4692	63.9145
4688	63.8629
4684	63.7743
4680	63.6318
4676	63.5054
4672	63.5142
4668	63.7091
4664	63.8861
4660	63.8823
4656	63.6776
4652	63.4709
4648	63.5152
4644	63.6081
4640	63.677
4636	63.7629
4632	63.8465
4628	63.9292
4624	63.821
4620	63.5908
4616	63.4836
4612	63.5616
4608	63.8212
4604	64.0194
4600	63.9346
4596	63.8341
4592	63.7894
4588	63.6389
4584	63.5673
4580	63.6797
4576	63.8298
4572	63.9495
4568	64.0739
4564	64.1845
4560	64.2786
4556	64.2248
4552	63.8615
4548	63.5309
4544	63.4068
4540	63.4666
4536	63.5591
4532	63.3578
4528	63.4355
4524	63.8405
4520	63.8914
4516	63.7977
4512	63.8216
4508	63.8873
4504	63.9948
4500	64.0023
4496	63.9045
4492	63.6769
4488	63.4584
4484	63.358
4480	63.6609
4476	64.0243
4472	63.9905
4468	64.0473
4464	64.2922
4460	64.7897
4456	65.5833
4452	67.8205
4448	70.261
4444	69.6951
4440	66.4435
4436	62.7446
4432	61.4258
4428	61.9813
4424	62.2191
4420	62.4435
4416	62.6733
4412	62.357
4408	61.9383
4404	61.4086
4400	61.2664
4396	61.6674
4392	61.8616
4388	58.9879
4384	56.6596
4380	61.5509
4376	64.3841
4372	62.7487
4368	64.0488
4364	65.7346
4360	65.9013
4356	65.2427
4352	64.3885
4348	64.1406
4344	64.1453
4340	64.1207
4336	64.0895
4332	64.1236
4328	64.127
4324	63.9522
4320	63.6849
4316	63.5118
4312	63.5662
4308	63.6718
4304	63.6673
4300	63.7906
4296	64.0387
4292	64.0134
4288	63.7006
4284	63.4923
4280	63.4209
4276	63.3795
4272	63.494
4268	63.6716
4264	63.7266
4260	63.8908
4256	64.0999
4252	63.9279
4248	63.5683
4244	63.3506
4240	63.3567
4236	63.5825
4232	63.7818
4228	63.7529
4224	63.6656
4220	63.701
4216	63.6742
4212	63.5913
4208	63.5385
4204	63.3493
4200	63.1633
4196	63.1199
4192	63.0278
4188	63.0134
4184	63.1638
4180	63.1318
4176	62.755
4172	62.6299
4168	63.2034
4164	63.7211
4160	63.8501
4156	63.9064
4152	63.8542
4148	63.6884
4144	63.3094
4140	62.9574
4136	63.1325
4132	63.4556
4128	63.4335
4124	63.4232
4120	63.6086
4116	63.6939
4112	63.605
4108	63.4684
4104	63.4107
4100	63.4035
4096	63.3927
4092	63.5077
4088	63.6426
4084	63.6346
4080	63.6325
4076	63.6101
4072	63.4662
4068	63.4023
4064	63.4699
4060	63.4786
4056	63.4686
4052	63.4838
4048	63.5026
4044	63.5225
4040	63.4968
4036	63.4937
4032	63.5356
4028	63.578
4024	63.5903
4020	63.5898
4016	63.6293
4012	63.6835
4008	63.6343
4004	63.4811
4000	63.4778
3996	63.6468
3992	63.7377
3988	63.6597
3984	63.4088
3980	63.0934
3976	62.9537
3972	63.0528
3968	63.2613
3964	63.4199
3960	63.4761
3956	63.5291
3952	63.5193
3948	63.4457
3944	63.3981
3940	63.2967
3936	63.2037
3932	63.2053
3928	63.3263
3924	63.5286
3920	63.5479
3916	63.3602
3912	63.2253
3908	63.1887
3904	63.2725
3900	63.4467
3896	63.5064
3892	63.3966
3888	63.2604
3884	63.2058
3880	63.1529
3876	63.1532
3872	63.2593
3868	63.3712
3864	63.4486
3860	63.5275
3856	63.7143
3852	63.7547
3848	63.524
3844	63.4601
3840	63.6145
3836	63.6581
3832	63.4677
3828	63.1292
3824	62.9477
3820	63.1263
3816	63.2668
3812	63.254
3808	63.3833
3804	63.5244
3800	63.4785
3796	63.2744
3792	63.2196
3788	63.3797
3784	63.3343
3780	63.0772
3776	62.975
3772	63.0917
3768	63.2256
3764	63.2777
3760	63.2899
3756	63.3863
3752	63.6108
3748	63.7676
3744	63.6847
3740	63.4531
3736	63.3168
3732	63.2745
3728	63.2626
3724	63.2852
3720	63.3126
3716	63.3796
3712	63.3654
3708	63.2224
3704	63.1692
3700	63.1919
3696	63.2244
3692	63.3594
3688	63.3842
3684	63.2321
3680	63.2339
3676	63.4139
3672	63.405
3668	63.0679
3664	62.826
3660	62.9333
3656	63.1388
3652	63.3081
3648	63.2774
3644	63.0257
3640	62.8412
3636	62.8153
3632	62.9266
3628	62.9821
3624	62.9044
3620	62.8094
3616	62.7674
3612	62.8061
3608	62.7543
3604	62.6816
3600	62.7334
3596	62.8187
3592	62.9649
3588	63.0102
3584	62.8443
3580	62.733
3576	62.6748
3572	62.6445
3568	62.7271
3564	62.7887
3560	62.7721
3556	62.7442
3552	62.6926
3548	62.5958
3544	62.5593
3540	62.5933
3536	62.659
3532	62.806
3528	62.8291
3524	62.732
3520	62.6871
3516	62.6029
3512	62.4597
3508	62.3791
3504	62.4802
3500	62.6734
3496	62.6741
3492	62.506
3488	62.5046
3484	62.674
3480	62.7325
3476	62.6406
3472	62.5903
3468	62.6309
3464	62.66
3460	62.6123
3456	62.5083
3452	62.4665
3448	62.454
3444	62.3445
3440	62.2413
3436	62.1908
3432	62.1495
3428	62.2497
3424	62.3666
3420	62.2915
3416	62.2295
3412	62.3432
3408	62.4296
3404	62.3378
3400	62.2112
3396	62.1759
3392	62.2602
3388	62.3865
3384	62.4193
3380	62.4258
3376	62.3962
3372	62.2913
3368	62.2515
3364	62.2369
3360	62.1098
3356	61.9404
3352	61.8972
3348	61.992
3344	62.0962
3340	62.1633
3336	62.2214
3332	62.1986
3328	62.0825
3324	61.9543
3320	61.8966
3316	61.9756
3312	62.0986
3308	62.1511
3304	62.0981
3300	61.9934
3296	61.9644
3292	62.0046
3288	62.0001
3284	61.9499
3280	61.922
3276	61.9117
3272	61.8755
3268	61.8253
3264	61.8129
3260	61.8714
3256	61.9474
3252	61.9784
3248	61.9637
3244	61.8953
3240	61.8257
3236	61.8109
3232	61.811
3228	61.8011
3224	61.8388
3220	61.897
3216	61.9061
3212	61.9067
3208	61.9037
3204	61.8523
3200	61.7635
3196	61.6928
3192	61.6484
3188	61.624
3184	61.6402
3180	61.6384
3176	61.5237
3172	61.3872
3168	61.4469
3164	61.5952
3160	61.6229
3156	61.5766
3152	61.5058
3148	61.4385
3144	61.368
3140	61.3535
3136	61.3796
3132	61.3201
3128	61.3709
3124	61.5769
3120	61.6384
3116	61.4856
3112	61.3011
3108	61.2564
3104	61.3254
3100	61.3816
3096	61.3699
3092	61.3053
3088	61.2472
3084	61.1687
3080	61.1374
3076	61.2317
3072	61.2816
3068	61.2608
3064	61.2863
3060	61.345
3056	61.3666
3052	61.3132
3048	61.232
3044	61.1711
3040	61.1129
3036	61.0358
3032	61.0279
3028	61.1102
3024	61.1563
3020	61.1384
3016	61.0492
3012	60.9455
3008	60.9387
3004	60.9998
3000	61.0831
2996	61.1154
2992	61.0113
2988	60.8639
2984	60.8018
2980	60.8098
2976	60.8359
2972	60.865
2968	60.8421
2964	60.7742
2960	60.7764
2956	60.7897
2952	60.7368
2948	60.6904
2944	60.6598
2940	60.6651
2936	60.694
2932	60.6167
2928	60.4677
2924	60.3619
2920	60.3075
2916	60.3451
2912	60.3924
2908	60.3703
2904	60.4012
2900	60.5014
2896	60.5997
2892	60.6475
2888	60.589
2884	60.4886
2880	60.3772
2876	60.2916
2872	60.3976
2868	60.5586
2864	60.5138
2860	60.311
2856	60.1506
2852	60.1816
2848	60.3061
2844	60.391
2840	60.435
2836	60.399
2832	60.3324
2828	60.339
2824	60.4089
2820	60.4295
2816	60.3249
2812	60.247
2808	60.2742
2804	60.2634
2800	60.2149
2796	60.1865
2792	60.1506
2788	60.1109
2784	60.0579
2780	60.0297
2776	60.0159
2772	59.9342
2768	59.878
2764	59.9385
2760	60.041
2756	60.1232
2752	60.167
2748	60.1079
2744	59.9872
2740	59.9315
2736	59.9285
2732	59.9099
2728	59.8782
2724	59.8503
2720	59.8215
2716	59.7988
2712	59.7663
2708	59.772
2704	59.8246
2700	59.8808
2696	59.9585
2692	59.9646
2688	59.8772
2684	59.8059
2680	59.7351
2676	59.66
2672	59.6519
2668	59.6655
2664	59.6334
2660	59.5762
2656	59.5628
2652	59.5668
2648	59.518
2644	59.5079
2640	59.5834
2636	59.5812
2632	59.4685
2628	59.433
2624	59.4516
2620	59.4046
2616	59.3475
2612	59.3188
2608	59.3035
2604	59.3053
2600	59.2737
2596	59.2404
2592	59.2397
2588	59.1908
2584	59.1515
2580	59.1577
2576	59.1308
2572	59.0785
2568	59.0462
2564	59.0524
2560	59.0948
2556	59.1636
2552	59.2042
2548	59.1501
2544	59.0709
2540	59.0147
2536	58.956
2532	58.9574
2528	59.0416
2524	59.1448
2520	59.1112
2516	58.9619
2512	58.9031
2508	58.8797
2504	58.7859
2500	58.6661
2496	58.6444
2492	58.713
2488	58.6912
2484	58.5819
2480	58.562
2476	58.6383
2472	58.651
2468	58.587
2464	58.5849
2460	58.6278
2456	58.5557
2452	58.4468
2448	58.4499
2444	58.5085
2440	58.5392
2436	58.55
2432	58.5251
2428	58.4286
2424	58.4051
2420	58.4667
2416	58.4009
2412	58.2344
2408	58.1477
2404	58.1447
2400	58.1462
2396	58.1784
2392	58.2039
2388	58.1898
2384	58.1933
2380	58.1735
2376	58.1188
2372	58.0872
2368	58.0706
2364	58.0584
2360	58.0695
2356	58.0808
2352	58.11
2348	58.158
2344	58.1052
2340	57.9694
2336	57.9222
2332	57.9587
2328	57.9683
2324	57.9427
2320	57.9002
2316	57.8619
2312	57.8289
2308	57.8166
2304	57.8043
2300	57.7021
2296	57.5577
2292	57.4564
2288	57.4402
2284	57.527
2280	57.617
2276	57.6049
2272	57.5223
2268	57.5076
2264	57.5791
2260	57.5819
2256	57.489
2252	57.4335
2248	57.4125
2244	57.3507
2240	57.3138
2236	57.3077
2232	57.2674
2228	57.2193
2224	57.1691
2220	57.1373
2216	57.1372
2212	57.1307
2208	57.1119
2204	57.0907
2200	57.0759
2196	57.0241
2192	56.958
2188	56.9175
2184	56.8577
2180	56.8366
2176	56.8961
2172	56.9657
2168	56.9471
2164	56.8402
2160	56.825
2156	56.907
2152	56.8904
2148	56.7971
2144	56.7549
2140	56.7673
2136	56.7531
2132	56.6827
2128	56.6283
2124	56.6108
2120	56.6311
2116	56.6347
2112	56.5709
2108	56.5026
2104	56.4836
2100	56.4983
2096	56.4603
2092	56.4011
2088	56.458
2084	56.5497
2080	56.4948
2076	56.3704
2072	56.277
2068	56.2947
2064	56.4238
2060	56.3647
2056	56.2015
2052	56.2335
2048	56.295
2044	56.2563
2040	56.2049
2036	56.1543
2032	56.1352
2028	56.1183
2024	56.0541
2020	55.9834
2016	55.9372
2012	55.9366
2008	55.8923
2004	55.8028
2000	55.8417
1996	55.9085
1992	55.8445
1988	55.7819
1984	55.7758
1980	55.768
1976	55.7448
1972	55.6731
1968	55.5981
1964	55.5811
1960	55.5681
1956	55.5375
1952	55.5518
1948	55.5647
1944	55.5212
1940	55.5091
1936	55.5364
1932	55.5229
1928	55.4482
1924	55.3722
1920	55.3481
1916	55.3731
1912	55.3977
1908	55.3367
1904	55.2464
1900	55.2127
1896	55.2201
1892	55.2549
1888	55.2563
1884	55.2073
1880	55.1326
1876	55.023
1872	54.9245
1868	54.9193
1864	54.9891
1860	55.0086
1856	54.9702
1852	54.9437
1848	54.9334
1844	54.899
1840	54.7919
1836	54.6956
1832	54.7233
1828	54.8012
1824	54.8256
1820	54.7976
1816	54.7446
1812	54.6759
1808	54.6062
1804	54.6152
1800	54.6489
1796	54.5936
1792	54.5434
1788	54.5548
1784	54.5449
1780	54.4843
1776	54.4778
1772	54.5215
1768	54.4623
1764	54.3694
1760	54.3592
1756	54.4125
1752	54.4226
1748	54.2595
1744	54.0869
1740	54.0825
1736	54.1664
1732	54.2227
1728	54.2052
1724	54.1883
1720	54.2168
1716	54.1425
1712	53.9842
1708	53.9789
1704	54.1127
1700	54.2324
1696	54.1705
1692	53.9922
1688	54.0163
1684	54.0791
1680	53.9356
1676	53.824
1672	53.8321
1668	53.7592
1664	53.5734
1660	53.5572
1656	53.8472
1652	54.0722
1648	53.9636
1644	53.6933
1640	53.5169
1636	53.4799
1632	53.4104
1628	53.3271
1624	53.3774
1620	53.5016
1616	53.5122
1612	53.3654
1608	53.209
1604	53.1179
1600	53.0786
1596	53.0468
1592	53.0131
1588	53.028
1584	53.0257
1580	52.9743
1576	52.9888
1572	53.0312
1568	53.0015
1564	53.0561
1560	53.2107
1556	53.1674
1552	52.995
1548	52.9735
1544	53.1341
1540	53.1829
1536	52.9498
1532	52.7606
1528	52.821
1524	52.9818
1520	53.015
1516	52.9219
1512	52.9107
1508	52.9427
1504	52.8122
1500	52.6385
1496	52.5333
1492	52.4465
1488	52.3902
1484	52.2803
1480	52.2046
1476	52.2876
1472	52.3664
1468	52.2999
1464	52.2599
1460	52.3656
1456	52.3296
1452	52.0846
1448	51.9952
1444	52.0743
1440	52.1276
1436	52.1157
1432	52.0122
1428	51.8868
1424	51.8919
1420	51.97
1416	51.9304
1412	51.7958
1408	51.6561
1404	51.5499
1400	51.5223
1396	51.5217
1392	51.5579
1388	51.6262
1384	51.6022
1380	51.5555
1376	51.5465
1372	51.4862
1368	51.3843
1364	51.3203
1360	51.3327
1356	51.3543
1352	51.305
1348	51.1782
1344	51.0953
1340	51.141
1336	51.1753
1332	51.1409
1328	51.1152
1324	51.1142
1320	51.1209
1316	51.0567
1312	50.9415
1308	50.8745
1304	50.8433
1300	50.7807
1296	50.6884
1292	50.6579
1288	50.7113
1284	50.7437
1280	50.7051
1276	50.6291
1272	50.6009
1268	50.6518
1264	50.6115
1260	50.4535
1256	50.3992
1252	50.4491
1248	50.4665
1244	50.3844
1240	50.2953
1236	50.3651
1232	50.4595
1228	50.3992
1224	50.3113
1220	50.2899
1216	50.2542
1212	50.1753
1208	50.1318
1204	50.185
1200	50.2257
1196	50.1393
1192	50.0366
1188	49.9831
1184	49.8967
1180	49.8387
1176	49.8869
1172	49.9589
1168	49.9874
1164	49.9786
1160	49.9202
1156	49.7673
1152	49.6253
1148	49.6252
1144	49.6214
1140	49.5088
1136	49.3957
1132	49.3705
1128	49.4245
1124	49.4707
1120	49.4909
1116	49.4323
1112	49.2941
1108	49.2441
1104	49.2432
1100	49.1314
1096	48.9594
1092	49.0188
1088	49.251
1084	49.2643
1080	49.1267
1076	48.994
1072	48.928
1068	48.9943
1064	49.0346
1060	48.9952
1056	48.9206
1052	48.7874
1048	48.6766
1044	48.6377
1040	48.6391
1036	48.6333
1032	48.6278
1028	48.6809
1024	48.701
1020	48.6245
1016	48.5215
1012	48.5292
1008	48.5004
1004	48.2784
1000	48.1713
996	 48.2314
992	 48.2423
988	 48.335
984	 48.539
980	 48.5733
976	 48.3747
972	 48.1616
968	 48.0554
964	 47.877
960	 47.6904
956	 47.5812
952	 47.4571
948	 47.6061
944	 48.0027
940	 48.1409
936	 47.9403
932	 47.5924
928	 47.2346
924	 47.184
920	 47.3562
916	 47.1819
912	 46.8554
908	 46.7602
904	 46.661
900	 46.6227
896	 46.7661
892	 46.9455
888	 47.1009
884	 47.2859
880	 47.3768
876	 47.1743
872	 46.9073
868	 46.8367
864	 46.8954
860	 46.8889
856	 46.7554
852	 46.5991
848	 46.4877
844	 46.4214
840	 46.3394
836	 46.2221
832	 46.1996
828	 46.3445
824	 46.5989
820	 46.7059
816	 46.5357
812	 46.3571
808	 46.2854
804	 46.1537
800	 46.0069
796	 46.0114
792	 46.0644
788	 46.1298
784	 46.1663
780	 46.0717
776	 45.9256
772	 45.7688
768	 45.6779
764	 45.7159
760	 45.7742
756	 45.8632
752	 45.9065
748	 45.7414
744	 45.4665
740	 45.1262
736	 45.0114
732	 45.2319
728	 45.1886
724	 44.9101
720	 44.9243
716	 45.0406
712	 44.9395
708	 44.761
704	 44.623
700	 44.6504
696	 44.7139
692	 44.4786
688	 44.2511
684	 44.2393
680	 44.1076
676	 43.8003
672	 43.5166
668	 43.3943
664	 43.438
660	 43.572
656	 43.7377
652	 43.8094
648	 43.6862
644	 43.4663
640	 43.2188
636	 43.031
632	 42.9093
628	 42.7989
624	 42.84
620	 42.8914
616	 42.774
612	 42.6893
608	 42.7819
604	 42.7842
600	 42.6007
596	 42.4765
592	 42.4677
588	 42.5319
584	 42.64
580	 42.7335
576	 42.7226
572	 42.5784
568	 42.2462
564	 41.7381
560	 41.3548
556	 41.3626
552	 41.4136
548	 41.2327
544	 41.0736
540	 40.9051
536	 40.7393
532	 40.9432
528	 41.0319
524	 40.4589
520	 39.9506
516	 39.7414
512	 39.4813
508	 39.2838
504	 39.3995
500	 40.108
496	 40.5416
492	 39.9525
488	 39.4557
484	 39.3898
480	 39.1505
476	 38.7657
472	 38.1953
468	 37.6206
464	 37.0646
460	 36.5091
456	 36.6391
452	 37.0239
448	 37.2765
444	 37.7116
440	 37.4705
436	 36.6479
432	 35.6059
428	 35.0564
424	 36.657
420	 38.1222
416	 37.3369
412	 36.2189
408	 35.4402
404	 35.3909
400	 36.3904
396	 37.8507
392	 40.3572
388	 48.4731
384	 55.5929
380	 50.3917
376	 43.5855
372	 42.3747
370	 45.8502