File: Bakgrunnsmateriale/MATLAB/FTIR/ftir_data/subBb/Mapping_121/C-4040-8_t115_cm-1.asc
PE IR       SPECTRUM    SPECTRUM    ASCII       PEDS        1.60
  -1
C-4A09~1.ASC
17/03/28
00:12:42.00
17/03/28
00:12:42.00
tln
$C-4040-8_t0115$<tbV0>[2.6,13.0,8.0,0.0,27,1,0]
370
64

2002,4.07
MIRTGS : RIGHTBACK : INTERNAL 2
MIR : ON : INTERNAL 2
OPTKBR

0.200000
8
8.000000
FILLER
RATIO
SPECTRUM
UNLOCKED 256

DOUBLE
64
COMBINED
1
0
0

1.000000
RATIO

1
0
TRUE
51149
0
LEFT NOT FITTED RIGHT NOT FITTED 0
NONE
NONE
15600
12
4.427000
51148
TRUE
1 0 8 72 0 0 0 0

15798

#HDR
-1
-1
#GR
CM-1
%T
2.38419e-05
0.0
5000
-1.000000
4631
8
119.471
46.8151
#DATA
5000	64.9253
4996	64.9489
4992	64.8021
4988	64.8697
4984	65.1173
4980	65.0054
4976	64.7665
4972	64.7531
4968	64.7068
4964	64.6279
4960	64.5761
4956	64.6874
4952	64.9164
4948	64.9358
4944	64.6499
4940	64.3709
4936	64.6054
4932	65.0115
4928	64.9195
4924	64.5726
4920	64.5124
4916	64.7801
4912	64.9956
4908	64.908
4904	64.8546
4900	65.0522
4896	65.1051
4892	64.8123
4888	64.3564
4884	64.1531
4880	64.1783
4876	64.1514
4872	64.2499
4868	64.3399
4864	64.4356
4860	64.5965
4856	64.7896
4852	65.1635
4848	65.3566
4844	65.0064
4840	64.513
4836	64.3719
4832	64.2804
4828	64.2848
4824	64.5625
4820	64.5377
4816	64.3608
4812	64.5504
4808	64.7823
4804	64.8021
4800	64.7399
4796	64.6494
4792	64.6038
4788	64.55
4784	64.5132
4780	64.5587
4776	64.5796
4772	64.5664
4768	64.4145
4764	64.2567
4760	64.3547
4756	64.6073
4752	64.9632
4748	65.3361
4744	65.4803
4740	65.3421
4736	65.042
4732	64.6825
4728	64.6954
4724	65.0838
4720	65.159
4716	64.874
4712	64.6273
4708	64.6397
4704	64.8199
4700	64.8702
4696	64.6704
4692	64.3487
4688	64.2642
4684	64.489
4680	64.7507
4676	64.8778
4672	64.9429
4668	65.0316
4664	65.054
4660	64.9276
4656	64.5949
4652	64.4148
4648	64.6039
4644	64.844
4640	64.9575
4636	65.0374
4632	65.0614
4628	64.8303
4624	64.5218
4620	64.2695
4616	64.1809
4612	64.57
4608	65.1188
4604	65.2431
4600	64.9712
4596	64.7691
4592	64.9113
4588	65.0823
4584	64.9748
4580	64.9194
4576	65.2114
4572	65.4926
4568	65.4379
4564	65.3647
4560	65.442
4556	65.4854
4552	65.6744
4548	66.1025
4544	66.1438
4540	65.4587
4536	64.4843
4532	63.9677
4528	64.4162
4524	65.1381
4520	65.5294
4516	65.7159
4512	65.6983
4508	65.5774
4504	65.2214
4500	64.847
4496	65.0724
4492	65.5265
4488	65.5918
4484	65.461
4480	65.6228
4476	65.7878
4472	65.5471
4468	65.4725
4464	65.6306
4460	65.5638
4456	65.4788
4452	65.3844
4448	65.0599
4444	64.6405
4440	64.5741
4436	65.0872
4432	65.5993
4428	65.3867
4424	64.7718
4420	64.9448
4416	65.7475
4412	67.7064
4408	67.8982
4404	63.4697
4400	53.8688
4396	46.8151
4392	52.9563
4388	60.5412
4384	61.9814
4380	64.3438
4376	66.4688
4372	67.1525
4368	67.1226
4364	66.3453
4360	65.9605
4356	65.6207
4352	65.2377
4348	65.0261
4344	65.0716
4340	65.2178
4336	65.2094
4332	65.1543
4328	65.1742
4324	65.1594
4320	65.1782
4316	65.2175
4312	65.2796
4308	65.3593
4304	65.2286
4300	65.1228
4296	65.2281
4292	65.1569
4288	65.1771
4284	65.4826
4280	65.5175
4276	65.2163
4272	64.8992
4268	64.7512
4264	64.8676
4260	65.003
4256	64.9192
4252	64.8756
4248	65.0087
4244	65.0755
4240	65.0736
4236	65.1378
4232	65.2646
4228	65.3373
4224	65.1777
4220	64.9217
4216	64.9375
4212	65.1913
4208	65.1983
4204	64.9415
4200	64.9413
4196	65.1532
4192	65.3007
4188	65.2989
4184	65.1822
4180	65.2154
4176	65.373
4172	65.2504
4168	64.8511
4164	64.5962
4160	64.6899
4156	64.9578
4152	65.0207
4148	64.8662
4144	64.9575
4140	65.1445
4136	65.0885
4132	65.1003
4128	65.1921
4124	65.1122
4120	64.9806
4116	64.8808
4112	64.7186
4108	64.5804
4104	64.5677
4100	64.6144
4096	64.7272
4092	64.8641
4088	64.9983
4084	65.1204
4080	65.1855
4076	65.2655
4072	65.2507
4068	65.0638
4064	64.9145
4060	64.9278
4056	65.0559
4052	65.203
4048	65.2157
4044	65.0941
4040	65.0111
4036	64.9628
4032	64.8333
4028	64.7748
4024	64.895
4020	64.9618
4016	64.8792
4012	64.7958
4008	64.8645
4004	65.0316
4000	65.0886
3996	65.0124
3992	64.9475
3988	64.9972
3984	65.0938
3980	65.1548
3976	65.1434
3972	65.0599
3968	65.0297
3964	65.0086
3960	65.0211
3956	65.1317
3952	65.1782
3948	65.1495
3944	65.0254
3940	64.951
3936	65.0932
3932	65.1039
3928	64.988
3924	65.0208
3920	64.983
3916	64.8356
3912	64.7738
3908	64.8196
3904	64.8144
3900	64.6846
3896	64.7205
3892	65.05
3888	65.3754
3884	65.3867
3880	65.1517
3876	65.0405
3872	65.1484
3868	65.2153
3864	65.2269
3860	65.2293
3856	65.1157
3852	65.022
3848	65.0441
3844	65.0588
3840	65.0116
3836	64.9086
3832	64.7876
3828	64.7956
3824	64.9703
3820	65.0437
3816	65.0131
3812	65.0473
3808	65.0172
3804	65.025
3800	65.1795
3796	65.2279
3792	65.1132
3788	65.099
3784	65.2413
3780	65.3358
3776	65.2994
3772	65.1643
3768	64.9703
3764	64.847
3760	64.9222
3756	65.0619
3752	65.0656
3748	64.9946
3744	65.0901
3740	65.3038
3736	65.3279
3732	65.193
3728	65.0794
3724	64.976
3720	64.8848
3716	64.8584
3712	64.9304
3708	65.0562
3704	65.1668
3700	65.2406
3696	65.1762
3692	65.0571
3688	65.008
3684	64.8995
3680	64.8225
3676	64.9362
3672	65.1431
3668	65.2938
3664	65.2473
3660	65.0642
3656	64.9875
3652	65.0055
3648	64.9647
3644	64.9319
3640	65.0083
3636	65.0594
3632	65.0265
3628	65.0086
3624	64.9906
3620	65.0218
3616	65.0539
3612	64.9744
3608	64.9741
3604	65.1052
3600	65.1534
3596	65.1314
3592	65.1272
3588	65.0075
3584	64.8196
3580	64.7921
3576	64.9056
3572	64.9846
3568	65.0259
3564	65.155
3560	65.2204
3556	65.1232
3552	65.0254
3548	64.9872
3544	65.0559
3540	65.0961
3536	65.0142
3532	65.0446
3528	65.2305
3524	65.3724
3520	65.3033
3516	65.1168
3512	64.9924
3508	64.9534
3504	65.0322
3500	65.2171
3496	65.4208
3492	65.4994
3488	65.3978
3484	65.2984
3480	65.2032
3476	64.9828
3472	64.8462
3468	65.0193
3464	65.2576
3460	65.1592
3456	64.9008
3452	64.8686
3448	65.0156
3444	65.1496
3440	65.1903
3436	65.1256
3432	65.0059
3428	64.9961
3424	65.0579
3420	65.0557
3416	65.0827
3412	65.1283
3408	65.083
3404	65.0671
3400	65.1311
3396	65.101
3392	65.0415
3388	65.0743
3384	65.1221
3380	65.1054
3376	64.9737
3372	64.8663
3368	64.9686
3364	65.0991
3360	65.03
3356	64.9397
3352	64.9506
3348	64.9735
3344	65.0061
3340	65.03
3336	65.04
3332	65.0686
3328	65.0626
3324	64.9819
3320	64.902
3316	64.9073
3312	64.9477
3308	64.9061
3304	64.8586
3300	64.8886
3296	64.8977
3292	64.9468
3288	65.0614
3284	65.0419
3280	64.9069
3276	64.8494
3272	64.9078
3268	64.9748
3264	65.0574
3260	65.1714
3256	65.1645
3252	65.0478
3248	64.9583
3244	64.8778
3240	64.8401
3236	64.9273
3232	64.9785
3228	64.9097
3224	64.9139
3220	65.0303
3216	65.1007
3212	65.0434
3208	64.9402
3204	64.9442
3200	65.006
3196	64.9204
3192	64.7678
3188	64.8427
3184	65.0521
3180	65.1623
3176	65.1486
3172	65.0321
3168	64.9306
3164	64.961
3160	65.0854
3156	65.185
3152	65.2047
3148	65.149
3144	65.0722
3140	64.9811
3136	64.8693
3132	64.9625
3128	65.1973
3124	65.2926
3120	65.325
3116	65.3194
3112	65.2384
3108	65.1037
3104	64.9643
3100	64.9065
3096	64.9532
3092	65.0444
3088	65.0232
3084	65.0252
3080	65.1473
3076	65.1319
3072	65.0138
3068	64.9886
3064	65.0592
3060	65.1244
3056	65.0969
3052	65.0218
3048	65.0126
3044	65.1158
3040	65.2437
3036	65.2923
3032	65.2348
3028	65.1845
3024	65.2319
3020	65.2383
3016	65.1389
3012	65.0694
3008	65.0816
3004	65.0786
3000	65.0633
2996	65.1508
2992	65.3031
2988	65.3286
2984	65.1422
2980	64.9202
2976	64.8446
2972	64.863
2968	64.8855
2964	64.8645
2960	64.7965
2956	64.8181
2952	64.9392
2948	65.0158
2944	65.0575
2940	65.0385
2936	64.9637
2932	64.9122
2928	64.8459
2924	64.7951
2920	64.8167
2916	64.8593
2912	64.8846
2908	64.8816
2904	64.842
2900	64.8248
2896	64.9052
2892	64.9783
2888	64.9628
2884	64.9618
2880	64.9946
2876	65.026
2872	65.0009
2868	64.9673
2864	64.9803
2860	64.9439
2856	64.8811
2852	64.8595
2848	64.9062
2844	64.9628
2840	64.9895
2836	65.0514
2832	65.1225
2828	65.1473
2824	65.0961
2820	65.0178
2816	65.0215
2812	65.0689
2808	65.08
2804	65.0916
2800	65.0939
2796	65.0684
2792	65.0728
2788	65.111
2784	65.129
2780	65.0661
2776	64.9834
2772	64.9985
2768	65.0415
2764	65.057
2760	65.0698
2756	65.055
2752	65.0326
2748	65.0115
2744	65.0233
2740	65.0707
2736	65.0679
2732	65.0325
2728	65.0234
2724	65.0601
2720	65.0916
2716	65.0816
2712	65.0942
2708	65.1131
2704	65.1179
2700	65.1358
2696	65.1519
2692	65.1981
2688	65.2635
2684	65.2191
2680	65.1396
2676	65.148
2672	65.1671
2668	65.15
2664	65.0897
2660	65.0559
2656	65.1019
2652	65.1213
2648	65.0671
2644	65.0363
2640	65.031
2636	64.9777
2632	64.9749
2628	65.0664
2624	65.158
2620	65.2345
2616	65.2355
2612	65.1432
2608	65.0712
2604	65.0417
2600	65.061
2596	65.1641
2592	65.2058
2588	65.1073
2584	65.0628
2580	65.1296
2576	65.1576
2572	65.1219
2568	65.1562
2564	65.2315
2560	65.2184
2556	65.2066
2552	65.2389
2548	65.191
2544	65.1445
2540	65.2118
2536	65.2106
2532	65.1222
2528	65.1755
2524	65.3033
2520	65.3158
2516	65.2561
2512	65.2854
2508	65.3984
2504	65.43
2500	65.3687
2496	65.2126
2492	65.0213
2488	65.0312
2484	65.1878
2480	65.2808
2476	65.2545
2472	65.1549
2468	65.1399
2464	65.2268
2460	65.2848
2456	65.2111
2452	65.1444
2448	65.2349
2444	65.2788
2440	65.1795
2436	65.1549
2432	65.2339
2428	65.0943
2424	64.8559
2420	64.9099
2416	65.1706
2412	65.358
2408	65.2779
2404	65.1355
2400	65.1443
2396	65.155
2392	65.1415
2388	65.152
2384	65.1131
2380	65.0646
2376	65.0989
2372	65.1387
2368	65.1618
2364	65.1886
2360	65.1554
2356	65.1309
2352	65.1951
2348	65.2491
2344	65.2013
2340	65.1006
2336	65.0775
2332	65.1538
2328	65.1955
2324	65.1682
2320	65.1751
2316	65.2116
2312	65.1778
2308	65.1381
2304	65.2216
2300	65.2919
2296	65.2259
2292	65.1596
2288	65.149
2284	65.1246
2280	65.0764
2276	65.0646
2272	65.0891
2268	65.1614
2264	65.2802
2260	65.2737
2256	65.1641
2252	65.1672
2248	65.2436
2244	65.2386
2240	65.1597
2236	65.1231
2232	65.1545
2228	65.1582
2224	65.1215
2220	65.1357
2216	65.1669
2212	65.1586
2208	65.1859
2204	65.2454
2200	65.2468
2196	65.1998
2192	65.1344
2188	65.0661
2184	65.0612
2180	65.1227
2176	65.1929
2172	65.2548
2168	65.339
2164	65.4115
2160	65.3899
2156	65.3279
2152	65.3355
2148	65.3883
2144	65.3115
2140	65.1156
2136	65.0257
2132	65.0557
2128	65.1088
2124	65.1361
2120	65.0898
2116	65.0055
2112	65.0184
2108	65.1351
2104	65.2126
2100	65.2005
2096	65.1574
2092	65.1491
2088	65.1972
2084	65.1723
2080	64.9955
2076	64.9588
2072	65.2542
2068	65.6126
2064	65.7423
2060	65.5684
2056	65.3124
2052	65.1926
2048	65.1587
2044	65.151
2040	65.1685
2036	65.1824
2032	65.2099
2028	65.2672
2024	65.2686
2020	65.2441
2016	65.2317
2012	65.1879
2008	65.1811
2004	65.2098
2000	65.1975
1996	65.154
1992	65.1033
1988	65.0746
1984	65.112
1980	65.1896
1976	65.1959
1972	65.1049
1968	65.0784
1964	65.1285
1960	65.1071
1956	65.0995
1952	65.1533
1948	65.1607
1944	65.1242
1940	65.079
1936	65.0783
1932	65.1437
1928	65.2213
1924	65.2229
1920	65.1636
1916	65.1684
1912	65.1828
1908	65.1479
1904	65.1089
1900	65.0772
1896	65.0713
1892	65.0643
1888	65.0618
1884	65.1138
1880	65.1365
1876	65.0696
1872	65.0657
1868	65.1112
1864	65.0595
1860	65.0067
1856	65.0426
1852	65.1332
1848	65.234
1844	65.2596
1840	65.1616
1836	65.0649
1832	65.0828
1828	65.1595
1824	65.1881
1820	65.1408
1816	65.0747
1812	64.9728
1808	64.9046
1804	65.0137
1800	65.1805
1796	65.1718
1792	65.0216
1788	64.9444
1784	65.022
1780	65.1183
1776	65.1475
1772	65.1727
1768	65.1468
1764	65.0351
1760	64.9607
1756	64.9927
1752	65.0054
1748	64.9184
1744	64.8372
1740	64.7897
1736	64.7457
1732	64.7286
1728	64.7837
1724	64.911
1720	65.0741
1716	65.2258
1712	65.2472
1708	65.1384
1704	65.0713
1700	65.1134
1696	65.1522
1692	65.1273
1688	65.0832
1684	65.0382
1680	65.0092
1676	65.028
1672	65.0611
1668	65.0104
1664	64.8735
1660	64.8284
1656	64.9509
1652	65.0575
1648	65.0651
1644	65.0609
1640	65.0748
1636	65.0459
1632	64.9709
1628	64.9861
1624	65.0635
1620	65.0706
1616	65.0845
1612	65.1383
1608	65.1012
1604	65.0248
1600	65.0414
1596	65.0613
1592	65.0142
1588	64.9481
1584	64.8614
1580	64.7816
1576	64.749
1572	64.7443
1568	64.7542
1564	64.7657
1560	64.795
1556	64.8314
1552	64.8294
1548	64.7799
1544	64.7621
1540	64.8874
1536	65.069
1532	65.125
1528	65.0862
1524	65.0738
1520	64.9999
1516	64.9118
1512	64.9698
1508	65.0338
1504	65.0139
1500	65.0004
1496	65.0062
1492	65.0044
1488	65.011
1484	65.0473
1480	65.0771
1476	65.0478
1472	64.9886
1468	64.9526
1464	64.9186
1460	64.8497
1456	64.7504
1452	64.6657
1448	64.659
1444	64.7223
1440	64.7866
1436	64.8625
1432	65.0012
1428	65.0753
1424	64.9844
1420	64.8929
1416	64.8598
1412	64.8089
1408	64.8131
1404	64.8936
1400	64.9191
1396	64.8958
1392	64.9514
1388	64.9995
1384	64.8976
1380	64.807
1376	64.8416
1372	64.8452
1368	64.801
1364	64.8215
1360	64.8813
1356	64.9164
1352	64.8946
1348	64.8196
1344	64.7532
1340	64.7265
1336	64.7802
1332	64.8994
1328	64.9288
1324	64.8763
1320	64.9137
1316	64.9688
1312	64.8803
1308	64.7288
1304	64.6608
1300	64.7096
1296	64.7599
1292	64.7189
1288	64.656
1284	64.6707
1280	64.8057
1276	64.9486
1272	64.9249
1268	64.7508
1264	64.5907
1260	64.5925
1256	64.7198
1252	64.7762
1248	64.7055
1244	64.6606
1240	64.6935
1236	64.7287
1232	64.788
1228	64.8134
1224	64.752
1220	64.7327
1216	64.7893
1212	64.8203
1208	64.7845
1204	64.7009
1200	64.5977
1196	64.5634
1192	64.6113
1188	64.6754
1184	64.707
1180	64.6734
1176	64.6264
1172	64.6337
1168	64.7174
1164	64.8401
1160	64.8525
1156	64.6922
1152	64.5172
1148	64.4509
1144	64.5159
1140	64.6453
1136	64.7134
1132	64.6788
1128	64.5516
1124	64.4717
1120	64.5989
1116	64.8716
1112	64.9826
1108	64.8431
1104	64.7011
1100	64.6604
1096	64.6755
1092	64.6368
1088	64.6218
1084	64.6503
1080	64.5749
1076	64.5543
1072	64.6791
1068	64.7237
1064	64.5753
1060	64.409
1056	64.3145
1052	64.3106
1048	64.4322
1044	64.5286
1040	64.5644
1036	64.531
1032	64.3772
1028	64.2572
1024	64.3715
1020	64.6378
1016	64.7889
1012	64.8261
1008	64.7719
1004	64.4993
1000	64.1739
996	 64.1578
992	 64.3839
988	 64.5269
984	 64.5429
980	 64.5291
976	 64.4983
972	 64.4439
968	 64.4545
964	 64.4745
960	 64.4977
956	 64.5927
952	 64.6156
948	 64.5973
944	 64.603
940	 64.5007
936	 64.4598
932	 64.5685
928	 64.4906
924	 64.2971
920	 64.2896
916	 64.3964
912	 64.4519
908	 64.4796
904	 64.3984
900	 64.1381
896	 64.054
892	 64.0476
888	 63.8919
884	 63.8049
880	 63.7293
876	 63.7486
872	 63.9929
868	 64.2198
864	 64.2572
860	 64.2559
856	 64.3453
852	 64.1137
848	 63.631
844	 63.7584
840	 64.3574
836	 64.4864
832	 64.3182
828	 64.2979
824	 64.2102
820	 64.2038
816	 64.1215
812	 63.8635
808	 63.7929
804	 63.7281
800	 63.5378
796	 63.4018
792	 63.4984
788	 63.7726
784	 63.7899
780	 63.6395
776	 63.5633
772	 63.3996
768	 63.422
764	 63.5028
760	 63.5123
756	 63.6256
752	 63.6959
748	 63.9727
744	 64.3733
740	 64.2532
736	 63.5724
732	 63.0941
728	 63.2283
724	 63.5918
720	 63.7638
716	 63.5397
712	 63.2512
708	 63.2748
704	 63.4933
700	 63.6887
696	 63.6944
692	 63.6305
688	 63.4715
684	 63.0677
680	 62.745
676	 62.7043
672	 62.9048
668	 63.2215
664	 63.1936
660	 62.8793
656	 62.9606
652	 63.2579
648	 63.0466
644	 62.4412
640	 62.2101
636	 62.4591
632	 62.5459
628	 62.52
624	 62.5166
620	 62.3168
616	 62.2399
612	 62.468
608	 62.8607
604	 63.1821
600	 63.1062
596	 62.7493
592	 62.3619
588	 62.0373
584	 61.8488
580	 61.8572
576	 62.02
572	 62.0219
568	 61.8996
564	 61.8659
560	 61.7717
556	 61.6593
552	 61.5621
548	 61.5422
544	 61.8659
540	 62.1899
536	 62.1135
532	 61.6618
528	 61.1025
524	 60.7706
520	 60.6797
516	 60.8277
512	 60.885
508	 60.5368
504	 60.2035
500	 60.0368
496	 60.2368
492	 61.0067
488	 61.3323
484	 60.997
480	 60.5996
476	 60.2036
472	 60.19
468	 60.2968
464	 60.7807
460	 61.4634
456	 60.7307
452	 59.2406
448	 58.6789
444	 58.8929
440	 58.973
436	 59.055
432	 59.3462
428	 59.56
424	 59.4108
420	 59.1509
416	 58.8948
412	 61.2599
408	 66.9149
404	 70.5693
400	 67.0588
396	 53.4643
392	 48.109
388	 70.5194
384	 99.4829
380	 109.991
376	 119.027
372	 105.647
370	 85.9904