File: Bakgrunnsmateriale/MATLAB/FTIR/ftir_data/subBb/Mapping_121/C-4040-8_t49_cm-1.asc
PE IR       SPECTRUM    SPECTRUM    ASCII       PEDS        1.60
  -1
C-9BE0~1.ASC
17/03/27
18:32:22.00
17/03/27
18:32:22.00
tln
$C-4040-8_t0049$<tbV0>[2.6,-2.6,8.0,0.0,27,1,0]
370
64

2002,4.07
MIRTGS : RIGHTBACK : INTERNAL 2
MIR : ON : INTERNAL 2
OPTKBR

0.200000
8
8.000000
FILLER
RATIO
SPECTRUM
UNLOCKED 256

DOUBLE
64
COMBINED
1
0
0

1.000000
RATIO

1
0
TRUE
51149
0
LEFT NOT FITTED RIGHT NOT FITTED 0
NONE
NONE
15600
12
4.427000
51148
TRUE
1 0 8 72 0 0 0 0

15798

#HDR
-1
-1
#GR
CM-1
%T
2.38419e-05
0.0
5000
-1.000000
4631
8
75.5474
21.7587
#DATA
5000	64.0359
4996	64.3006
4992	64.3402
4988	64.5656
4984	64.7841
4980	64.6923
4976	64.5943
4972	64.4104
4968	64.1047
4964	63.7806
4960	64.0401
4956	64.7201
4952	64.6797
4948	64.3596
4944	64.4428
4940	64.5197
4936	64.3265
4932	64.2702
4928	64.6599
4924	64.9665
4920	64.7916
4916	64.6183
4912	64.4852
4908	64.2953
4904	64.3972
4900	64.3954
4896	64.4204
4892	64.8305
4888	64.5937
4884	63.5141
4880	62.8693
4876	63.2716
4872	63.957
4868	63.9089
4864	63.4384
4860	63.46
4856	63.8494
4852	63.8065
4848	63.3707
4844	63.4627
4840	64.0198
4836	64.2177
4832	64.1666
4828	64.2778
4824	64.4181
4820	64.4952
4816	64.4028
4812	64.094
4808	64.0728
4804	64.4721
4800	64.636
4796	64.398
4792	64.2094
4788	64.1891
4784	64.2888
4780	64.4324
4776	64.3197
4772	64.103
4768	64.1324
4764	64.1708
4760	64.2189
4756	64.4482
4752	64.3121
4748	63.8736
4744	63.8103
4740	63.9025
4736	63.8309
4732	63.6708
4728	63.5442
4724	63.6839
4720	64.0107
4716	64.3127
4712	64.5195
4708	64.573
4704	64.4813
4700	64.3052
4696	64.1992
4692	64.1303
4688	63.9727
4684	63.9513
4680	64.1578
4676	64.2483
4672	64.0461
4668	63.7825
4664	63.8214
4660	64.0453
4656	64.0003
4652	63.8452
4648	64.0043
4644	64.1473
4640	64.047
4636	64.1039
4632	64.2531
4628	64.2653
4624	64.0938
4620	63.888
4616	63.9009
4612	64.0013
4608	63.9548
4604	63.9501
4600	64.1538
4596	64.1418
4592	63.8242
4588	63.732
4584	64.0024
4580	64.2097
4576	64.1746
4572	63.9819
4568	63.7497
4564	63.7183
4560	63.8307
4556	64.0036
4552	64.2117
4548	64.1542
4544	63.9002
4540	63.753
4536	63.7766
4532	63.9451
4528	64.0066
4524	64.0766
4520	64.2452
4516	64.408
4512	64.6263
4508	64.6633
4504	64.4577
4500	64.1353
4496	63.9192
4492	63.902
4488	63.9958
4484	64.1828
4480	64.3494
4476	64.3277
4472	64.2386
4468	64.3396
4464	64.4832
4460	64.4286
4456	64.3213
4452	64.2837
4448	64.134
4444	64.0892
4440	64.2332
4436	64.3754
4432	64.5638
4428	64.7595
4424	64.7507
4420	64.514
4416	64.3981
4412	64.4225
4408	64.5058
4404	64.6422
4400	64.4601
4396	64.3574
4392	64.4496
4388	64.4442
4384	64.5853
4380	64.5725
4376	63.9137
4372	63.6357
4368	63.2331
4364	58.7041
4360	52.9771
4356	53.8964
4352	66.4231
4348	75.5474
4344	71.6783
4340	67.695
4336	66.1371
4332	65.6289
4328	65.8139
4324	65.1945
4320	64.8107
4316	64.3115
4312	63.8453
4308	63.9105
4304	64.0856
4300	64.0901
4296	64.14
4292	64.0124
4288	63.7736
4284	63.9256
4280	64.3692
4276	64.5863
4272	64.3963
4268	64.1154
4264	63.9572
4260	63.9246
4256	64.0402
4252	64.1397
4248	64.0945
4244	63.9601
4240	63.8502
4236	63.8733
4232	63.8926
4228	63.766
4224	63.6858
4220	63.8467
4216	64.0068
4212	63.8905
4208	63.8697
4204	64.0114
4200	63.8065
4196	63.4562
4192	63.2472
4188	63.2179
4184	63.4454
4180	63.398
4176	63.2382
4172	63.6998
4168	64.3028
4164	64.4254
4160	64.265
4156	64.0548
4152	63.8919
4148	63.8264
4144	63.8008
4140	63.6321
4136	63.3061
4132	63.2303
4128	63.4771
4124	63.6404
4120	63.6218
4116	63.5349
4112	63.4696
4108	63.509
4104	63.6597
4100	63.8391
4096	63.8494
4092	63.6078
4088	63.4782
4084	63.6357
4080	63.771
4076	63.8704
4072	63.9135
4068	63.7662
4064	63.5665
4060	63.5673
4056	63.7455
4052	63.7759
4048	63.6561
4044	63.5621
4040	63.5531
4036	63.6603
4032	63.7874
4028	63.7982
4024	63.723
4020	63.7188
4016	63.8653
4012	63.9971
4008	63.9053
4004	63.7027
4000	63.6385
3996	63.7479
3992	63.9494
3988	64.0786
3984	64.0225
3980	63.9518
3976	63.9482
3972	63.8562
3968	63.6941
3964	63.6248
3960	63.6821
3956	63.7837
3952	63.7729
3948	63.6608
3944	63.6994
3940	63.8458
3936	63.8324
3932	63.7283
3928	63.618
3924	63.4893
3920	63.4315
3916	63.4969
3912	63.607
3908	63.5852
3904	63.5108
3900	63.5564
3896	63.6637
3892	63.7867
3888	63.8774
3884	63.7786
3880	63.5603
3876	63.5555
3872	63.7136
3868	63.747
3864	63.692
3860	63.6519
3856	63.617
3852	63.5506
3848	63.5888
3844	63.7517
3840	63.8632
3836	63.739
3832	63.4305
3828	63.3783
3824	63.4379
3820	63.2474
3816	63.2342
3812	63.5747
3808	63.7824
3804	63.707
3800	63.5837
3796	63.5931
3792	63.5981
3788	63.4392
3784	63.3897
3780	63.5672
3776	63.6735
3772	63.5782
3768	63.4895
3764	63.5751
3760	63.6665
3756	63.6112
3752	63.5624
3748	63.5569
3744	63.4998
3740	63.3774
3736	63.3897
3732	63.6309
3728	63.7055
3724	63.5025
3720	63.3464
3716	63.3499
3712	63.4942
3708	63.5895
3704	63.3942
3700	63.1753
3696	63.2323
3692	63.4176
3688	63.5484
3684	63.5539
3680	63.4459
3676	63.3828
3672	63.3027
3668	63.1408
3664	63.1282
3660	63.2396
3656	63.2713
3652	63.198
3648	63.1347
3644	63.1555
3640	63.2676
3636	63.3355
3632	63.2523
3628	63.2368
3624	63.2968
3620	63.2214
3616	63.1049
3612	63.1474
3608	63.2258
3604	63.1387
3600	63.0521
3596	63.0245
3592	62.9587
3588	62.9463
3584	63.0395
3580	63.1454
3576	63.1222
3572	63.0282
3568	63.0037
3564	63.0625
3560	63.0983
3556	63.0448
3552	63.0621
3548	63.0611
3544	62.8719
3540	62.7111
3536	62.6819
3532	62.7026
3528	62.7828
3524	62.8917
3520	62.9067
3516	62.86
3512	62.9134
3508	63.0668
3504	63.1076
3500	62.9559
3496	62.8093
3492	62.8114
3488	62.9677
3484	63.0407
3480	62.9452
3476	62.9762
3472	63.1038
3468	63.0631
3464	62.8758
3460	62.7242
3456	62.6715
3452	62.6966
3448	62.7528
3444	62.8169
3440	62.8502
3436	62.8175
3432	62.7719
3428	62.8237
3424	62.9225
3420	62.8851
3416	62.7499
3412	62.6599
3408	62.6384
3404	62.6389
3400	62.7291
3396	62.9066
3392	62.9741
3388	62.8705
3384	62.6709
3380	62.4947
3376	62.4859
3372	62.6168
3368	62.7242
3364	62.7426
3360	62.6835
3356	62.558
3352	62.4968
3348	62.5411
3344	62.5731
3340	62.6443
3336	62.6948
3332	62.5936
3328	62.5966
3324	62.738
3320	62.6389
3316	62.3752
3312	62.2791
3308	62.3264
3304	62.4023
3300	62.4637
3296	62.4574
3292	62.3669
3288	62.2293
3284	62.1427
3280	62.1761
3276	62.252
3272	62.3336
3268	62.4099
3264	62.4208
3260	62.4603
3256	62.5811
3252	62.5827
3248	62.4086
3244	62.2451
3240	62.235
3236	62.4512
3232	62.6493
3228	62.5101
3224	62.2497
3220	62.1928
3216	62.2169
3212	62.1459
3208	61.9965
3204	61.8545
3200	61.9828
3196	62.2753
3192	62.3212
3188	62.1702
3184	62.0926
3180	62.211
3176	62.3206
3172	62.1995
3168	61.9919
3164	61.8674
3160	61.9288
3156	62.1215
3152	62.1785
3148	62.1192
3144	62.0766
3140	62.0219
3136	61.9813
3132	61.967
3128	62.04
3124	62.1442
3120	61.9731
3116	61.5628
3112	61.3854
3108	61.6818
3104	62.0568
3100	62.1047
3096	61.9573
3092	61.9075
3088	61.9596
3084	61.8847
3080	61.8008
3076	61.8597
3072	61.9126
3068	61.9103
3064	61.8462
3060	61.7488
3056	61.7641
3052	61.8936
3048	61.9401
3044	61.8589
3040	61.8161
3036	61.8627
3032	61.8131
3028	61.6726
3024	61.5434
3020	61.4289
3016	61.45
3012	61.5883
3008	61.6066
3004	61.4711
3000	61.4382
2996	61.5149
2992	61.5352
2988	61.5136
2984	61.4665
2980	61.4341
2976	61.4577
2972	61.5535
2968	61.6882
2964	61.6627
2960	61.4962
2956	61.3909
2952	61.3888
2948	61.4435
2944	61.4561
2940	61.3627
2936	61.2284
2932	61.1322
2928	61.0506
2924	60.994
2920	60.994
2916	61.0882
2912	61.2248
2908	61.2326
2904	61.2165
2900	61.2657
2896	61.2549
2892	61.2398
2888	61.2519
2884	61.1638
2880	61.0587
2876	61.1203
2872	61.2038
2868	61.0968
2864	60.8617
2860	60.7359
2856	60.7667
2852	60.7893
2848	60.8769
2844	61.0568
2840	61.1245
2836	61.0032
2832	60.8625
2828	60.874
2824	60.9457
2820	60.99
2816	61.0087
2812	61.0025
2808	61.0313
2804	61.0849
2800	61.0471
2796	60.9611
2792	60.9187
2788	60.8837
2784	60.8249
2780	60.7543
2776	60.7512
2772	60.771
2768	60.7631
2764	60.8098
2760	60.8217
2756	60.6806
2752	60.5782
2748	60.6253
2744	60.6971
2740	60.7559
2736	60.7553
2732	60.7063
2728	60.7176
2724	60.7219
2720	60.6537
2716	60.6077
2712	60.6008
2708	60.625
2704	60.621
2700	60.5004
2696	60.4254
2692	60.427
2688	60.3809
2684	60.3642
2680	60.3996
2676	60.4396
2672	60.4819
2668	60.4534
2664	60.3662
2660	60.3515
2656	60.3898
2652	60.4071
2648	60.4159
2644	60.429
2640	60.4404
2636	60.4042
2632	60.3093
2628	60.2266
2624	60.186
2620	60.1638
2616	60.177
2612	60.225
2608	60.1984
2604	60.0664
2600	59.9713
2596	59.9948
2592	60.0666
2588	60.1085
2584	60.1455
2580	60.1935
2576	60.1965
2572	60.1168
2568	60.0196
2564	60.0063
2560	60.044
2556	60.0617
2552	60.0463
2548	59.9946
2544	59.9566
2540	59.9758
2536	59.9429
2532	59.8217
2528	59.8058
2524	59.9126
2520	59.945
2516	59.8366
2512	59.7603
2508	59.7914
2504	59.703
2500	59.5676
2496	59.6069
2492	59.634
2488	59.6931
2484	59.8656
2480	59.8492
2476	59.6811
2472	59.5512
2468	59.5002
2464	59.5578
2460	59.6327
2456	59.6084
2452	59.5679
2448	59.6356
2444	59.6994
2440	59.6618
2436	59.605
2432	59.7376
2428	59.9331
2424	59.8797
2420	59.7442
2416	59.5751
2412	59.4088
2408	59.5495
2404	59.7633
2400	59.7144
2396	59.5474
2392	59.4229
2388	59.3009
2384	59.1753
2380	59.0765
2376	59.0445
2372	59.1087
2368	59.1083
2364	59.0434
2360	59.0336
2356	59.0325
2352	59.0084
2348	58.9563
2344	58.911
2340	58.9235
2336	58.9673
2332	58.9635
2328	58.9095
2324	58.8548
2320	58.8305
2316	58.8384
2312	58.8265
2308	58.8132
2304	58.8136
2300	58.7746
2296	58.7181
2292	58.6954
2288	58.7052
2284	58.7349
2280	58.7499
2276	58.722
2272	58.6909
2268	58.6624
2264	58.6004
2260	58.5715
2256	58.6288
2252	58.6739
2248	58.6909
2244	58.6761
2240	58.6165
2236	58.6103
2232	58.6226
2228	58.5659
2224	58.4595
2220	58.4056
2216	58.4467
2212	58.4368
2208	58.3769
2204	58.4027
2200	58.4234
2196	58.3826
2192	58.3936
2188	58.4131
2184	58.3382
2180	58.2532
2176	58.2449
2172	58.1839
2168	58.0803
2164	58.1741
2160	58.2705
2156	58.1146
2152	58.0387
2148	58.1205
2144	58.0969
2140	58.0878
2136	58.1069
2132	58.0362
2128	58.0027
2124	57.9772
2120	57.8801
2116	57.8201
2112	57.8552
2108	57.8785
2104	57.812
2100	57.7498
2096	57.7456
2092	57.7257
2088	57.679
2084	57.7332
2080	57.8004
2076	57.615
2072	57.3028
2068	57.127
2064	57.1701
2060	57.2945
2056	57.293
2052	57.3794
2048	57.6375
2044	57.7162
2040	57.6022
2036	57.5442
2032	57.5573
2028	57.5205
2024	57.4732
2020	57.4199
2016	57.2919
2012	57.2572
2008	57.335
2004	57.3764
2000	57.3691
1996	57.3695
1992	57.4001
1988	57.4101
1984	57.3632
1980	57.2711
1976	57.216
1972	57.2215
1968	57.2051
1964	57.1779
1960	57.1687
1956	57.1995
1952	57.2683
1948	57.256
1944	57.1288
1940	56.9746
1936	56.9175
1932	56.953
1928	56.945
1924	56.953
1920	57.0232
1916	57.0251
1912	56.9574
1908	56.8683
1904	56.7785
1900	56.7675
1896	56.8141
1892	56.8242
1888	56.7981
1884	56.8053
1880	56.8129
1876	56.7321
1872	56.6435
1868	56.6315
1864	56.6474
1860	56.6382
1856	56.5588
1852	56.4881
1848	56.5665
1844	56.6269
1840	56.5279
1836	56.4694
1832	56.5084
1828	56.5074
1824	56.4242
1820	56.3343
1816	56.3065
1812	56.3552
1808	56.4249
1804	56.4345
1800	56.3513
1796	56.2108
1792	56.1562
1788	56.2166
1784	56.257
1780	56.2231
1776	56.1607
1772	56.1506
1768	56.193
1764	56.1908
1760	56.1363
1756	56.0726
1752	56.0224
1748	56.0143
1744	56.009
1740	55.954
1736	55.8561
1732	55.7446
1728	55.6377
1724	55.615
1720	55.6237
1716	55.5607
1712	55.607
1708	55.7811
1704	55.8793
1700	55.8417
1696	55.7478
1692	55.6775
1688	55.6531
1684	55.7069
1680	55.7589
1676	55.7748
1672	55.8197
1668	55.8316
1664	55.7606
1660	55.6242
1656	55.5124
1652	55.4781
1648	55.4879
1644	55.5053
1640	55.4911
1636	55.3911
1632	55.2709
1628	55.2586
1624	55.2794
1620	55.2689
1616	55.245
1612	55.2312
1608	55.2362
1604	55.1901
1600	55.105
1596	55.045
1592	55.0333
1588	55.0574
1584	55.0878
1580	55.1618
1576	55.2266
1572	55.1872
1568	55.1019
1564	55.0131
1560	54.9198
1556	54.8972
1552	54.8784
1548	54.783
1544	54.7371
1540	54.7878
1536	54.8266
1532	54.8115
1528	54.7876
1524	54.7667
1520	54.7838
1516	54.8189
1512	54.8537
1508	54.9022
1504	54.9229
1500	54.912
1496	54.8504
1492	54.8022
1488	54.7992
1484	54.7108
1480	54.5909
1476	54.5156
1472	54.4848
1468	54.5489
1464	54.5992
1460	54.4575
1456	54.257
1452	54.3062
1448	54.3537
1444	54.2398
1440	54.2604
1436	54.213
1432	54.0997
1428	54.2192
1424	54.36
1420	54.2761
1416	54.1065
1412	54.0239
1408	54.0072
1404	54.0707
1400	54.1518
1396	54.2185
1392	54.2896
1388	54.2418
1384	54.1095
1380	53.9764
1376	53.9562
1372	54.0722
1368	54.1344
1364	54.0915
1360	53.9747
1356	53.8687
1352	53.8497
1348	53.8049
1344	53.729
1340	53.7351
1336	53.8088
1332	53.8592
1328	53.8717
1324	53.8189
1320	53.6511
1316	53.5257
1312	53.5314
1308	53.5704
1304	53.6377
1300	53.7451
1296	53.7818
1292	53.6978
1288	53.6275
1284	53.5646
1280	53.4747
1276	53.4894
1272	53.5208
1268	53.4676
1264	53.4092
1260	53.3657
1256	53.3193
1252	53.2966
1248	53.3343
1244	53.3575
1240	53.289
1236	53.1695
1232	53.1387
1228	53.2529
1224	53.3137
1220	53.2648
1216	53.2729
1212	53.3364
1208	53.3585
1204	53.3444
1200	53.3296
1196	53.2062
1192	52.9828
1188	52.8511
1184	52.7951
1180	52.894
1176	53.1008
1172	53.1034
1168	52.9889
1164	52.988
1160	53.0113
1156	52.9707
1152	53.0074
1148	53.0037
1144	52.7301
1140	52.5054
1136	52.5129
1132	52.6557
1128	52.8249
1124	52.8417
1120	52.7764
1116	52.7196
1112	52.7171
1108	52.7015
1104	52.5578
1100	52.4342
1096	52.3404
1092	52.275
1088	52.5206
1084	52.7527
1080	52.5606
1076	52.2865
1072	52.1818
1068	52.2409
1064	52.3771
1060	52.4056
1056	52.2278
1052	52.1377
1048	52.3113
1044	52.3653
1040	52.2458
1036	52.1986
1032	52.1236
1028	51.9137
1024	51.8391
1020	52.0188
1016	52.1925
1012	52.1857
1008	52.0691
1004	52.0519
1000	52.1627
996	 52.1223
992	 52.0109
988	 52.0835
984	 52.0288
980	 51.8175
976	 51.8719
972	 52.0166
968	 51.9738
964	 51.8429
960	 51.6762
956	 51.5785
952	 51.6158
948	 51.694
944	 51.6953
940	 51.6166
936	 51.5065
932	 51.3564
928	 51.2837
924	 51.3233
920	 51.3141
916	 51.2801
912	 51.323
908	 51.3776
904	 51.361
900	 51.2413
896	 51.1151
892	 51.1672
888	 51.3836
884	 51.4686
880	 51.247
876	 50.8637
872	 50.6894
868	 50.9005
864	 51.0946
860	 51.0454
856	 50.918
852	 50.8523
848	 50.8299
844	 50.7681
840	 50.7562
836	 50.7237
832	 50.5553
828	 50.4924
824	 50.6325
820	 50.7175
816	 50.7399
812	 50.8074
808	 50.6611
804	 50.3652
800	 50.3352
796	 50.4406
792	 50.3668
788	 50.2618
784	 50.2375
780	 50.1787
776	 50.2027
772	 50.3086
768	 50.3595
764	 50.4591
760	 50.181
756	 49.3108
752	 48.9783
748	 49.5014
744	 50.0097
740	 50.303
736	 50.2892
732	 49.8059
728	 49.3086
724	 49.2065
720	 49.4499
716	 49.7848
712	 49.9521
708	 49.8323
704	 49.6205
700	 49.5451
696	 49.4267
692	 49.1003
688	 48.7534
684	 48.5247
680	 48.5146
676	 48.7182
672	 48.7863
668	 48.6509
664	 48.5407
660	 48.5445
656	 48.5806
652	 48.5105
648	 48.3611
644	 48.2235
640	 48.2227
636	 48.114
632	 47.9892
628	 48.2163
624	 48.2371
620	 48.0254
616	 48.2237
612	 48.5903
608	 48.5168
604	 48.1459
600	 47.7856
596	 47.3577
592	 47.1075
588	 47.148
584	 47.3283
580	 47.2576
576	 46.7672
572	 46.6997
568	 47.109
564	 47.1286
560	 46.7159
556	 46.4138
552	 46.3763
548	 46.3006
544	 46.0312
540	 45.9683
536	 46.1361
532	 46.0636
528	 45.9665
524	 46.0721
520	 46.0881
516	 45.9926
512	 45.7116
508	 45.3695
504	 45.414
500	 45.5262
496	 45.1151
492	 44.5142
488	 44.4019
484	 44.3826
480	 44.1448
476	 44.215
472	 44.5398
468	 44.8433
464	 45.0796
460	 45.2149
456	 46.0479
452	 46.9861
448	 46.139
444	 44.5282
440	 44.2073
436	 45.0929
432	 45.4758
428	 45.4111
424	 46.4491
420	 47.4701
416	 45.6582
412	 40.1404
408	 34.2992
404	 35.4635
400	 39.4496
396	 49.3054
392	 61.9894
388	 56.3166
384	 56.8876
380	 71.2115
376	 47.1898
372	 21.7587
370	 36.0611