File: Bakgrunnsmateriale/MATLAB/FTIR/ftir_data/subBb/Mapping_121/C-4040-8_t24_cm-1.asc
PE IR       SPECTRUM    SPECTRUM    ASCII       PEDS        1.60
  -1
C-9A6F~1.ASC
17/03/27
16:29:26.00
17/03/27
16:29:26.00
tln
$C-4040-8_t0024$<tbV0>[10.4,-7.8,8.0,0.0,27,1,0]
370
64

2002,4.07
MIRTGS : RIGHTBACK : INTERNAL 2
MIR : ON : INTERNAL 2
OPTKBR

0.200000
8
8.000000
FILLER
RATIO
SPECTRUM
UNLOCKED 256

DOUBLE
64
COMBINED
1
0
0

1.000000
RATIO

1
0
TRUE
51149
0
LEFT NOT FITTED RIGHT NOT FITTED 0
NONE
NONE
15600
12
4.427000
51148
TRUE
1 0 8 72 0 0 0 0

15798

#HDR
-1
-1
#GR
CM-1
%T
2.38419e-05
0.0
5000
-1.000000
4631
8
104.464
50.2246
#DATA
5000	65.1317
4996	65.2476
4992	65.2063
4988	64.9477
4984	64.7438
4980	64.848
4976	65.1455
4972	65.1108
4968	64.7365
4964	64.7365
4960	65.1747
4956	65.5109
4952	65.6377
4948	65.5219
4944	65.3608
4940	65.4317
4936	65.4128
4932	65.2862
4928	65.2698
4924	65.1648
4920	65.0591
4916	65.0815
4912	65.167
4908	65.3571
4904	65.6199
4900	65.9598
4896	66.0169
4892	65.6395
4888	65.3479
4884	65.3505
4880	65.4933
4876	65.4682
4872	65.3273
4868	65.6403
4864	65.9511
4860	65.4976
4856	64.8856
4852	64.7811
4848	64.9641
4844	64.9706
4840	64.8149
4836	64.7793
4832	64.8766
4828	65.073
4824	65.3187
4820	65.4495
4816	65.3571
4812	65.1102
4808	64.8801
4804	64.8652
4800	65.054
4796	65.27
4792	65.3851
4788	65.3824
4784	65.3626
4780	65.1594
4776	64.8299
4772	64.7527
4768	64.8863
4764	64.9878
4760	65.0621
4756	65.1334
4752	65.0501
4748	64.8809
4744	64.8318
4740	64.9138
4736	64.89
4732	64.6773
4728	64.5902
4724	64.6412
4720	64.7294
4716	64.9248
4712	65.0229
4708	64.9604
4704	64.971
4700	64.9536
4696	64.7987
4692	64.6446
4688	64.5612
4684	64.6022
4680	64.6411
4676	64.5619
4672	64.5478
4668	64.8233
4664	65.1558
4660	65.1985
4656	65.0741
4652	64.8545
4648	64.6515
4644	64.6885
4640	64.8791
4636	64.9715
4632	64.8549
4628	64.7012
4624	64.5614
4620	64.5571
4616	64.8091
4612	65.0035
4608	65.1186
4604	65.1684
4600	65.0116
4596	64.9655
4592	65.0442
4588	64.918
4584	64.7882
4580	64.8309
4576	65.0388
4572	65.259
4568	65.214
4564	65.1398
4560	65.035
4556	64.8451
4552	64.8996
4548	64.9964
4544	64.8534
4540	64.7124
4536	64.7324
4532	64.8002
4528	64.8721
4524	64.9239
4520	65.0296
4516	65.3006
4512	65.4859
4508	65.4053
4504	65.3401
4500	65.4531
4496	65.6571
4492	65.7949
4488	65.6498
4484	65.3416
4480	65.1925
4476	65.1589
4472	65.0783
4468	65.0654
4464	65.2815
4460	65.6423
4456	65.791
4452	65.6194
4448	65.5023
4444	65.6471
4440	65.8856
4436	65.9158
4432	65.5166
4428	65.1287
4424	65.221
4420	65.559
4416	65.6161
4412	65.3567
4408	65.204
4404	65.3931
4400	65.5952
4396	65.8329
4392	66.0034
4388	66.5876
4384	64.5127
4380	56.048
4376	50.7457
4372	50.7495
4368	50.4973
4364	57.4599
4360	65.9295
4356	66.7639
4352	65.9692
4348	66.1575
4344	66.0588
4340	65.7371
4336	65.5031
4332	65.2944
4328	65.4536
4324	65.7969
4320	65.9102
4316	65.9095
4312	65.7431
4308	65.5559
4304	65.5421
4300	65.5913
4296	65.662
4292	65.8707
4288	65.9431
4284	65.5699
4280	65.3102
4276	65.5002
4272	65.6485
4268	65.6565
4264	65.6317
4260	65.4512
4256	65.2924
4252	65.253
4248	65.1655
4244	65.1086
4240	65.2573
4236	65.4802
4232	65.5747
4228	65.6091
4224	65.5668
4220	65.4342
4216	65.3376
4212	65.2749
4208	65.372
4204	65.5576
4200	65.3398
4196	64.876
4192	64.7778
4188	64.7498
4184	64.4402
4180	64.5816
4176	65.1605
4172	65.2009
4168	65.1935
4164	65.5929
4160	65.5504
4156	65.2168
4152	65.1719
4148	65.2115
4144	65.1086
4140	65.0057
4136	65.1205
4132	65.1381
4128	64.9434
4124	64.9061
4120	64.9635
4116	64.9726
4112	64.9803
4108	64.9518
4104	64.8599
4100	64.8558
4096	65.0426
4092	65.0929
4088	64.9026
4084	64.9277
4080	65.1484
4076	65.1031
4072	64.835
4068	64.7184
4064	64.8128
4060	64.9228
4056	64.9376
4052	64.8964
4048	64.9492
4044	65.0632
4040	65.1134
4036	65.1497
4032	65.1679
4028	65.1311
4024	65.1206
4020	65.1462
4016	65.185
4012	65.1637
4008	64.9884
4004	64.8782
4000	64.8761
3996	64.8985
3992	64.9982
3988	65.0178
3984	64.9455
3980	64.9779
3976	65.0663
3972	65.1002
3968	65.1095
3964	65.0949
3960	65.0098
3956	64.9178
3952	65.019
3948	65.1425
3944	65.135
3940	65.1822
3936	65.1935
3932	65.117
3928	65.1319
3924	65.1224
3920	64.9568
3916	64.8841
3912	64.9883
3908	65.1789
3904	65.3196
3900	65.2428
3896	65.1673
3892	65.2245
3888	65.2504
3884	65.3343
3880	65.5396
3876	65.5194
3872	65.2127
3868	65.0751
3864	65.2245
3860	65.3703
3856	65.3568
3852	65.2522
3848	65.2055
3844	65.23
3840	65.2029
3836	65.083
3832	64.962
3828	64.9843
3824	65.1021
3820	65.085
3816	65.0135
3812	65.051
3808	65.0624
3804	65.0424
3800	65.0797
3796	65.1438
3792	65.1984
3788	65.1515
3784	65.0921
3780	65.1057
3776	65.0835
3772	65.0867
3768	65.1778
3764	65.2309
3760	65.1731
3756	65.1102
3752	65.1294
3748	65.1725
3744	65.1794
3740	65.1626
3736	65.1755
3732	65.2398
3728	65.3047
3724	65.2385
3720	65.0957
3716	65.1015
3712	65.1462
3708	65.0902
3704	65.1021
3700	65.2298
3696	65.2508
3692	65.1264
3688	65.0468
3684	65.0368
3680	65.0705
3676	65.1344
3672	65.1787
3668	65.1472
3664	65.0862
3660	65.1619
3656	65.275
3652	65.2824
3648	65.287
3644	65.2826
3640	65.207
3636	65.1306
3632	65.1056
3628	65.0911
3624	65.0895
3620	65.1423
3616	65.2293
3612	65.2769
3608	65.2333
3604	65.1868
3600	65.1947
3596	65.188
3592	65.1659
3588	65.1812
3584	65.2016
3580	65.1844
3576	65.167
3572	65.1071
3568	65.0361
3564	65.0442
3560	65.0684
3556	65.1644
3552	65.2898
3548	65.2457
3544	65.0686
3540	64.9432
3536	64.9674
3532	65.1135
3528	65.2545
3524	65.2712
3520	65.2099
3516	65.2013
3512	65.2103
3508	65.1199
3504	65.0523
3500	65.1777
3496	65.2617
3492	65.1195
3488	64.9989
3484	65.0875
3480	65.1443
3476	65.1017
3472	65.1475
3468	65.182
3464	65.119
3460	65.0092
3456	64.9989
3452	65.1619
3448	65.36
3444	65.4742
3440	65.4177
3436	65.2994
3432	65.2846
3428	65.2714
3424	65.1473
3420	64.9911
3416	64.9234
3412	64.9876
3408	65.0699
3404	65.0819
3400	65.1229
3396	65.2014
3392	65.1494
3388	65.0316
3384	65.0967
3380	65.1946
3376	65.1259
3372	65.007
3368	64.9573
3364	64.9844
3360	65.084
3356	65.3064
3352	65.4355
3348	65.2731
3344	65.1676
3340	65.2552
3336	65.2721
3332	65.2203
3328	65.1988
3324	65.2066
3320	65.2383
3316	65.2929
3312	65.3239
3308	65.2492
3304	65.135
3300	65.1442
3296	65.2357
3292	65.282
3288	65.2838
3284	65.2348
3280	65.1697
3276	65.1706
3272	65.2179
3268	65.2413
3264	65.221
3260	65.1713
3256	65.1263
3252	65.1438
3248	65.1985
3244	65.2384
3240	65.2754
3236	65.2783
3232	65.209
3228	65.1446
3224	65.1772
3220	65.2146
3216	65.1645
3212	65.1047
3208	65.1066
3204	65.1817
3200	65.2368
3196	65.2412
3192	65.3167
3188	65.3412
3184	65.2376
3180	65.2456
3176	65.3263
3172	65.2935
3168	65.2112
3164	65.1547
3160	65.1505
3156	65.1728
3152	65.1287
3148	65.0829
3144	65.1274
3140	65.241
3136	65.3812
3132	65.4616
3128	65.4994
3124	65.5307
3120	65.5984
3116	65.6943
3112	65.5831
3108	65.3244
3104	65.195
3100	65.1824
3096	65.2179
3092	65.2893
3088	65.3227
3084	65.3143
3080	65.3467
3076	65.3505
3072	65.3138
3068	65.2538
3064	65.195
3060	65.24
3056	65.2748
3052	65.211
3048	65.1514
3044	65.1806
3040	65.2441
3036	65.2543
3032	65.265
3028	65.2753
3024	65.2524
3020	65.2858
3016	65.3199
3012	65.2838
3008	65.2162
3004	65.124
3000	65.0876
2996	65.1797
2992	65.3123
2988	65.3863
2984	65.3696
2980	65.2905
2976	65.2682
2972	65.3448
2968	65.3773
2964	65.2685
2960	65.1542
2956	65.116
2952	65.0897
2948	65.1312
2944	65.255
2940	65.2704
2936	65.1479
2932	64.9937
2928	64.9
2924	64.8987
2920	64.857
2916	64.8239
2912	64.9076
2908	65.0634
2904	65.1865
2900	65.2388
2896	65.2579
2892	65.2184
2888	65.2105
2884	65.2213
2880	65.1409
2876	65.1652
2872	65.3217
2868	65.3423
2864	65.1884
2860	65.0702
2856	65.0427
2852	64.9571
2848	64.867
2844	64.98
2840	65.1895
2836	65.2207
2832	65.1651
2828	65.1896
2824	65.2339
2820	65.2666
2816	65.3051
2812	65.3124
2808	65.3005
2804	65.3192
2800	65.3269
2796	65.2887
2792	65.2933
2788	65.3448
2784	65.3804
2780	65.4016
2776	65.383
2772	65.3316
2768	65.3082
2764	65.3088
2760	65.3324
2756	65.3676
2752	65.3527
2748	65.3466
2744	65.3594
2740	65.2982
2736	65.2572
2732	65.3301
2728	65.4043
2724	65.3956
2720	65.3677
2716	65.3222
2712	65.2406
2708	65.1767
2704	65.1355
2700	65.141
2696	65.2307
2692	65.2796
2688	65.204
2684	65.1781
2680	65.2282
2676	65.2186
2672	65.228
2668	65.3407
2664	65.4451
2660	65.4367
2656	65.3973
2652	65.409
2648	65.391
2644	65.3471
2640	65.3944
2636	65.4597
2632	65.3733
2628	65.2384
2624	65.2354
2620	65.3118
2616	65.3523
2612	65.3225
2608	65.2797
2604	65.2927
2600	65.3043
2596	65.2596
2592	65.2451
2588	65.305
2584	65.3769
2580	65.3765
2576	65.323
2572	65.3303
2568	65.4052
2564	65.4602
2560	65.4497
2556	65.4081
2552	65.3815
2548	65.4183
2544	65.4793
2540	65.4635
2536	65.3915
2532	65.3433
2528	65.3422
2524	65.3678
2520	65.3113
2516	65.2068
2512	65.2167
2508	65.1947
2504	65.1062
2500	65.0699
2496	65.0294
2492	65.0477
2488	65.18
2484	65.2949
2480	65.3105
2476	65.3033
2472	65.3334
2468	65.3839
2464	65.4004
2460	65.351
2456	65.3433
2452	65.3826
2448	65.4014
2444	65.4318
2440	65.38
2436	65.2628
2432	65.2153
2428	65.2555
2424	65.4293
2420	65.6148
2416	65.5391
2412	65.3131
2408	65.2452
2404	65.3025
2400	65.3244
2396	65.3242
2392	65.3501
2388	65.3689
2384	65.337
2380	65.3001
2376	65.2827
2372	65.2977
2368	65.3868
2364	65.4144
2360	65.3293
2356	65.2931
2352	65.3493
2348	65.407
2344	65.401
2340	65.2973
2336	65.1667
2332	65.1181
2328	65.1422
2324	65.2151
2320	65.297
2316	65.34
2312	65.3178
2308	65.3071
2304	65.3477
2300	65.3434
2296	65.3091
2292	65.2832
2288	65.2817
2284	65.3179
2280	65.3473
2276	65.3166
2272	65.2334
2268	65.1881
2264	65.1718
2260	65.1579
2256	65.2115
2252	65.2796
2248	65.2718
2244	65.2149
2240	65.1802
2236	65.2404
2232	65.304
2228	65.258
2224	65.2338
2220	65.2768
2216	65.3091
2212	65.3506
2208	65.4016
2204	65.4378
2200	65.4269
2196	65.3942
2192	65.402
2188	65.3963
2184	65.3934
2180	65.4111
2176	65.3654
2172	65.3502
2168	65.361
2164	65.335
2160	65.3257
2156	65.34
2152	65.4033
2148	65.381
2144	65.3124
2140	65.3827
2136	65.4555
2132	65.4903
2128	65.5463
2124	65.5586
2120	65.5234
2116	65.4545
2112	65.3702
2108	65.3516
2104	65.3885
2100	65.3814
2096	65.3571
2092	65.3601
2088	65.3395
2084	65.339
2080	65.3486
2076	65.281
2072	65.2215
2068	65.3205
2064	65.4576
2060	65.4409
2056	65.4051
2052	65.4433
2048	65.4278
2044	65.4001
2040	65.4172
2036	65.417
2032	65.4161
2028	65.4164
2024	65.4272
2020	65.434
2016	65.4063
2012	65.403
2008	65.4446
2004	65.4255
2000	65.3452
1996	65.3651
1992	65.4376
1988	65.455
1984	65.453
1980	65.4314
1976	65.382
1972	65.3496
1968	65.3526
1964	65.3964
1960	65.4564
1956	65.4326
1952	65.3641
1948	65.3698
1944	65.4249
1940	65.4441
1936	65.4333
1932	65.4286
1928	65.4066
1924	65.356
1920	65.3167
1916	65.333
1912	65.3611
1908	65.3263
1904	65.268
1900	65.2713
1896	65.3306
1892	65.3583
1888	65.3305
1884	65.3304
1880	65.3717
1876	65.3896
1872	65.3767
1868	65.3589
1864	65.3537
1860	65.3618
1856	65.3477
1852	65.3221
1848	65.3421
1844	65.4047
1840	65.4661
1836	65.4724
1832	65.4253
1828	65.4044
1824	65.418
1820	65.3921
1816	65.3363
1812	65.3345
1808	65.3353
1804	65.3386
1800	65.3833
1796	65.3723
1792	65.3611
1788	65.3956
1784	65.4084
1780	65.4031
1776	65.3683
1772	65.3425
1768	65.3625
1764	65.3728
1760	65.3461
1756	65.3256
1752	65.3059
1748	65.2489
1744	65.1893
1740	65.1627
1736	65.1631
1732	65.1544
1728	65.0913
1724	65.0412
1720	65.1218
1716	65.2536
1712	65.314
1708	65.3447
1704	65.3589
1700	65.3915
1696	65.4576
1692	65.4465
1688	65.3989
1684	65.3743
1680	65.3279
1676	65.2826
1672	65.2722
1668	65.3128
1664	65.3679
1660	65.3814
1656	65.3479
1652	65.3105
1648	65.3611
1644	65.4688
1640	65.5013
1636	65.4359
1632	65.3511
1628	65.2951
1624	65.2449
1620	65.1854
1616	65.2173
1612	65.363
1608	65.4742
1604	65.4942
1600	65.452
1596	65.408
1592	65.3881
1588	65.4111
1584	65.4316
1580	65.3512
1576	65.2588
1572	65.1969
1568	65.1454
1564	65.1692
1560	65.2574
1556	65.3198
1552	65.2612
1548	65.1627
1544	65.1603
1540	65.1786
1536	65.1762
1532	65.212
1528	65.2395
1524	65.2013
1520	65.1643
1516	65.1746
1512	65.1942
1508	65.2133
1504	65.2362
1500	65.2236
1496	65.2071
1492	65.2083
1488	65.1792
1484	65.1905
1480	65.207
1476	65.1931
1472	65.1987
1468	65.1919
1464	65.1929
1460	65.2738
1456	65.3836
1452	65.4251
1448	65.4584
1444	65.512
1440	65.4993
1436	65.4178
1432	65.34
1428	65.324
1424	65.3573
1420	65.3481
1416	65.2614
1412	65.1768
1408	65.1325
1404	65.16
1400	65.2133
1396	65.1871
1392	65.1376
1388	65.1374
1384	65.1899
1380	65.2343
1376	65.1937
1372	65.1023
1368	65.0941
1364	65.1916
1360	65.2786
1356	65.3534
1352	65.3592
1348	65.2297
1344	65.1168
1340	65.1516
1336	65.2644
1332	65.2746
1328	65.1858
1324	65.1218
1320	65.0963
1316	65.0919
1312	65.1123
1308	65.1576
1304	65.204
1300	65.2266
1296	65.2256
1292	65.176
1288	65.0984
1284	65.1397
1280	65.2844
1276	65.3224
1272	65.248
1268	65.2399
1264	65.3428
1260	65.4415
1256	65.4351
1252	65.3435
1248	65.2422
1244	65.1876
1240	65.2136
1236	65.2371
1232	65.2304
1228	65.2837
1224	65.2993
1220	65.221
1216	65.1726
1212	65.174
1208	65.1676
1204	65.1788
1200	65.2064
1196	65.1761
1192	65.1353
1188	65.1243
1184	65.1467
1180	65.2224
1176	65.2043
1172	65.0725
1168	65.0191
1164	65.089
1160	65.167
1156	65.196
1152	65.2094
1148	65.1937
1144	65.2041
1140	65.268
1136	65.3013
1132	65.2969
1128	65.2808
1124	65.2355
1120	65.1547
1116	65.1328
1112	65.1995
1108	65.2639
1104	65.2844
1100	65.3242
1096	65.4344
1092	65.4901
1088	65.5001
1084	65.4892
1080	65.3069
1076	65.0756
1072	64.9796
1068	64.9464
1064	64.9961
1060	65.1114
1056	65.1544
1052	65.1481
1048	65.1316
1044	65.0679
1040	65.0022
1036	65.0916
1032	65.2825
1028	65.3375
1024	65.3606
1020	65.5244
1016	65.5595
1012	65.2544
1008	64.8532
1004	64.7194
1000	64.9184
996	 65.0967
992	 64.9724
988	 64.8425
984	 65.0324
980	 65.2014
976	 65.1689
972	 65.0912
968	 64.8565
964	 64.7136
960	 64.8999
956	 65.2101
952	 65.4669
948	 65.4399
944	 65.2607
940	 65.1136
936	 65.0107
932	 64.9666
928	 64.9777
924	 65.1222
920	 65.2135
916	 65.2142
912	 65.2018
908	 65.1945
904	 65.2833
900	 65.3234
896	 65.2846
892	 65.2592
888	 65.2565
884	 65.2316
880	 65.0854
876	 64.8987
872	 64.8584
868	 64.9658
864	 65.063
860	 65.0434
856	 64.9969
852	 65.0648
848	 65.1907
844	 65.2411
840	 65.1885
836	 65.1619
832	 65.2192
828	 65.0722
824	 64.8422
820	 64.8161
816	 64.7835
812	 64.8025
808	 64.9283
804	 65.0612
800	 65.2183
796	 65.304
792	 65.2508
788	 65.1999
784	 65.1049
780	 64.8953
776	 64.7979
772	 64.7694
768	 64.6427
764	 64.6517
760	 64.8474
756	 64.9264
752	 64.8491
748	 64.7098
744	 64.7063
740	 64.8712
736	 64.8966
732	 64.8502
728	 64.8644
724	 64.8532
720	 64.8956
716	 65.0237
712	 65.1102
708	 65.0465
704	 64.8956
700	 64.8009
696	 64.619
692	 64.3802
688	 64.4036
684	 64.4718
680	 64.2881
676	 64.2044
672	 64.5443
668	 64.8217
664	 64.551
660	 64.2649
656	 64.3485
652	 64.3876
648	 64.3123
644	 64.1955
640	 64.0833
636	 64.2337
632	 64.4477
628	 64.643
624	 64.8429
620	 64.7608
616	 64.4974
612	 64.4574
608	 64.6427
604	 64.5409
600	 64.3124
596	 64.4286
592	 64.5141
588	 64.4609
584	 64.5324
580	 64.5764
576	 64.5666
572	 64.6198
568	 64.4967
564	 64.2575
560	 64.2272
556	 64.1494
552	 64.1069
548	 64.3388
544	 64.4626
540	 64.2392
536	 63.941
532	 63.9067
528	 64.0395
524	 63.9282
520	 63.632
516	 63.8124
512	 64.3005
508	 64.4052
504	 64.0534
500	 63.4986
496	 62.9579
492	 62.7472
488	 63.0259
484	 63.3701
480	 63.6484
476	 63.9688
472	 64.1083
468	 64.252
464	 64.6473
460	 64.7399
456	 63.9678
452	 62.8499
448	 62.0995
444	 61.8075
440	 61.6376
436	 61.3283
432	 61.1965
428	 60.0515
424	 58.6584
420	 59.4482
416	 60.9374
412	 60.9378
408	 61.5781
404	 61.6734
400	 59.1805
396	 65.2737
392	 91.4524
388	 103.297
384	 84.1351
380	 80.8673
376	 88.3246
372	 73.5379
370	 63.7244