File: Bakgrunnsmateriale/MATLAB/FTIR/ftir_data/subBb/Mapping_121/C-4040-8_t105_cm-1.asc
PE IR       SPECTRUM    SPECTRUM    ASCII       PEDS        1.60
  -1
C-4A8C~1.ASC
17/03/27
23:05:52.00
17/03/27
23:05:52.00
tln
$C-4040-8_t0105$<tbV0>[0.0,10.4,8.0,0.0,27,1,0]
370
64

2002,4.07
MIRTGS : RIGHTBACK : INTERNAL 2
MIR : ON : INTERNAL 2
OPTKBR

0.200000
8
8.000000
FILLER
RATIO
SPECTRUM
UNLOCKED 256

DOUBLE
64
COMBINED
1
0
0

1.000000
RATIO

1
0
TRUE
51149
0
LEFT NOT FITTED RIGHT NOT FITTED 0
NONE
NONE
15600
12
4.427000
51148
TRUE
1 0 8 72 0 0 0 0

15798

#HDR
-1
-1
#GR
CM-1
%T
2.38419e-05
0.0
5000
-1.000000
4631
8
200
41.867
#DATA
5000	64.6339
4996	64.6292
4992	64.6479
4988	64.9754
4984	65.2185
4980	65.2764
4976	65.3956
4972	65.3202
4968	65.0741
4964	64.8964
4960	64.9227
4956	64.9913
4952	65.1119
4948	65.2596
4944	64.9047
4940	64.4292
4936	64.4123
4932	64.6616
4928	64.7755
4924	64.756
4920	64.9268
4916	65.1485
4912	65.2807
4908	65.251
4904	64.9877
4900	64.9146
4896	64.9867
4892	64.7688
4888	64.8599
4884	65.4009
4880	65.6322
4876	65.4384
4872	65.1862
4868	65.1384
4864	65.0309
4860	64.9116
4856	64.9214
4852	65.0238
4848	65.041
4844	64.631
4840	64.3052
4836	64.4438
4832	64.7148
4828	64.8789
4824	65.0346
4820	65.2552
4816	65.3726
4812	65.254
4808	65.0458
4804	65.1013
4800	65.3161
4796	65.3438
4792	65.2059
4788	65.0871
4784	65.1572
4780	65.2303
4776	65.0838
4772	65.0492
4768	65.1832
4764	65.2306
4760	65.2758
4756	65.2778
4752	65.2735
4748	65.1777
4744	64.7633
4740	64.5015
4736	64.7442
4732	65.0167
4728	65.082
4724	65.2408
4720	65.3348
4716	65.2549
4712	65.2691
4708	65.2487
4704	65.1175
4700	65.2196
4696	65.4889
4692	65.5667
4688	65.4316
4684	65.2221
4680	65.0539
4676	64.9271
4672	64.8289
4668	64.8425
4664	64.9853
4660	65.1067
4656	65.2643
4652	65.4371
4648	65.3991
4644	65.313
4640	65.416
4636	65.6186
4632	65.668
4628	65.5216
4624	65.1947
4620	64.9174
4616	64.9491
4612	64.8991
4608	64.6603
4604	64.5607
4600	64.6898
4596	65.0257
4592	65.3508
4588	65.4746
4584	65.3428
4580	65.0753
4576	64.9829
4572	65.0158
4568	64.8913
4564	64.6928
4560	64.82
4556	65.2019
4552	65.2708
4548	65.0982
4544	64.8539
4540	64.4084
4536	63.9338
4532	63.6806
4528	64.0477
4524	64.7499
4520	64.914
4516	64.6919
4512	64.5165
4508	64.1569
4504	63.7071
4500	63.67
4496	63.8004
4492	63.8491
4488	63.9399
4484	64.0187
4480	64.1742
4476	64.2196
4472	64.0839
4468	64.0741
4464	64.0703
4460	63.8684
4456	63.6288
4452	63.5523
4448	63.7964
4444	64.1137
4440	64.1421
4436	64.0567
4432	64.1863
4428	64.0805
4424	63.6635
4420	63.285
4416	63.0863
4412	63.4773
4408	64.8423
4404	67.017
4400	71.0902
4396	77.1543
4392	82.3423
4388	93.8787
4384	95.2458
4380	76.6581
4376	66.7493
4372	65.5551
4368	64.9735
4364	64.0067
4360	63.6677
4356	63.5717
4352	63.5639
4348	63.8886
4344	64.1115
4340	63.9636
4336	64.0643
4332	64.2147
4328	64.2514
4324	64.556
4320	64.7794
4316	64.7617
4312	64.6012
4308	64.2105
4304	63.9889
4300	64.0828
4296	64.2515
4292	64.2232
4288	64.011
4284	63.8792
4280	63.9608
4276	64.3271
4272	64.7616
4268	65.0609
4264	65.1472
4260	65.0028
4256	64.6605
4252	64.2754
4248	64.272
4244	64.4998
4240	64.4644
4236	64.3187
4232	64.3967
4228	64.6792
4224	64.8564
4220	64.8481
4216	64.8076
4212	64.7682
4208	64.7391
4204	64.7266
4200	64.6776
4196	64.3815
4192	64.1325
4188	64.366
4184	64.749
4180	64.9555
4176	64.9605
4172	64.8524
4168	64.8291
4164	64.9525
4160	64.9745
4156	64.7725
4152	64.6275
4148	64.7909
4144	65.1312
4140	65.3457
4136	65.244
4132	65.0043
4128	65.0038
4124	65.1756
4120	65.2389
4116	65.2208
4112	65.1698
4108	65.0735
4104	65.0515
4100	65.1876
4096	65.3029
4092	65.2169
4088	65.128
4084	65.0915
4080	65.0162
4076	64.9796
4072	65.0339
4068	65.0795
4064	65.0637
4060	65.1322
4056	65.1839
4052	65.1604
4048	65.1551
4044	65.2496
4040	65.3934
4036	65.3825
4032	65.2932
4028	65.2045
4024	65.1855
4020	65.1717
4016	65.0773
4012	65.1316
4008	65.2309
4004	65.1566
4000	65.0849
3996	65.1568
3992	65.2665
3988	65.2587
3984	65.2094
3980	65.1578
3976	65.0639
3972	65.0726
3968	65.2581
3964	65.4059
3960	65.2777
3956	65.1152
3952	65.1159
3948	65.0609
3944	64.971
3940	65.0684
3936	65.1827
3932	65.1041
3928	65.0023
3924	65.0322
3920	65.1325
3916	65.1434
3912	65.0305
3908	64.9664
3904	64.9103
3900	64.7838
3896	64.8343
3892	65.0294
3888	65.1399
3884	65.2277
3880	65.293
3876	65.2652
3872	65.1613
3868	65.0793
3864	65.1354
3860	65.1685
3856	65.0221
3852	64.8233
3848	64.7794
3844	64.9297
3840	65.1439
3836	65.233
3832	64.981
3828	64.6945
3824	64.8077
3820	65.0393
3816	65.1554
3812	65.1784
3808	65.0731
3804	64.9699
3800	64.9898
3796	65.0265
3792	64.9844
3788	64.9401
3784	64.9787
3780	65.0935
3776	65.2104
3772	65.3087
3768	65.286
3764	65.0995
3760	65.0589
3756	65.205
3752	65.2418
3748	65.294
3744	65.3898
3740	65.2641
3736	65.1118
3732	65.153
3728	65.2467
3724	65.3256
3720	65.3892
3716	65.3247
3712	65.2457
3708	65.3085
3704	65.3677
3700	65.3415
3696	65.3432
3692	65.4028
3688	65.4263
3684	65.3599
3680	65.2188
3676	65.193
3672	65.4069
3668	65.5674
3664	65.4941
3660	65.3926
3656	65.3123
3652	65.2055
3648	65.1843
3644	65.2473
3640	65.2513
3636	65.1377
3632	65.0239
3628	65.0603
3624	65.1922
3620	65.2452
3616	65.2524
3612	65.301
3608	65.2585
3604	65.1548
3600	65.1775
3596	65.2696
3592	65.3557
3588	65.4602
3584	65.4672
3580	65.3636
3576	65.3207
3572	65.3419
3568	65.331
3564	65.2978
3560	65.2529
3556	65.1813
3552	65.2028
3548	65.2915
3544	65.2515
3540	65.1278
3536	65.1865
3532	65.3795
3528	65.3767
3524	65.2134
3520	65.1559
3516	65.2381
3512	65.3574
3508	65.4462
3504	65.3715
3500	65.1987
3496	65.2239
3492	65.3291
3488	65.1751
3484	64.902
3480	64.8429
3476	64.9516
3472	65.1323
3468	65.3646
3464	65.3921
3460	65.2612
3456	65.2297
3452	65.1614
3448	65.0084
3444	65.0069
3440	65.1483
3436	65.209
3432	65.1985
3428	65.1576
3424	65.1295
3420	65.197
3416	65.223
3412	65.1542
3408	65.1029
3404	65.15
3400	65.153
3396	64.9647
3392	64.8069
3388	64.8281
3384	64.9212
3380	64.9777
3376	64.9993
3372	65.0895
3368	65.2136
3364	65.1754
3360	65.029
3356	64.9912
3352	65.0635
3348	65.2092
3344	65.3252
3340	65.249
3336	65.1162
3332	65.1192
3328	65.1589
3324	65.1168
3320	65.0317
3316	64.9879
3312	65.0255
3308	65.0811
3304	65.1142
3300	65.0944
3296	65.0213
3292	64.9945
3288	65.0576
3284	65.1505
3280	65.1761
3276	65.1927
3272	65.2884
3268	65.3713
3264	65.2911
3260	65.0831
3256	64.9796
3252	65.0192
3248	65.0874
3244	65.1502
3240	65.18
3236	65.1464
3232	65.0542
3228	65.0104
3224	65.1765
3220	65.4346
3216	65.5097
3212	65.4138
3208	65.2747
3204	65.1711
3200	65.1458
3196	65.139
3192	65.1759
3188	65.2082
3184	65.1903
3180	65.2024
3176	65.2521
3172	65.3317
3168	65.3558
3164	65.3789
3160	65.4584
3156	65.4108
3152	65.2624
3148	65.1384
3144	65.0866
3140	65.1779
3136	65.3787
3132	65.7157
3128	65.7949
3124	65.3729
3120	65.1973
3116	65.3531
3112	65.3936
3108	65.4616
3104	65.5374
3100	65.4632
3096	65.3829
3092	65.3458
3088	65.232
3084	65.0547
3080	65.0298
3076	65.177
3072	65.2193
3068	65.1269
3064	65.0605
3060	65.0485
3056	65.1026
3052	65.1886
3048	65.2257
3044	65.1779
3040	65.1406
3036	65.1567
3032	65.1112
3028	65.0486
3024	65.0383
3020	65.0651
3016	65.1231
3012	65.2303
3008	65.3385
3004	65.3515
3000	65.3037
2996	65.2606
2992	65.2056
2988	65.1179
2984	65.0402
2980	65.0825
2976	65.206
2972	65.2115
2968	65.1122
2964	65.0464
2960	65.0485
2956	65.0461
2952	65.0042
2948	64.974
2944	64.968
2940	65.0012
2936	65.0936
2932	65.1368
2928	65.0372
2924	64.9303
2920	64.9187
2916	64.9329
2912	64.9553
2908	65.1016
2904	65.2618
2900	65.1771
2896	64.9854
2892	64.9371
2888	64.9926
2884	65.0306
2880	65.1067
2876	65.209
2872	65.1798
2868	65.1458
2864	65.2202
2860	65.2208
2856	65.1111
2852	64.9458
2848	64.8391
2844	64.9462
2840	65.1568
2836	65.2739
2832	65.24
2828	65.1785
2824	65.1943
2820	65.2269
2816	65.2228
2812	65.1769
2808	65.1468
2804	65.1814
2800	65.2346
2796	65.3166
2792	65.3944
2788	65.3392
2784	65.2423
2780	65.2368
2776	65.261
2772	65.2678
2768	65.2237
2764	65.1379
2760	65.1323
2756	65.2195
2752	65.2978
2748	65.3287
2744	65.3217
2740	65.3003
2736	65.2809
2732	65.2556
2728	65.2234
2724	65.2174
2720	65.2424
2716	65.246
2712	65.2566
2708	65.32
2704	65.3282
2700	65.2463
2696	65.2296
2692	65.2983
2688	65.3169
2684	65.2724
2680	65.2354
2676	65.2189
2672	65.1983
2668	65.2513
2664	65.3609
2660	65.3475
2656	65.3221
2652	65.36
2648	65.349
2644	65.2985
2640	65.1914
2636	65.1205
2632	65.1871
2628	65.2379
2624	65.1895
2620	65.1348
2616	65.109
2612	65.1373
2608	65.1821
2604	65.1651
2600	65.1307
2596	65.1267
2592	65.1214
2588	65.1365
2584	65.1817
2580	65.1903
2576	65.2226
2572	65.2564
2568	65.2272
2564	65.2444
2560	65.2871
2556	65.2831
2552	65.216
2548	65.1472
2544	65.2031
2540	65.2729
2536	65.2171
2532	65.1113
2528	65.0462
2524	65.0999
2520	65.237
2516	65.2915
2512	65.2577
2508	65.1675
2504	65.2093
2500	65.4994
2496	65.6261
2492	65.5368
2488	65.4658
2484	65.3855
2480	65.3595
2476	65.3557
2472	65.3128
2468	65.3042
2464	65.3105
2460	65.2973
2456	65.2568
2452	65.2012
2448	65.1901
2444	65.1682
2440	65.1476
2436	65.1838
2432	65.1596
2428	65.161
2424	65.3271
2420	65.4714
2416	65.3538
2412	65.1019
2408	65.0652
2404	65.2528
2400	65.3924
2396	65.3459
2392	65.2674
2388	65.3184
2384	65.3887
2380	65.3465
2376	65.2453
2372	65.2409
2368	65.3068
2364	65.2743
2360	65.1726
2356	65.0983
2352	65.1144
2348	65.2288
2344	65.2991
2340	65.2691
2336	65.2517
2332	65.2912
2328	65.3575
2324	65.3852
2320	65.3256
2316	65.2588
2312	65.2092
2308	65.1349
2304	65.0858
2300	65.1361
2296	65.2588
2292	65.3652
2288	65.3842
2284	65.3561
2280	65.3539
2276	65.3309
2272	65.294
2268	65.265
2264	65.2291
2260	65.2131
2256	65.2072
2252	65.2088
2248	65.2313
2244	65.2126
2240	65.1527
2236	65.1444
2232	65.2448
2228	65.362
2224	65.3841
2220	65.3749
2216	65.3252
2212	65.2535
2208	65.2592
2204	65.2521
2200	65.1823
2196	65.1798
2192	65.245
2188	65.2259
2184	65.1694
2180	65.1747
2176	65.2251
2172	65.3241
2168	65.3523
2164	65.2729
2160	65.25
2156	65.3229
2152	65.3557
2148	65.2914
2144	65.2578
2140	65.2843
2136	65.3335
2132	65.3318
2128	65.2176
2124	65.1489
2120	65.2162
2116	65.3259
2112	65.428
2108	65.4103
2104	65.2522
2100	65.1448
2096	65.175
2092	65.2484
2088	65.1667
2084	64.9553
2080	64.9267
2076	65.2776
2072	65.7595
2068	65.8107
2064	65.4962
2060	65.2994
2056	65.2456
2052	65.2852
2048	65.3488
2044	65.3205
2040	65.2819
2036	65.2617
2032	65.2437
2028	65.2424
2024	65.2544
2020	65.2932
2016	65.3426
2012	65.3512
2008	65.2973
2004	65.2508
2000	65.263
1996	65.2695
1992	65.2177
1988	65.207
1984	65.2729
1980	65.2664
1976	65.2414
1972	65.3293
1968	65.4238
1964	65.4245
1960	65.3712
1956	65.3104
1952	65.2679
1948	65.2832
1944	65.3296
1940	65.31
1936	65.2534
1932	65.2822
1928	65.3444
1924	65.3572
1920	65.3351
1916	65.2479
1912	65.13
1908	65.1178
1904	65.1905
1900	65.223
1896	65.2111
1892	65.1966
1888	65.1995
1884	65.2413
1880	65.2558
1876	65.2132
1872	65.1875
1868	65.192
1864	65.2736
1860	65.3488
1856	65.3218
1852	65.3312
1848	65.3946
1844	65.4305
1840	65.4344
1836	65.4078
1832	65.3714
1828	65.3527
1824	65.3203
1820	65.2869
1816	65.2982
1812	65.285
1808	65.2305
1804	65.1854
1800	65.1431
1796	65.1437
1792	65.1909
1788	65.1996
1784	65.1574
1780	65.1474
1776	65.2306
1772	65.3206
1768	65.2972
1764	65.2089
1760	65.1844
1756	65.2021
1752	65.2056
1748	65.2095
1744	65.2214
1740	65.1877
1736	65.0307
1732	64.8594
1728	64.8533
1724	64.9371
1720	65.0031
1716	65.1957
1712	65.3685
1708	65.3057
1704	65.1981
1700	65.1453
1696	65.1567
1692	65.2239
1688	65.2268
1684	65.1726
1680	65.1792
1676	65.2508
1672	65.314
1668	65.3059
1664	65.2423
1660	65.1735
1656	65.1037
1652	65.1085
1648	65.1836
1644	65.2389
1640	65.2848
1636	65.2927
1632	65.2375
1628	65.1356
1624	65.0632
1620	65.058
1616	65.0177
1612	64.9678
1608	64.9636
1604	65.0046
1600	65.0809
1596	65.1289
1592	65.1263
1588	65.1411
1584	65.1598
1580	65.0945
1576	64.9733
1572	64.8618
1568	64.8517
1564	64.8833
1560	64.893
1556	65.0098
1552	65.1403
1548	65.1758
1544	65.192
1540	65.1511
1536	65.0684
1532	65.0367
1528	65.0636
1524	65.0695
1520	65.01
1516	64.9644
1512	64.9802
1508	65.0845
1504	65.2212
1500	65.2731
1496	65.1932
1492	65.0667
1488	65.0384
1484	65.0337
1480	65.0248
1476	65.0424
1472	65.0837
1468	65.1577
1464	65.178
1460	65.0937
1456	64.9589
1452	64.9359
1448	65.0637
1444	65.1346
1440	65.1361
1436	65.1228
1432	64.9729
1428	64.867
1424	64.9671
1420	65.0724
1416	65.1415
1412	65.185
1408	65.2078
1404	65.2427
1400	65.212
1396	65.1114
1392	65.0146
1388	65.013
1384	65.1031
1380	65.0953
1376	65.0186
1372	65.0643
1368	65.1303
1364	65.065
1360	65.0046
1356	65.0785
1352	65.1736
1348	65.1714
1344	65.0623
1340	64.9445
1336	64.9168
1332	64.9779
1328	65.0309
1324	65.0006
1320	64.9432
1316	64.8911
1312	64.7981
1308	64.7615
1304	64.8982
1300	65.0813
1296	65.1829
1292	65.1705
1288	65.0784
1284	65.0162
1280	65.0401
1276	65.0681
1272	64.9655
1268	64.8572
1264	64.9387
1260	65.0817
1256	65.14
1252	65.1189
1248	65.0904
1244	65.1006
1240	65.093
1236	65.0613
1232	65.0008
1228	64.9161
1224	64.8433
1220	64.8495
1216	64.9361
1212	64.9769
1208	64.9619
1204	65.0032
1200	65.0899
1196	65.071
1192	64.9285
1188	64.8582
1184	64.9128
1180	64.9764
1176	64.9729
1172	64.9527
1168	64.9824
1164	64.9912
1160	64.9468
1156	64.8949
1152	64.8178
1148	64.7775
1144	64.7884
1140	64.7483
1136	64.6601
1132	64.641
1128	64.7416
1124	64.8734
1120	64.9581
1116	64.952
1112	64.9708
1108	64.9196
1104	64.6247
1100	64.3841
1096	64.39
1092	64.5685
1088	64.6642
1084	64.5816
1080	64.6028
1076	64.704
1072	64.7509
1068	64.7969
1064	64.7719
1060	64.6392
1056	64.5279
1052	64.6087
1048	64.8967
1044	65.0642
1040	64.8992
1036	64.6965
1032	64.6403
1028	64.6352
1024	64.6975
1020	64.6277
1016	64.4116
1012	64.4206
1008	64.5945
1004	64.6514
1000	64.5715
996	 64.542
992	 64.6264
988	 64.6829
984	 64.6965
980	 64.7074
976	 64.6684
972	 64.6937
968	 64.7976
964	 64.7569
960	 64.6137
956	 64.6249
952	 64.8055
948	 64.8474
944	 64.7031
940	 64.6548
936	 64.6324
932	 64.6171
928	 64.8284
924	 65.015
920	 64.9393
916	 64.5597
912	 64.2739
908	 64.4841
904	 64.5855
900	 64.5386
896	 64.6683
892	 64.6636
888	 64.5651
884	 64.3563
880	 64.1105
876	 64.4026
872	 64.8231
868	 64.7227
864	 64.4168
860	 64.2587
856	 64.3406
852	 64.4811
848	 64.4823
844	 64.5437
840	 64.6272
836	 64.4453
832	 64.2474
828	 64.2376
824	 64.1651
820	 64.1464
816	 64.439
812	 64.528
808	 64.2365
804	 64.1106
800	 64.2314
796	 64.385
792	 64.3146
788	 64.0384
784	 63.8626
780	 63.8353
776	 63.9608
772	 64.1584
768	 64.2147
764	 63.9832
760	 63.707
756	 63.8272
752	 64.0132
748	 63.6755
744	 63.0755
740	 62.8906
736	 63.2463
732	 63.6499
728	 63.7135
724	 63.5884
720	 63.5386
716	 63.4355
712	 63.3172
708	 63.3586
704	 63.3316
700	 63.1504
696	 63.1518
692	 63.2843
688	 63.2479
684	 63.3611
680	 63.5241
676	 63.3051
672	 62.9354
668	 62.838
664	 63.0445
660	 63.2231
656	 63.2302
652	 63.1735
648	 63.0834
644	 62.8707
640	 62.4841
636	 62.1724
632	 62.3126
628	 62.8306
624	 63.1933
620	 62.9249
616	 62.3631
612	 62.1219
608	 62.0909
604	 62.0427
600	 62.202
596	 62.5036
592	 62.5246
588	 62.3204
584	 62.1864
580	 62.1505
576	 62.3304
572	 62.5535
568	 62.4318
564	 62.2514
560	 62.1701
556	 62.0524
552	 61.7669
548	 61.6376
544	 61.8612
540	 61.9507
536	 61.9137
532	 61.767
528	 61.5841
524	 61.4828
520	 61.2177
516	 60.9431
512	 61.0435
508	 61.2661
504	 61.1139
500	 60.875
496	 60.9616
492	 61.4603
488	 61.9367
484	 61.6395
480	 61.082
476	 60.7483
472	 60.1815
468	 59.5379
464	 58.7344
460	 58.2824
456	 58.7999
452	 59.3054
448	 59.7231
444	 59.9321
440	 59.8051
436	 59.7199
432	 58.8073
428	 57.4741
424	 56.9973
420	 57.143
416	 57.0653
412	 53.8346
408	 48.0507
404	 50.0673
400	 66.4861
396	 73.2253
392	 59.9909
388	 45.7952
384	 43.2022
380	 66.9715
376	 156.261
372	 200
370	 195.093