File: Bakgrunnsmateriale/MATLAB/FTIR/ftir_data/subBb/Mapping_121/C-4040-8_t90_cm-1.asc
PE IR       SPECTRUM    SPECTRUM    ASCII       PEDS        1.60
  -1
C-1E61~1.ASC
17/03/27
21:56:01.00
17/03/27
21:56:01.00
tln
$C-4040-8_t0090$<tbV0>[10.4,7.8,8.0,0.0,27,1,0]
370
64

2002,4.07
MIRTGS : RIGHTBACK : INTERNAL 2
MIR : ON : INTERNAL 2
OPTKBR

0.200000
8
8.000000
FILLER
RATIO
SPECTRUM
UNLOCKED 256

DOUBLE
64
COMBINED
1
0
0

1.000000
RATIO

1
0
TRUE
51149
0
LEFT NOT FITTED RIGHT NOT FITTED 0
NONE
NONE
15600
12
4.427000
51148
TRUE
1 0 8 72 0 0 0 0

15798

#HDR
-1
-1
#GR
CM-1
%T
2.38419e-05
0.0
5000
-1.000000
4631
8
163.39
53.4172
#DATA
5000	65.1561
4996	65.2064
4992	65.0582
4988	65.1273
4984	65.1325
4980	64.6988
4976	64.3712
4972	64.4346
4968	64.6783
4964	64.6739
4960	64.6525
4956	64.7681
4952	64.5254
4948	64.3789
4944	64.628
4940	64.7813
4936	64.7714
4932	64.7707
4928	64.6498
4924	64.414
4920	64.4968
4916	65.0182
4912	65.3534
4908	65.1105
4904	64.8093
4900	64.9768
4896	65.2897
4892	65.2578
4888	65.0825
4884	64.8414
4880	64.7263
4876	64.9623
4872	64.9821
4868	64.7008
4864	64.5823
4860	64.8001
4856	64.9666
4852	65.0043
4848	64.995
4844	64.6562
4840	64.5474
4836	64.8206
4832	64.9061
4828	64.9463
4824	65.0356
4820	65.0275
4816	64.9856
4812	64.9691
4808	65.0299
4804	65.1765
4800	65.3024
4796	65.415
4792	65.5371
4788	65.5722
4784	65.5354
4780	65.3346
4776	65.1126
4772	65.0293
4768	64.9391
4764	64.8364
4760	64.8884
4756	65.207
4752	65.4506
4748	65.2867
4744	64.8816
4740	64.8032
4736	65.239
4732	65.5001
4728	65.2718
4724	65.1783
4720	65.3846
4716	65.4226
4712	65.3814
4708	65.4512
4704	65.4633
4700	65.521
4696	65.634
4692	65.6299
4688	65.6327
4684	65.5776
4680	65.3862
4676	65.272
4672	65.2396
4668	65.1895
4664	65.2326
4660	65.3868
4656	65.5525
4652	65.728
4648	65.8914
4644	65.9097
4640	65.723
4636	65.5585
4632	65.5552
4628	65.4844
4624	65.3064
4620	65.2991
4616	65.3317
4612	65.2181
4608	65.1867
4604	65.1648
4600	65.0287
4596	65.0785
4592	65.3611
4588	65.5394
4584	65.5303
4580	65.4765
4576	65.2696
4572	64.9141
4568	64.7159
4564	64.7418
4560	64.8538
4556	64.9705
4552	65.0033
4548	65.0193
4544	64.867
4540	64.261
4536	63.8459
4532	64.2054
4528	64.6398
4524	64.4667
4520	64.2269
4516	64.3366
4512	64.4219
4508	64.3527
4504	64.1952
4500	64.0777
4496	64.0295
4492	64.01
4488	64.0229
4484	64.091
4480	64.1955
4476	64.0926
4472	63.801
4468	63.5281
4464	63.2916
4460	63.2355
4456	63.2924
4452	63.1938
4448	63.1688
4444	63.1019
4440	62.8753
4436	62.8058
4432	62.9987
4428	63.2046
4424	63.2679
4420	62.9729
4416	62.7542
4412	62.828
4408	62.9388
4404	63.2623
4400	63.543
4396	64.8064
4392	69.6137
4388	96.9414
4384	114.289
4380	87.6929
4376	67.9836
4372	64.6107
4368	64.0914
4364	63.5071
4360	63.4318
4356	63.664
4352	63.5914
4348	63.7489
4344	63.8202
4340	63.5589
4336	63.5032
4332	63.5354
4328	63.7635
4324	64.3514
4320	64.3478
4316	63.7094
4312	63.2997
4308	63.2012
4304	63.3139
4300	63.4313
4296	63.461
4292	63.4776
4288	63.4988
4284	63.6672
4280	63.9243
4276	64.2321
4272	64.4257
4268	64.4181
4264	64.4579
4260	64.5255
4256	64.5273
4252	64.2903
4248	64.0192
4244	64.0554
4240	64.2251
4236	64.4316
4232	64.4565
4228	64.4059
4224	64.5324
4220	64.6008
4216	64.648
4212	64.679
4208	64.7004
4204	64.7787
4200	64.6033
4196	64.309
4192	64.3083
4188	64.6838
4184	64.9365
4180	64.4882
4176	64.1488
4172	64.4722
4168	64.7741
4164	64.8037
4160	64.6821
4156	64.7453
4152	64.9563
4148	65.0517
4144	65.2586
4140	65.5222
4136	65.4826
4132	65.2791
4128	65.2988
4124	65.3715
4120	65.364
4116	65.4437
4112	65.4593
4108	65.4642
4104	65.6059
4100	65.663
4096	65.5166
4092	65.2801
4088	65.26
4084	65.4667
4080	65.4972
4076	65.3172
4072	65.1623
4068	65.1686
4064	65.2795
4060	65.3751
4056	65.482
4052	65.5375
4048	65.3637
4044	65.1837
4040	65.338
4036	65.5192
4032	65.4773
4028	65.4758
4024	65.5922
4020	65.595
4016	65.4496
4012	65.3853
4008	65.4943
4004	65.5724
4000	65.4737
3996	65.4086
3992	65.4038
3988	65.3864
3984	65.485
3980	65.5075
3976	65.3629
3972	65.2977
3968	65.2783
3964	65.2241
3960	65.2077
3956	65.2704
3952	65.385
3948	65.3658
3944	65.1995
3940	65.0956
3936	65.1223
3932	65.1613
3928	65.032
3924	64.8807
3920	64.9173
3916	65.0282
3912	65.1133
3908	65.0984
3904	64.9738
3900	64.8972
3896	64.9582
3892	65.1005
3888	65.1657
3884	65.1708
3880	65.2617
3876	65.2872
3872	65.108
3868	64.9554
3864	65.0352
3860	65.2274
3856	65.2266
3852	64.9509
3848	64.7595
3844	64.8753
3840	65.0407
3836	65.0177
3832	64.8543
3828	64.8034
3824	64.9444
3820	64.9547
3816	64.9072
3812	64.9882
3808	64.9738
3804	64.941
3800	65.0369
3796	65.158
3792	65.2424
3788	65.3206
3784	65.3586
3780	65.3125
3776	65.2933
3772	65.2864
3768	65.1758
3764	64.9829
3760	64.9533
3756	65.1156
3752	65.1401
3748	65.1375
3744	65.2512
3740	65.2492
3736	65.2091
3732	65.317
3728	65.447
3724	65.4195
3720	65.2858
3716	65.1754
3712	65.1356
3708	65.2466
3704	65.3322
3700	65.2286
3696	65.2342
3692	65.4251
3688	65.4886
3684	65.3724
3680	65.2823
3676	65.2887
3672	65.3512
3668	65.3749
3664	65.3363
3660	65.3187
3656	65.293
3652	65.248
3648	65.2502
3644	65.359
3640	65.4334
3636	65.319
3632	65.273
3628	65.3733
3624	65.4248
3620	65.4653
3616	65.4253
3612	65.2344
3608	65.1247
3604	65.1916
3600	65.2405
3596	65.2498
3592	65.4037
3588	65.5719
3584	65.5709
3580	65.4417
3576	65.2318
3572	65.1314
3568	65.276
3564	65.4468
3560	65.4821
3556	65.4673
3552	65.441
3548	65.3436
3544	65.275
3540	65.3052
3536	65.3067
3532	65.3244
3528	65.4027
3524	65.4377
3520	65.3797
3516	65.29
3512	65.3615
3508	65.4886
3504	65.3991
3500	65.2276
3496	65.2097
3492	65.2754
3488	65.2547
3484	65.1677
3480	65.1786
3476	65.37
3472	65.4313
3468	65.1014
3464	64.934
3460	65.2476
3456	65.496
3452	65.4398
3448	65.342
3444	65.2894
3440	65.232
3436	65.2906
3432	65.4942
3428	65.5335
3424	65.3547
3420	65.2558
3416	65.2524
3412	65.2381
3408	65.2779
3404	65.2855
3400	65.159
3396	65.0358
3392	65.0441
3388	65.1012
3384	65.0854
3380	65.0949
3376	65.1848
3372	65.1883
3368	65.0519
3364	65.009
3360	65.1278
3356	65.2001
3352	65.2151
3348	65.2625
3344	65.2601
3340	65.2135
3336	65.2695
3332	65.3638
3328	65.3497
3324	65.2523
3320	65.1698
3316	65.1098
3312	65.082
3308	65.1437
3304	65.1743
3300	65.1611
3296	65.2722
3292	65.3765
3288	65.3316
3284	65.2678
3280	65.1896
3276	65.1556
3272	65.2865
3268	65.3546
3264	65.255
3260	65.2142
3256	65.3116
3252	65.3912
3248	65.3707
3244	65.313
3240	65.2276
3236	65.1923
3232	65.2734
3228	65.3457
3224	65.401
3220	65.4448
3216	65.3613
3212	65.2989
3208	65.3579
3204	65.3185
3200	65.1609
3196	65.1766
3192	65.3881
3188	65.4085
3184	65.3141
3180	65.4592
3176	65.6314
3172	65.687
3168	65.6891
3164	65.5697
3160	65.5124
3156	65.5406
3152	65.4867
3148	65.4158
3144	65.4775
3140	65.6574
3136	65.7487
3132	65.786
3128	65.7872
3124	65.6309
3120	65.346
3116	65.0713
3112	65.1591
3108	65.5573
3104	65.6992
3100	65.5122
3096	65.383
3092	65.394
3088	65.408
3084	65.3489
3080	65.2413
3076	65.1961
3072	65.2341
3068	65.2558
3064	65.2256
3060	65.1944
3056	65.1736
3052	65.2133
3048	65.3149
3044	65.3324
3040	65.2882
3036	65.3317
3032	65.4155
3028	65.4743
3024	65.4832
3020	65.4089
3016	65.3741
3012	65.4428
3008	65.4636
3004	65.4209
3000	65.3714
2996	65.3125
2992	65.3286
2988	65.3367
2984	65.2432
2980	65.1878
2976	65.2094
2972	65.2281
2968	65.2054
2964	65.113
2960	65.0747
2956	65.1169
2952	65.0905
2948	65.1027
2944	65.1807
2940	65.192
2936	65.1571
2932	65.0617
2928	64.9353
2924	64.9091
2920	64.9392
2916	64.9731
2912	65.0568
2908	65.1442
2904	65.1625
2900	65.1123
2896	65.0901
2892	65.1461
2888	65.1965
2884	65.2374
2880	65.2912
2876	65.3012
2872	65.3011
2868	65.3272
2864	65.3336
2860	65.2982
2856	65.1671
2852	64.9731
2848	64.9059
2844	65.0064
2840	65.2312
2836	65.4141
2832	65.3579
2828	65.2758
2824	65.2774
2820	65.2463
2816	65.2281
2812	65.257
2808	65.3184
2804	65.3358
2800	65.3581
2796	65.48
2792	65.5249
2788	65.4827
2784	65.4647
2780	65.404
2776	65.3362
2772	65.3266
2768	65.3334
2764	65.3069
2760	65.3043
2756	65.3777
2752	65.4444
2748	65.4388
2744	65.3844
2740	65.3949
2736	65.451
2732	65.3888
2728	65.3223
2724	65.3953
2720	65.4539
2716	65.4156
2712	65.3772
2708	65.3959
2704	65.3696
2700	65.2927
2696	65.3128
2692	65.329
2688	65.2421
2684	65.2288
2680	65.3321
2676	65.409
2672	65.4735
2668	65.5744
2664	65.6245
2660	65.5544
2656	65.3978
2652	65.2676
2648	65.2769
2644	65.3543
2640	65.3497
2636	65.3152
2632	65.33
2628	65.3406
2624	65.3337
2620	65.3165
2616	65.3239
2612	65.3835
2608	65.3439
2604	65.1972
2600	65.1565
2596	65.2776
2592	65.388
2588	65.4006
2584	65.4167
2580	65.4313
2576	65.4415
2572	65.448
2568	65.3958
2564	65.3168
2560	65.2741
2556	65.3361
2552	65.3905
2548	65.3591
2544	65.3181
2540	65.2643
2536	65.2468
2532	65.2268
2528	65.1946
2524	65.2489
2520	65.2897
2516	65.2553
2512	65.1939
2508	65.1225
2504	65.1271
2500	65.2318
2496	65.2766
2492	65.3
2488	65.385
2484	65.4189
2480	65.4953
2476	65.6018
2472	65.5646
2468	65.4005
2464	65.2612
2460	65.2761
2456	65.3467
2452	65.3688
2448	65.3202
2444	65.2187
2440	65.1943
2436	65.2586
2432	65.2566
2428	65.0313
2424	64.8229
2420	64.9561
2416	65.1143
2412	65.137
2408	65.2639
2404	65.4259
2400	65.5096
2396	65.4643
2392	65.3472
2388	65.2741
2384	65.2814
2380	65.3557
2376	65.3693
2372	65.3318
2368	65.368
2364	65.46
2360	65.4426
2356	65.3445
2352	65.3361
2348	65.3458
2344	65.3138
2340	65.3219
2336	65.3512
2332	65.3638
2328	65.3858
2324	65.3965
2320	65.41
2316	65.4333
2312	65.3749
2308	65.2824
2304	65.3225
2300	65.4373
2296	65.4793
2292	65.4811
2288	65.5073
2284	65.5199
2280	65.4954
2276	65.4706
2272	65.4374
2268	65.424
2264	65.457
2260	65.4454
2256	65.3569
2252	65.3503
2248	65.4418
2244	65.4367
2240	65.3525
2236	65.3252
2232	65.3707
2228	65.4182
2224	65.4139
2220	65.3898
2216	65.3567
2212	65.3362
2208	65.3843
2204	65.4233
2200	65.3875
2196	65.3732
2192	65.4289
2188	65.4899
2184	65.4842
2180	65.374
2176	65.3167
2172	65.4361
2168	65.4918
2164	65.4528
2160	65.4844
2156	65.5676
2152	65.5258
2148	65.2732
2144	65.158
2140	65.2623
2136	65.3646
2132	65.4249
2128	65.3693
2124	65.2837
2120	65.3134
2116	65.4226
2112	65.5818
2108	65.6291
2104	65.4152
2100	65.255
2096	65.3259
2092	65.3659
2088	65.2462
2084	65.0526
2080	65.0758
2076	65.5108
2072	65.9721
2068	65.8852
2064	65.4803
2060	65.2457
2056	65.0842
2052	65.0637
2048	65.2456
2044	65.4111
2040	65.4587
2036	65.4248
2032	65.4144
2028	65.4197
2024	65.3737
2020	65.2925
2016	65.3239
2012	65.4368
2008	65.4146
2004	65.3096
2000	65.2912
1996	65.3312
1992	65.337
1988	65.315
1984	65.303
1980	65.2843
1976	65.2859
1972	65.4119
1968	65.5412
1964	65.4901
1960	65.3785
1956	65.3532
1952	65.3358
1948	65.2973
1944	65.3514
1940	65.4337
1936	65.3809
1932	65.2774
1928	65.3102
1924	65.3993
1920	65.3934
1916	65.3379
1912	65.3093
1908	65.3286
1904	65.378
1900	65.4124
1896	65.4299
1892	65.4485
1888	65.4516
1884	65.4454
1880	65.4204
1876	65.364
1872	65.3255
1868	65.302
1864	65.306
1860	65.3523
1856	65.3669
1852	65.3725
1848	65.4337
1844	65.4822
1840	65.4672
1836	65.4591
1832	65.491
1828	65.4806
1824	65.4585
1820	65.4884
1816	65.4766
1812	65.4335
1808	65.4401
1804	65.455
1800	65.4447
1796	65.3922
1792	65.2844
1788	65.2164
1784	65.2702
1780	65.3363
1776	65.3465
1772	65.3735
1768	65.387
1764	65.3643
1760	65.3156
1756	65.2477
1752	65.2511
1748	65.296
1744	65.3124
1740	65.2774
1736	65.1653
1732	65.057
1728	65.047
1724	65.1349
1720	65.2705
1716	65.394
1712	65.45
1708	65.4215
1704	65.2751
1700	65.162
1696	65.2325
1692	65.3362
1688	65.3798
1684	65.3621
1680	65.2918
1676	65.2459
1672	65.3344
1668	65.4867
1664	65.4849
1660	65.3745
1656	65.3098
1652	65.2781
1648	65.2503
1644	65.2571
1640	65.267
1636	65.2303
1632	65.1734
1628	65.152
1624	65.2097
1620	65.3072
1616	65.3194
1612	65.2391
1608	65.1908
1604	65.2214
1600	65.2696
1596	65.2863
1592	65.2715
1588	65.2574
1584	65.3222
1580	65.3861
1576	65.2822
1572	65.1309
1568	65.0865
1564	65.1332
1560	65.1747
1556	65.1321
1552	65.1143
1548	65.1759
1544	65.2818
1540	65.3003
1536	65.2028
1532	65.192
1528	65.2181
1524	65.1968
1520	65.2266
1516	65.2522
1512	65.1657
1508	65.1164
1504	65.2288
1500	65.3405
1496	65.311
1492	65.1918
1488	65.1732
1484	65.2399
1480	65.2337
1476	65.1973
1472	65.2038
1468	65.2422
1464	65.2672
1460	65.2103
1456	65.1661
1452	65.2417
1448	65.3026
1444	65.3007
1440	65.2701
1436	65.1653
1432	65.1259
1428	65.2287
1424	65.3081
1420	65.3069
1416	65.2985
1412	65.338
1408	65.3786
1404	65.3452
1400	65.3031
1396	65.2722
1392	65.1955
1388	65.1482
1384	65.1711
1380	65.1921
1376	65.1466
1372	65.0565
1368	65.0594
1364	65.1391
1360	65.2008
1356	65.2135
1352	65.1685
1348	65.1443
1344	65.14
1340	65.0988
1336	65.0721
1332	65.118
1328	65.1872
1324	65.229
1320	65.2217
1316	65.1173
1312	64.9893
1308	64.9693
1304	65.0298
1300	65.1156
1296	65.1971
1292	65.1959
1288	65.1394
1284	65.0752
1280	64.9992
1276	64.9951
1272	64.9889
1268	64.9193
1264	64.9389
1260	65.0351
1256	65.0696
1252	65.0112
1248	64.9873
1244	65.0267
1240	65.0067
1236	64.9694
1232	64.9903
1228	65.0466
1224	65.0773
1220	65.102
1216	65.1475
1212	65.1516
1208	65.1046
1204	65.0602
1200	65.0541
1196	65.0486
1192	65.0266
1188	65.0141
1184	65.0047
1180	65.016
1176	65.0367
1172	65.0458
1168	65.0205
1164	64.9656
1160	64.9585
1156	64.9864
1152	64.9435
1148	64.8991
1144	64.9091
1140	64.9256
1136	64.9389
1132	64.8946
1128	64.8291
1124	64.8796
1120	65.0326
1116	65.0613
1112	64.8689
1108	64.7418
1104	64.8581
1100	64.9271
1096	64.7027
1092	64.3997
1088	64.3582
1084	64.5706
1080	64.8046
1076	64.8885
1072	64.8295
1068	64.8156
1064	64.8469
1060	64.8551
1056	64.9678
1052	65.0819
1048	65.115
1044	65.1506
1040	65.0304
1036	64.8861
1032	64.9829
1028	65.136
1024	65.0563
1020	64.7743
1016	64.5935
1012	64.6238
1008	64.6305
1004	64.5975
1000	64.7299
996	 64.8605
992	 64.7851
988	 64.6962
984	 64.7562
980	 64.8272
976	 64.8143
972	 64.8709
968	 64.9863
964	 64.9756
960	 64.7828
956	 64.6757
952	 64.9376
948	 65.1748
944	 65.0246
940	 64.6158
936	 64.1712
932	 64.0725
928	 64.2995
924	 64.404
920	 64.279
916	 64.1276
912	 64.3201
908	 64.5325
904	 64.1709
900	 63.9483
896	 64.2865
892	 64.5039
888	 64.3714
884	 64.1905
880	 64.2151
876	 64.3549
872	 64.3983
868	 64.437
864	 64.5484
860	 64.65
856	 64.6942
852	 64.6007
848	 64.355
844	 64.248
840	 64.3547
836	 64.4409
832	 64.4793
828	 64.399
824	 64.3215
820	 64.442
816	 64.461
812	 64.3606
808	 64.3855
804	 64.3795
800	 64.2835
796	 64.2988
792	 64.1471
788	 63.777
784	 63.6236
780	 63.7022
776	 63.8968
772	 63.979
768	 63.9657
764	 64.1639
760	 64.3273
756	 64.232
752	 64.0375
748	 63.9781
744	 63.7265
740	 63.2607
736	 63.1505
732	 63.1609
728	 63.2555
724	 63.6334
720	 63.8205
716	 63.5647
712	 63.274
708	 63.1925
704	 63.2375
700	 63.2503
696	 63.1582
692	 63.2618
688	 63.4673
684	 63.4033
680	 63.2246
676	 63.1258
672	 63.0776
668	 63.1276
664	 63.1864
660	 63.0145
656	 62.8855
652	 63.0683
648	 63.117
644	 62.7834
640	 62.5802
636	 62.5526
632	 62.3868
628	 62.3432
624	 62.5166
620	 62.6262
616	 62.5262
612	 62.185
608	 62.0066
604	 62.5026
600	 62.9617
596	 62.7147
592	 62.4032
588	 62.3031
584	 62.1355
580	 62.1349
576	 62.3408
572	 62.2364
568	 61.9031
564	 61.8495
560	 61.8289
556	 61.8035
552	 62.1746
548	 62.3061
544	 61.6404
540	 61.2473
536	 61.4777
532	 61.3039
528	 60.9848
524	 60.9785
520	 61.1717
516	 61.396
512	 61.2359
508	 60.7656
504	 60.4396
500	 60.5756
496	 61.0041
492	 60.8234
488	 60.2701
484	 60.556
480	 60.9097
476	 60.5801
472	 60.2319
468	 59.9736
464	 59.884
460	 60.2706
456	 60.7035
452	 60.152
448	 59.2927
444	 59.3882
440	 59.0619
436	 57.7623
432	 57.5079
428	 58.0781
424	 58.2095
420	 58.8485
416	 58.8048
412	 57.2888
408	 56.1548
404	 58.4209
400	 63.757
396	 58.4033
392	 54.0424
388	 65.2613
384	 69.5478
380	 58.1328
376	 88.4985
372	 158.361
370	 159.689