File: Bakgrunnsmateriale/MATLAB/FTIR/ftir_data/subBb/Mapping_121/C-4040-8_t88_cm-1.asc
PE IR       SPECTRUM    SPECTRUM    ASCII       PEDS        1.60
  -1
C-9D65~1.ASC
17/03/27
21:40:19.00
17/03/27
21:40:19.00
tln
$C-4040-8_t0088$<tbV0>[-13.0,5.2,8.0,0.0,27,1,0]
370
64

2002,4.07
MIRTGS : RIGHTBACK : INTERNAL 2
MIR : ON : INTERNAL 2
OPTKBR

0.200000
8
8.000000
FILLER
RATIO
SPECTRUM
UNLOCKED 256

DOUBLE
64
COMBINED
1
0
0

1.000000
RATIO

1
0
TRUE
51149
0
LEFT NOT FITTED RIGHT NOT FITTED 0
NONE
NONE
15600
12
4.427000
51148
TRUE
1 0 8 72 0 0 0 0

15798

#HDR
-1
-1
#GR
CM-1
%T
2.38419e-05
0.0
5000
-1.000000
4631
8
124.602
39.4678
#DATA
5000	64.3538
4996	64.1124
4992	64.1667
4988	64.6068
4984	64.9854
4980	64.8935
4976	64.6905
4972	64.6327
4968	64.4092
4964	64.1259
4960	64.3933
4956	65.0817
4952	65.3347
4948	65.1514
4944	64.9874
4940	64.8425
4936	64.7287
4932	64.7133
4928	64.6372
4924	64.4498
4920	64.3526
4916	64.5065
4912	64.7195
4908	64.7554
4904	64.7444
4900	64.6796
4896	64.6285
4892	64.9904
4888	65.3465
4884	65.1608
4880	64.9978
4876	65.1024
4872	64.8762
4868	64.3512
4864	64.0877
4860	64.218
4856	64.4888
4852	64.6416
4848	64.872
4844	65.0041
4840	64.7884
4836	64.7795
4832	65.0587
4828	65.1372
4824	65.1434
4820	65.3114
4816	65.1527
4812	64.7121
4808	64.6096
4804	64.7573
4800	64.9034
4796	64.9572
4792	64.8741
4788	64.8363
4784	64.9125
4780	64.9249
4776	64.9311
4772	65.137
4768	65.3518
4764	65.4391
4760	65.5939
4756	65.6097
4752	65.4268
4748	65.4447
4744	65.5745
4740	65.5597
4736	65.447
4732	65.5048
4728	65.7294
4724	65.7261
4720	65.541
4716	65.4865
4712	65.567
4708	65.5962
4704	65.4815
4700	65.3536
4696	65.4231
4692	65.6517
4688	65.6628
4684	65.468
4680	65.4022
4676	65.4104
4672	65.5194
4668	65.742
4664	65.8149
4660	65.7205
4656	65.6474
4652	65.5867
4648	65.3296
4644	65.0791
4640	65.1447
4636	65.2537
4632	65.2583
4628	65.2496
4624	65.1653
4620	65.0446
4616	64.9949
4612	65.0795
4608	65.1114
4604	64.8268
4600	64.5067
4596	64.6077
4592	64.9216
4588	64.8955
4584	64.5916
4580	64.6087
4576	65.0459
4572	65.1791
4568	64.9698
4564	64.8761
4560	64.6934
4556	64.4785
4552	64.5003
4548	64.384
4544	64.0508
4540	64.1831
4536	64.5685
4532	64.6609
4528	64.6017
4524	64.1307
4520	63.6469
4516	63.7963
4512	63.9835
4508	63.9969
4504	64.0492
4500	64.1204
4496	64.1379
4492	63.9793
4488	63.8056
4484	63.5401
4480	63.1438
4476	63.0991
4472	63.3437
4468	63.3327
4464	63.1928
4460	63.1631
4456	63.0759
4452	62.8595
4448	62.6956
4444	62.8388
4440	63.0833
4436	63.0319
4432	62.8767
4428	63.2559
4424	63.6783
4420	63.5352
4416	63.1091
4412	62.2894
4408	61.3988
4404	60.9698
4400	60.4308
4396	60.0696
4392	65.9061
4388	90.4177
4384	122.682
4380	105.933
4376	71.5385
4372	66.2169
4368	64.5024
4364	63.9713
4360	63.2486
4356	63.4531
4352	63.4259
4348	62.9858
4344	62.9415
4340	63.3707
4336	63.5053
4332	63.4986
4328	63.6283
4324	63.546
4320	63.4102
4316	63.5865
4312	63.8912
4308	63.9356
4304	63.7525
4300	63.7284
4296	63.8495
4292	63.7902
4288	63.5847
4284	63.5145
4280	63.617
4276	63.6549
4272	63.722
4268	63.8839
4264	63.9876
4260	63.9467
4256	63.8079
4252	63.9176
4248	64.1497
4244	64.2013
4240	64.3008
4236	64.6221
4232	64.8503
4228	64.6265
4224	64.3504
4220	64.4455
4216	64.6058
4212	64.6301
4208	64.6259
4204	64.7663
4200	64.7264
4196	64.3316
4192	64.401
4188	65.0183
4184	65.2367
4180	65.1434
4176	65.4949
4172	65.8183
4168	65.6886
4164	65.5771
4160	65.4751
4156	65.2249
4152	65.1049
4148	65.2387
4144	65.3368
4140	65.197
4136	65.0094
4132	65.035
4128	65.2577
4124	65.3665
4120	65.251
4116	65.1737
4112	65.2351
4108	65.3433
4104	65.3879
4100	65.2423
4096	65.0444
4092	64.9867
4088	65.0819
4084	65.2343
4080	65.2199
4076	65.13
4072	65.1642
4068	65.2343
4064	65.2421
4060	65.2612
4056	65.2883
4052	65.2778
4048	65.4064
4044	65.5601
4040	65.5557
4036	65.5026
4032	65.3494
4028	65.1381
4024	65.0922
4020	65.2069
4016	65.2852
4012	65.2886
4008	65.3119
4004	65.2656
4000	65.1337
3996	65.0554
3992	65.1054
3988	65.2205
3984	65.3228
3980	65.4298
3976	65.4161
3972	65.2195
3968	65.0433
3964	65.0368
3960	65.1603
3956	65.2418
3952	65.1688
3948	65.0572
3944	65.0396
3940	65.0138
3936	64.92
3932	64.9026
3928	64.9378
3924	64.9296
3920	64.9017
3916	64.8892
3912	65.0201
3908	65.1724
3904	65.1474
3900	65.1013
3896	65.0132
3892	64.9785
3888	65.114
3884	65.0409
3880	64.8387
3876	64.9005
3872	65.0752
3868	65.1336
3864	65.0453
3860	64.8505
3856	64.7002
3852	64.6434
3848	64.6245
3844	64.6362
3840	64.6385
3836	64.7631
3832	64.9737
3828	64.9471
3824	64.8921
3820	65.048
3816	65.1209
3812	65.0646
3808	64.9935
3804	64.8805
3800	64.8846
3796	64.941
3792	64.9075
3788	64.9371
3784	65.0341
3780	64.9998
3776	64.8689
3772	64.9012
3768	65.0454
3764	65.1812
3760	65.2961
3756	65.3171
3752	65.1779
3748	64.9934
3744	65.021
3740	65.1304
3736	65.1151
3732	65.0837
3728	65.1384
3724	65.2898
3720	65.363
3716	65.2343
3712	65.0919
3708	65.0591
3704	65.0886
3700	65.0813
3696	65.0776
3692	65.1297
3688	65.0889
3684	65.0259
3680	65.0362
3676	65.0195
3672	65.0244
3668	65.0718
3664	65.1436
3660	65.322
3656	65.4503
3652	65.3453
3648	65.2193
3644	65.2596
3640	65.3614
3636	65.3571
3632	65.2415
3628	65.1779
3624	65.188
3620	65.216
3616	65.2663
3612	65.2705
3608	65.2028
3604	65.1881
3600	65.2488
3596	65.2675
3592	65.2534
3588	65.2788
3584	65.3136
3580	65.297
3576	65.283
3572	65.2545
3568	65.1507
3564	65.0946
3560	65.1884
3556	65.2677
3552	65.2178
3548	65.2048
3544	65.2562
3540	65.3245
3536	65.3508
3532	65.2268
3528	65.0909
3524	65.072
3520	65.2065
3516	65.3057
3512	65.1482
3508	65.059
3504	65.2165
3500	65.2881
3496	65.27
3492	65.3251
3488	65.3721
3484	65.4392
3480	65.4535
3476	65.3278
3472	65.2192
3468	65.1916
3464	65.2431
3460	65.3047
3456	65.3311
3452	65.3328
3448	65.2871
3444	65.3032
3440	65.355
3436	65.2744
3432	65.0562
3428	64.9401
3424	65.0868
3420	65.3352
3416	65.4787
3412	65.4028
3408	65.1938
3404	65.0764
3400	65.0902
3396	65.1069
3392	65.1877
3388	65.315
3384	65.2749
3380	65.1669
3376	65.1232
3372	65.0318
3368	64.9376
3364	64.9575
3360	64.9832
3356	64.952
3352	64.936
3348	64.9321
3344	64.9621
3340	65.1074
3336	65.2995
3332	65.3094
3328	65.168
3324	65.1005
3320	65.1365
3316	65.1808
3312	65.1929
3308	65.2202
3304	65.3098
3300	65.4076
3296	65.3984
3292	65.3215
3288	65.3096
3284	65.312
3280	65.2447
3276	65.1326
3272	65.0491
3268	65.1225
3264	65.2343
3260	65.2225
3256	65.2113
3252	65.1635
3248	65.0727
3244	65.0753
3240	65.0728
3236	65.0719
3232	65.1367
3228	65.1772
3224	65.174
3220	65.144
3216	65.1325
3212	65.235
3208	65.3887
3204	65.3589
3200	65.231
3196	65.2407
3192	65.2733
3188	65.2364
3184	65.193
3180	65.1537
3176	65.191
3172	65.2762
3168	65.2773
3164	65.2091
3160	65.1396
3156	65.1335
3152	65.2088
3148	65.3587
3144	65.5262
3140	65.5115
3136	65.3287
3132	65.2184
3128	65.1317
3124	64.9606
3120	64.9254
3116	65.038
3112	65.0465
3108	65.101
3104	65.3027
3100	65.3319
3096	65.22
3092	65.1858
3088	65.1424
3084	65.0701
3080	65.0347
3076	65.0753
3072	65.1821
3068	65.2469
3064	65.205
3060	65.1681
3056	65.2731
3052	65.3253
3048	65.1401
3044	64.9702
3040	65.0501
3036	65.2305
3032	65.2733
3028	65.2106
3024	65.2042
3020	65.1945
3016	65.1248
3012	65.0853
3008	65.1142
3004	65.1528
3000	65.1059
2996	65.0564
2992	65.0516
2988	65.0097
2984	64.9862
2980	64.9686
2976	64.8462
2972	64.7246
2968	64.7576
2964	64.8809
2960	64.9662
2956	65
2952	65.0371
2948	65.096
2944	65.1382
2940	65.0978
2936	65.0105
2932	64.9741
2928	64.9591
2924	64.8496
2920	64.678
2916	64.644
2912	64.7901
2908	64.9372
2904	64.955
2900	64.9247
2896	64.9073
2892	64.8791
2888	64.9181
2884	64.9746
2880	64.9427
2876	64.9772
2872	65.1052
2868	65.1936
2864	65.1823
2860	65.0284
2856	64.9804
2852	65.1365
2848	65.1345
2844	65.0073
2840	65.0377
2836	65.1056
2832	65.0464
2828	65.0285
2824	65.1338
2820	65.2263
2816	65.2835
2812	65.2764
2808	65.2322
2804	65.2504
2800	65.3015
2796	65.3014
2792	65.2659
2788	65.2902
2784	65.3575
2780	65.367
2776	65.3568
2772	65.4126
2768	65.4007
2764	65.3141
2760	65.331
2756	65.3641
2752	65.3263
2748	65.3035
2744	65.294
2740	65.2663
2736	65.2524
2732	65.2638
2728	65.3075
2724	65.3863
2720	65.4597
2716	65.4761
2712	65.3855
2708	65.2716
2704	65.2894
2700	65.3744
2696	65.3726
2692	65.3205
2688	65.3044
2684	65.3122
2680	65.2888
2676	65.2201
2672	65.1696
2668	65.2112
2664	65.2694
2660	65.2574
2656	65.2655
2652	65.2575
2648	65.185
2644	65.1381
2640	65.1729
2636	65.2898
2632	65.3546
2628	65.2861
2624	65.2313
2620	65.2633
2616	65.2805
2612	65.2759
2608	65.3028
2604	65.3253
2600	65.2767
2596	65.2035
2592	65.185
2588	65.1442
2584	65.118
2580	65.1782
2576	65.1838
2572	65.1287
2568	65.1132
2564	65.1411
2560	65.1831
2556	65.2241
2552	65.2546
2548	65.2353
2544	65.1849
2540	65.1344
2536	65.1273
2532	65.1635
2528	65.185
2524	65.2548
2520	65.2771
2516	65.2127
2512	65.284
2508	65.3396
2504	65.2563
2500	65.2805
2496	65.307
2492	65.2547
2488	65.283
2484	65.328
2480	65.3284
2476	65.2743
2472	65.1893
2468	65.1588
2464	65.2093
2460	65.2189
2456	65.2098
2452	65.3055
2448	65.3688
2444	65.317
2440	65.3103
2436	65.4536
2432	65.4836
2428	65.1896
2424	64.9288
2420	65.0349
2416	65.2078
2412	65.1563
2408	65.129
2404	65.2296
2400	65.2972
2396	65.332
2392	65.3745
2388	65.3945
2384	65.3953
2380	65.437
2376	65.4298
2372	65.3536
2368	65.3558
2364	65.3716
2360	65.3323
2356	65.296
2352	65.2956
2348	65.3321
2344	65.3441
2340	65.3373
2336	65.3362
2332	65.3362
2328	65.327
2324	65.2848
2320	65.266
2316	65.2919
2312	65.2962
2308	65.2667
2304	65.2728
2300	65.3152
2296	65.3159
2292	65.2756
2288	65.3056
2284	65.4016
2280	65.4048
2276	65.3338
2272	65.2738
2268	65.2474
2264	65.286
2260	65.2773
2256	65.2604
2252	65.37
2248	65.4136
2244	65.3488
2240	65.3398
2236	65.3373
2232	65.3216
2228	65.3995
2224	65.4524
2220	65.3764
2216	65.346
2212	65.3788
2208	65.3455
2204	65.2723
2200	65.2826
2196	65.3155
2192	65.2951
2188	65.2843
2184	65.2625
2180	65.2485
2176	65.2508
2172	65.2273
2168	65.22
2164	65.2022
2160	65.1467
2156	65.159
2152	65.1989
2148	65.1434
2144	65.0567
2140	65.0567
2136	65.1571
2132	65.2313
2128	65.2188
2124	65.2482
2120	65.267
2116	65.2315
2112	65.3158
2108	65.3889
2104	65.3068
2100	65.2553
2096	65.2587
2092	65.1994
2088	65.2288
2084	65.4157
2080	65.5429
2076	65.4455
2072	65.2218
2068	65.2644
2064	65.4214
2060	65.3493
2056	65.3422
2052	65.4021
2048	65.3487
2044	65.2944
2040	65.2479
2036	65.2442
2032	65.3119
2028	65.3697
2024	65.4218
2020	65.4836
2016	65.5242
2012	65.4831
2008	65.354
2004	65.2603
2000	65.2351
1996	65.2336
1992	65.2821
1988	65.296
1984	65.2218
1980	65.2205
1976	65.3242
1972	65.367
1968	65.3197
1964	65.2639
1960	65.2504
1956	65.2879
1952	65.3128
1948	65.3003
1944	65.2875
1940	65.2623
1936	65.24
1932	65.277
1928	65.3466
1924	65.4012
1920	65.3808
1916	65.2814
1912	65.2166
1908	65.2632
1904	65.3138
1900	65.286
1896	65.2927
1892	65.3208
1888	65.3068
1884	65.3023
1880	65.2886
1876	65.2861
1872	65.3232
1868	65.3353
1864	65.325
1860	65.3107
1856	65.291
1852	65.2817
1848	65.2835
1844	65.3097
1840	65.3539
1836	65.3578
1832	65.2979
1828	65.2422
1824	65.2691
1820	65.3514
1816	65.4125
1812	65.4047
1808	65.3435
1804	65.2995
1800	65.2925
1796	65.3084
1792	65.2874
1788	65.2613
1784	65.2775
1780	65.2562
1776	65.2402
1772	65.2606
1768	65.2827
1764	65.3258
1760	65.328
1756	65.2502
1752	65.1943
1748	65.1873
1744	65.1244
1740	65.0511
1736	65.0987
1732	65.1772
1728	65.1761
1724	65.1474
1720	65.2364
1716	65.3588
1712	65.2197
1708	65.058
1704	65.1527
1700	65.3147
1696	65.4011
1692	65.4149
1688	65.4484
1684	65.4279
1680	65.3157
1676	65.2403
1672	65.2246
1668	65.2804
1664	65.2618
1660	65.1475
1656	65.1639
1652	65.2548
1648	65.2656
1644	65.2554
1640	65.189
1636	65.0865
1632	65.1127
1628	65.1614
1624	65.1371
1620	65.1352
1616	65.1531
1612	65.1006
1608	65.0306
1604	65.0572
1600	65.1026
1596	65.0918
1592	65.0882
1588	65.1054
1584	65.0898
1580	65.0118
1576	64.9911
1572	65.0767
1568	65.1192
1564	65.0533
1560	64.9398
1556	64.8905
1552	64.9393
1548	65.0014
1544	65.0269
1540	65.0674
1536	65.1164
1532	65.0953
1528	65.0808
1524	65.1607
1520	65.2352
1516	65.1751
1512	65.0808
1508	65.1365
1504	65.2257
1500	65.2436
1496	65.2737
1492	65.2589
1488	65.1972
1484	65.1721
1480	65.1335
1476	65.0752
1472	65.0184
1468	64.9649
1464	64.9748
1460	65.1058
1456	65.19
1452	65.0667
1448	65.0476
1444	65.2159
1440	65.2452
1436	65.1782
1432	65.2008
1428	65.2247
1424	65.1929
1420	65.1756
1416	65.1553
1412	65.1568
1408	65.2106
1404	65.2803
1400	65.3296
1396	65.2627
1392	65.1504
1388	65.1352
1384	65.154
1380	65.2013
1376	65.2566
1372	65.1907
1368	65.1338
1364	65.1539
1360	65.1214
1356	65.059
1352	65.0528
1348	65.1178
1344	65.1913
1340	65.2457
1336	65.2618
1332	65.1494
1328	65.001
1324	65.0015
1320	65.0327
1316	64.9935
1312	64.9972
1308	65.0234
1304	65.0077
1300	64.9812
1296	64.9639
1292	64.9799
1288	65.0124
1284	65.0126
1280	65.045
1276	65.143
1272	65.1354
1268	65.0093
1264	65.0072
1260	65.0651
1256	64.956
1252	64.8635
1248	64.9699
1244	65.0815
1240	65.0721
1236	65.0485
1232	64.9892
1228	64.8648
1224	64.8314
1220	64.8754
1216	64.9113
1212	64.9696
1208	65.0507
1204	65.0832
1200	64.9721
1196	64.8438
1192	64.8444
1188	64.8947
1184	64.9164
1180	64.8972
1176	64.8159
1172	64.7412
1168	64.802
1164	64.916
1160	64.9287
1156	64.8641
1152	64.8023
1148	64.7629
1144	64.7723
1140	64.8786
1136	64.9564
1132	64.9167
1128	64.9127
1124	64.9455
1120	64.9785
1116	65.0354
1112	65.0499
1108	65.0942
1104	65.1981
1100	65.0849
1096	64.8276
1092	64.8391
1088	64.9415
1084	64.8997
1080	64.8983
1076	64.9209
1072	64.9315
1068	64.9879
1064	64.9562
1060	64.8635
1056	64.8782
1052	64.8694
1048	64.7762
1044	64.7731
1040	64.7721
1036	64.6456
1032	64.5785
1028	64.65
1024	64.7299
1020	64.7851
1016	64.7554
1012	64.7454
1008	64.9191
1004	65.0287
1000	64.8837
996	 64.8211
992	 64.9516
988	 64.93
984	 64.7917
980	 64.7343
976	 64.7402
972	 64.873
968	 64.9643
964	 64.8296
960	 64.9085
956	 65.1584
952	 65.1325
948	 64.987
944	 64.9074
940	 64.9728
936	 65.0419
932	 64.8627
928	 64.6181
924	 64.6319
920	 64.7183
916	 64.5179
912	 64.1771
908	 64.1204
904	 64.435
900	 64.5764
896	 64.4903
892	 64.5743
888	 64.7765
884	 64.9253
880	 64.8701
876	 64.7545
872	 64.817
868	 64.7379
864	 64.3431
860	 64.0992
856	 64.1853
852	 64.3635
848	 64.5247
844	 64.5962
840	 64.6288
836	 64.7487
832	 64.8395
828	 64.7386
824	 64.5488
820	 64.4737
816	 64.4695
812	 64.4008
808	 64.2744
804	 64.288
800	 64.4236
796	 64.3615
792	 64.1446
788	 64.0024
784	 64.0222
780	 64.1934
776	 64.3309
772	 64.2642
768	 64.1925
764	 64.2257
760	 64.1327
756	 64.0402
752	 63.9399
748	 63.7167
744	 63.8729
740	 64.0296
736	 63.8177
732	 63.9631
728	 64.1142
724	 63.9628
720	 64.0842
716	 64.1573
712	 63.8274
708	 63.506
704	 63.4517
700	 63.5593
696	 63.5554
692	 63.4604
688	 63.4139
684	 63.4066
680	 63.4946
676	 63.5015
672	 63.4244
668	 63.4263
664	 63.2677
660	 62.9328
656	 62.8341
652	 62.9987
648	 63.1188
644	 63.1257
640	 62.9935
636	 62.8343
632	 62.9931
628	 63.1023
624	 62.7764
620	 62.5401
616	 62.622
612	 62.955
608	 63.45
604	 63.5154
600	 63.0846
596	 62.8196
592	 62.8309
588	 62.8252
584	 62.8688
580	 63.024
576	 62.926
572	 62.5473
568	 62.3554
564	 62.4727
560	 62.5143
556	 62.4972
552	 62.7485
548	 62.941
544	 62.6728
540	 62.4325
536	 62.4544
532	 62.2672
528	 62.0008
524	 61.6778
520	 61.5568
516	 62.0683
512	 62.3721
508	 62.0633
504	 61.7423
500	 61.6819
496	 61.5932
492	 61.3216
488	 61.231
484	 61.7003
480	 62.3312
476	 62.0972
472	 60.9454
468	 59.926
464	 59.689
460	 60.6405
456	 61.8326
452	 61.42
448	 60.4562
444	 60.4759
440	 60.8367
436	 60.6751
432	 59.0335
428	 56.7144
424	 55.704
420	 55.9884
416	 55.7846
412	 58.3552
408	 67.7084
404	 70.3189
400	 59.8187
396	 58.3435
392	 65.972
388	 67.3179
384	 68.6621
380	 62.7483
376	 53.8648
372	 48.3888
370	 39.4678