File: Bakgrunnsmateriale/MATLAB/FTIR/ftir_data/subBb/Mapping_121/C-4040-8_t60_cm-1.asc
PE IR       SPECTRUM    SPECTRUM    ASCII       PEDS        1.60
  -1
C-9C61~1.ASC
17/03/27
19:23:46.00
17/03/27
19:23:46.00
tln
$C-4040-8_t0060$<tbV0>[2.6,0.0,8.0,0.0,27,1,0]
370
64

2002,4.07
MIRTGS : RIGHTBACK : INTERNAL 2
MIR : ON : INTERNAL 2
OPTKBR

0.200000
8
8.000000
FILLER
RATIO
SPECTRUM
UNLOCKED 256

DOUBLE
64
COMBINED
1
0
0

1.000000
RATIO

1
0
TRUE
51149
0
LEFT NOT FITTED RIGHT NOT FITTED 0
NONE
NONE
15600
12
4.427000
51148
TRUE
1 0 8 72 0 0 0 0

15798

#HDR
-1
-1
#GR
CM-1
%T
2.38419e-05
0.0
5000
-1.000000
4631
8
93.423
39.5074
#DATA
5000	65.136
4996	65.0313
4992	64.8153
4988	64.7925
4984	64.8387
4980	64.8399
4976	65.0895
4972	65.5199
4968	65.3248
4964	64.6616
4960	64.489
4956	64.8454
4952	65.2358
4948	65.3827
4944	65.2818
4940	65.1061
4936	64.8295
4932	64.5791
4928	64.8139
4924	65.3024
4920	65.2811
4916	64.9827
4912	64.8736
4908	64.954
4904	65.1307
4900	65.0563
4896	64.9654
4892	65.1222
4888	64.9515
4884	64.7155
4880	64.9629
4876	65.0096
4872	64.7679
4868	64.7721
4864	64.838
4860	64.6867
4856	64.7225
4852	65.2094
4848	65.478
4844	65.2661
4840	65.0372
4836	64.8851
4832	64.6478
4828	64.4896
4824	64.5126
4820	64.6316
4816	64.8143
4812	64.9162
4808	64.9241
4804	64.8782
4800	64.8559
4796	65.0569
4792	65.2698
4788	65.3511
4784	65.5024
4780	65.5803
4776	65.3912
4772	65.0854
4768	64.8705
4764	64.6517
4760	64.3011
4756	64.2285
4752	64.4653
4748	64.5834
4744	64.5955
4740	64.5064
4736	64.4187
4732	64.4895
4728	64.5065
4724	64.3805
4720	64.3029
4716	64.4387
4712	64.7104
4708	65.0208
4704	65.2685
4700	65.2545
4696	65.0207
4692	64.7739
4688	64.7065
4684	64.692
4680	64.4559
4676	64.1879
4672	64.12
4668	64.1814
4664	64.3375
4660	64.4682
4656	64.469
4652	64.4567
4648	64.5406
4644	64.6951
4640	64.7654
4636	64.7809
4632	64.834
4628	64.7213
4624	64.4288
4620	64.3338
4616	64.5183
4612	64.6968
4608	64.8448
4604	65.0133
4600	64.9137
4596	64.6624
4592	64.6972
4588	65.0121
4584	65.2684
4580	65.1659
4576	65.0265
4572	65.0738
4568	64.9241
4564	64.7465
4560	64.8833
4556	64.9076
4552	64.6665
4548	64.4933
4544	64.4929
4540	64.8176
4536	65.3047
4532	65.5973
4528	65.6141
4524	65.3037
4520	64.9365
4516	65.0554
4512	65.415
4508	65.5126
4504	65.4189
4500	65.2613
4496	65.1397
4492	65.0533
4488	65.0166
4484	65.2235
4480	65.6244
4476	65.683
4472	65.3452
4468	65.1277
4464	65.1623
4460	65.395
4456	65.6849
4452	65.6448
4448	65.4269
4444	65.5272
4440	65.677
4436	65.6537
4432	65.6331
4428	65.7879
4424	65.9874
4420	65.8278
4416	65.72
4412	65.8836
4408	65.8756
4404	65.8929
4400	65.6974
4396	65.4659
4392	65.7462
4388	65.5499
4384	64.7156
4380	65.276
4376	65.7798
4372	65.1434
4368	60.6465
4364	45.3824
4360	40.8295
4356	56.7045
4352	68.5016
4348	69.7169
4344	68.5806
4340	66.3597
4336	65.37
4332	65.4514
4328	65.4179
4324	65.6365
4320	66.1681
4316	66.4285
4312	66.0782
4308	65.6262
4304	65.4833
4300	65.6048
4296	65.7079
4292	65.6566
4288	65.7894
4284	66.0197
4280	65.9389
4276	65.8021
4272	65.7304
4268	65.5625
4264	65.586
4260	65.7357
4256	65.6237
4252	65.3911
4248	65.2591
4244	65.2724
4240	65.2173
4236	65.0362
4232	64.9926
4228	65.025
4224	65.0501
4220	65.0886
4216	65.0792
4212	64.9494
4208	64.9558
4204	65.2228
4200	65.3179
4196	65.1914
4192	65.3595
4188	65.6292
4184	65.5886
4180	65.6048
4176	65.61
4172	65.1671
4168	64.6067
4164	64.7413
4160	65.3612
4156	65.5049
4152	65.2775
4148	65.057
4144	64.8381
4140	64.7912
4136	64.8563
4132	64.7871
4128	64.6762
4124	64.7446
4120	64.8356
4116	64.8181
4112	64.9351
4108	65.1414
4104	65.138
4100	64.974
4096	64.8372
4092	64.7637
4088	64.8557
4084	64.9652
4080	64.9182
4076	64.8691
4072	64.8756
4068	64.91
4064	64.866
4060	64.7426
4056	64.7234
4052	64.9009
4048	65.1209
4044	65.1161
4040	64.9677
4036	64.8911
4032	64.8402
4028	64.8215
4024	64.9447
4020	65.1638
4016	65.2563
4012	65.1215
4008	65.0115
4004	65.1169
4000	65.1919
3996	65.0328
3992	64.8549
3988	64.7469
3984	64.6967
3980	64.8893
3976	65.1569
3972	65.2161
3968	65.1422
3964	65.0033
3960	64.9424
3956	64.9882
3952	65.0122
3948	65.002
3944	64.948
3940	64.9607
3936	65.0837
3932	65.1721
3928	65.0767
3924	64.8438
3920	64.779
3916	64.9609
3912	65.0523
3908	64.923
3904	64.7586
3900	64.77
3896	64.9565
3892	65.0437
3888	65.0498
3884	65.1062
3880	65.143
3876	65.2098
3872	65.3177
3868	65.2822
3864	65.1175
3860	65.0525
3856	65.0838
3852	65.1493
3848	65.2323
3844	65.2221
3840	65.0835
3836	64.8403
3832	64.728
3828	64.9088
3824	65.0951
3820	65.0842
3816	65.0314
3812	65.0524
3808	65.0658
3804	65.1164
3800	65.2512
3796	65.4263
3792	65.5267
3788	65.4124
3784	65.3141
3780	65.3516
3776	65.3441
3772	65.3029
3768	65.277
3764	65.2763
3760	65.2522
3756	65.1468
3752	65.086
3748	65.1448
3744	65.2674
3740	65.3345
3736	65.2618
3732	65.1666
3728	65.182
3724	65.2668
3720	65.2899
3716	65.2107
3712	65.1542
3708	65.1096
3704	65.0121
3700	64.9801
3696	65.0364
3692	65.1222
3688	65.2377
3684	65.3221
3680	65.2549
3676	65.1672
3672	65.1891
3668	65.1647
3664	65.0751
3660	65.0614
3656	65.1605
3652	65.1943
3648	65.0675
3644	65.0139
3640	65.1047
3636	65.1628
3632	65.1066
3628	64.9512
3624	64.8433
3620	64.8538
3616	64.863
3612	64.9132
3608	65.0454
3604	65.1163
3600	65.0732
3596	64.9881
3592	64.9176
3588	64.887
3584	64.9783
3580	65.2045
3576	65.34
3572	65.2609
3568	65.1216
3564	65.0872
3560	65.0603
3556	64.9751
3552	65.0313
3548	65.1601
3544	65.1273
3540	64.9574
3536	64.8545
3532	64.9127
3528	65.0455
3524	65.106
3520	65.097
3516	65.1423
3512	65.2205
3508	65.3005
3504	65.2893
3500	65.2251
3496	65.2445
3492	65.2556
3488	65.236
3484	65.2308
3480	65.1674
3476	65.0062
3472	65.0108
3468	65.2991
3464	65.4618
3460	65.3952
3456	65.3061
3452	65.1872
3448	65.0705
3444	65.0318
3440	65.0825
3436	65.1863
3432	65.1885
3428	65.1618
3424	65.2577
3420	65.2835
3416	65.192
3412	65.1628
3408	65.2372
3404	65.3492
3400	65.4365
3396	65.4085
3392	65.2582
3388	65.1306
3384	65.0711
3380	65.0648
3376	65.1078
3372	65.1539
3368	65.1649
3364	65.1603
3360	65.2151
3356	65.2601
3352	65.2513
3348	65.2471
3344	65.2272
3340	65.2552
3336	65.2832
3332	65.2667
3328	65.3043
3324	65.3549
3320	65.3872
3316	65.4107
3312	65.3559
3308	65.2379
3304	65.1743
3300	65.1719
3296	65.2163
3292	65.2632
3288	65.2444
3284	65.2562
3280	65.2827
3276	65.2429
3272	65.2663
3268	65.3018
3264	65.1785
3260	65.132
3256	65.2309
3252	65.211
3248	65.1535
3244	65.1186
3240	65.0412
3236	65.1355
3232	65.395
3228	65.4504
3224	65.2734
3220	65.2127
3216	65.3197
3212	65.3427
3208	65.2859
3204	65.2318
3200	65.1766
3196	65.1328
3192	65.0914
3188	65.0986
3184	65.1574
3180	65.2094
3176	65.2853
3172	65.4223
3168	65.4207
3164	65.1576
3160	65.0026
3156	65.1452
3152	65.2361
3148	65.1362
3144	64.9834
3140	64.8668
3136	64.8489
3132	64.8632
3128	64.8085
3124	64.7192
3120	64.691
3116	64.8305
3112	65.1085
3108	65.3508
3104	65.4036
3100	65.2374
3096	65.102
3092	65.1449
3088	65.2416
3084	65.2499
3080	65.1944
3076	65.2263
3072	65.275
3068	65.2508
3064	65.2082
3060	65.1922
3056	65.2624
3052	65.3424
3048	65.2949
3044	65.207
3040	65.1749
3036	65.149
3032	65.0827
3028	65.0704
3024	65.1575
3020	65.195
3016	65.1353
3012	65.074
3008	65.0541
3004	65.0529
3000	65.13
2996	65.2498
2992	65.2383
2988	65.1667
2984	65.1982
2980	65.2054
2976	65.1188
2972	65.1597
2968	65.2786
2964	65.2556
2960	65.1452
2956	65.0463
2952	65.0171
2948	65.0478
2944	65.064
2940	65.0148
2936	64.939
2932	64.9225
2928	64.9406
2924	64.9767
2920	64.9726
2916	64.9129
2912	64.976
2908	65.1272
2904	65.1651
2900	65.1384
2896	65.13
2892	65.1457
2888	65.1866
2884	65.1992
2880	65.1327
2876	65.02
2872	64.9916
2868	65.0802
2864	65.1526
2860	65.0772
2856	64.9155
2852	64.8148
2848	64.833
2844	64.8789
2840	64.9022
2836	64.9873
2832	65.0298
2828	64.9847
2824	64.9952
2820	65.0514
2816	65.0664
2812	65.0885
2808	65.2024
2804	65.3027
2800	65.2588
2796	65.2012
2792	65.2329
2788	65.2087
2784	65.1374
2780	65.1558
2776	65.2143
2772	65.2555
2768	65.2743
2764	65.2403
2760	65.1235
2756	65.0151
2752	65.0752
2748	65.1957
2744	65.2138
2740	65.1972
2736	65.2215
2732	65.2543
2728	65.2464
2724	65.2091
2720	65.1678
2716	65.161
2712	65.2284
2708	65.3079
2704	65.3162
2700	65.2749
2696	65.2059
2692	65.1103
2688	65.0704
2684	65.1143
2680	65.1609
2676	65.1436
2672	65.0953
2668	65.1133
2664	65.218
2660	65.3089
2656	65.3178
2652	65.3035
2648	65.2918
2644	65.2957
2640	65.3117
2636	65.2604
2632	65.1479
2628	65.1338
2624	65.283
2620	65.407
2616	65.3909
2612	65.3677
2608	65.3593
2604	65.2889
2600	65.2774
2596	65.3613
2592	65.3835
2588	65.2935
2584	65.2134
2580	65.2256
2576	65.2485
2572	65.26
2568	65.3187
2564	65.3677
2560	65.3413
2556	65.2901
2552	65.2639
2548	65.2353
2544	65.2318
2540	65.2371
2536	65.1922
2532	65.2009
2528	65.2605
2524	65.2555
2520	65.2968
2516	65.4592
2512	65.5298
2508	65.4317
2504	65.2972
2500	65.1286
2496	64.9801
2492	64.9982
2488	65.1972
2484	65.4001
2480	65.3996
2476	65.2766
2472	65.146
2468	65.0568
2464	65.0789
2460	65.1299
2456	65.1146
2452	65.1396
2448	65.2861
2444	65.3567
2440	65.255
2436	65.2482
2432	65.4798
2428	65.8013
2424	65.926
2420	65.5461
2416	64.9732
2412	64.8277
2408	65.0602
2404	65.2669
2400	65.3474
2396	65.3681
2392	65.3067
2388	65.2473
2384	65.2657
2380	65.2541
2376	65.2056
2372	65.2451
2368	65.3165
2364	65.3005
2360	65.2572
2356	65.1966
2352	65.1376
2348	65.1322
2344	65.1219
2340	65.1142
2336	65.1616
2332	65.2377
2328	65.2854
2324	65.2685
2320	65.1706
2316	65.0622
2312	65.0824
2308	65.2157
2304	65.3091
2300	65.3279
2296	65.3223
2292	65.2856
2288	65.2498
2284	65.2496
2280	65.2545
2276	65.2464
2272	65.2198
2268	65.2151
2264	65.2402
2260	65.2527
2256	65.2859
2252	65.3269
2248	65.301
2244	65.2248
2240	65.1741
2236	65.1758
2232	65.2143
2228	65.2339
2224	65.1861
2220	65.1815
2216	65.2563
2212	65.2618
2208	65.1661
2204	65.0901
2200	65.096
2196	65.1703
2192	65.2806
2188	65.3213
2184	65.2699
2180	65.2748
2176	65.3901
2172	65.4564
2168	65.4031
2164	65.3286
2160	65.2529
2156	65.1596
2152	65.1347
2148	65.1973
2144	65.2184
2140	65.2444
2136	65.3951
2132	65.5185
2128	65.4827
2124	65.3844
2120	65.3482
2116	65.3406
2112	65.2752
2108	65.2526
2104	65.3166
2100	65.2945
2096	65.1884
2092	65.2053
2088	65.2748
2084	65.2482
2080	65.3019
2076	65.3844
2072	65.2191
2068	64.9392
2064	64.829
2060	64.9248
2056	65.0526
2052	65.0555
2048	65.0421
2044	65.1239
2040	65.1685
2036	65.1896
2032	65.3024
2028	65.4019
2024	65.4091
2020	65.3234
2016	65.1986
2012	65.172
2008	65.2372
2004	65.3125
2000	65.3125
1996	65.2522
1992	65.2255
1988	65.1984
1984	65.1567
1980	65.1331
1976	65.1773
1972	65.2573
1968	65.2208
1964	65.1286
1960	65.1292
1956	65.2057
1952	65.2234
1948	65.1647
1944	65.1623
1940	65.2014
1936	65.2361
1932	65.3
1928	65.3243
1924	65.2894
1920	65.3086
1916	65.3584
1912	65.3445
1908	65.2373
1904	65.131
1900	65.1305
1896	65.1901
1892	65.2667
1888	65.2905
1884	65.272
1880	65.2835
1876	65.2297
1872	65.1272
1868	65.1227
1864	65.1633
1860	65.1643
1856	65.1594
1852	65.2221
1848	65.3292
1844	65.3343
1840	65.2831
1836	65.2853
1832	65.2881
1828	65.2604
1824	65.221
1820	65.2385
1816	65.284
1812	65.3095
1808	65.3676
1804	65.3502
1800	65.2234
1796	65.1476
1792	65.171
1788	65.2344
1784	65.2641
1780	65.2349
1776	65.1936
1772	65.1793
1768	65.1656
1764	65.0851
1760	65.0276
1756	65.0774
1752	65.0935
1748	65.0605
1744	65.032
1740	64.9839
1736	65.002
1732	65.0692
1728	65.0234
1724	64.8961
1720	64.8363
1716	64.9245
1712	65.0405
1708	65.0981
1704	65.1831
1700	65.2251
1696	65.1775
1692	65.1049
1688	65.0844
1684	65.1874
1680	65.2861
1676	65.261
1672	65.2162
1668	65.2469
1664	65.2509
1660	65.1715
1656	65.1589
1652	65.2038
1648	65.1702
1644	65.1059
1640	65.1033
1636	65.1329
1632	65.1667
1628	65.1907
1624	65.1706
1620	65.1105
1616	65.0174
1612	64.9944
1608	65.0941
1604	65.1822
1600	65.1628
1596	65.0549
1592	64.961
1588	65.0144
1584	65.1109
1580	65.1325
1576	65.1377
1572	65.1235
1568	65.0573
1564	64.9926
1560	65.0312
1556	65.137
1552	65.1534
1548	65.0962
1544	65.0417
1540	64.9734
1536	64.9672
1532	64.9881
1528	64.9275
1524	64.8574
1520	64.906
1516	65.0121
1512	65.0293
1508	65.0376
1504	65.086
1500	65.0643
1496	64.9936
1492	65.005
1488	65.0516
1484	65.0752
1480	65.1192
1476	65.1346
1472	65.1036
1468	65.1002
1464	65.1165
1460	64.9764
1456	64.691
1452	64.6214
1448	64.7486
1444	64.7997
1440	64.8939
1436	65.007
1432	65.0203
1428	65.0739
1424	65.1459
1420	65.1207
1416	65.0496
1412	64.992
1408	64.9808
1404	65.0537
1400	65.1262
1396	65.1144
1392	65.039
1388	64.9491
1384	64.8838
1380	64.8341
1376	64.8044
1372	64.7942
1368	64.8254
1364	64.8701
1360	64.9043
1356	64.9873
1352	65.0828
1348	65.1451
1344	65.1254
1340	65.0018
1336	64.8524
1332	64.8325
1328	64.9843
1324	65.0431
1320	64.94
1316	64.908
1312	64.9753
1308	64.9733
1304	64.9454
1300	64.9959
1296	65.0085
1292	64.977
1288	64.9883
1284	64.997
1280	65.0154
1276	65.054
1272	65.0102
1268	64.9486
1264	64.9626
1260	64.9374
1256	64.8361
1252	64.7905
1248	64.8588
1244	64.9695
1240	65.0171
1236	64.9535
1232	64.8603
1228	64.8346
1224	64.8337
1220	64.8356
1216	64.8545
1212	64.8605
1208	64.8366
1204	64.7585
1200	64.7511
1196	64.8429
1192	64.8436
1188	64.7641
1184	64.7353
1180	64.7665
1176	64.7955
1172	64.7967
1168	64.8453
1164	64.9194
1160	64.9093
1156	64.8799
1152	64.9392
1148	65.0343
1144	64.9289
1140	64.6591
1136	64.6122
1132	64.8095
1128	64.9908
1124	64.9443
1120	64.7706
1116	64.8073
1112	64.9999
1108	65.0715
1104	64.909
1100	64.7725
1096	64.8109
1092	64.8563
1088	64.9216
1084	64.9728
1080	64.9542
1076	64.8942
1072	64.7527
1068	64.6177
1064	64.6515
1060	64.696
1056	64.6779
1052	64.7627
1048	64.7229
1044	64.4523
1040	64.3589
1036	64.5209
1032	64.6201
1028	64.6042
1024	64.6327
1020	64.615
1016	64.5791
1012	64.7373
1008	64.8016
1004	64.6236
1000	64.571
996	 64.6184
992	 64.6871
988	 64.7468
984	 64.6454
980	 64.5779
976	 64.6197
972	 64.5822
968	 64.5343
964	 64.5566
960	 64.5077
956	 64.3679
952	 64.2856
948	 64.2949
944	 64.2749
940	 64.1908
936	 64.1127
932	 64.1565
928	 64.3273
924	 64.4628
920	 64.5211
916	 64.495
912	 64.3913
908	 64.4133
904	 64.4699
900	 64.3587
896	 64.2342
892	 64.157
888	 64.1742
884	 64.3209
880	 64.3965
876	 64.1922
872	 63.9048
868	 63.8392
864	 63.9094
860	 63.9647
856	 63.9811
852	 64.0867
848	 64.2287
844	 64.2003
840	 64.1511
836	 64.1358
832	 64.0346
828	 64.0099
824	 64.0787
820	 64.0617
816	 64.0175
812	 63.9657
808	 63.9012
804	 63.9254
800	 64.0211
796	 64.1114
792	 63.9943
788	 63.7358
784	 63.6785
780	 63.7412
776	 63.7632
772	 63.8238
768	 63.8527
764	 63.8486
760	 63.8881
756	 63.7712
752	 63.8382
748	 64.0081
744	 63.733
740	 63.5988
736	 63.8139
732	 63.8233
728	 63.5149
724	 63.1845
720	 63.1052
716	 63.2153
712	 63.3372
708	 63.5063
704	 63.735
700	 63.862
696	 63.7816
692	 63.3856
688	 62.8798
684	 62.6796
680	 62.7671
676	 62.9227
672	 62.9173
668	 62.8319
664	 62.9673
660	 63.2465
656	 63.3609
652	 63.1711
648	 62.7813
644	 62.4343
640	 62.2055
636	 62.0394
632	 62.3189
628	 62.8635
624	 62.9121
620	 62.7099
616	 62.7579
612	 62.7959
608	 62.7087
604	 62.6135
600	 62.2328
596	 61.8722
592	 61.9738
588	 62.0255
584	 61.8667
580	 61.549
576	 60.8921
572	 60.7337
568	 61.4511
564	 61.968
560	 61.8878
556	 61.8201
552	 61.85
548	 61.835
544	 61.9784
540	 62.1753
536	 61.9392
532	 61.4463
528	 61.5458
524	 61.7384
520	 60.9892
516	 60.2811
512	 60.2802
508	 60.1048
504	 59.9226
500	 59.9229
496	 59.5636
492	 59.2308
488	 59.256
484	 59.4866
480	 59.9509
476	 60.3315
472	 60.2833
468	 60.3429
464	 60.0102
460	 59.0553
456	 59.4853
452	 60.2694
448	 59.3786
444	 59.014
440	 59.5553
436	 58.5183
432	 56.3788
428	 55.1001
424	 55.0798
420	 56.0109
416	 56.0354
412	 56.0377
408	 55.2309
404	 50.9196
400	 53.084
396	 77.6824
392	 92.6419
388	 63.9682
384	 41.7
380	 47.1567
376	 46.5385
372	 48.5995
370	 67.7962