File: Bakgrunnsmateriale/MATLAB/FTIR/ftir_data/subBb/Mapping_121/C-4040-8_t58_cm-1.asc
PE IR       SPECTRUM    SPECTRUM    ASCII       PEDS        1.60
  -1
C-1C65~1.ASC
17/03/27
19:14:32.00
17/03/27
19:14:32.00
tln
$C-4040-8_t0058$<tbV0>[7.8,0.0,8.0,0.0,27,1,0]
370
64

2002,4.07
MIRTGS : RIGHTBACK : INTERNAL 2
MIR : ON : INTERNAL 2
OPTKBR

0.200000
8
8.000000
FILLER
RATIO
SPECTRUM
UNLOCKED 256

DOUBLE
64
COMBINED
1
0
0

1.000000
RATIO

1
0
TRUE
51149
0
LEFT NOT FITTED RIGHT NOT FITTED 0
NONE
NONE
15600
12
4.427000
51148
TRUE
1 0 8 72 0 0 0 0

15798

#HDR
-1
-1
#GR
CM-1
%T
2.38419e-05
0.0
5000
-1.000000
4631
8
73.5169
29.2659
#DATA
5000	65.1107
4996	65.0218
4992	65.0381
4988	65.4237
4984	65.491
4980	65.1303
4976	64.905
4972	64.9905
4968	64.9515
4964	64.6761
4960	64.8168
4956	65.1908
4952	65.1582
4948	65.0094
4944	65.2685
4940	65.6018
4936	65.42
4932	64.9649
4928	64.7952
4924	64.9711
4920	65.1354
4916	65.2307
4912	65.2888
4908	65.1891
4904	64.9467
4900	64.5547
4896	64.2575
4892	64.3056
4888	64.1095
4884	63.7805
4880	63.8459
4876	63.7028
4872	63.5783
4868	64.0488
4864	64.5593
4860	64.7544
4856	64.7718
4852	64.8077
4848	64.9886
4844	65.0474
4840	64.9116
4836	64.877
4832	64.8902
4828	64.8623
4824	64.9723
4820	65.0488
4816	65.0268
4812	64.9812
4808	64.8507
4804	64.8795
4800	64.951
4796	64.892
4792	64.8368
4788	64.8987
4784	65.1391
4780	65.3238
4776	65.2948
4772	65.1467
4768	65.0122
4764	64.9543
4760	64.8604
4756	64.8332
4752	64.9161
4748	64.8131
4744	64.6662
4740	64.692
4736	64.7043
4732	64.6437
4728	64.6064
4724	64.7779
4720	65.0885
4716	65.1777
4712	65.1499
4708	65.2621
4704	65.1994
4700	64.8092
4696	64.5543
4692	64.6514
4688	64.9173
4684	65.0967
4680	64.9206
4676	64.6894
4672	64.6674
4668	64.6115
4664	64.5655
4660	64.6506
4656	64.8499
4652	64.9233
4648	64.9466
4644	65.0753
4640	64.9269
4636	64.6039
4632	64.5476
4628	64.7465
4624	64.8983
4620	64.8307
4616	64.6842
4612	64.6144
4608	64.6744
4604	64.9388
4600	65.1616
4596	64.9566
4592	64.6801
4588	64.7459
4584	64.852
4580	64.7776
4576	64.6995
4572	64.6478
4568	64.4967
4564	64.3589
4560	64.2481
4556	64.1098
4552	64.168
4548	64.5095
4544	64.8593
4540	64.93
4536	64.8056
4532	64.7554
4528	64.8196
4524	65.0487
4520	65.4547
4516	65.7864
4512	65.8209
4508	65.5142
4504	64.9868
4500	64.7404
4496	64.9405
4492	65.0386
4488	64.9104
4484	64.7392
4480	64.8021
4476	65.1943
4472	65.3296
4468	65.1539
4464	65.3377
4460	65.7396
4456	65.8751
4452	65.7024
4448	65.3371
4444	65.2555
4440	65.2615
4436	65.1128
4432	65.2954
4428	65.6528
4424	65.6081
4420	65.2771
4416	65.2657
4412	65.485
4408	65.6029
4404	65.7939
4400	65.7946
4396	65.6555
4392	65.5018
4388	65.0708
4384	64.3365
4380	63.9486
4376	64.1858
4372	65.0676
4368	64.4895
4364	56.5165
4360	51.7384
4356	57.3586
4352	61.7883
4348	63.1922
4344	65.7994
4340	67.2726
4336	66.8549
4332	66.3788
4328	66.3364
4324	66.1074
4320	65.7641
4316	65.6443
4312	65.6054
4308	65.5693
4304	65.6568
4300	65.7842
4296	65.8135
4292	65.6541
4288	65.5906
4284	65.7342
4280	65.7001
4276	65.4994
4272	65.4075
4268	65.3512
4264	65.3306
4260	65.4459
4256	65.4229
4252	65.1219
4248	64.8905
4244	64.8665
4240	64.817
4236	64.7224
4232	64.8047
4228	64.9732
4224	65.0543
4220	65.1642
4216	65.1517
4212	64.9002
4208	64.7872
4204	64.8286
4200	64.8957
4196	64.9398
4192	65.0335
4188	65.1647
4184	64.8822
4180	64.5133
4176	64.6599
4172	65.1546
4168	65.5672
4164	65.5671
4160	65.4156
4156	65.297
4152	65.1303
4148	65.1012
4144	65.192
4140	65.3179
4136	65.322
4132	65.1426
4128	65.0556
4124	65.0572
4120	64.9486
4116	64.8485
4112	64.8988
4108	64.9595
4104	64.9975
4100	65.0456
4096	65.0269
4092	65.0182
4088	65.1534
4084	65.268
4080	65.2323
4076	65.1978
4072	65.1172
4068	64.8435
4064	64.6523
4060	64.8395
4056	65.1375
4052	65.3274
4048	65.3637
4044	65.2782
4040	65.2309
4036	65.1318
4032	64.9448
4028	64.8387
4024	64.9277
4020	65.205
4016	65.4242
4012	65.3055
4008	65.0412
4004	64.9417
4000	65.0305
3996	65.1536
3992	65.2005
3988	65.0862
3984	64.9194
3980	64.9983
3976	65.0496
3972	64.9802
3968	65.0577
3964	65.1057
3960	65.0507
3956	65.0241
3952	65.0959
3948	65.2203
3944	65.2649
3940	65.1798
3936	65.0547
3932	64.9487
3928	64.8223
3924	64.8085
3920	64.8843
3916	65.0008
3912	65.172
3908	65.1538
3904	65.0429
3900	65.0939
3896	65.1958
3892	65.2128
3888	65.2367
3884	65.2418
3880	65.0913
3876	65.004
3872	65.1271
3868	65.2576
3864	65.1464
3860	64.9078
3856	64.9292
3852	65.0732
3848	65.1342
3844	65.1808
3840	65.1631
3836	65.1343
3832	65.0671
3828	64.9435
3824	64.9257
3820	64.9497
3816	64.9817
3812	65.1754
3808	65.4154
3804	65.4539
3800	65.2914
3796	65.2066
3792	65.2702
3788	65.3277
3784	65.3336
3780	65.292
3776	65.2881
3772	65.2762
3768	65.1763
3764	65.146
3760	65.1985
3756	65.1527
3752	65.0999
3748	65.1143
3744	65.1082
3740	65.0674
3736	65.0529
3732	65.1871
3728	65.3012
3724	65.2735
3720	65.2583
3716	65.2276
3712	65.1566
3708	65.1076
3704	65.0326
3700	65.0247
3696	65.1829
3692	65.2877
3688	65.2657
3684	65.2377
3680	65.1849
3676	65.1288
3672	65.1711
3668	65.2701
3664	65.258
3660	65.1627
3656	65.1007
3652	65.0644
3648	65.0947
3644	65.1618
3640	65.1867
3636	65.2205
3632	65.2249
3628	65.1965
3624	65.2218
3620	65.257
3616	65.308
3612	65.333
3608	65.1736
3604	64.9631
3600	64.9477
3596	65.0156
3592	64.9757
3588	64.9152
3584	65.0351
3580	65.2925
3576	65.4395
3572	65.3619
3568	65.2226
3564	65.1509
3560	65.0448
3556	64.9793
3552	65.0969
3548	65.2519
3544	65.2727
3540	65.2105
3536	65.136
3532	65.0715
3528	65.1152
3524	65.2128
3520	65.2249
3516	65.2
3512	65.262
3508	65.3846
3504	65.4051
3500	65.3348
3496	65.2431
3492	65.1452
3488	65.0893
3484	65.072
3480	65.1676
3476	65.3419
3472	65.403
3468	65.3499
3464	65.2425
3460	65.2281
3456	65.3428
3452	65.361
3448	65.2747
3444	65.2258
3440	65.2511
3436	65.3375
3432	65.3669
3428	65.238
3424	65.125
3420	65.1508
3416	65.2124
3412	65.2255
3408	65.2226
3404	65.2391
3400	65.2845
3396	65.2985
3392	65.2023
3388	65.1759
3384	65.2313
3380	65.2372
3376	65.2113
3372	65.1423
3368	65.1439
3364	65.2491
3360	65.2635
3356	65.2075
3352	65.1675
3348	65.0886
3344	65.0744
3340	65.1924
3336	65.254
3332	65.2443
3328	65.3235
3324	65.3564
3320	65.2949
3316	65.243
3312	65.1226
3308	65.0555
3304	65.1974
3300	65.3461
3296	65.2805
3292	65.0679
3288	64.9511
3284	65.0092
3280	65.0779
3276	65.0441
3272	65.0369
3268	65.1022
3264	65.1159
3260	65.2125
3256	65.4089
3252	65.4862
3248	65.4088
3244	65.2257
3240	65.1314
3236	65.2528
3232	65.3954
3228	65.4021
3224	65.3133
3220	65.2551
3216	65.1753
3212	64.9752
3208	64.9262
3204	65.1175
3200	65.2537
3196	65.2507
3192	65.2363
3188	65.3003
3184	65.3674
3180	65.3408
3176	65.3421
3172	65.4257
3168	65.3996
3164	65.2325
3160	65.1659
3156	65.2159
3152	65.1654
3148	65.0134
3144	64.8372
3140	64.7931
3136	65.0885
3132	65.4479
3128	65.4515
3124	65.1944
3120	64.9662
3116	64.889
3112	64.9711
3108	65.1048
3104	65.1705
3100	65.1374
3096	65.1527
3092	65.3355
3088	65.4663
3084	65.3331
3080	65.1123
3076	65.0692
3072	65.1224
3068	65.1803
3064	65.2922
3060	65.3392
3056	65.3401
3052	65.3921
3048	65.3593
3044	65.199
3040	65.1115
3036	65.126
3032	65.0765
3028	65.023
3024	65.0524
3020	65.1053
3016	65.1558
3012	65.198
3008	65.1856
3004	65.1224
3000	65.1744
2996	65.2845
2992	65.2048
2988	65.047
2984	65.0414
2980	65.1446
2976	65.1632
2972	65.1175
2968	65.1715
2964	65.2364
2960	65.2261
2956	65.2267
2952	65.2503
2948	65.1982
2944	65.0379
2940	64.9447
2936	64.9857
2932	64.9958
2928	65.0039
2924	65.0499
2920	65.0126
2916	64.9878
2912	65.1145
2908	65.2489
2904	65.1765
2900	65.0075
2896	64.9549
2892	65.0193
2888	65.1172
2884	65.1819
2880	65.2096
2876	65.204
2872	65.1605
2868	65.1205
2864	65.0805
2860	65.0257
2856	64.9906
2852	64.9699
2848	64.9637
2844	64.9535
2840	64.9182
2836	64.9314
2832	65.0027
2828	65.0342
2824	65.0635
2820	65.1849
2816	65.2679
2812	65.2329
2808	65.2407
2804	65.2961
2800	65.2136
2796	65.0556
2792	64.9947
2788	65.0057
2784	65.0497
2780	65.121
2776	65.2186
2772	65.2997
2768	65.3481
2764	65.3784
2760	65.3198
2756	65.2377
2752	65.2
2748	65.1775
2744	65.2197
2740	65.2758
2736	65.2672
2732	65.245
2728	65.2722
2724	65.3227
2720	65.2354
2716	65.0915
2712	65.1315
2708	65.2581
2704	65.2988
2700	65.2665
2696	65.2135
2692	65.1663
2688	65.1702
2684	65.1902
2680	65.1995
2676	65.2588
2672	65.3106
2668	65.2809
2664	65.2245
2660	65.2122
2656	65.2096
2652	65.2084
2648	65.244
2644	65.297
2640	65.3918
2636	65.4328
2632	65.338
2628	65.2538
2624	65.233
2620	65.2294
2616	65.2771
2612	65.3824
2608	65.4284
2604	65.3625
2600	65.2734
2596	65.2386
2592	65.2528
2588	65.2799
2584	65.3135
2580	65.3188
2576	65.301
2572	65.2666
2568	65.216
2564	65.2031
2560	65.2699
2556	65.3932
2552	65.4607
2548	65.4057
2544	65.3045
2540	65.2614
2536	65.2597
2532	65.2275
2528	65.1843
2524	65.1867
2520	65.2658
2516	65.3217
2512	65.277
2508	65.2493
2504	65.17
2500	64.9962
2496	64.9611
2492	65.0397
2488	65.1349
2484	65.2503
2480	65.2605
2476	65.205
2472	65.2235
2468	65.2865
2464	65.2999
2460	65.3072
2456	65.3506
2452	65.3959
2448	65.4004
2444	65.3833
2440	65.4397
2436	65.6359
2432	65.866
2428	65.8216
2424	65.4873
2420	65.1391
2416	64.922
2412	64.8988
2408	65.0999
2404	65.3048
2400	65.2796
2396	65.2368
2392	65.3105
2388	65.3017
2384	65.2378
2380	65.2389
2376	65.2572
2372	65.3477
2368	65.4587
2364	65.4111
2360	65.2883
2356	65.2283
2352	65.247
2348	65.2576
2344	65.2448
2340	65.2668
2336	65.3038
2332	65.3481
2328	65.3876
2324	65.4056
2320	65.3632
2316	65.2585
2312	65.2422
2308	65.3927
2304	65.4982
2300	65.4412
2296	65.3704
2292	65.3349
2288	65.3099
2284	65.238
2280	65.1421
2276	65.1868
2272	65.2978
2268	65.3276
2264	65.2946
2260	65.2561
2256	65.3233
2252	65.4506
2248	65.4858
2244	65.4412
2240	65.3776
2236	65.3528
2232	65.403
2228	65.4324
2224	65.3473
2220	65.2968
2216	65.343
2212	65.3195
2208	65.2358
2204	65.2352
2200	65.3336
2196	65.4349
2192	65.4272
2188	65.3279
2184	65.2296
2180	65.1372
2176	65.0684
2172	65.0612
2168	65.0709
2164	65.1079
2160	65.249
2156	65.3554
2152	65.3064
2148	65.2478
2144	65.2867
2140	65.2929
2136	65.2322
2132	65.2517
2128	65.2785
2124	65.2662
2120	65.2851
2116	65.2977
2112	65.3173
2108	65.3645
2104	65.3807
2100	65.3471
2096	65.3155
2092	65.3225
2088	65.3561
2084	65.3588
2080	65.31
2076	65.3013
2072	65.3228
2068	65.215
2064	65.0439
2060	65.0399
2056	65.1728
2052	65.2512
2048	65.2536
2044	65.2221
2040	65.2047
2036	65.2755
2032	65.3805
2028	65.4382
2024	65.4032
2020	65.2979
2016	65.2413
2012	65.2782
2008	65.3023
2004	65.2815
2000	65.2658
1996	65.2541
1992	65.2613
1988	65.2781
1984	65.2766
1980	65.2643
1976	65.2814
1972	65.3172
1968	65.3001
1964	65.2904
1960	65.2983
1956	65.2824
1952	65.2702
1948	65.2631
1944	65.2356
1940	65.198
1936	65.2141
1932	65.2731
1928	65.3203
1924	65.3323
1920	65.3624
1916	65.3819
1912	65.3488
1908	65.3348
1904	65.3056
1900	65.2485
1896	65.2682
1892	65.3282
1888	65.3007
1884	65.2893
1880	65.358
1876	65.3338
1872	65.2179
1868	65.178
1864	65.2399
1860	65.286
1856	65.25
1852	65.1887
1848	65.1595
1844	65.1875
1840	65.2651
1836	65.3371
1832	65.3858
1828	65.3866
1824	65.3194
1820	65.2897
1816	65.2679
1812	65.2118
1808	65.2222
1804	65.2339
1800	65.1794
1796	65.1691
1792	65.2469
1788	65.2892
1784	65.2818
1780	65.2753
1776	65.2714
1772	65.3062
1768	65.3009
1764	65.2213
1760	65.2021
1756	65.2662
1752	65.2562
1748	65.1515
1744	65.0795
1740	65.0591
1736	65.0677
1732	65.0595
1728	64.9554
1724	64.8563
1720	64.8816
1716	64.99
1712	65.0738
1708	65.0716
1704	65.1042
1700	65.2196
1696	65.2601
1692	65.2143
1688	65.2435
1684	65.3153
1680	65.3332
1676	65.3429
1672	65.3483
1668	65.3397
1664	65.2795
1660	65.1521
1656	65.1218
1652	65.1844
1648	65.1556
1644	65.1183
1640	65.1298
1636	65.0827
1632	65.0279
1628	65.054
1624	65.1362
1620	65.1521
1616	65.0668
1612	65.0041
1608	65.0263
1604	65.0868
1600	65.1287
1596	65.1432
1592	65.1047
1588	65.0808
1584	65.0717
1580	65.0308
1576	65.0363
1572	65.0822
1568	65.0845
1564	65.0442
1560	65.046
1556	65.1183
1552	65.1802
1548	65.1209
1544	65.0613
1540	65.1092
1536	65.0907
1532	64.9868
1528	64.9181
1524	64.9254
1520	64.9951
1516	65.0711
1512	65.0744
1508	65.033
1504	65.0812
1500	65.1531
1496	65.1009
1492	65.0555
1488	65.0901
1484	65.0766
1480	65.0836
1476	65.1213
1472	65.1024
1468	65.0841
1464	65.0543
1460	64.8688
1456	64.6176
1452	64.5855
1448	64.7672
1444	64.9284
1440	64.9946
1436	65.0058
1432	64.9939
1428	64.9849
1424	64.9978
1420	65.0527
1416	65.1506
1412	65.2191
1408	65.1673
1404	65.0858
1400	65.1343
1396	65.203
1392	65.1418
1388	65.0764
1384	65.1095
1380	65.1127
1376	65.0479
1372	64.962
1368	64.8985
1364	64.9509
1360	65.0634
1356	65.1044
1352	65.0469
1348	64.9859
1344	64.9835
1340	65.0142
1336	65.0345
1332	65.0109
1328	65.0252
1324	65.0767
1320	65.0692
1316	65.0195
1312	64.9596
1308	64.9189
1304	64.9414
1300	64.9901
1296	65.0177
1292	64.9986
1288	64.9434
1284	64.9311
1280	64.9274
1276	64.8498
1272	64.7354
1268	64.7425
1264	64.9044
1260	64.9842
1256	64.8932
1252	64.8199
1248	64.8921
1244	65.0053
1240	65.0048
1236	64.9147
1232	64.8099
1228	64.7666
1224	64.7963
1220	64.8286
1216	64.8883
1212	64.9302
1208	64.9045
1204	64.855
1200	64.8143
1196	64.8019
1192	64.8242
1188	64.8023
1184	64.7025
1180	64.6724
1176	64.7138
1172	64.7729
1168	64.8862
1164	65.0059
1160	64.9725
1156	64.8032
1152	64.8688
1148	65.1323
1144	65.0754
1140	64.6043
1136	64.1352
1132	64.1465
1128	64.5499
1124	64.877
1120	64.9569
1116	64.791
1112	64.5749
1108	64.389
1104	64.3241
1100	64.5836
1096	64.8143
1092	64.92
1088	65.0946
1084	65.0864
1080	64.825
1076	64.6331
1072	64.7294
1068	64.8093
1064	64.7209
1060	64.7768
1056	64.8458
1052	64.6674
1048	64.3823
1044	64.2485
1040	64.3558
1036	64.3982
1032	64.2756
1028	64.2414
1024	64.2077
1020	64.1139
1016	64.193
1012	64.5342
1008	64.6997
1004	64.566
1000	64.601
996	 64.6577
992	 64.5891
988	 64.5508
984	 64.442
980	 64.3457
976	 64.3669
972	 64.339
968	 64.233
964	 64.2946
960	 64.4936
956	 64.5504
952	 64.4886
948	 64.449
944	 64.4157
940	 64.35
936	 64.3142
932	 64.4301
928	 64.5423
924	 64.4644
920	 64.3476
916	 64.3408
912	 64.3861
908	 64.4205
904	 64.4078
900	 64.3044
896	 64.2029
892	 64.1263
888	 64.1848
884	 64.3525
880	 64.3538
876	 64.2988
872	 64.3764
868	 64.4414
864	 64.3708
860	 64.2468
856	 64.1394
852	 64.1675
848	 64.265
844	 64.1834
840	 64.0793
836	 64.1044
832	 64.0849
828	 64.0291
824	 64.083
820	 64.165
816	 64.196
812	 64.1351
808	 63.9421
804	 63.7938
800	 63.7013
796	 63.6312
792	 63.6907
788	 63.765
784	 63.7634
780	 63.7053
776	 63.6611
772	 63.7411
768	 63.8205
764	 63.6102
760	 63.2045
756	 63.2076
752	 63.7995
748	 64.2096
744	 63.9361
740	 63.5257
736	 63.3385
732	 63.1723
728	 62.8777
724	 62.5456
720	 62.6944
716	 63.2674
712	 63.3872
708	 63.2209
704	 63.3776
700	 63.5852
696	 63.5407
692	 63.3435
688	 63.1629
684	 62.9254
680	 62.577
676	 62.3361
672	 62.2464
668	 62.2198
664	 62.3663
660	 62.7582
656	 63.0489
652	 62.9527
648	 62.6271
644	 62.3235
640	 62.2508
636	 62.2089
632	 62.0773
628	 62.0078
624	 61.9725
620	 61.962
616	 62.0919
612	 62.3354
608	 62.4928
604	 62.5054
600	 62.35
596	 62.0331
592	 61.7096
588	 61.4812
584	 61.2104
580	 60.9403
576	 60.8904
572	 60.9144
568	 60.8576
564	 60.9512
560	 61.0909
556	 61.0886
552	 61.1834
548	 61.3778
544	 61.5435
540	 61.5971
536	 61.4017
532	 61.0731
528	 60.9389
524	 60.7637
520	 60.1296
516	 59.824
512	 60.2121
508	 60.4428
504	 60.3893
500	 60.3794
496	 60.3483
492	 60.1364
488	 59.4589
484	 58.3468
480	 57.5497
476	 57.5508
472	 57.7635
468	 57.8085
464	 57.8613
460	 57.6575
456	 57.1923
452	 56.4198
448	 55.4026
444	 54.5865
440	 53.7413
436	 52.7072
432	 52.5254
428	 55.0273
424	 58.6749
420	 60.7521
416	 61.7235
412	 61.9788
408	 58.4723
404	 49.0198
400	 44.6235
396	 59.2059
392	 73.5169
388	 64.3086
384	 50.1365
380	 40.8037
376	 31.5459
372	 32.5368
370	 41.3785