File: Bakgrunnsmateriale/MATLAB/FTIR/ftir_data/subBb/Mapping_121/C-4040-8_t92_cm-1.asc
PE IR       SPECTRUM    SPECTRUM    ASCII       PEDS        1.60
  -1
C-1E64~1.ASC
17/03/27
22:05:15.00
17/03/27
22:05:15.00
tln
$C-4040-8_t0092$<tbV0>[5.2,7.8,8.0,0.0,27,1,0]
370
64

2002,4.07
MIRTGS : RIGHTBACK : INTERNAL 2
MIR : ON : INTERNAL 2
OPTKBR

0.200000
8
8.000000
FILLER
RATIO
SPECTRUM
UNLOCKED 256

DOUBLE
64
COMBINED
1
0
0

1.000000
RATIO

1
0
TRUE
51149
0
LEFT NOT FITTED RIGHT NOT FITTED 0
NONE
NONE
15600
12
4.427000
51148
TRUE
1 0 8 72 0 0 0 0

15798

#HDR
-1
-1
#GR
CM-1
%T
2.38419e-05
0.0
5000
-1.000000
4631
8
84.2395
10.7249
#DATA
5000	65.2253
4996	64.7658
4992	64.5334
4988	65.0061
4984	65.4788
4980	65.3835
4976	64.9428
4972	64.4108
4968	64.2209
4964	64.5961
4960	64.9116
4956	64.8717
4952	64.9192
4948	65.1896
4944	65.0665
4940	64.6573
4936	64.6485
4932	64.554
4928	64.2424
4924	64.4161
4920	64.8346
4916	65.0486
4912	65.0562
4908	64.8356
4904	64.6175
4900	64.5808
4896	64.5698
4892	64.6067
4888	64.9584
4884	65.1005
4880	64.8656
4876	65.0206
4872	65.2208
4868	65.1961
4864	65.2038
4860	65.0035
4856	64.8487
4852	65.1406
4848	65.3975
4844	65.2924
4840	65.0599
4836	64.8509
4832	64.8183
4828	64.9124
4824	65.0954
4820	65.3556
4816	65.4764
4812	65.4661
4808	65.5187
4804	65.5763
4800	65.5114
4796	65.3267
4792	65.0864
4788	65.0407
4784	65.1387
4780	65.1043
4776	64.9968
4772	64.9473
4768	65.0135
4764	65.1703
4760	65.2668
4756	65.2084
4752	65.1078
4748	65.0762
4744	65.0258
4740	64.9319
4736	65.0182
4732	65.3202
4728	65.5219
4724	65.5901
4720	65.5887
4716	65.5204
4712	65.5133
4708	65.3673
4704	65.1316
4700	65.1647
4696	65.2935
4692	65.2559
4688	65.1713
4684	65.2039
4680	65.1862
4676	65.0683
4672	65.1362
4668	65.2561
4664	65.2503
4660	65.3011
4656	65.5012
4652	65.6112
4648	65.5423
4644	65.57
4640	65.4905
4636	65.2122
4632	65.1085
4628	65.2704
4624	65.4958
4620	65.6841
4616	65.6242
4612	65.1332
4608	64.6939
4604	64.6822
4600	65.0422
4596	65.4927
4592	65.7124
4588	65.6453
4584	65.4442
4580	65.3708
4576	65.4727
4572	65.5577
4568	65.3812
4564	65.1593
4560	65.3822
4556	65.6457
4552	65.4755
4548	65.086
4544	64.6927
4540	64.2203
4536	63.7313
4532	64.0507
4528	64.9374
4524	65.4
4520	65.6553
4516	65.5499
4512	64.8951
4508	64.4427
4504	64.4906
4500	64.6384
4496	64.6788
4492	64.6786
4488	64.5778
4484	64.4776
4480	64.5678
4476	64.6454
4472	64.563
4468	64.3557
4464	64.0515
4460	63.832
4456	63.9092
4452	64.0517
4448	64.1032
4444	64.1822
4440	64.2474
4436	64.2396
4432	64.3065
4428	64.3276
4424	64.392
4420	64.6695
4416	65.0262
4412	65.8444
4408	66.5873
4404	66.1762
4400	64.8129
4396	64.6922
4392	66.6442
4388	76.2991
4384	84.2395
4380	74.9998
4376	65.6558
4372	64.2028
4368	64.1471
4364	63.6991
4360	64.0566
4356	64.6038
4352	64.6607
4348	64.7237
4344	65.0152
4340	64.8709
4336	64.5877
4332	64.6065
4328	64.838
4324	65.3312
4320	65.4776
4316	65.0535
4312	64.7137
4308	64.4428
4304	64.1383
4300	64.1535
4296	64.3022
4292	64.1787
4288	64.0734
4284	64.2447
4280	64.4675
4276	64.7047
4272	64.7765
4268	64.7819
4264	64.9713
4260	64.9883
4256	64.7637
4252	64.4353
4248	64.3231
4244	64.6151
4240	64.7906
4236	64.6603
4232	64.422
4228	64.2578
4224	64.4754
4220	64.8406
4216	64.8911
4212	64.7037
4208	64.6411
4204	64.7163
4200	64.5818
4196	64.5038
4192	64.373
4188	63.9325
4184	63.9056
4180	64.2764
4176	64.5791
4172	64.61
4168	64.4957
4164	64.6537
4160	64.9399
4156	65.1105
4152	65.0383
4148	64.9655
4144	65.0067
4140	65.0288
4136	65.1386
4132	65.1196
4128	65.0354
4124	65.1684
4120	65.293
4116	65.2796
4112	65.1548
4108	65.0255
4104	65.1329
4100	65.3801
4096	65.4773
4092	65.299
4088	65.0632
4084	65.0544
4080	65.1454
4076	65.1266
4072	65.0707
4068	65.0822
4064	65.0557
4060	65.0351
4056	65.1309
4052	65.1247
4048	64.9302
4044	64.9325
4040	65.1762
4036	65.2828
4032	65.3399
4028	65.5501
4024	65.766
4020	65.7187
4016	65.5131
4012	65.4394
4008	65.411
4004	65.2837
4000	65.0568
3996	64.9916
3992	65.1804
3988	65.3763
3984	65.5089
3980	65.3846
3976	65.0713
3972	65.0357
3968	65.1991
3964	65.217
3960	65.0848
3956	64.9694
3952	65.0091
3948	65.1655
3944	65.2606
3940	65.2027
3936	65.1189
3932	65.1902
3928	65.321
3924	65.2949
3920	65.2019
3916	65.2511
3912	65.3174
3908	65.2575
3904	65.1478
3900	65.0615
3896	65.0649
3892	65.0973
3888	65.0872
3884	65.099
3880	65.0715
3876	64.9782
3872	64.8783
3868	64.8461
3864	64.9729
3860	65.1525
3856	65.1916
3852	65.0867
3848	65.0343
3844	65.1492
3840	65.2279
3836	65.1164
3832	65.0079
3828	64.9659
3824	65.0096
3820	65.0757
3816	64.9816
3812	64.9503
3808	65.0724
3804	65.1629
3800	65.1593
3796	65.1489
3792	65.2147
3788	65.2459
3784	65.2005
3780	65.1193
3776	65.1099
3772	65.2632
3768	65.4151
3764	65.3638
3760	65.2807
3756	65.3563
3752	65.4412
3748	65.5278
3744	65.5293
3740	65.3369
3736	65.2289
3732	65.2285
3728	65.2436
3724	65.2953
3720	65.2657
3716	65.1429
3712	65.0331
3708	65.07
3704	65.2107
3700	65.2943
3696	65.3072
3692	65.274
3688	65.2242
3684	65.2243
3680	65.2644
3676	65.3148
3672	65.3914
3668	65.4095
3664	65.3177
3660	65.2476
3656	65.288
3652	65.3127
3648	65.2958
3644	65.396
3640	65.4686
3636	65.3362
3632	65.2296
3628	65.2384
3624	65.2562
3620	65.3539
3616	65.4478
3612	65.3448
3608	65.2195
3604	65.2621
3600	65.3123
3596	65.3135
3592	65.3844
3588	65.4243
3584	65.3723
3580	65.3996
3576	65.4111
3572	65.2876
3568	65.2389
3564	65.3918
3560	65.5249
3556	65.4384
3552	65.3467
3548	65.2795
3544	65.1605
3540	65.1534
3536	65.2315
3532	65.3007
3528	65.3166
3524	65.2836
3520	65.1542
3516	65.0233
3512	65.154
3508	65.3306
3504	65.2578
3500	65.1266
3496	65.1679
3492	65.2727
3488	65.2857
3484	65.2159
3480	65.0573
3476	65.0677
3472	65.4507
3468	65.6932
3464	65.484
3460	65.2472
3456	65.1039
3452	64.9878
3448	65.0028
3444	65.036
3440	65.0606
3436	65.08
3432	65.1018
3428	65.115
3424	65.0738
3420	65.0698
3416	65.1243
3412	65.2231
3408	65.2755
3404	65.2225
3400	65.1277
3396	65.0096
3392	64.9488
3388	65.0188
3384	65.1311
3380	65.1471
3376	65.0769
3372	65.0475
3368	65.0811
3364	65.1304
3360	65.1256
3356	65.1081
3352	65.206
3348	65.3011
3344	65.2503
3340	65.1868
3336	65.2747
3332	65.425
3328	65.4173
3324	65.2305
3320	65.0593
3316	65.0417
3312	65.0973
3308	65.1011
3304	65.103
3300	65.1352
3296	65.1305
3292	65.0507
3288	64.9694
3284	65.0391
3280	65.172
3276	65.2184
3272	65.2283
3268	65.2484
3264	65.3083
3260	65.3361
3256	65.258
3252	65.1924
3248	65.23
3244	65.3116
3240	65.2875
3236	65.1607
3232	65.1238
3228	65.1882
3224	65.2359
3220	65.3411
3216	65.4478
3212	65.3298
3208	65.1217
3204	64.9792
3200	64.842
3196	64.8418
3192	65.0318
3188	65.1444
3184	65.1232
3180	65.1227
3176	65.1665
3172	65.2649
3168	65.2802
3164	65.2361
3160	65.3378
3156	65.3804
3152	65.2617
3148	65.213
3144	65.3042
3140	65.337
3136	65.2741
3132	65.419
3128	65.683
3124	65.7036
3120	65.4907
3116	65.2642
3112	65.309
3108	65.5443
3104	65.5401
3100	65.3421
3096	65.3018
3092	65.3289
3088	65.2347
3084	65.1622
3080	65.2093
3076	65.3123
3072	65.3919
3068	65.3664
3064	65.2483
3060	65.2074
3056	65.2386
3052	65.2602
3048	65.3853
3044	65.4873
3040	65.4132
3036	65.3398
3032	65.3355
3028	65.2903
3024	65.1955
3020	65.1546
3016	65.2333
3012	65.3361
3008	65.3263
3004	65.2328
3000	65.168
2996	65.1773
2992	65.2661
2988	65.3335
2984	65.265
2980	65.2048
2976	65.1865
2972	65.1102
2968	65.1261
2964	65.2258
2960	65.2537
2956	65.2807
2952	65.3057
2948	65.2194
2944	65.1505
2940	65.1961
2936	65.2005
2932	65.0948
2928	64.9433
2924	64.8231
2920	64.8354
2916	64.9157
2912	64.9746
2908	65.0994
2904	65.1981
2900	65.0867
2896	64.9853
2892	65.0624
2888	65.1019
2884	65.0825
2880	65.1731
2876	65.3087
2872	65.3297
2868	65.2897
2864	65.335
2860	65.3149
2856	65.1206
2852	64.9329
2848	64.8569
2844	64.9651
2840	65.169
2836	65.2418
2832	65.1664
2828	65.1427
2824	65.1991
2820	65.2179
2816	65.2768
2812	65.3254
2808	65.2867
2804	65.2651
2800	65.2622
2796	65.2833
2792	65.3862
2788	65.4929
2784	65.4549
2780	65.3479
2776	65.3162
2772	65.285
2768	65.2183
2764	65.2009
2760	65.2438
2756	65.2811
2752	65.29
2748	65.2773
2744	65.2552
2740	65.2558
2736	65.2861
2732	65.34
2728	65.3811
2724	65.4185
2720	65.4541
2716	65.4135
2712	65.3419
2708	65.3396
2704	65.3324
2700	65.2785
2696	65.2881
2692	65.3408
2688	65.3398
2684	65.3169
2680	65.3214
2676	65.3152
2672	65.3205
2668	65.428
2664	65.5117
2660	65.4083
2656	65.2815
2652	65.2422
2648	65.2247
2644	65.2601
2640	65.28
2636	65.2341
2632	65.2475
2628	65.2816
2624	65.3161
2620	65.393
2616	65.3455
2612	65.2227
2608	65.1989
2604	65.1768
2600	65.14
2596	65.1914
2592	65.261
2588	65.2752
2584	65.2429
2580	65.1704
2576	65.1285
2572	65.1705
2568	65.2571
2564	65.3324
2560	65.3318
2556	65.3062
2552	65.3205
2548	65.3547
2544	65.3932
2540	65.3516
2536	65.267
2532	65.2326
2528	65.2048
2524	65.1999
2520	65.2423
2516	65.2978
2512	65.2623
2508	65.2178
2504	65.3667
2500	65.5907
2496	65.7048
2492	65.6412
2488	65.4848
2484	65.4289
2480	65.4984
2476	65.5098
2472	65.4413
2468	65.392
2464	65.3397
2460	65.298
2456	65.2763
2452	65.2646
2448	65.2358
2444	65.1838
2440	65.1675
2436	65.2019
2432	65.1915
2428	65.029
2424	64.9545
2420	65.2114
2416	65.5037
2412	65.406
2408	65.1451
2404	65.2284
2400	65.4279
2396	65.4027
2392	65.3566
2388	65.3695
2384	65.3336
2380	65.2829
2376	65.29
2372	65.3294
2368	65.3386
2364	65.3351
2360	65.3529
2356	65.3803
2352	65.3863
2348	65.3853
2344	65.3707
2340	65.3739
2336	65.4253
2332	65.4122
2328	65.3704
2324	65.3721
2320	65.3488
2316	65.34
2312	65.3451
2308	65.327
2304	65.3339
2300	65.3043
2296	65.2737
2292	65.3465
2288	65.4274
2284	65.451
2280	65.4405
2276	65.4133
2272	65.3893
2268	65.3723
2264	65.3901
2260	65.4423
2256	65.4658
2252	65.5022
2248	65.5631
2244	65.5182
2240	65.3947
2236	65.3377
2232	65.3457
2228	65.3552
2224	65.3536
2220	65.3138
2216	65.2399
2212	65.2264
2208	65.2927
2204	65.2669
2200	65.1552
2196	65.1966
2192	65.3295
2188	65.3408
2184	65.3294
2180	65.3647
2176	65.3114
2172	65.2478
2168	65.3422
2164	65.4644
2160	65.4358
2156	65.4778
2152	65.5683
2148	65.4277
2144	65.3147
2140	65.2931
2136	65.2329
2132	65.3054
2128	65.3769
2124	65.3401
2120	65.3657
2116	65.4687
2112	65.5311
2108	65.4374
2104	65.2947
2100	65.2554
2096	65.3092
2092	65.3581
2088	65.2647
2084	65.175
2080	65.2702
2076	65.5345
2072	65.803
2068	65.781
2064	65.59
2060	65.3591
2056	65.0568
2052	64.9998
2048	65.2448
2044	65.4644
2040	65.4672
2036	65.3757
2032	65.3692
2028	65.3688
2024	65.3178
2020	65.2945
2016	65.3178
2012	65.3695
2008	65.3781
2004	65.3553
2000	65.377
1996	65.3474
1992	65.3057
1988	65.3767
1984	65.4224
1980	65.3826
1976	65.3713
1972	65.3837
1968	65.3721
1964	65.3812
1960	65.408
1956	65.4145
1952	65.3843
1948	65.3496
1944	65.3752
1940	65.4006
1936	65.3857
1932	65.3622
1928	65.3376
1924	65.3283
1920	65.2985
1916	65.2377
1912	65.2386
1908	65.2724
1904	65.2802
1900	65.3065
1896	65.34
1892	65.3825
1888	65.3941
1884	65.3396
1880	65.2941
1876	65.2849
1872	65.2877
1868	65.2882
1864	65.3162
1860	65.3574
1856	65.4016
1852	65.4508
1848	65.4156
1844	65.3685
1840	65.4133
1836	65.4533
1832	65.4299
1828	65.4041
1824	65.3957
1820	65.3805
1816	65.3816
1812	65.3484
1808	65.2857
1804	65.302
1800	65.3365
1796	65.3024
1792	65.2854
1788	65.3071
1784	65.2972
1780	65.2964
1776	65.3409
1772	65.3866
1768	65.444
1764	65.5039
1760	65.4377
1756	65.271
1752	65.1986
1748	65.177
1744	65.1508
1740	65.1586
1736	65.1647
1732	65.195
1728	65.1659
1724	65.1361
1720	65.2309
1716	65.3105
1712	65.3296
1708	65.3015
1704	65.1976
1700	65.1764
1696	65.245
1692	65.2077
1688	65.1461
1684	65.1644
1680	65.1953
1676	65.1798
1672	65.1819
1668	65.2397
1664	65.227
1660	65.1869
1656	65.1988
1652	65.2068
1648	65.2087
1644	65.2309
1640	65.2698
1636	65.2665
1632	65.2013
1628	65.126
1624	65.1213
1620	65.2005
1616	65.2754
1612	65.2558
1608	65.1618
1604	65.087
1600	65.0636
1596	65.0721
1592	65.0918
1588	65.1013
1584	65.0939
1580	65.1152
1576	65.1499
1572	65.0862
1568	64.9656
1564	64.9308
1560	64.9874
1556	65.0595
1552	65.1625
1548	65.2474
1544	65.2236
1540	65.16
1536	65.1075
1532	65.0652
1528	65.0928
1524	65.1574
1520	65.1307
1516	65.0764
1512	65.0722
1508	65.0478
1504	65.0589
1500	65.1208
1496	65.1422
1492	65.143
1488	65.189
1484	65.2301
1480	65.1746
1476	65.1114
1472	65.1138
1468	65.1133
1464	65.1512
1460	65.19
1456	65.1691
1452	65.2654
1448	65.4114
1444	65.3866
1440	65.2558
1436	65.111
1432	65.0179
1428	65.09
1424	65.2086
1420	65.2249
1416	65.2452
1412	65.2569
1408	65.1915
1404	65.0944
1400	65.0565
1396	65.0936
1392	65.0752
1388	65.0572
1384	65.0793
1380	65.0171
1376	64.9753
1372	65.056
1368	65.0989
1364	65.02
1360	64.9931
1356	65.0779
1352	65.1517
1348	65.1657
1344	65.1142
1340	65.057
1336	64.9993
1332	64.9832
1328	65.0437
1324	65.0945
1320	65.11
1316	65.0129
1312	64.8528
1308	64.8259
1304	64.9482
1300	65.0911
1296	65.1341
1292	65.0256
1288	64.8813
1284	64.8919
1280	65.0079
1276	65.0958
1272	65.065
1268	64.9318
1264	64.9213
1260	64.9979
1256	65.0548
1252	65.1408
1248	65.193
1244	65.1886
1240	65.1115
1236	65.0171
1232	65.0005
1228	64.9962
1224	64.9807
1220	65.0484
1216	65.1649
1212	65.1682
1208	65.0674
1204	64.9881
1200	64.9719
1196	65.0494
1192	65.0673
1188	64.9815
1184	64.9571
1180	64.9801
1176	64.9842
1172	65.0203
1168	65.0188
1164	64.9544
1160	64.9998
1156	64.9976
1152	64.8233
1148	64.7482
1144	64.8715
1140	65.0058
1136	64.9741
1132	64.8954
1128	64.9545
1124	65.0068
1120	65.0064
1116	65.0622
1112	65.0588
1108	64.8377
1104	64.5139
1100	64.3989
1096	64.3971
1092	64.3724
1088	64.5578
1084	64.8896
1080	64.9801
1076	64.804
1072	64.7586
1068	64.8333
1064	64.7769
1060	64.7169
1056	64.7615
1052	64.9266
1048	65.0751
1044	65.0148
1040	64.8916
1036	64.7925
1032	64.7952
1028	64.9858
1024	65.075
1020	64.9215
1016	64.5949
1012	64.3346
1008	64.4213
1004	64.5461
1000	64.5481
996	 64.6137
992	 64.8017
988	 64.9006
984	 64.7015
980	 64.4788
976	 64.4071
972	 64.4414
968	 64.5962
964	 64.7592
960	 64.7605
956	 64.6711
952	 64.709
948	 64.7381
944	 64.6211
940	 64.5266
936	 64.4526
932	 64.3895
928	 64.5379
924	 64.8583
920	 65.2376
916	 65.4718
912	 65.1375
908	 64.5435
904	 64.2139
900	 64.1595
896	 64.3039
892	 64.3987
888	 64.4364
884	 64.4228
880	 64.3076
876	 64.238
872	 64.2011
868	 64.2347
864	 64.2883
860	 64.279
856	 64.3568
852	 64.4773
848	 64.4426
844	 64.4332
840	 64.4433
836	 64.3605
832	 64.4267
828	 64.5195
824	 64.3923
820	 64.2895
816	 64.5082
812	 64.6251
808	 64.353
804	 64.086
800	 63.9544
796	 63.971
792	 64.0062
788	 63.9184
784	 63.9099
780	 64.0028
776	 63.9967
772	 63.9589
768	 64.0906
764	 64.1653
760	 63.9505
756	 63.8147
752	 63.9938
748	 64.0232
744	 63.7582
740	 63.6689
736	 63.8407
732	 63.9465
728	 63.8922
724	 63.8171
720	 63.7947
716	 63.7063
712	 63.5986
708	 63.6324
704	 63.6978
700	 63.7146
696	 63.6835
692	 63.5542
688	 63.3385
684	 63.2422
680	 63.3322
676	 63.4045
672	 63.4175
668	 63.5276
664	 63.4916
660	 63.1663
656	 62.9775
652	 63.0493
648	 63.1277
644	 63.0597
640	 62.9971
636	 62.9412
632	 62.918
628	 63.074
624	 63.1564
620	 62.9303
616	 62.5869
612	 62.5761
608	 62.6868
604	 62.4778
600	 62.4095
596	 62.6027
592	 62.669
588	 62.4504
584	 62.1304
580	 61.9805
576	 62.0619
572	 62.5071
568	 62.7852
564	 62.4678
560	 62.0125
556	 61.8784
552	 61.8867
548	 61.8365
544	 61.8448
540	 61.6838
536	 61.3102
532	 61.0755
528	 61.3072
524	 61.3686
520	 61.0393
516	 61.0204
512	 61.1359
508	 61.4179
504	 61.7808
500	 61.6626
496	 61.0621
492	 60.7183
488	 61.0488
484	 60.963
480	 60.4673
476	 60.4657
472	 60.3498
468	 59.8718
464	 59.0841
460	 58.3948
456	 58.5545
452	 58.8255
448	 58.715
444	 59.044
440	 59.2199
436	 58.0604
432	 57.1365
428	 57.7142
424	 59.4129
420	 62.281
416	 63.1029
412	 59.6776
408	 55.6652
404	 58.7457
400	 61.6769
396	 46.4638
392	 38.5299
388	 46.6976
384	 46.9177
380	 42.9808
376	 70.1908
372	 39.7921
370	 10.7249