File: Bakgrunnsmateriale/MATLAB/FTIR/ftir_data/subBb/Mapping_121/C-4040-8_t110_cm-1.asc
PE IR       SPECTRUM    SPECTRUM    ASCII       PEDS        1.60
  -1
C-4509~1.ASC
17/03/27
23:28:56.00
17/03/27
23:28:56.00
tln
$C-4040-8_t0110$<tbV0>[-13.0,10.4,8.0,0.0,27,1,0]
370
64

2002,4.07
MIRTGS : RIGHTBACK : INTERNAL 2
MIR : ON : INTERNAL 2
OPTKBR

0.200000
8
8.000000
FILLER
RATIO
SPECTRUM
UNLOCKED 256

DOUBLE
64
COMBINED
1
0
0

1.000000
RATIO

1
0
TRUE
51149
0
LEFT NOT FITTED RIGHT NOT FITTED 0
NONE
NONE
15600
12
4.427000
51148
TRUE
1 0 8 72 0 0 0 0

15798

#HDR
-1
-1
#GR
CM-1
%T
2.38419e-05
0.0
5000
-1.000000
4631
8
189.675
46.227
#DATA
5000	65.4393
4996	65.6032
4992	65.2755
4988	65.1089
4984	65.1695
4980	64.9648
4976	64.4969
4972	63.9559
4968	63.9886
4964	64.5951
4960	65.0726
4956	65.3296
4952	65.409
4948	65.2054
4944	64.9152
4940	64.8256
4936	64.775
4932	64.5533
4928	64.3485
4924	64.5549
4920	65.0338
4916	65.3816
4912	65.4892
4908	65.2558
4904	64.8946
4900	64.7183
4896	64.7195
4892	64.6941
4888	64.7118
4884	65.1658
4880	65.7268
4876	65.6667
4872	65.3081
4868	65.4399
4864	65.6561
4860	65.3019
4856	64.9767
4852	64.9745
4848	64.9139
4844	64.8977
4840	64.8381
4836	64.6441
4832	64.5851
4828	64.5754
4824	64.5433
4820	64.6191
4816	64.7773
4812	64.8708
4808	64.78
4804	64.7461
4800	64.8581
4796	64.9485
4792	65.1329
4788	65.2968
4784	65.1313
4780	64.7895
4776	64.6698
4772	64.7658
4768	64.9161
4764	65.1373
4760	65.2922
4756	65.1438
4752	64.8545
4748	64.7512
4744	64.6554
4740	64.5754
4736	64.8375
4732	64.9444
4728	64.6882
4724	64.8132
4720	65.0024
4716	64.8615
4712	65.0106
4708	65.2361
4704	65.0976
4700	64.9451
4696	64.9601
4692	65.0194
4688	65.0254
4684	64.9581
4680	64.897
4676	65.0476
4672	65.3358
4668	65.2949
4664	64.9572
4660	64.7427
4656	64.9355
4652	65.275
4648	65.279
4644	65.0492
4640	64.9369
4636	65.1068
4632	65.2592
4628	65.1515
4624	64.9856
4620	64.9569
4616	64.9677
4612	64.7725
4608	64.6582
4604	64.8823
4600	65.0946
4596	65.2609
4592	65.4035
4588	65.309
4584	65.3382
4580	65.5793
4576	65.4579
4572	65.1021
4568	64.9096
4564	64.8965
4560	65.0455
4556	65.1146
4552	64.9426
4548	64.6151
4544	64.3821
4540	64.2168
4536	63.8638
4532	63.5988
4528	63.9081
4524	64.7133
4520	64.9953
4516	64.6876
4512	64.6271
4508	64.567
4504	64.3499
4500	64.3783
4496	64.5126
4492	64.627
4488	64.9231
4484	65.133
4480	65.0436
4476	64.8639
4472	64.7359
4468	64.7349
4464	64.7017
4460	64.5271
4456	64.4701
4452	64.6886
4448	65.0324
4444	65.2195
4440	64.983
4436	64.7897
4432	64.9265
4428	64.8106
4424	64.4512
4420	63.9293
4416	63.2039
4412	62.876
4408	62.5173
4404	61.7588
4400	61.8259
4396	62.0156
4392	64.5834
4388	83.7188
4384	94.6012
4380	76.5736
4376	65.5556
4372	65.2328
4368	65.7435
4364	65.4136
4360	64.8376
4356	64.1467
4352	64.0019
4348	64.3794
4344	64.4464
4340	64.3636
4336	64.5675
4332	64.6364
4328	64.7085
4324	65.1533
4320	65.2241
4316	64.8209
4312	64.5681
4308	64.4218
4304	64.4027
4300	64.4814
4296	64.434
4292	64.4306
4288	64.5821
4284	64.7616
4280	64.8383
4276	64.851
4272	64.8129
4268	64.9045
4264	65.092
4260	64.9773
4256	64.8493
4252	64.8526
4248	64.8547
4244	64.8856
4240	64.6962
4236	64.552
4232	64.6893
4228	64.652
4224	64.5106
4220	64.5652
4216	64.6915
4212	64.7445
4208	64.7549
4204	64.8694
4200	64.8123
4196	64.3532
4192	64.0315
4188	64.399
4184	64.9577
4180	64.9986
4176	64.8721
4172	64.948
4168	64.9708
4164	64.9092
4160	64.8118
4156	64.783
4152	64.8762
4148	64.9259
4144	64.846
4140	64.6986
4136	64.7422
4132	64.844
4128	64.8032
4124	64.8713
4120	65.0651
4116	65.1062
4112	65.0246
4108	65.0601
4104	65.1793
4100	65.2913
4096	65.2129
4092	64.8664
4088	64.7516
4084	64.906
4080	64.8401
4076	64.6453
4072	64.6839
4068	64.8691
4064	64.984
4060	65.121
4056	65.1777
4052	65.0535
4048	64.8376
4044	64.7007
4040	64.8112
4036	64.9422
4032	65.0218
4028	65.1667
4024	65.2417
4020	65.1921
4016	65.135
4012	65.1126
4008	65.0953
4004	65.0623
4000	65.0394
3996	65.0616
3992	65.1419
3988	65.3079
3984	65.4148
3980	65.3025
3976	65.1495
3972	65.1811
3968	65.2926
3964	65.2812
3960	65.1054
3956	64.9493
3952	64.9714
3948	65.0187
3944	65.0129
3940	64.9569
3936	64.8504
3932	64.7695
3928	64.7877
3924	64.9296
3920	64.9655
3916	64.9508
3912	65.0748
3908	65.1329
3904	65.0156
3900	64.8515
3896	64.8417
3892	64.9526
3888	65.0104
3884	65.0181
3880	64.9587
3876	64.86
3872	64.8448
3868	64.9586
3864	65.1556
3860	65.3342
3856	65.318
3852	65.1215
3848	65.0038
3844	64.948
3840	64.8714
3836	64.9446
3832	65.0238
3828	64.8728
3824	64.8888
3820	65.0989
3816	64.9829
3812	64.8158
3808	64.8568
3804	64.8778
3800	64.9833
3796	65.1805
3792	65.3136
3788	65.3069
3784	65.0961
3780	64.939
3776	65.1081
3772	65.3609
3768	65.3816
3764	65.24
3760	65.193
3756	65.2343
3752	65.1944
3748	65.1673
3744	65.1736
3740	65.1595
3736	65.1662
3732	65.1626
3728	65.1832
3724	65.1584
3720	64.9768
3716	64.8392
3712	64.8861
3708	65.0485
3704	65.2156
3700	65.2684
3696	65.258
3692	65.2134
3688	65.1694
3684	65.0936
3680	64.8894
3676	64.7959
3672	64.9521
3668	65.1541
3664	65.2283
3660	65.1408
3656	65.052
3652	65.0015
3648	64.9213
3644	64.9405
3640	64.9921
3636	64.9737
3632	65.0297
3628	65.2247
3624	65.4331
3620	65.4606
3616	65.2943
3612	65.0926
3608	64.9524
3604	64.9962
3600	65.1485
3596	65.1771
3592	65.1945
3588	65.2021
3584	65.1621
3580	65.2287
3576	65.3048
3572	65.3599
3568	65.3594
3564	65.2267
3560	65.0643
3556	64.9472
3552	64.9986
3548	65.0794
3544	65.0135
3540	65.0481
3536	65.1798
3532	65.1946
3528	65.1662
3524	65.152
3520	65.1753
3516	65.3066
3512	65.4485
3508	65.4614
3504	65.3195
3500	65.157
3496	65.1215
3492	65.1286
3488	65.0637
3484	64.8769
3480	64.7076
3476	64.754
3472	64.8642
3468	64.9582
3464	65.08
3460	65.1183
3456	65.0221
3452	64.8704
3448	64.8203
3444	64.8991
3440	64.9873
3436	65.0469
3432	65.1359
3428	65.1451
3424	64.9838
3420	64.8927
3416	65.0012
3412	65.1731
3408	65.2863
3404	65.2295
3400	65.1135
3396	65.0676
3392	65.0128
3388	64.9628
3384	64.8927
3380	64.8541
3376	64.8937
3372	64.8998
3368	64.9395
3364	65.0379
3360	65.0327
3356	64.9789
3352	65.07
3348	65.2482
3344	65.2827
3340	65.0964
3336	64.9305
3332	64.9583
3328	65.0245
3324	65.0166
3320	64.9491
3316	64.8947
3312	64.9731
3308	65.0541
3304	65.0175
3300	64.9703
3296	65.0067
3292	65.11
3288	65.1605
3284	65.1565
3280	65.1492
3276	65.1441
3272	65.1573
3268	65.1786
3264	65.1637
3260	65.1325
3256	65.1154
3252	65.0962
3248	65.1131
3244	65.1596
3240	65.1057
3236	64.9899
3232	65.0473
3228	65.2067
3224	65.2688
3220	65.2739
3216	65.2701
3212	65.2382
3208	65.1124
3204	64.9486
3200	64.8852
3196	64.8725
3192	64.9132
3188	65.0045
3184	65.0359
3180	65.0218
3176	65.007
3172	65.0509
3168	65.1503
3164	65.146
3160	65.0696
3156	65.047
3152	65.0192
3148	64.9619
3144	65.0379
3140	65.116
3136	64.9795
3132	64.9621
3128	65.0365
3124	64.9799
3120	64.993
3116	64.9924
3112	64.9886
3108	65.2302
3104	65.4041
3100	65.2457
3096	65.0848
3092	65.067
3088	65.0807
3084	65.0663
3080	65.0119
3076	64.9886
3072	65.0515
3068	65.1395
3064	65.1364
3060	65.0587
3056	65.0099
3052	65.0201
3048	65.0751
3044	65.1339
3040	65.1796
3036	65.2041
3032	65.1853
3028	65.1098
3024	65.0119
3020	65.0057
3016	65.0656
3012	65.1167
3008	65.2048
3004	65.3021
3000	65.3395
2996	65.2859
2992	65.1783
2988	65.0633
2984	64.9721
2980	64.9316
2976	64.8991
2972	64.9073
2968	64.9848
2964	65.0467
2960	65.0162
2956	64.9394
2952	64.9132
2948	64.911
2944	64.9441
2940	65.0699
2936	65.1381
2932	65.0025
2928	64.7699
2924	64.6363
2920	64.6646
2916	64.756
2912	64.8103
2908	64.8381
2904	64.8563
2900	64.8122
2896	64.7799
2892	64.8545
2888	64.9688
2884	65.0205
2880	64.9887
2876	64.9115
2872	64.8083
2868	64.7535
2864	64.9313
2860	65.1747
2856	65.0681
2852	64.8148
2848	64.7179
2844	64.7374
2840	64.9052
2836	65.142
2832	65.2287
2828	65.1364
2824	65.0785
2820	65.1003
2816	65.0751
2812	65.0744
2808	65.0985
2804	65.069
2800	65.0774
2796	65.1671
2792	65.2528
2788	65.2374
2784	65.1781
2780	65.1987
2776	65.2324
2772	65.2249
2768	65.2213
2764	65.2254
2760	65.2473
2756	65.2364
2752	65.1845
2748	65.1615
2744	65.1529
2740	65.1715
2736	65.2426
2732	65.2674
2728	65.2353
2724	65.2351
2720	65.2285
2716	65.1841
2712	65.1518
2708	65.1537
2704	65.1716
2700	65.2144
2696	65.2426
2692	65.2104
2688	65.2107
2684	65.2344
2680	65.1789
2676	65.1018
2672	65.1644
2668	65.3396
2664	65.4012
2660	65.3095
2656	65.2243
2652	65.2386
2648	65.2992
2644	65.2453
2640	65.0556
2636	64.9844
2632	65.1151
2628	65.2433
2624	65.2845
2620	65.258
2616	65.1711
2612	65.0802
2608	65.0903
2604	65.1508
2600	65.1154
2596	65.0962
2592	65.1779
2588	65.2283
2584	65.2196
2580	65.1994
2576	65.1923
2572	65.1813
2568	65.1392
2564	65.1353
2560	65.1347
2556	65.1092
2552	65.1513
2548	65.268
2544	65.326
2540	65.2539
2536	65.2167
2532	65.2554
2528	65.1932
2524	65.0562
2520	65.0697
2516	65.2727
2512	65.4376
2508	65.4239
2504	65.3567
2500	65.3841
2496	65.4067
2492	65.3627
2488	65.3691
2484	65.3538
2480	65.3338
2476	65.4125
2472	65.4559
2468	65.38
2464	65.2975
2460	65.2899
2456	65.2721
2452	65.1926
2448	65.0864
2444	65.0189
2440	65.0553
2436	65.0191
2432	64.7917
2428	64.6403
2424	64.7295
2420	65.0008
2416	65.2114
2412	65.1242
2408	65.006
2404	65.0658
2400	65.1991
2396	65.2843
2392	65.2907
2388	65.2571
2384	65.2267
2380	65.332
2376	65.4245
2372	65.3118
2368	65.1909
2364	65.1757
2360	65.1718
2356	65.1297
2352	65.0355
2348	64.9729
2344	65.0014
2340	65.0776
2336	65.173
2332	65.2049
2328	65.1693
2324	65.164
2320	65.1932
2316	65.2347
2312	65.274
2308	65.2866
2304	65.2925
2300	65.2977
2296	65.3009
2292	65.2861
2288	65.2376
2284	65.2216
2280	65.276
2276	65.32
2272	65.2421
2268	65.1139
2264	65.0958
2260	65.1407
2256	65.1261
2252	65.1389
2248	65.2229
2244	65.2527
2240	65.2205
2236	65.1928
2232	65.2102
2228	65.2561
2224	65.2755
2220	65.2335
2216	65.137
2212	65.0766
2208	65.146
2204	65.2498
2200	65.2632
2196	65.2449
2192	65.2309
2188	65.2198
2184	65.2614
2180	65.3035
2176	65.2802
2172	65.257
2168	65.2966
2164	65.3656
2160	65.3026
2156	65.2148
2152	65.2628
2148	65.1232
2144	64.8351
2140	64.7833
2136	64.9387
2132	65.1063
2128	65.1774
2124	65.2018
2120	65.294
2116	65.356
2112	65.3607
2108	65.347
2104	65.234
2100	65.1617
2096	65.2108
2092	65.1957
2088	65.1176
2084	65.131
2080	65.1381
2076	65.2208
2072	65.5596
2068	65.7256
2064	65.4992
2060	65.1982
2056	64.9566
2052	64.8733
2048	65.0586
2044	65.2772
2040	65.2948
2036	65.2194
2032	65.2261
2028	65.2761
2024	65.2692
2020	65.2638
2016	65.2929
2012	65.3229
2008	65.3283
2004	65.2867
2000	65.2466
1996	65.2421
1992	65.2347
1988	65.2497
1984	65.2868
1980	65.278
1976	65.2763
1972	65.341
1968	65.3749
1964	65.3122
1960	65.2179
1956	65.1492
1952	65.1285
1948	65.1555
1944	65.2038
1940	65.2532
1936	65.2679
1932	65.267
1928	65.284
1924	65.2781
1920	65.2714
1916	65.2362
1912	65.1709
1908	65.219
1904	65.3317
1900	65.3735
1896	65.3507
1892	65.2834
1888	65.2095
1884	65.1536
1880	65.0959
1876	65.0717
1872	65.1161
1868	65.1595
1864	65.1603
1860	65.1358
1856	65.0918
1852	65.0888
1848	65.1796
1844	65.3291
1840	65.3783
1836	65.3084
1832	65.3059
1828	65.338
1824	65.3258
1820	65.3469
1816	65.363
1812	65.3096
1808	65.2443
1804	65.2257
1800	65.2143
1796	65.1689
1792	65.153
1788	65.1782
1784	65.1834
1780	65.1864
1776	65.2272
1772	65.2672
1768	65.258
1764	65.235
1760	65.2348
1756	65.2251
1752	65.1716
1748	65.0932
1744	65.0754
1740	65.0881
1736	64.9607
1732	64.8541
1728	65.0059
1724	65.1246
1720	65.012
1716	64.9551
1712	65.0546
1708	65.1642
1704	65.2473
1700	65.2712
1696	65.256
1692	65.2287
1688	65.1943
1684	65.1953
1680	65.1964
1676	65.1714
1672	65.1147
1668	65.0825
1664	65.1443
1660	65.1654
1656	65.0538
1652	64.9687
1648	65.0116
1644	65.1663
1640	65.3261
1636	65.2946
1632	65.1216
1628	65.0156
1624	65.067
1620	65.1524
1616	65.1073
1612	65.0401
1608	65.0411
1604	65.018
1600	65.0242
1596	65.0944
1592	65.1131
1588	65.0566
1584	65.0506
1580	65.0727
1576	64.957
1572	64.8531
1568	64.9031
1564	64.9492
1560	65.0001
1556	65.0783
1552	65.0768
1548	65.0328
1544	65.0165
1540	65.0465
1536	65.1145
1532	65.1325
1528	65.0816
1524	65.0599
1520	65.0587
1516	64.9918
1512	64.9439
1508	65.0025
1504	65.0983
1500	65.217
1496	65.3161
1492	65.2439
1488	65.079
1484	65.0145
1480	65.0262
1476	65.0364
1472	65.0476
1468	65.0714
1464	65.0725
1460	65.0196
1456	64.9682
1452	64.9819
1448	65.0576
1444	65.1116
1440	65.0839
1436	65.0594
1432	65.0151
1428	64.9536
1424	64.9973
1420	65.0661
1416	65.0731
1412	65.0668
1408	65.0969
1404	65.0944
1400	65.0466
1396	65.012
1392	64.9587
1388	64.9249
1384	64.934
1380	64.9145
1376	64.8726
1372	64.88
1368	64.9361
1364	64.9779
1360	64.9663
1356	64.9757
1352	65.0684
1348	65.136
1344	65.0543
1340	64.9045
1336	64.8153
1332	64.8063
1328	64.8319
1324	64.8359
1320	64.8149
1316	64.7449
1312	64.6459
1308	64.6258
1304	64.6955
1300	64.7452
1296	64.7738
1292	64.8557
1288	64.8847
1284	64.8099
1280	64.7622
1276	64.7713
1272	64.7555
1268	64.7132
1264	64.7564
1260	64.8761
1256	64.9881
1252	65.0232
1248	64.9661
1244	64.931
1240	64.887
1236	64.8006
1232	64.7988
1228	64.837
1224	64.8352
1220	64.8642
1216	64.901
1212	64.8518
1208	64.7581
1204	64.7202
1200	64.7652
1196	64.8149
1192	64.7933
1188	64.79
1184	64.8096
1180	64.7999
1176	64.7812
1172	64.8333
1168	64.9672
1164	65.0087
1160	64.9466
1156	64.8562
1152	64.7381
1148	64.6634
1144	64.6088
1140	64.5806
1136	64.6602
1132	64.7463
1128	64.7197
1124	64.6728
1120	64.7087
1116	64.7678
1112	64.8344
1108	64.8411
1104	64.7609
1100	64.6518
1096	64.5998
1092	64.6956
1088	64.6826
1084	64.6487
1080	64.8035
1076	64.8746
1072	64.7738
1068	64.6382
1064	64.5997
1060	64.571
1056	64.4883
1052	64.562
1048	64.6703
1044	64.5494
1040	64.422
1036	64.507
1032	64.7488
1028	64.9792
1024	64.9709
1020	64.734
1016	64.4952
1012	64.4152
1008	64.448
1004	64.3675
1000	64.2425
996	 64.3865
992	 64.7151
988	 64.8328
984	 64.666
980	 64.4734
976	 64.397
972	 64.4544
968	 64.5372
964	 64.4327
960	 64.3154
956	 64.4464
952	 64.5779
948	 64.5076
944	 64.4445
940	 64.4864
936	 64.5101
932	 64.5804
928	 64.7852
924	 65.0007
920	 65.059
916	 64.7854
912	 64.4995
908	 64.5133
904	 64.3946
900	 64.1929
896	 64.3843
892	 64.6645
888	 64.5384
884	 64.2016
880	 64.1217
876	 64.4092
872	 64.7379
868	 64.7521
864	 64.7081
860	 64.9771
856	 65.1478
852	 64.7514
848	 64.1071
844	 63.8141
840	 63.9346
836	 64.282
832	 64.7604
828	 64.8352
824	 64.1889
820	 63.602
816	 63.6327
812	 63.7371
808	 63.7456
804	 63.8419
800	 63.9746
796	 64.1567
792	 64.1438
788	 63.9028
784	 63.7699
780	 63.7011
776	 63.6561
772	 63.7555
768	 63.8511
764	 63.8943
760	 63.9495
756	 63.9265
752	 63.7546
748	 63.4986
744	 63.0153
740	 62.5794
736	 62.6965
732	 63.0757
728	 63.2956
724	 63.3169
720	 63.338
716	 63.1707
712	 62.8055
708	 62.814
704	 63.0714
700	 63.0725
696	 63.011
692	 63.0614
688	 63.184
684	 63.4001
680	 63.4397
676	 63.1832
672	 62.9412
668	 63.053
664	 63.1118
660	 62.7345
656	 62.4961
652	 62.7055
648	 62.8352
644	 62.5438
640	 62.4097
636	 62.6737
632	 62.7803
628	 62.7326
624	 62.798
620	 62.7581
616	 62.4908
612	 62.2684
608	 62.1495
604	 62.2579
600	 62.4717
596	 62.3022
592	 61.9983
588	 61.7741
584	 61.7841
580	 62.0989
576	 61.975
572	 61.4172
568	 61.2727
564	 61.4593
560	 61.5003
556	 61.5747
552	 61.7584
548	 61.7295
544	 61.3403
540	 60.9684
536	 61.0343
532	 61.118
528	 60.6293
524	 59.9864
520	 60.1758
516	 60.9599
512	 61.2977
508	 61.1816
504	 60.888
500	 60.7767
496	 60.5128
492	 59.3016
488	 58.5778
484	 59.049
480	 59.0541
476	 58.7528
472	 59.2031
468	 59.374
464	 58.6323
460	 57.8753
456	 57.8206
452	 58.4256
448	 58.9152
444	 59.1039
440	 59.2587
436	 58.4248
432	 56.0083
428	 55.1172
424	 57.5796
420	 59.6064
416	 58.0227
412	 53.5402
408	 49.1419
404	 46.5579
400	 46.5565
396	 47.8357
392	 52.3476
388	 61.8959
384	 69.0191
380	 75.0528
376	 107.283
372	 170.15
370	 189.675