File: Bakgrunnsmateriale/MATLAB/FTIR/ftir_data/subBb/Mapping_121/C-4040-8_t81.asc
PE IR       SPECTRUM    SPECTRUM    ASCII       PEDS        1.60
  -1
C-A54E~1.ASC
17/03/27
21:08:01.00
17/03/27
21:08:28.00
tln
$C-4040-8_t0081$<tbV0>[5.2,5.2,8.0,0.0,27,1,0]
27.028
64

2002,4.07
MIRTGS : RIGHTBACK : INTERNAL 2
MIR : ON : INTERNAL 2
OPTKBR

0.200000
8
8.000000
FILLER
RATIO
SPECTRUM
UNLOCKED 256

DOUBLE
64
COMBINED
1
0
0

0.002000
RATIO

1
0
TRUE
51149
0
LEFT NOT FITTED RIGHT NOT FITTED 0
NONE
NONE
15600
12
4.427000
51148
TRUE
1 0 8 72 0 0 0 0

15798

#HDR
-1
-1
#GR
µM
%T
2.38419e-05
0.0
2.000000
0.002000
12515
8
110.557
56.2774
#DATA
2.000000	 65.3626
2.018000	 65.4385
2.036000	 65.0435
2.054000	 64.9212
2.072000	 65.1977
2.090000	 65.075
2.108000	 64.9729
2.126000	 65.2507
2.144000	 65.1277
2.162000	 65.2515
2.180000	 65.1826
2.198000	 64.7919
2.216000	 64.2744
2.234000	 64.3215
2.252000	 64.9702
2.270000	 63.3152
2.288000	 70.0103
2.306000	 65.3522
2.324000	 64.8373
2.342000	 65.0873
2.360000	 64.7862
2.378000	 65.0958
2.396000	 65.0687
2.414000	 65.1458
2.432000	 65.1269
2.450000	 65.0469
2.468000	 65.1533
2.486000	 65.3712
2.504000	 65.5396
2.522000	 65.0239
2.540000	 65.506
2.558000	 65.2342
2.576000	 65.0769
2.594000	 64.9331
2.612000	 65.3128
2.630000	 65.1571
2.648000	 65.2323
2.666000	 65.1787
2.684000	 65.3557
2.702000	 65.0579
2.720000	 65.3959
2.738000	 65.3222
2.756000	 65.224
2.774000	 65.2164
2.792000	 65.2161
2.810000	 65.2935
2.828000	 65.259
2.846000	 65.1387
2.864000	 65.2874
2.882000	 65.315
2.900000	 65.2622
2.918000	 65.0629
2.936000	 65.1087
2.954000	 65.4318
2.972000	 65.1563
2.990000	 65.1478
3.008000	 65.252
3.026000	 65.3175
3.044000	 65.0724
3.062000	 65.1631
3.080000	 65.2907
3.098000	 65.2169
3.116000	 65.3167
3.134000	 65.4144
3.152000	 65.1146
3.170000	 65.1531
3.188000	 65.2977
3.206000	 65.0959
3.224000	 65.1989
3.242000	 65.2772
3.260000	 65.4469
3.278000	 65.3573
3.296000	 65.1942
3.314000	 65.0714
3.332000	 65.1977
3.350000	 65.1061
3.368000	 65.0885
3.386000	 64.9512
3.404000	 64.9793
3.422000	 64.9426
3.440000	 65.1847
3.458000	 65.1883
3.476000	 65.213
3.494000	 65.384
3.512000	 65.317
3.530000	 65.1702
3.548000	 65.4117
3.566000	 65.2809
3.584000	 65.2318
3.602000	 65.3923
3.620000	 65.3592
3.638000	 65.3763
3.656000	 65.3604
3.674000	 65.3718
3.692000	 65.3423
3.710000	 65.4254
3.728000	 65.2981
3.746000	 65.3461
3.764000	 65.3178
3.782000	 65.3605
3.800000	 65.3564
3.818000	 65.3006
3.836000	 65.2696
3.854000	 65.2788
3.872000	 65.2045
3.890000	 65.2304
3.908000	 65.333
3.926000	 65.309
3.944000	 65.3807
3.962000	 65.4113
3.980000	 65.3775
3.998000	 65.2121
4.016000	 65.1829
4.034000	 65.3011
4.052000	 65.3206
4.070000	 65.4356
4.088000	 65.4244
4.106000	 65.2063
4.124000	 64.8232
4.141999	 65.5546
4.160000	 65.1202
4.178000	 65.2712
4.196000	 65.2288
4.214000	 65.3053
4.232000	 65.2786
4.250000	 65.3936
4.268000	 65.2613
4.286000	 65.2958
4.304000	 65.295
4.322000	 65.3382
4.340000	 65.2521
4.358000	 65.3279
4.375999	 65.2364
4.394000	 65.2928
4.412000	 65.287
4.430000	 65.2788
4.448000	 65.2996
4.466000	 65.2752
4.484000	 65.4178
4.502000	 65.3563
4.520000	 65.393
4.538000	 65.3087
4.556000	 65.3194
4.574000	 65.2575
4.592000	 65.2801
4.609999	 65.3862
4.628000	 65.3204
4.646000	 65.3331
4.664000	 65.0266
4.682000	 65.1052
4.700000	 65.3441
4.718000	 65.2312
4.736000	 65.4645
4.754000	 65.4958
4.772000	 65.5055
4.790000	 65.3834
4.808000	 65.5645
4.826000	 65.6475
4.843999	 65.4828
4.862000	 65.3615
4.880000	 65.4207
4.898000	 65.4792
4.916000	 65.3731
4.934000	 65.5207
4.952000	 65.4365
4.970000	 65.3458
4.988000	 65.2646
5.006000	 65.2691
5.024000	 65.2999
5.042000	 65.362
5.060000	 65.2889
5.077999	 65.3865
5.096000	 65.336
5.114000	 65.3879
5.132000	 65.4035
5.150000	 65.3862
5.168000	 65.3789
5.186000	 65.3136
5.204000	 65.3833
5.222000	 65.451
5.240000	 65.3882
5.258000	 65.3139
5.276000	 65.2956
5.294000	 65.3558
5.312000	 65.3173
5.330000	 65.2914
5.348000	 65.2825
5.366000	 65.3071
5.384000	 65.3369
5.402000	 65.2616
5.420000	 65.1777
5.438000	 65.3264
5.456000	 65.4069
5.474000	 65.4067
5.492000	 65.388
5.510000	 65.4041
5.528000	 65.4337
5.546000	 65.3876
5.564000	 65.3017
5.582000	 65.2789
5.600000	 65.3482
5.618000	 65.4322
5.636000	 65.445
5.654000	 65.3868
5.672000	 65.3092
5.690000	 65.32
5.708000	 65.3635
5.726000	 65.3292
5.744000	 65.1887
5.762000	 65.1073
5.780000	 65.1165
5.798000	 65.2947
5.816000	 65.4539
5.834000	 65.4558
5.852000	 65.1887
5.870000	 65.2323
5.888000	 65.4462
5.906000	 65.5469
5.923999	 65.5054
5.942000	 65.3648
5.960000	 65.2943
5.978000	 65.3273
5.996000	 65.31
6.014000	 65.2851
6.032000	 65.3421
6.050000	 65.3328
6.068000	 65.2463
6.086000	 65.1988
6.104000	 65.1591
6.122000	 65.2
6.140000	 65.2217
6.158000	 65.1795
6.176000	 65.205
6.194000	 65.2645
6.212000	 65.3515
6.230000	 65.3561
6.248000	 65.3137
6.266000	 65.2168
6.284000	 65.1715
6.302000	 65.2145
6.320000	 65.2756
6.338000	 65.2971
6.356000	 65.1655
6.374000	 65.0793
6.392000	 65.1573
6.410000	 65.1782
6.428000	 65.0614
6.446000	 64.9838
6.464000	 65.011
6.482000	 65.0546
6.500000	 65.0217
6.518000	 64.9586
6.536000	 64.9612
6.554000	 65.0679
6.572000	 65.1757
6.590000	 65.1765
6.608000	 65.1387
6.626000	 65.1223
6.644000	 65.1532
6.662000	 65.2131
6.680000	 65.2194
6.698000	 65.2714
6.716000	 65.3255
6.734000	 65.2526
6.752000	 65.193
6.770000	 65.2049
6.788000	 65.2177
6.806000	 65.1614
6.824000	 65.0203
6.842000	 64.986
6.860000	 65.1115
6.878000	 65.1147
6.896000	 65.0251
6.914000	 65.0685
6.932000	 65.1278
6.950000	 65.1658
6.968000	 65.2591
6.986000	 65.3137
7.004000	 65.2454
7.022000	 65.1462
7.040000	 65.1404
7.058000	 65.2131
7.076000	 65.2438
7.094000	 65.1874
7.112000	 65.154
7.130000	 65.1909
7.148000	 65.1911
7.166000	 65.1215
7.184000	 65.0459
7.202000	 65.0212
7.220000	 65.0734
7.238000	 65.1111
7.256000	 65.0539
7.274000	 64.9832
7.292000	 64.9864
7.310000	 65.0464
7.328000	 65.1178
7.346000	 65.1651
7.364000	 65.1439
7.382000	 65.0373
7.400000	 64.9149
7.418000	 64.8593
7.436000	 64.8996
7.454000	 65.0496
7.472000	 65.2318
7.490000	 65.2762
7.508000	 65.1854
7.526000	 65.1358
7.544000	 65.1761
7.562000	 65.2111
7.580000	 65.218
7.598000	 65.2376
7.616000	 65.2522
7.634000	 65.2192
7.652000	 65.1522
7.670000	 65.0947
7.688000	 65.0616
7.706000	 65.0427
7.724000	 65.0275
7.742000	 65.0141
7.760000	 65.0196
7.778000	 65.0708
7.796000	 65.1573
7.814000	 65.2198
7.832000	 65.2127
7.850000	 65.1476
7.868000	 65.0649
7.886000	 65.006
7.904000	 65
7.922000	 65.0257
7.940000	 65.0217
7.958000	 64.9783
7.976000	 64.9497
7.994000	 64.9563
8.012000	 64.9514
8.030000	 64.9045
8.048000	 64.8563
8.065999	 64.8643
8.084000	 64.9285
8.102000	 64.9914
8.120000	 65.0089
8.138000	 64.9901
8.155999	 64.9667
8.173999	 64.9529
8.192000	 64.9522
8.210000	 64.9753
8.228000	 65.0276
8.246000	 65.0862
8.263999	 65.1143
8.282000	 65.0938
8.300000	 65.0415
8.318000	 64.9912
8.336000	 64.9676
8.353999	 64.9709
8.372000	 64.9834
8.390000	 64.989
8.408000	 64.9897
8.426000	 65.0001
8.443999	 65.0204
8.462000	 65.0272
8.480000	 65.0004
8.498000	 64.9486
8.516000	 64.8944
8.533999	 64.8482
8.552000	 64.8132
8.570000	 64.7999
8.588000	 64.8175
8.606000	 64.8582
8.624000	 64.9035
8.641999	 64.9369
8.660000	 64.9417
8.678000	 64.9028
8.696000	 64.8291
8.714000	 64.7635
8.731999	 64.7487
8.750000	 64.7856
8.768000	 64.8393
8.786000	 64.8855
8.804000	 64.9301
8.821999	 64.9791
8.840000	 65.0139
8.858000	 65.0104
8.876000	 64.9723
8.894000	 64.9262
8.911999	 64.8842
8.930000	 64.83
8.948000	 64.7582
8.966000	 64.7121
8.984000	 64.7612
9.001999	 64.9256
9.020000	 65.1366
9.038000	 65.2835
9.056000	 65.3053
9.074000	 65.2236
9.092000	 65.0972
9.109999	 64.9712
9.128000	 64.8697
9.146000	 64.8076
9.164000	 64.7887
9.182000	 64.8027
9.199999	 64.8368
9.218000	 64.8908
9.236000	 64.9642
9.254000	 65.0285
9.272000	 65.0336
9.289999	 64.9532
9.308000	 64.8224
9.326000	 64.7141
9.344000	 64.6731
9.362000	 64.6795
9.379999	 64.6767
9.398000	 64.6363
9.416000	 64.5859
9.434000	 64.5776
9.452000	 64.6326
9.469999	 64.7161
9.488000	 64.7648
9.506000	 64.7432
9.524000	 64.6737
9.542000	 64.6135
9.560000	 64.606
9.577999	 64.6501
9.596000	 64.7113
9.614000	 64.7539
9.632000	 64.7654
9.650000	 64.7584
9.667999	 64.7567
9.686000	 64.7778
9.704000	 64.8205
9.722000	 64.8644
9.740000	 64.8831
9.757999	 64.8648
9.776000	 64.8253
9.794000	 64.797
9.812000	 64.802
9.830000	 64.8317
9.847999	 64.8548
9.866000	 64.8457
9.884000	 64.8059
9.902000	 64.758
9.920000	 64.7194
9.937999	 64.6849
9.956000	 64.6362
9.974000	 64.5636
9.992000	 64.4807
10.01	64.4197
10.028	64.4148
10.046	64.4786
10.064	64.5925
10.082	64.7147
10.1	64.7998
10.118	64.825
10.136	64.8015
10.154	64.7608
10.172	64.7319
10.19	64.7199
10.208	64.7071
10.226	64.6763
10.244	64.6295
10.262	64.5864
10.28	64.564
10.298	64.5589
10.316	64.5466
10.334	64.506
10.352	64.443
10.37	64.3956
10.388	64.4107
10.406	64.5087
10.424	64.665
10.442	64.8175
10.46	64.9054
10.478	64.8995
10.496	64.8229
10.514	64.7302
10.532	64.6804
10.55	64.7016
10.568	64.7842
10.586	64.8885
10.604	64.9736
10.622	65.0144
10.64	65.0142
10.658	64.995
10.676	64.9875
10.694	65.0137
10.712	65.0831
10.73	65.1923
10.748	65.3287
10.766	65.4715
10.784	65.5947
10.802	65.6699
10.82	65.6772
10.838	65.61
10.856	65.4805
10.874	65.3178
10.892	65.1579
10.91	65.0356
10.928	64.97
10.946	64.9618
10.964	64.9928
10.982	65.034
11	65.0609
11.018	65.0603
11.036	65.0378
11.054	65.0119
11.072	65.0011
11.09	65.0141
11.108	65.0438
11.126	65.0712
11.144	65.0784
11.162	65.0553
11.18	65.0027
11.198	64.9278
11.216	64.8399
11.234	64.7472
11.252	64.6594
11.27	64.5869
11.288	64.5402
11.306	64.5255
11.324	64.5376
11.342	64.5592
11.36	64.5664
11.378	64.5373
11.396	64.4643
11.414	64.3573
11.432	64.24
11.45	64.1392
11.468	64.077
11.486	64.062
11.504	64.0902
11.522	64.1478
11.54	64.2181
11.558	64.2849
11.576	64.3372
11.594	64.3702
11.612	64.3843
11.63	64.384
11.648	64.3753
11.666	64.3655
11.684	64.3607
11.702	64.3648
11.72	64.3799
11.738	64.4055
11.756	64.4401
11.774	64.4813
11.792	64.5261
11.81	64.5714
11.828	64.6141
11.846	64.6511
11.864	64.6793
11.882	64.6969
11.9	64.7025
11.918	64.6956
11.936	64.6767
11.954	64.6476
11.972	64.6113
11.99	64.5718
12.008	64.5343
12.026	64.5043
12.044	64.4862
12.062	64.4827
12.08	64.4933
12.098	64.5146
12.116	64.5421
12.134	64.5713
12.152	64.5991
12.17	64.6239
12.188	64.6447
12.206	64.6604
12.224	64.6681
12.242	64.6641
12.26	64.6444
12.278	64.6069
12.296	64.5529
12.314	64.4883
12.332	64.4228
12.35	64.3674
12.368	64.3323
12.386	64.3233
12.404	64.3404
12.422	64.3769
12.44	64.4218
12.458	64.461
12.476	64.4812
12.494	64.4725
12.512	64.4316
12.53	64.3622
12.548	64.2746
12.566	64.1831
12.584	64.1026
12.602	64.0458
12.62	64.0204
12.638	64.0281
12.656	64.0651
12.674	64.1237
12.692	64.1943
12.71	64.2681
12.728	64.3367
12.746	64.3933
12.764	64.4322
12.782	64.4483
12.8	64.4379
12.818	64.3998
12.836	64.3362
12.854	64.2533
12.872	64.1617
12.89	64.0736
12.908	64.0001
12.926	63.9491
12.944	63.924
12.962	63.9236
12.98	63.9436
12.998	63.9786
13.016	64.0233
13.034	64.0739
13.052	64.1278
13.07	64.183
13.088	64.2366
13.106	64.2841
13.124	64.3201
13.142	64.3388
13.16	64.3353
13.178	64.3071
13.196	64.2556
13.214	64.1858
13.232	64.1056
13.25	64.0245
13.268	63.9515
13.286	63.8949
13.304	63.8613
13.322	63.8542
13.34	63.8743
13.358	63.9191
13.376	63.9832
13.394	64.0585
13.412	64.136
13.43	64.2067
13.448	64.2632
13.466	64.3008
13.484	64.318
13.502	64.3168
13.52	64.3016
13.538	64.2784
13.556	64.2533
13.574	64.2324
13.592	64.2204
13.61	64.2201
13.628	64.2323
13.646	64.2567
13.664	64.2912
13.682	64.3328
13.7	64.377
13.718	64.419
13.736	64.4532
13.754	64.4744
13.772	64.4783
13.79	64.4628
13.808	64.4285
13.826	64.3788
13.844	64.3192
13.862	64.256
13.88	64.1952
13.898	64.1412
13.916	64.0959
13.934	64.0585
13.952	64.0261
13.97	63.9939
13.988	63.957
14.006	63.9109
14.024	63.8531
14.042	63.7833
14.06	63.7041
14.078	63.6199
14.096	63.5369
14.114	63.4612
14.132	63.3987
14.15	63.3533
14.168	63.3271
14.186	63.3197
14.204	63.3284
14.222	63.3488
14.24	63.3758
14.258	63.4044
14.276	63.4304
14.294	63.4507
14.312	63.4634
14.33	63.4683
14.348	63.4661
14.366	63.4581
14.384	63.4451
14.402	63.4279
14.42	63.406
14.438	63.3791
14.456	63.3464
14.474	63.308
14.492	63.2648
14.51	63.2193
14.528	63.1755
14.546	63.1378
14.564	63.1106
14.582	63.0975
14.6	63.1009
14.618	63.1213
14.636	63.157
14.654	63.2044
14.672	63.2589
14.69	63.3154
14.708	63.3684
14.726	63.4126
14.744	63.4433
14.762	63.4578
14.78	63.4553
14.798	63.4363
14.816	63.4027
14.834	63.3577
14.852	63.3062
14.87	63.2529
14.888	63.2024
14.906	63.1586
14.924	63.1242
14.942	63.1007
14.96	63.0876
14.978	63.0832
14.996	63.0853
15.014	63.091
15.032	63.0967
15.05	63.0997
15.068	63.0982
15.086	63.0915
15.104	63.0797
15.122	63.0638
15.14	63.0454
15.158	63.0258
15.176	63.0064
15.194	62.9879
15.212	62.9709
15.23	62.9558
15.248	62.9431
15.266	62.9334
15.284	62.928
15.302	62.9286
15.32	62.937
15.338	62.9549
15.356	62.9839
15.374	63.0247
15.392	63.0764
15.41	63.1373
15.428	63.2049
15.446	63.2745
15.464	63.3416
15.482	63.4016
15.5	63.4495
15.518	63.4805
15.536	63.4918
15.554	63.4814
15.572	63.4488
15.59	63.3953
15.608	63.3236
15.626	63.2366
15.644	63.139
15.662	63.0367
15.68	62.935
15.698	62.8388
15.716	62.7537
15.734	62.684
15.752	62.6326
15.77	62.6016
15.788	62.5918
15.806	62.6014
15.824	62.6283
15.842	62.6688
15.86	62.7171
15.878	62.7687
15.896	62.8191
15.914	62.8629
15.932	62.8971
15.95	62.9199
15.968	62.9299
15.986	62.928
16.004	62.9156
16.022	62.8946
16.04	62.8683
16.058	62.8391
16.076	62.8094
16.094	62.7819
16.112	62.7581
16.13	62.739
16.148	62.7255
16.166	62.7179
16.184	62.7159
16.202	62.7194
16.22	62.7281
16.238	62.7416
16.256	62.7596
16.274	62.7823
16.292	62.8097
16.31	62.8421
16.328	62.88
16.346	62.9236
16.364	62.9729
16.382	63.0277
16.4	63.0873
16.418	63.1509
16.436	63.2171
16.454	63.2842
16.472	63.3507
16.49	63.414
16.508	63.4718
16.526	63.5222
16.544	63.5625
16.562	63.5914
16.58	63.6077
16.598	63.6103
16.616	63.599
16.634	63.5739
16.652	63.5362
16.67	63.4872
16.688	63.4283
16.706	63.3628
16.724	63.2924
16.742	63.2199
16.76	63.1487
16.778	63.0802
16.796	63.0173
16.814	62.9623
16.832	62.9162
16.85	62.8809
16.868	62.8564
16.886	62.8433
16.904	62.8405
16.922	62.847
16.94	62.8614
16.958	62.8807
16.976	62.9034
16.994	62.9257
17.012	62.9452
17.03	62.9598
17.048	62.9665
17.066	62.9644
17.084	62.9524
17.102	62.9306
17.12	62.8994
17.138	62.861
17.156	62.8175
17.174	62.771
17.192	62.7259
17.21	62.684
17.228	62.6491
17.246	62.6235
17.264	62.6088
17.282	62.6065
17.3	62.6165
17.318	62.6387
17.336	62.671
17.354	62.7125
17.372	62.7592
17.39	62.8095
17.408	62.8595
17.426	62.9066
17.444	62.9488
17.462	62.9834
17.48	63.0098
17.498	63.0267
17.516	63.0344
17.534	63.0329
17.552	63.0238
17.57	63.0075
17.588	62.9859
17.606	62.9598
17.624	62.9307
17.642	62.8993
17.66	62.8661
17.678	62.8314
17.696	62.7952
17.714	62.7574
17.732	62.7178
17.75	62.676
17.768	62.6323
17.786	62.5866
17.804	62.54
17.822	62.4931
17.84	62.4474
17.858	62.4045
17.876	62.366
17.894	62.3342
17.912	62.3101
17.93	62.2958
17.948	62.2919
17.966	62.2993
17.984	62.3176
18.002	62.3465
18.02	62.3845
18.038	62.4306
18.056	62.4818
18.074	62.5374
18.092	62.5941
18.11	62.6514
18.128	62.707
18.146	62.7607
18.164	62.8116
18.182	62.8602
18.2	62.9065
18.218	62.9517
18.236	62.9964
18.254	63.0421
18.272	63.089
18.29	63.1381
18.308	63.1893
18.326	63.2416
18.344	63.2946
18.362	63.3464
18.38	63.3957
18.398	63.4394
18.416	63.4761
18.434	63.5034
18.452	63.5192
18.47	63.5216
18.488	63.5098
18.506	63.4829
18.524	63.4413
18.542	63.3849
18.56	63.3163
18.578	63.2359
18.596	63.1478
18.614	63.0526
18.632	62.9553
18.65	62.8564
18.668	62.7611
18.686	62.6696
18.704	62.5861
18.722	62.5106
18.74	62.4462
18.758	62.3926
18.776	62.3513
18.794	62.3219
18.812	62.3045
18.83	62.2985
18.848	62.3032
18.866	62.3177
18.884	62.3406
18.902	62.3709
18.92	62.407
18.938	62.4476
18.956	62.4907
18.974	62.5349
18.992	62.5779
19.01	62.6183
19.028	62.6538
19.046	62.6832
19.064	62.7041
19.082	62.7157
19.1	62.7158
19.118	62.704
19.136	62.6787
19.154	62.6401
19.172	62.5874
19.19	62.5214
19.208	62.4427
19.226	62.3522
19.244	62.2521
19.262	62.1431
19.28	62.0291
19.298	61.9105
19.316	61.7925
19.334	61.6752
19.352	61.5643
19.37	61.4596
19.388	61.3664
19.406	61.2844
19.424	61.2174
19.442	61.1654
19.46	61.1297
19.478	61.1107
19.496	61.1074
19.514	61.1202
19.532	61.1463
19.55	61.1851
19.568	61.2339
19.586	61.2904
19.604	61.3529
19.622	61.4173
19.64	61.4833
19.658	61.5461
19.676	61.6062
19.694	61.6595
19.712	61.7065
19.73	61.7445
19.748	61.7736
19.766	61.7928
19.784	61.8017
19.802	61.8005
19.82	61.789
19.838	61.7679
19.856	61.7376
19.874	61.6984
19.892	61.6517
19.91	61.5973
19.928	61.5371
19.946	61.4707
19.964	61.4001
19.982	61.3252
20	61.2475
20.018	61.1677
20.036	61.0865
20.054	61.0054
20.072	60.9244
20.09	60.8455
20.108	60.7685
20.126	60.6951
20.144	60.6254
20.162	60.5605
20.18	60.501
20.198	60.4471
20.216	60.3998
20.234	60.3587
20.252	60.3246
20.27	60.2973
20.288	60.2766
20.306	60.2627
20.324	60.2548
20.342	60.253
20.36	60.2567
20.378	60.2649
20.396	60.2777
20.414	60.294
20.432	60.3139
20.45	60.3363
20.468	60.3608
20.486	60.3871
20.504	60.4147
20.522	60.4437
20.54	60.4731
20.558	60.5031
20.576	60.5334
20.594	60.5639
20.612	60.5947
20.63	60.6256
20.648	60.6566
20.666	60.6879
20.684	60.7193
20.702	60.751
20.72	60.783
20.738	60.8152
20.756	60.8475
20.774	60.8799
20.792	60.9122
20.81	60.9443
20.828	60.9759
20.846	61.0062
20.864	61.0353
20.882	61.0621
20.9	61.0869
20.918	61.1084
20.936	61.1257
20.954	61.1388
20.972	61.1459
20.99	61.1474
21.008	61.142
21.026	61.129
21.044	61.1087
21.062	61.0802
21.08	61.0437
21.098	60.9995
21.116	60.9473
21.134	60.8881
21.152	60.8231
21.17	60.7517
21.188	60.6766
21.206	60.5976
21.224	60.5161
21.242	60.4344
21.26	60.3517
21.278	60.2714
21.296	60.1937
21.314	60.1194
21.332	60.0513
21.35	59.9886
21.368	59.933
21.386	59.8852
21.404	59.8451
21.422	59.8134
21.44	59.79
21.458	59.7745
21.476	59.7669
21.494	59.7669
21.512	59.7729
21.53	59.7855
21.548	59.8029
21.566	59.824
21.584	59.849
21.602	59.8753
21.62	59.9035
21.638	59.932
21.656	59.9589
21.674	59.9848
21.692	60.0078
21.71	60.0275
21.728	60.0439
21.746	60.056
21.764	60.0639
21.782	60.0677
21.8	60.0672
21.818	60.0626
21.836	60.0543
21.854	60.0421
21.872	60.0265
21.89	60.0083
21.908	59.9871
21.926	59.9638
21.944	59.9394
21.962	59.9134
21.98	59.8866
21.998	59.8592
22.016	59.8312
22.034	59.8032
22.052	59.7751
22.07	59.7467
22.088	59.7177
22.106	59.6884
22.124	59.6574
22.142	59.6247
22.16	59.5902
22.178	59.5526
22.196	59.5121
22.214	59.4684
22.232	59.4208
22.25	59.3695
22.268	59.3148
22.286	59.2567
22.304	59.1953
22.322	59.1321
22.34	59.0668
22.358	59.0003
22.376	58.9356
22.394	58.8717
22.412	58.8107
22.43	58.7561
22.448	58.7061
22.466	58.664
22.484	58.6325
22.502	58.6101
22.52	58.5995
22.538	58.6021
22.556	58.6169
22.574	58.6453
22.592	58.6879
22.61	58.7438
22.628	58.8117
22.646	58.8928
22.664	58.9848
22.682	59.0844
22.7	59.1937
22.718	59.3085
22.736	59.4242
22.754	59.5434
22.772	59.6612
22.79	59.7732
22.808	59.8822
22.826	59.9827
22.844	60.0713
22.862	60.1502
22.88	60.215
22.898	60.2633
22.916	60.2968
22.934	60.3125
22.952	60.3091
22.97	60.2876
22.988	60.2478
23.006	60.1889
23.024	60.1117
23.042	60.0181
23.06	59.9077
23.078	59.7811
23.096	59.6413
23.114	59.4874
23.132	59.3205
23.15	59.1452
23.168	58.9602
23.186	58.767
23.204	58.5707
23.222	58.37
23.24	58.1666
23.258	57.9663
23.276	57.7682
23.294	57.5733
23.312	57.3871
23.33	57.2084
23.348	57.0383
23.366	56.8828
23.384	56.7408
23.402	56.6131
23.42	56.505
23.438	56.4164
23.456	56.347
23.474	56.3012
23.492	56.2796
23.51	56.2812
23.528	56.3079
23.546	56.3607
23.564	56.4386
23.582	56.5409
23.6	56.6679
23.618	56.8196
23.636	56.9924
23.654	57.1854
23.672	57.4
23.69	57.6301
23.708	57.8721
23.726	58.1297
23.744	58.3952
23.762	58.662
23.78	58.935
23.798	59.2077
23.816	59.4723
23.834	59.7331
23.852	59.9861
23.87	60.2244
23.888	60.4497
23.906	60.6614
23.924	60.8551
23.942	61.0301
23.96	61.1878
23.978	61.3272
23.996	61.4474
24.014	61.549
24.032	61.6346
24.05	61.7051
24.068	61.7589
24.086	61.8003
24.104	61.8331
24.122	61.8538
24.14	61.8669
24.158	61.8786
24.176	61.8865
24.194	61.8921
24.212	61.9015
24.23	61.916
24.248	61.9337
24.266	61.9575
24.284	61.9893
24.302	62.0279
24.32	62.0732
24.338	62.1257
24.356	62.1859
24.374	62.2523
24.392	62.3233
24.41	62.3995
24.428	62.4805
24.446	62.5642
24.464	62.6499
24.482	62.7384
24.5	62.8284
24.518	62.9183
24.536	63.0084
24.554	63.0995
24.572	63.1924
24.59	63.2858
24.608	63.3808
24.626	63.4802
24.644	63.5846
24.662	63.6923
24.68	63.8077
24.698	63.9346
24.716	64.0694
24.734	64.2156
24.752	64.3793
24.77	64.5607
24.788	64.7582
24.806	64.9759
24.824	65.2175
24.842	65.4814
24.86	65.766
24.878	66.07
24.896	66.3954
24.914	66.7404
24.932	67.1
24.95	67.4723
24.968	67.8606
24.986	68.2593
25.004	68.6628
25.022	69.0756
25.04	69.4945
25.058	69.9111
25.076	70.3233
25.094	70.7366
25.112	71.1403
25.13	71.5236
25.148	71.8908
25.166	72.2414
25.184	72.5696
25.202	72.871
25.22	73.1484
25.238	73.4041
25.256	73.6401
25.274	73.8527
25.292	74.0452
25.31	74.2247
25.328	74.3943
25.346	74.5484
25.364	74.6951
25.382	74.8435
25.4	74.9902
25.418	75.135
25.436	75.2881
25.454	75.4569
25.472	75.6347
25.49	75.8258
25.508	76.0371
25.526	76.272
25.544	76.527
25.562	76.8004
25.58	77.0911
25.598	77.4049
25.616	77.7356
25.634	78.072
25.652	78.4094
25.67	78.7587
25.688	79.1048
25.706	79.4296
25.724	79.7366
25.742	80.0316
25.76	80.293
25.778	80.5015
25.796	80.6714
25.814	80.7968
25.832	80.8589
25.85	80.8452
25.868	80.7692
25.886	80.6233
25.904	80.3968
25.922	80.0865
25.94	79.6989
25.958	79.2297
25.976	78.6747
25.994	78.0296
26.012	77.2999
26.03	76.4945
26.048	75.6199
26.066	74.6615
26.084	73.634
26.102	72.561
26.12	71.4545
26.138	70.29
26.156	69.095
26.174	67.9036
26.192	66.7214
26.21	65.5231
26.228	64.3479
26.246	63.2368
26.264	62.1842
26.282	61.1739
26.3	60.2429
26.318	59.4273
26.336	58.7183
26.354	58.1073
26.372	57.6077
26.39	57.2322
26.408	56.9753
26.426	56.8347
26.444	56.8129
26.462	56.914
26.48	57.1471
26.498	57.4969
26.516	57.9432
26.534	58.4714
26.552	59.0967
26.57	59.8109
26.588	60.6005
26.606	61.4551
26.624	62.3813
26.642	63.3805
26.66	64.4524
26.678	65.5933
26.696	66.7967
26.714	68.0771
26.732	69.4506
26.75	70.9197
26.768	72.4642
26.786	74.1115
26.804	75.8926
26.822	77.8205
26.84	79.8687
26.858	82.057
26.876	84.4082
26.894	86.937
26.912	89.6294
26.93	92.4817
26.948	95.492
26.966	98.8427
26.984	102.806
27.002	106.692
27.02	109.749
27.028	110.557