File: Bakgrunnsmateriale/MATLAB/FTIR/ftir_data/subBb/Mapping_121/C-4040-8_t105.asc
PE IR       SPECTRUM    SPECTRUM    ASCII       PEDS        1.60
  -1
C-80D6~1.ASC
17/03/27
23:05:52.00
17/03/27
23:06:18.00
tln
$C-4040-8_t0105$<tbV0>[0.0,10.4,8.0,0.0,27,1,0]
27.028
64

2002,4.07
MIRTGS : RIGHTBACK : INTERNAL 2
MIR : ON : INTERNAL 2
OPTKBR

0.200000
8
8.000000
FILLER
RATIO
SPECTRUM
UNLOCKED 256

DOUBLE
64
COMBINED
1
0
0

0.002000
RATIO

1
0
TRUE
51149
0
LEFT NOT FITTED RIGHT NOT FITTED 0
NONE
NONE
15600
12
4.427000
51148
TRUE
1 0 8 72 0 0 0 0

15798

#HDR
-1
-1
#GR
µM
%T
2.38419e-05
0.0
2.000000
0.002000
12515
8
201.33
41.7127
#DATA
2.000000	 64.6339
2.018000	 64.999
2.036000	 65.2888
2.054000	 65.1413
2.072000	 64.937
2.090000	 65.1336
2.108000	 64.7444
2.126000	 65.1132
2.144000	 64.9786
2.162000	 65.3204
2.180000	 65.4687
2.198000	 65.1713
2.216000	 64.5475
2.234000	 64.2251
2.252000	 64.1549
2.270000	 66.1748
2.288000	 65.4952
2.306000	 64.0345
2.324000	 63.9908
2.342000	 64.9437
2.360000	 64.3517
2.378000	 64.7273
2.396000	 64.8986
2.414000	 65.2412
2.432000	 65.1665
2.450000	 65.0485
2.468000	 65.1595
2.486000	 65.1919
2.504000	 65.2314
2.522000	 65.3896
2.540000	 65.1708
2.558000	 64.977
2.576000	 65.2702
2.594000	 64.9711
2.612000	 64.7101
2.630000	 64.9655
2.648000	 65.1983
2.666000	 65.2425
2.684000	 65.2892
2.702000	 65.3503
2.720000	 65.1822
2.738000	 65.212
2.756000	 65.0483
2.774000	 65.1713
2.792000	 65.4087
2.810000	 65.2291
2.828000	 65.1835
2.846000	 65.3059
2.864000	 65.3279
2.882000	 65.2668
2.900000	 65.0166
2.918000	 65.1439
2.936000	 65.1161
2.954000	 64.8927
2.972000	 65.1975
2.990000	 65.32
3.008000	 65.1254
3.026000	 65.1108
3.044000	 65.1277
3.062000	 65.3532
3.080000	 65.1081
3.098000	 65.0118
3.116000	 65.3183
3.134000	 65.1919
3.152000	 65.3212
3.170000	 65.3597
3.188000	 65.3294
3.206000	 65.2232
3.224000	 65.5084
3.242000	 65.074
3.260000	 65.115
3.278000	 65.2103
3.296000	 65.1437
3.314000	 65.0966
3.332000	 65.319
3.350000	 65.0539
3.368000	 65.1415
3.386000	 65.0195
3.404000	 65.0501
3.422000	 64.9154
3.440000	 65.1543
3.458000	 64.9383
3.476000	 65.1946
3.494000	 65.2384
3.512000	 64.841
3.530000	 65.256
3.548000	 65.2306
3.566000	 65.178
3.584000	 65.387
3.602000	 65.26
3.620000	 65.1207
3.638000	 65.3262
3.656000	 65.2769
3.674000	 65.2305
3.692000	 65.311
3.710000	 65.2373
3.728000	 65.254
3.746000	 65.2165
3.764000	 65.3191
3.782000	 65.3005
3.800000	 65.1968
3.818000	 65.1268
3.836000	 65.1841
3.854000	 65.1262
3.872000	 65.1886
3.890000	 65.2497
3.908000	 65.2916
3.926000	 65.1479
3.944000	 65.2041
3.962000	 65.1006
3.980000	 65.2665
3.998000	 65.4034
4.016000	 65.4994
4.034000	 65.3621
4.052000	 65.3044
4.070000	 65.2705
4.088000	 65.1862
4.106000	 65.1859
4.124000	 65.284
4.141999	 65.2403
4.160000	 65.2607
4.178000	 65.2847
4.196000	 65.3904
4.214000	 65.2288
4.232000	 65.2492
4.250000	 65.0993
4.268000	 65.2978
4.286000	 65.2753
4.304000	 65.3812
4.322000	 65.2326
4.340000	 65.0861
4.358000	 65.3017
4.375999	 65.3627
4.394000	 65.3292
4.412000	 65.2519
4.430000	 65.2098
4.448000	 65.2306
4.466000	 65.1433
4.484000	 65.3077
4.502000	 65.3787
4.520000	 65.2575
4.538000	 65.2467
4.556000	 65.1975
4.574000	 65.1965
4.592000	 65.1972
4.609999	 65.3593
4.628000	 65.2449
4.646000	 65.3578
4.664000	 65.2577
4.682000	 65.3352
4.700000	 65.207
4.718000	 65.2282
4.736000	 65.4355
4.754000	 65.2319
4.772000	 65.1843
4.790000	 65.1515
4.808000	 64.9321
4.826000	 65.7501
4.843999	 65.5282
4.862000	 65.2494
4.880000	 65.3382
4.898000	 65.2938
4.916000	 65.2518
4.934000	 65.2443
4.952000	 65.3012
4.970000	 65.3516
4.988000	 65.2553
5.006000	 65.2737
5.024000	 65.2009
5.042000	 65.2796
5.060000	 65.2396
5.077999	 65.4025
5.096000	 65.4049
5.114000	 65.3022
5.132000	 65.2773
5.150000	 65.33
5.168000	 65.2509
5.186000	 65.3416
5.204000	 65.3488
5.222000	 65.2151
5.240000	 65.1131
5.258000	 65.2162
5.276000	 65.2085
5.294000	 65.1955
5.312000	 65.2552
5.330000	 65.2151
5.348000	 65.184
5.366000	 65.285
5.384000	 65.3355
5.402000	 65.3435
5.420000	 65.4249
5.438000	 65.4302
5.456000	 65.3777
5.474000	 65.3462
5.492000	 65.2902
5.510000	 65.3007
5.528000	 65.2438
5.546000	 65.1755
5.564000	 65.1357
5.582000	 65.1958
5.600000	 65.1777
5.618000	 65.1475
5.636000	 65.2771
5.654000	 65.3093
5.672000	 65.1949
5.690000	 65.1963
5.708000	 65.2056
5.726000	 65.2142
5.744000	 65.2055
5.762000	 65.0059
5.780000	 64.8331
5.798000	 64.9243
5.816000	 65.0217
5.834000	 65.304
5.852000	 65.3307
5.870000	 65.1902
5.888000	 65.1397
5.906000	 65.205
5.923999	 65.2273
5.942000	 65.1654
5.960000	 65.2141
5.978000	 65.3056
5.996000	 65.3032
6.014000	 65.2218
6.032000	 65.1325
6.050000	 65.0979
6.068000	 65.1838
6.086000	 65.2494
6.104000	 65.2961
6.122000	 65.2642
6.140000	 65.1537
6.158000	 65.0626
6.176000	 65.0547
6.194000	 64.9945
6.212000	 64.96
6.230000	 64.988
6.248000	 65.0711
6.266000	 65.1293
6.284000	 65.1256
6.302000	 65.1516
6.320000	 65.1426
6.338000	 65.0305
6.356000	 64.8913
6.374000	 64.8446
6.392000	 64.8822
6.410000	 64.8922
6.428000	 65.0222
6.446000	 65.1509
6.464000	 65.1805
6.482000	 65.1883
6.500000	 65.1182
6.518000	 65.0452
6.536000	 65.0464
6.554000	 65.0758
6.572000	 65.0377
6.590000	 64.9751
6.608000	 64.9664
6.626000	 65.0442
6.644000	 65.1876
6.662000	 65.2714
6.680000	 65.2248
6.698000	 65.091
6.716000	 65.0381
6.734000	 65.0373
6.752000	 65.0244
6.770000	 65.0358
6.788000	 65.067
6.806000	 65.1342
6.824000	 65.1826
6.842000	 65.1377
6.860000	 65.0149
6.878000	 64.9223
6.896000	 64.9889
6.914000	 65.1087
6.932000	 65.1354
6.950000	 65.1391
6.968000	 65.1026
6.986000	 64.947
7.004000	 64.8683
7.022000	 64.9639
7.040000	 65.0636
7.058000	 65.1278
7.076000	 65.1765
7.094000	 65.1964
7.112000	 65.2266
7.130000	 65.2425
7.148000	 65.1905
7.166000	 65.0969
7.184000	 65.0143
7.202000	 65.0056
7.220000	 65.0812
7.238000	 65.1175
7.256000	 65.0538
7.274000	 65.0177
7.292000	 65.0797
7.310000	 65.1303
7.328000	 65.0811
7.346000	 65.01
7.364000	 65.029
7.382000	 65.1164
7.400000	 65.1814
7.418000	 65.1725
7.436000	 65.0895
7.454000	 64.9832
7.472000	 64.9197
7.490000	 64.9249
7.508000	 64.9796
7.526000	 65.0271
7.544000	 65.0209
7.562000	 64.9761
7.580000	 64.9346
7.598000	 64.8934
7.616000	 64.824
7.634000	 64.7599
7.652000	 64.7847
7.670000	 64.9087
7.688000	 65.0522
7.706000	 65.1529
7.724000	 65.1918
7.742000	 65.1644
7.760000	 65.0945
7.778000	 65.0325
7.796000	 65.0152
7.814000	 65.0433
7.832000	 65.0704
7.850000	 65.0305
7.868000	 64.9267
7.886000	 64.8576
7.904000	 64.8975
7.922000	 65.0049
7.940000	 65.0956
7.958000	 65.1372
7.976000	 65.1351
7.994000	 65.1079
8.012000	 65.0906
8.030000	 65.0964
8.048000	 65.1019
8.065999	 65.0916
8.084000	 65.0711
8.102000	 65.0397
8.120000	 64.9915
8.138000	 64.9335
8.155999	 64.8768
8.173999	 64.8372
8.192000	 64.8402
8.210000	 64.8894
8.228000	 64.9485
8.246000	 64.9763
8.263999	 64.9694
8.282000	 64.9624
8.300000	 64.9876
8.318000	 65.0442
8.336000	 65.0951
8.353999	 65.0924
8.372000	 65.0215
8.390000	 64.9249
8.408000	 64.8648
8.426000	 64.8657
8.443999	 64.9074
8.462000	 64.9549
8.480000	 64.9811
8.498000	 64.978
8.516000	 64.9598
8.533999	 64.9531
8.552000	 64.9693
8.570000	 64.9916
8.588000	 64.9936
8.606000	 64.9713
8.624000	 64.9414
8.641999	 64.9115
8.660000	 64.8728
8.678000	 64.8243
8.696000	 64.7868
8.714000	 64.7779
8.731999	 64.7865
8.750000	 64.785
8.768000	 64.7577
8.786000	 64.7081
8.804000	 64.6573
8.821999	 64.6327
8.840000	 64.653
8.858000	 64.7118
8.876000	 64.7878
8.894000	 64.8626
8.911999	 64.925
8.930000	 64.9595
8.948000	 64.9602
8.966000	 64.9502
8.984000	 64.9602
9.001999	 64.9777
9.020000	 64.9456
9.038000	 64.8248
9.056000	 64.6448
9.074000	 64.479
9.092000	 64.3803
9.109999	 64.359
9.128000	 64.4051
9.146000	 64.5
9.164000	 64.6034
9.182000	 64.6619
9.199999	 64.6504
9.218000	 64.5994
9.236000	 64.5678
9.254000	 64.5884
9.272000	 64.6436
9.289999	 64.6959
9.308000	 64.7273
9.326000	 64.7481
9.344000	 64.772
9.362000	 64.7957
9.379999	 64.8008
9.398000	 64.7731
9.416000	 64.7141
9.434000	 64.6391
9.452000	 64.5694
9.469999	 64.5276
9.488000	 64.5365
9.506000	 64.6104
9.524000	 64.7423
9.542000	 64.8968
9.560000	 65.0198
9.577999	 65.0643
9.596000	 65.0175
9.614000	 64.9085
9.632000	 64.7903
9.650000	 64.7049
9.667999	 64.6614
9.686000	 64.6429
9.704000	 64.6326
9.722000	 64.6317
9.740000	 64.651
9.757999	 64.6853
9.776000	 64.7038
9.794000	 64.6712
9.812000	 64.582
9.830000	 64.4721
9.847999	 64.3938
9.866000	 64.3807
9.884000	 64.4306
9.902000	 64.5132
9.920000	 64.5921
9.937999	 64.6421
9.956000	 64.6538
9.974000	 64.6316
9.992000	 64.5904
10.01	64.5519
10.028	64.5358
10.046	64.5497
10.064	64.5865
10.082	64.6294
10.1	64.663
10.118	64.681
10.136	64.6878
10.154	64.6928
10.172	64.7012
10.19	64.7082
10.208	64.7057
10.226	64.6904
10.244	64.6701
10.262	64.6615
10.28	64.6778
10.298	64.7187
10.316	64.7679
10.334	64.8019
10.352	64.8028
10.37	64.767
10.388	64.7071
10.406	64.6437
10.424	64.5991
10.442	64.5906
10.46	64.6242
10.478	64.692
10.496	64.7722
10.514	64.8373
10.532	64.8637
10.55	64.8442
10.568	64.7897
10.586	64.7257
10.604	64.677
10.622	64.6561
10.64	64.655
10.658	64.6554
10.676	64.6423
10.694	64.6181
10.712	64.6021
10.73	64.6179
10.748	64.6774
10.766	64.771
10.784	64.8743
10.802	64.9598
10.82	65.011
10.838	65.0223
10.856	64.9921
10.874	64.9159
10.892	64.7908
10.91	64.6276
10.928	64.4577
10.946	64.3273
10.964	64.2742
10.982	64.3088
11	64.4045
11.018	64.5102
11.036	64.58
11.054	64.594
11.072	64.5678
11.09	64.5382
11.108	64.5353
11.126	64.5686
11.144	64.623
11.162	64.6709
11.18	64.6924
11.198	64.6833
11.216	64.6539
11.234	64.6186
11.252	64.5841
11.27	64.5441
11.288	64.4835
11.306	64.3933
11.324	64.2815
11.342	64.1761
11.36	64.1144
11.378	64.1285
11.396	64.2265
11.414	64.3876
11.432	64.5694
11.45	64.7268
11.468	64.8235
11.486	64.8461
11.504	64.8028
11.522	64.7158
11.54	64.609
11.558	64.502
11.576	64.4076
11.594	64.3323
11.612	64.281
11.63	64.2575
11.648	64.2633
11.666	64.2956
11.684	64.3459
11.702	64.4023
11.72	64.451
11.738	64.4822
11.756	64.4934
11.774	64.4897
11.792	64.4824
11.81	64.4838
11.828	64.5024
11.846	64.5383
11.864	64.5817
11.882	64.6171
11.9	64.6292
11.918	64.6088
11.936	64.5564
11.954	64.4809
11.972	64.3979
11.99	64.3233
12.008	64.269
12.026	64.2392
12.044	64.231
12.062	64.2347
12.08	64.2374
12.098	64.2288
12.116	64.2045
12.134	64.169
12.152	64.1345
12.17	64.1169
12.188	64.1306
12.206	64.1822
12.224	64.2665
12.242	64.3679
12.26	64.4642
12.278	64.5324
12.296	64.5563
12.314	64.5314
12.332	64.465
12.35	64.3734
12.368	64.277
12.386	64.1946
12.404	64.1381
12.422	64.1113
12.44	64.1119
12.458	64.1338
12.476	64.17
12.494	64.2151
12.512	64.265
12.53	64.3151
12.548	64.359
12.566	64.3889
12.584	64.3974
12.602	64.3797
12.62	64.3354
12.638	64.2694
12.656	64.1904
12.674	64.1083
12.692	64.0319
12.71	63.9669
12.728	63.9155
12.746	63.8773
12.764	63.8508
12.782	63.8348
12.8	63.8289
12.818	63.8337
12.836	63.8503
12.854	63.8798
12.872	63.9207
12.89	63.9707
12.908	64.026
12.926	64.0821
12.944	64.1343
12.962	64.1781
12.98	64.2094
12.998	64.2244
13.016	64.2197
13.034	64.1927
13.052	64.143
13.07	64.0729
13.088	63.9881
13.106	63.8974
13.124	63.8123
13.142	63.7445
13.16	63.704
13.178	63.6963
13.196	63.722
13.214	63.7752
13.232	63.8452
13.25	63.9173
13.268	63.9768
13.286	64.0103
13.304	64.0078
13.322	63.9643
13.34	63.8804
13.358	63.7614
13.376	63.6168
13.394	63.4586
13.412	63.2997
13.43	63.1532
13.448	63.0304
13.466	62.9403
13.484	62.8885
13.502	62.8771
13.52	62.9049
13.538	62.967
13.556	63.0561
13.574	63.1632
13.592	63.2789
13.61	63.3938
13.628	63.4997
13.646	63.5897
13.664	63.6591
13.682	63.7053
13.7	63.7282
13.718	63.7297
13.736	63.7138
13.754	63.6865
13.772	63.6537
13.79	63.6215
13.808	63.5938
13.826	63.5731
13.844	63.5592
13.862	63.5503
13.88	63.5429
13.898	63.533
13.916	63.5175
13.934	63.4944
13.952	63.4639
13.97	63.4284
13.988	63.3921
14.006	63.3592
14.024	63.3338
14.042	63.3186
14.06	63.3147
14.078	63.3208
14.096	63.3339
14.114	63.3499
14.132	63.3641
14.15	63.372
14.168	63.3704
14.186	63.3575
14.204	63.3325
14.222	63.2969
14.24	63.2544
14.258	63.21
14.276	63.1692
14.294	63.1371
14.312	63.1176
14.33	63.1134
14.348	63.1245
14.366	63.1489
14.384	63.1819
14.402	63.2175
14.42	63.2499
14.438	63.2739
14.456	63.2865
14.474	63.2872
14.492	63.2779
14.51	63.2637
14.528	63.251
14.546	63.2459
14.564	63.2529
14.582	63.2744
14.6	63.3099
14.618	63.356
14.636	63.4067
14.654	63.4546
14.672	63.4935
14.69	63.5178
14.708	63.5238
14.726	63.5096
14.744	63.4757
14.762	63.4242
14.78	63.3586
14.798	63.283
14.816	63.202
14.834	63.1203
14.852	63.0426
14.87	62.9727
14.888	62.914
14.906	62.8691
14.924	62.8398
14.942	62.8269
14.96	62.8299
14.978	62.8476
14.996	62.8781
15.014	62.9188
15.032	62.966
15.05	63.0159
15.068	63.0655
15.086	63.1118
15.104	63.1524
15.122	63.1857
15.14	63.211
15.158	63.2284
15.176	63.2384
15.194	63.2421
15.212	63.2408
15.23	63.2359
15.248	63.2283
15.266	63.2188
15.284	63.2083
15.302	63.197
15.32	63.1853
15.338	63.1731
15.356	63.1602
15.374	63.1461
15.392	63.13
15.41	63.1111
15.428	63.0891
15.446	63.0627
15.464	63.0314
15.482	62.9945
15.5	62.9513
15.518	62.9013
15.536	62.8443
15.554	62.7806
15.572	62.7105
15.59	62.6358
15.608	62.5582
15.626	62.4798
15.644	62.4036
15.662	62.3329
15.68	62.2706
15.698	62.2195
15.716	62.1828
15.734	62.1622
15.752	62.1589
15.77	62.1733
15.788	62.2052
15.806	62.2536
15.824	62.3173
15.842	62.3943
15.86	62.4818
15.878	62.577
15.896	62.6772
15.914	62.778
15.932	62.8757
15.95	62.967
15.968	63.0477
15.986	63.1136
16.004	63.162
16.022	63.1902
16.04	63.1964
16.058	63.1804
16.076	63.1423
16.094	63.0842
16.112	63.0091
16.13	62.9199
16.148	62.8213
16.166	62.7186
16.184	62.6155
16.202	62.5165
16.22	62.4258
16.238	62.3454
16.256	62.2774
16.274	62.2228
16.292	62.1808
16.31	62.1509
16.328	62.1308
16.346	62.1183
16.364	62.1115
16.382	62.1075
16.4	62.1044
16.418	62.1008
16.436	62.0953
16.454	62.0878
16.472	62.0782
16.49	62.0676
16.508	62.0572
16.526	62.0482
16.544	62.0432
16.562	62.0435
16.58	62.0507
16.598	62.0662
16.616	62.0903
16.634	62.1233
16.652	62.164
16.67	62.211
16.688	62.2627
16.706	62.316
16.724	62.3692
16.742	62.4197
16.76	62.4646
16.778	62.5027
16.796	62.5317
16.814	62.5511
16.832	62.5604
16.85	62.5597
16.868	62.55
16.886	62.5319
16.904	62.5074
16.922	62.4778
16.94	62.4448
16.958	62.4104
16.976	62.3757
16.994	62.3426
17.012	62.3119
17.03	62.2841
17.048	62.2596
17.066	62.2381
17.084	62.2195
17.102	62.2031
17.12	62.1888
17.138	62.1761
17.156	62.1653
17.174	62.1562
17.192	62.1497
17.21	62.1462
17.228	62.1469
17.246	62.1525
17.264	62.1638
17.282	62.1816
17.3	62.2059
17.318	62.2367
17.336	62.2728
17.354	62.3137
17.372	62.3566
17.39	62.4006
17.408	62.4426
17.426	62.4806
17.444	62.5128
17.462	62.5368
17.48	62.5521
17.498	62.5576
17.516	62.5538
17.534	62.5407
17.552	62.5206
17.57	62.4939
17.588	62.4637
17.606	62.4311
17.624	62.3982
17.642	62.3666
17.66	62.3371
17.678	62.3107
17.696	62.2875
17.714	62.2674
17.732	62.2501
17.75	62.2353
17.768	62.2223
17.786	62.2106
17.804	62.1998
17.822	62.1897
17.84	62.1797
17.858	62.1696
17.876	62.159
17.894	62.1474
17.912	62.1345
17.93	62.1192
17.948	62.1013
17.966	62.0799
17.984	62.0549
18.002	62.0254
18.02	61.9918
18.038	61.954
18.056	61.9131
18.074	61.8693
18.092	61.8251
18.11	61.7808
18.128	61.7396
18.146	61.7022
18.164	61.6712
18.182	61.6474
18.2	61.6325
18.218	61.6266
18.236	61.6303
18.254	61.6426
18.272	61.6634
18.29	61.6901
18.308	61.7223
18.326	61.7564
18.344	61.792
18.362	61.8258
18.38	61.8574
18.398	61.8846
18.416	61.9074
18.434	61.9249
18.452	61.9377
18.47	61.9458
18.488	61.9502
18.506	61.9512
18.524	61.9503
18.542	61.9477
18.56	61.9443
18.578	61.9403
18.596	61.9357
18.614	61.9305
18.632	61.9244
18.65	61.917
18.668	61.9075
18.686	61.8959
18.704	61.8816
18.722	61.8647
18.74	61.8448
18.758	61.8223
18.776	61.7977
18.794	61.7714
18.812	61.7443
18.83	61.7168
18.848	61.6902
18.866	61.6646
18.884	61.6412
18.902	61.62
18.92	61.6014
18.938	61.5853
18.956	61.5714
18.974	61.5594
18.992	61.5486
19.01	61.5384
19.028	61.5276
19.046	61.5158
19.064	61.5016
19.082	61.4849
19.1	61.4646
19.118	61.4409
19.136	61.4133
19.154	61.3823
19.172	61.3477
19.19	61.3101
19.208	61.2703
19.226	61.2287
19.244	61.1867
19.262	61.1444
19.28	61.1039
19.298	61.0651
19.316	61.0301
19.334	60.9986
19.352	60.9726
19.37	60.9518
19.388	60.9374
19.406	60.9295
19.424	60.9283
19.442	60.9337
19.46	60.9454
19.478	60.9634
19.496	60.9863
19.514	61.0141
19.532	61.0448
19.55	61.0779
19.568	61.1118
19.586	61.1449
19.604	61.1766
19.622	61.2047
19.64	61.2292
19.658	61.2481
19.676	61.2617
19.694	61.2687
19.712	61.2693
19.73	61.2635
19.748	61.2511
19.766	61.2334
19.784	61.2102
19.802	61.1831
19.82	61.1527
19.838	61.1199
19.856	61.0862
19.874	61.0517
19.892	61.0186
19.91	60.9865
19.928	60.9573
19.946	60.9308
19.964	60.9081
19.982	60.8894
20	60.875
20.018	60.865
20.036	60.8597
20.054	60.8592
20.072	60.8635
20.09	60.873
20.108	60.8875
20.126	60.9073
20.144	60.9325
20.162	60.9629
20.18	60.9988
20.198	61.0399
20.216	61.0864
20.234	61.138
20.252	61.1942
20.27	61.2552
20.288	61.3193
20.306	61.3868
20.324	61.4557
20.342	61.5251
20.36	61.5941
20.378	61.66
20.396	61.7233
20.414	61.7802
20.432	61.8312
20.45	61.8739
20.468	61.9074
20.486	61.9314
20.504	61.9441
20.522	61.9462
20.54	61.9373
20.558	61.9173
20.576	61.8876
20.594	61.8481
20.612	61.8
20.63	61.746
20.648	61.6856
20.666	61.6224
20.684	61.556
20.702	61.489
20.72	61.4234
20.738	61.3589
20.756	61.2981
20.774	61.2404
20.792	61.1871
20.81	61.1386
20.828	61.0944
20.846	61.0542
20.864	61.018
20.882	60.984
20.9	60.9526
20.918	60.922
20.936	60.8908
20.954	60.8593
20.972	60.8252
20.99	60.7888
21.008	60.7492
21.026	60.7056
21.044	60.6584
21.062	60.6074
21.08	60.5525
21.098	60.4947
21.116	60.4339
21.134	60.3708
21.152	60.3067
21.17	60.2413
21.188	60.1759
21.206	60.1106
21.224	60.0457
21.242	59.9816
21.26	59.9183
21.278	59.8553
21.296	59.7928
21.314	59.7302
21.332	59.6666
21.35	59.6023
21.368	59.5361
21.386	59.4677
21.404	59.3969
21.422	59.3233
21.44	59.2467
21.458	59.1678
21.476	59.0863
21.494	59.0027
21.512	58.9189
21.53	58.8342
21.548	58.751
21.566	58.671
21.584	58.5938
21.602	58.5233
21.62	58.4594
21.638	58.4032
21.656	58.3573
21.674	58.3208
21.692	58.2952
21.71	58.2814
21.728	58.2787
21.746	58.2869
21.764	58.3065
21.782	58.3357
21.8	58.374
21.818	58.4214
21.836	58.4741
21.854	58.5323
21.872	58.5946
21.89	58.6576
21.908	58.7224
21.926	58.7867
21.944	58.8484
21.962	58.9085
21.98	58.9652
21.998	59.0182
22.016	59.0679
22.034	59.1141
22.052	59.1567
22.07	59.1966
22.088	59.2347
22.106	59.2704
22.124	59.3056
22.142	59.3405
22.16	59.375
22.178	59.4106
22.196	59.4471
22.214	59.4846
22.232	59.5232
22.25	59.5632
22.268	59.6035
22.286	59.6441
22.304	59.685
22.322	59.7243
22.34	59.7621
22.358	59.798
22.376	59.8301
22.394	59.8589
22.412	59.8838
22.43	59.9037
22.448	59.9188
22.466	59.9293
22.484	59.9349
22.502	59.9356
22.52	59.9327
22.538	59.9265
22.556	59.9168
22.574	59.9055
22.592	59.8927
22.61	59.8786
22.628	59.8647
22.646	59.8508
22.664	59.8374
22.682	59.826
22.7	59.8163
22.718	59.8083
22.736	59.8026
22.754	59.7994
22.772	59.7974
22.79	59.7962
22.808	59.7964
22.826	59.7956
22.844	59.7926
22.862	59.7883
22.88	59.7799
22.898	59.7662
22.916	59.7482
22.934	59.7229
22.952	59.6894
22.97	59.6485
22.988	59.5991
23.006	59.5406
23.024	59.4737
23.042	59.3988
23.06	59.3157
23.078	59.2248
23.096	59.1272
23.114	59.0222
23.132	58.9108
23.15	58.7952
23.168	58.6744
23.186	58.5498
23.204	58.4259
23.222	58.3018
23.24	58.1783
23.258	58.0598
23.276	57.946
23.294	57.8368
23.312	57.7344
23.33	57.6386
23.348	57.5493
23.366	57.4675
23.384	57.3933
23.402	57.3264
23.42	57.2663
23.438	57.2133
23.456	57.167
23.474	57.1266
23.492	57.0918
23.51	57.0629
23.528	57.0392
23.546	57.0206
23.564	57.0073
23.582	56.9984
23.6	56.9938
23.618	56.9938
23.636	56.997
23.654	57.0028
23.672	57.0118
23.69	57.0231
23.708	57.0362
23.726	57.0515
23.744	57.0686
23.762	57.0871
23.78	57.1078
23.798	57.1293
23.816	57.1507
23.834	57.1732
23.852	57.195
23.87	57.2136
23.888	57.2305
23.906	57.2442
23.924	57.2505
23.942	57.2505
23.96	57.2437
23.978	57.225
23.996	57.1939
24.014	57.152
24.032	57.0924
24.05	57.0112
24.068	56.9124
24.086	56.7905
24.104	56.6398
24.122	56.4638
24.14	56.2602
24.158	56.0248
24.176	55.7576
24.194	55.46
24.212	55.1329
24.23	54.7739
24.248	54.3845
24.266	53.9722
24.284	53.5393
24.302	53.0805
24.32	52.6093
24.338	52.1377
24.356	51.6575
24.374	51.1761
24.392	50.7054
24.41	50.2405
24.428	49.784
24.446	49.3514
24.464	48.9473
24.482	48.5639
24.5	48.2176
24.518	47.9213
24.536	47.6628
24.554	47.4547
24.572	47.3153
24.59	47.2406
24.608	47.2299
24.626	47.2955
24.644	47.443
24.662	47.6657
24.68	47.9699
24.698	48.3615
24.716	48.8344
24.734	49.3938
24.752	50.0486
24.77	50.8038
24.788	51.6535
24.806	52.5914
24.824	53.6157
24.842	54.736
24.86	55.9311
24.878	57.1772
24.896	58.492
24.914	59.8639
24.932	61.2514
24.95	62.6393
24.968	64.0574
24.986	65.4532
25.004	66.7716
25.022	68.0423
25.04	69.2518
25.058	70.3491
25.076	71.3111
25.094	72.1667
25.112	72.8892
25.13	73.4504
25.148	73.856
25.166	74.1125
25.184	74.217
25.202	74.1609
25.22	73.9422
25.238	73.5888
25.256	73.1284
25.274	72.541
25.292	71.8389
25.31	71.06
25.328	70.2241
25.346	69.3044
25.364	68.3318
25.382	67.3426
25.4	66.3308
25.418	65.2905
25.436	64.2439
25.454	63.2087
25.472	62.1748
25.49	61.1426
25.508	60.116
25.526	59.0969
25.544	58.0832
25.562	57.0742
25.58	56.0692
25.598	55.0685
25.616	54.0721
25.634	53.0798
25.652	52.0883
25.67	51.093
25.688	50.1077
25.706	49.1481
25.724	48.2066
25.742	47.2797
25.76	46.3971
25.778	45.586
25.796	44.8305
25.814	44.1342
25.832	43.5159
25.85	42.9866
25.868	42.5297
25.886	42.16
25.904	41.8966
25.922	41.7512
25.94	41.7135
25.958	41.773
25.976	41.9196
25.994	42.1541
26.012	42.4786
26.03	42.8902
26.048	43.3847
26.066	43.9508
26.084	44.604
26.102	45.3657
26.12	46.2437
26.138	47.2088
26.156	48.2991
26.174	49.5609
26.192	50.995
26.21	52.5634
26.228	54.3375
26.246	56.3923
26.264	58.7198
26.282	61.2888
26.3	64.159
26.318	67.3889
26.336	70.9646
26.354	74.8701
26.372	79.1251
26.39	83.7499
26.408	88.7656
26.426	94.1368
26.444	99.8147
26.462	105.768
26.48	112.082
26.498	118.672
26.516	125.409
26.534	132.21
26.552	139.221
26.57	146.316
26.588	153.32
26.606	160.154
26.624	167.042
26.642	173.738
26.66	179.939
26.678	185.541
26.696	190.9
26.714	195.599
26.732	199.156
26.75	201.045
26.768	201.269
26.786	200.653
26.804	200.051
26.822	200
26.84	200
26.858	200
26.876	200
26.894	200.059
26.912	200.25
26.93	200.363
26.948	200.175
26.966	199.427
26.984	198.095
27.002	196.602
27.02	195.393
27.028	195.093