File: Bakgrunnsmateriale/MATLAB/FTIR/ftir_data/subBb/Mapping_121/C-4040-8_t31.asc
PE IR       SPECTRUM    SPECTRUM    ASCII       PEDS        1.60
  -1
C-A13E~1.ASC
17/03/27
17:01:45.00
17/03/27
17:02:11.00
tln
$C-4040-8_t0031$<tbV0>[-7.8,-7.8,8.0,0.0,27,1,0]
27.028
64

2002,4.07
MIRTGS : RIGHTBACK : INTERNAL 2
MIR : ON : INTERNAL 2
OPTKBR

0.200000
8
8.000000
FILLER
RATIO
SPECTRUM
UNLOCKED 256

DOUBLE
64
COMBINED
1
0
0

0.002000
RATIO

1
0
TRUE
51149
0
LEFT NOT FITTED RIGHT NOT FITTED 0
NONE
NONE
15600
12
4.427000
51148
TRUE
1 0 8 72 0 0 0 0

15798

#HDR
-1
-1
#GR
µM
%T
2.38419e-05
0.0
2.000000
0.002000
12515
8
77.2903
15.0696
#DATA
2.000000	 63.7169
2.018000	 63.9527
2.036000	 63.9492
2.054000	 64.2025
2.072000	 63.9233
2.090000	 63.8922
2.108000	 63.9871
2.126000	 63.7426
2.144000	 64.2204
2.162000	 63.7718
2.180000	 63.828
2.198000	 63.7277
2.216000	 63.7715
2.234000	 63.7476
2.252000	 63.2981
2.270000	 62.7027
2.288000	 62.6606
2.306000	 63.8163
2.324000	 63.1301
2.342000	 63.2394
2.360000	 62.9786
2.378000	 62.7792
2.396000	 62.9693
2.414000	 63.3019
2.432000	 63.1973
2.450000	 63.0477
2.468000	 62.939
2.486000	 63.1002
2.504000	 63.0554
2.522000	 63.0216
2.540000	 62.8655
2.558000	 62.5256
2.576000	 62.8122
2.594000	 62.7953
2.612000	 62.2788
2.630000	 62.4751
2.648000	 62.3615
2.666000	 62.3446
2.684000	 62.1824
2.702000	 62.2825
2.720000	 62.1567
2.738000	 62.1881
2.756000	 62.0399
2.774000	 61.6056
2.792000	 61.9259
2.810000	 61.6569
2.828000	 61.534
2.846000	 61.6156
2.864000	 61.4437
2.882000	 61.3483
2.900000	 61.2519
2.918000	 61.2155
2.936000	 60.9639
2.954000	 60.945
2.972000	 60.7679
2.990000	 60.6566
3.008000	 60.4752
3.026000	 60.6802
3.044000	 60.2821
3.062000	 60.4806
3.080000	 60.3608
3.098000	 60.1771
3.116000	 59.9905
3.134000	 60.1117
3.152000	 59.8982
3.170000	 59.6694
3.188000	 59.5432
3.206000	 59.54
3.224000	 59.3893
3.242000	 59.4338
3.260000	 59.2869
3.278000	 59.1594
3.296000	 59.0159
3.314000	 58.8466
3.332000	 58.8758
3.350000	 58.8721
3.368000	 58.7527
3.386000	 58.4631
3.404000	 58.3291
3.422000	 58.1163
3.440000	 58.1567
3.458000	 58.1133
3.476000	 57.8168
3.494000	 57.7363
3.512000	 57.7658
3.530000	 57.76
3.548000	 57.6653
3.566000	 57.5965
3.584000	 57.5264
3.602000	 57.3184
3.620000	 57.2643
3.638000	 57.2345
3.656000	 57.0361
3.674000	 56.9225
3.692000	 56.9047
3.710000	 56.8244
3.728000	 56.6225
3.746000	 56.6524
3.764000	 56.497
3.782000	 56.1407
3.800000	 56.2725
3.818000	 56.1283
3.836000	 56.0439
3.854000	 55.9396
3.872000	 55.9379
3.890000	 55.8882
3.908000	 55.5294
3.926000	 55.5433
3.944000	 55.4584
3.962000	 55.3217
3.980000	 55.1394
3.998000	 55.0544
4.016000	 54.9326
4.034000	 54.9298
4.052000	 54.8207
4.070000	 54.7451
4.088000	 54.6887
4.106000	 54.4433
4.124000	 54.8207
4.141999	 54.6462
4.160000	 54.5051
4.178000	 54.2415
4.196000	 54.094
4.214000	 53.9624
4.232000	 53.9193
4.250000	 53.706
4.268000	 53.716
4.286000	 53.6121
4.304000	 53.5395
4.322000	 53.486
4.340000	 53.4124
4.358000	 53.273
4.375999	 53.1683
4.394000	 53.0717
4.412000	 53.0246
4.430000	 52.8943
4.448000	 52.8975
4.466000	 52.7626
4.484000	 52.7029
4.502000	 52.4841
4.520000	 52.5375
4.538000	 52.4302
4.556000	 52.3536
4.574000	 52.3359
4.592000	 52.1765
4.609999	 52.0306
4.628000	 52.0366
4.646000	 51.9316
4.664000	 51.8147
4.682000	 51.7489
4.700000	 51.6739
4.718000	 51.657
4.736000	 51.5719
4.754000	 51.5037
4.772000	 51.3693
4.790000	 51.3536
4.808000	 51.2477
4.826000	 51.0791
4.843999	 50.8539
4.862000	 50.9448
4.880000	 50.8775
4.898000	 50.7778
4.916000	 50.5981
4.934000	 50.5558
4.952000	 50.4762
4.970000	 50.5796
4.988000	 50.5093
5.006000	 50.3254
5.024000	 50.2239
5.042000	 50.1414
5.060000	 50.0057
5.077999	 49.9429
5.096000	 49.9328
5.114000	 49.9302
5.132000	 49.7864
5.150000	 49.6546
5.168000	 49.6082
5.186000	 49.6067
5.204000	 49.5806
5.222000	 49.4632
5.240000	 49.3614
5.258000	 49.2556
5.276000	 49.1699
5.294000	 49.1195
5.312000	 49.0973
5.330000	 49.0341
5.348000	 48.9691
5.366000	 48.9369
5.384000	 48.8349
5.402000	 48.7332
5.420000	 48.6486
5.438000	 48.7104
5.456000	 48.6512
5.474000	 48.5271
5.492000	 48.3502
5.510000	 48.2399
5.528000	 48.22
5.546000	 48.196
5.564000	 48.1865
5.582000	 48.0928
5.600000	 48.0584
5.618000	 47.9665
5.636000	 47.8345
5.654000	 47.8719
5.672000	 47.8227
5.690000	 47.726
5.708000	 47.6755
5.726000	 47.6065
5.744000	 47.5089
5.762000	 47.3645
5.780000	 47.274
5.798000	 47.2071
5.816000	 47.0977
5.834000	 47.1907
5.852000	 47.2655
5.870000	 47.1359
5.888000	 47.1071
5.906000	 47.0974
5.923999	 46.9902
5.942000	 46.8695
5.960000	 46.8913
5.978000	 46.8523
5.996000	 46.6901
6.014000	 46.6285
6.032000	 46.6022
6.050000	 46.5409
6.068000	 46.5667
6.086000	 46.5664
6.104000	 46.4718
6.122000	 46.4057
6.140000	 46.3723
6.158000	 46.3161
6.176000	 46.1677
6.194000	 46.0725
6.212000	 46.0931
6.230000	 46.0648
6.248000	 45.9669
6.266000	 45.909
6.284000	 45.8637
6.302000	 45.8441
6.320000	 45.8732
6.338000	 45.8246
6.356000	 45.6868
6.374000	 45.6297
6.392000	 45.6154
6.410000	 45.5875
6.428000	 45.562
6.446000	 45.488
6.464000	 45.3764
6.482000	 45.2914
6.500000	 45.2271
6.518000	 45.174
6.536000	 45.1754
6.554000	 45.1685
6.572000	 45.035
6.590000	 44.9185
6.608000	 44.9492
6.626000	 44.9894
6.644000	 44.9501
6.662000	 44.9154
6.680000	 44.9025
6.698000	 44.7974
6.716000	 44.6645
6.734000	 44.635
6.752000	 44.6256
6.770000	 44.596
6.788000	 44.6137
6.806000	 44.6053
6.824000	 44.4927
6.842000	 44.3474
6.860000	 44.2324
6.878000	 44.1802
6.896000	 44.2072
6.914000	 44.2828
6.932000	 44.3486
6.950000	 44.3091
6.968000	 44.1463
6.986000	 43.9606
7.004000	 43.8635
7.022000	 43.8788
7.040000	 43.8935
7.058000	 43.8354
7.076000	 43.7907
7.094000	 43.8145
7.112000	 43.8229
7.130000	 43.7642
7.148000	 43.6835
7.166000	 43.6085
7.184000	 43.5523
7.202000	 43.5226
7.220000	 43.4734
7.238000	 43.4
7.256000	 43.3643
7.274000	 43.357
7.292000	 43.2904
7.310000	 43.1418
7.328000	 43.0147
7.346000	 43.0237
7.364000	 43.1353
7.382000	 43.2069
7.400000	 43.1654
7.418000	 43.0447
7.436000	 42.9162
7.454000	 42.8487
7.472000	 42.8547
7.490000	 42.8728
7.508000	 42.8555
7.526000	 42.8204
7.544000	 42.8009
7.562000	 42.7913
7.580000	 42.7688
7.598000	 42.7361
7.616000	 42.7044
7.634000	 42.6628
7.652000	 42.6041
7.670000	 42.538
7.688000	 42.4667
7.706000	 42.3943
7.724000	 42.3407
7.742000	 42.3092
7.760000	 42.2923
7.778000	 42.2982
7.796000	 42.3184
7.814000	 42.3177
7.832000	 42.296
7.850000	 42.2889
7.868000	 42.3008
7.886000	 42.2995
7.904000	 42.2591
7.922000	 42.166
7.940000	 42.037
7.958000	 41.9352
7.976000	 41.9003
7.994000	 41.8985
8.012000	 41.8974
8.030000	 41.9111
8.048000	 41.9355
8.065999	 41.9295
8.084000	 41.882
8.102000	 41.8255
8.120000	 41.7698
8.138000	 41.6978
8.155999	 41.6238
8.173999	 41.5945
8.192000	 41.6189
8.210000	 41.6475
8.228000	 41.6317
8.246000	 41.5675
8.263999	 41.4808
8.282000	 41.4015
8.300000	 41.3525
8.318000	 41.3347
8.336000	 41.3166
8.353999	 41.2697
8.372000	 41.2003
8.390000	 41.1272
8.408000	 41.0522
8.426000	 40.9769
8.443999	 40.9281
8.462000	 40.9361
8.480000	 40.9932
8.498000	 41.0571
8.516000	 41.0967
8.533999	 41.1118
8.552000	 41.1096
8.570000	 41.0832
8.588000	 41.0282
8.606000	 40.9651
8.624000	 40.925
8.641999	 40.9155
8.660000	 40.9123
8.678000	 40.8874
8.696000	 40.8301
8.714000	 40.7418
8.731999	 40.6298
8.750000	 40.5228
8.768000	 40.4632
8.786000	 40.4688
8.804000	 40.5073
8.821999	 40.5325
8.840000	 40.5418
8.858000	 40.5768
8.876000	 40.6692
8.894000	 40.8055
8.911999	 40.9393
8.930000	 41.0153
8.948000	 40.9814
8.966000	 40.807
8.984000	 40.5222
9.001999	 40.2227
9.020000	 40.0099
9.038000	 39.9233
9.056000	 39.9312
9.074000	 39.9709
9.092000	 39.9891
9.109999	 39.9595
9.128000	 39.8892
9.146000	 39.8145
9.164000	 39.7693
9.182000	 39.7491
9.199999	 39.7182
9.218000	 39.6572
9.236000	 39.5889
9.254000	 39.5489
9.272000	 39.5421
9.289999	 39.5422
9.308000	 39.5282
9.326000	 39.5037
9.344000	 39.4778
9.362000	 39.4444
9.379999	 39.3988
9.398000	 39.3593
9.416000	 39.3555
9.434000	 39.3972
9.452000	 39.4653
9.469999	 39.5346
9.488000	 39.5974
9.506000	 39.654
9.524000	 39.6884
9.542000	 39.6706
9.560000	 39.5856
9.577999	 39.4522
9.596000	 39.3104
9.614000	 39.1973
9.632000	 39.135
9.650000	 39.129
9.667999	 39.1713
9.686000	 39.2476
9.704000	 39.3407
9.722000	 39.4353
9.740000	 39.5174
9.757999	 39.5701
9.776000	 39.5719
9.794000	 39.5035
9.812000	 39.3647
9.830000	 39.1832
9.847999	 39.0079
9.866000	 38.8871
9.884000	 38.8454
9.902000	 38.8717
9.920000	 38.9258
9.937999	 38.9605
9.956000	 38.9494
9.974000	 38.8958
9.992000	 38.8261
10.01	38.7695
10.028	38.7435
10.046	38.7465
10.064	38.7655
10.082	38.7866
10.1	38.8012
10.118	38.8078
10.136	38.8045
10.154	38.7869
10.172	38.7492
10.19	38.6889
10.208	38.6148
10.226	38.5443
10.244	38.4958
10.262	38.4781
10.28	38.4839
10.298	38.4952
10.316	38.4921
10.334	38.4631
10.352	38.4082
10.37	38.337
10.388	38.265
10.406	38.2084
10.424	38.1812
10.442	38.1896
10.46	38.228
10.478	38.28
10.496	38.324
10.514	38.3447
10.532	38.3393
10.55	38.3167
10.568	38.2894
10.586	38.2646
10.604	38.2407
10.622	38.2108
10.64	38.1715
10.658	38.126
10.676	38.0835
10.694	38.0509
10.712	38.0268
10.73	37.9997
10.748	37.9556
10.766	37.8884
10.784	37.8059
10.802	37.7289
10.82	37.6796
10.838	37.6711
10.856	37.7
10.874	37.7472
10.892	37.7881
10.91	37.8015
10.928	37.7794
10.946	37.727
10.964	37.6593
10.982	37.5947
11	37.5465
11.018	37.5205
11.036	37.5129
11.054	37.513
11.072	37.5087
11.09	37.4907
11.108	37.4571
11.126	37.4137
11.144	37.3704
11.162	37.3377
11.18	37.3211
11.198	37.3194
11.216	37.3266
11.234	37.3354
11.252	37.3398
11.27	37.3381
11.288	37.3314
11.306	37.3212
11.324	37.3074
11.342	37.2883
11.36	37.2624
11.378	37.23
11.396	37.1941
11.414	37.1602
11.432	37.133
11.45	37.1134
11.468	37.0995
11.486	37.0883
11.504	37.0778
11.522	37.0682
11.54	37.062
11.558	37.0612
11.576	37.0656
11.594	37.0713
11.612	37.0716
11.63	37.0596
11.648	37.0312
11.666	36.9868
11.684	36.9324
11.702	36.8775
11.72	36.832
11.738	36.803
11.756	36.7921
11.774	36.7942
11.792	36.799
11.81	36.7939
11.828	36.7694
11.846	36.7219
11.864	36.6565
11.882	36.5848
11.9	36.5214
11.918	36.4789
11.936	36.4626
11.954	36.4702
11.972	36.4916
11.99	36.513
12.008	36.5211
12.026	36.5074
12.044	36.4692
12.062	36.4118
12.08	36.3456
12.098	36.2827
12.116	36.2336
12.134	36.2038
12.152	36.192
12.17	36.1921
12.188	36.1949
12.206	36.1913
12.224	36.1752
12.242	36.1458
12.26	36.1066
12.278	36.0647
12.296	36.0285
12.314	36.0054
12.332	35.9992
12.35	36.0092
12.368	36.03
12.386	36.0532
12.404	36.0697
12.422	36.0723
12.44	36.0572
12.458	36.0249
12.476	35.9799
12.494	35.9289
12.512	35.8787
12.53	35.8344
12.548	35.7981
12.566	35.7691
12.584	35.7439
12.602	35.7177
12.62	35.6865
12.638	35.6483
12.656	35.6049
12.674	35.5604
12.692	35.5204
12.71	35.4909
12.728	35.476
12.746	35.4767
12.764	35.4894
12.782	35.5075
12.8	35.5218
12.818	35.5238
12.836	35.5073
12.854	35.4701
12.872	35.4143
12.89	35.3461
12.908	35.274
12.926	35.2071
12.944	35.1531
12.962	35.1172
12.98	35.101
12.998	35.1027
13.016	35.1172
13.034	35.1369
13.052	35.1525
13.07	35.1552
13.088	35.1373
13.106	35.0944
13.124	35.0262
13.142	34.9369
13.16	34.8346
13.178	34.7297
13.196	34.6334
13.214	34.5543
13.232	34.4969
13.25	34.4608
13.268	34.4408
13.286	34.429
13.304	34.4172
13.322	34.3992
13.34	34.3726
13.358	34.3395
13.376	34.3059
13.394	34.2789
13.412	34.2649
13.43	34.2674
13.448	34.2858
13.466	34.3151
13.484	34.348
13.502	34.3761
13.52	34.3927
13.538	34.3943
13.556	34.3817
13.574	34.3594
13.592	34.3339
13.61	34.3124
13.628	34.3004
13.646	34.3004
13.664	34.3112
13.682	34.329
13.7	34.3476
13.718	34.3608
13.736	34.3633
13.754	34.3525
13.772	34.3282
13.79	34.2926
13.808	34.2497
13.826	34.2038
13.844	34.1585
13.862	34.1163
13.88	34.0778
13.898	34.0426
13.916	34.0093
13.934	33.9767
13.952	33.9441
13.97	33.9119
13.988	33.8815
14.006	33.8552
14.024	33.8355
14.042	33.8245
14.06	33.8231
14.078	33.8311
14.096	33.847
14.114	33.868
14.132	33.8906
14.15	33.9109
14.168	33.9256
14.186	33.9318
14.204	33.9275
14.222	33.9121
14.24	33.8859
14.258	33.8502
14.276	33.8071
14.294	33.7587
14.312	33.7076
14.33	33.6562
14.348	33.6065
14.366	33.5602
14.384	33.5184
14.402	33.4818
14.42	33.4512
14.438	33.4268
14.456	33.4087
14.474	33.3968
14.492	33.3907
14.51	33.39
14.528	33.3941
14.546	33.4022
14.564	33.4136
14.582	33.4272
14.6	33.4419
14.618	33.4564
14.636	33.4693
14.654	33.4787
14.672	33.4831
14.69	33.4811
14.708	33.4712
14.726	33.4528
14.744	33.4253
14.762	33.3893
14.78	33.3456
14.798	33.2953
14.816	33.2401
14.834	33.1813
14.852	33.1204
14.87	33.0581
14.888	32.9952
14.906	32.9318
14.924	32.8683
14.942	32.8047
14.96	32.7414
14.978	32.6795
14.996	32.6201
15.014	32.565
15.032	32.5161
15.05	32.4755
15.068	32.4445
15.086	32.4242
15.104	32.4146
15.122	32.415
15.14	32.4234
15.158	32.4377
15.176	32.4555
15.194	32.474
15.212	32.4906
15.23	32.5037
15.248	32.5121
15.266	32.5153
15.284	32.5134
15.302	32.5072
15.32	32.4975
15.338	32.4852
15.356	32.4714
15.374	32.4568
15.392	32.4414
15.41	32.425
15.428	32.4072
15.446	32.387
15.464	32.3635
15.482	32.3363
15.5	32.3046
15.518	32.2682
15.536	32.2273
15.554	32.1827
15.572	32.1352
15.59	32.0867
15.608	32.0385
15.626	31.992
15.644	31.9489
15.662	31.9103
15.68	31.877
15.698	31.8494
15.716	31.8274
15.734	31.8103
15.752	31.7976
15.77	31.7881
15.788	31.7804
15.806	31.7736
15.824	31.7667
15.842	31.7587
15.86	31.749
15.878	31.7371
15.896	31.7231
15.914	31.707
15.932	31.689
15.95	31.669
15.968	31.6473
15.986	31.6239
16.004	31.5989
16.022	31.5727
16.04	31.5452
16.058	31.5169
16.076	31.4882
16.094	31.4601
16.112	31.4335
16.13	31.4094
16.148	31.3891
16.166	31.3737
16.184	31.3638
16.202	31.3599
16.22	31.3618
16.238	31.3684
16.256	31.3791
16.274	31.3913
16.292	31.403
16.31	31.4124
16.328	31.4164
16.346	31.4135
16.364	31.4025
16.382	31.3823
16.4	31.3535
16.418	31.3165
16.436	31.2732
16.454	31.2258
16.472	31.1758
16.49	31.1262
16.508	31.0785
16.526	31.0339
16.544	30.9936
16.562	30.9573
16.58	30.9249
16.598	30.8952
16.616	30.8672
16.634	30.8399
16.652	30.8118
16.67	30.7826
16.688	30.7515
16.706	30.7188
16.724	30.6849
16.742	30.6508
16.76	30.6176
16.778	30.5859
16.796	30.5574
16.814	30.5329
16.832	30.5129
16.85	30.4985
16.868	30.4894
16.886	30.4857
16.904	30.487
16.922	30.4927
16.94	30.5022
16.958	30.5145
16.976	30.5289
16.994	30.5445
17.012	30.5602
17.03	30.5754
17.048	30.5887
17.066	30.5996
17.084	30.6072
17.102	30.6104
17.12	30.6089
17.138	30.6018
17.156	30.5888
17.174	30.5698
17.192	30.5451
17.21	30.5149
17.228	30.4799
17.246	30.4413
17.264	30.3999
17.282	30.3575
17.3	30.3148
17.318	30.2734
17.336	30.2344
17.354	30.1982
17.372	30.1657
17.39	30.1366
17.408	30.1111
17.426	30.0882
17.444	30.0678
17.462	30.048
17.48	30.0283
17.498	30.0073
17.516	29.9842
17.534	29.9581
17.552	29.9283
17.57	29.8945
17.588	29.8568
17.606	29.8152
17.624	29.7702
17.642	29.7227
17.66	29.673
17.678	29.6226
17.696	29.5718
17.714	29.5222
17.732	29.4743
17.75	29.4287
17.768	29.3861
17.786	29.3468
17.804	29.3115
17.822	29.28
17.84	29.2527
17.858	29.2293
17.876	29.2098
17.894	29.1937
17.912	29.1809
17.93	29.1709
17.948	29.1635
17.966	29.158
17.984	29.1541
18.002	29.1512
18.02	29.1489
18.038	29.1467
18.056	29.1438
18.074	29.14
18.092	29.1343
18.11	29.1266
18.128	29.1159
18.146	29.1022
18.164	29.0845
18.182	29.0626
18.2	29.0362
18.218	29.0048
18.236	28.9683
18.254	28.9267
18.272	28.8799
18.29	28.8283
18.308	28.772
18.326	28.712
18.344	28.6485
18.362	28.5829
18.38	28.516
18.398	28.4493
18.416	28.384
18.434	28.3214
18.452	28.2629
18.47	28.2096
18.488	28.1629
18.506	28.1235
18.524	28.0925
18.542	28.0704
18.56	28.0573
18.578	28.0532
18.596	28.0578
18.614	28.0711
18.632	28.0916
18.65	28.1194
18.668	28.1529
18.686	28.1919
18.704	28.2345
18.722	28.2806
18.74	28.3284
18.758	28.3777
18.776	28.4271
18.794	28.4761
18.812	28.5236
18.83	28.5692
18.848	28.612
18.866	28.6514
18.884	28.6867
18.902	28.7174
18.92	28.7425
18.938	28.7617
18.956	28.7741
18.974	28.7796
18.992	28.7774
19.01	28.7677
19.028	28.7501
19.046	28.7246
19.064	28.6913
19.082	28.6507
19.1	28.6034
19.118	28.55
19.136	28.4916
19.154	28.4287
19.172	28.363
19.19	28.2946
19.208	28.2252
19.226	28.1549
19.244	28.0852
19.262	28.0163
19.28	27.949
19.298	27.8834
19.316	27.8199
19.334	27.7585
19.352	27.6991
19.37	27.6415
19.388	27.5854
19.406	27.5307
19.424	27.4768
19.442	27.4237
19.46	27.3709
19.478	27.3182
19.496	27.2655
19.514	27.2127
19.532	27.1598
19.55	27.1067
19.568	27.0537
19.586	27.0012
19.604	26.9494
19.622	26.8988
19.64	26.8495
19.658	26.8027
19.676	26.7583
19.694	26.7171
19.712	26.6791
19.73	26.6453
19.748	26.6156
19.766	26.5904
19.784	26.5698
19.802	26.5539
19.82	26.5427
19.838	26.5359
19.856	26.5331
19.874	26.5342
19.892	26.5384
19.91	26.5457
19.928	26.5553
19.946	26.5671
19.964	26.5805
19.982	26.5952
20	26.6108
20.018	26.6268
20.036	26.6433
20.054	26.6599
20.072	26.6767
20.09	26.6934
20.108	26.7101
20.126	26.727
20.144	26.7439
20.162	26.7608
20.18	26.778
20.198	26.7952
20.216	26.8126
20.234	26.8302
20.252	26.8477
20.27	26.8652
20.288	26.8822
20.306	26.8988
20.324	26.9142
20.342	26.9282
20.36	26.9405
20.378	26.9503
20.396	26.9577
20.414	26.9615
20.432	26.9619
20.45	26.9583
20.468	26.9503
20.486	26.9379
20.504	26.9206
20.522	26.8987
20.54	26.8722
20.558	26.8412
20.576	26.8063
20.594	26.7676
20.612	26.7257
20.63	26.6819
20.648	26.636
20.666	26.5899
20.684	26.5433
20.702	26.4974
20.72	26.4532
20.738	26.4105
20.756	26.3707
20.774	26.3333
20.792	26.2992
20.81	26.2684
20.828	26.2408
20.846	26.2164
20.864	26.1951
20.882	26.1761
20.9	26.1596
20.918	26.1447
20.936	26.1309
20.954	26.1181
20.972	26.1051
20.99	26.0922
21.008	26.0787
21.026	26.0642
21.044	26.049
21.062	26.0328
21.08	26.0156
21.098	25.998
21.116	25.9797
21.134	25.9613
21.152	25.9434
21.17	25.9258
21.188	25.9094
21.206	25.8943
21.224	25.8807
21.242	25.8689
21.26	25.8589
21.278	25.8506
21.296	25.844
21.314	25.8388
21.332	25.8339
21.35	25.8299
21.368	25.8246
21.386	25.818
21.404	25.8094
21.422	25.7965
21.44	25.78
21.458	25.7577
21.476	25.7289
21.494	25.6935
21.512	25.65
21.53	25.5985
21.548	25.5389
21.566	25.4706
21.584	25.394
21.602	25.3105
21.62	25.2195
21.638	25.1226
21.656	25.0216
21.674	24.9157
21.692	24.8088
21.71	24.7013
21.728	24.594
21.746	24.4913
21.764	24.3918
21.782	24.2988
21.8	24.2148
21.818	24.1388
21.836	24.0738
21.854	24.0203
21.872	23.9783
21.89	23.9493
21.908	23.9329
21.926	23.9288
21.944	23.937
21.962	23.9573
21.98	23.9873
21.998	24.0275
22.016	24.0764
22.034	24.1305
22.052	24.1914
22.07	24.2555
22.088	24.3201
22.106	24.3865
22.124	24.45
22.142	24.5101
22.16	24.5664
22.178	24.6152
22.196	24.6572
22.214	24.6911
22.232	24.7148
22.25	24.729
22.268	24.7332
22.286	24.7268
22.304	24.71
22.322	24.6841
22.34	24.6485
22.358	24.6041
22.376	24.5535
22.394	24.4957
22.412	24.4326
22.43	24.3674
22.448	24.2983
22.466	24.2287
22.484	24.1611
22.502	24.0941
22.52	24.0313
22.538	23.9743
22.556	23.9221
22.574	23.8779
22.592	23.8422
22.61	23.8147
22.628	23.7969
22.646	23.789
22.664	23.7906
22.682	23.8021
22.7	23.8238
22.718	23.8544
22.736	23.8928
22.754	23.9399
22.772	23.9934
22.79	24.0517
22.808	24.116
22.826	24.1829
22.844	24.2504
22.862	24.3199
22.88	24.3871
22.898	24.4501
22.916	24.5103
22.934	24.5632
22.952	24.6075
22.97	24.6441
22.988	24.6696
23.006	24.6833
23.024	24.6859
23.042	24.6755
23.06	24.6518
23.078	24.6153
23.096	24.5661
23.114	24.5034
23.132	24.4284
23.15	24.3429
23.168	24.2462
23.186	24.1395
23.204	24.0263
23.222	23.9056
23.24	23.7788
23.258	23.6504
23.276	23.5192
23.294	23.3865
23.312	23.2573
23.33	23.131
23.348	23.008
23.366	22.8924
23.384	22.784
23.402	22.6827
23.42	22.5909
23.438	22.5089
23.456	22.4361
23.474	22.373
23.492	22.3199
23.51	22.2763
23.528	22.2412
23.546	22.2147
23.564	22.1969
23.582	22.185
23.6	22.1788
23.618	22.1787
23.636	22.1819
23.654	22.1868
23.672	22.1948
23.69	22.2032
23.708	22.2101
23.726	22.217
23.744	22.2221
23.762	22.2235
23.78	22.2223
23.798	22.2177
23.816	22.2089
23.834	22.1958
23.852	22.179
23.87	22.1584
23.888	22.1345
23.906	22.1069
23.924	22.0751
23.942	22.0394
23.96	21.9998
23.978	21.955
23.996	21.9048
24.014	21.8496
24.032	21.789
24.05	21.7228
24.068	21.651
24.086	21.5743
24.104	21.4937
24.122	21.4086
24.14	21.3195
24.158	21.2276
24.176	21.1317
24.194	21.033
24.212	20.9336
24.23	20.8331
24.248	20.7312
24.266	20.6324
24.284	20.5383
24.302	20.4465
24.32	20.3618
24.338	20.2888
24.356	20.2239
24.374	20.1706
24.392	20.1346
24.41	20.115
24.428	20.1114
24.446	20.128
24.464	20.1665
24.482	20.2248
24.5	20.3051
24.518	20.4093
24.536	20.5375
24.554	20.6875
24.572	20.8569
24.59	21.0487
24.608	21.2603
24.626	21.484
24.644	21.7181
24.662	21.9669
24.68	22.2197
24.698	22.4668
24.716	22.7161
24.734	22.9607
24.752	23.1886
24.77	23.4004
24.788	23.5988
24.806	23.7724
24.824	23.9138
24.842	24.0299
24.86	24.115
24.878	24.1612
24.896	24.1696
24.914	24.1417
24.932	24.0747
24.95	23.966
24.968	23.8163
24.986	23.63
25.004	23.411
25.022	23.1553
25.04	22.8665
25.058	22.5531
25.076	22.2178
25.094	21.8555
25.112	21.4751
25.13	21.0852
25.148	20.6798
25.166	20.2628
25.184	19.8445
25.202	19.4292
25.22	19.0106
25.238	18.5967
25.256	18.1962
25.274	17.8038
25.292	17.4219
25.31	17.0601
25.328	16.7231
25.346	16.4042
25.364	16.1108
25.382	15.8517
25.4	15.6226
25.418	15.4239
25.436	15.2667
25.454	15.1587
25.472	15.0904
25.49	15.0701
25.508	15.1094
25.526	15.2101
25.544	15.3661
25.562	15.5865
25.58	15.8797
25.598	16.242
25.616	16.673
25.634	17.1761
25.652	17.7545
25.67	18.4064
25.688	19.1295
25.706	19.9217
25.724	20.7857
25.742	21.7212
25.76	22.7181
25.778	23.768
25.796	24.8823
25.814	26.052
25.832	27.2581
25.85	28.4905
25.868	29.7668
25.886	31.0674
25.904	32.3681
25.922	33.6676
25.94	34.9794
25.958	36.2769
25.976	37.5332
25.994	38.76
26.012	39.9586
26.03	41.1055
26.048	42.1805
26.066	43.1988
26.084	44.1555
26.102	45.0362
26.12	45.8305
26.138	46.5469
26.156	47.1851
26.174	47.7432
26.192	48.2175
26.21	48.6079
26.228	48.9241
26.246	49.1757
26.264	49.3568
26.282	49.4656
26.3	49.5215
26.318	49.5437
26.336	49.5187
26.354	49.4491
26.372	49.3591
26.39	49.2707
26.408	49.1648
26.426	49.0489
26.444	48.947
26.462	48.8791
26.48	48.8268
26.498	48.7976
26.516	48.8086
26.534	48.8727
26.552	48.9767
26.57	49.126
26.588	49.3301
26.606	49.5953
26.624	49.9143
26.642	50.2899
26.66	50.7267
26.678	51.2285
26.696	51.7943
26.714	52.4193
26.732	53.0987
26.75	53.8315
26.768	54.6232
26.786	55.4654
26.804	56.3489
26.822	57.2721
26.84	58.2454
26.858	59.2538
26.876	60.2805
26.894	61.3208
26.912	62.3911
26.93	63.4726
26.948	64.5438
26.966	65.6352
26.984	66.825
27.002	67.9482
27.02	68.8241
27.028	69.06