File: Bakgrunnsmateriale/MATLAB/FTIR/ftir_data/subBb/Mapping_121/C-4040-8_t84.asc
PE IR       SPECTRUM    SPECTRUM    ASCII       PEDS        1.60
  -1
C-B54A~1.ASC
17/03/27
21:21:52.00
17/03/27
21:22:18.00
tln
$C-4040-8_t0084$<tbV0>[-2.6,5.2,8.0,0.0,27,1,0]
27.028
64

2002,4.07
MIRTGS : RIGHTBACK : INTERNAL 2
MIR : ON : INTERNAL 2
OPTKBR

0.200000
8
8.000000
FILLER
RATIO
SPECTRUM
UNLOCKED 256

DOUBLE
64
COMBINED
1
0
0

0.002000
RATIO

1
0
TRUE
51149
0
LEFT NOT FITTED RIGHT NOT FITTED 0
NONE
NONE
15600
12
4.427000
51148
TRUE
1 0 8 72 0 0 0 0

15798

#HDR
-1
-1
#GR
µM
%T
2.38419e-05
0.0
2.000000
0.002000
12515
8
87.6911
52.7446
#DATA
2.000000	 65.1016
2.018000	 65.6245
2.036000	 65.0711
2.054000	 65.2763
2.072000	 65.5926
2.090000	 64.9564
2.108000	 65.3363
2.126000	 65.2635
2.144000	 65.0355
2.162000	 65.0499
2.180000	 65.3849
2.198000	 64.712
2.216000	 64.7604
2.234000	 64.8619
2.252000	 64.7653
2.270000	 64.4277
2.288000	 72.1213
2.306000	 64.9771
2.324000	 65.1461
2.342000	 64.9046
2.360000	 65.1114
2.378000	 64.9767
2.396000	 64.6667
2.414000	 65.3099
2.432000	 65.2549
2.450000	 65.1798
2.468000	 65.2537
2.486000	 65.2487
2.504000	 65.2449
2.522000	 65.1625
2.540000	 64.9485
2.558000	 65.4251
2.576000	 65.5549
2.594000	 65.0588
2.612000	 65.1494
2.630000	 65.1193
2.648000	 65.174
2.666000	 65.3504
2.684000	 65.3275
2.702000	 65.2166
2.720000	 65.31
2.738000	 65.3085
2.756000	 65.2595
2.774000	 65.2471
2.792000	 65.4699
2.810000	 65.2233
2.828000	 65.5438
2.846000	 65.3099
2.864000	 65.2589
2.882000	 65.3229
2.900000	 65.3493
2.918000	 65.3249
2.936000	 65.3493
2.954000	 65.4755
2.972000	 65.3011
2.990000	 65.1488
3.008000	 65.0229
3.026000	 65.3102
3.044000	 65.2912
3.062000	 65.2853
3.080000	 65.2535
3.098000	 65.1019
3.116000	 65.319
3.134000	 65.4424
3.152000	 65.1154
3.170000	 65.3768
3.188000	 65.3592
3.206000	 65.1144
3.224000	 65.1869
3.242000	 65.21
3.260000	 65.2843
3.278000	 65.3147
3.296000	 65.4382
3.314000	 65.2556
3.332000	 65.2215
3.350000	 65.0504
3.368000	 65.2652
3.386000	 65.1606
3.404000	 65.2669
3.422000	 64.9276
3.440000	 65.0554
3.458000	 65.2625
3.476000	 65.1049
3.494000	 65.3317
3.512000	 65.1277
3.530000	 65.132
3.548000	 65.2415
3.566000	 65.4132
3.584000	 65.3423
3.602000	 65.406
3.620000	 65.3088
3.638000	 65.378
3.656000	 65.4516
3.674000	 65.3883
3.692000	 65.5133
3.710000	 65.5045
3.728000	 65.2252
3.746000	 65.3276
3.764000	 65.4455
3.782000	 65.325
3.800000	 65.4383
3.818000	 65.3539
3.836000	 65.3546
3.854000	 65.2655
3.872000	 65.4273
3.890000	 65.3196
3.908000	 65.369
3.926000	 65.3174
3.944000	 65.3589
3.962000	 65.4181
3.980000	 65.2298
3.998000	 65.0858
4.016000	 65.2121
4.034000	 65.4245
4.052000	 65.4339
4.070000	 65.2417
4.088000	 65.4949
4.106000	 65.4319
4.124000	 65.0811
4.141999	 65.1573
4.160000	 65.2771
4.178000	 65.5085
4.196000	 65.5637
4.214000	 65.393
4.232000	 65.4485
4.250000	 65.3672
4.268000	 65.425
4.286000	 65.4281
4.304000	 65.3523
4.322000	 65.3795
4.340000	 65.4655
4.358000	 65.4385
4.375999	 65.5599
4.394000	 65.4185
4.412000	 65.4192
4.430000	 65.4631
4.448000	 65.4834
4.466000	 65.4084
4.484000	 65.5541
4.502000	 65.5573
4.520000	 65.4506
4.538000	 65.4265
4.556000	 65.4643
4.574000	 65.3232
4.592000	 65.4238
4.609999	 65.5478
4.628000	 65.5177
4.646000	 65.0939
4.664000	 65.0723
4.682000	 65.2407
4.700000	 65.3733
4.718000	 65.17
4.736000	 65.1992
4.754000	 65.3738
4.772000	 65.4635
4.790000	 65.5826
4.808000	 65.624
4.826000	 65.6023
4.843999	 65.5282
4.862000	 65.1793
4.880000	 65.321
4.898000	 65.4877
4.916000	 65.4652
4.934000	 65.5037
4.952000	 65.4338
4.970000	 65.5428
4.988000	 65.3474
5.006000	 65.3164
5.024000	 65.4154
5.042000	 65.3301
5.060000	 65.3367
5.077999	 65.477
5.096000	 65.4009
5.114000	 65.3796
5.132000	 65.4041
5.150000	 65.3541
5.168000	 65.4038
5.186000	 65.3773
5.204000	 65.4767
5.222000	 65.5072
5.240000	 65.3604
5.258000	 65.33
5.276000	 65.4303
5.294000	 65.4288
5.312000	 65.4565
5.330000	 65.488
5.348000	 65.5078
5.366000	 65.4476
5.384000	 65.4356
5.402000	 65.3813
5.420000	 65.4409
5.438000	 65.5288
5.456000	 65.4876
5.474000	 65.4386
5.492000	 65.4744
5.510000	 65.5782
5.528000	 65.5252
5.546000	 65.4974
5.564000	 65.426
5.582000	 65.399
5.600000	 65.5155
5.618000	 65.4124
5.636000	 65.3169
5.654000	 65.3395
5.672000	 65.4218
5.690000	 65.5613
5.708000	 65.4297
5.726000	 65.3696
5.744000	 65.3352
5.762000	 65.1949
5.780000	 65.1632
5.798000	 65.3641
5.816000	 65.3772
5.834000	 65.39
5.852000	 65.1845
5.870000	 65.2844
5.888000	 65.3569
5.906000	 65.3022
5.923999	 65.3607
5.942000	 65.3656
5.960000	 65.3604
5.978000	 65.3453
5.996000	 65.3496
6.014000	 65.3124
6.032000	 65.3369
6.050000	 65.4514
6.068000	 65.5229
6.086000	 65.4407
6.104000	 65.3372
6.122000	 65.3371
6.140000	 65.3266
6.158000	 65.2222
6.176000	 65.1525
6.194000	 65.1406
6.212000	 65.1665
6.230000	 65.2382
6.248000	 65.2248
6.266000	 65.0815
6.284000	 65.0365
6.302000	 65.1161
6.320000	 65.1565
6.338000	 65.2176
6.356000	 65.2144
6.374000	 65.1198
6.392000	 65.0329
6.410000	 64.9643
6.428000	 65.0127
6.446000	 65.0712
6.464000	 65.0918
6.482000	 65.1462
6.500000	 65.1944
6.518000	 65.217
6.536000	 65.2371
6.554000	 65.2549
6.572000	 65.2781
6.590000	 65.2132
6.608000	 65.1012
6.626000	 65.0973
6.644000	 65.2107
6.662000	 65.2874
6.680000	 65.2822
6.698000	 65.2707
6.716000	 65.165
6.734000	 65.0866
6.752000	 65.1884
6.770000	 65.3039
6.788000	 65.2741
6.806000	 65.2286
6.824000	 65.2635
6.842000	 65.2223
6.860000	 65.0549
6.878000	 64.9045
6.896000	 64.9038
6.914000	 65.0302
6.932000	 65.1212
6.950000	 65.159
6.968000	 65.2177
6.986000	 65.2918
7.004000	 65.3623
7.022000	 65.3848
7.040000	 65.3308
7.058000	 65.2356
7.076000	 65.1334
7.094000	 65.0609
7.112000	 65.0558
7.130000	 65.1134
7.148000	 65.1755
7.166000	 65.1642
7.184000	 65.0997
7.202000	 65.094
7.220000	 65.1466
7.238000	 65.1773
7.256000	 65.1889
7.274000	 65.1697
7.292000	 65.0971
7.310000	 65.068
7.328000	 65.1373
7.346000	 65.1798
7.364000	 65.1128
7.382000	 65.0303
7.400000	 65.0271
7.418000	 65.089
7.436000	 65.1798
7.454000	 65.2698
7.472000	 65.3125
7.490000	 65.2952
7.508000	 65.2565
7.526000	 65.2201
7.544000	 65.1807
7.562000	 65.1335
7.580000	 65.0827
7.598000	 65.0389
7.616000	 65.0214
7.634000	 65.0503
7.652000	 65.1083
7.670000	 65.1369
7.688000	 65.1053
7.706000	 65.0421
7.724000	 64.9868
7.742000	 64.9723
7.760000	 65.0179
7.778000	 65.0985
7.796000	 65.167
7.814000	 65.1994
7.832000	 65.1878
7.850000	 65.1361
7.868000	 65.0869
7.886000	 65.0833
7.904000	 65.1009
7.922000	 65.0878
7.940000	 65.0597
7.958000	 65.0738
7.976000	 65.1228
7.994000	 65.1421
8.012000	 65.1137
8.030000	 65.0807
8.048000	 65.0721
8.065999	 65.0815
8.084000	 65.0985
8.102000	 65.108
8.120000	 65.0922
8.138000	 65.0682
8.155999	 65.0771
8.173999	 65.1231
8.192000	 65.167
8.210000	 65.1911
8.228000	 65.2179
8.246000	 65.2471
8.263999	 65.2359
8.282000	 65.1675
8.300000	 65.0919
8.318000	 65.0601
8.336000	 65.0651
8.353999	 65.0722
8.372000	 65.0734
8.390000	 65.0793
8.408000	 65.0822
8.426000	 65.0627
8.443999	 65.0198
8.462000	 64.9654
8.480000	 64.9037
8.498000	 64.8427
8.516000	 64.8043
8.533999	 64.8059
8.552000	 64.8396
8.570000	 64.8755
8.588000	 64.8857
8.606000	 64.8709
8.624000	 64.8615
8.641999	 64.8821
8.660000	 64.9182
8.678000	 64.9294
8.696000	 64.8965
8.714000	 64.8481
8.731999	 64.832
8.750000	 64.8679
8.768000	 64.9293
8.786000	 64.9685
8.804000	 64.9632
8.821999	 64.9345
8.840000	 64.9202
8.858000	 64.9349
8.876000	 64.9609
8.894000	 64.9689
8.911999	 64.9406
8.930000	 64.8772
8.948000	 64.7986
8.966000	 64.7383
8.984000	 64.7284
9.001999	 64.7774
9.020000	 64.8579
9.038000	 64.914
9.056000	 64.8885
9.074000	 64.7571
9.092000	 64.5548
9.109999	 64.3736
9.128000	 64.3151
9.146000	 64.4164
9.164000	 64.6161
9.182000	 64.8018
9.199999	 64.8995
9.218000	 64.9167
9.236000	 64.9083
9.254000	 64.9112
9.272000	 64.921
9.289999	 64.9223
9.308000	 64.9189
9.326000	 64.9318
9.344000	 64.9732
9.362000	 65.0306
9.379999	 65.0742
9.398000	 65.0854
9.416000	 65.0733
9.434000	 65.0627
9.452000	 65.0634
9.469999	 65.0556
9.488000	 65.0114
9.506000	 64.9375
9.524000	 64.8871
9.542000	 64.9136
9.560000	 65.0125
9.577999	 65.1223
9.596000	 65.1793
9.614000	 65.1651
9.632000	 65.106
9.650000	 65.0433
9.667999	 65.0063
9.686000	 65.0017
9.704000	 65.0163
9.722000	 65.028
9.740000	 65.0215
9.757999	 65.002
9.776000	 64.9937
9.794000	 65.0147
9.812000	 65.0503
9.830000	 65.0555
9.847999	 64.9902
9.866000	 64.8597
9.884000	 64.7193
9.902000	 64.6405
9.920000	 64.6616
9.937999	 64.7615
9.956000	 64.878
9.974000	 64.9537
9.992000	 64.971
10.01	64.9565
10.028	64.9576
10.046	65.003
10.064	65.0809
10.082	65.1479
10.1	65.1576
10.118	65.0957
10.136	64.9913
10.154	64.8944
10.172	64.8423
10.19	64.8343
10.208	64.8383
10.226	64.82
10.244	64.7691
10.262	64.7037
10.28	64.6468
10.298	64.6051
10.316	64.5659
10.334	64.5199
10.352	64.4833
10.37	64.496
10.388	64.5914
10.406	64.7626
10.424	64.9579
10.442	65.1071
10.46	65.1663
10.478	65.1391
10.496	65.069
10.514	65.0012
10.532	64.9585
10.55	64.9337
10.568	64.9101
10.586	64.8782
10.604	64.8417
10.622	64.8092
10.64	64.781
10.658	64.7468
10.676	64.6916
10.694	64.6084
10.712	64.5036
10.73	64.3949
10.748	64.3029
10.766	64.2437
10.784	64.224
10.802	64.2414
10.82	64.2871
10.838	64.348
10.856	64.4112
10.874	64.4676
10.892	64.5138
10.91	64.5491
10.928	64.5747
10.946	64.5907
10.964	64.5973
10.982	64.5962
11	64.593
11.018	64.5967
11.036	64.6138
11.054	64.6449
11.072	64.6833
11.09	64.7175
11.108	64.7397
11.126	64.749
11.144	64.7519
11.162	64.7584
11.18	64.7751
11.198	64.8013
11.216	64.8301
11.234	64.8538
11.252	64.8681
11.27	64.8729
11.288	64.8719
11.306	64.8668
11.324	64.8582
11.342	64.8459
11.36	64.8313
11.378	64.8178
11.396	64.81
11.414	64.8112
11.432	64.8212
11.45	64.8367
11.468	64.8525
11.486	64.8645
11.504	64.8719
11.522	64.8754
11.54	64.8753
11.558	64.8704
11.576	64.8565
11.594	64.829
11.612	64.7844
11.63	64.7214
11.648	64.6417
11.666	64.5499
11.684	64.4553
11.702	64.369
11.72	64.3029
11.738	64.2666
11.756	64.2631
11.774	64.2888
11.792	64.3349
11.81	64.3909
11.828	64.4488
11.846	64.505
11.864	64.5611
11.882	64.6212
11.9	64.6882
11.918	64.7608
11.936	64.8328
11.954	64.896
11.972	64.9418
11.99	64.9648
12.008	64.9626
12.026	64.9354
12.044	64.8859
12.062	64.818
12.08	64.7371
12.098	64.6499
12.116	64.5635
12.134	64.4849
12.152	64.4199
12.17	64.3729
12.188	64.3462
12.206	64.3407
12.224	64.3546
12.242	64.3841
12.26	64.423
12.278	64.4633
12.296	64.4966
12.314	64.516
12.332	64.5184
12.35	64.5058
12.368	64.4846
12.386	64.4636
12.404	64.4506
12.422	64.449
12.44	64.4565
12.458	64.4659
12.476	64.4687
12.494	64.4578
12.512	64.4311
12.53	64.3923
12.548	64.3496
12.566	64.3128
12.584	64.2904
12.602	64.2868
12.62	64.3023
12.638	64.3329
12.656	64.3728
12.674	64.4163
12.692	64.4596
12.71	64.501
12.728	64.5398
12.746	64.5756
12.764	64.6071
12.782	64.6313
12.8	64.6447
12.818	64.6443
12.836	64.6295
12.854	64.6021
12.872	64.5667
12.89	64.5287
12.908	64.4931
12.926	64.4623
12.944	64.4363
12.962	64.4118
12.98	64.3846
12.998	64.3509
13.016	64.3096
13.034	64.2637
13.052	64.219
13.07	64.183
13.088	64.1631
13.106	64.1649
13.124	64.1897
13.142	64.2356
13.16	64.2982
13.178	64.3717
13.196	64.4499
13.214	64.526
13.232	64.5938
13.25	64.6473
13.268	64.6809
13.286	64.69
13.304	64.6723
13.322	64.6293
13.34	64.5667
13.358	64.4942
13.376	64.4237
13.394	64.3671
13.412	64.3339
13.43	64.3277
13.448	64.3457
13.466	64.3786
13.484	64.4127
13.502	64.4327
13.52	64.4253
13.538	64.382
13.556	64.3005
13.574	64.1846
13.592	64.0431
13.61	63.8875
13.628	63.7299
13.646	63.5806
13.664	63.4474
13.682	63.3356
13.7	63.2485
13.718	63.188
13.736	63.1555
13.754	63.1514
13.772	63.1758
13.79	63.2276
13.808	63.304
13.826	63.3992
13.844	63.5058
13.862	63.6148
13.88	63.717
13.898	63.8045
13.916	63.8712
13.934	63.9139
13.952	63.9324
13.97	63.9289
13.988	63.9076
14.006	63.8732
14.024	63.8309
14.042	63.7854
14.06	63.7409
14.078	63.7015
14.096	63.6709
14.114	63.6529
14.132	63.6509
14.15	63.6674
14.168	63.7037
14.186	63.7588
14.204	63.8294
14.222	63.9096
14.24	63.9909
14.258	64.0643
14.276	64.1214
14.294	64.1559
14.312	64.1645
14.33	64.147
14.348	64.1072
14.366	64.052
14.384	63.99
14.402	63.9296
14.42	63.877
14.438	63.8361
14.456	63.8075
14.474	63.7896
14.492	63.7787
14.51	63.7698
14.528	63.7584
14.546	63.7416
14.564	63.7184
14.582	63.6895
14.6	63.6567
14.618	63.623
14.636	63.5907
14.654	63.561
14.672	63.5338
14.69	63.5077
14.708	63.4801
14.726	63.4483
14.744	63.4094
14.762	63.362
14.78	63.3064
14.798	63.2446
14.816	63.1798
14.834	63.117
14.852	63.0608
14.87	63.0156
14.888	62.9849
14.906	62.9705
14.924	62.9733
14.942	62.9915
14.96	63.022
14.978	63.0607
14.996	63.1034
15.014	63.1455
15.032	63.1826
15.05	63.2119
15.068	63.2321
15.086	63.2431
15.104	63.246
15.122	63.2439
15.14	63.2405
15.158	63.2391
15.176	63.243
15.194	63.2554
15.212	63.2783
15.23	63.3124
15.248	63.3571
15.266	63.4106
15.284	63.47
15.302	63.5313
15.32	63.5906
15.338	63.6438
15.356	63.6863
15.374	63.7143
15.392	63.7253
15.41	63.7173
15.428	63.6895
15.446	63.6422
15.464	63.5773
15.482	63.4971
15.5	63.4047
15.518	63.3049
15.536	63.2019
15.554	63.0997
15.572	63.0026
15.59	62.915
15.608	62.8393
15.626	62.7775
15.644	62.7312
15.662	62.7008
15.68	62.6858
15.698	62.6858
15.716	62.6992
15.734	62.7245
15.752	62.7604
15.77	62.8055
15.788	62.8583
15.806	62.9175
15.824	62.982
15.842	63.0502
15.86	63.1198
15.878	63.1886
15.896	63.2545
15.914	63.3136
15.932	63.3629
15.95	63.3997
15.968	63.4208
15.986	63.424
16.004	63.4087
16.022	63.3745
16.04	63.323
16.058	63.2569
16.076	63.1789
16.094	63.0942
16.112	63.0076
16.13	62.923
16.148	62.8449
16.166	62.777
16.184	62.721
16.202	62.6786
16.22	62.65
16.238	62.6347
16.256	62.6316
16.274	62.6394
16.292	62.6573
16.31	62.6845
16.328	62.7211
16.346	62.7678
16.364	62.8252
16.382	62.8946
16.4	62.9766
16.418	63.0713
16.436	63.178
16.454	63.2943
16.472	63.4184
16.49	63.5451
16.508	63.6694
16.526	63.7874
16.544	63.8921
16.562	63.9795
16.58	64.0461
16.598	64.088
16.616	64.105
16.634	64.0961
16.652	64.0636
16.67	64.0102
16.688	63.9385
16.706	63.8545
16.724	63.7613
16.742	63.6631
16.76	63.5646
16.778	63.4675
16.796	63.3747
16.814	63.2874
16.832	63.2061
16.85	63.1311
16.868	63.0618
16.886	62.998
16.904	62.939
16.922	62.8845
16.94	62.8341
16.958	62.7883
16.976	62.7472
16.994	62.7113
17.012	62.6813
17.03	62.6579
17.048	62.6415
17.066	62.6322
17.084	62.6304
17.102	62.6351
17.12	62.6458
17.138	62.6615
17.156	62.681
17.174	62.7033
17.192	62.7269
17.21	62.7512
17.228	62.775
17.246	62.7981
17.264	62.8204
17.282	62.8426
17.3	62.8652
17.318	62.8895
17.336	62.9162
17.354	62.9459
17.372	62.9794
17.39	63.0164
17.408	63.0567
17.426	63.0985
17.444	63.1411
17.462	63.1808
17.48	63.2162
17.498	63.2437
17.516	63.2611
17.534	63.2664
17.552	63.2573
17.57	63.2335
17.588	63.1945
17.606	63.1415
17.624	63.0754
17.642	62.9999
17.66	62.9162
17.678	62.8302
17.696	62.7435
17.714	62.6616
17.732	62.5866
17.75	62.5216
17.768	62.4686
17.786	62.4285
17.804	62.4018
17.822	62.3879
17.84	62.385
17.858	62.3911
17.876	62.4039
17.894	62.4197
17.912	62.4369
17.93	62.4511
17.948	62.4615
17.966	62.4651
17.984	62.4617
18.002	62.4499
18.02	62.4309
18.038	62.4046
18.056	62.3737
18.074	62.3385
18.092	62.3028
18.11	62.267
18.128	62.2345
18.146	62.2058
18.164	62.1834
18.182	62.1675
18.2	62.1592
18.218	62.1578
18.236	62.1632
18.254	62.1737
18.272	62.1888
18.29	62.2056
18.308	62.2239
18.326	62.2406
18.344	62.2553
18.362	62.2661
18.38	62.273
18.398	62.2751
18.416	62.273
18.434	62.2665
18.452	62.2568
18.47	62.2445
18.488	62.2312
18.506	62.2176
18.524	62.2056
18.542	62.1955
18.56	62.1885
18.578	62.1849
18.596	62.1847
18.614	62.1879
18.632	62.1937
18.65	62.202
18.668	62.2108
18.686	62.2198
18.704	62.2271
18.722	62.2324
18.74	62.2335
18.758	62.2303
18.776	62.2213
18.794	62.2065
18.812	62.1854
18.83	62.1584
18.848	62.1258
18.866	62.0887
18.884	62.0485
18.902	62.0065
18.92	61.9649
18.938	61.9254
18.956	61.8908
18.974	61.8626
18.992	61.8436
19.01	61.8349
19.028	61.8394
19.046	61.8573
19.064	61.8906
19.082	61.9388
19.1	62.0024
19.118	62.0802
19.136	62.1709
19.154	62.2726
19.172	62.382
19.19	62.4973
19.208	62.6131
19.226	62.728
19.244	62.8355
19.262	62.935
19.28	63.0198
19.298	63.0901
19.316	63.1406
19.334	63.1716
19.352	63.1806
19.37	63.1678
19.388	63.1342
19.406	63.0797
19.424	63.0084
19.442	62.9198
19.46	62.8202
19.478	62.7095
19.496	62.5936
19.514	62.4737
19.532	62.3542
19.55	62.2375
19.568	62.1255
19.586	62.0211
19.604	61.9246
19.622	61.8384
19.64	61.762
19.658	61.6959
19.676	61.6399
19.694	61.5929
19.712	61.5549
19.73	61.5239
19.748	61.4999
19.766	61.481
19.784	61.4668
19.802	61.4561
19.82	61.4481
19.838	61.4424
19.856	61.4379
19.874	61.4348
19.892	61.4324
19.91	61.4307
19.928	61.4295
19.946	61.4286
19.964	61.4281
19.982	61.4279
20	61.4278
20.018	61.4278
20.036	61.4277
20.054	61.4271
20.072	61.4261
20.09	61.424
20.108	61.421
20.126	61.4167
20.144	61.411
20.162	61.4041
20.18	61.3958
20.198	61.3865
20.216	61.3766
20.234	61.3662
20.252	61.3564
20.27	61.347
20.288	61.3394
20.306	61.3335
20.324	61.3304
20.342	61.3306
20.36	61.3344
20.378	61.3426
20.396	61.3552
20.414	61.3726
20.432	61.3948
20.45	61.4212
20.468	61.452
20.486	61.4863
20.504	61.5228
20.522	61.5617
20.54	61.6009
20.558	61.6408
20.576	61.6791
20.594	61.715
20.612	61.7478
20.63	61.7753
20.648	61.798
20.666	61.8134
20.684	61.8216
20.702	61.8218
20.72	61.813
20.738	61.7955
20.756	61.7687
20.774	61.7328
20.792	61.6885
20.81	61.6356
20.828	61.5753
20.846	61.509
20.864	61.4363
20.882	61.3601
20.9	61.2797
20.918	61.1978
20.936	61.116
20.954	61.0343
20.972	60.9564
20.99	60.8814
21.008	60.8125
21.026	60.7507
21.044	60.6963
21.062	60.6521
21.08	60.6174
21.098	60.5938
21.116	60.582
21.134	60.5818
21.152	60.5938
21.17	60.6179
21.188	60.6528
21.206	60.6991
21.224	60.7552
21.242	60.8191
21.26	60.8915
21.278	60.9688
21.296	61.0509
21.314	61.1363
21.332	61.2214
21.35	61.3076
21.368	61.3907
21.386	61.4701
21.404	61.5452
21.422	61.6126
21.44	61.6733
21.458	61.7252
21.476	61.7676
21.494	61.8006
21.512	61.8233
21.53	61.8355
21.548	61.8377
21.566	61.8301
21.584	61.8127
21.602	61.7867
21.62	61.7517
21.638	61.7088
21.656	61.6591
21.674	61.6022
21.692	61.5396
21.71	61.4715
21.728	61.3981
21.746	61.3211
21.764	61.2399
21.782	61.1556
21.8	61.069
21.818	60.9798
21.836	60.8893
21.854	60.7973
21.872	60.7043
21.89	60.6117
21.908	60.5188
21.926	60.4275
21.944	60.339
21.962	60.2528
21.98	60.1716
21.998	60.0952
22.016	60.0245
22.034	59.9616
22.052	59.9058
22.07	59.8583
22.088	59.8204
22.106	59.7914
22.124	59.7718
22.142	59.762
22.16	59.7616
22.178	59.7695
22.196	59.7864
22.214	59.8108
22.232	59.8406
22.25	59.8768
22.268	59.9168
22.286	59.9592
22.304	60.0047
22.322	60.05
22.34	60.0946
22.358	60.1388
22.376	60.181
22.394	60.221
22.412	60.2595
22.43	60.2966
22.448	60.3319
22.466	60.3671
22.484	60.4036
22.502	60.4403
22.52	60.4803
22.538	60.5244
22.556	60.572
22.574	60.6264
22.592	60.6881
22.61	60.7568
22.628	60.8344
22.646	60.9213
22.664	61.0166
22.682	61.12
22.7	61.2326
22.718	61.3516
22.736	61.4742
22.754	61.6025
22.772	61.7321
22.79	61.8598
22.808	61.9881
22.826	62.1109
22.844	62.2249
22.862	62.3326
22.88	62.4275
22.898	62.5068
22.916	62.5725
22.934	62.619
22.952	62.6438
22.97	62.6488
22.988	62.6326
23.006	62.5942
23.024	62.5348
23.042	62.4555
23.06	62.3556
23.078	62.2362
23.096	62.1008
23.114	61.9486
23.132	61.7808
23.15	61.6019
23.168	61.411
23.186	61.2094
23.204	61.002
23.222	60.7879
23.24	60.5681
23.258	60.3468
23.276	60.1233
23.294	59.8983
23.312	59.676
23.33	59.4561
23.348	59.2387
23.366	59.0266
23.384	58.8201
23.402	58.6188
23.42	58.4234
23.438	58.2336
23.456	58.0496
23.474	57.8727
23.492	57.7024
23.51	57.539
23.528	57.3845
23.546	57.2386
23.564	57.1012
23.582	56.9758
23.6	56.8631
23.618	56.762
23.636	56.6766
23.654	56.6085
23.672	56.556
23.69	56.5231
23.708	56.5128
23.726	56.5226
23.744	56.5555
23.762	56.6139
23.78	56.6965
23.798	56.8038
23.816	56.9369
23.834	57.0963
23.852	57.2801
23.87	57.4865
23.888	57.7175
23.906	57.9704
23.924	58.24
23.942	58.5276
23.96	58.8324
23.978	59.1468
23.996	59.4692
24.014	59.8021
24.032	60.1369
24.05	60.4683
24.068	60.801
24.086	61.129
24.104	61.4462
24.122	61.7566
24.14	62.0566
24.158	62.3406
24.176	62.6088
24.194	62.8624
24.212	63.1008
24.23	63.3224
24.248	63.5283
24.266	63.7229
24.284	63.9072
24.302	64.078
24.32	64.2446
24.338	64.415
24.356	64.581
24.374	64.7525
24.392	64.9447
24.41	65.1535
24.428	65.3798
24.446	65.6379
24.464	65.9323
24.482	66.256
24.5	66.6219
24.518	67.0414
24.536	67.5099
24.554	68.0263
24.572	68.5916
24.59	69.2108
24.608	69.8783
24.626	70.5819
24.644	71.321
24.662	72.1035
24.68	72.9029
24.698	73.6966
24.716	74.5074
24.734	75.3119
24.752	76.072
24.77	76.7916
24.788	77.4778
24.806	78.0907
24.824	78.6037
24.842	79.042
24.86	79.3837
24.878	79.6003
24.896	79.6965
24.914	79.6764
24.932	79.5282
24.95	79.2419
24.968	78.8224
24.986	78.2789
25.004	77.619
25.022	76.8286
25.04	75.9227
25.058	74.9309
25.076	73.8599
25.094	72.6904
25.112	71.465
25.13	70.2259
25.148	68.9445
25.166	67.6379
25.184	66.3542
25.202	65.1136
25.22	63.8867
25.238	62.7084
25.256	61.6155
25.274	60.5927
25.292	59.642
25.31	58.7895
25.328	58.0511
25.346	57.4114
25.364	56.8777
25.382	56.4599
25.4	56.1619
25.418	55.977
25.436	55.8976
25.454	55.92
25.472	56.0545
25.49	56.2855
25.508	56.5929
25.526	56.9777
25.544	57.4484
25.562	57.9779
25.58	58.5415
25.598	59.1567
25.616	59.8148
25.634	60.489
25.652	61.1634
25.67	61.8573
25.688	62.5546
25.706	63.2352
25.724	63.8969
25.742	64.548
25.76	65.1791
25.778	65.7812
25.796	66.3569
25.814	66.9079
25.832	67.4329
25.85	67.9294
25.868	68.396
25.886	68.8386
25.904	69.2638
25.922	69.6719
25.94	70.0593
25.958	70.4336
25.976	70.8025
25.994	71.1621
26.012	71.5125
26.03	71.8622
26.048	72.2183
26.066	72.5738
26.084	72.9327
26.102	73.3032
26.12	73.6909
26.138	74.0906
26.156	74.504
26.174	74.9341
26.192	75.3812
26.21	75.8427
26.228	76.3228
26.246	76.8263
26.264	77.3565
26.282	77.9106
26.3	78.4826
26.318	79.067
26.336	79.6716
26.354	80.2928
26.372	80.9165
26.39	81.5305
26.408	82.1518
26.426	82.7701
26.444	83.3607
26.462	83.9047
26.48	84.4271
26.498	84.912
26.516	85.3303
26.534	85.6622
26.552	85.9359
26.57	86.1325
26.588	86.2235
26.606	86.1897
26.624	86.0517
26.642	85.8029
26.66	85.4323
26.678	84.9334
26.696	84.3152
26.714	83.5743
26.732	82.7063
26.75	81.7055
26.768	80.5718
26.786	79.3162
26.804	77.9501
26.822	76.4788
26.84	74.8934
26.858	73.2018
26.876	71.413
26.894	69.5318
26.912	67.5526
26.93	65.4783
26.948	63.3127
26.966	60.9329
26.984	58.1518
27.002	55.4402
27.02	53.3091
27.028	52.7446