File: Bakgrunnsmateriale/MATLAB/FTIR/ftir_data/subBb/Mapping_121/C-4040-8_t39.asc
PE IR       SPECTRUM    SPECTRUM    ASCII       PEDS        1.60
  -1
C-C13E~1.ASC
17/03/27
17:39:17.00
17/03/27
17:39:43.00
tln
$C-4040-8_t0039$<tbV0>[0.0,-5.2,8.0,0.0,27,1,0]
27.028
64

2002,4.07
MIRTGS : RIGHTBACK : INTERNAL 2
MIR : ON : INTERNAL 2
OPTKBR

0.200000
8
8.000000
FILLER
RATIO
SPECTRUM
UNLOCKED 256

DOUBLE
64
COMBINED
1
0
0

0.002000
RATIO

1
0
TRUE
51149
0
LEFT NOT FITTED RIGHT NOT FITTED 0
NONE
NONE
15600
12
4.427000
51148
TRUE
1 0 8 72 0 0 0 0

15798

#HDR
-1
-1
#GR
µM
%T
2.38419e-05
0.0
2.000000
0.002000
12515
8
70.5129
9.921579
#DATA
2.000000	 63.7665
2.018000	 63.8939
2.036000	 64.1008
2.054000	 63.3879
2.072000	 63.6093
2.090000	 63.5692
2.108000	 63.7876
2.126000	 63.5142
2.144000	 63.6159
2.162000	 63.6291
2.180000	 63.38
2.198000	 63.1745
2.216000	 63.3414
2.234000	 62.9932
2.252000	 62.6509
2.270000	 62.6475
2.288000	 65.8094
2.306000	 65.5362
2.324000	 62.8334
2.342000	 62.968
2.360000	 62.6336
2.378000	 62.6754
2.396000	 62.9723
2.414000	 62.7281
2.432000	 62.4026
2.450000	 62.3046
2.468000	 62.3349
2.486000	 62.2785
2.504000	 62.2187
2.522000	 62.4578
2.540000	 62.1635
2.558000	 62.02
2.576000	 62.2733
2.594000	 61.6071
2.612000	 61.6098
2.630000	 61.6213
2.648000	 61.3672
2.666000	 61.5873
2.684000	 61.5363
2.702000	 61.3971
2.720000	 61.0659
2.738000	 61.0737
2.756000	 61.0251
2.774000	 60.9004
2.792000	 60.8046
2.810000	 60.6186
2.828000	 60.6546
2.846000	 60.6034
2.864000	 60.3044
2.882000	 60.1915
2.900000	 60.3457
2.918000	 60.0386
2.936000	 59.9631
2.954000	 59.8139
2.972000	 59.7356
2.990000	 59.4567
3.008000	 59.2698
3.026000	 59.4968
3.044000	 59.2051
3.062000	 59.1132
3.080000	 58.8189
3.098000	 58.6773
3.116000	 58.6607
3.134000	 58.6714
3.152000	 58.3684
3.170000	 58.2193
3.188000	 58.0833
3.206000	 58.3034
3.224000	 58.041
3.242000	 57.8629
3.260000	 57.6408
3.278000	 57.5848
3.296000	 57.3998
3.314000	 57.2552
3.332000	 57.0692
3.350000	 57.0961
3.368000	 56.9804
3.386000	 56.6524
3.404000	 56.5232
3.422000	 56.0908
3.440000	 56.0387
3.458000	 56.1916
3.476000	 56.0854
3.494000	 55.9863
3.512000	 55.6849
3.530000	 55.7401
3.548000	 55.66
3.566000	 55.554
3.584000	 55.3564
3.602000	 55.3118
3.620000	 55.2177
3.638000	 55.0357
3.656000	 54.811
3.674000	 54.7412
3.692000	 54.6441
3.710000	 54.5619
3.728000	 54.4183
3.746000	 54.264
3.764000	 54.1773
3.782000	 54.0472
3.800000	 54.0217
3.818000	 53.748
3.836000	 53.6216
3.854000	 53.5792
3.872000	 53.42
3.890000	 53.3192
3.908000	 53.189
3.926000	 53.1794
3.944000	 53.0012
3.962000	 52.9576
3.980000	 52.7816
3.998000	 52.4831
4.016000	 52.3246
4.034000	 52.3315
4.052000	 52.2997
4.070000	 52.0181
4.088000	 52.0695
4.106000	 51.7593
4.124000	 51.5068
4.141999	 51.8485
4.160000	 51.5524
4.178000	 51.6775
4.196000	 51.327
4.214000	 51.2356
4.232000	 51.2034
4.250000	 51.0767
4.268000	 50.8889
4.286000	 50.7748
4.304000	 50.6495
4.322000	 50.5657
4.340000	 50.3935
4.358000	 50.2128
4.375999	 50.2082
4.394000	 50.0386
4.412000	 49.8553
4.430000	 49.7731
4.448000	 49.8364
4.466000	 49.7344
4.484000	 49.5141
4.502000	 49.4629
4.520000	 49.4624
4.538000	 49.3755
4.556000	 49.2161
4.574000	 49.1787
4.592000	 49.0501
4.609999	 48.9586
4.628000	 48.8881
4.646000	 48.8916
4.664000	 48.7014
4.682000	 48.6372
4.700000	 48.4607
4.718000	 48.2657
4.736000	 48.2065
4.754000	 48.1451
4.772000	 47.9385
4.790000	 48.0421
4.808000	 48.0404
4.826000	 47.8358
4.843999	 47.5359
4.862000	 47.4123
4.880000	 47.4328
4.898000	 47.3506
4.916000	 47.2057
4.934000	 47.1855
4.952000	 47.1161
4.970000	 47.0129
4.988000	 46.9799
5.006000	 46.9209
5.024000	 46.781
5.042000	 46.6462
5.060000	 46.5369
5.077999	 46.3255
5.096000	 46.281
5.114000	 46.3586
5.132000	 46.2106
5.150000	 46.1301
5.168000	 46.0371
5.186000	 45.9978
5.204000	 45.8929
5.222000	 45.7209
5.240000	 45.698
5.258000	 45.6159
5.276000	 45.4983
5.294000	 45.5
5.312000	 45.4226
5.330000	 45.3583
5.348000	 45.3407
5.366000	 45.2518
5.384000	 45.1297
5.402000	 45.0137
5.420000	 45.0184
5.438000	 45.0525
5.456000	 44.9467
5.474000	 44.7993
5.492000	 44.5673
5.510000	 44.5344
5.528000	 44.4879
5.546000	 44.4117
5.564000	 44.3572
5.582000	 44.2447
5.600000	 44.2578
5.618000	 44.0899
5.636000	 43.9991
5.654000	 43.9711
5.672000	 43.8504
5.690000	 43.8106
5.708000	 43.7164
5.726000	 43.6102
5.744000	 43.5629
5.762000	 43.4022
5.780000	 43.2783
5.798000	 43.2982
5.816000	 43.3043
5.834000	 43.2959
5.852000	 43.2815
5.870000	 43.2266
5.888000	 43.099
5.906000	 43.0087
5.923999	 42.9606
5.942000	 42.837
5.960000	 42.81
5.978000	 42.7548
5.996000	 42.6386
6.014000	 42.6113
6.032000	 42.5789
6.050000	 42.4795
6.068000	 42.4085
6.086000	 42.4148
6.104000	 42.4016
6.122000	 42.3386
6.140000	 42.2206
6.158000	 42.1138
6.176000	 41.9821
6.194000	 41.9172
6.212000	 41.9914
6.230000	 41.9247
6.248000	 41.7246
6.266000	 41.6198
6.284000	 41.6218
6.302000	 41.6231
6.320000	 41.579
6.338000	 41.4837
6.356000	 41.3724
6.374000	 41.33
6.392000	 41.3289
6.410000	 41.3063
6.428000	 41.2536
6.446000	 41.1658
6.464000	 41.076
6.482000	 41.0173
6.500000	 40.985
6.518000	 40.925
6.536000	 40.8819
6.554000	 40.8399
6.572000	 40.7032
6.590000	 40.6094
6.608000	 40.6338
6.626000	 40.6646
6.644000	 40.6283
6.662000	 40.5479
6.680000	 40.4959
6.698000	 40.4906
6.716000	 40.4812
6.734000	 40.4236
6.752000	 40.2953
6.770000	 40.1391
6.788000	 40.0184
6.806000	 39.933
6.824000	 39.9065
6.842000	 39.9788
6.860000	 40.0932
6.878000	 40.1078
6.896000	 39.9455
6.914000	 39.761
6.932000	 39.709
6.950000	 39.7456
6.968000	 39.7526
6.986000	 39.6388
7.004000	 39.4883
7.022000	 39.4631
7.040000	 39.5115
7.058000	 39.4944
7.076000	 39.409
7.094000	 39.3225
7.112000	 39.2673
7.130000	 39.2221
7.148000	 39.1754
7.166000	 39.1488
7.184000	 39.1288
7.202000	 39.0837
7.220000	 39.0124
7.238000	 38.9336
7.256000	 38.8697
7.274000	 38.806
7.292000	 38.7116
7.310000	 38.6385
7.328000	 38.665
7.346000	 38.7537
7.364000	 38.7885
7.382000	 38.7212
7.400000	 38.6168
7.418000	 38.5487
7.436000	 38.5076
7.454000	 38.4605
7.472000	 38.4278
7.490000	 38.4336
7.508000	 38.4552
7.526000	 38.4514
7.544000	 38.387
7.562000	 38.2559
7.580000	 38.112
7.598000	 38.0265
7.616000	 38.0083
7.634000	 38.0115
7.652000	 37.9955
7.670000	 37.9464
7.688000	 37.878
7.706000	 37.8331
7.724000	 37.8422
7.742000	 37.8658
7.760000	 37.8415
7.778000	 37.7763
7.796000	 37.7227
7.814000	 37.6959
7.832000	 37.6766
7.850000	 37.6531
7.868000	 37.6222
7.886000	 37.5799
7.904000	 37.5328
7.922000	 37.4888
7.940000	 37.4431
7.958000	 37.3868
7.976000	 37.3089
7.994000	 37.2119
8.012000	 37.1396
8.030000	 37.1378
8.048000	 37.1771
8.065999	 37.1881
8.084000	 37.1604
8.102000	 37.1322
8.120000	 37.1151
8.138000	 37.0944
8.155999	 37.0606
8.173999	 37.0056
8.192000	 36.9276
8.210000	 36.8484
8.228000	 36.7803
8.246000	 36.694
8.263999	 36.5717
8.282000	 36.4638
8.300000	 36.4371
8.318000	 36.4906
8.336000	 36.5669
8.353999	 36.6264
8.372000	 36.6634
8.390000	 36.6718
8.408000	 36.6348
8.426000	 36.5551
8.443999	 36.4641
8.462000	 36.3917
8.480000	 36.3406
8.498000	 36.3006
8.516000	 36.2689
8.533999	 36.2435
8.552000	 36.2135
8.570000	 36.1681
8.588000	 36.1101
8.606000	 36.0567
8.624000	 36.0239
8.641999	 36.0147
8.660000	 36.0104
8.678000	 35.9801
8.696000	 35.9062
8.714000	 35.8156
8.731999	 35.762
8.750000	 35.7651
8.768000	 35.7776
8.786000	 35.7367
8.804000	 35.6438
8.821999	 35.5728
8.840000	 35.5926
8.858000	 35.6962
8.876000	 35.8129
8.894000	 35.8636
8.911999	 35.805
8.930000	 35.6411
8.948000	 35.4189
8.966000	 35.2165
8.984000	 35.1212
9.001999	 35.1876
9.020000	 35.3965
9.038000	 35.6447
9.056000	 35.7996
9.074000	 35.7814
9.092000	 35.6173
9.109999	 35.4145
9.128000	 35.2799
9.146000	 35.2485
9.164000	 35.2777
9.182000	 35.2962
9.199999	 35.2619
9.218000	 35.1799
9.236000	 35.0765
9.254000	 34.9668
9.272000	 34.8519
9.289999	 34.7355
9.308000	 34.6331
9.326000	 34.5576
9.344000	 34.5113
9.362000	 34.4933
9.379999	 34.51
9.398000	 34.566
9.416000	 34.6411
9.434000	 34.6952
9.452000	 34.6992
9.469999	 34.6587
9.488000	 34.6029
9.506000	 34.5526
9.524000	 34.5078
9.542000	 34.4616
9.560000	 34.4179
9.577999	 34.3887
9.596000	 34.3778
9.614000	 34.3798
9.632000	 34.3911
9.650000	 34.4121
9.667999	 34.4342
9.686000	 34.4375
9.704000	 34.4064
9.722000	 34.3491
9.740000	 34.3003
9.757999	 34.2951
9.776000	 34.3375
9.794000	 34.3879
9.812000	 34.3858
9.830000	 34.291
9.847999	 34.1111
9.866000	 33.8958
9.884000	 33.7062
9.902000	 33.5793
9.920000	 33.5136
9.937999	 33.4857
9.956000	 33.4792
9.974000	 33.4959
9.992000	 33.5433
10.01	33.6142
10.028	33.6825
10.046	33.7184
10.064	33.7118
10.082	33.6778
10.1	33.6446
10.118	33.6313
10.136	33.6361
10.154	33.6446
10.172	33.6416
10.19	33.6213
10.208	33.589
10.226	33.5537
10.244	33.524
10.262	33.5026
10.28	33.4859
10.298	33.4663
10.316	33.4348
10.334	33.385
10.352	33.3169
10.37	33.2353
10.388	33.1494
10.406	33.0692
10.424	33.0065
10.442	32.9735
10.46	32.9773
10.478	33.0147
10.496	33.0697
10.514	33.1206
10.532	33.1473
10.55	33.1414
10.568	33.1065
10.586	33.0535
10.604	32.9922
10.622	32.9294
10.64	32.8701
10.658	32.821
10.676	32.79
10.694	32.7817
10.712	32.7943
10.73	32.8186
10.748	32.8428
10.766	32.8565
10.784	32.854
10.802	32.8336
10.82	32.795
10.838	32.7384
10.856	32.666
10.874	32.5835
10.892	32.5005
10.91	32.4284
10.928	32.3755
10.946	32.3461
10.964	32.3394
10.982	32.3506
11	32.3715
11.018	32.3915
11.036	32.4005
11.054	32.3912
11.072	32.3619
11.09	32.3172
11.108	32.2661
11.126	32.2193
11.144	32.1834
11.162	32.1595
11.18	32.1439
11.198	32.1303
11.216	32.1146
11.234	32.0957
11.252	32.0757
11.27	32.0584
11.288	32.0467
11.306	32.041
11.324	32.0383
11.342	32.0327
11.36	32.0174
11.378	31.986
11.396	31.9357
11.414	31.868
11.432	31.7904
11.45	31.7137
11.468	31.6507
11.486	31.6112
11.504	31.6001
11.522	31.6153
11.54	31.6497
11.558	31.6923
11.576	31.7311
11.594	31.7563
11.612	31.7611
11.63	31.7435
11.648	31.7056
11.666	31.6531
11.684	31.5931
11.702	31.5315
11.72	31.4727
11.738	31.4181
11.756	31.3674
11.774	31.319
11.792	31.2716
11.81	31.2241
11.828	31.1768
11.846	31.1307
11.864	31.0879
11.882	31.0513
11.9	31.0244
11.918	31.0111
11.936	31.0142
11.954	31.0339
11.972	31.0664
11.99	31.1028
12.008	31.1313
12.026	31.1391
12.044	31.116
12.062	31.0592
12.08	30.9749
12.098	30.8771
12.116	30.7837
12.134	30.7111
12.152	30.6689
12.17	30.6578
12.188	30.6708
12.206	30.6959
12.224	30.7202
12.242	30.7345
12.26	30.7345
12.278	30.7221
12.296	30.7036
12.314	30.6868
12.332	30.6774
12.35	30.6766
12.368	30.6804
12.386	30.6811
12.404	30.6707
12.422	30.6442
12.44	30.6018
12.458	30.5486
12.476	30.4936
12.494	30.4457
12.512	30.411
12.53	30.3903
12.548	30.3797
12.566	30.3723
12.584	30.3617
12.602	30.3437
12.62	30.3187
12.638	30.2906
12.656	30.2643
12.674	30.2433
12.692	30.2287
12.71	30.2187
12.728	30.2095
12.746	30.1968
12.764	30.177
12.782	30.1484
12.8	30.111
12.818	30.0662
12.836	30.0162
12.854	29.9638
12.872	29.9114
12.89	29.8614
12.908	29.8149
12.926	29.7726
12.944	29.7347
12.962	29.7015
12.98	29.6729
12.998	29.6492
13.016	29.631
13.034	29.6191
13.052	29.6137
13.07	29.6148
13.088	29.6209
13.106	29.6295
13.124	29.6364
13.142	29.6372
13.16	29.6282
13.178	29.6074
13.196	29.5748
13.214	29.5325
13.232	29.4844
13.25	29.4353
13.268	29.3898
13.286	29.3527
13.304	29.3277
13.322	29.3172
13.34	29.322
13.358	29.3403
13.376	29.368
13.394	29.3989
13.412	29.4254
13.43	29.44
13.448	29.4365
13.466	29.4115
13.484	29.3654
13.502	29.3023
13.52	29.2288
13.538	29.1533
13.556	29.083
13.574	29.0228
13.592	28.9737
13.61	28.9338
13.628	28.8984
13.646	28.8623
13.664	28.8211
13.682	28.773
13.7	28.7187
13.718	28.6616
13.736	28.6062
13.754	28.5569
13.772	28.5167
13.79	28.487
13.808	28.4669
13.826	28.4541
13.844	28.4453
13.862	28.4372
13.88	28.4272
13.898	28.4132
13.916	28.3946
13.934	28.3713
13.952	28.344
13.97	28.3133
13.988	28.2803
14.006	28.2462
14.024	28.2129
14.042	28.1828
14.06	28.1584
14.078	28.1426
14.096	28.1376
14.114	28.145
14.132	28.1645
14.15	28.194
14.168	28.2297
14.186	28.2662
14.204	28.2976
14.222	28.3175
14.24	28.3209
14.258	28.3044
14.276	28.2669
14.294	28.2096
14.312	28.1357
14.33	28.05
14.348	27.9583
14.366	27.8669
14.384	27.7812
14.402	27.7054
14.42	27.642
14.438	27.5921
14.456	27.5552
14.474	27.5297
14.492	27.5133
14.51	27.5028
14.528	27.4951
14.546	27.4873
14.564	27.4772
14.582	27.4631
14.6	27.444
14.618	27.4194
14.636	27.3893
14.654	27.3545
14.672	27.316
14.69	27.2751
14.708	27.2337
14.726	27.1938
14.744	27.1578
14.762	27.1279
14.78	27.1054
14.798	27.0913
14.816	27.0855
14.834	27.0873
14.852	27.0944
14.87	27.1043
14.888	27.1142
14.906	27.1217
14.924	27.1248
14.942	27.1224
14.96	27.1144
14.978	27.1012
14.996	27.0839
15.014	27.0637
15.032	27.0421
15.05	27.0196
15.068	26.9962
15.086	26.9711
15.104	26.9433
15.122	26.9115
15.14	26.8746
15.158	26.8324
15.176	26.7852
15.194	26.7342
15.212	26.6819
15.23	26.6309
15.248	26.5834
15.266	26.5419
15.284	26.5079
15.302	26.482
15.32	26.4641
15.338	26.4533
15.356	26.4478
15.374	26.4455
15.392	26.4446
15.41	26.4434
15.428	26.4402
15.446	26.434
15.464	26.4245
15.482	26.4116
15.5	26.3958
15.518	26.3783
15.536	26.3605
15.554	26.344
15.572	26.3301
15.59	26.3206
15.608	26.3163
15.626	26.3176
15.644	26.3245
15.662	26.3361
15.68	26.3505
15.698	26.3661
15.716	26.3798
15.734	26.389
15.752	26.3917
15.77	26.3863
15.788	26.3716
15.806	26.3486
15.824	26.3183
15.842	26.2833
15.86	26.2474
15.878	26.2135
15.896	26.1848
15.914	26.1643
15.932	26.153
15.95	26.1512
15.968	26.158
15.986	26.1704
16.004	26.1856
16.022	26.2002
16.04	26.2094
16.058	26.2103
16.076	26.2003
16.094	26.1772
16.112	26.1407
16.13	26.0912
16.148	26.0299
16.166	25.9598
16.184	25.8832
16.202	25.8031
16.22	25.7235
16.238	25.6466
16.256	25.5749
16.274	25.5112
16.292	25.4567
16.31	25.4127
16.328	25.3803
16.346	25.3595
16.364	25.3507
16.382	25.3534
16.4	25.3668
16.418	25.3903
16.436	25.422
16.454	25.46
16.472	25.503
16.49	25.5482
16.508	25.5938
16.526	25.6382
16.544	25.6791
16.562	25.715
16.58	25.7447
16.598	25.7666
16.616	25.7801
16.634	25.7845
16.652	25.7789
16.67	25.7631
16.688	25.7369
16.706	25.7003
16.724	25.6537
16.742	25.5977
16.76	25.5339
16.778	25.4633
16.796	25.3881
16.814	25.3111
16.832	25.234
16.85	25.1604
16.868	25.0926
16.886	25.0327
16.904	24.9835
16.922	24.9454
16.94	24.9197
16.958	24.906
16.976	24.9037
16.994	24.911
17.012	24.9259
17.03	24.9468
17.048	24.9701
17.066	24.9942
17.084	25.0169
17.102	25.0362
17.12	25.0513
17.138	25.0612
17.156	25.0659
17.174	25.065
17.192	25.0591
17.21	25.0484
17.228	25.0333
17.246	25.0143
17.264	24.9915
17.282	24.9653
17.3	24.9356
17.318	24.9025
17.336	24.8658
17.354	24.8254
17.372	24.7818
17.39	24.735
17.408	24.6855
17.426	24.6341
17.444	24.5811
17.462	24.5279
17.48	24.4747
17.498	24.4226
17.516	24.3722
17.534	24.3241
17.552	24.2785
17.57	24.2354
17.588	24.1949
17.606	24.1569
17.624	24.1209
17.642	24.087
17.66	24.055
17.678	24.0249
17.696	23.9967
17.714	23.9711
17.732	23.9485
17.75	23.9293
17.768	23.9147
17.786	23.905
17.804	23.9009
17.822	23.9026
17.84	23.9105
17.858	23.9242
17.876	23.9437
17.894	23.9677
17.912	23.9958
17.93	24.0257
17.948	24.057
17.966	24.0867
17.984	24.1142
18.002	24.1373
18.02	24.1546
18.038	24.165
18.056	24.1671
18.074	24.1605
18.092	24.1447
18.11	24.1198
18.128	24.0863
18.146	24.0447
18.164	23.9963
18.182	23.9423
18.2	23.8838
18.218	23.8227
18.236	23.7598
18.254	23.6971
18.272	23.6351
18.29	23.5757
18.308	23.5191
18.326	23.4668
18.344	23.4189
18.362	23.3762
18.38	23.3387
18.398	23.3068
18.416	23.2803
18.434	23.2596
18.452	23.244
18.47	23.2337
18.488	23.2277
18.506	23.2261
18.524	23.2273
18.542	23.2313
18.56	23.2361
18.578	23.2417
18.596	23.2459
18.614	23.2484
18.632	23.247
18.65	23.2415
18.668	23.2297
18.686	23.2117
18.704	23.1858
18.722	23.1522
18.74	23.1102
18.758	23.0601
18.776	23.0019
18.794	22.9364
18.812	22.8644
18.83	22.7867
18.848	22.7051
18.866	22.6205
18.884	22.5349
18.902	22.4496
18.92	22.3666
18.938	22.287
18.956	22.2129
18.974	22.1448
18.992	22.0845
19.01	22.0322
19.028	21.989
19.046	21.9548
19.064	21.9298
19.082	21.9137
19.1	21.9061
19.118	21.9062
19.136	21.9129
19.154	21.9256
19.172	21.9423
19.19	21.9626
19.208	21.9841
19.226	22.0067
19.244	22.0279
19.262	22.0479
19.28	22.0647
19.298	22.0784
19.316	22.0878
19.334	22.093
19.352	22.0937
19.37	22.0898
19.388	22.082
19.406	22.07
19.424	22.055
19.442	22.037
19.46	22.0174
19.478	21.9962
19.496	21.9746
19.514	21.9528
19.532	21.9317
19.55	21.9117
19.568	21.893
19.586	21.8761
19.604	21.8608
19.622	21.8475
19.64	21.8361
19.658	21.8265
19.676	21.8185
19.694	21.8118
19.712	21.8064
19.73	21.8016
19.748	21.7974
19.766	21.7931
19.784	21.7887
19.802	21.7835
19.82	21.7774
19.838	21.7699
19.856	21.7606
19.874	21.7495
19.892	21.736
19.91	21.7203
19.928	21.7021
19.946	21.6815
19.964	21.6588
19.982	21.6338
20	21.6074
20.018	21.5796
20.036	21.5513
20.054	21.5234
20.072	21.496
20.09	21.471
20.108	21.4481
20.126	21.4295
20.144	21.4151
20.162	21.4063
20.18	21.4036
20.198	21.4074
20.216	21.4185
20.234	21.4367
20.252	21.4618
20.27	21.4939
20.288	21.5315
20.306	21.575
20.324	21.622
20.342	21.6717
20.36	21.7229
20.378	21.7725
20.396	21.821
20.414	21.8641
20.432	21.9021
20.45	21.932
20.468	21.9525
20.486	21.9631
20.504	21.9613
20.522	21.9477
20.54	21.9214
20.558	21.8822
20.576	21.8312
20.594	21.7683
20.612	21.6949
20.63	21.613
20.648	21.5223
20.666	21.4271
20.684	21.3266
20.702	21.2242
20.72	21.1222
20.738	21.0205
20.756	20.9234
20.774	20.8298
20.792	20.7426
20.81	20.6625
20.828	20.5897
20.846	20.5255
20.864	20.4693
20.882	20.4212
20.9	20.3814
20.918	20.3486
20.936	20.3222
20.954	20.3019
20.972	20.2856
20.99	20.2737
21.008	20.2639
21.026	20.2555
21.044	20.2481
21.062	20.2394
21.08	20.23
21.098	20.2181
21.116	20.2033
21.134	20.1855
21.152	20.1637
21.17	20.1381
21.188	20.1084
21.206	20.0746
21.224	20.037
21.242	19.9959
21.26	19.9511
21.278	19.9039
21.296	19.854
21.314	19.802
21.332	19.749
21.35	19.6947
21.368	19.6405
21.386	19.5866
21.404	19.5336
21.422	19.4826
21.44	19.4333
21.458	19.3868
21.476	19.3436
21.494	19.3034
21.512	19.267
21.53	19.2342
21.548	19.205
21.566	19.1795
21.584	19.1576
21.602	19.1383
21.62	19.122
21.638	19.1079
21.656	19.0947
21.674	19.0829
21.692	19.0709
21.71	19.0582
21.728	19.0447
21.746	19.0287
21.764	19.0106
21.782	18.9897
21.8	18.9653
21.818	18.9376
21.836	18.9062
21.854	18.8706
21.872	18.8315
21.89	18.7893
21.908	18.7435
21.926	18.6956
21.944	18.646
21.962	18.5947
21.98	18.5439
21.998	18.4934
22.016	18.4441
22.034	18.3978
22.052	18.354
22.07	18.3141
22.088	18.2793
22.106	18.249
22.124	18.2243
22.142	18.2055
22.16	18.1923
22.178	18.185
22.196	18.1838
22.214	18.188
22.232	18.1974
22.25	18.2122
22.268	18.2311
22.286	18.2539
22.304	18.2805
22.322	18.3094
22.34	18.3405
22.358	18.3734
22.376	18.4063
22.394	18.4398
22.412	18.4729
22.43	18.504
22.448	18.534
22.466	18.5614
22.484	18.5852
22.502	18.6061
22.52	18.6226
22.538	18.6341
22.556	18.6411
22.574	18.6422
22.592	18.6371
22.61	18.6259
22.628	18.6076
22.646	18.5824
22.664	18.5502
22.682	18.5107
22.7	18.4637
22.718	18.4098
22.736	18.3491
22.754	18.2813
22.772	18.2078
22.79	18.1298
22.808	18.0464
22.826	17.96
22.844	17.8719
22.862	17.781
22.88	17.6903
22.898	17.601
22.916	17.5123
22.934	17.4265
22.952	17.3444
22.97	17.2654
22.988	17.1918
23.006	17.124
23.024	17.0616
23.042	17.005
23.06	16.955
23.078	16.9107
23.096	16.8708
23.114	16.8358
23.132	16.8049
23.15	16.7755
23.168	16.7481
23.186	16.7222
23.204	16.6943
23.222	16.6651
23.24	16.6341
23.258	16.5988
23.276	16.5594
23.294	16.5159
23.312	16.4668
23.33	16.4116
23.348	16.351
23.366	16.2859
23.384	16.2153
23.402	16.1404
23.42	16.0636
23.438	15.9842
23.456	15.903
23.474	15.8241
23.492	15.7471
23.51	15.6722
23.528	15.6036
23.546	15.5425
23.564	15.4876
23.582	15.442
23.6	15.4072
23.618	15.382
23.636	15.3668
23.654	15.3624
23.672	15.3686
23.69	15.3836
23.708	15.4064
23.726	15.4384
23.744	15.4762
23.762	15.5172
23.78	15.5638
23.798	15.6121
23.816	15.6572
23.834	15.7023
23.852	15.744
23.87	15.7773
23.888	15.8037
23.906	15.8224
23.924	15.8292
23.942	15.8238
23.96	15.8071
23.978	15.7777
23.996	15.7345
24.014	15.6782
24.032	15.6108
24.05	15.5329
24.068	15.4428
24.086	15.3453
24.104	15.2442
24.122	15.136
24.14	15.0251
24.158	14.9175
24.176	14.8105
24.194	14.706
24.212	14.6107
24.23	14.5254
24.248	14.4484
24.266	14.3844
24.284	14.3362
24.302	14.3012
24.32	14.282
24.338	14.2813
24.356	14.2981
24.374	14.3321
24.392	14.3833
24.41	14.4526
24.428	14.5389
24.446	14.6406
24.464	14.7569
24.482	14.8886
24.5	15.0344
24.518	15.1937
24.536	15.3674
24.554	15.554
24.572	15.7519
24.59	15.9629
24.608	16.1853
24.626	16.4149
24.644	16.6499
24.662	16.8928
24.68	17.1393
24.698	17.3856
24.716	17.6342
24.734	17.8832
24.752	18.1286
24.77	18.3704
24.788	18.6095
24.806	18.8427
24.824	19.0679
24.842	19.2865
24.86	19.498
24.878	19.7015
24.896	19.8975
24.914	20.0858
24.932	20.2651
24.95	20.4347
24.968	20.5951
24.986	20.7463
25.004	20.8885
25.022	21.0232
25.04	21.1487
25.058	21.2614
25.076	21.3607
25.094	21.4493
25.112	21.5215
25.13	21.572
25.148	21.6061
25.166	21.6199
25.184	21.6049
25.202	21.5582
25.22	21.486
25.238	21.3784
25.256	21.225
25.274	21.0286
25.292	20.7904
25.31	20.507
25.328	20.1746
25.346	19.7933
25.364	19.37
25.382	18.9116
25.4	18.412
25.418	17.8742
25.436	17.3131
25.454	16.7389
25.472	16.1375
25.49	15.5235
25.508	14.9173
25.526	14.3193
25.544	13.7204
25.562	13.1424
25.58	12.6057
25.598	12.0973
25.616	11.622
25.634	11.1983
25.652	10.8377
25.67	10.5284
25.688	10.2766
25.706	10.0914
25.724	9.975584
25.742	9.924477
25.76	9.936684
25.778	10.0116
25.796	10.1579
25.814	10.3655
25.832	10.6177
25.85	10.9054
25.868	11.2443
25.886	11.6167
25.904	12.0006
25.922	12.3922
25.94	12.8036
25.958	13.2176
25.976	13.6171
25.994	14.0048
26.012	14.3849
26.03	14.7514
26.048	15.0984
26.066	15.4242
26.084	15.7349
26.102	16.0374
26.12	16.3337
26.138	16.6131
26.156	16.8914
26.174	17.1871
26.192	17.5035
26.21	17.8268
26.228	18.1775
26.246	18.5775
26.264	19.0237
26.282	19.5075
26.3	20.0479
26.318	20.6636
26.336	21.3492
26.354	22.1007
26.372	22.9262
26.39	23.8335
26.408	24.8243
26.426	25.892
26.444	27.0298
26.462	28.2333
26.48	29.5141
26.498	30.8605
26.516	32.2547
26.534	33.6861
26.552	35.1782
26.57	36.7079
26.588	38.2437
26.606	39.7684
26.624	41.3142
26.642	42.8526
26.66	44.3474
26.678	45.7818
26.696	47.1901
26.714	48.5416
26.732	49.7994
26.75	50.9463
26.768	52.0138
26.786	52.9785
26.804	53.8127
26.822	54.5035
26.84	55.073
26.858	55.5082
26.876	55.7932
26.894	55.9171
26.912	55.8884
26.93	55.7134
26.948	55.3973
26.966	54.8866
26.984	54.0941
27.002	53.2353
27.02	52.5443
27.028	52.3703