File: Bakgrunnsmateriale/MATLAB/FTIR/ftir_data/subBb/Mapping_121/C-4040-8_t35_cm-1.asc
PE IR       SPECTRUM    SPECTRUM    ASCII       PEDS        1.60
  -1
C-1BEE~1.ASC
17/03/27
17:20:50.00
17/03/27
17:20:50.00
tln
$C-4040-8_t0035$<tbV0>[10.4,-5.2,8.0,0.0,27,1,0]
370
64

2002,4.07
MIRTGS : RIGHTBACK : INTERNAL 2
MIR : ON : INTERNAL 2
OPTKBR

0.200000
8
8.000000
FILLER
RATIO
SPECTRUM
UNLOCKED 256

DOUBLE
64
COMBINED
1
0
0

1.000000
RATIO

1
0
TRUE
51149
0
LEFT NOT FITTED RIGHT NOT FITTED 0
NONE
NONE
15600
12
4.427000
51148
TRUE
1 0 8 72 0 0 0 0

15798

#HDR
-1
-1
#GR
CM-1
%T
2.38419e-05
0.0
5000
-1.000000
4631
8
100.926
50.0056
#DATA
5000	64.96
4996	64.8451
4992	64.7565
4988	64.732
4984	64.4941
4980	64.3983
4976	64.7346
4972	65.1416
4968	65.2659
4964	65.064
4960	64.8894
4956	64.7114
4952	64.5509
4948	64.6976
4944	64.9843
4940	65.2115
4936	65.057
4932	64.7348
4928	64.83
4924	65.011
4920	64.8858
4916	64.8431
4912	65.0316
4908	65.0106
4904	64.8815
4900	65.2426
4896	65.6218
4892	65.2876
4888	64.9305
4884	65.0854
4880	65.264
4876	65.2978
4872	65.3136
4868	65.3678
4864	65.4151
4860	65.2239
4856	64.9182
4852	64.7255
4848	64.8183
4844	65.1429
4840	65.1891
4836	65.0036
4832	64.9061
4828	64.847
4824	64.92
4820	65.0809
4816	65.0783
4812	64.9213
4808	64.7978
4804	64.8147
4800	64.937
4796	65.0771
4792	65.0254
4788	64.8533
4784	64.8591
4780	64.926
4776	64.8439
4772	64.7406
4768	64.8864
4764	65.1699
4760	65.3285
4756	65.3169
4752	65.1063
4748	64.9846
4744	65.0904
4740	65.0671
4736	64.8967
4732	64.7814
4728	64.6988
4724	64.7059
4720	64.894
4716	64.9059
4712	64.6858
4708	64.6772
4704	64.7616
4700	64.8933
4696	65.1208
4692	65.0349
4688	64.7486
4684	64.6536
4680	64.6665
4676	64.7638
4672	64.9465
4668	65.0759
4664	65.1484
4660	65.1987
4656	65.1851
4652	65.0909
4648	65.0048
4644	64.8329
4640	64.6531
4636	64.7299
4632	64.8982
4628	64.8712
4624	64.7702
4620	64.8123
4616	64.8654
4612	64.9148
4608	64.985
4604	65.0006
4600	64.8867
4596	64.6513
4592	64.6385
4588	64.7961
4584	64.7637
4580	64.7255
4576	64.9917
4572	65.3473
4568	65.4524
4564	65.39
4560	65.251
4556	65.1742
4552	65.2608
4548	65.2847
4544	65.3977
4540	65.6327
4536	65.4347
4532	64.8648
4528	64.502
4524	64.5161
4520	64.8899
4516	65.2774
4512	65.3541
4508	65.2989
4504	65.179
4500	65.1444
4496	65.313
4492	65.4307
4488	65.3512
4484	65.2172
4480	65.2477
4476	65.3017
4472	65.0986
4468	64.9728
4464	65.2618
4460	65.5431
4456	65.5415
4452	65.4458
4448	65.4849
4444	65.6358
4440	65.6029
4436	65.343
4432	64.9818
4428	64.7594
4424	64.8817
4420	65.01
4416	64.8002
4412	64.6583
4408	64.9459
4404	65.3074
4400	65.8182
4396	66.3624
4392	65.9543
4388	65.7845
4384	65.082
4380	64.0142
4376	67.1137
4372	69.4694
4368	67.2272
4364	62.8684
4360	59.6543
4356	61.5004
4352	64.0298
4348	65.3717
4344	66.5064
4340	66.0248
4336	65.3119
4332	64.9696
4328	64.8823
4324	65.3598
4320	65.8509
4316	65.8607
4312	65.5359
4308	65.2723
4304	65.2808
4300	65.3121
4296	65.1916
4292	65.1322
4288	65.2147
4284	65.162
4280	65.1481
4276	65.2999
4272	65.3836
4268	65.5567
4264	65.6415
4260	65.2888
4256	64.9757
4252	65.0634
4248	65.1241
4244	64.8989
4240	64.7874
4236	65.0827
4232	65.4673
4228	65.5166
4224	65.2995
4220	65.2124
4216	65.1432
4212	64.9402
4208	64.973
4204	65.1249
4200	64.9857
4196	64.7241
4192	64.585
4188	64.519
4184	64.4844
4180	64.7934
4176	65.2377
4172	64.8821
4168	64.4315
4164	64.9807
4160	65.4868
4156	65.2907
4152	65.112
4148	65.2301
4144	65.3389
4140	65.2739
4136	65.2319
4132	65.2206
4128	65.079
4124	64.9735
4120	65.0083
4116	65.0116
4112	64.8211
4108	64.6095
4104	64.6519
4100	64.8485
4096	65.0355
4092	65.1259
4088	64.9924
4084	64.937
4080	65.0721
4076	65.0909
4072	65.0223
4068	65.0009
4064	65.014
4060	65.0242
4056	65.059
4052	65.1093
4048	65.1213
4044	65.1177
4040	65.0944
4036	65.0339
4032	65.0432
4028	65.1017
4024	65.1194
4020	65.2146
4016	65.3389
4012	65.2597
4008	65.079
4004	65.0041
4000	64.9693
3996	65.0225
3992	65.2555
3988	65.4027
3984	65.29
3980	65.1085
3976	65.0589
3972	65.1577
3968	65.2499
3964	65.2632
3960	65.1982
3956	65.068
3952	65.0389
3948	65.1168
3944	65.1366
3940	65.0082
3936	64.8354
3932	64.8619
3928	65.0264
3924	65.1297
3920	65.1168
3916	65.0072
3912	64.9485
3908	64.979
3904	64.9509
3900	64.8913
3896	65.022
3892	65.2114
3888	65.2425
3884	65.2374
3880	65.291
3876	65.3231
3872	65.1936
3868	65.027
3864	65.0612
3860	65.2117
3856	65.275
3852	65.2686
3848	65.2822
3844	65.2506
3840	65.1533
3836	65.0456
3832	64.9962
3828	65.0914
3824	65.2217
3820	65.243
3816	65.2167
3812	65.2219
3808	65.2474
3804	65.1976
3800	65.0733
3796	65.0087
3792	65.0265
3788	65.0642
3784	65.0728
3780	65.0256
3776	64.9391
3772	64.9244
3768	65.0591
3764	65.211
3760	65.3019
3756	65.3731
3752	65.3744
3748	65.2774
3744	65.1881
3740	65.1932
3736	65.2052
3732	65.2026
3728	65.303
3724	65.4101
3720	65.3549
3716	65.2612
3712	65.2409
3708	65.2747
3704	65.3677
3700	65.4138
3696	65.3398
3692	65.2364
3688	65.1628
3684	65.0987
3680	65.0714
3676	65.0776
3672	65.0257
3668	64.9254
3664	64.8821
3660	64.9853
3656	65.1425
3652	65.2516
3648	65.3337
3644	65.3382
3640	65.2379
3636	65.1426
3632	65.1655
3628	65.2351
3624	65.269
3620	65.2565
3616	65.2384
3612	65.268
3608	65.2479
3604	65.1139
3600	65.0007
3596	65.074
3592	65.1662
3588	65.1547
3584	65.2351
3580	65.2976
3576	65.239
3572	65.1997
3568	65.15
3564	65.0581
3560	65.078
3556	65.2667
3552	65.3648
3548	65.2517
3544	65.034
3540	64.9371
3536	65.0644
3532	65.1327
3528	65.0543
3524	65.0048
3520	65.0862
3516	65.2386
3512	65.2872
3508	65.2358
3504	65.1886
3500	65.2246
3496	65.2831
3492	65.2694
3488	65.3303
3484	65.3943
3480	65.2546
3476	65.1389
3472	65.1073
3468	65.058
3464	65.1454
3460	65.2379
3456	65.2389
3452	65.3325
3448	65.4183
3444	65.39
3440	65.31
3436	65.2167
3432	65.1785
3428	65.1614
3424	65.0537
3420	64.9932
3416	65.1153
3412	65.195
3408	65.1503
3404	65.1229
3400	65.1143
3396	65.1366
3392	65.1344
3388	65.0855
3384	65.1416
3380	65.2684
3376	65.3462
3372	65.3026
3368	65.1079
3364	64.9665
3360	65.0381
3356	65.2183
3352	65.3163
3348	65.2208
3344	65.155
3340	65.266
3336	65.2948
3332	65.1549
3328	64.9802
3324	64.9361
3320	65.0866
3316	65.3203
3312	65.4609
3308	65.4616
3304	65.3781
3300	65.3008
3296	65.3116
3292	65.3152
3288	65.3281
3284	65.3517
3280	65.2676
3276	65.1878
3272	65.1973
3268	65.1965
3264	65.2551
3260	65.3715
3256	65.3959
3252	65.4026
3248	65.358
3244	65.2352
3240	65.2445
3236	65.3277
3232	65.2755
3228	65.1797
3224	65.21
3220	65.2395
3216	65.1081
3212	65.0141
3208	65.0695
3204	65.1581
3200	65.2213
3196	65.182
3192	65.1329
3188	65.1712
3184	65.2236
3180	65.2684
3176	65.26
3172	65.182
3168	65.0822
3164	65.0996
3160	65.2181
3156	65.1885
3152	65.1488
3148	65.2432
3144	65.293
3140	65.3004
3136	65.3006
3132	65.2763
3128	65.2734
3124	65.3004
3120	65.342
3116	65.3841
3112	65.3897
3108	65.3482
3104	65.2921
3100	65.2515
3096	65.2331
3092	65.2031
3088	65.1818
3084	65.2469
3080	65.3627
3076	65.3644
3072	65.3016
3068	65.2858
3064	65.2385
3060	65.1635
3056	65.1011
3052	65.0711
3048	65.1102
3044	65.1559
3040	65.2108
3036	65.3388
3032	65.4094
3028	65.3558
3024	65.2976
3020	65.3075
3016	65.3383
3012	65.3069
3008	65.2029
3004	65.0954
3000	65.1002
2996	65.1871
2992	65.1682
2988	65.1002
2984	65.1555
2980	65.2745
2976	65.3683
2972	65.4102
2968	65.3621
2964	65.2464
2960	65.1925
2956	65.2154
2952	65.1693
2948	65.1053
2944	65.1419
2940	65.1699
2936	65.1157
2932	65.003
2928	64.9098
2924	64.9057
2920	64.8703
2916	64.8229
2912	64.8712
2908	64.9583
2904	65.0547
2900	65.2016
2896	65.3103
2892	65.2605
2888	65.1925
2884	65.1855
2880	65.1549
2876	65.2138
2872	65.3531
2868	65.3716
2864	65.2406
2860	65.0734
2856	64.9792
2852	64.9374
2848	64.9481
2844	65.1101
2840	65.3095
2836	65.306
2832	65.186
2828	65.1866
2824	65.2813
2820	65.3851
2816	65.4646
2812	65.4188
2808	65.316
2804	65.2922
2800	65.3018
2796	65.3217
2792	65.3633
2788	65.3485
2784	65.3039
2780	65.3084
2776	65.3213
2772	65.317
2768	65.3396
2764	65.3418
2760	65.3242
2756	65.3131
2752	65.2469
2748	65.2289
2744	65.3221
2740	65.3704
2736	65.3546
2732	65.3649
2728	65.3907
2724	65.3584
2720	65.2675
2716	65.2077
2712	65.1888
2708	65.2212
2704	65.3546
2700	65.4401
2696	65.3924
2692	65.331
2688	65.3088
2684	65.3254
2680	65.3121
2676	65.2883
2672	65.3744
2668	65.4448
2664	65.41
2660	65.33
2656	65.2626
2652	65.3002
2648	65.3673
2644	65.3982
2640	65.3965
2636	65.3567
2632	65.3463
2628	65.3562
2624	65.3624
2620	65.3241
2616	65.2575
2612	65.2602
2608	65.3121
2604	65.3072
2600	65.2228
2596	65.2165
2592	65.2885
2588	65.2901
2584	65.2748
2580	65.2919
2576	65.3098
2572	65.341
2568	65.3454
2564	65.3085
2560	65.3179
2556	65.3641
2552	65.3919
2548	65.4259
2544	65.4623
2540	65.4673
2536	65.4294
2532	65.3853
2528	65.3513
2524	65.35
2520	65.3744
2516	65.3216
2512	65.2117
2508	65.1536
2504	65.2046
2500	65.2836
2496	65.3072
2492	65.3307
2488	65.3795
2484	65.3825
2480	65.3631
2476	65.3677
2472	65.3664
2468	65.4134
2464	65.4564
2460	65.3894
2456	65.2962
2452	65.3001
2448	65.4108
2444	65.4767
2440	65.3835
2436	65.2582
2432	65.2185
2428	65.2501
2424	65.3541
2420	65.4562
2416	65.4495
2412	65.2784
2408	65.0702
2404	65.0606
2400	65.2121
2396	65.3435
2392	65.4322
2388	65.4809
2384	65.4228
2380	65.3179
2376	65.2622
2372	65.3021
2368	65.3731
2364	65.3714
2360	65.3498
2356	65.3222
2352	65.3398
2348	65.4155
2344	65.4336
2340	65.4168
2336	65.416
2332	65.4134
2328	65.3969
2324	65.3922
2320	65.4003
2316	65.3877
2312	65.3898
2308	65.4397
2304	65.4685
2300	65.4448
2296	65.4011
2292	65.3428
2288	65.3201
2284	65.3417
2280	65.35
2276	65.3516
2272	65.3438
2268	65.3206
2264	65.3174
2260	65.3593
2256	65.4264
2252	65.4768
2248	65.4684
2244	65.3938
2240	65.3259
2236	65.3074
2232	65.3261
2228	65.3539
2224	65.3224
2220	65.2827
2216	65.3237
2212	65.3733
2208	65.4069
2204	65.4505
2200	65.4511
2196	65.4245
2192	65.4227
2188	65.421
2184	65.4172
2180	65.3914
2176	65.3316
2172	65.322
2168	65.3103
2164	65.2938
2160	65.3845
2156	65.4314
2152	65.3973
2148	65.3871
2144	65.3439
2140	65.3642
2136	65.4597
2132	65.4808
2128	65.4185
2124	65.3507
2120	65.3561
2116	65.3923
2112	65.3886
2108	65.4029
2104	65.4654
2100	65.4649
2096	65.4173
2092	65.4459
2088	65.5096
2084	65.5604
2080	65.5961
2076	65.5492
2072	65.3916
2068	65.2354
2064	65.2319
2060	65.4161
2056	65.5921
2052	65.5961
2048	65.4865
2044	65.3678
2040	65.3027
2036	65.3071
2032	65.3666
2028	65.4045
2024	65.4113
2020	65.4388
2016	65.47
2012	65.5006
2008	65.514
2004	65.4754
2000	65.4344
1996	65.4315
1992	65.4341
1988	65.4451
1984	65.4692
1980	65.4465
1976	65.3985
1972	65.3735
1968	65.3779
1964	65.4402
1960	65.4933
1956	65.4902
1952	65.4704
1948	65.416
1944	65.3666
1940	65.376
1936	65.4196
1932	65.4526
1928	65.4614
1924	65.4814
1920	65.4818
1916	65.4374
1912	65.4081
1908	65.3737
1904	65.3042
1900	65.3003
1896	65.3861
1892	65.4367
1888	65.4026
1884	65.3514
1880	65.3489
1876	65.3871
1872	65.398
1868	65.3891
1864	65.4216
1860	65.4629
1856	65.4533
1852	65.428
1848	65.4197
1844	65.4226
1840	65.4432
1836	65.4372
1832	65.3794
1828	65.3636
1824	65.3955
1820	65.3926
1816	65.3716
1812	65.3826
1808	65.3863
1804	65.3611
1800	65.3748
1796	65.3759
1792	65.3443
1788	65.3426
1784	65.3243
1780	65.2955
1776	65.3222
1772	65.397
1768	65.4343
1764	65.4155
1760	65.404
1756	65.3918
1752	65.383
1748	65.3772
1744	65.3103
1740	65.2157
1736	65.1939
1732	65.1958
1728	65.1398
1724	65.1196
1720	65.2288
1716	65.3659
1712	65.4069
1708	65.3924
1704	65.3945
1700	65.4308
1696	65.4288
1692	65.3846
1688	65.4119
1684	65.4452
1680	65.4201
1676	65.3846
1672	65.3365
1668	65.3422
1664	65.4008
1660	65.404
1656	65.3971
1652	65.4464
1648	65.4746
1644	65.4256
1640	65.3794
1636	65.3909
1632	65.3954
1628	65.4119
1624	65.4522
1620	65.4407
1616	65.3942
1612	65.3697
1608	65.3658
1604	65.3458
1600	65.3354
1596	65.3847
1592	65.434
1588	65.4235
1584	65.3951
1580	65.383
1576	65.3502
1572	65.2762
1568	65.2047
1564	65.2339
1560	65.3523
1556	65.4287
1552	65.3966
1548	65.3295
1544	65.3347
1540	65.3558
1536	65.325
1532	65.291
1528	65.3021
1524	65.2771
1520	65.1934
1516	65.1802
1512	65.2055
1508	65.1669
1504	65.1409
1500	65.2201
1496	65.3429
1492	65.3287
1488	65.233
1484	65.2125
1480	65.2156
1476	65.269
1472	65.3363
1468	65.296
1464	65.1893
1460	65.1637
1456	65.3177
1452	65.4845
1448	65.5055
1444	65.4552
1440	65.3268
1436	65.1773
1432	65.1427
1428	65.1735
1424	65.1616
1420	65.1358
1416	65.2025
1412	65.2855
1408	65.2437
1404	65.148
1400	65.1155
1396	65.0966
1392	65.0889
1388	65.1742
1384	65.2485
1380	65.2158
1376	65.1283
1372	64.9993
1368	64.9261
1364	64.9998
1360	65.1303
1356	65.2252
1352	65.2351
1348	65.185
1344	65.155
1340	65.1832
1336	65.2407
1332	65.2209
1328	65.1608
1324	65.1382
1320	65.1422
1316	65.1536
1312	65.1299
1308	65.1533
1304	65.1824
1300	65.1019
1296	65.0587
1292	65.0983
1288	65.1273
1284	65.1773
1280	65.259
1276	65.2465
1272	65.1499
1268	65.161
1264	65.2258
1260	65.2205
1256	65.2437
1252	65.3108
1248	65.2728
1244	65.1519
1240	65.1088
1236	65.1533
1232	65.1888
1228	65.1821
1224	65.1944
1220	65.2337
1216	65.2025
1212	65.1136
1208	65.0599
1204	65.0797
1200	65.1363
1196	65.1149
1192	65.0272
1188	64.9663
1184	65.0036
1180	65.1138
1176	65.1554
1172	65.141
1168	65.1191
1164	65.0363
1160	64.926
1156	64.9544
1152	65.0949
1148	65.1414
1144	65.1352
1140	65.1691
1136	65.1667
1132	64.9315
1128	64.5845
1124	64.5786
1120	64.8078
1116	64.9407
1112	65.0513
1108	65.1721
1104	65.1406
1100	64.9637
1096	64.975
1092	65.173
1088	65.2852
1084	65.1795
1080	64.9335
1076	64.8854
1072	64.9611
1068	64.9508
1064	64.9831
1060	64.9555
1056	64.9324
1052	65.0162
1048	65.022
1044	65.0908
1040	65.2384
1036	65.3029
1032	65.2258
1028	64.929
1024	64.6778
1020	64.7458
1016	64.8856
1012	64.9534
1008	64.8794
1004	64.7152
1000	64.6783
996	 64.6921
992	 64.8105
988	 65.0433
984	 65.0123
980	 64.7142
976	 64.6311
972	 64.7294
968	 64.7298
964	 64.6175
960	 64.5272
956	 64.715
952	 64.9527
948	 64.9365
944	 64.8352
940	 64.6816
936	 64.5969
932	 64.7003
928	 64.6907
924	 64.5812
920	 64.6491
916	 64.7544
912	 64.739
908	 64.7255
904	 64.7919
900	 64.8405
896	 64.7604
892	 64.6319
888	 64.6289
884	 64.7166
880	 64.6857
876	 64.5442
872	 64.499
868	 64.5352
864	 64.5982
860	 64.6588
856	 64.6644
852	 64.7371
848	 64.8143
844	 64.7414
840	 64.6123
836	 64.5183
832	 64.4547
828	 64.4501
824	 64.5725
820	 64.5463
816	 64.3329
812	 64.2994
808	 64.3851
804	 64.3934
800	 64.3186
796	 64.2732
792	 64.2712
788	 64.2188
784	 64.1503
780	 64.1706
776	 64.2617
772	 64.3483
768	 64.4184
764	 64.3687
760	 64.1866
756	 63.9513
752	 63.6041
748	 63.5349
744	 63.932
740	 64.0392
736	 63.8651
732	 64.0157
728	 64.0971
724	 63.8264
720	 63.6908
716	 63.7441
712	 63.7111
708	 63.7846
704	 64.0887
700	 64.0601
696	 63.5118
692	 63.1527
688	 63.3114
684	 63.5
680	 63.4036
676	 63.2605
672	 63.2587
668	 63.2607
664	 63.2142
660	 63.2921
656	 63.415
652	 63.3438
648	 63.2387
644	 63.1603
640	 63.0433
636	 63.0773
632	 63.1146
628	 63.0951
624	 63.1743
620	 63.2262
616	 63.147
612	 63.0025
608	 62.9112
604	 62.9057
600	 62.8777
596	 62.8251
592	 62.856
588	 62.8471
584	 62.7274
580	 62.7504
576	 63.1008
572	 63.3268
568	 63.2323
564	 63.2691
560	 63.2114
556	 62.765
552	 62.561
548	 62.7814
544	 62.7345
540	 62.3049
536	 62.1239
532	 62.1427
528	 61.9882
524	 61.7887
520	 61.7151
516	 61.708
512	 61.7372
508	 61.8861
504	 61.9474
500	 62.067
496	 62.3451
492	 62.2207
488	 61.7654
484	 61.6446
480	 61.717
476	 61.4666
472	 61.2207
468	 61.6546
464	 62.0716
460	 61.4493
456	 60.4271
452	 60.0725
448	 59.8641
444	 58.9358
440	 58.4112
436	 58.7422
432	 58.5802
428	 56.5003
424	 54.1325
420	 54.1654
416	 53.4482
412	 50.4657
408	 50.7802
404	 52.186
400	 52.0271
396	 56.5694
392	 78.7613
388	 100.926
384	 79.442
380	 51.1375
376	 61.6213
372	 64.2262
370	 60.0086