File: Bakgrunnsmateriale/MATLAB/FTIR/ftir_data/subBb/Mapping_121/C-4040-8_t86.asc
PE IR       SPECTRUM    SPECTRUM    ASCII       PEDS        1.60
  -1
C-B542~1.ASC
17/03/27
21:31:06.00
17/03/27
21:31:32.00
tln
$C-4040-8_t0086$<tbV0>[-7.8,5.2,8.0,0.0,27,1,0]
27.028
64

2002,4.07
MIRTGS : RIGHTBACK : INTERNAL 2
MIR : ON : INTERNAL 2
OPTKBR

0.200000
8
8.000000
FILLER
RATIO
SPECTRUM
UNLOCKED 256

DOUBLE
64
COMBINED
1
0
0

0.002000
RATIO

1
0
TRUE
51149
0
LEFT NOT FITTED RIGHT NOT FITTED 0
NONE
NONE
15600
12
4.427000
51148
TRUE
1 0 8 72 0 0 0 0

15798

#HDR
-1
-1
#GR
µM
%T
2.38419e-05
0.0
2.000000
0.002000
12515
8
117.117
-4.198217
#DATA
2.000000	 64.5016
2.018000	 64.7978
2.036000	 65.0795
2.054000	 64.589
2.072000	 65.1601
2.090000	 65.1758
2.108000	 65.5689
2.126000	 65.5353
2.144000	 65.1036
2.162000	 65.3127
2.180000	 65.0859
2.198000	 64.3285
2.216000	 64.6453
2.234000	 64.1312
2.252000	 63.9891
2.270000	 61.9885
2.288000	 69.632
2.306000	 64.3886
2.324000	 64.6854
2.342000	 64.8935
2.360000	 64.242
2.378000	 64.8563
2.396000	 65.6072
2.414000	 64.7153
2.432000	 65.2717
2.450000	 65.2048
2.468000	 65.0488
2.486000	 65.5099
2.504000	 65.3116
2.522000	 65.3031
2.540000	 65.2816
2.558000	 65.2508
2.576000	 65.3224
2.594000	 64.9897
2.612000	 65.4082
2.630000	 65.1951
2.648000	 65.0851
2.666000	 65.1624
2.684000	 65.3197
2.702000	 65.2845
2.720000	 65.1251
2.738000	 65.1673
2.756000	 65.3064
2.774000	 65.1662
2.792000	 65.4922
2.810000	 65.4316
2.828000	 65.3981
2.846000	 65.4103
2.864000	 65.1068
2.882000	 65.4624
2.900000	 65.4564
2.918000	 65.3078
2.936000	 65.1141
2.954000	 65.4037
2.972000	 65.1906
2.990000	 65.2184
3.008000	 65.2272
3.026000	 65.3718
3.044000	 65.1851
3.062000	 65.3844
3.080000	 65.201
3.098000	 65.1661
3.116000	 65.3673
3.134000	 65.2466
3.152000	 65.3825
3.170000	 65.411
3.188000	 65.6494
3.206000	 65.3122
3.224000	 65.3451
3.242000	 65.343
3.260000	 65.3832
3.278000	 65.4745
3.296000	 65.4047
3.314000	 65.2054
3.332000	 65.2136
3.350000	 65.2045
3.368000	 65.0737
3.386000	 65.1706
3.404000	 65.2721
3.422000	 64.9844
3.440000	 65.1762
3.458000	 65.2444
3.476000	 65.1
3.494000	 65.3291
3.512000	 65.2132
3.530000	 65.2765
3.548000	 65.3615
3.566000	 65.3998
3.584000	 65.2612
3.602000	 65.3944
3.620000	 65.4863
3.638000	 65.5584
3.656000	 65.3748
3.674000	 65.4347
3.692000	 65.3871
3.710000	 65.3767
3.728000	 65.504
3.746000	 65.4978
3.764000	 65.4057
3.782000	 65.3289
3.800000	 65.4074
3.818000	 65.4206
3.836000	 65.4052
3.854000	 65.3674
3.872000	 65.4844
3.890000	 65.3524
3.908000	 65.4139
3.926000	 65.3551
3.944000	 65.4041
3.962000	 65.4294
3.980000	 65.3602
3.998000	 65.2809
4.016000	 65.2153
4.034000	 65.3202
4.052000	 65.2704
4.070000	 65.3328
4.088000	 65.3344
4.106000	 65.4658
4.124000	 65.2709
4.141999	 65.347
4.160000	 65.4524
4.178000	 65.4907
4.196000	 65.3695
4.214000	 65.3777
4.232000	 65.325
4.250000	 65.4201
4.268000	 65.3596
4.286000	 65.4652
4.304000	 65.3655
4.322000	 65.4863
4.340000	 65.437
4.358000	 65.319
4.375999	 65.3261
4.394000	 65.318
4.412000	 65.4678
4.430000	 65.4058
4.448000	 65.4161
4.466000	 65.4592
4.484000	 65.5025
4.502000	 65.4707
4.520000	 65.4114
4.538000	 65.4528
4.556000	 65.4888
4.574000	 65.3054
4.592000	 65.3599
4.609999	 65.4359
4.628000	 65.5444
4.646000	 65.1429
4.664000	 65.1193
4.682000	 65.4295
4.700000	 65.2423
4.718000	 65.3758
4.736000	 65.455
4.754000	 65.4932
4.772000	 65.3779
4.790000	 65.3341
4.808000	 65.4166
4.826000	 65.6056
4.843999	 65.3787
4.862000	 65.1459
4.880000	 65.285
4.898000	 65.3656
4.916000	 65.4498
4.934000	 65.5795
4.952000	 65.3834
4.970000	 65.3506
4.988000	 65.3599
5.006000	 65.2284
5.024000	 65.3049
5.042000	 65.3747
5.060000	 65.4216
5.077999	 65.4026
5.096000	 65.3046
5.114000	 65.4311
5.132000	 65.4071
5.150000	 65.3414
5.168000	 65.421
5.186000	 65.4063
5.204000	 65.3975
5.222000	 65.387
5.240000	 65.4386
5.258000	 65.5095
5.276000	 65.4658
5.294000	 65.4299
5.312000	 65.3711
5.330000	 65.3837
5.348000	 65.4592
5.366000	 65.3949
5.384000	 65.3611
5.402000	 65.3377
5.420000	 65.3656
5.438000	 65.4176
5.456000	 65.4244
5.474000	 65.3391
5.492000	 65.3748
5.510000	 65.5537
5.528000	 65.5792
5.546000	 65.5054
5.564000	 65.4703
5.582000	 65.4484
5.600000	 65.4878
5.618000	 65.4568
5.636000	 65.4215
5.654000	 65.334
5.672000	 65.3424
5.690000	 65.4509
5.708000	 65.4209
5.726000	 65.2995
5.744000	 65.2343
5.762000	 65.2764
5.780000	 65.2913
5.798000	 65.3333
5.816000	 65.4199
5.834000	 65.5127
5.852000	 65.3395
5.870000	 65.2717
5.888000	 65.327
5.906000	 65.4504
5.923999	 65.4085
5.942000	 65.3605
5.960000	 65.3118
5.978000	 65.2572
5.996000	 65.2921
6.014000	 65.3353
6.032000	 65.316
6.050000	 65.3704
6.068000	 65.4447
6.086000	 65.3697
6.104000	 65.2102
6.122000	 65.1872
6.140000	 65.1817
6.158000	 65.1825
6.176000	 65.1952
6.194000	 65.1511
6.212000	 65.133
6.230000	 65.2021
6.248000	 65.1883
6.266000	 65.0535
6.284000	 65.0853
6.302000	 65.1695
6.320000	 65.1291
6.338000	 65.1539
6.356000	 65.2107
6.374000	 65.186
6.392000	 65.11
6.410000	 65.0272
6.428000	 65.0554
6.446000	 65.092
6.464000	 65.0586
6.482000	 65.0676
6.500000	 65.1312
6.518000	 65.1273
6.536000	 65.0722
6.554000	 65.0898
6.572000	 65.1619
6.590000	 65.1848
6.608000	 65.1722
6.626000	 65.242
6.644000	 65.3104
6.662000	 65.2629
6.680000	 65.1871
6.698000	 65.1702
6.716000	 65.2283
6.734000	 65.2634
6.752000	 65.2199
6.770000	 65.136
6.788000	 65.034
6.806000	 64.9785
6.824000	 65.0271
6.842000	 65.1336
6.860000	 65.2041
6.878000	 65.1391
6.896000	 64.9198
6.914000	 64.8184
6.932000	 64.9683
6.950000	 65.1188
6.968000	 65.1692
6.986000	 65.2212
7.004000	 65.2834
7.022000	 65.2891
7.040000	 65.2269
7.058000	 65.1926
7.076000	 65.1881
7.094000	 65.1252
7.112000	 65.0703
7.130000	 65.1387
7.148000	 65.2863
7.166000	 65.3686
7.184000	 65.3376
7.202000	 65.269
7.220000	 65.199
7.238000	 65.1782
7.256000	 65.2693
7.274000	 65.309
7.292000	 65.1966
7.310000	 65.14
7.328000	 65.2222
7.346000	 65.2815
7.364000	 65.248
7.382000	 65.1638
7.400000	 65.0847
7.418000	 65.0837
7.436000	 65.181
7.454000	 65.2947
7.472000	 65.3264
7.490000	 65.2688
7.508000	 65.2061
7.526000	 65.1845
7.544000	 65.1606
7.562000	 65.119
7.580000	 65.1223
7.598000	 65.1784
7.616000	 65.1898
7.634000	 65.1083
7.652000	 65.0241
7.670000	 65.0285
7.688000	 65.0936
7.706000	 65.145
7.724000	 65.1552
7.742000	 65.1263
7.760000	 65.0707
7.778000	 65.0358
7.796000	 65.0685
7.814000	 65.1383
7.832000	 65.1538
7.850000	 65.0854
7.868000	 65.0135
7.886000	 65.0141
7.904000	 65.0543
7.922000	 65.0648
7.940000	 65.0444
7.958000	 65.0195
7.976000	 64.9884
7.994000	 64.9499
8.012000	 64.9259
8.030000	 64.9298
8.048000	 64.9533
8.065999	 64.9974
8.084000	 65.0782
8.102000	 65.1806
8.120000	 65.2424
8.138000	 65.2194
8.155999	 65.1411
8.173999	 65.063
8.192000	 65.008
8.210000	 64.9882
8.228000	 65.0245
8.246000	 65.1081
8.263999	 65.1825
8.282000	 65.1881
8.300000	 65.109
8.318000	 64.9747
8.336000	 64.8435
8.353999	 64.7785
8.372000	 64.8095
8.390000	 64.9014
8.408000	 64.9725
8.426000	 64.9603
8.443999	 64.8806
8.462000	 64.8055
8.480000	 64.7881
8.498000	 64.8264
8.516000	 64.8913
8.533999	 64.9619
8.552000	 65.0225
8.570000	 65.048
8.588000	 65.0218
8.606000	 64.9635
8.624000	 64.9196
8.641999	 64.9177
8.660000	 64.9375
8.678000	 64.9346
8.696000	 64.8883
8.714000	 64.82
8.731999	 64.7717
8.750000	 64.7768
8.768000	 64.8372
8.786000	 64.9163
8.804000	 64.9595
8.821999	 64.9366
8.840000	 64.8688
8.858000	 64.8076
8.876000	 64.7853
8.894000	 64.7945
8.911999	 64.8088
8.930000	 64.8141
8.948000	 64.8149
8.966000	 64.8217
8.984000	 64.8353
9.001999	 64.8422
9.020000	 64.8234
9.038000	 64.7729
9.056000	 64.7076
9.074000	 64.6568
9.092000	 64.6326
9.109999	 64.6181
9.128000	 64.5876
9.146000	 64.5445
9.164000	 64.5317
9.182000	 64.6017
9.199999	 64.7647
9.218000	 64.9713
9.236000	 65.1467
9.254000	 65.2456
9.272000	 65.2747
9.289999	 65.2676
9.308000	 65.2431
9.326000	 65.1953
9.344000	 65.1131
9.362000	 65.0033
9.379999	 64.8882
9.398000	 64.7897
9.416000	 64.718
9.434000	 64.6704
9.452000	 64.6338
9.469999	 64.5908
9.488000	 64.5304
9.506000	 64.465
9.524000	 64.4297
9.542000	 64.4549
9.560000	 64.5387
9.577999	 64.6447
9.596000	 64.7313
9.614000	 64.7765
9.632000	 64.7818
9.650000	 64.7633
9.667999	 64.743
9.686000	 64.7402
9.704000	 64.7605
9.722000	 64.7847
9.740000	 64.7751
9.757999	 64.7011
9.776000	 64.5699
9.794000	 64.4319
9.812000	 64.3518
9.830000	 64.3668
9.847999	 64.4646
9.866000	 64.5991
9.884000	 64.724
9.902000	 64.8163
9.920000	 64.8775
9.937999	 64.9154
9.956000	 64.9339
9.974000	 64.9358
9.992000	 64.9329
10.01	64.9463
10.028	64.9944
10.046	65.0742
10.064	65.1585
10.082	65.2097
10.1	65.2003
10.118	65.1304
10.136	65.0263
10.154	64.9225
10.172	64.8462
10.19	64.8081
10.208	64.803
10.226	64.8192
10.244	64.8455
10.262	64.8741
10.28	64.8968
10.298	64.9004
10.316	64.8686
10.334	64.7953
10.352	64.6957
10.37	64.6059
10.388	64.564
10.406	64.5859
10.424	64.6543
10.442	64.729
10.46	64.7756
10.478	64.786
10.496	64.7822
10.514	64.7925
10.532	64.8304
10.55	64.8814
10.568	64.9164
10.586	64.9133
10.604	64.8747
10.622	64.8273
10.64	64.8041
10.658	64.8278
10.676	64.8999
10.694	65.0051
10.712	65.1208
10.73	65.2267
10.748	65.3073
10.766	65.3558
10.784	65.3723
10.802	65.3641
10.82	65.3433
10.838	65.3223
10.856	65.3092
10.874	65.305
10.892	65.3079
10.91	65.3197
10.928	65.3482
10.946	65.4056
10.964	65.5
10.982	65.6272
11	65.768
11.018	65.8915
11.036	65.966
11.054	65.9679
11.072	65.893
11.09	65.7579
11.108	65.5931
11.126	65.4354
11.144	65.3094
11.162	65.2224
11.18	65.1614
11.198	65.1013
11.216	65.0207
11.234	64.9157
11.252	64.8035
11.27	64.7128
11.288	64.6719
11.306	64.6899
11.324	64.7543
11.342	64.8379
11.36	64.9132
11.378	64.9623
11.396	64.9832
11.414	64.9852
11.432	64.9789
11.45	64.9685
11.468	64.9503
11.486	64.9171
11.504	64.8662
11.522	64.8013
11.54	64.7307
11.558	64.6641
11.576	64.6067
11.594	64.5573
11.612	64.5106
11.63	64.4594
11.648	64.4004
11.666	64.3371
11.684	64.2816
11.702	64.25
11.72	64.2571
11.738	64.31
11.756	64.403
11.774	64.5187
11.792	64.6343
11.81	64.7294
11.828	64.7919
11.846	64.8206
11.864	64.8233
11.882	64.8115
11.9	64.7952
11.918	64.7803
11.936	64.7683
11.954	64.7598
11.972	64.757
11.99	64.7641
12.008	64.7845
12.026	64.8172
12.044	64.8553
12.062	64.8851
12.08	64.891
12.098	64.8614
12.116	64.7926
12.134	64.6921
12.152	64.5767
12.17	64.465
12.188	64.3734
12.206	64.3096
12.224	64.2724
12.242	64.2537
12.26	64.2427
12.278	64.2291
12.296	64.207
12.314	64.1743
12.332	64.1335
12.35	64.0906
12.368	64.0546
12.386	64.0339
12.404	64.035
12.422	64.0599
12.44	64.1051
12.458	64.1633
12.476	64.2245
12.494	64.279
12.512	64.3203
12.53	64.3463
12.548	64.3596
12.566	64.3648
12.584	64.3678
12.602	64.373
12.62	64.3823
12.638	64.3939
12.656	64.4027
12.674	64.4032
12.692	64.3905
12.71	64.361
12.728	64.3134
12.746	64.25
12.764	64.1752
12.782	64.0948
12.8	64.0159
12.818	63.946
12.836	63.8925
12.854	63.8608
12.872	63.8541
12.89	63.8708
12.908	63.9049
12.926	63.9458
12.944	63.9807
12.962	63.9978
12.98	63.9894
12.998	63.9532
13.016	63.8942
13.034	63.8232
13.052	63.7538
13.07	63.7001
13.088	63.6733
13.106	63.6807
13.124	63.7246
13.142	63.8036
13.16	63.914
13.178	64.0506
13.196	64.2071
13.214	64.3758
13.232	64.5475
13.25	64.7113
13.268	64.8548
13.286	64.9669
13.304	65.0398
13.322	65.0711
13.34	65.0649
13.358	65.0301
13.376	64.9785
13.394	64.9222
13.412	64.8704
13.43	64.8272
13.448	64.7913
13.466	64.7571
13.484	64.7177
13.502	64.6667
13.52	64.6014
13.538	64.523
13.556	64.4371
13.574	64.3518
13.592	64.2754
13.61	64.2141
13.628	64.1699
13.646	64.1411
13.664	64.1217
13.682	64.1039
13.7	64.0799
13.718	64.0436
13.736	63.9923
13.754	63.9262
13.772	63.8494
13.79	63.7684
13.808	63.6909
13.826	63.6234
13.844	63.5711
13.862	63.5374
13.88	63.5237
13.898	63.5292
13.916	63.551
13.934	63.5859
13.952	63.6299
13.97	63.679
13.988	63.7293
14.006	63.7765
14.024	63.8162
14.042	63.8445
14.06	63.8582
14.078	63.8553
14.096	63.8349
14.114	63.7982
14.132	63.7484
14.15	63.6906
14.168	63.6311
14.186	63.5766
14.204	63.534
14.222	63.5086
14.24	63.5036
14.258	63.5187
14.276	63.5512
14.294	63.5957
14.312	63.6443
14.33	63.6883
14.348	63.719
14.366	63.7286
14.384	63.7118
14.402	63.6668
14.42	63.5954
14.438	63.5027
14.456	63.3963
14.474	63.2858
14.492	63.1809
14.51	63.0916
14.528	63.0253
14.546	62.9863
14.564	62.9761
14.582	62.9936
14.6	63.0345
14.618	63.093
14.636	63.1616
14.654	63.2338
14.672	63.3036
14.69	63.3661
14.708	63.4182
14.726	63.4576
14.744	63.4836
14.762	63.4964
14.78	63.4966
14.798	63.4854
14.816	63.4642
14.834	63.4345
14.852	63.3988
14.87	63.3591
14.888	63.3175
14.906	63.2765
14.924	63.238
14.942	63.2042
14.96	63.1764
14.978	63.156
14.996	63.1437
15.014	63.14
15.032	63.1448
15.05	63.1575
15.068	63.1771
15.086	63.2025
15.104	63.2321
15.122	63.264
15.14	63.2962
15.158	63.3268
15.176	63.354
15.194	63.3764
15.212	63.3929
15.23	63.4032
15.248	63.4076
15.266	63.4063
15.284	63.4007
15.302	63.3916
15.32	63.3802
15.338	63.3671
15.356	63.3527
15.374	63.3366
15.392	63.318
15.41	63.2958
15.428	63.269
15.446	63.2365
15.464	63.1979
15.482	63.1533
15.5	63.1033
15.518	63.0493
15.536	62.9933
15.554	62.937
15.572	62.8827
15.59	62.8326
15.608	62.788
15.626	62.7496
15.644	62.718
15.662	62.6929
15.68	62.6739
15.698	62.6603
15.716	62.651
15.734	62.6453
15.752	62.6429
15.77	62.6436
15.788	62.6472
15.806	62.6538
15.824	62.6632
15.842	62.6751
15.86	62.6889
15.878	62.7039
15.896	62.7191
15.914	62.7333
15.932	62.7451
15.95	62.7537
15.968	62.7578
15.986	62.7569
16.004	62.751
16.022	62.7402
16.04	62.7251
16.058	62.707
16.076	62.6868
16.094	62.6663
16.112	62.6471
16.13	62.6306
16.148	62.6182
16.166	62.6111
16.184	62.61
16.202	62.6154
16.22	62.6277
16.238	62.6465
16.256	62.6717
16.274	62.7025
16.292	62.7382
16.31	62.7781
16.328	62.8216
16.346	62.868
16.364	62.917
16.382	62.9685
16.4	63.0224
16.418	63.079
16.436	63.1383
16.454	63.2004
16.472	63.2651
16.49	63.3319
16.508	63.4
16.526	63.4684
16.544	63.5351
16.562	63.5979
16.58	63.6551
16.598	63.7035
16.616	63.7413
16.634	63.7668
16.652	63.7781
16.67	63.775
16.688	63.7569
16.706	63.7253
16.724	63.6815
16.742	63.6271
16.76	63.5655
16.778	63.4985
16.796	63.4292
16.814	63.3601
16.832	63.2925
16.85	63.2288
16.868	63.1693
16.886	63.1147
16.904	63.065
16.922	63.0202
16.94	62.9801
16.958	62.9448
16.976	62.9144
16.994	62.8891
17.012	62.8695
17.03	62.856
17.048	62.8497
17.066	62.851
17.084	62.8602
17.102	62.8768
17.12	62.9004
17.138	62.9291
17.156	62.9606
17.174	62.9929
17.192	63.0216
17.21	63.0449
17.228	63.0586
17.246	63.0607
17.264	63.0494
17.282	63.0234
17.3	62.9831
17.318	62.9291
17.336	62.8642
17.354	62.7897
17.372	62.7105
17.39	62.6285
17.408	62.5482
17.426	62.4724
17.444	62.4031
17.462	62.3427
17.48	62.2917
17.498	62.2509
17.516	62.2195
17.534	62.1971
17.552	62.1818
17.57	62.1729
17.588	62.1679
17.606	62.1657
17.624	62.1648
17.642	62.1637
17.66	62.1619
17.678	62.1577
17.696	62.151
17.714	62.1412
17.732	62.1281
17.75	62.1111
17.768	62.0905
17.786	62.0662
17.804	62.0383
17.822	62.0072
17.84	61.9739
17.858	61.9394
17.876	61.9046
17.894	61.872
17.912	61.8424
17.93	61.8191
17.948	61.8027
17.966	61.7964
17.984	61.8007
18.002	61.8176
18.02	61.8467
18.038	61.8887
18.056	61.9415
18.074	62.0049
18.092	62.0747
18.11	62.1501
18.128	62.2255
18.146	62.2996
18.164	62.3672
18.182	62.4265
18.2	62.4742
18.218	62.5087
18.236	62.5285
18.254	62.5334
18.272	62.523
18.29	62.4997
18.308	62.464
18.326	62.4201
18.344	62.3688
18.362	62.3151
18.38	62.2598
18.398	62.2071
18.416	62.1581
18.434	62.1157
18.452	62.0802
18.47	62.0529
18.488	62.033
18.506	62.0209
18.524	62.0144
18.542	62.013
18.56	62.0139
18.578	62.0168
18.596	62.0185
18.614	62.0186
18.632	62.0148
18.65	62.0072
18.668	61.9944
18.686	61.9766
18.704	61.9537
18.722	61.926
18.74	61.8945
18.758	61.8597
18.776	61.8229
18.794	61.7848
18.812	61.747
18.83	61.7096
18.848	61.6738
18.866	61.6398
18.884	61.6084
18.902	61.5797
18.92	61.5542
18.938	61.5317
18.956	61.5127
18.974	61.4971
18.992	61.485
19.01	61.4769
19.028	61.473
19.046	61.4737
19.064	61.4797
19.082	61.4913
19.1	61.5093
19.118	61.534
19.136	61.5662
19.154	61.6056
19.172	61.6529
19.19	61.7078
19.208	61.7699
19.226	61.8389
19.244	61.9134
19.262	61.9929
19.28	62.075
19.298	62.1595
19.316	62.2432
19.334	62.3262
19.352	62.4049
19.37	62.4794
19.388	62.5466
19.406	62.6065
19.424	62.6568
19.442	62.6973
19.46	62.727
19.478	62.7458
19.496	62.7535
19.514	62.7498
19.532	62.7358
19.55	62.7117
19.568	62.6786
19.586	62.6371
19.604	62.5882
19.622	62.5336
19.64	62.4733
19.658	62.4093
19.676	62.3415
19.694	62.2719
19.712	62.2006
19.73	62.1288
19.748	62.0563
19.766	61.9843
19.784	61.9127
19.802	61.842
19.82	61.7722
19.838	61.7035
19.856	61.636
19.874	61.5697
19.892	61.5049
19.91	61.4415
19.928	61.3803
19.946	61.3209
19.964	61.2644
19.982	61.2107
20	61.1604
20.018	61.1139
20.036	61.0717
20.054	61.0345
20.072	61.0024
20.09	60.9761
20.108	60.9557
20.126	60.9415
20.144	60.9336
20.162	60.9316
20.18	60.9356
20.198	60.9449
20.216	60.9586
20.234	60.9766
20.252	60.9967
20.27	61.0193
20.288	61.0418
20.306	61.0642
20.324	61.0847
20.342	61.1019
20.36	61.1156
20.378	61.1236
20.396	61.1263
20.414	61.1222
20.432	61.1113
20.45	61.0933
20.468	61.0678
20.486	61.0354
20.504	60.9965
20.522	60.9512
20.54	60.9012
20.558	60.8461
20.576	60.7881
20.594	60.7278
20.612	60.6658
20.63	60.6042
20.648	60.5426
20.666	60.4832
20.684	60.4258
20.702	60.3718
20.72	60.3224
20.738	60.2773
20.756	60.2379
20.774	60.2038
20.792	60.1755
20.81	60.1534
20.828	60.1368
20.846	60.1256
20.864	60.1198
20.882	60.1179
20.9	60.1205
20.918	60.1258
20.936	60.133
20.954	60.142
20.972	60.1502
20.99	60.1583
21.008	60.1639
21.026	60.1664
21.044	60.1655
21.062	60.1592
21.08	60.1479
21.098	60.1308
21.116	60.1072
21.134	60.0778
21.152	60.0424
21.17	60.001
21.188	59.9552
21.206	59.9046
21.224	59.8505
21.242	59.795
21.26	59.7372
21.278	59.6809
21.296	59.6261
21.314	59.5742
21.332	59.5287
21.35	59.4885
21.368	59.4569
21.386	59.4347
21.404	59.4221
21.422	59.4215
21.44	59.4322
21.458	59.455
21.476	59.4906
21.494	59.5382
21.512	59.5967
21.53	59.6669
21.548	59.7463
21.566	59.8338
21.584	59.9295
21.602	60.0284
21.62	60.1318
21.638	60.2363
21.656	60.3379
21.674	60.4383
21.692	60.5319
21.71	60.6174
21.728	60.6946
21.746	60.7586
21.764	60.8106
21.782	60.8485
21.8	60.8699
21.818	60.876
21.836	60.8657
21.854	60.8384
21.872	60.7951
21.89	60.7368
21.908	60.6627
21.926	60.5756
21.944	60.4769
21.962	60.3663
21.98	60.2483
21.998	60.1223
22.016	59.9902
22.034	59.8569
22.052	59.7208
22.07	59.5849
22.088	59.4522
22.106	59.3212
22.124	59.1949
22.142	59.074
22.16	58.9582
22.178	58.8489
22.196	58.7459
22.214	58.6492
22.232	58.5587
22.25	58.4745
22.268	58.3962
22.286	58.3234
22.304	58.2564
22.322	58.1946
22.34	58.1378
22.358	58.0863
22.376	58.0409
22.394	58.0008
22.412	57.9674
22.43	57.9419
22.448	57.9234
22.466	57.9142
22.484	57.9158
22.502	57.9271
22.52	57.9506
22.538	57.9873
22.556	58.0365
22.574	58.0995
22.592	58.1769
22.61	58.2678
22.628	58.3712
22.646	58.488
22.664	58.6164
22.682	58.7533
22.7	58.9008
22.718	59.0548
22.736	59.2109
22.754	59.3721
22.772	59.5321
22.79	59.6858
22.808	59.8366
22.826	59.9772
22.844	60.103
22.862	60.2171
22.88	60.3135
22.898	60.3893
22.916	60.4466
22.934	60.4822
22.952	60.4947
22.97	60.4852
22.988	60.4537
23.006	60.3991
23.024	60.3226
23.042	60.228
23.06	60.114
23.078	59.9824
23.096	59.84
23.114	59.6855
23.132	59.5208
23.15	59.3544
23.168	59.1851
23.186	59.0143
23.204	58.8506
23.222	58.6927
23.24	58.5418
23.258	58.4047
23.276	58.2809
23.294	58.1705
23.312	58.078
23.33	58.0034
23.348	57.9462
23.366	57.9075
23.384	57.8878
23.402	57.8863
23.42	57.9019
23.438	57.9354
23.456	57.9858
23.474	58.0494
23.492	58.1268
23.51	58.2174
23.528	58.3156
23.546	58.4204
23.564	58.533
23.582	58.648
23.6	58.7634
23.618	58.8812
23.636	58.9976
23.654	59.1106
23.672	59.2217
23.69	59.3292
23.708	59.4317
23.726	59.5301
23.744	59.6238
23.762	59.7119
23.78	59.7944
23.798	59.8725
23.816	59.9478
23.834	60.0189
23.852	60.0875
23.87	60.1566
23.888	60.2257
23.906	60.2946
23.924	60.3646
23.942	60.4366
23.96	60.5095
23.978	60.5812
23.996	60.6514
24.014	60.7209
24.032	60.7865
24.05	60.8467
24.068	60.9037
24.086	60.9529
24.104	60.9907
24.122	61.0207
24.14	61.0381
24.158	61.036
24.176	61.0176
24.194	60.9806
24.212	60.9171
24.23	60.8261
24.248	60.7098
24.266	60.5624
24.284	60.3805
24.302	60.167
24.32	59.9197
24.338	59.6359
24.356	59.3153
24.374	58.9608
24.392	58.5755
24.41	58.1568
24.428	57.7071
24.446	57.2342
24.464	56.7405
24.482	56.2223
24.5	55.6879
24.518	55.1435
24.536	54.5829
24.554	54.0134
24.572	53.4454
24.59	52.8748
24.608	52.3033
24.626	51.7427
24.644	51.1971
24.662	50.6602
24.68	50.1428
24.698	49.655
24.716	49.191
24.734	48.7538
24.752	48.3504
24.77	47.9805
24.788	47.6423
24.806	47.3419
24.824	47.0832
24.842	46.8619
24.86	46.6821
24.878	46.5492
24.896	46.4616
24.914	46.4191
24.932	46.425
24.95	46.4824
24.968	46.5897
24.986	46.744
25.004	46.9423
25.022	47.1863
25.04	47.4746
25.058	47.8038
25.076	48.1726
25.094	48.5829
25.112	49.0313
25.13	49.5144
25.148	50.0348
25.166	50.5904
25.184	51.1765
25.202	51.7919
25.22	52.4397
25.238	53.1132
25.256	53.8059
25.274	54.5218
25.292	55.2589
25.31	56.0088
25.328	56.768
25.346	57.5425
25.364	58.3241
25.382	59.1033
25.4	59.8816
25.418	60.6607
25.436	61.435
25.454	62.2
25.472	62.9584
25.49	63.71
25.508	64.4537
25.526	65.1859
25.544	65.9076
25.562	66.6271
25.58	67.3521
25.598	68.0745
25.616	68.7997
25.634	69.5409
25.652	70.3042
25.67	71.0774
25.688	71.8756
25.706	72.7165
25.724	73.601
25.742	74.5219
25.76	75.4897
25.778	76.5147
25.796	77.5978
25.814	78.7324
25.832	79.9125
25.85	81.1382
25.868	82.4222
25.886	83.7411
25.904	85.0673
25.922	86.4046
25.94	87.7687
25.958	89.115
25.976	90.3984
25.994	91.6471
26.012	92.8568
26.03	93.9725
26.048	94.9478
26.066	95.8256
26.084	96.5846
26.102	97.1765
26.12	97.5709
26.138	97.8052
26.156	97.8564
26.174	97.693
26.192	97.296
26.21	96.6832
26.228	95.8635
26.246	94.8449
26.264	93.6168
26.282	92.1802
26.3	90.5661
26.318	88.8047
26.336	86.871
26.354	84.7724
26.372	82.5555
26.39	80.2623
26.408	77.8572
26.426	75.3543
26.444	72.7994
26.462	70.2295
26.48	67.6069
26.498	64.9507
26.516	62.3002
26.534	59.6846
26.552	57.0764
26.57	54.4854
26.588	51.9309
26.606	49.4273
26.624	46.9647
26.642	44.5402
26.66	42.1532
26.678	39.8062
26.696	37.5047
26.714	35.2356
26.732	32.9847
26.75	30.7468
26.768	28.536
26.786	26.3369
26.804	24.132
26.822	21.9126
26.84	19.6916
26.858	17.462
26.876	15.2153
26.894	12.9443
26.912	10.6519
26.93	8.345024
26.948	6.030593
26.966	3.606688
26.984	0.912121
27.002	-1.654649
27.02	-3.660453
27.028	-4.198217