File: Bakgrunnsmateriale/MATLAB/FTIR/ftir_data/subBb/Mapping_121/C-4040-8_t52_cm-1.asc
PE IR       SPECTRUM    SPECTRUM    ASCII       PEDS        1.60
  -1
C-1C64~1.ASC
17/03/27
18:46:13.00
17/03/27
18:46:13.00
tln
$C-4040-8_t0052$<tbV0>[-5.2,-2.6,8.0,0.0,27,1,0]
370
64

2002,4.07
MIRTGS : RIGHTBACK : INTERNAL 2
MIR : ON : INTERNAL 2
OPTKBR

0.200000
8
8.000000
FILLER
RATIO
SPECTRUM
UNLOCKED 256

DOUBLE
64
COMBINED
1
0
0

1.000000
RATIO

1
0
TRUE
51149
0
LEFT NOT FITTED RIGHT NOT FITTED 0
NONE
NONE
15600
12
4.427000
51148
TRUE
1 0 8 72 0 0 0 0

15798

#HDR
-1
-1
#GR
CM-1
%T
2.38419e-05
0.0
5000
-1.000000
4631
8
114.302
44.1409
#DATA
5000	64.9157
4996	64.8234
4992	64.3336
4988	64.4092
4984	64.913
4980	64.8979
4976	64.8011
4972	65.0994
4968	65.0498
4964	64.5589
4960	64.423
4956	64.5836
4952	64.8119
4948	65.142
4944	65.1385
4940	64.8227
4936	64.6345
4932	64.7001
4928	65.0619
4924	65.2772
4920	65.0163
4916	64.7311
4912	64.6887
4908	64.856
4904	64.9873
4900	64.8746
4896	64.6688
4892	64.3515
4888	64.1703
4884	64.3116
4880	64.4236
4876	64.3088
4872	64.2247
4868	64.3906
4864	64.4586
4860	64.4022
4856	64.7562
4852	65.3139
4848	65.349
4844	64.9363
4840	64.7134
4836	64.8544
4832	65.0794
4828	65.2101
4824	65.2818
4820	65.3466
4816	65.3162
4812	65.1177
4808	64.9353
4804	64.92
4800	64.9991
4796	65.1757
4792	65.2766
4788	65.1009
4784	64.9248
4780	64.9448
4776	64.8461
4772	64.6444
4768	64.7513
4764	64.9775
4760	65.0756
4756	65.0948
4752	65.0431
4748	64.9109
4744	64.5558
4740	64.1674
4736	64.2478
4732	64.6593
4728	64.9266
4724	65.0763
4720	65.195
4716	65.1362
4712	64.888
4708	64.6551
4704	64.5318
4700	64.5377
4696	64.8084
4692	65.1123
4688	65.1345
4684	65.0741
4680	64.9904
4676	64.7774
4672	64.5574
4668	64.5008
4664	64.6091
4660	64.7219
4656	64.8542
4652	64.9022
4648	64.95
4644	65.0046
4640	64.9038
4636	64.7561
4632	64.6605
4628	64.7967
4624	65.0232
4620	65.1367
4616	65.1392
4612	65.0121
4608	64.764
4604	64.7977
4600	65.2538
4596	65.3373
4592	64.9582
4588	64.9569
4584	65.2038
4580	64.9081
4576	64.4678
4572	64.458
4568	64.5697
4564	64.6851
4560	64.8244
4556	64.7925
4552	64.6192
4548	64.5323
4544	64.4658
4540	64.4125
4536	64.6863
4532	65.2618
4528	65.5498
4524	65.1419
4520	64.4971
4516	64.3577
4512	64.6791
4508	64.7302
4504	64.5114
4500	64.6675
4496	65.0923
4492	65.3108
4488	65.2991
4484	65.2726
4480	65.3017
4476	65.1935
4472	65.0985
4468	65.1486
4464	65.197
4460	65.3988
4456	65.659
4452	65.6158
4448	65.3218
4444	65.1385
4440	65.1522
4436	65.3113
4432	65.6352
4428	65.9144
4424	65.8902
4420	65.4579
4416	65.1517
4412	65.4995
4408	65.8257
4404	65.8845
4400	65.9154
4396	65.8338
4392	65.685
4388	65.4679
4384	65.1486
4380	65.3724
4376	65.8186
4372	66.5396
4368	67.4663
4364	64.4844
4360	59.0115
4356	60.5003
4352	69.7308
4348	68.567
4344	58.0465
4340	55.268
4336	60.2939
4332	65.2252
4328	65.6737
4324	64.8967
4320	65.5417
4316	65.6446
4312	65.1933
4308	65.1043
4304	65.3747
4300	65.5141
4296	65.4743
4292	65.4571
4288	65.6315
4284	65.96
4280	66.1187
4276	66.0157
4272	65.7466
4268	65.5737
4264	65.6639
4260	65.6696
4256	65.5266
4252	65.5314
4248	65.41
4244	65.0855
4240	64.8711
4236	64.7755
4232	64.8551
4228	65.0707
4224	65.2814
4220	65.4492
4216	65.4926
4212	65.3626
4208	65.2873
4204	65.1778
4200	65.0236
4196	65.2988
4192	65.794
4188	65.911
4184	65.351
4180	64.6127
4176	64.5748
4172	65.1778
4168	65.7146
4164	65.6579
4160	65.2593
4156	64.9174
4152	64.7373
4148	64.8985
4144	65.0507
4140	64.9998
4136	65.0605
4132	65.1365
4128	65.0926
4124	65.022
4120	64.9358
4116	64.8445
4112	64.9016
4108	65.0746
4104	65.0643
4100	64.946
4096	64.945
4092	64.992
4088	65.0673
4084	65.1062
4080	65.1124
4076	65.2697
4072	65.3993
4068	65.2692
4064	65.088
4060	65.0918
4056	65.1511
4052	65.0995
4048	65.1279
4044	65.1846
4040	65.0844
4036	65.0248
4032	64.9611
4028	64.884
4024	64.9489
4020	65.023
4016	65.0304
4012	64.9585
4008	64.8595
4004	64.9153
4000	65.0792
3996	65.1267
3992	65.0773
3988	64.9419
3984	64.8104
3980	64.9292
3976	65.106
3972	65.0463
3968	64.8409
3964	64.7504
3960	64.8031
3956	64.8505
3952	64.8258
3948	64.8674
3944	65.129
3940	65.3645
3936	65.3428
3932	65.116
3928	64.8616
3924	64.795
3920	64.8755
3916	64.9519
3912	65.0463
3908	65.1731
3904	65.2171
3900	65.263
3896	65.3694
3892	65.336
3888	65.2133
3884	65.1618
3880	65.1364
3876	65.1296
3872	65.2186
3868	65.2958
3864	65.2631
3860	65.1864
3856	65.0814
3852	65.0141
3848	65.1231
3844	65.234
3840	65.1693
3836	65.1397
3832	65.1599
3828	65.1482
3824	65.1841
3820	65.1871
3816	65.2264
3812	65.384
3808	65.4066
3804	65.2309
3800	65.1098
3796	65.1808
3792	65.3291
3788	65.4586
3784	65.5582
3780	65.5429
3776	65.3781
3772	65.1975
3768	65.1432
3764	65.135
3760	65.1019
3756	65.1074
3752	65.1206
3748	65.1182
3744	65.087
3740	64.9796
3736	64.9729
3732	65.1673
3728	65.3057
3724	65.2968
3720	65.2162
3716	65.1377
3712	65.1821
3708	65.2211
3704	65.0902
3700	64.9959
3696	65.115
3692	65.2925
3688	65.3782
3684	65.3419
3680	65.224
3676	65.1659
3672	65.1815
3668	65.1416
3664	65.0882
3660	65.1235
3656	65.1743
3652	65.178
3648	65.175
3644	65.1721
3640	65.2164
3636	65.2389
3632	65.1077
3628	65.0164
3624	65.0847
3620	65.097
3616	65.0427
3612	65.121
3608	65.2199
3604	65.1925
3600	65.1805
3596	65.1802
3592	65.1235
3588	65.1077
3584	65.1326
3580	65.1973
3576	65.3538
3572	65.4112
3568	65.236
3564	65.1282
3560	65.1843
3556	65.1478
3552	65.0545
3548	65.0857
3544	65.0852
3540	64.989
3536	65.0255
3532	65.1289
3528	65.1793
3524	65.1913
3520	65.0944
3516	64.988
3512	65.0667
3508	65.2864
3504	65.4155
3500	65.3802
3496	65.2398
3492	65.0542
3488	65.0137
3484	65.1032
3480	65.1971
3476	65.3615
3472	65.5233
3468	65.5861
3464	65.4981
3460	65.3595
3456	65.3461
3452	65.3212
3448	65.268
3444	65.3033
3440	65.317
3436	65.2663
3432	65.2824
3428	65.3421
3424	65.3379
3420	65.3195
3416	65.3088
3412	65.3362
3408	65.3984
3404	65.4039
3400	65.3508
3396	65.278
3392	65.3351
3388	65.4608
3384	65.3661
3380	65.2061
3376	65.182
3372	65.1548
3368	65.1204
3364	65.1431
3360	65.1367
3356	65.0976
3352	65.0991
3348	65.1575
3344	65.2828
3340	65.4341
3336	65.4633
3332	65.3638
3328	65.2721
3324	65.2013
3320	65.1952
3316	65.2814
3312	65.3229
3308	65.3067
3304	65.2978
3300	65.2405
3296	65.1922
3292	65.1835
3288	65.0822
3284	64.9859
3280	65.0448
3276	65.1399
3272	65.1903
3268	65.2072
3264	65.1913
3260	65.2187
3256	65.249
3252	65.2011
3248	65.1953
3244	65.2034
3240	65.1317
3236	65.187
3232	65.3834
3228	65.384
3224	65.1678
3220	65.0331
3216	65.0468
3212	65.0735
3208	65.1072
3204	65.2223
3200	65.2853
3196	65.2363
3192	65.272
3188	65.3668
3184	65.3575
3180	65.305
3176	65.3934
3172	65.6046
3168	65.6241
3164	65.3571
3160	65.1754
3156	65.2565
3152	65.3124
3148	65.2192
3144	65.1926
3140	65.3519
3136	65.5327
3132	65.4401
3128	65.0736
3124	64.9141
3120	65.1159
3116	65.3207
3112	65.3721
3108	65.3245
3104	65.3082
3100	65.3236
3096	65.2933
3092	65.3574
3088	65.4503
3084	65.3759
3080	65.228
3076	65.1744
3072	65.2035
3068	65.2561
3064	65.3076
3060	65.2806
3056	65.2455
3052	65.2501
3048	65.1792
3044	65.1128
3040	65.1382
3036	65.1532
3032	65.143
3028	65.1806
3024	65.2578
3020	65.2797
3016	65.286
3012	65.3618
3008	65.3738
3004	65.3093
3000	65.2868
2996	65.277
2992	65.2169
2988	65.1523
2984	65.152
2980	65.1921
2976	65.2665
2972	65.3443
2968	65.3855
2964	65.3661
2960	65.2673
2956	65.161
2952	65.1241
2948	65.1581
2944	65.2404
2940	65.2768
2936	65.1925
2932	65.0976
2928	65.0303
2924	64.9553
2920	64.8812
2916	64.8666
2912	65.0122
2908	65.1598
2904	65.1371
2900	65.062
2896	65.0253
2892	65.0344
2888	65.0893
2884	65.1345
2880	65.1804
2876	65.2337
2872	65.2659
2868	65.336
2864	65.3035
2860	65.0664
2856	64.9142
2852	64.9413
2848	65.0263
2844	65.1313
2840	65.1969
2836	65.1908
2832	65.134
2828	65.0635
2824	65.0979
2820	65.2438
2816	65.2688
2812	65.1261
2808	65.076
2804	65.1524
2800	65.1405
2796	65.0794
2792	65.1392
2788	65.2557
2784	65.2805
2780	65.284
2776	65.3211
2772	65.316
2768	65.3227
2764	65.3884
2760	65.3775
2756	65.2218
2752	65.1248
2748	65.171
2744	65.2319
2740	65.2778
2736	65.2648
2732	65.1577
2728	65.0764
2724	65.0798
2720	65.0849
2716	65.0942
2712	65.1309
2708	65.172
2704	65.2026
2700	65.2049
2696	65.2313
2692	65.2478
2688	65.2474
2684	65.2941
2680	65.2795
2676	65.2054
2672	65.1732
2668	65.1927
2664	65.293
2660	65.362
2656	65.3057
2652	65.2776
2648	65.3198
2644	65.3317
2640	65.3293
2636	65.3331
2632	65.2878
2628	65.2665
2624	65.3481
2620	65.3958
2616	65.4132
2612	65.4499
2608	65.4073
2604	65.3722
2600	65.3874
2596	65.3797
2592	65.3711
2588	65.3425
2584	65.258
2580	65.1879
2576	65.2092
2572	65.2666
2568	65.2712
2564	65.2725
2560	65.3468
2556	65.4621
2552	65.5555
2548	65.5537
2544	65.4904
2540	65.4371
2536	65.392
2532	65.3712
2528	65.3474
2524	65.3225
2520	65.2996
2516	65.2167
2512	65.1543
2508	65.1803
2504	65.1583
2500	65.123
2496	65.1585
2492	65.1738
2488	65.1813
2484	65.239
2480	65.3002
2476	65.2928
2472	65.2323
2468	65.2229
2464	65.3195
2460	65.434
2456	65.4175
2452	65.3854
2448	65.4151
2444	65.3239
2440	65.2409
2436	65.2509
2432	65.3041
2428	65.4525
2424	65.6288
2420	65.7304
2416	65.612
2412	65.3682
2408	65.2561
2404	65.3665
2400	65.4717
2396	65.4152
2392	65.3826
2388	65.3926
2384	65.3396
2380	65.2747
2376	65.2677
2372	65.2827
2368	65.3337
2364	65.3957
2360	65.3665
2356	65.3044
2352	65.3053
2348	65.3233
2344	65.3039
2340	65.2688
2336	65.3003
2332	65.3686
2328	65.3351
2324	65.2742
2320	65.2668
2316	65.2604
2312	65.2821
2308	65.3147
2304	65.3374
2300	65.3704
2296	65.3574
2292	65.3046
2288	65.3074
2284	65.3318
2280	65.2965
2276	65.2568
2272	65.2548
2268	65.2679
2264	65.2751
2260	65.2565
2256	65.2775
2252	65.3875
2248	65.4747
2244	65.4577
2240	65.3986
2236	65.3583
2232	65.3734
2228	65.383
2224	65.2845
2220	65.2
2216	65.2363
2212	65.3209
2208	65.3221
2204	65.2229
2200	65.1545
2196	65.1597
2192	65.2221
2188	65.3055
2184	65.3898
2180	65.4632
2176	65.4674
2172	65.39
2168	65.3001
2164	65.2662
2160	65.2315
2156	65.0901
2152	64.9879
2148	65.1228
2144	65.3094
2140	65.3115
2136	65.2379
2132	65.2278
2128	65.2648
2124	65.3172
2120	65.3414
2116	65.3593
2112	65.3679
2108	65.3523
2104	65.3894
2100	65.4171
2096	65.3711
2092	65.315
2088	65.3421
2084	65.4227
2080	65.3945
2076	65.2883
2072	65.1866
2068	65.0993
2064	65.0181
2060	65.1171
2056	65.3686
2052	65.4579
2048	65.405
2044	65.3264
2040	65.3228
2036	65.3646
2032	65.3088
2028	65.2396
2024	65.2347
2020	65.2058
2016	65.2
2012	65.3062
2008	65.3828
2004	65.3754
2000	65.3689
1996	65.3372
1992	65.3003
1988	65.3102
1984	65.342
1980	65.3532
1976	65.3531
1972	65.3511
1968	65.2695
1964	65.1952
1960	65.2161
1956	65.2248
1952	65.2516
1948	65.3133
1944	65.325
1940	65.3548
1936	65.4154
1932	65.4153
1928	65.3358
1924	65.2726
1920	65.2986
1916	65.3234
1912	65.3507
1908	65.3517
1904	65.2591
1900	65.213
1896	65.2769
1892	65.3563
1888	65.3626
1884	65.3754
1880	65.4257
1876	65.3648
1872	65.2427
1868	65.2221
1864	65.2665
1860	65.2534
1856	65.2093
1852	65.2651
1848	65.3828
1844	65.4143
1840	65.3855
1836	65.3667
1832	65.3752
1828	65.3591
1824	65.2899
1820	65.332
1816	65.4356
1812	65.4149
1808	65.3409
1804	65.2707
1800	65.1903
1796	65.1593
1792	65.2181
1788	65.2483
1784	65.2173
1780	65.2707
1776	65.3198
1772	65.3061
1768	65.2812
1764	65.192
1760	65.1308
1756	65.1412
1752	65.1229
1748	65.1198
1744	65.1687
1740	65.1256
1736	64.9906
1732	64.9233
1728	64.9678
1724	65.1062
1720	65.1538
1716	65.044
1712	64.9857
1708	65.0513
1704	65.2193
1700	65.356
1696	65.3402
1692	65.2565
1688	65.1694
1684	65.1769
1680	65.3064
1676	65.3391
1672	65.2715
1668	65.2812
1664	65.2742
1660	65.1932
1656	65.195
1652	65.2687
1648	65.2684
1644	65.1969
1640	65.1728
1636	65.1753
1632	65.1552
1628	65.1521
1624	65.1836
1620	65.2496
1616	65.2639
1612	65.2115
1608	65.1541
1604	65.1587
1600	65.2117
1596	65.204
1592	65.1615
1588	65.1607
1584	65.2265
1580	65.3557
1576	65.4211
1572	65.3528
1568	65.2235
1564	65.087
1560	65.0352
1556	65.1318
1552	65.2424
1548	65.3006
1544	65.2918
1540	65.196
1536	65.126
1532	65.0979
1528	65.0787
1524	65.0632
1520	65.0988
1516	65.1564
1512	65.1602
1508	65.1846
1504	65.2339
1500	65.2498
1496	65.239
1492	65.2138
1488	65.1574
1484	65.1355
1480	65.193
1476	65.181
1472	65.1297
1468	65.1854
1464	65.197
1460	65.0943
1456	64.9906
1452	64.9221
1448	64.9564
1444	65.0957
1440	65.1758
1436	65.1406
1432	65.1336
1428	65.138
1424	65.0952
1420	65.0701
1416	65.0717
1412	65.0929
1408	65.1124
1404	65.1845
1400	65.2534
1396	65.1996
1392	65.1254
1388	65.1177
1384	65.1175
1380	65.135
1376	65.2295
1372	65.2643
1368	65.2045
1364	65.143
1360	65.1273
1356	65.1529
1352	65.1683
1348	65.1669
1344	65.0954
1340	65.0329
1336	65.043
1332	65.0356
1328	65.0881
1324	65.1489
1320	65.0834
1316	65.0356
1312	65.0575
1308	65.0648
1304	65.0636
1300	65.089
1296	65.1054
1292	65.0434
1288	65.0265
1284	65.134
1280	65.1126
1276	64.9485
1272	64.934
1268	65.0181
1264	65.0403
1260	65.0279
1256	65.0595
1252	65.1336
1248	65.1938
1244	65.2252
1240	65.1837
1236	65.1266
1232	65.0662
1228	64.9558
1224	64.9067
1220	64.8769
1216	64.8769
1212	65.01
1208	65.0794
1204	65.0785
1200	65.1608
1196	65.2368
1192	65.2296
1188	65.1007
1184	64.9127
1180	64.9184
1176	65.0602
1172	65.1464
1168	65.2377
1164	65.2757
1160	65.2031
1156	65.1748
1152	65.2645
1148	65.4026
1144	65.3513
1140	65.0451
1136	64.7984
1132	64.8302
1128	64.9047
1124	64.7681
1120	64.6637
1116	64.8021
1112	64.9919
1108	65.0274
1104	65.0839
1100	65.2442
1096	65.0782
1092	64.6537
1088	64.6421
1084	64.9971
1080	65.1256
1076	65.0191
1072	64.9497
1068	64.9376
1064	64.9646
1060	64.9234
1056	64.7382
1052	64.6308
1048	64.6535
1044	64.7178
1040	64.9443
1036	65.1281
1032	65.0045
1028	64.743
1024	64.5075
1020	64.3186
1016	64.3628
1012	64.6843
1008	64.7256
1004	64.5689
1000	64.7534
996	 64.8565
992	 64.7672
988	 64.8193
984	 64.8659
980	 64.8286
976	 64.7753
972	 64.6956
968	 64.6223
964	 64.6293
960	 64.6718
956	 64.6495
952	 64.5395
948	 64.4581
944	 64.5809
940	 64.7631
936	 64.7871
932	 64.7856
928	 64.7454
924	 64.6188
920	 64.6003
916	 64.6343
912	 64.6189
908	 64.6452
904	 64.6121
900	 64.4418
896	 64.3528
892	 64.4051
888	 64.511
884	 64.5785
880	 64.4872
876	 64.368
872	 64.4239
868	 64.5656
864	 64.6505
860	 64.6175
856	 64.4897
852	 64.533
848	 64.7106
844	 64.6587
840	 64.4905
836	 64.4071
832	 64.3355
828	 64.3909
824	 64.5773
820	 64.536
816	 64.415
812	 64.4423
808	 64.3687
804	 64.2358
800	 64.2247
796	 64.179
792	 63.9734
788	 63.9596
784	 64.1162
780	 64.0021
776	 63.9286
772	 64.1953
768	 64.3322
764	 64.14
760	 63.8534
756	 63.7157
752	 63.9404
748	 64.0246
744	 63.7871
740	 63.832
736	 63.9822
732	 64.0105
728	 64.0118
724	 63.8474
720	 63.6582
716	 63.6611
712	 63.6467
708	 63.497
704	 63.5307
700	 63.7885
696	 63.9171
692	 63.8836
688	 63.728
684	 63.4452
680	 63.3424
676	 63.3106
672	 63.0396
668	 62.8601
664	 63.041
660	 63.3895
656	 63.5663
652	 63.403
648	 63.1119
644	 62.8162
640	 62.6043
636	 62.6191
632	 62.866
628	 63.1633
624	 63.2141
620	 63.1204
616	 63.222
612	 63.4751
608	 63.3869
604	 62.8892
600	 62.4478
596	 62.1542
592	 61.979
588	 61.9685
584	 62.0555
580	 62.1393
576	 62.0924
572	 61.9566
568	 61.8973
564	 62.0825
560	 62.2764
556	 62.1349
552	 61.717
548	 61.2511
544	 61.1747
540	 61.5482
536	 61.8844
532	 61.9352
528	 61.936
524	 61.6908
520	 60.9714
516	 60.582
512	 60.7757
508	 61.3291
504	 61.869
500	 61.7507
496	 61.1288
492	 60.4316
488	 59.9516
484	 59.8951
480	 59.906
476	 59.6913
472	 59.7838
468	 60.4168
464	 60.4786
460	 59.1735
456	 58.0429
452	 58.1013
448	 57.8986
444	 57.8806
440	 59.7224
436	 61.8011
432	 62.4456
428	 61.7045
424	 59.1866
420	 57.9098
416	 60.2914
412	 64.5085
408	 66.6397
404	 64.2675
400	 68.2353
396	 89.4423
392	 111.731
388	 110.699
384	 95.9198
380	 86.1968
376	 64.3255
372	 44.1436
370	 60.6282