File: Bakgrunnsmateriale/MATLAB/FTIR/ftir_data/subBb/Mapping_121/C-4040-8_t48_cm-1.asc
PE IR       SPECTRUM    SPECTRUM    ASCII       PEDS        1.60
  -1
C-9B65~1.ASC
17/03/27
18:27:45.00
17/03/27
18:27:45.00
tln
$C-4040-8_t0048$<tbV0>[5.2,-2.6,8.0,0.0,27,1,0]
370
64

2002,4.07
MIRTGS : RIGHTBACK : INTERNAL 2
MIR : ON : INTERNAL 2
OPTKBR

0.200000
8
8.000000
FILLER
RATIO
SPECTRUM
UNLOCKED 256

DOUBLE
64
COMBINED
1
0
0

1.000000
RATIO

1
0
TRUE
51149
0
LEFT NOT FITTED RIGHT NOT FITTED 0
NONE
NONE
15600
12
4.427000
51148
TRUE
1 0 8 72 0 0 0 0

15798

#HDR
-1
-1
#GR
CM-1
%T
2.38419e-05
0.0
5000
-1.000000
4631
8
97.9028
34.7146
#DATA
5000	65.5016
4996	65.8827
4992	65.8834
4988	65.7827
4984	65.6604
4980	65.2245
4976	64.8984
4972	64.7722
4968	64.5704
4964	64.6244
4960	65.1463
4956	65.5282
4952	65.4822
4948	65.3413
4944	65.2848
4940	65.2135
4936	64.9803
4932	64.7869
4928	65.0302
4924	65.3706
4920	65.3111
4916	65.1614
4912	65.0071
4908	65.0479
4904	65.3056
4900	65.2345
4896	65.4155
4892	65.8328
4888	65.467
4884	64.9817
4880	65.113
4876	65.3198
4872	65.3752
4868	65.1155
4864	64.5993
4860	64.5461
4856	65.0239
4852	65.4457
4848	65.5127
4844	65.3404
4840	65.0745
4836	64.9191
4832	64.8945
4828	64.8212
4824	64.8601
4820	65.0131
4816	65.1573
4812	65.2752
4808	65.2752
4804	65.2924
4800	65.3282
4796	65.2838
4792	65.2858
4788	65.2026
4784	65.029
4780	65.0817
4776	65.0085
4772	64.6327
4768	64.6715
4764	64.9435
4760	64.8167
4756	64.7223
4752	64.774
4748	64.6957
4744	64.6838
4740	64.6779
4736	64.5469
4732	64.512
4728	64.7349
4724	65.0926
4720	65.2829
4716	65.2047
4712	65.0878
4708	65.0291
4704	64.9181
4700	64.9432
4696	65.2265
4692	65.3272
4688	65.0831
4684	64.9413
4680	64.9811
4676	64.8892
4672	64.6332
4668	64.448
4664	64.4502
4660	64.5417
4656	64.6555
4652	64.7233
4648	64.803
4644	64.8644
4640	64.838
4636	64.8599
4632	64.952
4628	65.0436
4624	64.9834
4620	64.9453
4616	65.1544
4612	65.1536
4608	64.8417
4604	64.7298
4600	64.8469
4596	64.9298
4592	64.8801
4588	64.8677
4584	65.0907
4580	65.2705
4576	65.3609
4572	65.3783
4568	65.2144
4564	65.1304
4560	65.0982
4556	65.0041
4552	64.8948
4548	64.7089
4544	64.4613
4540	64.3073
4536	64.3617
4532	64.6137
4528	64.8865
4524	64.985
4520	64.9875
4516	65.2321
4512	65.4968
4508	65.5095
4504	65.5718
4500	65.6587
4496	65.5912
4492	65.3592
4488	65.199
4484	65.2362
4480	65.3128
4476	65.3869
4472	65.5011
4468	65.6375
4464	65.7375
4460	65.7369
4456	65.7687
4452	65.7794
4448	65.5936
4444	65.6114
4440	65.6661
4436	65.5672
4432	65.6602
4428	65.7343
4424	65.6242
4420	65.7111
4416	66.1051
4412	66.3683
4408	66.4015
4404	66.3159
4400	65.8522
4396	65.2559
4392	65.0919
4388	65.3225
4384	65.595
4380	65.6661
4376	65.3017
4372	65.3909
4368	66.0082
4364	61.5564
4360	51.9599
4356	43.6331
4352	45.225
4348	60.3885
4344	72.5547
4340	71.7567
4336	67.2897
4332	65.6854
4328	65.6441
4324	66.195
4320	66.4743
4316	66.1251
4312	65.7877
4308	65.8023
4304	65.7512
4300	65.5071
4296	65.4811
4292	65.5243
4288	65.4822
4284	65.5833
4280	65.8828
4276	65.9637
4272	65.7433
4268	65.4701
4264	65.2938
4260	65.2115
4256	64.966
4252	64.6393
4248	64.4841
4244	64.5784
4240	64.8437
4236	65.0694
4232	65.2741
4228	65.4401
4224	65.3426
4220	65.219
4216	65.2776
4212	65.228
4208	65.0902
4204	65.0591
4200	65.0828
4196	65.0788
4192	65.1865
4188	65.0775
4184	64.3425
4180	63.9363
4176	64.2003
4172	64.3394
4168	64.5085
4164	64.9333
4160	65.2562
4156	65.2485
4152	65.1289
4148	65.1376
4144	65.1892
4140	65.2122
4136	65.1831
4132	65.0713
4128	64.9172
4124	64.8702
4120	64.9308
4116	64.8728
4112	64.6887
4108	64.7425
4104	64.9492
4100	65.0262
4096	65.111
4092	65.1578
4088	65.1508
4084	65.1061
4080	65.0549
4076	65.0787
4072	65.081
4068	65.0197
4064	64.8423
4060	64.7412
4056	64.8288
4052	64.915
4048	64.9967
4044	65.1335
4040	65.1914
4036	65.1005
4032	65.0374
4028	65.0564
4024	65.1097
4020	65.2072
4016	65.3223
4012	65.356
4008	65.2597
4004	65.2021
4000	65.2483
3996	65.1824
3992	65.0206
3988	64.9675
3984	65.0229
3980	65.1378
3976	65.2236
3972	65.1862
3968	65.1046
3964	65.0413
3960	64.9941
3956	64.9708
3952	64.9837
3948	65.0337
3944	65.0331
3940	64.9516
3936	64.9475
3932	65.0935
3928	65.1035
3924	64.9682
3920	64.9625
3916	65.0234
3912	65.134
3908	65.2122
3904	65.0992
3900	65.0574
3896	65.1469
3892	65.0849
3888	64.9853
3884	64.9505
3880	64.9201
3876	65.0361
3872	65.229
3868	65.2919
3864	65.1778
3860	65.0074
3856	65.0413
3852	65.2355
3848	65.2982
3844	65.2526
3840	65.1956
3836	65.091
3832	64.971
3828	64.9624
3824	65.1444
3820	65.2794
3816	65.3332
3812	65.4305
3808	65.393
3804	65.2839
3800	65.2766
3796	65.3107
3792	65.2885
3788	65.2378
3784	65.2703
3780	65.3216
3776	65.2704
3772	65.2121
3768	65.2009
3764	65.1645
3760	65.0816
3756	65.0169
3752	65.0778
3748	65.1784
3744	65.2469
3740	65.3079
3736	65.373
3732	65.4797
3728	65.4954
3724	65.4296
3720	65.3599
3716	65.2561
3712	65.2477
3708	65.3049
3704	65.2565
3700	65.1619
3696	65.1713
3692	65.2735
3688	65.2967
3684	65.2031
3680	65.1253
3676	65.1073
3672	65.1067
3668	65.0779
3664	65.0596
3660	65.1284
3656	65.2429
3652	65.2527
3648	65.1213
3644	65.0268
3640	65.0707
3636	65.1038
3632	65.0359
3628	64.9765
3624	65.0331
3620	65.1401
3616	65.2152
3612	65.292
3608	65.2737
3604	65.1801
3600	65.1443
3596	65.0956
3592	65.045
3588	65.0493
3584	65.1005
3580	65.2719
3576	65.4263
3572	65.375
3568	65.2234
3564	65.1825
3560	65.211
3556	65.0505
3552	64.8767
3548	64.9097
3544	64.9475
3540	64.9953
3536	65.1284
3532	65.1159
3528	65.0841
3524	65.2128
3520	65.2041
3516	65.0815
3512	65.0968
3508	65.2024
3504	65.2883
3500	65.3482
3496	65.287
3492	65.1117
3488	65.0953
3484	65.2104
3480	65.2533
3476	65.1345
3472	64.9442
3468	64.914
3464	64.93
3460	64.9896
3456	65.1765
3452	65.231
3448	65.1616
3444	65.2244
3440	65.3735
3436	65.4419
3432	65.4471
3428	65.3966
3424	65.3067
3420	65.2683
3416	65.2385
3412	65.2086
3408	65.2683
3404	65.3487
3400	65.3975
3396	65.3971
3392	65.3234
3388	65.278
3384	65.2754
3380	65.2762
3376	65.2344
3372	65.1432
3368	65.0922
3364	65.1286
3360	65.2215
3356	65.2824
3352	65.2785
3348	65.2664
3344	65.3226
3340	65.394
3336	65.3542
3332	65.2617
3328	65.2132
3324	65.2409
3320	65.311
3316	65.3032
3312	65.1812
3308	65.076
3304	65.1185
3300	65.209
3296	65.2132
3292	65.1306
3288	65.0629
3284	64.9985
3280	64.9012
3276	64.9578
3272	65.1916
3268	65.3743
3264	65.3385
3260	65.1949
3256	65.1715
3252	65.2385
3248	65.2844
3244	65.3194
3240	65.3169
3236	65.3382
3232	65.377
3228	65.2492
3224	65.0807
3220	65.0818
3216	65.165
3212	65.2741
3208	65.3613
3204	65.3287
3200	65.2558
3196	65.124
3192	64.957
3188	64.9976
3184	65.1968
3180	65.3789
3176	65.4684
3172	65.4303
3168	65.3214
3164	65.1999
3160	65.2359
3156	65.4183
3152	65.4212
3148	65.2079
3144	65.0087
3140	65.0415
3136	65.2328
3132	65.2087
3128	64.8742
3124	64.4938
3120	64.5018
3116	64.8644
3112	65.0714
3108	65.091
3104	65.1102
3100	65.1616
3096	65.2563
3092	65.3445
3088	65.3649
3084	65.2565
3080	65.1594
3076	65.1973
3072	65.2647
3068	65.2903
3064	65.2636
3060	65.1923
3056	65.177
3052	65.2583
3048	65.2752
3044	65.2013
3040	65.1977
3036	65.2463
3032	65.2181
3028	65.1976
3024	65.2233
3020	65.2229
3016	65.2189
3012	65.1906
3008	65.1549
3004	65.2137
3000	65.3126
2996	65.2986
2992	65.2028
2988	65.1239
2984	65.0856
2980	65.0409
2976	64.9902
2972	65.0152
2968	65.1324
2964	65.212
2960	65.1806
2956	65.1615
2952	65.1703
2948	65.1558
2944	65.1131
2940	65.0942
2936	65.1019
2932	65.057
2928	65.0724
2924	65.1587
2920	65.092
2916	64.9775
2912	65.0665
2908	65.1845
2904	65.1781
2900	65.1268
2896	65.0463
2892	65.0505
2888	65.1569
2884	65.1758
2880	65.0734
2876	65.0138
2872	65.0403
2868	65.0154
2864	64.9333
2860	64.9415
2856	65.0317
2852	65.0911
2848	65.1379
2844	65.2207
2840	65.3321
2836	65.3906
2832	65.2867
2828	65.1548
2824	65.2236
2820	65.3781
2816	65.3757
2812	65.2487
2808	65.1829
2804	65.1623
2800	65.0979
2796	65.0641
2792	65.0614
2788	65.0517
2784	65.0648
2780	65.106
2776	65.1661
2772	65.2013
2768	65.2419
2764	65.3378
2760	65.3338
2756	65.1628
2752	65.0786
2748	65.1864
2744	65.289
2740	65.2845
2736	65.2571
2732	65.2376
2728	65.22
2724	65.2414
2720	65.2316
2716	65.1916
2712	65.2248
2708	65.274
2704	65.2743
2700	65.2282
2696	65.1617
2692	65.1319
2688	65.1493
2684	65.1984
2680	65.2585
2676	65.2748
2672	65.2184
2668	65.1672
2664	65.216
2660	65.3064
2656	65.3203
2652	65.2763
2648	65.2185
2644	65.1865
2640	65.2366
2636	65.2644
2632	65.2274
2628	65.2617
2624	65.3073
2620	65.2546
2616	65.2399
2612	65.3441
2608	65.3764
2604	65.2521
2600	65.1467
2596	65.1795
2592	65.2726
2588	65.2883
2584	65.251
2580	65.2174
2576	65.2019
2572	65.2034
2568	65.1655
2564	65.163
2560	65.2439
2556	65.334
2552	65.3919
2548	65.4078
2544	65.3804
2540	65.3209
2536	65.2647
2532	65.2369
2528	65.2456
2524	65.258
2520	65.2508
2516	65.2346
2512	65.2139
2508	65.1667
2504	65.1159
2500	65.1112
2496	65.0888
2492	65.049
2488	65.1052
2484	65.217
2480	65.2688
2476	65.2438
2472	65.162
2468	65.0808
2464	65.1179
2460	65.2272
2456	65.2395
2452	65.2457
2448	65.2941
2444	65.306
2440	65.3225
2436	65.307
2432	65.3071
2428	65.3448
2424	65.3984
2420	65.4864
2416	65.4631
2412	65.3346
2408	65.2442
2404	65.2443
2400	65.2665
2396	65.25
2392	65.2305
2388	65.2351
2384	65.3062
2380	65.3577
2376	65.3111
2372	65.2893
2368	65.3267
2364	65.3275
2360	65.2689
2356	65.2292
2352	65.2265
2348	65.214
2344	65.2236
2340	65.2558
2336	65.3277
2332	65.37
2328	65.2885
2324	65.1722
2320	65.0656
2316	65.0255
2312	65.0725
2308	65.1492
2304	65.2532
2300	65.3368
2296	65.3535
2292	65.36
2288	65.4021
2284	65.3929
2280	65.2925
2276	65.2516
2272	65.3141
2268	65.3524
2264	65.3223
2260	65.2524
2256	65.2148
2252	65.3117
2248	65.4272
2244	65.3708
2240	65.2414
2236	65.2453
2232	65.3614
2228	65.407
2224	65.3244
2220	65.2247
2216	65.2221
2212	65.2506
2208	65.205
2204	65.1636
2200	65.1938
2196	65.2554
2192	65.323
2188	65.3201
2184	65.1991
2180	65.1088
2176	65.1467
2172	65.2128
2168	65.2181
2164	65.2493
2160	65.4052
2156	65.4933
2152	65.405
2148	65.2822
2144	65.1176
2140	65.0284
2136	65.1703
2132	65.3435
2128	65.3339
2124	65.2204
2120	65.1753
2116	65.2049
2112	65.2657
2108	65.3054
2104	65.2906
2100	65.2738
2096	65.2711
2092	65.2414
2088	65.1335
2084	65.0077
2080	65.0496
2076	65.2465
2072	65.2894
2068	65.1206
2064	64.9738
2060	64.8442
2056	64.7238
2052	64.7647
2048	64.9107
2044	65.0691
2040	65.226
2036	65.3521
2032	65.4542
2028	65.4985
2024	65.4767
2020	65.3682
2016	65.2242
2012	65.1833
2008	65.2192
2004	65.3043
2000	65.3476
1996	65.2768
1992	65.2098
1988	65.1987
1984	65.2067
1980	65.1914
1976	65.1809
1972	65.1915
1968	65.1198
1964	65.0426
1960	65.0892
1956	65.1604
1952	65.1827
1948	65.1846
1944	65.1818
1940	65.1859
1936	65.2417
1932	65.3502
1928	65.3985
1924	65.3337
1920	65.2813
1916	65.3115
1912	65.327
1908	65.2516
1904	65.18
1900	65.1977
1896	65.2319
1892	65.2518
1888	65.2485
1884	65.2357
1880	65.2385
1876	65.2081
1872	65.1329
1868	65.0773
1864	65.0961
1860	65.0943
1856	65.0359
1852	65.0562
1848	65.1572
1844	65.2109
1840	65.1966
1836	65.2228
1832	65.321
1828	65.3557
1824	65.3049
1820	65.2821
1816	65.2532
1812	65.2185
1808	65.2313
1804	65.23
1800	65.1353
1796	65.0599
1792	65.1268
1788	65.1864
1784	65.1864
1780	65.208
1776	65.2509
1772	65.3218
1768	65.2956
1764	65.0935
1760	64.9511
1756	64.9878
1752	65.0367
1748	65.0443
1744	65.0463
1740	65.0288
1736	65.0745
1732	65.1825
1728	65.2254
1724	65.2093
1720	65.2026
1716	65.2279
1712	65.2151
1708	65.185
1704	65.216
1700	65.2622
1696	65.2558
1692	65.156
1688	65.0983
1684	65.1607
1680	65.1863
1676	65.1214
1672	65.0846
1668	65.1484
1664	65.222
1660	65.1894
1656	65.1438
1652	65.1648
1648	65.1896
1644	65.2236
1640	65.2252
1636	65.1462
1632	65.1158
1628	65.1731
1624	65.2248
1620	65.2478
1616	65.2356
1612	65.2112
1608	65.2231
1604	65.2587
1600	65.2268
1596	65.0815
1592	64.9616
1588	64.9908
1584	65.057
1580	65.0792
1576	65.1204
1572	65.1433
1568	65.0776
1564	64.999
1560	64.9301
1556	64.869
1552	64.8952
1548	64.954
1544	64.9994
1540	65.0359
1536	64.995
1532	64.9388
1528	64.9238
1524	64.9171
1520	64.9583
1516	64.9744
1512	64.9122
1508	64.9062
1504	65.0411
1500	65.2029
1496	65.2067
1492	65.1091
1488	65.088
1484	65.0833
1480	65.0205
1476	64.961
1472	64.9544
1468	64.9883
1464	64.982
1460	64.7461
1456	64.4804
1452	64.5989
1448	64.8255
1444	64.8867
1440	64.958
1436	64.9808
1432	64.9205
1428	64.9431
1424	64.991
1420	64.9412
1416	64.9245
1412	64.9781
1408	64.9788
1404	64.964
1400	64.9301
1396	64.8984
1392	64.9384
1388	64.9849
1384	65.0221
1380	65.0072
1376	64.9351
1372	64.9164
1368	64.9529
1364	64.9684
1360	64.9852
1356	64.9671
1352	64.8608
1348	64.8467
1344	64.9611
1340	65.0234
1336	65.0501
1332	65.0921
1328	65.0935
1324	65.074
1320	65.0429
1316	65.038
1312	65.0673
1308	65.0402
1304	64.9763
1300	64.8786
1296	64.7822
1292	64.7852
1288	64.8565
1284	64.934
1280	64.9775
1276	64.9473
1272	64.8246
1268	64.7376
1264	64.828
1260	64.9704
1256	64.9883
1252	64.9211
1248	64.9485
1244	65.0361
1240	64.9554
1236	64.788
1232	64.7943
1228	64.9514
1224	65.0046
1220	64.9353
1216	64.9736
1212	65.0783
1208	65.0697
1204	65.0602
1200	65.0786
1196	65.0136
1192	64.9766
1188	64.9564
1184	64.8169
1180	64.6903
1176	64.7562
1172	64.9094
1168	64.9146
1164	64.8452
1160	64.8776
1156	64.9068
1152	64.9038
1148	65.0008
1144	65.0251
1140	64.7518
1136	64.5963
1132	64.9131
1128	65.0257
1124	64.7488
1120	64.784
1116	64.9288
1112	64.6709
1108	64.3261
1104	64.3628
1100	64.5813
1096	64.5248
1092	64.4908
1088	64.7787
1084	64.8944
1080	64.6632
1076	64.4641
1072	64.4139
1068	64.4912
1064	64.6885
1060	64.788
1056	64.7181
1052	64.7809
1048	64.939
1044	64.9554
1040	64.9755
1036	65.0025
1032	64.9165
1028	64.8445
1024	64.8142
1020	64.703
1016	64.689
1012	64.8273
1008	64.8654
1004	64.8525
1000	64.9009
996	 64.8068
992	 64.6311
988	 64.5992
984	 64.5976
980	 64.6151
976	 64.655
972	 64.5407
968	 64.416
964	 64.4843
960	 64.6021
956	 64.6533
952	 64.6213
948	 64.5752
944	 64.5947
940	 64.5848
936	 64.6213
932	 64.7127
928	 64.7395
924	 64.7434
920	 64.6906
916	 64.59
912	 64.487
908	 64.5224
904	 64.6636
900	 64.578
896	 64.3744
892	 64.3839
888	 64.5261
884	 64.6768
880	 64.711
876	 64.5157
872	 64.4641
868	 64.5745
864	 64.5973
860	 64.6126
856	 64.5815
852	 64.5785
848	 64.6625
844	 64.6574
840	 64.6416
836	 64.579
832	 64.3749
828	 64.2668
824	 64.2743
820	 64.223
816	 64.1672
812	 64.2754
808	 64.3658
804	 64.2967
800	 64.3056
796	 64.3601
792	 64.2334
788	 64.0599
784	 64.0219
780	 64.0751
776	 64.2779
772	 64.4986
768	 64.5122
764	 64.4383
760	 64.36
756	 64.4716
752	 65.011
748	 65.4085
744	 65.0681
740	 64.5653
736	 64.4035
732	 64.2178
728	 63.824
724	 63.3965
720	 63.2579
716	 63.5474
712	 63.8411
708	 64.0224
704	 64.2648
700	 64.2269
696	 63.931
692	 63.7722
688	 63.701
684	 63.6233
680	 63.5139
676	 63.4096
672	 63.3708
668	 63.442
664	 63.6015
660	 63.829
656	 63.9453
652	 63.7274
648	 63.4688
644	 63.4283
640	 63.5767
636	 63.6607
632	 63.6032
628	 63.5803
624	 63.6552
620	 63.8366
616	 63.9371
612	 63.8571
608	 63.5923
604	 63.1563
600	 62.7872
596	 62.7166
592	 62.9138
588	 62.9685
584	 62.8819
580	 62.7877
576	 62.4187
572	 62.2565
568	 62.5986
564	 62.845
560	 62.6341
556	 62.446
552	 62.5767
548	 62.7195
544	 62.695
540	 62.5146
536	 62.4992
532	 62.5394
528	 62.5902
524	 62.6157
520	 62.1991
516	 62.0006
512	 62.1976
508	 62.1854
504	 62.0298
500	 62.0487
496	 61.9555
492	 61.2637
488	 60.4762
484	 59.9128
480	 59.968
476	 60.7361
472	 60.8086
468	 60.3155
464	 60.3992
460	 61.4109
456	 63.3001
452	 64.3866
448	 63.7244
444	 62.7019
440	 61.5
436	 60.6064
432	 60.392
428	 59.5512
424	 59.5764
420	 60.8566
416	 59.5772
412	 57.5853
408	 60.813
404	 67.2328
400	 71.0568
396	 83.6027
392	 97.7888
388	 91.2061
384	 83.4833
380	 80.4832
376	 59.915
372	 38.4243
370	 34.7146