File: Bakgrunnsmateriale/MATLAB/FTIR/ftir_data/subBb/Mapping_121/C-4040-8_e125_cm-1.asc
PE IR       SPECTRUM    SPECTRUM    ASCII       PEDS        1.60
  -1
C-3ACF~1.ASC
17/03/27
19:57:10.00
17/03/27
19:57:10.00
tln
$C-4040-8_e0125$<ebV0>[-23.3,12.1,10.0,0.0,27,1,0]
370
64

2002,4.07
MIRTGS : RIGHTBACK : INTERNAL 2
MIR : ON : INTERNAL 2
OPTKBR

0.200000
8
8.000000
FILLER
SINGLE
SPECTRUM
UNLOCKED 256

DOUBLE

COMBINED
1
0
0

1.000000
BACKG

1
0
TRUE
51149
0
LEFT NOT FITTED RIGHT NOT FITTED 0
NONE
NONE
15600
12
4.427000
51148
TRUE
1 0 8 72 0 0 0 0

15798

#HDR
-1
-1
#GR
CM-1
EGY
2.38419e-05
0.0
5000
-1.000000
4631
8
2.460193
0.008773
#DATA
5000	0.764894
4996	0.767159
4992	0.770282
4988	0.773143
4984	0.773930
4980	0.774574
4976	0.776672
4972	0.780224
4968	0.786256
4964	0.790405
4960	0.787830
4956	0.782752
4952	0.781011
4948	0.783991
4944	0.789403
4940	0.793218
4936	0.795555
4932	0.797128
4928	0.797581
4924	0.798392
4920	0.799202
4916	0.799584
4912	0.800061
4908	0.800871
4904	0.802326
4900	0.804734
4896	0.808525
4892	0.811648
4888	0.813245
4884	0.812935
4880	0.811481
4876	0.811362
4872	0.813961
4868	0.819468
4864	0.824499
4860	0.826096
4856	0.826811
4852	0.829577
4848	0.832653
4844	0.834751
4840	0.836753
4836	0.837540
4832	0.839233
4828	0.843596
4824	0.847268
4820	0.849080
4816	0.851869
4812	0.855588
4808	0.857591
4804	0.859284
4800	0.862574
4796	0.866413
4792	0.869822
4788	0.872254
4784	0.873064
4780	0.874114
4776	0.876641
4772	0.878810
4768	0.880265
4764	0.881838
4760	0.882983
4756	0.885200
4752	0.887894
4748	0.888085
4744	0.888466
4740	0.891041
4736	0.893115
4732	0.894260
4728	0.895237
4724	0.895643
4720	0.895643
4716	0.895690
4712	0.895524
4708	0.896239
4704	0.899672
4700	0.902438
4696	0.901675
4692	0.900387
4688	0.900411
4684	0.901126
4680	0.901341
4676	0.901722
4672	0.902771
4668	0.903868
4664	0.905418
4660	0.906372
4656	0.906181
4652	0.906229
4648	0.908422
4644	0.911164
4640	0.911426
4636	0.911140
4632	0.912642
4628	0.915837
4624	0.919008
4620	0.921368
4616	0.924348
4612	0.926494
4608	0.927877
4604	0.931286
4600	0.936079
4596	0.939345
4592	0.940203
4588	0.942111
4584	0.946879
4580	0.950455
4576	0.951337
4572	0.953841
4568	0.958538
4564	0.962305
4560	0.964570
4556	0.966763
4552	0.968980
4548	0.971555
4544	0.976419
4540	0.979971
4536	0.980567
4532	0.980710
4528	0.980234
4524	0.983977
4520	0.991225
4516	0.995755
4512	0.997829
4508	0.999474
4504	1.001095
4500	1.002240
4496	1.003384
4492	1.004743
4488	1.006507
4484	1.009607
4480	1.013064
4476	1.014614
4472	1.013636
4468	1.011896
4464	1.011419
4460	1.012706
4456	1.014447
4452	1.015257
4448	1.015353
4444	1.014113
4440	1.012444
4436	1.013851
4432	1.017737
4428	1.018738
4424	1.017618
4420	1.015257
4416	1.014351
4412	1.017546
4408	1.024293
4404	1.026773
4400	1.025390
4396	1.022386
4392	1.016163
4388	0.920486
4384	0.720000
4380	0.709581
4376	0.890302
4372	0.988960
4368	1.026105
4364	1.057100
4360	1.070880
4356	1.075172
4352	1.075005
4348	1.074934
4344	1.072335
4340	1.073098
4336	1.079082
4332	1.085066
4328	1.087594
4324	1.090264
4320	1.096248
4316	1.101875
4312	1.105809
4308	1.110386
4304	1.114964
4300	1.118516
4296	1.122093
4292	1.127862
4288	1.134228
4284	1.138496
4280	1.141214
4276	1.144456
4272	1.148343
4268	1.152873
4264	1.156544
4260	1.159381
4256	1.163625
4252	1.167416
4248	1.168990
4244	1.170015
4240	1.172542
4236	1.175022
4232	1.177263
4228	1.180458
4224	1.183032
4220	1.185607
4216	1.188707
4212	1.190400
4208	1.189994
4204	1.189398
4200	1.192665
4196	1.198720
4192	1.200532
4188	1.196646
4184	1.194095
4180	1.198363
4176	1.202130
4172	1.200509
4168	1.201701
4164	1.206207
4160	1.209425
4156	1.211452
4152	1.213335
4148	1.215744
4144	1.218104
4140	1.221013
4136	1.225495
4132	1.229405
4128	1.231932
4124	1.234316
4120	1.237535
4116	1.242542
4112	1.247906
4108	1.251673
4104	1.254892
4100	1.259613
4096	1.264357
4092	1.268839
4088	1.273512
4084	1.278400
4080	1.285028
4076	1.291966
4072	1.297521
4068	1.302218
4064	1.307368
4060	1.313233
4056	1.318550
4052	1.324415
4048	1.330947
4044	1.335763
4040	1.338696
4036	1.342701
4032	1.348710
4028	1.353955
4024	1.358056
4020	1.362228
4016	1.365280
4012	1.368665
4008	1.374435
4004	1.380491
4000	1.384067
3996	1.385521
3992	1.387786
3988	1.392054
3984	1.395177
3980	1.396203
3976	1.398563
3972	1.402521
3968	1.405286
3964	1.406836
3960	1.407599
3956	1.409053
3952	1.412081
3948	1.413822
3944	1.414203
3940	1.415348
3936	1.416349
3932	1.416540
3928	1.417040
3924	1.418352
3920	1.418900
3916	1.419448
3912	1.421117
3908	1.421046
3904	1.420116
3900	1.422333
3896	1.427006
3892	1.428914
3888	1.428484
3884	1.431989
3880	1.438355
3876	1.440954
3872	1.439499
3868	1.439166
3864	1.443743
3860	1.448893
3856	1.448321
3852	1.451659
3848	1.462244
3844	1.466512
3840	1.466202
3836	1.470923
3832	1.477956
3828	1.484298
3824	1.488494
3820	1.488590
3816	1.492547
3812	1.501035
3808	1.504707
3804	1.506757
3800	1.512789
3796	1.522183
3792	1.530885
3788	1.535439
3784	1.537060
3780	1.540112
3776	1.544785
3772	1.546955
3768	1.548433
3764	1.551032
3760	1.551890
3756	1.548433
3752	1.543116
3748	1.541566
3744	1.545476
3740	1.551890
3736	1.557016
3732	1.561808
3728	1.565480
3724	1.566696
3720	1.568102
3716	1.567387
3712	1.565313
3708	1.568055
3704	1.572775
3700	1.575350
3696	1.574587
3692	1.569128
3688	1.567196
3684	1.570510
3680	1.568412
3676	1.562523
3672	1.562142
3668	1.567697
3664	1.571774
3660	1.570439
3656	1.567673
3652	1.565551
3648	1.566767
3644	1.571369
3640	1.574254
3636	1.574277
3632	1.572513
3628	1.572322
3624	1.574230
3620	1.575016
3616	1.575946
3612	1.578855
3608	1.583766
3604	1.587867
3600	1.589274
3596	1.589751
3592	1.590323
3588	1.592397
3584	1.596260
3580	1.599431
3576	1.601099
3572	1.601862
3568	1.603198
3564	1.607847
3560	1.613688
3556	1.616573
3552	1.617121
3548	1.618051
3544	1.620197
3540	1.620626
3536	1.618933
3532	1.618719
3528	1.619911
3524	1.621937
3520	1.623582
3516	1.623892
3512	1.625561
3508	1.625609
3504	1.621842
3500	1.619744
3496	1.620030
3492	1.619100
3488	1.616787
3484	1.613688
3480	1.610374
3476	1.607632
3472	1.606750
3468	1.606774
3464	1.604199
3460	1.600098
3456	1.596570
3452	1.593399
3448	1.590633
3444	1.587605
3440	1.584219
3436	1.582813
3432	1.585245
3428	1.588273
3424	1.587629
3420	1.584410
3416	1.582288
3412	1.584148
3408	1.589679
3404	1.595664
3400	1.600241
3396	1.602339
3392	1.601767
3388	1.601028
3384	1.603412
3380	1.607799
3376	1.611661
3372	1.616287
3368	1.621651
3364	1.626586
3360	1.632547
3356	1.639699
3352	1.646208
3348	1.652216
3344	1.658463
3340	1.663661
3336	1.668071
3332	1.674056
3328	1.681327
3324	1.687192
3320	1.691770
3316	1.697659
3312	1.704120
3308	1.709032
3304	1.713132
3300	1.717519
3296	1.723265
3292	1.729965
3288	1.735687
3284	1.740717
3280	1.745176
3276	1.749181
3272	1.753544
3268	1.757121
3264	1.760125
3260	1.763796
3256	1.766633
3252	1.769828
3248	1.774096
3244	1.777887
3240	1.780796
3236	1.781320
3232	1.781249
3228	1.783323
3224	1.786136
3220	1.788520
3216	1.789546
3212	1.788902
3208	1.787853
3204	1.787972
3200	1.788949
3196	1.789331
3192	1.789951
3188	1.791763
3184	1.793360
3180	1.795053
3176	1.797580
3172	1.798939
3168	1.799082
3164	1.800274
3160	1.802873
3156	1.805830
3152	1.808810
3148	1.810956
3144	1.811408
3140	1.814794
3136	1.820635
3132	1.824831
3128	1.831483
3124	1.840186
3120	1.846432
3116	1.851725
3112	1.857757
3108	1.864361
3104	1.870512
3100	1.876211
3096	1.882576
3092	1.890325
3088	1.899170
3084	1.908373
3080	1.916575
3076	1.921987
3072	1.925516
3068	1.929569
3064	1.935982
3060	1.943373
3056	1.948499
3052	1.954579
3048	1.964235
3044	1.972413
3040	1.976037
3036	1.976537
3032	1.974797
3028	1.971149
3024	1.964616
3020	1.959633
3016	1.965665
3012	1.983404
3008	2.003479
3004	2.017974
3000	2.025794
2996	2.029180
2992	2.030634
2988	2.030324
2984	2.025675
2980	2.016687
2976	2.004694
2972	1.986980
2968	1.962089
2964	1.939606
2960	1.928281
2956	1.924490
2952	1.920914
2948	1.909470
2944	1.883673
2940	1.848030
2936	1.813316
2932	1.784825
2928	1.765942
2924	1.769471
2920	1.804304
2916	1.853990
2912	1.896691
2908	1.926064
2904	1.945304
2900	1.960039
2896	1.973032
2892	1.985049
2888	1.995587
2884	2.003526
2880	2.007484
2876	2.002763
2872	1.983785
2868	1.949119
2864	1.913094
2860	1.903390
2856	1.926565
2852	1.964235
2848	2.004218
2844	2.041411
2840	2.068901
2836	2.088260
2832	2.104735
2828	2.117991
2824	2.128338
2820	2.137851
2816	2.146911
2812	2.156138
2808	2.164959
2804	2.172160
2800	2.179384
2796	2.187252
2792	2.193832
2788	2.199864
2784	2.207326
2780	2.214622
2776	2.220273
2772	2.225613
2768	2.231931
2764	2.237296
2760	2.240324
2756	2.242922
2752	2.246069
2748	2.247953
2744	2.249121
2740	2.251815
2736	2.253675
2732	2.254223
2728	2.254605
2724	2.253341
2720	2.250576
2716	2.247738
2712	2.245998
2708	2.244114
2704	2.241659
2700	2.240133
2696	2.239060
2692	2.237963
2688	2.236628
2684	2.235054
2680	2.232742
2676	2.229404
2672	2.226233
2668	2.223348
2664	2.221226
2660	2.219343
2656	2.217030
2652	2.216529
2648	2.217221
2644	2.216911
2640	2.215170
2636	2.213382
2632	2.213883
2628	2.215862
2624	2.216935
2620	2.217793
2616	2.219223
2612	2.220678
2608	2.222537
2604	2.224302
2600	2.225947
2596	2.228140
2592	2.230143
2588	2.233338
2584	2.238154
2580	2.243280
2576	2.250170
2572	2.258849
2568	2.266001
2564	2.269721
2560	2.272701
2556	2.277469
2552	2.283143
2548	2.288913
2544	2.294707
2540	2.300333
2536	2.304291
2532	2.307271
2528	2.311325
2524	2.314805
2520	2.317285
2516	2.319049
2512	2.320361
2508	2.323079
2504	2.326393
2500	2.327728
2496	2.328062
2492	2.327632
2488	2.325224
2484	2.322959
2480	2.321314
2476	2.319002
2472	2.316546
2468	2.314209
2464	2.310848
2460	2.306461
2456	2.302265
2452	2.297925
2448	2.293705
2444	2.289819
2440	2.284955
2436	2.279305
2432	2.276492
2428	2.278900
2424	2.279114
2420	2.272605
2416	2.265453
2412	2.260184
2408	2.256703
2404	2.255678
2400	2.254199
2396	2.251529
2392	2.248835
2388	2.246356
2384	2.244472
2380	2.241730
2376	2.238726
2372	2.236700
2368	2.234077
2364	2.233529
2360	2.237439
2356	2.244663
2352	2.253556
2348	2.260279
2344	2.263021
2340	2.264928
2336	2.269577
2332	2.276039
2328	2.283668
2324	2.293109
2320	2.301359
2316	2.308225
2312	2.316260
2308	2.324485
2304	2.331495
2300	2.337837
2296	2.343630
2292	2.349400
2288	2.354145
2284	2.357625
2280	2.361750
2276	2.366685
2272	2.371287
2268	2.374053
2264	2.374768
2260	2.376389
2256	2.378964
2252	2.379703
2248	2.379393
2244	2.379298
2240	2.379012
2236	2.378726
2232	2.377676
2228	2.375030
2224	2.372789
2220	2.372145
2216	2.370834
2212	2.367830
2208	2.365016
2204	2.363157
2200	2.359938
2196	2.355432
2192	2.351832
2188	2.348875
2184	2.346086
2180	2.342939
2176	2.340173
2172	2.338433
2168	2.337455
2164	2.336335
2160	2.335429
2156	2.335715
2152	2.336597
2148	2.337741
2144	2.338099
2140	2.336502
2136	2.334594
2132	2.333426
2128	2.333879
2124	2.335739
2120	2.336788
2116	2.337479
2112	2.337884
2108	2.337551
2104	2.337551
2100	2.337312
2096	2.337241
2092	2.337861
2088	2.337694
2084	2.337408
2080	2.339816
2076	2.346038
2072	2.354145
2068	2.363848
2064	2.375626
2060	2.386116
2056	2.393651
2052	2.399992
2048	2.407169
2044	2.415204
2040	2.422618
2036	2.429151
2032	2.433991
2028	2.437567
2024	2.441525
2020	2.444934
2016	2.446675
2012	2.449274
2008	2.453970
2004	2.458143
2000	2.460122
1996	2.459359
1992	2.457046
1988	2.455163
1984	2.452945
1980	2.450156
1976	2.447247
1972	2.442979
1968	2.437973
1964	2.434372
1960	2.431082
1956	2.427649
1952	2.424931
1948	2.421998
1944	2.418947
1940	2.416157
1936	2.412915
1932	2.408647
1928	2.403283
1924	2.397704
1920	2.392864
1916	2.389669
1912	2.387094
1908	2.383136
1904	2.378916
1900	2.375555
1896	2.371978
1892	2.369880
1888	2.371430
1884	2.374124
1880	2.376103
1876	2.376508
1872	2.376222
1868	2.378988
1864	2.383828
1860	2.387857
1856	2.391815
1852	2.395367
1848	2.396321
1844	2.397274
1840	2.401590
1836	2.405905
1832	2.407622
1828	2.409648
1824	2.413439
1820	2.417349
1816	2.420902
1812	2.424955
1808	2.429151
1804	2.431344
1800	2.431249
1796	2.429747
1792	2.429127
1788	2.429938
1784	2.429127
1780	2.427363
1776	2.422022
1772	2.415561
1768	2.415060
1764	2.413392
1760	2.406096
1756	2.396297
1752	2.385210
1748	2.375006
1744	2.362656
1740	2.344298
1736	2.326679
1732	2.321887
1728	2.326083
1724	2.323031
1720	2.308535
1716	2.296853
1712	2.298665
1708	2.296900
1704	2.278184
1700	2.257680
1696	2.252888
1692	2.256464
1688	2.248859
1684	2.238726
1680	2.238154
1676	2.234101
1672	2.224946
1668	2.217912
1664	2.212500
1660	2.201986
1656	2.179718
1652	2.161741
1648	2.159738
1644	2.160692
1640	2.154517
1636	2.143692
1632	2.135586
1628	2.125740
1624	2.107119
1620	2.078604
1616	2.040910
1612	2.001333
1608	1.976037
1604	1.977181
1600	1.994776
1596	2.011203
1592	2.018260
1588	2.015972
1584	2.007555
1580	1.995277
1576	1.985931
1572	1.983261
1568	1.977014
1564	1.956820
1560	1.935124
1556	1.937651
1552	1.955413
1548	1.961135
1544	1.959657
1540	1.981544
1536	2.033281
1532	2.083373
1528	2.108478
1524	2.112412
1520	2.109503
1516	2.105402
1512	2.093553
1508	2.065443
1504	1.996159
1500	1.852464
1496	1.703882
1492	1.685523
1488	1.790523
1484	1.902294
1480	1.959156
1476	1.973032
1472	1.972413
1468	1.963663
1464	1.936340
1460	1.879811
1456	1.805520
1452	1.763987
1448	1.787710
1444	1.835250
1440	1.857566
1436	1.862907
1432	1.867222
1428	1.867723
1424	1.863527
1420	1.854872
1416	1.841640
1412	1.813840
1408	1.765942
1404	1.728320
1400	1.731538
1396	1.761960
1392	1.786017
1388	1.787400
1384	1.783919
1380	1.793766
1376	1.805639
1372	1.812553
1368	1.816725
1364	1.817679
1360	1.816987
1356	1.816153
1352	1.815247
1348	1.813960
1344	1.813125
1340	1.815032
1336	1.823949
1332	1.836967
1328	1.845312
1324	1.848840
1320	1.852250
1316	1.855874
1312	1.857328
1308	1.856899
1304	1.855826
1300	1.854634
1296	1.854515
1292	1.854467
1288	1.852917
1284	1.849913
1280	1.843285
1276	1.829838
1272	1.803898
1268	1.761221
1264	1.721096
1260	1.718997
1256	1.756238
1252	1.797413
1248	1.821994
1244	1.833033
1240	1.835083
1236	1.831722
1232	1.827073
1228	1.822185
1224	1.813769
1220	1.799321
1216	1.779508
1212	1.758933
1208	1.745462
1204	1.741600
1200	1.743984
1196	1.745390
1192	1.740312
1188	1.731204
1184	1.720762
1180	1.709771
1176	1.699304
1172	1.686930
1168	1.669359
1164	1.648807
1160	1.630210
1156	1.617383
1152	1.610875
1148	1.606607
1144	1.599597
1140	1.588511
1136	1.574134
1132	1.557731
1128	1.539611
1124	1.520061
1120	1.499509
1116	1.478290
1112	1.458311
1108	1.442337
1104	1.432394
1100	1.427936
1096	1.426863
1092	1.427292
1088	1.429462
1084	1.430511
1080	1.427197
1076	1.426935
1072	1.432967
1068	1.438355
1064	1.438140
1060	1.421546
1056	1.371049
1052	1.313328
1048	1.309108
1044	1.349735
1040	1.379227
1036	1.385092
1032	1.379966
1028	1.371073
1024	1.365303
1020	1.365637
1016	1.370215
1012	1.378178
1008	1.387810
1004	1.395654
1000	1.400351
996	 1.399517
992	 1.393795
988	 1.388525
984	 1.383543
980	 1.376032
976	 1.366400
972	 1.354193
968	 1.341438
964	 1.329922
960	 1.313114
956	 1.294541
952	 1.281499
948	 1.270270
944	 1.260352
940	 1.254224
936	 1.249289
932	 1.241350
928	 1.231098
924	 1.220679
920	 1.210427
916	 1.198005
912	 1.182079
908	 1.167488
904	 1.157331
900	 1.150178
896	 1.143693
892	 1.134347
888	 1.115727
884	 1.083374
880	 1.047372
876	 1.027727
872	 1.035094
868	 1.059341
864	 1.081347
860	 1.092147
856	 1.093530
852	 1.087999
848	 1.079416
844	 1.070451
840	 1.055312
836	 1.021957
832	 0.959253
828	 0.882697
824	 0.845432
820	 0.871968
816	 0.918364
812	 0.943017
808	 0.947737
804	 0.945234
800	 0.944876
796	 0.951528
792	 0.962138
788	 0.971484
784	 0.976872
780	 0.977563
776	 0.975680
772	 0.973105
768	 0.969839
764	 0.966000
760	 0.962495
756	 0.959181
752	 0.954937
748	 0.949168
744	 0.940871
740	 0.933408
736	 0.927042
732	 0.916719
728	 0.903511
724	 0.890135
720	 0.877404
716	 0.866460
712	 0.856614
708	 0.846076
704	 0.832319
700	 0.813770
696	 0.790381
692	 0.760769
688	 0.736594
684	 0.731706
680	 0.734496
676	 0.732064
672	 0.725460
668	 0.717258
664	 0.709700
660	 0.701236
656	 0.690102
652	 0.678110
648	 0.666475
644	 0.655722
640	 0.646042
636	 0.636267
632	 0.625205
628	 0.614070
624	 0.604271
620	 0.594115
616	 0.580167
612	 0.559735
608	 0.536894
604	 0.523376
600	 0.522279
596	 0.523519
592	 0.519847
588	 0.512933
584	 0.506949
580	 0.502967
576	 0.500535
572	 0.497961
568	 0.492906
564	 0.486183
560	 0.479865
556	 0.473642
552	 0.466442
548	 0.458812
544	 0.451946
540	 0.445413
536	 0.438189
532	 0.429868
528	 0.420141
524	 0.410437
520	 0.400638
516	 0.390028
512	 0.380492
508	 0.371313
504	 0.360965
500	 0.349187
496	 0.335669
492	 0.320672
488	 0.305342
484	 0.289940
480	 0.275087
476	 0.262308
472	 0.252056
468	 0.241971
464	 0.228500
460	 0.211620
456	 0.194239
452	 0.179791
448	 0.169634
444	 0.161194
440	 0.150370
436	 0.137543
432	 0.125479
428	 0.114297
424	 0.103425
420	 0.090956
416	 0.077939
412	 0.067162
408	 0.057482
404	 0.047397
400	 0.038981
396	 0.034165
392	 0.030612
388	 0.024700
384	 0.017571
380	 0.013232
376	 0.011491
372	 0.009822
370	 0.008773