File: Bakgrunnsmateriale/MATLAB/FTIR/ftir_data/subBb/Mapping_121/C-4040-8_t72.asc
PE IR       SPECTRUM    SPECTRUM    ASCII       PEDS        1.60
  -1
C-A142~1.ASC
17/03/27
20:25:52.00
17/03/27
20:26:19.00
tln
$C-4040-8_t0072$<tbV0>[0.0,2.6,8.0,0.0,27,1,0]
27.028
64

2002,4.07
MIRTGS : RIGHTBACK : INTERNAL 2
MIR : ON : INTERNAL 2
OPTKBR

0.200000
8
8.000000
FILLER
RATIO
SPECTRUM
UNLOCKED 256

DOUBLE
64
COMBINED
1
0
0

0.002000
RATIO

1
0
TRUE
51149
0
LEFT NOT FITTED RIGHT NOT FITTED 0
NONE
NONE
15600
12
4.427000
51148
TRUE
1 0 8 72 0 0 0 0

15798

#HDR
-1
-1
#GR
µM
%T
2.38419e-05
0.0
2.000000
0.002000
12515
8
96.6571
43.1466
#DATA
2.000000	 64.9827
2.018000	 65.3556
2.036000	 64.7159
2.054000	 64.9137
2.072000	 65.4266
2.090000	 65.2332
2.108000	 65.6491
2.126000	 65.4922
2.144000	 65.4254
2.162000	 65.2627
2.180000	 64.9553
2.198000	 64.8755
2.216000	 64.615
2.234000	 64.6386
2.252000	 64.2387
2.270000	 63.4932
2.288000	 76.1863
2.306000	 65.6097
2.324000	 64.9173
2.342000	 64.9152
2.360000	 64.8934
2.378000	 64.9297
2.396000	 64.4902
2.414000	 65.2002
2.432000	 64.9558
2.450000	 65.1357
2.468000	 65.6226
2.486000	 65.3141
2.504000	 65.3736
2.522000	 65.1608
2.540000	 65.1416
2.558000	 65.4155
2.576000	 65.1847
2.594000	 65.1082
2.612000	 65.2723
2.630000	 65.249
2.648000	 65.0497
2.666000	 65.2867
2.684000	 65.3574
2.702000	 65.2363
2.720000	 65.2662
2.738000	 65.2378
2.756000	 65.2763
2.774000	 65.4497
2.792000	 65.3915
2.810000	 65.3676
2.828000	 65.3524
2.846000	 65.4634
2.864000	 65.44
2.882000	 65.3174
2.900000	 65.4197
2.918000	 65.0195
2.936000	 65.2328
2.954000	 65.4222
2.972000	 65.2979
2.990000	 65.1419
3.008000	 65.3196
3.026000	 65.2002
3.044000	 65.3243
3.062000	 65.3427
3.080000	 65.3537
3.098000	 65.1933
3.116000	 65.263
3.134000	 65.5095
3.152000	 65.235
3.170000	 65.289
3.188000	 65.4942
3.206000	 64.9688
3.224000	 65.3268
3.242000	 65.2219
3.260000	 65.4173
3.278000	 65.391
3.296000	 65.367
3.314000	 65.2551
3.332000	 65.1014
3.350000	 65.2916
3.368000	 65.0447
3.386000	 65.119
3.404000	 65.2041
3.422000	 64.8567
3.440000	 65.074
3.458000	 65.1982
3.476000	 65.2541
3.494000	 65.3389
3.512000	 65.3046
3.530000	 65.2212
3.548000	 65.4802
3.566000	 65.4451
3.584000	 65.3161
3.602000	 65.4544
3.620000	 65.3931
3.638000	 65.3519
3.656000	 65.3915
3.674000	 65.4357
3.692000	 65.4931
3.710000	 65.4189
3.728000	 65.2418
3.746000	 65.507
3.764000	 65.4245
3.782000	 65.2822
3.800000	 65.4444
3.818000	 65.4101
3.836000	 65.4387
3.854000	 65.337
3.872000	 65.4976
3.890000	 65.3126
3.908000	 65.5144
3.926000	 65.346
3.944000	 65.373
3.962000	 65.4711
3.980000	 65.4202
3.998000	 65.3941
4.016000	 65.5775
4.034000	 65.4696
4.052000	 65.3081
4.070000	 65.3544
4.088000	 65.3776
4.106000	 65.5529
4.124000	 64.9063
4.141999	 65.3961
4.160000	 65.3034
4.178000	 65.2314
4.196000	 65.4406
4.214000	 65.3919
4.232000	 65.3145
4.250000	 65.3822
4.268000	 65.2954
4.286000	 65.5361
4.304000	 65.408
4.322000	 65.4457
4.340000	 65.36
4.358000	 65.473
4.375999	 65.5355
4.394000	 65.4286
4.412000	 65.4286
4.430000	 65.441
4.448000	 65.3462
4.466000	 65.5106
4.484000	 65.5454
4.502000	 65.4594
4.520000	 65.4088
4.538000	 65.3176
4.556000	 65.3079
4.574000	 65.4547
4.592000	 65.4965
4.609999	 65.3541
4.628000	 65.4661
4.646000	 65.3632
4.664000	 65.4269
4.682000	 65.6208
4.700000	 65.4658
4.718000	 65.3278
4.736000	 65.4313
4.754000	 65.3741
4.772000	 65.4388
4.790000	 65.5552
4.808000	 65.6737
4.826000	 65.2103
4.843999	 65.1815
4.862000	 65.2393
4.880000	 65.326
4.898000	 65.3501
4.916000	 65.3988
4.934000	 65.425
4.952000	 65.4716
4.970000	 65.547
4.988000	 65.3454
5.006000	 65.2682
5.024000	 65.2619
5.042000	 65.2436
5.060000	 65.2872
5.077999	 65.4533
5.096000	 65.3526
5.114000	 65.3241
5.132000	 65.3663
5.150000	 65.3391
5.168000	 65.357
5.186000	 65.5087
5.204000	 65.487
5.222000	 65.4503
5.240000	 65.4382
5.258000	 65.3626
5.276000	 65.4627
5.294000	 65.4487
5.312000	 65.3097
5.330000	 65.4077
5.348000	 65.4489
5.366000	 65.4757
5.384000	 65.4531
5.402000	 65.3563
5.420000	 65.3784
5.438000	 65.3772
5.456000	 65.3764
5.474000	 65.4332
5.492000	 65.5678
5.510000	 65.6941
5.528000	 65.5953
5.546000	 65.5036
5.564000	 65.4842
5.582000	 65.3823
5.600000	 65.3655
5.618000	 65.4032
5.636000	 65.4248
5.654000	 65.3808
5.672000	 65.4096
5.690000	 65.4592
5.708000	 65.3715
5.726000	 65.2748
5.744000	 65.2903
5.762000	 65.3385
5.780000	 65.2791
5.798000	 65.2252
5.816000	 65.2714
5.834000	 65.3636
5.852000	 65.288
5.870000	 65.3425
5.888000	 65.5051
5.906000	 65.5009
5.923999	 65.4996
5.942000	 65.4949
5.960000	 65.3628
5.978000	 65.2795
5.996000	 65.3399
6.014000	 65.382
6.032000	 65.372
6.050000	 65.4396
6.068000	 65.4929
6.086000	 65.4749
6.104000	 65.3187
6.122000	 65.2494
6.140000	 65.2165
6.158000	 65.1936
6.176000	 65.1811
6.194000	 65.1223
6.212000	 65.1061
6.230000	 65.176
6.248000	 65.2881
6.266000	 65.2756
6.284000	 65.2171
6.302000	 65.2719
6.320000	 65.2812
6.338000	 65.1748
6.356000	 65.0527
6.374000	 64.965
6.392000	 64.9546
6.410000	 65.0254
6.428000	 65.0232
6.446000	 65.002
6.464000	 65.0679
6.482000	 65.1751
6.500000	 65.2828
6.518000	 65.2414
6.536000	 65.1927
6.554000	 65.2813
6.572000	 65.2864
6.590000	 65.1527
6.608000	 65.1017
6.626000	 65.2036
6.644000	 65.2942
6.662000	 65.2859
6.680000	 65.2389
6.698000	 65.2507
6.716000	 65.3197
6.734000	 65.3634
6.752000	 65.3551
6.770000	 65.2988
6.788000	 65.2358
6.806000	 65.2032
6.824000	 65.1955
6.842000	 65.186
6.860000	 65.1991
6.878000	 65.1986
6.896000	 65.0751
6.914000	 64.9923
6.932000	 65.105
6.950000	 65.2438
6.968000	 65.2699
6.986000	 65.2827
7.004000	 65.3538
7.022000	 65.3691
7.040000	 65.2874
7.058000	 65.2188
7.076000	 65.2027
7.094000	 65.1832
7.112000	 65.1316
7.130000	 65.0962
7.148000	 65.142
7.166000	 65.2206
7.184000	 65.2348
7.202000	 65.2276
7.220000	 65.2972
7.238000	 65.4231
7.256000	 65.5076
7.274000	 65.4705
7.292000	 65.3365
7.310000	 65.2123
7.328000	 65.1402
7.346000	 65.1037
7.364000	 65.107
7.382000	 65.1547
7.400000	 65.2298
7.418000	 65.2768
7.436000	 65.2665
7.454000	 65.2637
7.472000	 65.3027
7.490000	 65.3061
7.508000	 65.2428
7.526000	 65.1932
7.544000	 65.2098
7.562000	 65.2414
7.580000	 65.2216
7.598000	 65.1599
7.616000	 65.1163
7.634000	 65.1128
7.652000	 65.1237
7.670000	 65.1403
7.688000	 65.1632
7.706000	 65.1621
7.724000	 65.1368
7.742000	 65.1529
7.760000	 65.2187
7.778000	 65.2416
7.796000	 65.189
7.814000	 65.1392
7.832000	 65.1286
7.850000	 65.119
7.868000	 65.1183
7.886000	 65.1724
7.904000	 65.256
7.922000	 65.2835
7.940000	 65.2236
7.958000	 65.1409
7.976000	 65.1137
7.994000	 65.1445
8.012000	 65.1756
8.030000	 65.1751
8.048000	 65.1651
8.065999	 65.1692
8.084000	 65.1738
8.102000	 65.145
8.120000	 65.0758
8.138000	 65.0106
8.155999	 65.0104
8.173999	 65.0773
8.192000	 65.1449
8.210000	 65.1649
8.228000	 65.1632
8.246000	 65.1811
8.263999	 65.206
8.282000	 65.1972
8.300000	 65.1455
8.318000	 65.0675
8.336000	 64.9792
8.353999	 64.9034
8.372000	 64.8719
8.390000	 64.8926
8.408000	 64.9418
8.426000	 64.9973
8.443999	 65.0568
8.462000	 65.1082
8.480000	 65.1194
8.498000	 65.0732
8.516000	 64.9926
8.533999	 64.9145
8.552000	 64.8538
8.570000	 64.8064
8.588000	 64.7695
8.606000	 64.7487
8.624000	 64.7499
8.641999	 64.7733
8.660000	 64.8099
8.678000	 64.8474
8.696000	 64.8851
8.714000	 64.9362
8.731999	 65.0059
8.750000	 65.0696
8.768000	 65.0886
8.786000	 65.0504
8.804000	 64.9822
8.821999	 64.925
8.840000	 64.902
8.858000	 64.9102
8.876000	 64.9293
8.894000	 64.9394
8.911999	 64.9284
8.930000	 64.8871
8.948000	 64.814
8.966000	 64.7324
8.984000	 64.6951
9.001999	 64.7493
9.020000	 64.8893
9.038000	 65.0538
9.056000	 65.1784
9.074000	 65.2369
9.092000	 65.2347
9.109999	 65.1872
9.128000	 65.1149
9.146000	 65.0396
9.164000	 64.9726
9.182000	 64.9099
9.199999	 64.8498
9.218000	 64.8126
9.236000	 64.8272
9.254000	 64.8939
9.272000	 64.9734
9.289999	 65.0199
9.308000	 65.0214
9.326000	 65.0023
9.344000	 64.9908
9.362000	 64.9902
9.379999	 64.9831
9.398000	 64.959
9.416000	 64.9295
9.434000	 64.9128
9.452000	 64.9079
9.469999	 64.8874
9.488000	 64.8199
9.506000	 64.706
9.524000	 64.5906
9.542000	 64.5325
9.560000	 64.56
9.577999	 64.655
9.596000	 64.7698
9.614000	 64.8498
9.632000	 64.8539
9.650000	 64.7748
9.667999	 64.6511
9.686000	 64.5504
9.704000	 64.5266
9.722000	 64.5796
9.740000	 64.6557
9.757999	 64.6955
9.776000	 64.6837
9.794000	 64.6586
9.812000	 64.6747
9.830000	 64.7507
9.847999	 64.8579
9.866000	 64.9481
9.884000	 64.9914
9.902000	 64.9935
9.920000	 64.9821
9.937999	 64.9792
9.956000	 64.987
9.974000	 64.9911
9.992000	 64.9734
10.01	64.9235
10.028	64.843
10.046	64.7483
10.064	64.6696
10.082	64.6422
10.1	64.6903
10.118	64.8087
10.136	64.9554
10.154	65.0682
10.172	65.0956
10.19	65.0255
10.208	64.8905
10.226	64.7444
10.244	64.6356
10.262	64.5872
10.28	64.5957
10.298	64.6434
10.316	64.7088
10.334	64.777
10.352	64.8429
10.37	64.9087
10.388	64.9796
10.406	65.057
10.424	65.1343
10.442	65.1982
10.46	65.2375
10.478	65.2499
10.496	65.2451
10.514	65.2381
10.532	65.2408
10.55	65.2538
10.568	65.2699
10.586	65.2773
10.604	65.2672
10.622	65.2382
10.64	65.1949
10.658	65.1445
10.676	65.0938
10.694	65.0463
10.712	65.002
10.73	64.9592
10.748	64.9149
10.766	64.8682
10.784	64.8206
10.802	64.776
10.82	64.7395
10.838	64.7171
10.856	64.7155
10.874	64.7414
10.892	64.7983
10.91	64.8832
10.928	64.9845
10.946	65.0824
10.964	65.1557
10.982	65.1876
11	65.1729
11.018	65.1191
11.036	65.0427
11.054	64.9635
11.072	64.8976
11.09	64.8562
11.108	64.8438
11.126	64.8589
11.144	64.8948
11.162	64.94
11.18	64.9816
11.198	65.0082
11.216	65.0133
11.234	64.9978
11.252	64.969
11.27	64.9365
11.288	64.9095
11.306	64.8914
11.324	64.8788
11.342	64.8635
11.36	64.836
11.378	64.7894
11.396	64.7233
11.414	64.6441
11.432	64.564
11.45	64.4962
11.468	64.4514
11.486	64.433
11.504	64.437
11.522	64.4544
11.54	64.4752
11.558	64.4918
11.576	64.4995
11.594	64.4972
11.612	64.4848
11.63	64.4639
11.648	64.4369
11.666	64.4082
11.684	64.3841
11.702	64.3708
11.72	64.3726
11.738	64.3889
11.756	64.4141
11.774	64.4389
11.792	64.4538
11.81	64.4543
11.828	64.4426
11.846	64.4272
11.864	64.42
11.882	64.4308
11.9	64.4648
11.918	64.5199
11.936	64.5875
11.954	64.6561
11.972	64.7133
11.99	64.7495
12.008	64.7595
12.026	64.7421
12.044	64.6996
12.062	64.6372
12.08	64.5613
12.098	64.4796
12.116	64.4004
12.134	64.3325
12.152	64.2828
12.17	64.2562
12.188	64.2543
12.206	64.2747
12.224	64.3121
12.242	64.3594
12.26	64.4091
12.278	64.4543
12.296	64.4906
12.314	64.5164
12.332	64.5325
12.35	64.5417
12.368	64.5472
12.386	64.5526
12.404	64.5593
12.422	64.5664
12.44	64.5707
12.458	64.5675
12.476	64.5525
12.494	64.5229
12.512	64.4792
12.53	64.4256
12.548	64.3691
12.566	64.3177
12.584	64.2775
12.602	64.2511
12.62	64.2367
12.638	64.2289
12.656	64.2201
12.674	64.2035
12.692	64.1759
12.71	64.1378
12.728	64.0943
12.746	64.0526
12.764	64.021
12.782	64.0064
12.8	64.0124
12.818	64.0381
12.836	64.0791
12.854	64.1283
12.872	64.1781
12.89	64.2215
12.908	64.2529
12.926	64.27
12.944	64.2732
12.962	64.2664
12.98	64.255
12.998	64.2454
13.016	64.2429
13.034	64.251
13.052	64.2704
13.07	64.2995
13.088	64.335
13.106	64.3729
13.124	64.4097
13.142	64.4416
13.16	64.4653
13.178	64.477
13.196	64.4731
13.214	64.4502
13.232	64.4063
13.25	64.3425
13.268	64.2635
13.286	64.1784
13.304	64.0992
13.322	64.039
13.34	64.0087
13.358	64.0137
13.376	64.0522
13.394	64.1145
13.412	64.1851
13.43	64.2456
13.448	64.2794
13.466	64.2748
13.484	64.2273
13.502	64.1399
13.52	64.0222
13.538	63.887
13.556	63.748
13.574	63.6173
13.592	63.5032
13.61	63.4105
13.628	63.3407
13.646	63.2934
13.664	63.2669
13.682	63.2598
13.7	63.271
13.718	63.2993
13.736	63.3435
13.754	63.4004
13.772	63.4662
13.79	63.5354
13.808	63.6028
13.826	63.6633
13.844	63.7133
13.862	63.7507
13.88	63.7752
13.898	63.7879
13.916	63.7911
13.934	63.787
13.952	63.7776
13.97	63.7641
13.988	63.747
14.006	63.7265
14.024	63.7025
14.042	63.6752
14.06	63.646
14.078	63.6171
14.096	63.5916
14.114	63.5728
14.132	63.5639
14.15	63.5669
14.168	63.582
14.186	63.6078
14.204	63.6411
14.222	63.6773
14.24	63.7111
14.258	63.7378
14.276	63.7536
14.294	63.7568
14.312	63.7475
14.33	63.7278
14.348	63.7011
14.366	63.6715
14.384	63.6427
14.402	63.6174
14.42	63.5965
14.438	63.5792
14.456	63.5635
14.474	63.5468
14.492	63.5265
14.51	63.5009
14.528	63.4696
14.546	63.4343
14.564	63.3973
14.582	63.3618
14.6	63.3312
14.618	63.3081
14.636	63.294
14.654	63.2882
14.672	63.2888
14.69	63.2928
14.708	63.297
14.726	63.298
14.744	63.2933
14.762	63.2819
14.78	63.2642
14.798	63.2419
14.816	63.217
14.834	63.1922
14.852	63.1698
14.87	63.151
14.888	63.1361
14.906	63.1246
14.924	63.1152
14.942	63.1058
14.96	63.0948
14.978	63.081
14.996	63.064
15.014	63.0442
15.032	63.0229
15.05	63.0021
15.068	62.9839
15.086	62.9702
15.104	62.9627
15.122	62.9626
15.14	62.9701
15.158	62.9849
15.176	63.006
15.194	63.0321
15.212	63.0619
15.23	63.0935
15.248	63.1254
15.266	63.1562
15.284	63.1841
15.302	63.2076
15.32	63.2258
15.338	63.2377
15.356	63.2428
15.374	63.2409
15.392	63.232
15.41	63.2168
15.428	63.1964
15.446	63.1721
15.464	63.1453
15.482	63.1172
15.5	63.0887
15.518	63.0611
15.536	63.0347
15.554	63.0097
15.572	62.9858
15.59	62.9627
15.608	62.94
15.626	62.9172
15.644	62.8944
15.662	62.8723
15.68	62.8524
15.698	62.8359
15.716	62.8249
15.734	62.8218
15.752	62.8283
15.77	62.8461
15.788	62.8763
15.806	62.9183
15.824	62.971
15.842	63.032
15.86	63.0974
15.878	63.1633
15.896	63.2258
15.914	63.2794
15.932	63.3202
15.95	63.3451
15.968	63.3512
15.986	63.3375
16.004	63.3042
16.022	63.2518
16.04	63.1831
16.058	63.1007
16.076	63.007
16.094	62.9057
16.112	62.7997
16.13	62.6913
16.148	62.5829
16.166	62.477
16.184	62.3751
16.202	62.2788
16.22	62.1907
16.238	62.1128
16.256	62.0468
16.274	61.9962
16.292	61.9634
16.31	61.9503
16.328	61.9602
16.346	61.994
16.364	62.0523
16.382	62.1351
16.4	62.2405
16.418	62.3667
16.436	62.5094
16.454	62.6636
16.472	62.8256
16.49	62.988
16.508	63.1452
16.526	63.2927
16.544	63.4237
16.562	63.5342
16.58	63.6213
16.598	63.6813
16.616	63.7138
16.634	63.718
16.652	63.6955
16.67	63.6486
16.688	63.5792
16.706	63.4935
16.724	63.3949
16.742	63.2881
16.76	63.1805
16.778	63.0753
16.796	62.9783
16.814	62.8935
16.832	62.8232
16.85	62.7701
16.868	62.7341
16.886	62.7157
16.904	62.7124
16.922	62.7223
16.94	62.7426
16.958	62.7687
16.976	62.7986
16.994	62.8278
17.012	62.8538
17.03	62.875
17.048	62.889
17.066	62.8957
17.084	62.895
17.102	62.8882
17.12	62.8758
17.138	62.8607
17.156	62.8445
17.174	62.829
17.192	62.8169
17.21	62.809
17.228	62.8069
17.246	62.8105
17.264	62.82
17.282	62.8339
17.3	62.8512
17.318	62.8696
17.336	62.8867
17.354	62.9009
17.372	62.9089
17.39	62.9101
17.408	62.9024
17.426	62.8858
17.444	62.8596
17.462	62.8252
17.48	62.7832
17.498	62.736
17.516	62.6857
17.534	62.6344
17.552	62.5855
17.57	62.5399
17.588	62.5009
17.606	62.4688
17.624	62.4453
17.642	62.4299
17.66	62.4229
17.678	62.4228
17.696	62.4288
17.714	62.4386
17.732	62.451
17.75	62.464
17.768	62.4757
17.786	62.4851
17.804	62.4906
17.822	62.492
17.84	62.4888
17.858	62.481
17.876	62.4688
17.894	62.4531
17.912	62.4343
17.93	62.4139
17.948	62.3921
17.966	62.3708
17.984	62.3506
18.002	62.3328
18.02	62.3182
18.038	62.3077
18.056	62.3023
18.074	62.3021
18.092	62.3079
18.11	62.3197
18.128	62.3373
18.146	62.3608
18.164	62.3893
18.182	62.4225
18.2	62.4594
18.218	62.4991
18.236	62.5411
18.254	62.5838
18.272	62.627
18.29	62.6692
18.308	62.7103
18.326	62.7489
18.344	62.785
18.362	62.8177
18.38	62.8469
18.398	62.8716
18.416	62.8916
18.434	62.9061
18.452	62.9145
18.47	62.916
18.488	62.9099
18.506	62.8956
18.524	62.8724
18.542	62.8399
18.56	62.7979
18.578	62.7461
18.596	62.6852
18.614	62.6155
18.632	62.539
18.65	62.4561
18.668	62.3703
18.686	62.2822
18.704	62.1963
18.722	62.1132
18.74	62.0376
18.758	61.9699
18.776	61.9142
18.794	61.8707
18.812	61.8419
18.83	61.8273
18.848	61.8275
18.866	61.8412
18.884	61.8675
18.902	61.9046
18.92	61.9499
18.938	62.0013
18.956	62.0558
18.974	62.1113
18.992	62.1644
19.01	62.2141
19.028	62.2574
19.046	62.2939
19.064	62.322
19.082	62.342
19.1	62.3536
19.118	62.3577
19.136	62.3553
19.154	62.3472
19.172	62.3355
19.19	62.3204
19.208	62.304
19.226	62.2863
19.244	62.2692
19.262	62.2521
19.28	62.2354
19.298	62.2188
19.316	62.2011
19.334	62.1823
19.352	62.1599
19.37	62.1339
19.388	62.1019
19.406	62.064
19.424	62.0183
19.442	61.9646
19.46	61.9027
19.478	61.8322
19.496	61.7544
19.514	61.6691
19.532	61.5787
19.55	61.484
19.568	61.3871
19.586	61.2903
19.604	61.1949
19.622	61.1042
19.64	61.0185
19.658	60.9412
19.676	60.8721
19.694	60.8135
19.712	60.7653
19.73	60.7276
19.748	60.7009
19.766	60.6833
19.784	60.675
19.802	60.6737
19.82	60.6782
19.838	60.6871
19.856	60.6975
19.874	60.7093
19.892	60.7194
19.91	60.7281
19.928	60.7334
19.946	60.7351
19.964	60.7332
19.982	60.7272
20	60.7183
20.018	60.7064
20.036	60.6928
20.054	60.6791
20.072	60.6654
20.09	60.6545
20.108	60.6461
20.126	60.6424
20.144	60.6434
20.162	60.6501
20.18	60.6629
20.198	60.6816
20.216	60.7064
20.234	60.7372
20.252	60.7728
20.27	60.8135
20.288	60.8577
20.306	60.9053
20.324	60.955
20.342	61.0059
20.36	61.0578
20.378	61.109
20.396	61.1599
20.414	61.2091
20.432	61.2567
20.45	61.3022
20.468	61.3454
20.486	61.3863
20.504	61.4248
20.522	61.4607
20.54	61.4941
20.558	61.5248
20.576	61.5527
20.594	61.5777
20.612	61.5999
20.63	61.6191
20.648	61.6353
20.666	61.6481
20.684	61.6577
20.702	61.6639
20.72	61.6667
20.738	61.666
20.756	61.6617
20.774	61.6538
20.792	61.6427
20.81	61.6285
20.828	61.6114
20.846	61.5914
20.864	61.5687
20.882	61.5436
20.9	61.5162
20.918	61.4864
20.936	61.4543
20.954	61.4199
20.972	61.3829
20.99	61.3436
21.008	61.3013
21.026	61.256
21.044	61.2075
21.062	61.1552
21.08	61.0993
21.098	61.0394
21.116	60.9754
21.134	60.9075
21.152	60.8359
21.17	60.7605
21.188	60.6822
21.206	60.6008
21.224	60.5171
21.242	60.4323
21.26	60.3459
21.278	60.2601
21.296	60.1748
21.314	60.0909
21.332	60.0103
21.35	59.9325
21.368	59.8594
21.386	59.7914
21.404	59.7288
21.422	59.6734
21.44	59.6245
21.458	59.5832
21.476	59.5498
21.494	59.5241
21.512	59.5065
21.53	59.4972
21.548	59.4955
21.566	59.5013
21.584	59.5145
21.602	59.534
21.62	59.5603
21.638	59.5924
21.656	59.6289
21.674	59.6703
21.692	59.715
21.71	59.7627
21.728	59.8133
21.746	59.8656
21.764	59.92
21.782	59.9756
21.8	60.0319
21.818	60.0892
21.836	60.1461
21.854	60.2028
21.872	60.2587
21.89	60.3125
21.908	60.3648
21.926	60.4144
21.944	60.4607
21.962	60.5039
21.98	60.5421
21.998	60.5756
22.016	60.6037
22.034	60.6244
22.052	60.6384
22.07	60.6445
22.088	60.6415
22.106	60.6301
22.124	60.6094
22.142	60.5791
22.16	60.5396
22.178	60.4917
22.196	60.4347
22.214	60.3703
22.232	60.3002
22.25	60.2231
22.268	60.1427
22.286	60.0605
22.304	59.9756
22.322	59.8929
22.34	59.8125
22.358	59.735
22.376	59.6652
22.394	59.602
22.412	59.5473
22.43	59.5046
22.448	59.4725
22.466	59.4525
22.484	59.4461
22.502	59.4526
22.52	59.4716
22.538	59.5034
22.556	59.5476
22.574	59.6019
22.592	59.6669
22.61	59.7415
22.628	59.8222
22.646	59.9102
22.664	60.0036
22.682	60.0989
22.7	60.1974
22.718	60.297
22.736	60.3945
22.754	60.4913
22.772	60.5857
22.79	60.676
22.808	60.7632
22.826	60.8459
22.844	60.923
22.862	60.9953
22.88	61.0623
22.898	61.124
22.916	61.1805
22.934	61.2311
22.952	61.2761
22.97	61.3153
22.988	61.3472
23.006	61.3721
23.024	61.3895
23.042	61.3969
23.06	61.3941
23.078	61.3813
23.096	61.3561
23.114	61.3189
23.132	61.2694
23.15	61.2054
23.168	61.127
23.186	61.0342
23.204	60.9251
23.222	60.7998
23.24	60.6586
23.258	60.5016
23.276	60.3278
23.294	60.1387
23.312	59.9373
23.33	59.7222
23.348	59.495
23.366	59.2612
23.384	59.0192
23.402	58.7706
23.42	58.5224
23.438	58.2736
23.456	58.025
23.474	57.7841
23.492	57.5513
23.51	57.3258
23.528	57.1144
23.546	56.9183
23.564	56.7361
23.582	56.5725
23.6	56.4295
23.618	56.3052
23.636	56.2014
23.654	56.119
23.672	56.0573
23.69	56.0161
23.708	55.9955
23.726	55.9957
23.744	56.0152
23.762	56.0527
23.78	56.1095
23.798	56.1832
23.816	56.2718
23.834	56.3765
23.852	56.4956
23.87	56.6261
23.888	56.769
23.906	56.9233
23.924	57.0859
23.942	57.257
23.96	57.4366
23.978	57.6215
23.996	57.8106
24.014	58.0049
24.032	58.2027
24.05	58.403
24.068	58.6066
24.086	58.8123
24.104	59.0191
24.122	59.2283
24.14	59.4379
24.158	59.6453
24.176	59.8527
24.194	60.0579
24.212	60.2558
24.23	60.4459
24.248	60.6296
24.266	60.8028
24.284	60.9642
24.302	61.1162
24.32	61.2537
24.338	61.3717
24.356	61.4747
24.374	61.5581
24.392	61.615
24.41	61.6484
24.428	61.6569
24.446	61.632
24.464	61.5713
24.482	61.4789
24.5	61.3467
24.518	61.1679
24.536	60.9474
24.554	60.6819
24.572	60.3658
24.59	59.9987
24.608	59.5826
24.626	59.1178
24.644	58.6027
24.662	58.0368
24.68	57.4272
24.698	56.7795
24.716	56.0857
24.734	55.3561
24.752	54.606
24.77	53.8324
24.788	53.0337
24.806	52.2301
24.824	51.4345
24.842	50.6326
24.86	49.8404
24.878	49.0777
24.896	48.3371
24.914	47.6203
24.932	46.945
24.95	46.3201
24.968	45.7349
24.986	45.2006
25.004	44.7297
25.022	44.3188
25.04	43.9665
25.058	43.6768
25.076	43.4533
25.094	43.2945
25.112	43.1947
25.13	43.1487
25.148	43.1634
25.166	43.2322
25.184	43.3411
25.202	43.4859
25.22	43.6758
25.238	43.8943
25.256	44.1247
25.274	44.3779
25.292	44.6483
25.31	44.9156
25.328	45.1689
25.346	45.4227
25.364	45.6616
25.382	45.8677
25.4	46.045
25.418	46.196
25.436	46.308
25.454	46.3709
25.472	46.392
25.49	46.3691
25.508	46.2976
25.526	46.1703
25.544	45.9901
25.562	45.773
25.58	45.533
25.598	45.2509
25.616	44.9421
25.634	44.6395
25.652	44.3594
25.67	44.0733
25.688	43.8147
25.706	43.6238
25.724	43.4977
25.742	43.4219
25.76	43.4325
25.778	43.5627
25.796	43.7923
25.814	44.1264
25.832	44.5889
25.85	45.198
25.868	45.9409
25.886	46.8161
25.904	47.8247
25.922	48.9754
25.94	50.2672
25.958	51.6765
25.976	53.18
25.994	54.8013
26.012	56.5303
26.03	58.3197
26.048	60.1304
26.066	62.0081
26.084	63.9213
26.102	65.8102
26.12	67.6401
26.138	69.4632
26.156	71.2343
26.174	72.895
26.192	74.4302
26.21	75.881
26.228	77.1988
26.246	78.3324
26.264	79.279
26.282	80.0623
26.3	80.6597
26.318	81.0491
26.336	81.2236
26.354	81.1987
26.372	80.9896
26.39	80.6089
26.408	80.0268
26.426	79.2681
26.444	78.3813
26.462	77.4031
26.48	76.278
26.498	75.0477
26.516	73.7834
26.534	72.5331
26.552	71.2276
26.57	69.9169
26.588	68.6749
26.606	67.5476
26.624	66.4731
26.642	65.4891
26.66	64.6479
26.678	63.9791
26.696	63.442
26.714	63.0578
26.732	62.8544
26.75	62.8507
26.768	63.0305
26.786	63.3881
26.804	63.9191
26.822	64.6267
26.84	65.5191
26.858	66.5751
26.876	67.7716
26.894	69.1011
26.912	70.5858
26.93	72.1998
26.948	73.9143
26.966	75.8173
26.984	78.0835
27.002	80.3127
27.02	82.0683
27.028	82.5312