File: Bakgrunnsmateriale/MATLAB/FTIR/ftir_data/subBb/Mapping_121/C-4040-8_t07_cm-1.asc
PE IR       SPECTRUM    SPECTRUM    ASCII       PEDS        1.60
  -1
C-99EF~1.ASC
17/03/27
15:03:15.00
17/03/27
15:03:15.00
tln
$C-4040-8_t0007$<tbV0>[-2.6,-13.0,8.0,0.0,27,1,0]
370
64

2002,4.07
MIRTGS : RIGHTBACK : INTERNAL 2
MIR : ON : INTERNAL 2
OPTKBR

0.200000
8
8.000000
FILLER
RATIO
SPECTRUM
UNLOCKED 256

DOUBLE
64
COMBINED
1
0
0

1.000000
RATIO

1
0
TRUE
51149
0
LEFT NOT FITTED RIGHT NOT FITTED 0
NONE
NONE
15600
12
4.427000
51148
TRUE
1 0 8 72 0 0 0 0

15798

#HDR
-1
-1
#GR
CM-1
%T
2.38419e-05
0.0
5000
-1.000000
4631
8
70.9545
15.7247
#DATA
5000	64.2411
4996	63.9374
4992	64.2513
4988	64.6139
4984	64.4328
4980	64.1906
4976	63.9105
4972	63.7657
4968	63.9436
4964	63.4852
4960	62.9997
4956	63.5576
4952	64.1791
4948	63.9578
4944	62.915
4940	62.3677
4936	63.309
4932	64.262
4928	63.9485
4924	63.6764
4920	64.1361
4916	64.5597
4912	64.9343
4908	65.0875
4904	65.0269
4900	65.0724
4896	64.9851
4892	64.9518
4888	65.2035
4884	65.2835
4880	64.7272
4876	64.0873
4872	63.9568
4868	64.0911
4864	64.2296
4860	64.208
4856	64.0617
4852	63.9693
4848	64.1516
4844	64.4362
4840	64.5613
4836	64.7275
4832	64.6816
4828	64.3159
4824	64.1517
4820	64.1468
4816	63.9893
4812	63.8717
4808	63.904
4804	63.9422
4800	63.9667
4796	63.9025
4792	63.853
4788	64.0492
4784	64.1474
4780	64.0275
4776	63.9901
4772	63.9522
4768	63.8699
4764	63.7896
4760	63.6791
4756	63.7385
4752	63.925
4748	63.9769
4744	64.0248
4740	64.0389
4736	63.8984
4732	63.7691
4728	63.7397
4724	63.7698
4720	63.7022
4716	63.5881
4712	63.5939
4708	63.6538
4704	63.7059
4700	63.7896
4696	63.8485
4692	63.8715
4688	64.0187
4684	64.1662
4680	64.1124
4676	63.8857
4672	63.6389
4668	63.6554
4664	63.9479
4660	64.3496
4656	64.5634
4652	64.3297
4648	64.0216
4644	63.9575
4640	64.0554
4636	64.1734
4632	64.1333
4628	64.0192
4624	64.0608
4620	64.2802
4616	64.4239
4612	64.2902
4608	64.1192
4604	64.0989
4600	64.0798
4596	64.0808
4592	64.1347
4588	64.2554
4584	64.4464
4580	64.565
4576	64.5921
4572	64.5179
4568	64.5012
4564	64.6325
4560	64.6462
4556	64.4135
4552	64.0273
4548	63.918
4544	63.968
4540	63.7772
4536	63.8011
4532	64.0539
4528	64.255
4524	64.4335
4520	64.6536
4516	64.9391
4512	64.9816
4508	64.9089
4504	64.9865
4500	64.9087
4496	64.7919
4492	64.7084
4488	64.5707
4484	64.4264
4480	64.6695
4476	64.7936
4472	64.5337
4468	64.7841
4464	65.3313
4460	65.7446
4456	66.2703
4452	68.3322
4448	70.7022
4444	70.4079
4440	67.3343
4436	63.4129
4432	62.4732
4428	63.8013
4424	64.2977
4420	64.3708
4416	63.6149
4412	62.2085
4408	61.0009
4404	59.1032
4400	56.1254
4396	55.441
4392	53.622
4388	49.7043
4384	55.5741
4380	65.0268
4376	66.9795
4372	66.4235
4368	66.3072
4364	66.0776
4360	65.6812
4356	65.046
4352	64.6807
4348	64.6577
4344	64.5313
4340	64.4505
4336	64.4485
4332	64.2764
4328	64.2362
4324	64.4193
4320	64.5443
4316	64.5407
4312	64.4693
4308	64.2774
4304	64.1395
4300	64.3208
4296	64.4832
4292	64.3855
4288	64.251
4284	64.309
4280	64.4656
4276	64.3178
4272	63.9949
4268	63.8851
4264	64.0882
4260	64.4285
4256	64.5161
4252	64.3381
4248	64.1467
4244	63.9947
4240	63.9439
4236	64.0153
4232	63.9942
4228	63.8211
4224	63.7593
4220	63.9185
4216	64.0878
4212	64.1115
4208	63.942
4204	63.6695
4200	63.6857
4196	63.9719
4192	63.9868
4188	63.8124
4184	63.6624
4180	63.4394
4176	63.2787
4172	63.2884
4168	63.5991
4164	63.9669
4160	63.9773
4156	63.8263
4152	63.7285
4148	63.6323
4144	63.6652
4140	63.8917
4136	64.0289
4132	64.0236
4128	64.0182
4124	63.876
4120	63.7099
4116	63.7056
4112	63.5501
4108	63.2815
4104	63.2633
4100	63.4511
4096	63.6893
4092	63.9213
4088	63.951
4084	63.8349
4080	63.8813
4076	63.8402
4072	63.6375
4068	63.6929
4064	63.8993
4060	63.9762
4056	63.9105
4052	63.7671
4048	63.6634
4044	63.7279
4040	63.9193
4036	64.0744
4032	64.0871
4028	63.9218
4024	63.8619
4020	64.0803
4016	64.2848
4012	64.3248
4008	64.2818
4004	64.1788
4000	64.0927
3996	64.0742
3992	63.9794
3988	63.8116
3984	63.6674
3980	63.5817
3976	63.6391
3972	63.7588
3968	63.8676
3964	63.9346
3960	63.8478
3956	63.734
3952	63.7226
3948	63.7568
3944	63.7602
3940	63.705
3936	63.7298
3932	63.8183
3928	63.8268
3924	63.7662
3920	63.7201
3916	63.773
3912	63.81
3908	63.7901
3904	63.8119
3900	63.8251
3896	63.8584
3892	63.9472
3888	64.0011
3884	63.9275
3880	63.7412
3876	63.7436
3872	63.9692
3868	64.0394
3864	63.9482
3860	63.9889
3856	64.2387
3852	64.3183
3848	64.1393
3844	64.0274
3840	63.9811
3836	63.9158
3832	63.8477
3828	63.7143
3824	63.4974
3820	63.5024
3816	63.7356
3812	63.8668
3808	63.9376
3804	64.0743
3800	64.0899
3796	63.8796
3792	63.6872
3788	63.6318
3784	63.5657
3780	63.5312
3776	63.6229
3772	63.6739
3768	63.6765
3764	63.7242
3760	63.7726
3756	63.8647
3752	63.9824
3748	64.0296
3744	64.003
3740	63.947
3736	63.9262
3732	63.8802
3728	63.8225
3724	63.8808
3720	63.9364
3716	63.9388
3712	63.893
3708	63.7083
3704	63.5759
3700	63.536
3696	63.5002
3692	63.5521
3688	63.5309
3684	63.4366
3680	63.5838
3676	63.8296
3672	63.8141
3668	63.6073
3664	63.4604
3660	63.451
3656	63.5035
3652	63.6341
3648	63.6693
3644	63.4258
3640	63.2278
3636	63.3001
3632	63.4846
3628	63.5412
3624	63.4981
3620	63.4996
3616	63.511
3612	63.4825
3608	63.3305
3604	63.1637
3600	63.1706
3596	63.3398
3592	63.5837
3588	63.6612
3584	63.4539
3580	63.2581
3576	63.179
3572	63.1083
3568	63.1755
3564	63.3514
3560	63.3679
3556	63.2466
3552	63.2269
3548	63.1966
3544	63.0589
3540	63.0612
3536	63.241
3532	63.3517
3528	63.2833
3524	63.191
3520	63.1679
3516	63.1114
3512	62.9496
3508	62.8702
3504	63.0078
3500	63.1923
3496	63.3058
3492	63.2173
3488	63.0047
3484	62.9956
3480	63.0512
3476	63.1222
3472	63.3872
3468	63.4922
3464	63.3216
3460	63.2218
3456	63.1897
3452	63.2058
3448	63.2999
3444	63.3358
3440	63.3118
3436	63.2626
3432	63.1904
3428	63.0848
3424	62.964
3420	62.9349
3416	63.006
3412	63.0948
3408	63.1093
3404	63.0671
3400	63.0877
3396	63.0839
3392	62.9658
3388	62.9017
3384	62.9776
3380	63.0487
3376	62.9985
3372	62.9079
3368	62.9568
3364	63.0265
3360	62.9331
3356	62.8346
3352	62.7753
3348	62.7108
3344	62.7013
3340	62.7647
3336	62.9097
3332	63.0383
3328	63.0303
3324	62.8981
3320	62.7762
3316	62.8034
3312	62.8686
3308	62.8471
3304	62.8256
3300	62.8215
3296	62.8293
3292	62.9098
3288	62.9318
3284	62.7651
3280	62.6768
3276	62.7365
3272	62.684
3268	62.601
3264	62.5672
3260	62.5468
3256	62.5649
3252	62.5093
3248	62.4054
3244	62.3454
3240	62.3173
3236	62.3846
3232	62.5279
3228	62.6445
3224	62.7234
3220	62.7557
3216	62.6642
3212	62.5866
3208	62.6934
3204	62.7527
3200	62.6109
3196	62.3865
3192	62.2646
3188	62.3784
3184	62.5532
3180	62.5637
3176	62.3974
3172	62.2306
3168	62.2828
3164	62.3846
3160	62.3767
3156	62.4158
3152	62.4592
3148	62.4277
3144	62.3391
3140	62.29
3136	62.3375
3132	62.3698
3128	62.4051
3124	62.4389
3120	62.457
3116	62.4885
3112	62.4471
3108	62.368
3104	62.3189
3100	62.2899
3096	62.252
3092	62.1675
3088	62.1438
3084	62.2208
3080	62.2953
3076	62.2768
3072	62.2025
3068	62.2212
3064	62.3165
3060	62.3631
3056	62.2901
3052	62.2155
3048	62.2306
3044	62.2183
3040	62.1373
3036	62.0815
3032	62.1023
3028	62.1224
3024	62.166
3020	62.3031
3016	62.3705
3012	62.2542
3008	62.097
3004	62.0104
3000	61.9918
2996	62.0026
2992	61.9851
2988	61.9696
2984	61.9562
2980	61.9211
2976	61.9269
2972	61.9426
2968	61.9097
2964	61.8688
2960	61.816
2956	61.7393
2952	61.7298
2948	61.7727
2944	61.7893
2940	61.7612
2936	61.7118
2932	61.6571
2928	61.5835
2924	61.5105
2920	61.496
2916	61.5499
2912	61.5703
2908	61.5728
2904	61.5897
2900	61.569
2896	61.5574
2892	61.5935
2888	61.6333
2884	61.6945
2880	61.7337
2876	61.6667
2872	61.5989
2868	61.5804
2864	61.5756
2860	61.6055
2856	61.5559
2852	61.4362
2848	61.4666
2844	61.6071
2840	61.6251
2836	61.5193
2832	61.486
2828	61.5798
2824	61.7127
2820	61.7651
2816	61.6395
2812	61.4766
2808	61.4856
2804	61.5593
2800	61.5265
2796	61.43
2792	61.3825
2788	61.397
2784	61.3924
2780	61.3143
2776	61.2605
2772	61.2693
2768	61.2724
2764	61.2984
2760	61.3563
2756	61.3764
2752	61.3604
2748	61.3299
2744	61.2998
2740	61.3149
2736	61.3337
2732	61.3105
2728	61.2839
2724	61.2396
2720	61.1562
2716	61.1227
2712	61.1346
2708	61.1032
2704	61.0479
2700	61.0208
2696	61.0203
2692	61.0041
2688	61.0003
2684	61.0395
2680	61.0588
2676	61.056
2672	61.052
2668	61.0179
2664	60.9758
2660	60.9389
2656	60.899
2652	60.8923
2648	60.9206
2644	60.8832
2640	60.8096
2636	60.7915
2632	60.8015
2628	60.8486
2624	60.8618
2620	60.7491
2616	60.6642
2612	60.7193
2608	60.7736
2604	60.8011
2600	60.79
2596	60.7028
2592	60.6833
2588	60.6699
2584	60.584
2580	60.5477
2576	60.5206
2572	60.4792
2568	60.4851
2564	60.5005
2560	60.5147
2556	60.5574
2552	60.5918
2548	60.5919
2544	60.5574
2540	60.5206
2536	60.5012
2532	60.4975
2528	60.5116
2524	60.5349
2520	60.5483
2516	60.492
2512	60.4012
2508	60.3819
2504	60.3647
2500	60.2645
2496	60.2084
2492	60.2391
2488	60.2633
2484	60.28
2480	60.3256
2476	60.3861
2472	60.3789
2468	60.3129
2464	60.2642
2460	60.1811
2456	60.086
2452	60.125
2448	60.2532
2444	60.3166
2440	60.2898
2436	60.2048
2432	60.0696
2428	59.9286
2424	59.8732
2420	59.9713
2416	60.0813
2412	60.0421
2408	59.9787
2404	59.9441
2400	59.9135
2396	59.9407
2392	59.9796
2388	59.9563
2384	59.8711
2380	59.8248
2376	59.8487
2372	59.8362
2368	59.843
2364	59.9218
2360	59.9315
2356	59.8657
2352	59.8197
2348	59.7421
2344	59.6231
2340	59.6169
2336	59.7079
2332	59.7119
2328	59.6454
2324	59.626
2320	59.641
2316	59.6268
2312	59.5676
2308	59.5371
2304	59.559
2300	59.5479
2296	59.4721
2292	59.397
2288	59.3968
2284	59.4339
2280	59.4353
2276	59.4025
2272	59.3573
2268	59.3601
2264	59.4346
2260	59.4429
2256	59.3697
2252	59.3261
2248	59.2664
2244	59.2137
2240	59.2317
2236	59.2628
2232	59.2785
2228	59.2409
2224	59.1642
2220	59.1719
2216	59.1977
2212	59.1276
2208	59.0608
2204	59.0487
2200	59.0732
2196	59.1349
2192	59.1566
2188	59.109
2184	59.0838
2180	59.0811
2176	59.0538
2172	58.9891
2168	58.9389
2164	59.018
2160	59.1039
2156	59.0408
2152	58.9093
2148	58.8369
2144	58.8533
2140	58.8854
2136	58.8517
2132	58.7623
2128	58.6967
2124	58.6714
2120	58.7179
2116	58.8083
2112	58.8014
2108	58.7159
2104	58.6396
2100	58.6002
2096	58.5839
2092	58.604
2088	58.7145
2084	58.8022
2080	58.7472
2076	58.602
2072	58.4659
2068	58.3758
2064	58.2849
2060	58.2372
2056	58.291
2052	58.3242
2048	58.3164
2044	58.398
2040	58.4542
2036	58.392
2032	58.3222
2028	58.2437
2024	58.2121
2020	58.2559
2016	58.3007
2012	58.3317
2008	58.2884
2004	58.1778
2000	58.1313
1996	58.1532
1992	58.152
1988	58.1234
1984	58.0758
1980	58.0212
1976	57.9647
1972	57.9381
1968	58.0028
1964	58.0472
1960	57.9965
1956	57.9517
1952	57.9264
1948	57.9026
1944	57.8991
1940	57.8838
1936	57.884
1932	57.9288
1928	57.9318
1924	57.8988
1920	57.8801
1916	57.8427
1912	57.8002
1908	57.7567
1904	57.7128
1900	57.7275
1896	57.765
1892	57.7044
1888	57.5869
1884	57.5565
1880	57.6061
1876	57.629
1872	57.578
1868	57.5269
1864	57.4924
1860	57.4329
1856	57.404
1852	57.436
1848	57.4721
1844	57.4413
1840	57.3299
1836	57.2689
1832	57.3632
1828	57.4529
1824	57.3984
1820	57.2915
1816	57.2568
1812	57.2559
1808	57.2266
1804	57.2379
1800	57.2748
1796	57.2973
1792	57.2812
1788	57.2085
1784	57.1381
1780	57.0724
1776	57.0686
1772	57.138
1768	57.1201
1764	57.0596
1760	57.0738
1756	57.1289
1752	57.1336
1748	56.9925
1744	56.8214
1740	56.7999
1736	56.8803
1732	56.8741
1728	56.7378
1724	56.6723
1720	56.8909
1716	57.1013
1712	56.9245
1708	56.7579
1704	56.8998
1700	57.0553
1696	56.9656
1692	56.7708
1688	56.7868
1684	56.8373
1680	56.7219
1676	56.6624
1672	56.6399
1668	56.5602
1664	56.5022
1660	56.5754
1656	56.8341
1652	56.9692
1648	56.8302
1644	56.6332
1640	56.4966
1636	56.4373
1632	56.3904
1628	56.3593
1624	56.391
1620	56.4583
1616	56.4372
1612	56.2694
1608	56.125
1604	56.0542
1600	56.0339
1596	56.0927
1592	56.135
1588	56.0956
1584	56.0334
1580	56.0198
1576	56.0192
1572	55.9621
1568	55.9055
1564	55.9914
1560	56.1824
1556	56.2148
1552	56.0881
1548	56.0203
1544	56.0676
1540	56.0559
1536	55.9104
1532	55.8093
1528	55.8435
1524	55.9271
1520	55.9141
1516	55.7862
1512	55.7855
1508	55.9874
1504	56.0746
1500	55.9504
1496	55.7427
1492	55.5557
1488	55.4807
1484	55.4827
1480	55.521
1476	55.5401
1472	55.4601
1468	55.3159
1464	55.2577
1460	55.3391
1456	55.3877
1452	55.3136
1448	55.2052
1444	55.0473
1440	54.9561
1436	55.0254
1432	55.0758
1428	55.0661
1424	55.1041
1420	55.0981
1416	54.9649
1412	54.8661
1408	54.9141
1404	54.9931
1400	54.9479
1396	54.8709
1392	54.886
1388	54.8819
1384	54.7858
1380	54.6978
1376	54.6905
1372	54.6989
1368	54.6598
1364	54.6379
1360	54.6257
1356	54.5668
1352	54.4916
1348	54.496
1344	54.5834
1340	54.6232
1336	54.6148
1332	54.593
1328	54.5377
1324	54.4667
1320	54.3961
1316	54.3285
1312	54.2964
1308	54.2812
1304	54.2471
1300	54.215
1296	54.1939
1292	54.1802
1288	54.187
1284	54.1742
1280	54.0817
1276	53.9625
1272	53.9335
1268	54.0032
1264	54.0635
1260	54.0359
1256	53.9933
1252	53.9579
1248	53.8954
1244	53.8411
1240	53.8061
1236	53.8311
1232	53.9091
1228	53.9268
1224	53.8809
1220	53.8351
1216	53.769
1212	53.7066
1208	53.6916
1204	53.7261
1200	53.7817
1196	53.777
1192	53.7431
1188	53.7135
1184	53.6332
1180	53.5277
1176	53.4296
1172	53.3675
1168	53.3868
1164	53.4974
1160	53.6067
1156	53.5439
1152	53.4017
1148	53.3445
1144	53.2629
1140	53.1149
1136	53.0339
1132	53.0715
1128	53.1526
1124	53.1974
1120	53.1851
1116	53.1743
1112	53.2135
1108	53.2233
1104	53.1959
1100	53.1548
1096	53.0567
1092	52.9894
1088	52.8951
1084	52.76
1080	52.7643
1076	52.8096
1072	52.8064
1068	52.7823
1064	52.747
1060	52.7426
1056	52.7008
1052	52.6327
1048	52.5711
1044	52.5899
1040	52.6514
1036	52.4952
1032	52.3814
1028	52.5668
1024	52.7952
1020	52.8349
1016	52.6704
1012	52.5561
1008	52.5081
1004	52.4634
1000	52.4939
996	 52.4324
992	 52.3041
988	 52.3139
984	 52.3679
980	 52.3067
976	 52.1679
972	 52.1049
968	 52.1137
964	 52.0183
960	 51.9384
956	 51.9635
952	 51.9829
948	 51.9767
944	 51.9286
940	 51.9061
936	 51.9372
932	 51.9455
928	 51.8709
924	 51.6755
920	 51.4683
916	 51.5138
912	 51.7209
908	 51.6589
904	 51.4567
900	 51.5944
896	 51.8685
892	 51.6604
888	 51.0109
884	 50.5765
880	 50.5675
876	 50.666
872	 50.8191
868	 51.0376
864	 51.0149
860	 50.9466
856	 51.1693
852	 51.2114
848	 51.0046
844	 50.9116
840	 50.7726
836	 50.6681
832	 50.6851
828	 50.5731
824	 50.2532
820	 50.1135
816	 50.4096
812	 50.623
808	 50.4853
804	 50.2795
800	 50.1517
796	 50.1568
792	 50.378
788	 50.6189
784	 50.7069
780	 50.7469
776	 50.7043
772	 50.4719
768	 50.2585
764	 50.1481
760	 50.0695
756	 50.063
752	 50.0943
748	 50.2288
744	 50.2645
740	 49.9342
736	 49.5559
732	 49.5071
728	 49.6732
724	 49.6502
720	 49.3937
716	 49.3057
712	 49.4719
708	 49.5107
704	 49.2916
700	 49.1179
696	 49.1482
692	 49.2004
688	 49.2272
684	 49.1583
680	 48.9311
676	 48.6698
672	 48.4701
668	 48.4466
664	 48.4371
660	 48.3748
656	 48.5414
652	 48.7511
648	 48.6937
644	 48.4792
640	 48.2996
636	 48.3823
632	 48.4935
628	 48.3011
624	 48.1055
620	 48.0085
616	 47.9892
612	 48.0868
608	 47.8307
604	 47.1648
600	 46.8399
596	 47.1729
592	 47.5708
588	 47.5902
584	 47.5058
580	 47.3441
576	 47.1582
572	 47.14
568	 46.9718
564	 46.7285
560	 46.7329
556	 46.7388
552	 46.5428
548	 46.3044
544	 46.1452
540	 46.0539
536	 46.0311
532	 46.2126
528	 46.2285
524	 45.6192
520	 45.0627
516	 45.0688
512	 45.3578
508	 45.4031
504	 45.0918
500	 45.1159
496	 45.4806
492	 45.7079
488	 45.7247
484	 45.4694
480	 44.8527
476	 44.1643
472	 43.9532
468	 44.2013
464	 44.452
460	 44.1838
456	 43.8225
452	 43.4222
448	 42.9547
444	 43.3747
440	 43.1447
436	 42.7198
432	 42.9523
428	 41.9679
424	 41.9743
420	 43.6932
416	 44.0962
412	 44.2048
408	 45.8145
404	 45.133
400	 38.4662
396	 33.5446
392	 36.1257
388	 43.3558
384	 57.1105
380	 65.1857
376	 51.3497
372	 22.523
370	 15.7247