File: Bakgrunnsmateriale/MATLAB/FTIR/ftir_data/subBb/Mapping_121/C-4040-8_t69_cm-1.asc
PE IR       SPECTRUM    SPECTRUM    ASCII       PEDS        1.60
  -1
C-9CE0~1.ASC
17/03/27
20:12:02.00
17/03/27
20:12:02.00
tln
$C-4040-8_t0069$<tbV0>[7.8,2.6,8.0,0.0,27,1,0]
370
64

2002,4.07
MIRTGS : RIGHTBACK : INTERNAL 2
MIR : ON : INTERNAL 2
OPTKBR

0.200000
8
8.000000
FILLER
RATIO
SPECTRUM
UNLOCKED 256

DOUBLE
64
COMBINED
1
0
0

1.000000
RATIO

1
0
TRUE
51149
0
LEFT NOT FITTED RIGHT NOT FITTED 0
NONE
NONE
15600
12
4.427000
51148
TRUE
1 0 8 72 0 0 0 0

15798

#HDR
-1
-1
#GR
CM-1
%T
2.38419e-05
0.0
5000
-1.000000
4631
8
82.1178
48.128
#DATA
5000	65.1887
4996	65.2477
4992	65.2332
4988	65.2114
4984	65.3427
4980	65.3886
4976	65.0783
4972	64.7199
4968	64.4523
4964	64.2699
4960	64.4395
4956	64.9045
4952	65.2236
4948	65.2225
4944	64.9227
4940	64.6572
4936	64.6471
4932	64.6964
4928	64.7756
4924	64.8559
4920	64.896
4916	64.9337
4912	65.0099
4908	65.1132
4904	65.2232
4900	65.2848
4896	65.2141
4892	65.0319
4888	64.7874
4884	65.121
4880	66.3094
4876	66.97
4872	66.3588
4868	65.465
4864	64.8975
4860	64.7287
4856	64.9897
4852	65.0355
4848	64.6462
4844	64.5066
4840	64.8032
4836	65.0958
4832	65.1248
4828	64.9939
4824	64.9758
4820	65.0771
4816	65.0442
4812	65.0452
4808	65.1161
4804	65.0088
4800	64.8514
4796	64.8028
4792	64.7113
4788	64.6763
4784	64.9036
4780	64.9796
4776	64.8509
4772	64.8905
4768	64.9009
4764	64.8357
4760	64.911
4756	64.9126
4752	64.8865
4748	65.0554
4744	65.1517
4740	65.1809
4736	65.1931
4732	65.0764
4728	65.0693
4724	65.0589
4720	64.9711
4716	64.93
4712	64.9284
4708	65.0461
4704	65.0204
4700	64.8529
4696	64.77
4692	64.7571
4688	64.9415
4684	65.2362
4680	65.3626
4676	65.2374
4672	65.132
4668	65.2721
4664	65.2924
4660	65.0569
4656	64.9558
4652	65.1226
4648	65.2597
4644	65.0951
4640	64.8694
4636	65.0046
4632	65.2784
4628	65.2187
4624	65.0122
4620	64.8575
4616	64.806
4612	65.0414
4608	65.232
4604	65.0889
4600	64.8466
4596	64.7607
4592	65.0681
4588	65.4309
4584	65.2487
4580	64.9264
4576	64.9065
4572	64.8985
4568	64.8537
4564	64.8849
4560	64.9465
4556	64.8645
4552	64.7668
4548	64.9561
4544	65.0945
4540	65.1184
4536	65.0858
4532	64.8639
4528	64.881
4524	65.0656
4520	65.0978
4516	65.0814
4512	64.905
4508	64.6474
4504	64.6726
4500	64.9272
4496	65.0179
4492	64.9466
4488	65.0418
4484	65.2042
4480	65.0663
4476	64.8453
4472	64.8228
4468	64.76
4464	64.607
4460	64.4814
4456	64.3875
4452	64.2207
4448	64.0153
4444	64.2417
4440	64.904
4436	65.1959
4432	65.0439
4428	65.0147
4424	64.9918
4420	64.9291
4416	64.8751
4412	64.5693
4408	63.9117
4404	63.4614
4400	63.5792
4396	64.3165
4392	64.485
4388	64.9985
4384	76.7541
4380	78.8075
4376	65.4084
4372	62.3431
4368	62.5787
4364	63.1514
4360	63.6413
4356	63.635
4352	64.0205
4348	64.3586
4344	64.8766
4340	65.228
4336	65.0908
4332	65.0647
4328	65.3765
4324	65.6202
4320	65.7213
4316	65.6512
4312	65.3335
4308	65.0331
4304	64.8854
4300	64.8911
4296	65.1046
4292	65.2218
4288	65.1125
4284	65.0351
4280	65.0383
4276	64.9421
4272	64.7148
4268	64.3689
4264	64.2885
4260	64.7665
4256	65.1869
4252	65.2471
4248	65.2442
4244	65.2195
4240	65.0109
4236	64.7946
4232	64.8041
4228	64.7655
4224	64.6081
4220	64.5972
4216	64.6634
4212	64.7474
4208	64.9905
4204	65.2484
4200	65.0838
4196	64.6833
4192	64.675
4188	65.1379
4184	65.5885
4180	65.3474
4176	64.935
4172	65.3379
4168	65.7182
4164	65.4087
4160	65.0906
4156	65.0133
4152	64.9844
4148	64.9213
4144	64.9984
4140	65.2062
4136	65.1722
4132	65.0086
4128	65.0108
4124	65.0864
4120	65.0561
4116	64.9725
4112	64.9146
4108	64.9471
4104	65.051
4100	65.0375
4096	65.0215
4092	65.0228
4088	65.0362
4084	65.1406
4080	65.0869
4076	64.8771
4072	64.783
4068	64.8294
4064	64.9163
4060	65.0436
4056	65.1626
4052	65.1382
4048	64.9649
4044	64.9151
4040	65.0733
4036	65.1499
4032	65.0887
4028	65.0954
4024	65.1198
4020	65.0239
4016	64.9831
4012	65.0985
4008	65.2249
4004	65.1692
4000	65.0544
3996	65.0552
3992	65.1191
3988	65.2108
3984	65.1953
3980	65.2208
3976	65.3385
3972	65.2166
3968	65.0542
3964	65.1109
3960	65.1687
3956	65.1428
3952	65.0914
3948	65.0526
3944	65.1208
3940	65.252
3936	65.2801
3932	65.1923
3928	65.0981
3924	65.0719
3920	65.1619
3916	65.3033
3912	65.326
3908	65.1464
3904	64.9778
3900	65.0167
3896	65.0751
3892	65.0893
3888	65.1101
3884	65.0582
3880	65.0082
3876	65.0311
3872	65.101
3868	65.1461
3864	65.1025
3860	64.9464
3856	64.787
3852	64.841
3848	65.0194
3844	65.1424
3840	65.1874
3836	65.155
3832	65.1208
3828	65.0429
3824	64.9528
3820	65.0852
3816	65.1999
3812	65.1193
3808	65.0822
3804	65.0595
3800	65.0271
3796	65.0719
3792	65.1781
3788	65.2444
3784	65.2134
3780	65.0967
3776	65.0107
3772	65.0981
3768	65.207
3764	65.1835
3760	65.1372
3756	65.1831
3752	65.2261
3748	65.2266
3744	65.2982
3740	65.3418
3736	65.2389
3732	65.1262
3728	65.1096
3724	65.1443
3720	65.1962
3716	65.2204
3712	65.1887
3708	65.153
3704	65.0945
3700	65.0239
3696	65.029
3692	65.0865
3688	65.1557
3684	65.2689
3680	65.308
3676	65.1709
3672	65.0329
3668	65.0591
3664	65.2152
3660	65.2976
3656	65.2444
3652	65.1957
3648	65.2152
3644	65.2829
3640	65.3093
3636	65.2819
3632	65.2611
3628	65.256
3624	65.2483
3620	65.2717
3616	65.34
3612	65.2718
3608	65.106
3604	65.0982
3600	65.1872
3596	65.2136
3592	65.1538
3588	65.158
3584	65.3074
3580	65.3848
3576	65.3445
3572	65.274
3568	65.1519
3564	65.0239
3560	64.9472
3556	64.9421
3552	65.0154
3548	65.1428
3544	65.2884
3540	65.3228
3536	65.2401
3532	65.232
3528	65.2695
3524	65.194
3520	65.1519
3516	65.2013
3512	65.1484
3508	65.1231
3504	65.2459
3500	65.2811
3496	65.2349
3492	65.2388
3488	65.1861
3484	65.1165
3480	65.1941
3476	65.3368
3472	65.3715
3468	65.3288
3464	65.295
3460	65.2381
3456	65.1913
3452	65.2147
3448	65.2645
3444	65.3246
3440	65.3633
3436	65.3325
3432	65.1732
3428	64.9354
3424	64.8669
3420	65.0445
3416	65.2809
3412	65.3099
3408	65.1533
3404	65.0098
3400	64.9527
3396	65.0321
3392	65.0655
3388	64.9988
3384	65.0388
3380	65.0951
3376	65.1214
3372	65.1299
3368	65.0702
3364	65.0625
3360	65.0865
3356	65.02
3352	64.9324
3348	64.9888
3344	65.1901
3340	65.3712
3336	65.4052
3332	65.3257
3328	65.2345
3324	65.2096
3320	65.2513
3316	65.2491
3312	65.2004
3308	65.1393
3304	65.0798
3300	65.1147
3296	65.1796
3292	65.1914
3288	65.2189
3284	65.2133
3280	65.1511
3276	65.1158
3272	65.1149
3268	65.1717
3264	65.2644
3260	65.309
3256	65.3095
3252	65.288
3248	65.2719
3244	65.251
3240	65.2126
3236	65.2228
3232	65.1704
3228	65.0431
3224	64.9954
3220	65.0111
3216	65.0772
3212	65.1376
3208	65.0987
3204	65.0224
3200	65.002
3196	65.0329
3192	65.1004
3188	65.1504
3184	65.1652
3180	65.117
3176	65.0196
3172	65.0641
3168	65.1914
3164	65.183
3160	65.111
3156	65.0981
3152	65.1341
3148	65.283
3144	65.5182
3140	65.5433
3136	65.3145
3132	65.1358
3128	65.0483
3124	65.0612
3120	65.1915
3116	65.2744
3112	65.2983
3108	65.1926
3104	65.0945
3100	65.2565
3096	65.3961
3092	65.3435
3088	65.2644
3084	65.2155
3080	65.1967
3076	65.1776
3072	65.197
3068	65.263
3064	65.2139
3060	65.119
3056	65.1454
3052	65.1433
3048	65.0344
3044	64.9579
3040	64.9855
3036	65.1011
3032	65.2202
3028	65.236
3024	65.1884
3020	65.1654
3016	65.1755
3012	65.2208
3008	65.2837
3004	65.3295
3000	65.2966
2996	65.2325
2992	65.2171
2988	65.2236
2984	65.2345
2980	65.1741
2976	65.0617
2972	65.0219
2968	65.0001
2964	64.9238
2960	64.8746
2956	64.8873
2952	64.922
2948	64.9783
2944	65.0328
2940	65.0286
2936	65.0108
2932	65.0108
2928	64.9362
2924	64.7901
2920	64.6915
2916	64.7505
2912	64.8872
2908	64.9691
2904	65.0288
2900	65.0846
2896	65.1409
2892	65.1815
2888	65.1642
2884	65.1263
2880	65.0739
2876	65.052
2872	65.0987
2868	65.1639
2864	65.2722
2860	65.3555
2856	65.3323
2852	65.3081
2848	65.2632
2844	65.1283
2840	65.0316
2836	65.0659
2832	65.0875
2828	65.0804
2824	65.154
2820	65.2251
2816	65.2364
2812	65.1914
2808	65.1348
2804	65.1353
2800	65.1489
2796	65.1459
2792	65.196
2788	65.276
2784	65.3095
2780	65.3073
2776	65.3141
2772	65.3494
2768	65.3604
2764	65.3404
2760	65.3233
2756	65.3206
2752	65.3131
2748	65.3092
2744	65.3297
2740	65.3066
2736	65.3111
2732	65.3699
2728	65.3617
2724	65.336
2720	65.3555
2716	65.3961
2712	65.3813
2708	65.2901
2704	65.2353
2700	65.2334
2696	65.2218
2692	65.2171
2688	65.2087
2684	65.1673
2680	65.1938
2676	65.2807
2672	65.294
2668	65.2597
2664	65.213
2660	65.1887
2656	65.2366
2652	65.2753
2648	65.25
2644	65.22
2640	65.2784
2636	65.3533
2632	65.3161
2628	65.2622
2624	65.3168
2620	65.3537
2616	65.3002
2612	65.2869
2608	65.265
2604	65.206
2600	65.1556
2596	65.1065
2592	65.1447
2588	65.2372
2584	65.2895
2580	65.3479
2576	65.3848
2572	65.3201
2568	65.2404
2564	65.2233
2560	65.235
2556	65.2668
2552	65.3055
2548	65.309
2544	65.2692
2540	65.233
2536	65.2584
2532	65.2705
2528	65.234
2524	65.2879
2520	65.3701
2516	65.3339
2512	65.2829
2508	65.2261
2504	65.0522
2500	65.0041
2496	65.2183
2492	65.3518
2488	65.3066
2484	65.2647
2480	65.2858
2476	65.3522
2472	65.3672
2468	65.2924
2464	65.2584
2460	65.3047
2456	65.3413
2452	65.3339
2448	65.3063
2444	65.3183
2440	65.4165
2436	65.5393
2432	65.5606
2428	65.4301
2424	65.213
2420	65.0299
2416	65.0762
2412	65.3318
2408	65.4749
2404	65.4
2400	65.2673
2396	65.1988
2392	65.2252
2388	65.2693
2384	65.2601
2380	65.2955
2376	65.3616
2372	65.3352
2368	65.2797
2364	65.2599
2360	65.2841
2356	65.2838
2352	65.1976
2348	65.1279
2344	65.1227
2340	65.1477
2336	65.2127
2332	65.312
2328	65.3055
2324	65.2265
2320	65.2231
2316	65.2352
2312	65.2424
2308	65.2671
2304	65.2938
2300	65.2942
2296	65.2556
2292	65.2128
2288	65.2262
2284	65.2756
2280	65.283
2276	65.2672
2272	65.2354
2268	65.2094
2264	65.2475
2260	65.2914
2256	65.2883
2252	65.2874
2248	65.3197
2244	65.3597
2240	65.3767
2236	65.3422
2232	65.2971
2228	65.3187
2224	65.3304
2220	65.2911
2216	65.2759
2212	65.2641
2208	65.251
2204	65.2603
2200	65.2783
2196	65.3172
2192	65.3475
2188	65.3357
2184	65.3243
2180	65.3444
2176	65.3757
2172	65.366
2168	65.3227
2164	65.2939
2160	65.2551
2156	65.1534
2152	65.0376
2148	65.0447
2144	65.1539
2140	65.2465
2136	65.3152
2132	65.3785
2128	65.4142
2124	65.3877
2120	65.3164
2116	65.2352
2112	65.2435
2108	65.3267
2104	65.3385
2100	65.3201
2096	65.3176
2092	65.3286
2088	65.3897
2084	65.4935
2080	65.5668
2076	65.4944
2072	65.3087
2068	65.181
2064	65.1766
2060	65.2276
2056	65.2693
2052	65.2929
2048	65.2552
2044	65.205
2040	65.2109
2036	65.2248
2032	65.285
2028	65.3244
2024	65.2557
2020	65.2681
2016	65.3961
2012	65.4391
2008	65.4038
2004	65.3712
2000	65.3187
1996	65.3021
1992	65.3114
1988	65.2827
1984	65.2519
1980	65.2299
1976	65.2076
1972	65.2427
1968	65.3317
1964	65.3284
1960	65.273
1956	65.2543
1952	65.2556
1948	65.2684
1944	65.258
1940	65.2751
1936	65.3113
1932	65.3306
1928	65.3885
1924	65.4242
1920	65.3765
1916	65.3598
1912	65.3684
1908	65.3271
1904	65.2704
1900	65.2331
1896	65.2736
1892	65.3522
1888	65.3371
1884	65.2577
1880	65.2387
1876	65.2764
1872	65.2483
1868	65.1749
1864	65.2083
1860	65.2852
1856	65.2551
1852	65.1792
1848	65.1904
1844	65.2576
1840	65.2899
1836	65.2925
1832	65.296
1828	65.333
1824	65.4064
1820	65.4416
1816	65.3619
1812	65.2358
1808	65.1993
1804	65.2485
1800	65.2578
1796	65.1983
1792	65.1792
1788	65.2259
1784	65.2877
1780	65.2976
1776	65.2699
1772	65.3327
1768	65.3864
1764	65.2922
1760	65.2129
1756	65.2119
1752	65.1909
1748	65.1711
1744	65.1739
1740	65.128
1736	65.0596
1732	65.0157
1728	64.9616
1724	64.9773
1720	65.1529
1716	65.3503
1712	65.3154
1708	65.1439
1704	65.0978
1700	65.1501
1696	65.1973
1692	65.2274
1688	65.2552
1684	65.2554
1680	65.2433
1676	65.2687
1672	65.2929
1668	65.29
1664	65.263
1660	65.1933
1656	65.1377
1652	65.1804
1648	65.2486
1644	65.2271
1640	65.1541
1636	65.1375
1632	65.1854
1628	65.1988
1624	65.1549
1620	65.1791
1616	65.2509
1612	65.1962
1608	65.0871
1604	65.0808
1600	65.0873
1596	65.0377
1592	65.042
1588	65.1453
1584	65.2001
1580	65.1056
1576	64.994
1572	64.9636
1568	64.9685
1564	64.9704
1560	64.9539
1556	64.9356
1552	64.9806
1548	65.0683
1544	65.0737
1540	65.0578
1536	65.0937
1532	65.0712
1528	65.0734
1524	65.2013
1520	65.2224
1516	65.051
1512	64.9799
1508	65.0642
1504	65.1132
1500	65.1355
1496	65.1545
1492	65.1202
1488	65.0933
1484	65.0991
1480	65.1183
1476	65.1121
1472	65.0633
1468	65.0215
1464	64.9583
1460	64.9004
1456	64.8437
1452	64.7136
1448	64.7348
1444	65.0211
1440	65.242
1436	65.2266
1432	65.1831
1428	65.1735
1424	65.1033
1420	65.0809
1416	65.1234
1412	65.1255
1408	65.0865
1404	64.9729
1400	64.9186
1396	65.0685
1392	65.1837
1388	65.0984
1384	64.9975
1380	65.0042
1376	65.0156
1372	65.0021
1368	65.0402
1364	65.1016
1360	65.1373
1356	65.1211
1352	65.0874
1348	65.0782
1344	65.0264
1340	64.9843
1336	65.0167
1332	65.0435
1328	65.0537
1324	65.0401
1320	65.0011
1316	65.0014
1312	64.9716
1308	64.8986
1304	64.9253
1300	65.0147
1296	65.0217
1292	64.9979
1288	65.0267
1284	65.0516
1280	65.0637
1276	65.0197
1272	64.8808
1268	64.8309
1264	64.9382
1260	64.9811
1256	64.9422
1252	64.9612
1248	64.941
1244	64.8464
1240	64.7764
1236	64.7912
1232	64.854
1228	64.8633
1224	64.8324
1220	64.8325
1216	64.9263
1212	65.056
1208	65.0551
1204	64.9638
1200	64.8717
1196	64.7952
1192	64.785
1188	64.7732
1184	64.712
1180	64.6641
1176	64.6387
1172	64.6294
1168	64.6526
1164	64.673
1160	64.636
1156	64.6151
1152	64.648
1148	64.6365
1144	64.6404
1140	64.7246
1136	64.7796
1132	64.7833
1128	64.7863
1124	64.7741
1120	64.7223
1116	64.6766
1112	64.6599
1108	64.6189
1104	64.6359
1100	64.721
1096	64.6868
1092	64.6234
1088	64.6404
1084	64.6394
1080	64.6626
1076	64.7494
1072	64.8267
1068	64.8023
1064	64.7302
1060	64.764
1056	64.8302
1052	64.7586
1048	64.7929
1044	65.0154
1040	64.9721
1036	64.6528
1032	64.5077
1028	64.6468
1024	64.709
1020	64.6242
1016	64.5076
1012	64.4047
1008	64.4493
1004	64.5323
1000	64.5927
996	 64.8098
992	 64.9896
988	 64.8208
984	 64.5925
980	 64.5316
976	 64.5404
972	 64.753
968	 64.8407
964	 64.6042
960	 64.702
956	 64.9097
952	 64.8001
948	 64.8427
944	 64.9641
940	 64.8409
936	 64.7098
932	 64.6469
928	 64.6557
924	 64.7483
920	 64.779
916	 64.7221
912	 64.5796
908	 64.5524
904	 64.7198
900	 64.7487
896	 64.6004
892	 64.5085
888	 64.5594
884	 64.6197
880	 64.5616
876	 64.5605
872	 64.6341
868	 64.5766
864	 64.3173
860	 64.0174
856	 63.8862
852	 64.0197
848	 64.3437
844	 64.4712
840	 64.38
836	 64.2873
832	 64.2078
828	 64.271
824	 64.3522
820	 64.1553
816	 63.911
812	 63.9312
808	 64.1021
804	 64.2049
800	 64.0664
796	 63.7344
792	 63.5675
788	 63.7001
784	 63.9088
780	 64.0423
776	 64.0346
772	 63.9312
768	 63.8747
764	 63.7983
760	 63.724
756	 63.8136
752	 63.7572
748	 63.5377
744	 63.5839
740	 63.5626
736	 63.4323
732	 63.5049
728	 63.4813
724	 63.4497
720	 63.5849
716	 63.5767
712	 63.4385
708	 63.3176
704	 63.2649
700	 63.2926
696	 63.2271
692	 63.1878
688	 63.1302
684	 62.912
680	 62.8484
676	 62.9141
672	 62.8993
668	 62.8703
664	 62.8343
660	 62.8392
656	 62.824
652	 62.6167
648	 62.4338
644	 62.4835
640	 62.4908
636	 62.2263
632	 62.0083
628	 61.9624
624	 61.9328
620	 61.8578
616	 61.7508
612	 61.9349
608	 62.2845
604	 62.3352
600	 62.0527
596	 61.7185
592	 61.7877
588	 62.1515
584	 62.2811
580	 62.1768
576	 61.8641
572	 61.5334
568	 61.6362
564	 61.8154
560	 61.5858
556	 61.2017
552	 61.1322
548	 61.2315
544	 61.001
540	 60.6966
536	 60.6509
532	 60.5167
528	 60.0972
524	 59.656
520	 59.7424
516	 60.3517
512	 60.651
508	 60.3427
504	 59.9425
500	 59.739
496	 59.6415
492	 59.6372
488	 59.8346
484	 59.8932
480	 59.2934
476	 58.5297
472	 58.1277
468	 58.2854
464	 59.3125
460	 60.2065
456	 59.7715
452	 58.9123
448	 58.3075
444	 57.8083
440	 58.9924
436	 61.0624
432	 60.8006
428	 58.6087
424	 56.3371
420	 55.5483
416	 56.2761
412	 56.8532
408	 58.4094
404	 60.5774
400	 61.1951
396	 57.6459
392	 50.3287
388	 48.8451
384	 61.644
380	 79.5218
376	 77.6904
372	 60.6929
370	 59.3906