File: Bakgrunnsmateriale/MATLAB/FTIR/ftir_data/subBb/Mapping_121/C-4040-8_t03_cm-1.asc
PE IR       SPECTRUM    SPECTRUM    ASCII       PEDS        1.60
  -1
C-99E1~1.ASC
17/03/27
14:44:48.00
17/03/27
14:44:48.00
tln
$C-4040-8_t0003$<tbV0>[7.8,-13.0,8.0,0.0,27,1,0]
370
64

2002,4.07
MIRTGS : RIGHTBACK : INTERNAL 2
MIR : ON : INTERNAL 2
OPTKBR

0.200000
8
8.000000
FILLER
RATIO
SPECTRUM
UNLOCKED 256

DOUBLE
64
COMBINED
1
0
0

1.000000
RATIO

1
0
TRUE
51149
0
LEFT NOT FITTED RIGHT NOT FITTED 0
NONE
NONE
15600
12
4.427000
51148
TRUE
1 0 8 72 0 0 0 0

15798

#HDR
-1
-1
#GR
CM-1
%T
2.38419e-05
0.0
5000
-1.000000
4631
8
67.8765
12.5589
#DATA
5000	62.3075
4996	62.8007
4992	63.7054
4988	64.0779
4984	63.5535
4980	63.0743
4976	62.8393
4972	62.6387
4968	62.5123
4964	61.9079
4960	61.551
4956	62.2765
4952	62.9842
4948	62.7128
4944	61.798
4940	61.6093
4936	62.4991
4932	63.2748
4928	63.0968
4924	62.7789
4920	62.9695
4916	63.1851
4912	63.4687
4908	63.7141
4904	63.6844
4900	63.3805
4896	62.9809
4892	63.1543
4888	63.6137
4884	63.485
4880	62.9582
4876	62.8384
4872	63.0872
4868	62.9849
4864	62.7023
4860	62.712
4856	62.7985
4852	62.8833
4848	63.2501
4844	63.6935
4840	63.7592
4836	63.4612
4832	63.0344
4828	62.8386
4824	62.9337
4820	62.9065
4816	62.6699
4812	62.5629
4808	62.6571
4804	62.6437
4800	62.5661
4796	62.6821
4792	62.9622
4788	63.2345
4784	63.2611
4780	63.1371
4776	63.1071
4772	63.0289
4768	62.8242
4764	62.7342
4760	62.7763
4756	62.8036
4752	62.9592
4748	63.2066
4744	63.0688
4740	62.6314
4736	62.4137
4732	62.4082
4728	62.5041
4724	62.6316
4720	62.6244
4716	62.4761
4712	62.3689
4708	62.5001
4704	62.7357
4700	62.7949
4696	62.7679
4692	62.8913
4688	63.0681
4684	63.0186
4680	62.7562
4676	62.5849
4672	62.4793
4668	62.357
4664	62.5358
4660	62.9271
4656	63.0514
4652	62.9162
4648	62.9002
4644	63.0691
4640	63.1466
4636	63.0212
4632	62.8276
4628	62.7506
4624	62.7867
4620	62.7692
4616	62.6956
4612	62.6483
4608	62.6255
4604	62.6698
4600	62.8738
4596	63.0692
4592	63.0584
4588	63.0905
4584	63.1433
4580	62.9898
4576	62.7983
4572	62.7466
4568	62.8953
4564	62.9941
4560	63.039
4556	63.1914
4552	63.1127
4548	62.9238
4544	62.7585
4540	62.5906
4536	62.5798
4532	62.3256
4528	62.0492
4524	62.4256
4520	63.059
4516	63.226
4512	63.0776
4508	63.1204
4504	63.2037
4500	62.9849
4496	62.555
4492	62.2072
4488	62.2212
4484	62.2235
4480	62.4704
4476	62.6847
4472	62.4406
4468	62.551
4464	62.5808
4460	62.652
4456	63.3322
4452	65.5386
4448	67.7164
4444	67.082
4440	63.4715
4436	59.4598
4432	57.0109
4428	56.3937
4424	60.6317
4420	62.8995
4416	58.1439
4412	55.4859
4408	58.4321
4404	61.9197
4400	63.2605
4396	63.5885
4392	63.2704
4388	62.887
4384	63.0737
4380	63.3249
4376	63.2434
4372	63.0501
4368	63.2154
4364	63.6092
4360	63.6723
4356	63.2561
4352	62.7213
4348	62.4409
4344	62.4959
4340	62.5616
4336	62.4645
4332	62.4504
4328	62.5468
4324	62.5785
4320	62.4947
4316	62.2176
4312	61.9933
4308	62.0075
4304	62.1158
4300	62.2117
4296	62.2322
4292	62.2939
4288	62.319
4284	62.2579
4280	62.268
4276	62.3129
4272	62.3746
4268	62.3704
4264	62.1464
4260	61.8796
4256	61.9437
4252	62.125
4248	62.1039
4244	62.0308
4240	61.958
4236	61.9002
4232	61.8755
4228	61.7941
4224	61.7792
4220	61.9377
4216	62.0979
4212	62.109
4208	62.029
4204	62.0202
4200	62.0556
4196	62.1258
4192	62.0029
4188	61.6812
4184	61.6067
4180	61.6287
4176	61.4784
4172	61.2507
4168	61.2143
4164	61.4144
4160	61.6386
4156	61.7012
4152	61.5583
4148	61.4264
4144	61.5538
4140	61.748
4136	61.7877
4132	61.8784
4128	61.9789
4124	61.9203
4120	61.8515
4116	61.9249
4112	61.9832
4108	61.8879
4104	61.7615
4100	61.6688
4096	61.7063
4092	61.8964
4088	61.9351
4084	61.7643
4080	61.6178
4076	61.5063
4072	61.4618
4068	61.5574
4064	61.6265
4060	61.6227
4056	61.6707
4052	61.6486
4048	61.4504
4044	61.3178
4040	61.46
4036	61.7357
4032	61.902
4028	61.8868
4024	61.844
4020	61.8965
4016	61.893
4012	61.8171
4008	61.7515
4004	61.6843
4000	61.7154
3996	61.7797
3992	61.6712
3988	61.4936
3984	61.3889
3980	61.2911
3976	61.2579
3972	61.3315
3968	61.4688
3964	61.5697
3960	61.4793
3956	61.3375
3952	61.3114
3948	61.3392
3944	61.3445
3940	61.2729
3936	61.201
3932	61.1874
3928	61.1685
3924	61.1873
3920	61.2529
3916	61.296
3912	61.3495
3908	61.4304
3904	61.4551
3900	61.3952
3896	61.3257
3892	61.3343
3888	61.2982
3884	61.0919
3880	60.9869
3876	61.138
3872	61.201
3868	61.0505
3864	61.028
3860	61.2233
3856	61.4488
3852	61.4834
3848	61.3307
3844	61.2883
3840	61.3246
3836	61.1916
3832	60.9379
3828	60.7447
3824	60.7055
3820	60.8369
3816	60.9241
3812	60.9417
3808	61.0991
3804	61.2436
3800	61.1251
3796	60.7681
3792	60.4943
3788	60.4176
3784	60.2959
3780	60.2291
3776	60.4399
3772	60.733
3768	60.8028
3764	60.6863
3760	60.6001
3756	60.6908
3752	60.8504
3748	60.7949
3744	60.6845
3740	60.7379
3736	60.7058
3732	60.4234
3728	60.2915
3724	60.4768
3720	60.6298
3716	60.6968
3712	60.6848
3708	60.582
3704	60.4992
3700	60.4081
3696	60.3828
3692	60.4965
3688	60.4988
3684	60.3319
3680	60.3254
3676	60.451
3672	60.3667
3668	60.1902
3664	60.2309
3660	60.3619
3656	60.33
3652	60.2422
3648	60.1818
3644	60.0476
3640	59.9508
3636	60.0178
3632	60.1301
3628	60.1108
3624	59.968
3620	59.8835
3616	59.9676
3612	60.0287
3608	59.8531
3604	59.6699
3600	59.6827
3596	59.7758
3592	59.9388
3588	60.0386
3584	59.8779
3580	59.6833
3576	59.599
3572	59.511
3568	59.4707
3564	59.5858
3560	59.7444
3556	59.7601
3552	59.6839
3548	59.6374
3544	59.5968
3540	59.5202
3536	59.4859
3532	59.5297
3528	59.5386
3524	59.4515
3520	59.3375
3516	59.2731
3512	59.2305
3508	59.2012
3504	59.1868
3500	59.1315
3496	59.0614
3492	59.085
3488	59.1639
3484	59.2134
3480	59.2263
3476	59.1614
3472	59.0665
3468	59.0832
3464	59.1839
3460	59.2273
3456	59.2074
3452	59.1722
3448	59.1356
3444	59.116
3440	59.0966
3436	58.9764
3432	58.7544
3428	58.6735
3424	58.6986
3420	58.6416
3416	58.646
3412	58.7702
3408	58.8305
3404	58.7639
3400	58.6318
3396	58.4806
3392	58.4215
3388	58.4283
3384	58.4315
3380	58.5031
3376	58.4958
3372	58.3145
3368	58.2404
3364	58.3137
3360	58.3236
3356	58.2759
3352	58.2345
3348	58.1912
3344	58.1641
3340	58.2026
3336	58.2871
3332	58.2723
3328	58.1396
3324	58.0418
3320	58.0218
3316	58.0177
3312	57.9809
3308	57.9093
3304	57.8143
3300	57.7217
3296	57.697
3292	57.6885
3288	57.6363
3284	57.6432
3280	57.7248
3276	57.7787
3272	57.7548
3268	57.6681
3264	57.572
3260	57.5331
3256	57.5631
3252	57.6015
3248	57.589
3244	57.5214
3240	57.4244
3236	57.3764
3232	57.3738
3228	57.3273
3224	57.3234
3220	57.3634
3216	57.3627
3212	57.3307
3208	57.2625
3204	57.2231
3200	57.2116
3196	57.0839
3192	56.9432
3188	57.0051
3184	57.1026
3180	57.0844
3176	56.9881
3172	56.847
3168	56.811
3164	56.8448
3160	56.8366
3156	56.8679
3152	56.9182
3148	56.8565
3144	56.6842
3140	56.5188
3136	56.464
3132	56.4671
3128	56.4282
3124	56.5111
3120	56.6344
3116	56.488
3112	56.2393
3108	56.1817
3104	56.2921
3100	56.3966
3096	56.3704
3092	56.3007
3088	56.3441
3084	56.3754
3080	56.3367
3076	56.2605
3072	56.0973
3068	55.9496
3064	55.9002
3060	55.9349
3056	55.9671
3052	55.9641
3048	55.9659
3044	55.9279
3040	55.8157
3036	55.6998
3032	55.6904
3028	55.7732
3024	55.8372
3020	55.8174
3016	55.7527
3012	55.7038
3008	55.6344
3004	55.5398
3000	55.51
2996	55.5034
2992	55.4463
2988	55.3717
2984	55.284
2980	55.2132
2976	55.153
2972	55.0696
2968	55.0344
2964	55.0294
2960	54.9527
2956	54.8713
2952	54.884
2948	54.9324
2944	54.9904
2940	55.046
2936	54.9576
2932	54.7691
2928	54.6501
2924	54.5819
2920	54.5517
2916	54.5673
2912	54.5492
2908	54.4601
2904	54.3833
2900	54.3849
2896	54.4369
2892	54.5175
2888	54.5496
2884	54.448
2880	54.2987
2876	54.2363
2872	54.2747
2868	54.3433
2864	54.3277
2860	54.1641
2856	54.0474
2852	54.0686
2848	54.0483
2844	53.9937
2840	53.993
2836	53.9798
2832	53.8923
2828	53.8051
2824	53.7888
2820	53.7823
2816	53.7611
2812	53.7462
2808	53.6937
2804	53.6029
2800	53.5285
2796	53.4414
2792	53.4062
2788	53.4602
2784	53.4669
2780	53.4285
2776	53.3407
2772	53.1847
2768	53.1319
2764	53.1994
2760	53.2212
2756	53.1793
2752	53.1659
2748	53.1635
2744	53.1444
2740	53.0665
2736	52.9011
2732	52.8103
2728	52.8136
2724	52.7737
2720	52.7136
2716	52.6443
2712	52.5635
2708	52.573
2704	52.645
2700	52.652
2696	52.5784
2692	52.4694
2688	52.4138
2684	52.4373
2680	52.4123
2676	52.3291
2672	52.2824
2668	52.2576
2664	52.2307
2660	52.1571
2656	52.0364
2652	51.9769
2648	52.0029
2644	52.0454
2640	52.021
2636	51.9606
2632	51.9256
2628	51.86
2624	51.7803
2620	51.7221
2616	51.6687
2612	51.6106
2608	51.5248
2604	51.462
2600	51.396
2596	51.3154
2592	51.2821
2588	51.2176
2584	51.1596
2580	51.1842
2576	51.1952
2572	51.138
2568	51.0637
2564	51.0043
2560	50.9534
2556	50.9475
2552	50.9643
2548	50.9329
2544	50.9048
2540	50.9212
2536	50.8941
2532	50.8023
2528	50.7154
2524	50.6422
2520	50.5956
2516	50.5677
2512	50.474
2508	50.3661
2504	50.3939
2500	50.4571
2496	50.3611
2492	50.2085
2488	50.1651
2484	50.1724
2480	50.1617
2476	50.1331
2472	50.0846
2468	50.0148
2464	49.9266
2460	49.8479
2456	49.7706
2452	49.7292
2448	49.739
2444	49.759
2440	49.8299
2436	49.8452
2432	49.6372
2428	49.3457
2424	49.3145
2420	49.515
2416	49.5075
2412	49.2924
2408	49.1859
2404	49.1629
2400	49.0986
2396	49.0288
2392	48.9664
2388	48.9072
2384	48.8814
2380	48.8838
2376	48.8822
2372	48.845
2368	48.764
2364	48.6737
2360	48.6332
2356	48.5919
2352	48.5058
2348	48.4355
2344	48.3819
2340	48.3716
2336	48.425
2332	48.3983
2328	48.2533
2324	48.1426
2320	48.1191
2316	48.1016
2312	48.0611
2308	48.0415
2304	48.0221
2300	47.9524
2296	47.8687
2292	47.7947
2288	47.7092
2284	47.6432
2280	47.6432
2276	47.6517
2272	47.5818
2268	47.4988
2264	47.4693
2260	47.4371
2256	47.3363
2252	47.258
2248	47.2523
2244	47.1858
2240	47.0698
2236	46.9768
2232	46.8931
2228	46.8781
2224	46.9456
2220	46.9633
2216	46.8632
2212	46.7583
2208	46.7234
2204	46.6701
2200	46.5773
2196	46.5389
2192	46.5424
2188	46.487
2184	46.4252
2180	46.4151
2176	46.3598
2172	46.25
2168	46.1989
2164	46.1952
2160	46.1399
2156	46.053
2152	45.9803
2148	45.919
2144	45.8323
2140	45.729
2136	45.6626
2132	45.6308
2128	45.6032
2124	45.5568
2120	45.5438
2116	45.5558
2112	45.5265
2108	45.4853
2104	45.4072
2100	45.2726
2096	45.1876
2092	45.1943
2088	45.2304
2084	45.1953
2080	45.0432
2076	44.8743
2072	44.8688
2068	44.9553
2064	44.8908
2060	44.7513
2056	44.6712
2052	44.6632
2048	44.6426
2044	44.522
2040	44.4452
2036	44.4773
2032	44.4981
2028	44.4228
2024	44.2924
2020	44.194
2016	44.1519
2012	44.1432
2008	44.1322
2004	44.0734
2000	43.9937
1996	43.9491
1992	43.9121
1988	43.8457
1984	43.7508
1980	43.6751
1976	43.639
1972	43.6456
1968	43.6388
1964	43.5067
1960	43.3386
1956	43.2817
1952	43.2597
1948	43.1952
1944	43.155
1940	43.1228
1936	43.0691
1932	43.0112
1928	42.9313
1924	42.8835
1920	42.8712
1916	42.8308
1912	42.7956
1908	42.7565
1904	42.6569
1900	42.583
1896	42.5777
1892	42.5715
1888	42.525
1884	42.4448
1880	42.3874
1876	42.351
1872	42.3051
1868	42.2409
1864	42.1485
1860	42.0835
1856	42.0572
1852	42.0116
1848	41.9535
1844	41.9135
1840	41.8853
1836	41.8344
1832	41.7755
1828	41.7047
1824	41.619
1820	41.5731
1816	41.5275
1812	41.4623
1808	41.4419
1804	41.4355
1800	41.3527
1796	41.258
1792	41.2307
1788	41.2004
1784	41.155
1780	41.1087
1776	41.0662
1772	41.0351
1768	40.9866
1764	40.9444
1760	40.9013
1756	40.8464
1752	40.818
1748	40.7577
1744	40.6193
1740	40.5165
1736	40.4941
1732	40.415
1728	40.282
1724	40.271
1720	40.3669
1716	40.3575
1712	40.1893
1708	40.0428
1704	40.0668
1700	40.128
1696	39.9885
1692	39.8004
1688	39.8419
1684	39.9053
1680	39.7832
1676	39.7033
1672	39.6811
1668	39.5606
1664	39.4428
1660	39.4515
1656	39.5737
1652	39.6071
1648	39.4595
1644	39.3079
1640	39.243
1636	39.196
1632	39.1105
1628	39.0336
1624	38.994
1620	38.9743
1616	38.9347
1612	38.8213
1608	38.7186
1604	38.6502
1600	38.5526
1596	38.4971
1592	38.4557
1588	38.3651
1584	38.2694
1580	38.219
1576	38.2212
1572	38.1662
1568	38.0766
1564	38.1219
1560	38.1957
1556	38.129
1552	38.042
1548	38.0546
1544	38.1437
1540	38.1294
1536	37.9161
1532	37.7396
1528	37.7528
1524	37.7818
1520	37.6608
1516	37.503
1512	37.4657
1508	37.4678
1504	37.4077
1500	37.3082
1496	37.1296
1492	36.9655
1488	36.9347
1484	36.9382
1480	36.9268
1476	36.9068
1472	36.8836
1468	36.86
1464	36.838
1460	36.7398
1456	36.5542
1452	36.4575
1448	36.458
1444	36.3829
1440	36.2904
1436	36.3378
1432	36.4279
1428	36.3872
1424	36.2749
1420	36.2167
1416	36.1556
1412	36.0648
1408	36.0097
1404	35.9617
1400	35.8888
1396	35.8228
1392	35.8017
1388	35.7639
1384	35.6575
1380	35.5745
1376	35.5509
1372	35.5409
1368	35.5196
1364	35.4908
1360	35.4302
1356	35.2988
1352	35.1773
1348	35.1565
1344	35.1705
1340	35.1134
1336	35.0015
1332	34.9486
1328	34.9774
1324	34.9631
1320	34.8947
1316	34.8478
1312	34.7729
1308	34.6395
1304	34.516
1300	34.4589
1296	34.4608
1292	34.4698
1288	34.4108
1284	34.299
1280	34.1976
1276	34.1277
1272	34.1285
1268	34.1854
1264	34.194
1260	34.1202
1256	34.0282
1252	33.9296
1248	33.802
1244	33.6521
1240	33.5736
1236	33.5984
1232	33.6248
1228	33.6011
1224	33.5497
1220	33.5094
1216	33.4465
1212	33.3319
1208	33.2397
1204	33.2407
1200	33.2591
1196	33.1924
1192	33.1203
1188	33.0964
1184	33.0527
1180	32.9345
1176	32.746
1172	32.6055
1168	32.619
1164	32.6846
1160	32.6511
1156	32.5396
1152	32.4606
1148	32.4107
1144	32.3412
1140	32.3146
1136	32.3119
1132	32.217
1128	32.1089
1124	32.0713
1120	32.0372
1116	31.9899
1112	31.8696
1108	31.7436
1104	31.734
1100	31.6787
1096	31.5693
1092	31.5686
1088	31.5877
1084	31.4791
1080	31.321
1076	31.2126
1072	31.1669
1068	31.1469
1064	31.113
1060	31.1038
1056	31.0805
1052	31.0408
1048	31.0218
1044	30.9893
1040	30.9278
1036	30.8137
1032	30.7199
1028	30.7461
1024	30.7608
1020	30.5912
1016	30.4028
1012	30.4115
1008	30.4729
1004	30.3608
1000	30.149
996	 30.051
992	 30.0571
988	 30.0239
984	 30.001
980	 30.0222
976	 29.8964
972	 29.7228
968	 29.7082
964	 29.6914
960	 29.576
956	 29.4877
952	 29.5727
948	 29.658
944	 29.5471
940	 29.4311
936	 29.3384
932	 29.232
928	 29.1592
924	 29.0391
920	 28.8759
916	 28.743
912	 28.6661
908	 28.6661
904	 28.6807
900	 28.6137
896	 28.5349
892	 28.4861
888	 28.3526
884	 28.2248
880	 28.2213
876	 28.1434
872	 28.0211
868	 27.9643
864	 27.9057
860	 27.9062
856	 27.8655
852	 27.7237
848	 27.5946
844	 27.494
840	 27.4334
836	 27.3682
832	 27.2607
828	 27.2591
824	 27.4291
820	 27.4728
816	 27.2351
812	 26.98
808	 26.87
804	 26.8023
800	 26.6843
796	 26.5509
792	 26.4606
788	 26.4191
784	 26.4393
780	 26.4759
776	 26.3712
772	 26.2023
768	 26.0954
764	 25.8569
760	 25.478
756	 25.1982
752	 25.1096
748	 25.3275
744	 25.7614
740	 25.8744
736	 25.5893
732	 25.4135
728	 25.3982
724	 25.2955
720	 25.1249
716	 24.773
712	 24.2279
708	 23.9863
704	 24.1967
700	 24.2903
696	 23.9126
692	 23.2417
688	 22.722
684	 22.6402
680	 22.8364
676	 23.1105
672	 23.5091
668	 23.7449
664	 23.284
660	 22.8478
656	 23.096
652	 23.2226
648	 22.9537
644	 22.7375
640	 22.4509
636	 22.0402
632	 21.8845
628	 22.0557
624	 22.0754
620	 21.9862
616	 22.2451
612	 22.1765
608	 21.3831
604	 20.8722
600	 21.0868
596	 21.4594
592	 21.5348
588	 21.1875
584	 20.7567
580	 20.6143
576	 20.539
572	 20.5374
568	 20.7241
564	 20.6852
560	 20.4481
556	 20.1908
552	 19.8876
548	 19.7978
544	 19.6983
540	 19.3653
536	 19.192
532	 19.0856
528	 18.8191
524	 18.6058
520	 18.6035
516	 18.6646
512	 18.2949
508	 17.5261
504	 17.3285
500	 17.9584
496	 18.3077
492	 17.7684
488	 16.9363
484	 16.5497
480	 16.8543
476	 17.2564
472	 16.738
468	 15.6002
464	 14.946
460	 14.7266
456	 14.7123
452	 14.9193
448	 15.3944
444	 16.4117
440	 16.2477
436	 14.4083
432	 13.6557
428	 14.3259
424	 14.4432
420	 13.9977
416	 13.7818
412	 12.7516
408	 13.529
404	 21.5254
400	 28.8705
396	 23.0826
392	 14.7825
388	 22.1589
384	 38.7955
380	 38.87
376	 30.8855
372	 25.3764
370	 21.0089