File: Bakgrunnsmateriale/MATLAB/FTIR/ftir_data/subBb/Mapping_121/C-4040-8_t49.asc
PE IR       SPECTRUM    SPECTRUM    ASCII       PEDS        1.60
  -1
C-C53E~1.ASC
17/03/27
18:32:22.00
17/03/27
18:32:49.00
tln
$C-4040-8_t0049$<tbV0>[2.6,-2.6,8.0,0.0,27,1,0]
27.028
64

2002,4.07
MIRTGS : RIGHTBACK : INTERNAL 2
MIR : ON : INTERNAL 2
OPTKBR

0.200000
8
8.000000
FILLER
RATIO
SPECTRUM
UNLOCKED 256

DOUBLE
64
COMBINED
1
0
0

0.002000
RATIO

1
0
TRUE
51149
0
LEFT NOT FITTED RIGHT NOT FITTED 0
NONE
NONE
15600
12
4.427000
51148
TRUE
1 0 8 72 0 0 0 0

15798

#HDR
-1
-1
#GR
µM
%T
2.38419e-05
0.0
2.000000
0.002000
12515
8
75.5944
21.3385
#DATA
2.000000	 64.0359
2.018000	 64.7721
2.036000	 64.4618
2.054000	 63.9632
2.072000	 64.3469
2.090000	 64.2623
2.108000	 63.8149
2.126000	 64.4682
2.144000	 63.8124
2.162000	 64.1695
2.180000	 63.7694
2.198000	 64.2192
2.216000	 64.5966
2.234000	 64.335
2.252000	 64.2137
2.270000	 64.6204
2.288000	 63.7155
2.306000	 66.3088
2.324000	 64.0935
2.342000	 64.2346
2.360000	 63.8543
2.378000	 63.9873
2.396000	 63.4403
2.414000	 63.7652
2.432000	 63.4688
2.450000	 63.7282
2.468000	 63.7731
2.486000	 63.7049
2.504000	 63.8651
2.522000	 63.63
2.540000	 63.8523
2.558000	 63.6093
2.576000	 63.6622
2.594000	 63.602
2.612000	 63.3673
2.630000	 63.6445
2.648000	 63.673
2.666000	 63.5609
2.684000	 63.6069
2.702000	 63.206
2.720000	 63.387
2.738000	 63.2047
2.756000	 63.2307
2.774000	 63.1679
2.792000	 63.1108
2.810000	 63.0854
2.828000	 62.6819
2.846000	 62.8724
2.864000	 62.8213
2.882000	 63.109
2.900000	 62.7485
2.918000	 62.8519
2.936000	 62.635
2.954000	 62.7374
2.972000	 62.7451
2.990000	 62.5693
3.008000	 62.7279
3.026000	 62.389
3.044000	 62.1557
3.062000	 62.4222
3.080000	 62.3484
3.098000	 62.5025
3.116000	 62.0498
3.134000	 62.284
3.152000	 62.2286
3.170000	 62.1658
3.188000	 61.9869
3.206000	 61.8933
3.224000	 62.1259
3.242000	 61.9016
3.260000	 61.9062
3.278000	 61.9272
3.296000	 61.8574
3.314000	 61.4202
3.332000	 61.4285
3.350000	 61.4808
3.368000	 61.6577
3.386000	 61.38
3.404000	 61.2838
3.422000	 60.9857
3.440000	 61.2214
3.458000	 61.2404
3.476000	 61.0949
3.494000	 60.7745
3.512000	 60.903
3.530000	 60.882
3.548000	 61.0008
3.566000	 61.0832
3.584000	 60.9043
3.602000	 60.7496
3.620000	 60.8306
3.638000	 60.6107
3.656000	 60.7458
3.674000	 60.6888
3.692000	 60.6201
3.710000	 60.4248
3.728000	 60.3762
3.746000	 60.4767
3.764000	 60.3835
3.782000	 60.4285
3.800000	 60.2988
3.818000	 60.1623
3.836000	 60.1679
3.854000	 60.0182
3.872000	 60.1625
3.890000	 60.0807
3.908000	 60.0523
3.926000	 59.982
3.944000	 59.9297
3.962000	 59.9131
3.980000	 59.762
3.998000	 59.5933
4.016000	 59.6419
4.034000	 59.8078
4.052000	 59.5004
4.070000	 59.6234
4.088000	 59.6747
4.106000	 59.6086
4.124000	 59.9076
4.141999	 59.4827
4.160000	 59.7666
4.178000	 59.465
4.196000	 59.1539
4.214000	 59.0906
4.232000	 59.0352
4.250000	 59.0165
4.268000	 58.908
4.286000	 58.972
4.304000	 58.8486
4.322000	 58.8355
4.340000	 58.8141
4.358000	 58.7058
4.375999	 58.7253
4.394000	 58.7204
4.412000	 58.6433
4.430000	 58.6054
4.448000	 58.6903
4.466000	 58.6086
4.484000	 58.606
4.502000	 58.4098
4.520000	 58.4424
4.538000	 58.4076
4.556000	 58.3779
4.574000	 58.3916
4.592000	 58.2439
4.609999	 58.0987
4.628000	 58.2725
4.646000	 58.0348
4.664000	 58.098
4.682000	 58.1055
4.700000	 58.0024
4.718000	 57.8688
4.736000	 57.862
4.754000	 57.8012
4.772000	 57.7457
4.790000	 57.6782
4.808000	 57.7989
4.826000	 57.3102
4.843999	 57.1573
4.862000	 57.2981
4.880000	 57.5645
4.898000	 57.6544
4.916000	 57.5499
4.934000	 57.5019
4.952000	 57.4032
4.970000	 57.2563
4.988000	 57.3733
5.006000	 57.3649
5.024000	 57.4094
5.042000	 57.3498
5.060000	 57.2172
5.077999	 57.2144
5.096000	 57.1719
5.114000	 57.2092
5.132000	 57.2656
5.150000	 57.0373
5.168000	 56.9236
5.186000	 56.9468
5.204000	 56.996
5.222000	 57.011
5.240000	 56.8781
5.258000	 56.7602
5.276000	 56.8196
5.294000	 56.8034
5.312000	 56.8147
5.330000	 56.7368
5.348000	 56.6291
5.366000	 56.6484
5.384000	 56.5933
5.402000	 56.4922
5.420000	 56.6284
5.438000	 56.4992
5.456000	 56.4989
5.474000	 56.4892
5.492000	 56.3494
5.510000	 56.3133
5.528000	 56.4111
5.546000	 56.4243
5.564000	 56.2537
5.582000	 56.1599
5.600000	 56.2488
5.618000	 56.223
5.636000	 56.1465
5.654000	 56.1867
5.672000	 56.1803
5.690000	 56.0961
5.708000	 56.0218
5.726000	 56.0158
5.744000	 55.9722
5.762000	 55.843
5.780000	 55.6895
5.798000	 55.6116
5.816000	 55.6169
5.834000	 55.5581
5.852000	 55.7458
5.870000	 55.8811
5.888000	 55.8039
5.906000	 55.6948
5.923999	 55.6529
5.942000	 55.7261
5.960000	 55.7658
5.978000	 55.8101
5.996000	 55.8299
6.014000	 55.7235
6.032000	 55.5539
6.050000	 55.4805
6.068000	 55.488
6.086000	 55.507
6.104000	 55.4593
6.122000	 55.3056
6.140000	 55.2545
6.158000	 55.2795
6.176000	 55.2647
6.194000	 55.2362
6.212000	 55.2356
6.230000	 55.2103
6.248000	 55.1154
6.266000	 55.0442
6.284000	 55.036
6.302000	 55.065
6.320000	 55.1133
6.338000	 55.2078
6.356000	 55.2104
6.374000	 55.1203
6.392000	 55.0242
6.410000	 54.9209
6.428000	 54.8977
6.446000	 54.8664
6.464000	 54.7618
6.482000	 54.7466
6.500000	 54.8099
6.518000	 54.8238
6.536000	 54.7995
6.554000	 54.7738
6.572000	 54.7715
6.590000	 54.8074
6.608000	 54.84
6.626000	 54.8887
6.644000	 54.9206
6.662000	 54.9188
6.680000	 54.8698
6.698000	 54.8066
6.716000	 54.8038
6.734000	 54.7418
6.752000	 54.6178
6.770000	 54.5332
6.788000	 54.4856
6.806000	 54.5196
6.824000	 54.5975
6.842000	 54.5371
6.860000	 54.3256
6.878000	 54.2516
6.896000	 54.358
6.914000	 54.3059
6.932000	 54.2306
6.950000	 54.2681
6.968000	 54.1799
6.986000	 54.1014
7.004000	 54.2313
7.022000	 54.3591
7.040000	 54.2948
7.058000	 54.1368
7.076000	 54.0402
7.094000	 54.0064
7.112000	 54.0279
7.130000	 54.1047
7.148000	 54.1669
7.166000	 54.2297
7.184000	 54.2897
7.202000	 54.2548
7.220000	 54.1464
7.238000	 54.0245
7.256000	 53.9449
7.274000	 53.9853
7.292000	 54.0898
7.310000	 54.1344
7.328000	 54.1037
7.346000	 54.0177
7.364000	 53.9099
7.382000	 53.8556
7.400000	 53.8474
7.418000	 53.8063
7.436000	 53.7403
7.454000	 53.7203
7.472000	 53.7632
7.490000	 53.8242
7.508000	 53.8598
7.526000	 53.8718
7.544000	 53.8537
7.562000	 53.7613
7.580000	 53.6183
7.598000	 53.5275
7.616000	 53.523
7.634000	 53.5511
7.652000	 53.5845
7.670000	 53.643
7.688000	 53.7263
7.706000	 53.7834
7.724000	 53.7623
7.742000	 53.6894
7.760000	 53.6353
7.778000	 53.598
7.796000	 53.5323
7.814000	 53.4719
7.832000	 53.4783
7.850000	 53.5163
7.868000	 53.5132
7.886000	 53.4688
7.904000	 53.424
7.922000	 53.3905
7.940000	 53.3595
7.958000	 53.3261
7.976000	 53.2997
7.994000	 53.3016
8.012000	 53.3327
8.030000	 53.3584
8.048000	 53.3435
8.065999	 53.2826
8.084000	 53.198
8.102000	 53.136
8.120000	 53.1467
8.138000	 53.2262
8.155999	 53.3011
8.173999	 53.3095
8.192000	 53.2734
8.210000	 53.2561
8.228000	 53.2823
8.246000	 53.3262
8.263999	 53.3548
8.282000	 53.3572
8.300000	 53.3469
8.318000	 53.3411
8.336000	 53.3248
8.353999	 53.2545
8.372000	 53.1196
8.390000	 52.9778
8.408000	 52.8834
8.426000	 52.8277
8.443999	 52.7958
8.462000	 52.8233
8.480000	 52.9347
8.498000	 53.0706
8.516000	 53.1346
8.533999	 53.0973
8.552000	 53.0195
8.570000	 52.9756
8.588000	 52.9837
8.606000	 53.0084
8.624000	 53.0086
8.641999	 52.9817
8.660000	 52.9689
8.678000	 53.0008
8.696000	 53.035
8.714000	 52.9864
8.731999	 52.8297
8.750000	 52.6422
8.768000	 52.5195
8.786000	 52.4872
8.804000	 52.5162
8.821999	 52.5881
8.840000	 52.6935
8.858000	 52.7956
8.876000	 52.8496
8.894000	 52.8459
8.911999	 52.8118
8.930000	 52.7735
8.948000	 52.7387
8.966000	 52.7142
8.984000	 52.7117
9.001999	 52.7227
9.020000	 52.7129
9.038000	 52.6567
9.056000	 52.5678
9.074000	 52.4857
9.092000	 52.4315
9.109999	 52.3867
9.128000	 52.3261
9.146000	 52.2734
9.164000	 52.2954
9.182000	 52.4264
9.199999	 52.6113
9.218000	 52.7382
9.236000	 52.7311
9.254000	 52.6078
9.272000	 52.445
9.289999	 52.3084
9.308000	 52.2213
9.326000	 52.1833
9.344000	 52.1907
9.362000	 52.2365
9.379999	 52.3059
9.398000	 52.3755
9.416000	 52.417
9.434000	 52.4055
9.452000	 52.333
9.469999	 52.226
9.488000	 52.1437
9.506000	 52.1383
9.524000	 52.212
9.542000	 52.3114
9.560000	 52.3724
9.577999	 52.3663
9.596000	 52.3115
9.614000	 52.2498
9.632000	 52.2125
9.650000	 52.1998
9.667999	 52.1854
9.686000	 52.1394
9.704000	 52.0522
9.722000	 51.945
9.740000	 51.8587
9.757999	 51.83
9.776000	 51.8701
9.794000	 51.9604
9.812000	 52.0656
9.830000	 52.1532
9.847999	 52.2031
9.866000	 52.21
9.884000	 52.1796
9.902000	 52.1261
9.920000	 52.0708
9.937999	 52.038
9.956000	 52.0446
9.974000	 52.0883
9.992000	 52.1437
10.01	52.1751
10.028	52.1583
10.046	52.101
10.064	52.0387
10.082	52.0105
10.1	52.0311
10.118	52.076
10.136	52.0992
10.154	52.0659
10.172	51.9777
10.19	51.8748
10.208	51.8081
10.226	51.8069
10.244	51.864
10.262	51.9423
10.28	52.0022
10.298	52.0225
10.316	52.0053
10.334	51.9651
10.352	51.914
10.37	51.8551
10.388	51.7881
10.406	51.7167
10.424	51.6508
10.442	51.6023
10.46	51.5786
10.478	51.5804
10.496	51.6017
10.514	51.6343
10.532	51.6687
10.55	51.6957
10.568	51.7081
10.586	51.7024
10.604	51.6808
10.622	51.6491
10.64	51.6131
10.658	51.574
10.676	51.5287
10.694	51.4746
10.712	51.414
10.73	51.3552
10.748	51.3097
10.766	51.2863
10.784	51.2865
10.802	51.3023
10.82	51.3213
10.838	51.3308
10.856	51.3258
10.874	51.3095
10.892	51.2912
10.91	51.2808
10.928	51.2834
10.946	51.2987
10.964	51.3218
10.982	51.3463
11	51.3672
11.018	51.3801
11.036	51.3821
11.054	51.3707
11.072	51.3443
11.09	51.3031
11.108	51.2509
11.126	51.1953
11.144	51.1459
11.162	51.1136
11.18	51.1072
11.198	51.1315
11.216	51.1856
11.234	51.2612
11.252	51.3438
11.27	51.4167
11.288	51.4637
11.306	51.4744
11.324	51.4441
11.342	51.3743
11.36	51.271
11.378	51.1441
11.396	51.0063
11.414	50.874
11.432	50.7666
11.45	50.7014
11.468	50.6895
11.486	50.7305
11.504	50.8107
11.522	50.9072
11.54	50.9974
11.558	51.0633
11.576	51.0966
11.594	51.099
11.612	51.0773
11.63	51.0407
11.648	50.9972
11.666	50.9534
11.684	50.9145
11.702	50.8837
11.72	50.8632
11.738	50.8519
11.756	50.8463
11.774	50.8408
11.792	50.8303
11.81	50.8129
11.828	50.7912
11.846	50.7704
11.864	50.7563
11.882	50.7517
11.9	50.7549
11.918	50.7592
11.936	50.7555
11.954	50.737
11.972	50.7006
11.99	50.6488
12.008	50.5903
12.026	50.5364
12.044	50.4984
12.062	50.4842
12.08	50.4957
12.098	50.5295
12.116	50.5771
12.134	50.6275
12.152	50.6705
12.17	50.6999
12.188	50.7148
12.206	50.7195
12.224	50.7219
12.242	50.7292
12.26	50.7455
12.278	50.7694
12.296	50.7936
12.314	50.8071
12.332	50.7993
12.35	50.7633
12.368	50.6986
12.386	50.6121
12.404	50.5166
12.422	50.4274
12.44	50.3582
12.458	50.3178
12.476	50.3084
12.494	50.3254
12.512	50.359
12.53	50.3968
12.548	50.4271
12.566	50.4418
12.584	50.4372
12.602	50.4149
12.62	50.3803
12.638	50.3412
12.656	50.3054
12.674	50.2781
12.692	50.2606
12.71	50.2514
12.728	50.2468
12.746	50.2416
12.764	50.2319
12.782	50.2166
12.8	50.198
12.818	50.1807
12.836	50.17
12.854	50.1703
12.872	50.1834
12.89	50.2079
12.908	50.2389
12.926	50.2704
12.944	50.2974
12.962	50.317
12.98	50.33
12.998	50.3407
13.016	50.3546
13.034	50.376
13.052	50.4053
13.07	50.4366
13.088	50.4585
13.106	50.4555
13.124	50.4113
13.142	50.3142
13.16	50.1603
13.178	49.9571
13.196	49.7216
13.214	49.4798
13.232	49.2602
13.25	49.0893
13.268	48.9856
13.286	48.9571
13.304	49.0004
13.322	49.1023
13.34	49.2433
13.358	49.4028
13.376	49.5626
13.394	49.7104
13.412	49.8398
13.43	49.9507
13.448	50.046
13.466	50.1297
13.484	50.2042
13.502	50.2687
13.52	50.3193
13.538	50.3502
13.556	50.355
13.574	50.3287
13.592	50.2691
13.61	50.1782
13.628	50.0613
13.646	49.9266
13.664	49.7838
13.682	49.6428
13.7	49.5125
13.718	49.3999
13.736	49.3097
13.754	49.2446
13.772	49.2057
13.79	49.1918
13.808	49.2014
13.826	49.2313
13.844	49.2787
13.862	49.34
13.88	49.4118
13.898	49.4902
13.916	49.5712
13.934	49.6515
13.952	49.728
13.97	49.7976
13.988	49.8569
14.006	49.9034
14.024	49.9352
14.042	49.951
14.06	49.9503
14.078	49.9335
14.096	49.9025
14.114	49.8601
14.132	49.8104
14.15	49.7576
14.168	49.7063
14.186	49.6598
14.204	49.6215
14.222	49.5926
14.24	49.5726
14.258	49.5594
14.276	49.5499
14.294	49.5406
14.312	49.5272
14.33	49.5063
14.348	49.475
14.366	49.4317
14.384	49.3765
14.402	49.3109
14.42	49.2372
14.438	49.1583
14.456	49.0772
14.474	48.9967
14.492	48.9192
14.51	48.8461
14.528	48.778
14.546	48.7154
14.564	48.6584
14.582	48.6077
14.6	48.5638
14.618	48.5279
14.636	48.5014
14.654	48.4864
14.672	48.4839
14.69	48.4945
14.708	48.5179
14.726	48.5524
14.744	48.5949
14.762	48.6414
14.78	48.6876
14.798	48.7292
14.816	48.7626
14.834	48.7848
14.852	48.7947
14.87	48.7928
14.888	48.7802
14.906	48.7588
14.924	48.7312
14.942	48.7003
14.96	48.6684
14.978	48.6375
14.996	48.6091
15.014	48.5841
15.032	48.5636
15.05	48.5477
15.068	48.5366
15.086	48.5303
15.104	48.5288
15.122	48.5319
15.14	48.5387
15.158	48.548
15.176	48.5585
15.194	48.5684
15.212	48.5761
15.23	48.5803
15.248	48.5801
15.266	48.5748
15.284	48.5646
15.302	48.55
15.32	48.5315
15.338	48.5098
15.356	48.4855
15.374	48.459
15.392	48.4304
15.41	48.4
15.428	48.3683
15.446	48.3361
15.464	48.3048
15.482	48.2758
15.5	48.2507
15.518	48.2315
15.536	48.2186
15.554	48.2122
15.572	48.2118
15.59	48.2152
15.608	48.2198
15.626	48.2227
15.644	48.2207
15.662	48.2108
15.68	48.1921
15.698	48.1644
15.716	48.1293
15.734	48.0905
15.752	48.0521
15.77	48.0182
15.788	47.9947
15.806	47.9847
15.824	47.9901
15.842	48.0116
15.86	48.0467
15.878	48.0916
15.896	48.1424
15.914	48.1921
15.932	48.2354
15.95	48.2681
15.968	48.286
15.986	48.2874
16.004	48.2729
16.022	48.2441
16.04	48.2051
16.058	48.1605
16.076	48.1148
16.094	48.0741
16.112	48.0431
16.13	48.0248
16.148	48.0227
16.166	48.0373
16.184	48.0683
16.202	48.1148
16.22	48.173
16.238	48.2399
16.256	48.3124
16.274	48.3847
16.292	48.4533
16.31	48.5148
16.328	48.5646
16.346	48.6008
16.364	48.6215
16.382	48.6256
16.4	48.6138
16.418	48.5869
16.436	48.5472
16.454	48.4975
16.472	48.4398
16.49	48.3779
16.508	48.314
16.526	48.2499
16.544	48.1875
16.562	48.127
16.58	48.0687
16.598	48.0117
16.616	47.9547
16.634	47.8969
16.652	47.8367
16.67	47.7737
16.688	47.7073
16.706	47.6383
16.724	47.5675
16.742	47.496
16.76	47.4263
16.778	47.3595
16.796	47.2983
16.814	47.2439
16.832	47.1973
16.85	47.1601
16.868	47.1318
16.886	47.1122
16.904	47.1004
16.922	47.0959
16.94	47.0976
16.958	47.1048
16.976	47.117
16.994	47.1336
17.012	47.1544
17.03	47.1788
17.048	47.2063
17.066	47.2361
17.084	47.2671
17.102	47.2968
17.12	47.3241
17.138	47.3455
17.156	47.359
17.174	47.3625
17.192	47.3534
17.21	47.3309
17.228	47.2938
17.246	47.2435
17.264	47.1801
17.282	47.1077
17.3	47.0283
17.318	46.9466
17.336	46.8674
17.354	46.7933
17.372	46.7307
17.39	46.681
17.408	46.6483
17.426	46.6331
17.444	46.6365
17.462	46.657
17.48	46.6937
17.498	46.7432
17.516	46.802
17.534	46.8672
17.552	46.9334
17.57	46.9988
17.588	47.0582
17.606	47.1099
17.624	47.1508
17.642	47.1795
17.66	47.1949
17.678	47.1967
17.696	47.1849
17.714	47.1607
17.732	47.1253
17.75	47.0798
17.768	47.0269
17.786	46.9674
17.804	46.9049
17.822	46.84
17.84	46.7757
17.858	46.713
17.876	46.6538
17.894	46.5991
17.912	46.5497
17.93	46.5065
17.948	46.4697
17.966	46.4395
17.984	46.4156
18.002	46.3978
18.02	46.3854
18.038	46.3779
18.056	46.374
18.074	46.3734
18.092	46.3741
18.11	46.3759
18.128	46.3769
18.146	46.3765
18.164	46.3732
18.182	46.3664
18.2	46.3552
18.218	46.3391
18.236	46.3177
18.254	46.2915
18.272	46.2604
18.29	46.2257
18.308	46.1877
18.326	46.1486
18.344	46.1089
18.362	46.0709
18.38	46.0355
18.398	46.0046
18.416	45.9791
18.434	45.9604
18.452	45.9487
18.47	45.9446
18.488	45.9476
18.506	45.9579
18.524	45.9737
18.542	45.9949
18.56	46.0187
18.578	46.0449
18.596	46.0702
18.614	46.0945
18.632	46.1149
18.65	46.1314
18.668	46.1421
18.686	46.1472
18.704	46.146
18.722	46.1388
18.74	46.1264
18.758	46.1095
18.776	46.0895
18.794	46.0673
18.812	46.0448
18.83	46.0229
18.848	46.0035
18.866	45.9869
18.884	45.9748
18.902	45.967
18.92	45.9643
18.938	45.9661
18.956	45.9725
18.974	45.9825
18.992	45.9954
19.01	46.0103
19.028	46.0261
19.046	46.0421
19.064	46.0571
19.082	46.0707
19.1	46.082
19.118	46.0909
19.136	46.0969
19.154	46.1003
19.172	46.1009
19.19	46.0992
19.208	46.0954
19.226	46.0898
19.244	46.083
19.262	46.075
19.28	46.066
19.298	46.056
19.316	46.045
19.334	46.0327
19.352	46.0186
19.37	46.0025
19.388	45.9836
19.406	45.962
19.424	45.9367
19.442	45.9077
19.46	45.8749
19.478	45.8383
19.496	45.7983
19.514	45.755
19.532	45.7097
19.55	45.6625
19.568	45.6149
19.586	45.5681
19.604	45.5227
19.622	45.4806
19.64	45.442
19.658	45.4089
19.676	45.381
19.694	45.3598
19.712	45.3452
19.73	45.3373
19.748	45.3363
19.766	45.3413
19.784	45.3523
19.802	45.368
19.82	45.3875
19.838	45.4099
19.856	45.4334
19.874	45.4578
19.892	45.4802
19.91	45.501
19.928	45.5173
19.946	45.5294
19.964	45.5352
19.982	45.5344
20	45.5262
20.018	45.5099
20.036	45.4858
20.054	45.4534
20.072	45.413
20.09	45.3652
20.108	45.3099
20.126	45.2491
20.144	45.1825
20.162	45.1123
20.18	45.0391
20.198	44.9644
20.216	44.8904
20.234	44.8169
20.252	44.7472
20.27	44.6806
20.288	44.6198
20.306	44.565
20.324	44.5171
20.342	44.4771
20.36	44.4445
20.378	44.4197
20.396	44.4026
20.414	44.3917
20.432	44.3875
20.45	44.3879
20.468	44.3922
20.486	44.3995
20.504	44.4075
20.522	44.4167
20.54	44.4237
20.558	44.429
20.576	44.431
20.594	44.4288
20.612	44.4226
20.63	44.4116
20.648	44.3961
20.666	44.3771
20.684	44.3542
20.702	44.3288
20.72	44.3015
20.738	44.2727
20.756	44.2448
20.774	44.2171
20.792	44.1918
20.81	44.1691
20.828	44.1496
20.846	44.1348
20.864	44.1241
20.882	44.1186
20.9	44.1183
20.918	44.1229
20.936	44.1327
20.954	44.1473
20.972	44.1658
20.99	44.1886
21.008	44.2144
21.026	44.2429
21.044	44.2738
21.062	44.306
21.08	44.3397
21.098	44.3739
21.116	44.4084
21.134	44.4429
21.152	44.4767
21.17	44.51
21.188	44.5426
21.206	44.5744
21.224	44.6055
21.242	44.6361
21.26	44.6661
21.278	44.6959
21.296	44.7255
21.314	44.755
21.332	44.7847
21.35	44.8145
21.368	44.8441
21.386	44.8736
21.404	44.9026
21.422	44.9305
21.44	44.9576
21.458	44.9831
21.476	45.0065
21.494	45.0278
21.512	45.0467
21.53	45.063
21.548	45.077
21.566	45.0885
21.584	45.0977
21.602	45.106
21.62	45.1129
21.638	45.1199
21.656	45.1289
21.674	45.1389
21.692	45.1532
21.71	45.1721
21.728	45.196
21.746	45.2281
21.764	45.2675
21.782	45.3155
21.8	45.3732
21.818	45.4401
21.836	45.5164
21.854	45.6028
21.872	45.698
21.89	45.7998
21.908	45.9097
21.926	46.0236
21.944	46.1398
21.962	46.259
21.98	46.3745
21.998	46.4871
22.016	46.5945
22.034	46.6913
22.052	46.7795
22.07	46.855
22.088	46.9143
22.106	46.9592
22.124	46.9862
22.142	46.9943
22.16	46.9843
22.178	46.9554
22.196	46.9068
22.214	46.8404
22.232	46.7576
22.25	46.6573
22.268	46.5435
22.286	46.4178
22.304	46.2794
22.322	46.1343
22.34	45.9825
22.358	45.825
22.376	45.6676
22.394	45.509
22.412	45.3515
22.43	45.1996
22.448	45.0511
22.466	44.9097
22.484	44.7781
22.502	44.6547
22.52	44.5427
22.538	44.4437
22.556	44.3567
22.574	44.2833
22.592	44.2242
22.61	44.1788
22.628	44.147
22.646	44.129
22.664	44.1244
22.682	44.1323
22.7	44.1534
22.718	44.1863
22.736	44.2298
22.754	44.2851
22.772	44.3491
22.79	44.4195
22.808	44.4978
22.826	44.5803
22.844	44.6647
22.862	44.7526
22.88	44.8397
22.898	44.9241
22.916	45.0072
22.934	45.0855
22.952	45.158
22.97	45.2253
22.988	45.2852
23.006	45.3367
23.024	45.3807
23.042	45.4167
23.06	45.4444
23.078	45.4642
23.096	45.477
23.114	45.4822
23.132	45.4807
23.15	45.4751
23.168	45.4648
23.186	45.4506
23.204	45.4358
23.222	45.4197
23.24	45.4031
23.258	45.39
23.276	45.3797
23.294	45.3728
23.312	45.3726
23.33	45.3788
23.348	45.3915
23.366	45.4133
23.384	45.4437
23.402	45.4829
23.42	45.5333
23.438	45.5954
23.456	45.6685
23.474	45.7517
23.492	45.8464
23.51	45.9513
23.528	46.0625
23.546	46.18
23.564	46.304
23.582	46.4292
23.6	46.5539
23.618	46.6797
23.636	46.8015
23.654	46.9169
23.672	47.0282
23.69	47.1303
23.708	47.2199
23.726	47.2996
23.744	47.3658
23.762	47.4154
23.78	47.4506
23.798	47.4689
23.816	47.4672
23.834	47.447
23.852	47.4072
23.87	47.3454
23.888	47.2625
23.906	47.1581
23.924	47.0301
23.942	46.8788
23.96	46.7044
23.978	46.5057
23.996	46.2819
24.014	46.0339
24.032	45.7618
24.05	45.4653
24.068	45.1442
24.086	44.8005
24.104	44.4358
24.122	44.0489
24.14	43.6415
24.158	43.2155
24.176	42.7691
24.194	42.3044
24.212	41.8257
24.23	41.3323
24.248	40.8239
24.266	40.3082
24.284	39.7882
24.302	39.2592
24.32	38.7311
24.338	38.2125
24.356	37.6952
24.374	37.1886
24.392	36.7069
24.41	36.2457
24.428	35.8065
24.446	35.4033
24.464	35.0416
24.482	34.7145
24.5	34.4314
24.518	34.2004
24.536	34.0169
24.554	33.8824
24.572	33.8005
24.59	33.7738
24.608	33.7985
24.626	33.8688
24.644	33.9837
24.662	34.1464
24.68	34.3471
24.698	34.5779
24.716	34.8494
24.734	35.1487
24.752	35.4555
24.77	35.7686
24.788	36.0935
24.806	36.4168
24.824	36.7289
24.842	37.0361
24.86	37.3363
24.878	37.6252
24.896	37.8981
24.914	38.1609
24.932	38.4236
24.95	38.6874
24.968	38.9431
24.986	39.2135
25.004	39.5216
25.022	39.8539
25.04	40.2173
25.058	40.6353
25.076	41.1188
25.094	41.6548
25.112	42.2541
25.13	42.9287
25.148	43.6796
25.166	44.4999
25.184	45.3835
25.202	46.3332
25.22	47.3555
25.238	48.4253
25.256	49.5179
25.274	50.6544
25.292	51.8212
25.31	52.9784
25.328	54.1067
25.346	55.2364
25.364	56.33
25.382	57.3438
25.4	58.2885
25.418	59.1695
25.436	59.9542
25.454	60.6172
25.472	61.1762
25.49	61.6267
25.508	61.9577
25.526	62.1614
25.544	62.2444
25.562	62.2167
25.58	62.0867
25.598	61.8383
25.616	61.4867
25.634	61.062
25.652	60.5782
25.67	60.0086
25.688	59.3877
25.706	58.7561
25.724	58.1091
25.742	57.4332
25.76	56.7702
25.778	56.1583
25.796	55.5676
25.814	55.012
25.832	54.5333
25.85	54.1588
25.868	53.859
25.886	53.6516
25.904	53.5614
25.922	53.5961
25.94	53.7415
25.958	54.006
25.976	54.3982
25.994	54.9283
26.012	55.5845
26.03	56.3465
26.048	57.1993
26.066	58.1725
26.084	59.2383
26.102	60.3506
26.12	61.4862
26.138	62.6925
26.156	63.9172
26.174	65.0957
26.192	66.2159
26.21	67.3252
26.228	68.3544
26.246	69.2305
26.264	69.9603
26.282	70.5734
26.3	71.0132
26.318	71.2238
26.336	71.223
26.354	71.0217
26.372	70.5917
26.39	69.9055
26.408	68.9617
26.426	67.7786
26.444	66.373
26.462	64.7548
26.48	62.8892
26.498	60.8136
26.516	58.5842
26.534	56.2348
26.552	53.6962
26.57	51.0337
26.588	48.3377
26.606	45.6574
26.624	42.9025
26.642	40.1515
26.66	37.5054
26.678	35.0135
26.696	32.5843
26.714	30.2932
26.732	28.2324
26.75	26.4461
26.768	24.8593
26.786	23.5221
26.804	22.4947
26.822	21.8097
26.84	21.4239
26.858	21.3499
26.876	21.6056
26.894	22.2086
26.912	23.1554
26.93	24.4182
26.948	25.9683
26.966	27.944
26.984	30.5925
27.002	33.3251
27.02	35.5007
27.028	36.0611