File: Bakgrunnsmateriale/MATLAB/FTIR/ftir_data/subBb/Mapping_121/C-4040-8_e126.asc
PE IR       SPECTRUM    SPECTRUM    ASCII       PEDS        1.60
  -1
C-74D3~1.ASC
17/03/27
21:45:55.00
17/03/27
21:46:22.00
tln
$C-4040-8_e0126$<ebV0>[-23.3,12.1,10.0,0.0,27,1,0]
27.028
64

2002,4.07
MIRTGS : RIGHTBACK : INTERNAL 2
MIR : ON : INTERNAL 2
OPTKBR

0.200000
8
8.000000
FILLER
SINGLE
SPECTRUM
UNLOCKED 256

DOUBLE

COMBINED
1
0
0

0.002000
BACKG

1
0
TRUE
51149
0
LEFT NOT FITTED RIGHT NOT FITTED 0
NONE
NONE
15600
12
4.427000
51148
TRUE
1 0 8 72 0 0 0 0

15798

#HDR
-1
-1
#GR
µM
EGY
2.38419e-05
0.0
2.000000
0.002000
12515
8
2.458306
0.003146
#DATA
2.000000	 0.763607
2.018000	 0.781371
2.036000	 0.797940
2.054000	 0.815037
2.072000	 0.845279
2.090000	 0.868667
2.108000	 0.892973
2.126000	 0.900552
2.144000	 0.905253
2.162000	 0.915348
2.180000	 0.938364
2.198000	 0.965759
2.216000	 0.995686
2.234000	 1.005968
2.252000	 1.015750
2.270000	 1.000743
2.288000	 1.052048
2.306000	 1.085154
2.324000	 1.120793
2.342000	 1.146677
2.360000	 1.175630
2.378000	 1.190361
2.396000	 1.201319
2.414000	 1.218116
2.432000	 1.246850
2.450000	 1.282996
2.468000	 1.324954
2.486000	 1.357047
2.504000	 1.389997
2.522000	 1.404375
2.540000	 1.415775
2.558000	 1.422799
2.576000	 1.438217
2.594000	 1.445091
2.612000	 1.491254
2.630000	 1.511390
2.648000	 1.542675
2.666000	 1.542248
2.684000	 1.563252
2.702000	 1.573112
2.720000	 1.563721
2.738000	 1.566052
2.756000	 1.571377
2.774000	 1.587105
2.792000	 1.597879
2.810000	 1.611199
2.828000	 1.620715
2.846000	 1.624106
2.864000	 1.617638
2.882000	 1.604680
2.900000	 1.596030
2.918000	 1.581809
2.936000	 1.589874
2.954000	 1.608073
2.972000	 1.626360
2.990000	 1.654020
3.008000	 1.685232
3.026000	 1.716794
3.044000	 1.742376
3.062000	 1.759759
3.080000	 1.775189
3.098000	 1.786320
3.116000	 1.783985
3.134000	 1.795165
3.152000	 1.795095
3.170000	 1.803699
3.188000	 1.818784
3.206000	 1.844800
3.224000	 1.865018
3.242000	 1.907115
3.260000	 1.931483
3.278000	 1.959528
3.296000	 1.973276
3.314000	 1.958634
3.332000	 2.019820
3.350000	 2.025635
3.368000	 1.965200
3.386000	 1.919620
3.404000	 1.825539
3.422000	 1.781815
3.440000	 1.930381
3.458000	 1.986316
3.476000	 2.000511
3.494000	 1.904544
3.512000	 2.012611
3.530000	 2.099666
3.548000	 2.143190
3.566000	 2.173212
3.584000	 2.191885
3.602000	 2.222632
3.620000	 2.241349
3.638000	 2.249118
3.656000	 2.253552
3.674000	 2.252428
3.692000	 2.246745
3.710000	 2.241001
3.728000	 2.234502
3.746000	 2.222818
3.764000	 2.216946
3.782000	 2.214843
3.800000	 2.217307
3.818000	 2.217997
3.836000	 2.222229
3.854000	 2.228809
3.872000	 2.239324
3.890000	 2.260818
3.908000	 2.274983
3.926000	 2.288823
3.944000	 2.303409
3.962000	 2.316911
3.980000	 2.320286
3.998000	 2.322873
4.016000	 2.319689
4.034000	 2.317613
4.052000	 2.314226
4.070000	 2.304652
4.088000	 2.295835
4.106000	 2.287012
4.124000	 2.279749
4.141999	 2.261877
4.160000	 2.251389
4.178000	 2.249364
4.196000	 2.246477
4.214000	 2.239073
4.232000	 2.233124
4.250000	 2.252801
4.268000	 2.263896
4.286000	 2.274287
4.304000	 2.293466
4.322000	 2.312860
4.340000	 2.331966
4.358000	 2.344927
4.375999	 2.356058
4.394000	 2.363994
4.412000	 2.374154
4.430000	 2.378100
4.448000	 2.380538
4.466000	 2.383615
4.484000	 2.379440
4.502000	 2.374054
4.520000	 2.370593
4.538000	 2.364591
4.556000	 2.356292
4.574000	 2.347743
4.592000	 2.341678
4.609999	 2.335386
4.628000	 2.331061
4.646000	 2.329865
4.664000	 2.334260
4.682000	 2.332439
4.700000	 2.335065
4.718000	 2.337197
4.736000	 2.332989
4.754000	 2.339374
4.772000	 2.340124
4.790000	 2.343250
4.808000	 2.346903
4.826000	 2.344533
4.843999	 2.361113
4.862000	 2.395287
4.880000	 2.409410
4.898000	 2.419033
4.916000	 2.432761
4.934000	 2.440341
4.952000	 2.446486
4.970000	 2.451298
4.988000	 2.456546
5.006000	 2.458267
5.024000	 2.457184
5.042000	 2.451391
5.060000	 2.446351
5.077999	 2.437201
5.096000	 2.432113
5.114000	 2.429791
5.132000	 2.424508
5.150000	 2.415864
5.168000	 2.408370
5.186000	 2.402931
5.204000	 2.396086
5.222000	 2.391784
5.240000	 2.387134
5.258000	 2.378155
5.276000	 2.372681
5.294000	 2.371174
5.312000	 2.373622
5.330000	 2.377466
5.348000	 2.379129
5.366000	 2.384465
5.384000	 2.389973
5.402000	 2.393773
5.420000	 2.392762
5.438000	 2.400151
5.456000	 2.405120
5.474000	 2.408433
5.492000	 2.418908
5.510000	 2.426274
5.528000	 2.430522
5.546000	 2.431414
5.564000	 2.431061
5.582000	 2.429911
5.600000	 2.432004
5.618000	 2.428187
5.636000	 2.416790
5.654000	 2.412203
5.672000	 2.412481
5.690000	 2.406481
5.708000	 2.389452
5.726000	 2.370822
5.744000	 2.350175
5.762000	 2.329782
5.780000	 2.327910
5.798000	 2.328104
5.816000	 2.311064
5.834000	 2.300548
5.852000	 2.293133
5.870000	 2.272052
5.888000	 2.255771
5.906000	 2.259346
5.923999	 2.252372
5.942000	 2.241093
5.960000	 2.238964
5.978000	 2.227599
5.996000	 2.218050
6.014000	 2.210609
6.032000	 2.191950
6.050000	 2.168051
6.068000	 2.162983
6.086000	 2.161278
6.104000	 2.148230
6.122000	 2.137022
6.140000	 2.128525
6.158000	 2.105937
6.176000	 2.069744
6.194000	 2.024631
6.212000	 1.983295
6.230000	 1.973022
6.248000	 1.991871
6.266000	 2.010525
6.284000	 2.017525
6.302000	 2.013112
6.320000	 2.000937
6.338000	 1.987651
6.356000	 1.984079
6.374000	 1.980947
6.392000	 1.961882
6.410000	 1.936679
6.428000	 1.937486
6.446000	 1.953727
6.464000	 1.956550
6.482000	 1.960627
6.500000	 1.998784
6.518000	 2.057961
6.536000	 2.098660
6.554000	 2.112628
6.572000	 2.111626
6.590000	 2.106329
6.608000	 2.097081
6.626000	 2.075472
6.644000	 2.021301
6.662000	 1.894001
6.680000	 1.729803
6.698000	 1.672854
6.716000	 1.760194
6.734000	 1.879606
6.752000	 1.951035
6.770000	 1.974252
6.788000	 1.975215
6.806000	 1.968065
6.824000	 1.947539
6.842000	 1.903653
6.860000	 1.836761
6.878000	 1.775540
6.896000	 1.764028
6.914000	 1.802113
6.932000	 1.842346
6.950000	 1.860506
6.968000	 1.868447
6.986000	 1.873030
7.004000	 1.871772
7.022000	 1.865265
7.040000	 1.856497
7.058000	 1.845640
7.076000	 1.824284
7.094000	 1.784300
7.112000	 1.740072
7.130000	 1.720994
7.148000	 1.735622
7.166000	 1.765425
7.184000	 1.786696
7.202000	 1.788595
7.220000	 1.783315
7.238000	 1.788867
7.256000	 1.802409
7.274000	 1.811923
7.292000	 1.815663
7.310000	 1.816918
7.328000	 1.817112
7.346000	 1.816885
7.364000	 1.815992
7.382000	 1.814181
7.400000	 1.811846
7.418000	 1.810070
7.436000	 1.810415
7.454000	 1.814205
7.472000	 1.821836
7.490000	 1.831528
7.508000	 1.839821
7.526000	 1.844864
7.544000	 1.847737
7.562000	 1.850348
7.580000	 1.853843
7.598000	 1.858016
7.616000	 1.860940
7.634000	 1.860848
7.652000	 1.858473
7.670000	 1.855710
7.688000	 1.854006
7.706000	 1.853444
7.724000	 1.853443
7.742000	 1.853427
7.760000	 1.853224
7.778000	 1.852443
7.796000	 1.849964
7.814000	 1.844495
7.832000	 1.834852
7.850000	 1.819296
7.868000	 1.796019
7.886000	 1.765137
7.904000	 1.734101
7.922000	 1.717051
7.940000	 1.723415
7.958000	 1.748788
7.976000	 1.779417
7.994000	 1.804323
8.012000	 1.820177
8.030000	 1.828708
8.048000	 1.832759
8.065999	 1.834254
8.084000	 1.833991
8.102000	 1.832244
8.120000	 1.829257
8.138000	 1.825217
8.155999	 1.819801
8.173999	 1.812256
8.192000	 1.802098
8.210000	 1.789278
8.228000	 1.775198
8.246000	 1.762083
8.263999	 1.752103
8.282000	 1.746174
8.300000	 1.743757
8.318000	 1.743404
8.336000	 1.743411
8.353999	 1.742805
8.372000	 1.741035
8.390000	 1.738144
8.408000	 1.734077
8.426000	 1.728704
8.443999	 1.722003
8.462000	 1.714475
8.480000	 1.706837
8.498000	 1.699494
8.516000	 1.691826
8.533999	 1.682781
8.552000	 1.672046
8.570000	 1.660288
8.588000	 1.648243
8.606000	 1.636531
8.624000	 1.626158
8.641999	 1.618358
8.660000	 1.613774
8.678000	 1.611392
8.696000	 1.609250
8.714000	 1.605836
8.731999	 1.600980
8.750000	 1.595020
8.768000	 1.588491
8.786000	 1.581602
8.804000	 1.574278
8.821999	 1.566285
8.840000	 1.557139
8.858000	 1.546551
8.876000	 1.534554
8.894000	 1.521685
8.911999	 1.508614
8.930000	 1.495815
8.948000	 1.483516
8.966000	 1.471785
8.984000	 1.460698
9.001999	 1.450503
9.020000	 1.442001
9.038000	 1.436014
9.056000	 1.432676
9.074000	 1.431178
9.092000	 1.430319
9.109999	 1.429471
9.128000	 1.428942
9.146000	 1.429232
9.164000	 1.430485
9.182000	 1.432072
9.199999	 1.433243
9.218000	 1.433302
9.236000	 1.432107
9.254000	 1.430450
9.272000	 1.429145
9.289999	 1.429132
9.308000	 1.430676
9.326000	 1.433293
9.344000	 1.436037
9.362000	 1.438081
9.379999	 1.438882
9.398000	 1.437829
9.416000	 1.433216
9.434000	 1.421966
9.452000	 1.401155
9.469999	 1.371069
9.488000	 1.337632
9.506000	 1.310633
9.524000	 1.298827
9.542000	 1.304947
9.560000	 1.324174
9.577999	 1.347741
9.596000	 1.367880
9.614000	 1.380889
9.632000	 1.386994
9.650000	 1.387998
9.667999	 1.385847
9.686000	 1.381683
9.704000	 1.376299
9.722000	 1.370364
9.740000	 1.364664
9.757999	 1.360225
9.776000	 1.357936
9.794000	 1.358288
9.812000	 1.361209
9.830000	 1.366070
9.847999	 1.371924
9.866000	 1.377927
9.884000	 1.383593
9.902000	 1.388468
9.920000	 1.392612
9.937999	 1.396056
9.956000	 1.398979
9.974000	 1.401224
9.992000	 1.402744
10.01	1.403355
10.028	1.402859
10.046	1.401325
10.064	1.399002
10.082	1.396191
10.1	1.393108
10.118	1.390092
10.136	1.387244
10.154	1.384522
10.172	1.381759
10.19	1.378818
10.208	1.375514
10.226	1.371854
10.244	1.367852
10.262	1.363420
10.28	1.358423
10.298	1.352858
10.316	1.346829
10.334	1.340721
10.352	1.334823
10.37	1.329260
10.388	1.323932
10.406	1.318568
10.424	1.312885
10.442	1.306821
10.46	1.300541
10.478	1.294381
10.496	1.288735
10.514	1.283747
10.532	1.279533
10.55	1.275925
10.568	1.272631
10.586	1.269485
10.604	1.266389
10.622	1.263384
10.64	1.260539
10.658	1.257739
10.676	1.254910
10.694	1.251581
10.712	1.247607
10.73	1.242888
10.748	1.237684
10.766	1.232382
10.784	1.227338
10.802	1.222621
10.82	1.218302
10.838	1.214185
10.856	1.210386
10.874	1.206788
10.892	1.203324
10.91	1.199754
10.928	1.195759
10.946	1.191035
10.964	1.185565
10.982	1.179664
11	1.173918
11.018	1.168990
11.036	1.165181
11.054	1.162523
11.072	1.160743
11.09	1.159205
11.108	1.157566
11.126	1.155393
11.144	1.152695
11.162	1.149560
11.18	1.146006
11.198	1.141838
11.216	1.136908
11.234	1.130846
11.252	1.123313
11.27	1.114198
11.288	1.103554
11.306	1.091661
11.324	1.078957
11.342	1.066147
11.36	1.054074
11.378	1.043648
11.396	1.035765
11.414	1.031023
11.432	1.029728
11.45	1.031805
11.468	1.036728
11.486	1.043742
11.504	1.052010
11.522	1.060630
11.54	1.068886
11.558	1.076152
11.576	1.082081
11.594	1.086528
11.612	1.089413
11.63	1.090927
11.648	1.091337
11.666	1.090903
11.684	1.089938
11.702	1.088635
11.72	1.087248
11.738	1.085931
11.756	1.084684
11.774	1.083561
11.792	1.082427
11.81	1.081111
11.828	1.079460
11.846	1.077211
11.864	1.074192
11.882	1.070049
11.9	1.064467
11.918	1.057144
11.936	1.047469
11.954	1.035043
11.972	1.019421
11.99	1.000464
12.008	0.978495
12.026	0.954186
12.044	0.928819
12.062	0.904034
12.08	0.881804
12.098	0.863969
12.116	0.851997
12.134	0.846758
12.152	0.848254
12.17	0.855574
12.188	0.867282
12.206	0.881498
12.224	0.896275
12.242	0.910135
12.26	0.922052
12.278	0.931514
12.296	0.938486
12.314	0.943316
12.332	0.946426
12.35	0.948262
12.368	0.949118
12.386	0.949420
12.404	0.949329
12.422	0.948984
12.44	0.948625
12.458	0.948301
12.476	0.948066
12.494	0.948069
12.512	0.948394
12.53	0.949054
12.548	0.950172
12.566	0.951894
12.584	0.954147
12.602	0.956990
12.62	0.960327
12.638	0.963973
12.656	0.967776
12.674	0.971455
12.692	0.974775
12.71	0.977675
12.728	0.980000
12.746	0.981771
12.764	0.982908
12.782	0.983577
12.8	0.983756
12.818	0.983552
12.836	0.983056
12.854	0.982356
12.872	0.981488
12.89	0.980464
12.908	0.979355
12.926	0.978154
12.944	0.976881
12.962	0.975534
12.98	0.974165
12.998	0.972804
13.016	0.971470
13.034	0.970245
13.052	0.969180
13.07	0.968279
13.088	0.967539
13.106	0.966959
13.124	0.966434
13.142	0.965857
13.16	0.965168
13.178	0.964252
13.196	0.963143
13.214	0.961744
13.232	0.960190
13.25	0.958514
13.268	0.956742
13.286	0.954960
13.304	0.953210
13.322	0.951517
13.34	0.949849
13.358	0.948252
13.376	0.946733
13.394	0.945340
13.412	0.944091
13.43	0.943005
13.448	0.942077
13.466	0.941278
13.484	0.940500
13.502	0.939651
13.52	0.938606
13.538	0.937267
13.556	0.935540
13.574	0.933418
13.592	0.930926
13.61	0.928048
13.628	0.924894
13.646	0.921584
13.664	0.918169
13.682	0.914771
13.7	0.911386
13.718	0.908079
13.736	0.904915
13.754	0.901847
13.772	0.898805
13.79	0.895880
13.808	0.892990
13.826	0.890146
13.844	0.887347
13.862	0.884640
13.88	0.882063
13.898	0.879608
13.916	0.877252
13.934	0.874985
13.952	0.872798
13.97	0.870624
13.988	0.868326
14.006	0.865953
14.024	0.863402
14.042	0.860636
14.06	0.857697
14.078	0.854566
14.096	0.851293
14.114	0.847862
14.132	0.844319
14.15	0.840727
14.168	0.837077
14.186	0.833424
14.204	0.829782
14.222	0.826171
14.24	0.822552
14.258	0.818928
14.276	0.815265
14.294	0.811479
14.312	0.807490
14.33	0.803210
14.348	0.798482
14.366	0.793274
14.384	0.787494
14.402	0.781186
14.42	0.774446
14.438	0.767443
14.456	0.760392
14.474	0.753539
14.492	0.747190
14.51	0.741608
14.528	0.736970
14.546	0.733404
14.564	0.730958
14.582	0.729573
14.6	0.729096
14.618	0.729363
14.636	0.730101
14.654	0.731095
14.672	0.732144
14.69	0.733065
14.708	0.733723
14.726	0.734077
14.744	0.734066
14.762	0.733691
14.78	0.732983
14.798	0.732006
14.816	0.730838
14.834	0.729511
14.852	0.728110
14.87	0.726626
14.888	0.725110
14.906	0.723590
14.924	0.722004
14.942	0.720427
14.96	0.718846
14.978	0.717222
14.996	0.715553
15.014	0.713896
15.032	0.712189
15.05	0.710470
15.068	0.708732
15.086	0.706970
15.104	0.705199
15.122	0.703421
15.14	0.701612
15.158	0.699737
15.176	0.697784
15.194	0.695816
15.212	0.693779
15.23	0.691684
15.248	0.689538
15.266	0.687340
15.284	0.685036
15.302	0.682699
15.32	0.680334
15.338	0.677938
15.356	0.675589
15.374	0.673230
15.392	0.670874
15.41	0.668551
15.428	0.666312
15.446	0.664102
15.464	0.661942
15.482	0.659838
15.5	0.657760
15.518	0.655744
15.536	0.653768
15.554	0.651824
15.572	0.649928
15.59	0.648048
15.608	0.646192
15.626	0.644368
15.644	0.642574
15.662	0.640813
15.68	0.639069
15.698	0.637325
15.716	0.635589
15.734	0.633839
15.752	0.632052
15.77	0.630200
15.788	0.628318
15.806	0.626396
15.824	0.624426
15.842	0.622395
15.86	0.620316
15.878	0.618205
15.896	0.616078
15.914	0.613928
15.932	0.611777
15.95	0.609631
15.968	0.607469
15.986	0.605349
16.004	0.603257
16.022	0.601163
16.04	0.599097
16.058	0.597067
16.076	0.595078
16.094	0.593119
16.112	0.591161
16.13	0.589193
16.148	0.587221
16.166	0.585231
16.184	0.583180
16.202	0.580997
16.22	0.578691
16.238	0.576235
16.256	0.573603
16.274	0.570775
16.292	0.567761
16.31	0.564569
16.328	0.561171
16.346	0.557641
16.364	0.554034
16.382	0.550434
16.4	0.546892
16.418	0.543456
16.436	0.540231
16.454	0.537268
16.472	0.534607
16.49	0.532315
16.508	0.530399
16.526	0.528863
16.544	0.527662
16.562	0.526777
16.58	0.526191
16.598	0.525808
16.616	0.525603
16.634	0.525555
16.652	0.525520
16.67	0.525494
16.688	0.525478
16.706	0.525361
16.724	0.525141
16.742	0.524826
16.76	0.524391
16.778	0.523846
16.796	0.523229
16.814	0.522541
16.832	0.521789
16.85	0.521001
16.868	0.520186
16.886	0.519355
16.904	0.518537
16.922	0.517728
16.94	0.516916
16.958	0.516123
16.976	0.515351
16.994	0.514600
17.012	0.513869
17.03	0.513159
17.048	0.512461
17.066	0.511768
17.084	0.511062
17.102	0.510356
17.12	0.509653
17.138	0.508938
17.156	0.508225
17.174	0.507529
17.192	0.506816
17.21	0.506088
17.228	0.505366
17.246	0.504639
17.264	0.503902
17.282	0.503176
17.3	0.502460
17.318	0.501742
17.336	0.501032
17.354	0.500332
17.372	0.499642
17.39	0.498963
17.408	0.498302
17.426	0.497665
17.444	0.497057
17.462	0.496467
17.48	0.495894
17.498	0.495328
17.516	0.494775
17.534	0.494246
17.552	0.493712
17.57	0.493168
17.588	0.492620
17.606	0.492060
17.624	0.491479
17.642	0.490856
17.66	0.490180
17.678	0.489486
17.696	0.488769
17.714	0.487989
17.732	0.487161
17.75	0.486302
17.768	0.485399
17.786	0.484449
17.804	0.483463
17.822	0.482441
17.84	0.481381
17.858	0.480289
17.876	0.479170
17.894	0.478022
17.912	0.476845
17.93	0.475654
17.948	0.474451
17.966	0.473242
17.984	0.472032
18.002	0.470842
18.02	0.469677
18.038	0.468548
18.056	0.467444
18.074	0.466359
18.092	0.465320
18.11	0.464329
18.128	0.463374
18.146	0.462457
18.164	0.461580
18.182	0.460735
18.2	0.459906
18.218	0.459109
18.236	0.458358
18.254	0.457619
18.272	0.456887
18.29	0.456155
18.308	0.455423
18.326	0.454705
18.344	0.453992
18.362	0.453254
18.38	0.452498
18.398	0.451735
18.416	0.450954
18.434	0.450144
18.452	0.449309
18.47	0.448456
18.488	0.447559
18.506	0.446598
18.524	0.445614
18.542	0.444621
18.56	0.443596
18.578	0.442536
18.596	0.441465
18.614	0.440384
18.632	0.439308
18.65	0.438235
18.668	0.437146
18.686	0.436047
18.704	0.434971
18.722	0.433908
18.74	0.432834
18.758	0.431758
18.776	0.430696
18.794	0.429639
18.812	0.428578
18.83	0.427508
18.848	0.426418
18.866	0.425314
18.884	0.424199
18.902	0.423077
18.92	0.421951
18.938	0.420824
18.956	0.419700
18.974	0.418579
18.992	0.417459
19.01	0.416342
19.028	0.415227
19.046	0.414113
19.064	0.413005
19.082	0.411895
19.1	0.410772
19.118	0.409639
19.136	0.408501
19.154	0.407348
19.172	0.406163
19.19	0.404953
19.208	0.403725
19.226	0.402476
19.244	0.401195
19.262	0.399891
19.28	0.398590
19.298	0.397287
19.316	0.395973
19.334	0.394649
19.352	0.393322
19.37	0.391991
19.388	0.390674
19.406	0.389373
19.424	0.388085
19.442	0.386810
19.46	0.385549
19.478	0.384300
19.496	0.383065
19.514	0.381844
19.532	0.380632
19.55	0.379425
19.568	0.378229
19.586	0.377049
19.604	0.375878
19.622	0.374708
19.64	0.373539
19.658	0.372363
19.676	0.371183
19.694	0.370026
19.712	0.368892
19.73	0.367750
19.748	0.366594
19.766	0.365435
19.784	0.364277
19.802	0.363110
19.82	0.361928
19.838	0.360732
19.856	0.359519
19.874	0.358287
19.892	0.357019
19.91	0.355719
19.928	0.354382
19.946	0.353008
19.964	0.351594
19.982	0.350140
20	0.348639
20.018	0.347084
20.036	0.345480
20.054	0.343830
20.072	0.342136
20.09	0.340414
20.108	0.338661
20.126	0.336887
20.144	0.335090
20.162	0.333285
20.18	0.331483
20.198	0.329681
20.216	0.327879
20.234	0.326082
20.252	0.324314
20.27	0.322573
20.288	0.320867
20.306	0.319203
20.324	0.317563
20.342	0.315928
20.36	0.314315
20.378	0.312749
20.396	0.311224
20.414	0.309719
20.432	0.308233
20.45	0.306764
20.468	0.305313
20.486	0.303874
20.504	0.302440
20.522	0.301012
20.54	0.299591
20.558	0.298178
20.576	0.296769
20.594	0.295362
20.612	0.293956
20.63	0.292554
20.648	0.291153
20.666	0.289755
20.684	0.288361
20.702	0.286967
20.72	0.285567
20.738	0.284166
20.756	0.282779
20.774	0.281404
20.792	0.280040
20.81	0.278688
20.828	0.277345
20.846	0.275999
20.864	0.274655
20.882	0.273323
20.9	0.272003
20.918	0.270691
20.936	0.269383
20.954	0.268081
20.972	0.266795
20.99	0.265524
21.008	0.264267
21.026	0.263023
21.044	0.261794
21.062	0.260584
21.08	0.259393
21.098	0.258216
21.116	0.257049
21.134	0.255898
21.152	0.254777
21.17	0.253684
21.188	0.252606
21.206	0.251538
21.224	0.250484
21.242	0.249443
21.26	0.248414
21.278	0.247399
21.296	0.246401
21.314	0.245412
21.332	0.244423
21.35	0.243434
21.368	0.242445
21.386	0.241459
21.404	0.240467
21.422	0.239444
21.44	0.238393
21.458	0.237323
21.476	0.236245
21.494	0.235148
21.512	0.234015
21.53	0.232848
21.548	0.231641
21.566	0.230385
21.584	0.229085
21.602	0.227741
21.62	0.226353
21.638	0.224922
21.656	0.223447
21.674	0.221929
21.692	0.220368
21.71	0.218760
21.728	0.217113
21.746	0.215435
21.764	0.213725
21.782	0.211986
21.8	0.210215
21.818	0.208411
21.836	0.206611
21.854	0.204818
21.872	0.203030
21.89	0.201257
21.908	0.199494
21.926	0.197752
21.944	0.196037
21.962	0.194347
21.98	0.192702
21.998	0.191105
22.016	0.189556
22.034	0.188064
22.052	0.186628
22.07	0.185247
22.088	0.183921
22.106	0.182648
22.124	0.181429
22.142	0.180265
22.16	0.179153
22.178	0.178092
22.196	0.177085
22.214	0.176121
22.232	0.175186
22.25	0.174286
22.268	0.173412
22.286	0.172561
22.304	0.171735
22.322	0.170920
22.34	0.170113
22.358	0.169315
22.376	0.168526
22.394	0.167747
22.412	0.166972
22.43	0.166188
22.448	0.165398
22.466	0.164603
22.484	0.163805
22.502	0.163005
22.52	0.162192
22.538	0.161362
22.556	0.160519
22.574	0.159662
22.592	0.158790
22.61	0.157906
22.628	0.157011
22.646	0.156107
22.664	0.155192
22.682	0.154267
22.7	0.153329
22.718	0.152384
22.736	0.151437
22.754	0.150486
22.772	0.149530
22.79	0.148566
22.808	0.147592
22.826	0.146615
22.844	0.145640
22.862	0.144665
22.88	0.143684
22.898	0.142693
22.916	0.141694
22.934	0.140694
22.952	0.139696
22.97	0.138698
22.988	0.137691
23.006	0.136670
23.024	0.135641
23.042	0.134604
23.06	0.133564
23.078	0.132517
23.096	0.131457
23.114	0.130383
23.132	0.129298
23.15	0.128203
23.168	0.127100
23.186	0.125987
23.204	0.124869
23.222	0.123745
23.24	0.122615
23.258	0.121478
23.276	0.120334
23.294	0.119184
23.312	0.118034
23.33	0.116883
23.348	0.115732
23.366	0.114582
23.384	0.113436
23.402	0.112291
23.42	0.111147
23.438	0.110005
23.456	0.108864
23.474	0.107728
23.492	0.106595
23.51	0.105465
23.528	0.104347
23.546	0.103245
23.564	0.102155
23.582	0.101073
23.6	0.099994
23.618	0.098920
23.636	0.097857
23.654	0.096808
23.672	0.095770
23.69	0.094744
23.708	0.093728
23.726	0.092723
23.744	0.091731
23.762	0.090753
23.78	0.089788
23.798	0.088838
23.816	0.087904
23.834	0.086984
23.852	0.086081
23.87	0.085200
23.888	0.084342
23.906	0.083503
23.924	0.082682
23.942	0.081879
23.96	0.081095
23.978	0.080323
23.996	0.079562
24.014	0.078813
24.032	0.078079
24.05	0.077361
24.068	0.076659
24.086	0.075970
24.104	0.075294
24.122	0.074634
24.14	0.073983
24.158	0.073333
24.176	0.072684
24.194	0.072039
24.212	0.071396
24.23	0.070757
24.248	0.070121
24.266	0.069489
24.284	0.068860
24.302	0.068237
24.32	0.067614
24.338	0.066985
24.356	0.066352
24.374	0.065715
24.392	0.065072
24.41	0.064429
24.428	0.063779
24.446	0.063113
24.464	0.062422
24.482	0.061711
24.5	0.060984
24.518	0.060242
24.536	0.059489
24.554	0.058716
24.572	0.057918
24.59	0.057094
24.608	0.056247
24.626	0.055371
24.644	0.054465
24.662	0.053528
24.68	0.052567
24.698	0.051587
24.716	0.050582
24.734	0.049558
24.752	0.048521
24.77	0.047469
24.788	0.046402
24.806	0.045335
24.824	0.044275
24.842	0.043212
24.86	0.042160
24.878	0.041137
24.896	0.040136
24.914	0.039160
24.932	0.038218
24.95	0.037318
24.968	0.036452
24.986	0.035628
25.004	0.034856
25.022	0.034133
25.04	0.033459
25.058	0.032838
25.076	0.032274
25.094	0.031766
25.112	0.031308
25.13	0.030899
25.148	0.030545
25.166	0.030239
25.184	0.029967
25.202	0.029725
25.22	0.029520
25.238	0.029341
25.256	0.029175
25.274	0.029029
25.292	0.028901
25.31	0.028776
25.328	0.028646
25.346	0.028522
25.364	0.028391
25.382	0.028240
25.4	0.028071
25.418	0.027887
25.436	0.027679
25.454	0.027442
25.472	0.027176
25.49	0.026886
25.508	0.026575
25.526	0.026241
25.544	0.025883
25.562	0.025510
25.58	0.025127
25.598	0.024730
25.616	0.024322
25.634	0.023908
25.652	0.023490
25.67	0.023064
25.688	0.022636
25.706	0.022218
25.724	0.021810
25.742	0.021408
25.76	0.021017
25.778	0.020644
25.796	0.020286
25.814	0.019943
25.832	0.019615
25.85	0.019305
25.868	0.019014
25.886	0.018738
25.904	0.018470
25.922	0.018207
25.94	0.017954
25.958	0.017710
25.976	0.017474
25.994	0.017253
26.012	0.017042
26.03	0.016831
26.048	0.016610
26.066	0.016386
26.084	0.016156
26.102	0.015915
26.12	0.015657
26.138	0.015387
26.156	0.015103
26.174	0.014803
26.192	0.014486
26.21	0.014152
26.228	0.013803
26.246	0.013437
26.264	0.013053
26.282	0.012651
26.3	0.012238
26.318	0.011822
26.336	0.011400
26.354	0.010972
26.372	0.010542
26.39	0.010115
26.408	0.009687
26.426	0.009261
26.444	0.008838
26.462	0.008422
26.48	0.008007
26.498	0.007597
26.516	0.007202
26.534	0.006829
26.552	0.006472
26.57	0.006131
26.588	0.005807
26.606	0.005501
26.624	0.005211
26.642	0.004938
26.66	0.004688
26.678	0.004462
26.696	0.004260
26.714	0.004078
26.732	0.003913
26.75	0.003763
26.768	0.003629
26.786	0.003511
26.804	0.003412
26.822	0.003334
26.84	0.003277
26.858	0.003236
26.876	0.003204
26.894	0.003176
26.912	0.003158
26.93	0.003148
26.948	0.003146
26.966	0.003152
26.984	0.003171
27.002	0.003194
27.02	0.003214
27.028	0.003218