File: Bakgrunnsmateriale/MATLAB/FTIR/ftir_data/subBb/Mapping_121/C-4040-8_t28.asc
PE IR       SPECTRUM    SPECTRUM    ASCII       PEDS        1.60
  -1
C-CD2A~1.ASC
17/03/27
16:47:54.00
17/03/27
16:48:20.00
tln
$C-4040-8_t0028$<tbV0>[0.0,-7.8,8.0,0.0,27,1,0]
27.028
64

2002,4.07
MIRTGS : RIGHTBACK : INTERNAL 2
MIR : ON : INTERNAL 2
OPTKBR

0.200000
8
8.000000
FILLER
RATIO
SPECTRUM
UNLOCKED 256

DOUBLE
64
COMBINED
1
0
0

0.002000
RATIO

1
0
TRUE
51149
0
LEFT NOT FITTED RIGHT NOT FITTED 0
NONE
NONE
15600
12
4.427000
51148
TRUE
1 0 8 72 0 0 0 0

15798

#HDR
-1
-1
#GR
µM
%T
2.38419e-05
0.0
2.000000
0.002000
12515
8
68.9672
22.7881
#DATA
2.000000	 63.6191
2.018000	 63.8557
2.036000	 63.7035
2.054000	 63.7281
2.072000	 64.0667
2.090000	 63.7888
2.108000	 63.7212
2.126000	 63.7094
2.144000	 64.1924
2.162000	 63.9097
2.180000	 63.7707
2.198000	 63.4819
2.216000	 64.082
2.234000	 63.6056
2.252000	 63.4946
2.270000	 62.8182
2.288000	 66.1565
2.306000	 64.0054
2.324000	 63.601
2.342000	 63.5459
2.360000	 63.1921
2.378000	 63.4064
2.396000	 63.4606
2.414000	 63.3237
2.432000	 62.9613
2.450000	 63.2285
2.468000	 63.115
2.486000	 63.256
2.504000	 62.8921
2.522000	 63.1904
2.540000	 63.1115
2.558000	 63.0019
2.576000	 62.9423
2.594000	 62.8224
2.612000	 62.4427
2.630000	 62.7949
2.648000	 62.5896
2.666000	 62.7118
2.684000	 62.7484
2.702000	 62.6346
2.720000	 62.4909
2.738000	 62.3913
2.756000	 62.3283
2.774000	 62.2638
2.792000	 62.2782
2.810000	 62.1475
2.828000	 62.2103
2.846000	 62.291
2.864000	 62.0355
2.882000	 62.0886
2.900000	 61.9367
2.918000	 61.8471
2.936000	 61.9013
2.954000	 61.6004
2.972000	 61.4345
2.990000	 61.411
3.008000	 61.1805
3.026000	 61.4218
3.044000	 61.3661
3.062000	 61.1283
3.080000	 61.2015
3.098000	 60.9705
3.116000	 60.8798
3.134000	 60.7346
3.152000	 60.8618
3.170000	 60.6417
3.188000	 60.6009
3.206000	 60.627
3.224000	 60.5241
3.242000	 60.3822
3.260000	 60.3708
3.278000	 60.264
3.296000	 60.3341
3.314000	 60.0991
3.332000	 59.921
3.350000	 59.993
3.368000	 60.1072
3.386000	 59.6653
3.404000	 59.4707
3.422000	 59.2855
3.440000	 59.3188
3.458000	 59.5401
3.476000	 59.3504
3.494000	 59.2065
3.512000	 59.1001
3.530000	 59.2133
3.548000	 59.0766
3.566000	 59.1577
3.584000	 59.0408
3.602000	 58.9068
3.620000	 58.8081
3.638000	 58.8083
3.656000	 58.5841
3.674000	 58.6877
3.692000	 58.4684
3.710000	 58.4718
3.728000	 58.2413
3.746000	 58.2877
3.764000	 58.2286
3.782000	 57.9644
3.800000	 58.0341
3.818000	 57.9114
3.836000	 57.8606
3.854000	 57.7759
3.872000	 57.7577
3.890000	 57.7195
3.908000	 57.5662
3.926000	 57.5076
3.944000	 57.3767
3.962000	 57.3687
3.980000	 57.1887
3.998000	 57.0512
4.016000	 56.9594
4.034000	 56.9907
4.052000	 57.0093
4.070000	 56.7357
4.088000	 56.8033
4.106000	 56.6682
4.124000	 56.5037
4.141999	 56.8969
4.160000	 56.4357
4.178000	 56.4569
4.196000	 56.2639
4.214000	 56.3503
4.232000	 56.1973
4.250000	 56.1087
4.268000	 56.0489
4.286000	 56.0017
4.304000	 55.9101
4.322000	 55.8807
4.340000	 55.7969
4.358000	 55.6866
4.375999	 55.737
4.394000	 55.5932
4.412000	 55.4596
4.430000	 55.4066
4.448000	 55.5063
4.466000	 55.2338
4.484000	 55.2848
4.502000	 55.0544
4.520000	 55.0902
4.538000	 55.0664
4.556000	 54.9562
4.574000	 54.8647
4.592000	 54.8705
4.609999	 54.8283
4.628000	 54.6448
4.646000	 54.5332
4.664000	 54.6477
4.682000	 54.5479
4.700000	 54.4856
4.718000	 54.4599
4.736000	 54.4498
4.754000	 54.2854
4.772000	 54.0685
4.790000	 54.1731
4.808000	 54.1809
4.826000	 53.8604
4.843999	 53.9707
4.862000	 53.9782
4.880000	 53.7546
4.898000	 53.6835
4.916000	 53.5695
4.934000	 53.5565
4.952000	 53.4852
4.970000	 53.4368
4.988000	 53.3816
5.006000	 53.405
5.024000	 53.3453
5.042000	 53.2016
5.060000	 53.0886
5.077999	 52.9895
5.096000	 52.9984
5.114000	 52.976
5.132000	 52.8288
5.150000	 52.9013
5.168000	 52.9148
5.186000	 52.8177
5.204000	 52.6311
5.222000	 52.5752
5.240000	 52.5055
5.258000	 52.4194
5.276000	 52.4632
5.294000	 52.3589
5.312000	 52.2644
5.330000	 52.2938
5.348000	 52.213
5.366000	 52.1923
5.384000	 52.1931
5.402000	 52.0351
5.420000	 51.9643
5.438000	 51.9821
5.456000	 51.9211
5.474000	 51.9231
5.492000	 51.9391
5.510000	 51.7765
5.528000	 51.6609
5.546000	 51.6275
5.564000	 51.6033
5.582000	 51.4871
5.600000	 51.3919
5.618000	 51.3031
5.636000	 51.3141
5.654000	 51.3427
5.672000	 51.3051
5.690000	 51.1459
5.708000	 51.0701
5.726000	 51.0456
5.744000	 50.9897
5.762000	 50.8791
5.780000	 50.7918
5.798000	 50.6399
5.816000	 50.4956
5.834000	 50.5468
5.852000	 50.6689
5.870000	 50.7123
5.888000	 50.6935
5.906000	 50.6426
5.923999	 50.5628
5.942000	 50.4624
5.960000	 50.4706
5.978000	 50.5443
5.996000	 50.4663
6.014000	 50.3255
6.032000	 50.2723
6.050000	 50.293
6.068000	 50.273
6.086000	 50.1741
6.104000	 50.093
6.122000	 50.0879
6.140000	 50.0396
6.158000	 49.994
6.176000	 49.9668
6.194000	 49.925
6.212000	 49.8921
6.230000	 49.8468
6.248000	 49.7908
6.266000	 49.7499
6.284000	 49.718
6.302000	 49.6573
6.320000	 49.6007
6.338000	 49.5391
6.356000	 49.4804
6.374000	 49.4932
6.392000	 49.4812
6.410000	 49.4528
6.428000	 49.4639
6.446000	 49.3577
6.464000	 49.1323
6.482000	 49.0098
6.500000	 49.0501
6.518000	 49.1413
6.536000	 49.1551
6.554000	 49.0471
6.572000	 48.9263
6.590000	 48.9072
6.608000	 48.9467
6.626000	 48.9872
6.644000	 49.0014
6.662000	 48.9646
6.680000	 48.9126
6.698000	 48.8497
6.716000	 48.7636
6.734000	 48.7141
6.752000	 48.6902
6.770000	 48.6685
6.788000	 48.6584
6.806000	 48.6272
6.824000	 48.5711
6.842000	 48.5429
6.860000	 48.5369
6.878000	 48.4711
6.896000	 48.4047
6.914000	 48.4001
6.932000	 48.3166
6.950000	 48.2414
6.968000	 48.3325
6.986000	 48.3766
7.004000	 48.2497
7.022000	 48.1358
7.040000	 48.0796
7.058000	 48.0026
7.076000	 47.9378
7.094000	 47.896
7.112000	 47.8416
7.130000	 47.8199
7.148000	 47.848
7.166000	 47.8456
7.184000	 47.787
7.202000	 47.7191
7.220000	 47.6638
7.238000	 47.6423
7.256000	 47.6768
7.274000	 47.709
7.292000	 47.6682
7.310000	 47.5917
7.328000	 47.5494
7.346000	 47.5389
7.364000	 47.5211
7.382000	 47.4602
7.400000	 47.3561
7.418000	 47.2762
7.436000	 47.2673
7.454000	 47.2905
7.472000	 47.3001
7.490000	 47.2808
7.508000	 47.2225
7.526000	 47.1455
7.544000	 47.0889
7.562000	 47.0628
7.580000	 47.0557
7.598000	 47.0589
7.616000	 47.0645
7.634000	 47.057
7.652000	 47.0121
7.670000	 46.9267
7.688000	 46.8418
7.706000	 46.7992
7.724000	 46.7886
7.742000	 46.7667
7.760000	 46.7168
7.778000	 46.6684
7.796000	 46.6537
7.814000	 46.6535
7.832000	 46.6132
7.850000	 46.5238
7.868000	 46.4459
7.886000	 46.4344
7.904000	 46.4872
7.922000	 46.5598
7.940000	 46.6001
7.958000	 46.596
7.976000	 46.5907
7.994000	 46.6185
8.012000	 46.6466
8.030000	 46.6141
8.048000	 46.5055
8.065999	 46.369
8.084000	 46.2812
8.102000	 46.2754
8.120000	 46.3028
8.138000	 46.2942
8.155999	 46.2478
8.173999	 46.216
8.192000	 46.2134
8.210000	 46.2015
8.228000	 46.1595
8.246000	 46.1169
8.263999	 46.0956
8.282000	 46.0681
8.300000	 46.0088
8.318000	 45.9456
8.336000	 45.9226
8.353999	 45.9387
8.372000	 45.9532
8.390000	 45.9308
8.408000	 45.8632
8.426000	 45.7684
8.443999	 45.6821
8.462000	 45.6427
8.480000	 45.659
8.498000	 45.6912
8.516000	 45.6784
8.533999	 45.5975
8.552000	 45.4923
8.570000	 45.431
8.588000	 45.4355
8.606000	 45.4716
8.624000	 45.4982
8.641999	 45.5052
8.660000	 45.4941
8.678000	 45.452
8.696000	 45.3719
8.714000	 45.2803
8.731999	 45.2261
8.750000	 45.2411
8.768000	 45.3078
8.786000	 45.3655
8.804000	 45.3594
8.821999	 45.2915
8.840000	 45.2134
8.858000	 45.1659
8.876000	 45.1343
8.894000	 45.0787
8.911999	 44.9984
8.930000	 44.9432
8.948000	 44.9505
8.966000	 44.9977
8.984000	 45.0306
9.001999	 45.0295
9.020000	 45.0228
9.038000	 45.0398
9.056000	 45.0792
9.074000	 45.1156
9.092000	 45.1269
9.109999	 45.0999
9.128000	 45.0294
9.146000	 44.9305
9.164000	 44.8483
9.182000	 44.8352
9.199999	 44.9087
9.218000	 45.0261
9.236000	 45.1019
9.254000	 45.0566
9.272000	 44.8683
9.289999	 44.5891
9.308000	 44.307
9.326000	 44.089
9.344000	 43.9546
9.362000	 43.8933
9.379999	 43.9007
9.398000	 43.9807
9.416000	 44.1204
9.434000	 44.2741
9.452000	 44.3904
9.469999	 44.4573
9.488000	 44.5171
9.506000	 44.6226
9.524000	 44.7806
9.542000	 44.9338
9.560000	 45.0045
9.577999	 44.9531
9.596000	 44.8054
9.614000	 44.6308
9.632000	 44.4955
9.650000	 44.4235
9.667999	 44.3905
9.686000	 44.3474
9.704000	 44.2553
9.722000	 44.1151
9.740000	 43.9705
9.757999	 43.8889
9.776000	 43.9233
9.794000	 44.0779
9.812000	 44.2957
9.830000	 44.4798
9.847999	 44.5408
9.866000	 44.4442
9.884000	 44.2302
9.902000	 43.9897
9.920000	 43.814
9.937999	 43.7468
9.956000	 43.7681
9.974000	 43.8205
9.992000	 43.8479
10.01	43.8245
10.028	43.7616
10.046	43.6937
10.064	43.6569
10.082	43.6721
10.1	43.736
10.118	43.8194
10.136	43.8812
10.154	43.8875
10.172	43.8263
10.19	43.7149
10.208	43.5893
10.226	43.485
10.244	43.4236
10.262	43.4048
10.28	43.413
10.298	43.4279
10.316	43.4308
10.334	43.4096
10.352	43.36
10.37	43.2864
10.388	43.2013
10.406	43.1237
10.424	43.075
10.442	43.0694
10.46	43.1059
10.478	43.1667
10.496	43.2251
10.514	43.2599
10.532	43.2641
10.55	43.2442
10.568	43.2117
10.586	43.1754
10.604	43.1378
10.622	43.0997
10.64	43.0651
10.658	43.0406
10.676	43.0313
10.694	43.0348
10.712	43.0413
10.73	43.0392
10.748	43.0219
10.766	42.992
10.784	42.9579
10.802	42.9305
10.82	42.9165
10.838	42.9177
10.856	42.9306
10.874	42.9477
10.892	42.959
10.91	42.9542
10.928	42.9254
10.946	42.8706
10.964	42.7964
10.982	42.717
11	42.6498
11.018	42.6086
11.036	42.5974
11.054	42.6092
11.072	42.6308
11.09	42.6482
11.108	42.6542
11.126	42.6497
11.144	42.641
11.162	42.6354
11.18	42.6354
11.198	42.6375
11.216	42.6347
11.234	42.6214
11.252	42.5952
11.27	42.5585
11.288	42.5168
11.306	42.4753
11.324	42.439
11.342	42.4114
11.36	42.3952
11.378	42.3913
11.396	42.3973
11.414	42.4074
11.432	42.4135
11.45	42.4088
11.468	42.3908
11.486	42.3635
11.504	42.3354
11.522	42.3148
11.54	42.3037
11.558	42.2959
11.576	42.2788
11.594	42.2408
11.612	42.1764
11.63	42.0915
11.648	42.0008
11.666	41.9233
11.684	41.8751
11.702	41.8627
11.72	41.882
11.738	41.9203
11.756	41.9616
11.774	41.9914
11.792	42.0004
11.81	41.9856
11.828	41.9499
11.846	41.9001
11.864	41.8451
11.882	41.7941
11.9	41.7552
11.918	41.7337
11.936	41.7312
11.954	41.745
11.972	41.7685
11.99	41.793
12.008	41.8097
12.026	41.8125
12.044	41.799
12.062	41.771
12.08	41.7338
12.098	41.6936
12.116	41.6558
12.134	41.6232
12.152	41.5957
12.17	41.5721
12.188	41.5508
12.206	41.5312
12.224	41.5138
12.242	41.5008
12.26	41.4935
12.278	41.4925
12.296	41.4967
12.314	41.5037
12.332	41.5102
12.35	41.5131
12.368	41.5099
12.386	41.4991
12.404	41.4803
12.422	41.4544
12.44	41.4227
12.458	41.3869
12.476	41.3489
12.494	41.3104
12.512	41.2722
12.53	41.2349
12.548	41.1981
12.566	41.1611
12.584	41.1223
12.602	41.08
12.62	41.0333
12.638	40.9828
12.656	40.9301
12.674	40.8785
12.692	40.831
12.71	40.7898
12.728	40.7553
12.746	40.7261
12.764	40.699
12.782	40.6713
12.8	40.641
12.818	40.6076
12.836	40.5723
12.854	40.5374
12.872	40.5047
12.89	40.4754
12.908	40.4496
12.926	40.4265
12.944	40.4049
12.962	40.3846
12.98	40.3667
12.998	40.3534
13.016	40.3476
13.034	40.3513
13.052	40.3653
13.07	40.3878
13.088	40.4147
13.106	40.44
13.124	40.4573
13.142	40.4609
13.16	40.4465
13.178	40.4119
13.196	40.3582
13.214	40.289
13.232	40.2103
13.25	40.1294
13.268	40.0544
13.286	39.9921
13.304	39.9476
13.322	39.9231
13.34	39.9177
13.358	39.9273
13.376	39.9458
13.394	39.966
13.412	39.9811
13.43	39.9859
13.448	39.9782
13.466	39.9582
13.484	39.9292
13.502	39.8961
13.52	39.8647
13.538	39.84
13.556	39.8255
13.574	39.8226
13.592	39.8306
13.61	39.8468
13.628	39.8672
13.646	39.8873
13.664	39.9029
13.682	39.9103
13.7	39.9073
13.718	39.8932
13.736	39.8691
13.754	39.837
13.772	39.7999
13.79	39.761
13.808	39.7239
13.826	39.6915
13.844	39.6661
13.862	39.6492
13.88	39.6412
13.898	39.6415
13.916	39.6483
13.934	39.6591
13.952	39.6706
13.97	39.6793
13.988	39.6814
14.006	39.6746
14.024	39.6575
14.042	39.6304
14.06	39.5948
14.078	39.5536
14.096	39.5101
14.114	39.4676
14.132	39.4286
14.15	39.3942
14.168	39.3646
14.186	39.3381
14.204	39.3123
14.222	39.2841
14.24	39.2508
14.258	39.2106
14.276	39.1629
14.294	39.1082
14.312	39.0486
14.33	38.9866
14.348	38.9254
14.366	38.8681
14.384	38.817
14.402	38.7734
14.42	38.7374
14.438	38.7082
14.456	38.6842
14.474	38.6633
14.492	38.6432
14.51	38.6218
14.528	38.5976
14.546	38.5696
14.564	38.5381
14.582	38.5035
14.6	38.4668
14.618	38.4292
14.636	38.3921
14.654	38.3561
14.672	38.3219
14.69	38.2894
14.708	38.2589
14.726	38.2302
14.744	38.2038
14.762	38.1802
14.78	38.1605
14.798	38.1463
14.816	38.1388
14.834	38.1396
14.852	38.15
14.87	38.1702
14.888	38.1997
14.906	38.2375
14.924	38.2814
14.942	38.3288
14.96	38.3761
14.978	38.4199
14.996	38.4569
15.014	38.484
15.032	38.4988
15.05	38.4999
15.068	38.487
15.086	38.4606
15.104	38.4221
15.122	38.3742
15.14	38.3198
15.158	38.2618
15.176	38.203
15.194	38.1465
15.212	38.0944
15.23	38.0482
15.248	38.0087
15.266	37.9761
15.284	37.9498
15.302	37.9289
15.32	37.912
15.338	37.8979
15.356	37.8848
15.374	37.8714
15.392	37.8565
15.41	37.8396
15.428	37.8199
15.446	37.7977
15.464	37.7731
15.482	37.7469
15.5	37.7202
15.518	37.6942
15.536	37.6702
15.554	37.6493
15.572	37.6326
15.59	37.6207
15.608	37.6136
15.626	37.6109
15.644	37.6117
15.662	37.6141
15.68	37.6165
15.698	37.6171
15.716	37.614
15.734	37.6057
15.752	37.5917
15.77	37.5716
15.788	37.546
15.806	37.5162
15.824	37.4836
15.842	37.4501
15.86	37.4181
15.878	37.3892
15.896	37.3649
15.914	37.3463
15.932	37.3338
15.95	37.3271
15.968	37.3259
15.986	37.3286
16.004	37.3343
16.022	37.3418
16.04	37.3497
16.058	37.3572
16.076	37.3641
16.094	37.3701
16.112	37.3759
16.13	37.3819
16.148	37.3889
16.166	37.3978
16.184	37.4089
16.202	37.4224
16.22	37.438
16.238	37.455
16.256	37.4728
16.274	37.4896
16.292	37.5044
16.31	37.516
16.328	37.5232
16.346	37.5258
16.364	37.5238
16.382	37.5176
16.4	37.5083
16.418	37.4969
16.436	37.485
16.454	37.4741
16.472	37.4651
16.49	37.4591
16.508	37.4558
16.526	37.4552
16.544	37.4559
16.562	37.4563
16.58	37.4548
16.598	37.4489
16.616	37.4367
16.634	37.4166
16.652	37.387
16.67	37.3474
16.688	37.2976
16.706	37.2383
16.724	37.1707
16.742	37.0963
16.76	37.0179
16.778	36.9369
16.796	36.8562
16.814	36.7782
16.832	36.7044
16.85	36.6371
16.868	36.5772
16.886	36.5253
16.904	36.4818
16.922	36.4464
16.94	36.419
16.958	36.3988
16.976	36.3853
16.994	36.377
17.012	36.3731
17.03	36.3732
17.048	36.3766
17.066	36.3832
17.084	36.3931
17.102	36.4062
17.12	36.4225
17.138	36.4424
17.156	36.466
17.174	36.4934
17.192	36.5242
17.21	36.558
17.228	36.594
17.246	36.6308
17.264	36.6677
17.282	36.7023
17.3	36.7338
17.318	36.7601
17.336	36.7799
17.354	36.7924
17.372	36.7964
17.39	36.7919
17.408	36.7785
17.426	36.7574
17.444	36.729
17.462	36.6953
17.48	36.6569
17.498	36.6161
17.516	36.5737
17.534	36.5308
17.552	36.4886
17.57	36.4474
17.588	36.4073
17.606	36.3679
17.624	36.3288
17.642	36.2884
17.66	36.246
17.678	36.1999
17.696	36.1495
17.714	36.0933
17.732	36.0309
17.75	35.9614
17.768	35.885
17.786	35.8016
17.804	35.7125
17.822	35.6182
17.84	35.5206
17.858	35.4212
17.876	35.3217
17.894	35.2246
17.912	35.1312
17.93	35.0443
17.948	34.9643
17.966	34.8938
17.984	34.8329
18.002	34.7831
18.02	34.744
18.038	34.716
18.056	34.6981
18.074	34.6901
18.092	34.6901
18.11	34.6978
18.128	34.7111
18.146	34.7294
18.164	34.7508
18.182	34.7747
18.2	34.7997
18.218	34.8252
18.236	34.8504
18.254	34.8752
18.272	34.8995
18.29	34.9232
18.308	34.9464
18.326	34.9695
18.344	34.9925
18.362	35.0161
18.38	35.0403
18.398	35.0656
18.416	35.0919
18.434	35.1195
18.452	35.1477
18.47	35.1763
18.488	35.2045
18.506	35.2322
18.524	35.2577
18.542	35.2808
18.56	35.2999
18.578	35.3149
18.596	35.3242
18.614	35.3278
18.632	35.3247
18.65	35.3151
18.668	35.2986
18.686	35.2754
18.704	35.2465
18.722	35.212
18.74	35.1734
18.758	35.1311
18.776	35.0868
18.794	35.041
18.812	34.9954
18.83	34.9504
18.848	34.9075
18.866	34.8668
18.884	34.8292
18.902	34.7948
18.92	34.7639
18.938	34.7363
18.956	34.7118
18.974	34.6902
18.992	34.6709
19.01	34.6536
19.028	34.6378
19.046	34.6233
19.064	34.6096
19.082	34.5966
19.1	34.5841
19.118	34.572
19.136	34.5604
19.154	34.5492
19.172	34.5384
19.19	34.5281
19.208	34.5181
19.226	34.5084
19.244	34.4984
19.262	34.4881
19.28	34.4764
19.298	34.4633
19.316	34.4477
19.334	34.4298
19.352	34.4083
19.37	34.3833
19.388	34.3541
19.406	34.3206
19.424	34.2826
19.442	34.24
19.46	34.1935
19.478	34.1428
19.496	34.0891
19.514	34.0326
19.532	33.9745
19.55	33.9153
19.568	33.8561
19.586	33.7978
19.604	33.7409
19.622	33.6871
19.64	33.6363
19.658	33.5897
19.676	33.5471
19.694	33.5091
19.712	33.4758
19.73	33.4465
19.748	33.4212
19.766	33.3987
19.784	33.3789
19.802	33.3601
19.82	33.3415
19.838	33.3223
19.856	33.3005
19.874	33.2761
19.892	33.2471
19.91	33.2137
19.928	33.1745
19.946	33.1297
19.964	33.0793
19.982	33.0231
20	32.9623
20.018	32.8972
20.036	32.8291
20.054	32.7595
20.072	32.6886
20.09	32.6191
20.108	32.5507
20.126	32.4862
20.144	32.4254
20.162	32.3698
20.18	32.3202
20.198	32.2763
20.216	32.2386
20.234	32.2067
20.252	32.1793
20.27	32.1569
20.288	32.1368
20.306	32.1194
20.324	32.1025
20.342	32.085
20.36	32.0664
20.378	32.0446
20.396	32.0199
20.414	31.9911
20.432	31.958
20.45	31.921
20.468	31.8797
20.486	31.8351
20.504	31.7883
20.522	31.7392
20.54	31.6902
20.558	31.641
20.576	31.5937
20.594	31.5493
20.612	31.508
20.63	31.4714
20.648	31.4392
20.666	31.4121
20.684	31.3903
20.702	31.373
20.72	31.3601
20.738	31.3512
20.756	31.3447
20.774	31.3408
20.792	31.3374
20.81	31.3342
20.828	31.3304
20.846	31.3243
20.864	31.3162
20.882	31.305
20.9	31.2903
20.918	31.2726
20.936	31.2514
20.954	31.2272
20.972	31.2012
20.99	31.1729
21.008	31.1443
21.026	31.1159
21.044	31.0881
21.062	31.0632
21.08	31.0406
21.098	31.0222
21.116	31.0085
21.134	30.9997
21.152	30.997
21.17	31.0001
21.188	31.0095
21.206	31.0256
21.224	31.0479
21.242	31.0765
21.26	31.1115
21.278	31.1519
21.296	31.1979
21.314	31.2489
21.332	31.3038
21.35	31.3631
21.368	31.4248
21.386	31.489
21.404	31.555
21.422	31.6209
21.44	31.6874
21.458	31.7525
21.476	31.8154
21.494	31.8763
21.512	31.9328
21.53	31.9856
21.548	32.0334
21.566	32.0751
21.584	32.111
21.602	32.1399
21.62	32.1617
21.638	32.1765
21.656	32.1841
21.674	32.1846
21.692	32.1783
21.71	32.1653
21.728	32.146
21.746	32.1216
21.764	32.0918
21.782	32.0576
21.8	32.0198
21.818	31.9783
21.836	31.9346
21.854	31.8888
21.872	31.8413
21.89	31.7931
21.908	31.744
21.926	31.6948
21.944	31.646
21.962	31.5973
21.98	31.5496
21.998	31.5029
22.016	31.4572
22.034	31.4128
22.052	31.3696
22.07	31.328
22.088	31.2882
22.106	31.2499
22.124	31.2143
22.142	31.1812
22.16	31.1509
22.178	31.1241
22.196	31.1006
22.214	31.0807
22.232	31.0651
22.25	31.0535
22.268	31.0459
22.286	31.0425
22.304	31.043
22.322	31.0466
22.34	31.0538
22.358	31.0637
22.376	31.0746
22.394	31.0872
22.412	31.0999
22.43	31.1104
22.448	31.12
22.466	31.1263
22.484	31.1274
22.502	31.1243
22.52	31.115
22.538	31.0984
22.556	31.0751
22.574	31.0441
22.592	31.0049
22.61	30.958
22.628	30.9043
22.646	30.8429
22.664	30.7753
22.682	30.7039
22.7	30.6272
22.718	30.5478
22.736	30.469
22.754	30.3889
22.772	30.3108
22.79	30.238
22.808	30.1685
22.826	30.1057
22.844	30.0517
22.862	30.0051
22.88	29.9683
22.898	29.9426
22.916	29.9271
22.934	29.922
22.952	29.928
22.97	29.9445
22.988	29.9694
23.006	30.003
23.024	30.0448
23.042	30.0906
23.06	30.1407
23.078	30.1947
23.096	30.2483
23.114	30.3021
23.132	30.3553
23.15	30.4035
23.168	30.4471
23.186	30.4857
23.204	30.516
23.222	30.5383
23.24	30.5525
23.258	30.556
23.276	30.5492
23.294	30.5319
23.312	30.5025
23.33	30.461
23.348	30.4077
23.366	30.3424
23.384	30.2644
23.402	30.1747
23.42	30.0748
23.438	29.9643
23.456	29.8437
23.474	29.7152
23.492	29.5791
23.51	29.4351
23.528	29.2853
23.546	29.1294
23.564	28.9675
23.582	28.8026
23.6	28.6352
23.618	28.4646
23.636	28.2953
23.654	28.1297
23.672	27.9657
23.69	27.807
23.708	27.6563
23.726	27.5117
23.744	27.3753
23.762	27.2493
23.78	27.1326
23.798	27.0259
23.816	26.9304
23.834	26.846
23.852	26.7723
23.87	26.709
23.888	26.6566
23.906	26.6145
23.924	26.5814
23.942	26.5577
23.96	26.5432
23.978	26.5364
23.996	26.5371
24.014	26.5457
24.032	26.5598
24.05	26.5781
24.068	26.602
24.086	26.629
24.104	26.6571
24.122	26.6873
24.14	26.7189
24.158	26.7504
24.176	26.7823
24.194	26.8144
24.212	26.8458
24.23	26.8761
24.248	26.9057
24.266	26.9352
24.284	26.965
24.302	26.995
24.32	27.025
24.338	27.0552
24.356	27.0866
24.374	27.1172
24.392	27.1448
24.41	27.1708
24.428	27.1941
24.446	27.2105
24.464	27.2193
24.482	27.2226
24.5	27.2142
24.518	27.189
24.536	27.1508
24.554	27.0966
24.572	27.0215
24.59	26.9264
24.608	26.8116
24.626	26.6748
24.644	26.5135
24.662	26.3285
24.68	26.1238
24.698	25.902
24.716	25.6584
24.734	25.3994
24.752	25.1339
24.77	24.859
24.788	24.5743
24.806	24.2952
24.824	24.0314
24.842	23.7719
24.86	23.5291
24.878	23.3187
24.896	23.1332
24.914	22.9755
24.932	22.8627
24.95	22.8039
24.968	22.7889
24.986	22.8269
25.004	22.9278
25.022	23.0862
25.04	23.3041
25.058	23.5903
25.076	23.9486
25.094	24.3737
25.112	24.8704
25.13	25.4439
25.148	26.0933
25.166	26.8167
25.184	27.6134
25.202	28.4843
25.22	29.4299
25.238	30.445
25.256	31.5243
25.274	32.6779
25.292	33.8965
25.31	35.1598
25.328	36.4603
25.346	37.8156
25.364	39.1968
25.382	40.5717
25.4	41.9568
25.418	43.3491
25.436	44.7052
25.454	45.9946
25.472	47.253
25.49	48.4492
25.508	49.538
25.526	50.5129
25.544	51.3957
25.562	52.153
25.58	52.7532
25.598	53.2098
25.616	53.5237
25.634	53.6805
25.652	53.6671
25.67	53.4869
25.688	53.1546
25.706	52.6846
25.724	52.0663
25.742	51.2986
25.76	50.4205
25.778	49.4669
25.796	48.4053
25.814	47.2555
25.832	46.0668
25.85	44.8683
25.868	43.6188
25.886	42.3567
25.904	41.1313
25.922	39.9524
25.94	38.7928
25.958	37.6862
25.976	36.6669
25.994	35.7258
26.012	34.8566
26.03	34.0775
26.048	33.4045
26.066	32.8283
26.084	32.3489
26.102	31.972
26.12	31.7032
26.138	31.5419
26.156	31.4805
26.174	31.5111
26.192	31.6315
26.21	31.8467
26.228	32.1492
26.246	32.5314
26.264	32.9977
26.282	33.5494
26.3	34.1712
26.318	34.848
26.336	35.5926
26.354	36.4012
26.372	37.2503
26.39	38.1189
26.408	39.0275
26.426	39.9666
26.444	40.9087
26.462	41.8323
26.48	42.7647
26.498	43.6887
26.516	44.5727
26.534	45.3942
26.552	46.1807
26.57	46.9165
26.588	47.5764
26.606	48.1453
26.624	48.6443
26.642	49.0607
26.66	49.3769
26.678	49.5809
26.696	49.6837
26.714	49.6861
26.732	49.5875
26.75	49.3827
26.768	49.066
26.786	48.6564
26.804	48.174
26.822	47.6239
26.84	46.9855
26.858	46.2854
26.876	45.5529
26.894	44.7989
26.912	43.996
26.93	43.1712
26.948	42.3554
26.966	41.5359
26.984	40.6457
27.002	39.8062
27.02	39.1519
27.028	38.9755