File: Bakgrunnsmateriale/MATLAB/FTIR/ftir_data/subBb/Mapping_121/C-4040-8_t72_cm-1.asc
PE IR       SPECTRUM    SPECTRUM    ASCII       PEDS        1.60
  -1
C-1D64~1.ASC
17/03/27
20:25:52.00
17/03/27
20:25:52.00
tln
$C-4040-8_t0072$<tbV0>[0.0,2.6,8.0,0.0,27,1,0]
370
64

2002,4.07
MIRTGS : RIGHTBACK : INTERNAL 2
MIR : ON : INTERNAL 2
OPTKBR

0.200000
8
8.000000
FILLER
RATIO
SPECTRUM
UNLOCKED 256

DOUBLE
64
COMBINED
1
0
0

1.000000
RATIO

1
0
TRUE
51149
0
LEFT NOT FITTED RIGHT NOT FITTED 0
NONE
NONE
15600
12
4.427000
51148
TRUE
1 0 8 72 0 0 0 0

15798

#HDR
-1
-1
#GR
CM-1
%T
2.38419e-05
0.0
5000
-1.000000
4631
8
96.6948
43.1548
#DATA
5000	64.9827
4996	64.9937
4992	65.0672
4988	65.0388
4984	65.0852
4980	64.9827
4976	64.6191
4972	64.31
4968	63.9523
4964	63.7633
4960	64.3363
4956	65.2471
4952	65.7246
4948	65.5839
4944	64.9775
4940	64.5015
4936	64.2559
4932	64.0673
4928	64.1881
4924	64.487
4920	64.6841
4916	64.7055
4912	64.7089
4908	64.8072
4904	64.9163
4900	65.0062
4896	64.9922
4892	64.8853
4888	64.7912
4884	64.9545
4880	65.3476
4876	65.4784
4872	65.1793
4868	64.8881
4864	64.8248
4860	64.921
4856	65.0724
4852	65.0196
4848	64.9226
4844	64.9681
4840	65.1144
4836	65.3803
4832	65.5986
4828	65.5274
4824	65.3148
4820	65.2917
4816	65.2929
4812	65.1414
4808	65.1226
4804	65.3114
4800	65.329
4796	65.0876
4792	64.9965
4788	65.1299
4784	65.2475
4780	65.2699
4776	65.2129
4772	65.2569
4768	65.3484
4764	65.2896
4760	65.2162
4756	65.1936
4752	65.3136
4748	65.6225
4744	65.6578
4740	65.3599
4736	65.1766
4732	65.1182
4728	65.1666
4724	65.3928
4720	65.5776
4716	65.5763
4712	65.621
4708	65.7045
4704	65.5177
4700	65.2537
4696	65.2954
4692	65.5433
4688	65.6189
4684	65.4318
4680	65.27
4676	65.3047
4672	65.4801
4668	65.6196
4664	65.4101
4660	65.1508
4656	65.2589
4652	65.3988
4648	65.2785
4644	65.1751
4640	65.3806
4636	65.6547
4632	65.665
4628	65.4235
4624	65.203
4620	65.0611
4616	64.9559
4612	65.1187
4608	65.3642
4604	65.2332
4600	64.8925
4596	64.7678
4592	64.8523
4588	64.9358
4584	65.0686
4580	65.2139
4576	65.1084
4572	64.8308
4568	64.6812
4564	64.6784
4560	64.739
4556	64.8272
4552	64.8863
4548	64.8335
4544	64.6832
4540	64.8095
4536	65.1394
4532	65.3441
4528	65.4501
4524	65.1348
4520	64.6982
4516	64.636
4512	64.6067
4508	64.6516
4504	64.8504
4500	64.8304
4496	64.5697
4492	64.4503
4488	64.4272
4484	64.3447
4480	64.4611
4476	64.6456
4472	64.6573
4468	64.6114
4464	64.4624
4460	64.2749
4456	64.2246
4452	64.3997
4448	64.6095
4444	64.4674
4440	64.2295
4436	64.3774
4432	64.4722
4428	64.4113
4424	64.2874
4420	64.0869
4416	63.7458
4412	63.332
4408	63.1805
4404	63.7622
4400	64.7078
4396	64.2748
4392	63.8577
4388	70.0829
4384	91.1742
4380	91.6794
4376	74.0312
4372	75.3254
4368	74.8328
4364	68.7357
4360	65.7392
4356	65.1969
4352	64.6216
4348	64.5249
4344	64.979
4340	65.4952
4336	65.6066
4332	65.4946
4328	65.2302
4324	64.8408
4320	64.5719
4316	64.5527
4312	64.6588
4308	64.7659
4304	64.8849
4300	65.006
4296	65.0639
4292	64.9272
4288	64.7697
4284	64.7965
4280	64.8393
4276	64.8191
4272	64.8856
4268	64.9025
4264	64.818
4260	64.8344
4256	64.9365
4252	64.9623
4248	64.865
4244	64.8618
4240	64.9201
4236	64.8649
4232	64.7562
4228	64.6338
4224	64.5032
4220	64.3315
4216	64.3087
4212	64.6715
4208	64.9883
4204	64.8496
4200	64.5984
4196	64.6585
4192	65.0804
4188	65.5483
4184	65.433
4180	64.8044
4176	64.4721
4172	64.5464
4168	64.7074
4164	64.7958
4160	64.9087
4156	65.1277
4152	65.234
4148	65.2303
4144	65.2085
4140	65.1963
4136	65.2102
4132	65.2291
4128	65.2553
4124	65.2748
4120	65.2276
4116	65.0877
4112	64.9581
4108	65.0179
4104	65.2502
4100	65.3444
4096	65.2792
4092	65.1919
4088	65.1193
4084	65.1137
4080	65.1675
4076	65.3162
4072	65.4677
4068	65.5228
4064	65.4651
4060	65.3606
4056	65.4344
4052	65.6188
4048	65.5802
4044	65.3404
4040	65.2557
4036	65.3889
4032	65.4622
4028	65.4261
4024	65.3555
4020	65.2441
4016	65.2446
4012	65.3085
4008	65.1922
4004	65.0059
4000	64.9976
3996	65.2121
3992	65.4471
3988	65.3981
3984	65.2404
3980	65.3137
3976	65.3793
3972	65.2711
3968	65.1789
3964	65.1653
3960	65.2314
3956	65.2639
3952	65.1887
3948	65.1731
3944	65.2064
3940	65.1761
3936	65.1361
3932	65.1681
3928	65.24
3924	65.2705
3920	65.3167
3916	65.3187
3912	65.3187
3908	65.4773
3904	65.5799
3900	65.4897
3896	65.3305
3892	65.3006
3888	65.4033
3884	65.3038
3880	65.1061
3876	65.1807
3872	65.3381
3868	65.4018
3864	65.4013
3860	65.2314
3856	65.1016
3852	65.178
3848	65.1841
3844	65.1241
3840	65.1567
3836	65.2267
3832	65.3022
3828	65.2561
3824	65.0943
3820	65.1263
3816	65.2547
3812	65.2365
3808	65.244
3804	65.2652
3800	65.215
3796	65.1592
3792	65.1665
3788	65.2789
3784	65.3047
3780	65.1487
3776	65.0479
3772	65.1138
3768	65.2187
3764	65.2717
3760	65.2593
3756	65.2692
3752	65.2946
3748	65.2233
3744	65.117
3740	65.0909
3736	65.1275
3732	65.2102
3728	65.3174
3724	65.3692
3720	65.3238
3716	65.2613
3712	65.3227
3708	65.4073
3704	65.3596
3700	65.189
3696	65.0512
3692	65.1555
3688	65.3364
3684	65.347
3680	65.2823
3676	65.2694
3672	65.3429
3668	65.4016
3664	65.3562
3660	65.3086
3656	65.2865
3652	65.2335
3648	65.2144
3644	65.3228
3640	65.4671
3636	65.4505
3632	65.3131
3628	65.2814
3624	65.3811
3620	65.4764
3616	65.541
3612	65.5498
3608	65.4781
3604	65.453
3600	65.4881
3596	65.4815
3592	65.4312
3588	65.3631
3584	65.3586
3580	65.4155
3576	65.4373
3572	65.4407
3568	65.4897
3564	65.5265
3560	65.4292
3556	65.216
3552	65.0587
3548	65.1143
3544	65.2727
3540	65.3549
3536	65.352
3532	65.351
3528	65.4257
3524	65.4342
3520	65.4519
3516	65.5238
3512	65.3661
3508	65.1912
3504	65.2913
3500	65.4476
3496	65.5049
3492	65.4507
3488	65.3314
3484	65.3057
3480	65.3596
3476	65.366
3472	65.3239
3468	65.3287
3464	65.3699
3460	65.4068
3456	65.4953
3452	65.5248
3448	65.4107
3444	65.3429
3440	65.3843
3436	65.3831
3432	65.2421
3428	65.0486
3424	65.0181
3420	65.1927
3416	65.4522
3412	65.5814
3408	65.3937
3404	65.1034
3400	65.0691
3396	65.1974
3392	65.2769
3388	65.3857
3384	65.4024
3380	65.2444
3376	65.2122
3372	65.3038
3368	65.3118
3364	65.2999
3360	65.343
3356	65.3694
3352	65.2745
3348	65.1407
3344	65.1487
3340	65.1614
3336	65.0631
3332	65.0625
3328	65.21
3324	65.3272
3320	65.3243
3316	65.257
3312	65.1791
3308	65.1324
3304	65.2289
3300	65.4167
3296	65.4812
3292	65.4101
3288	65.3391
3284	65.3258
3280	65.3379
3276	65.2994
3272	65.2289
3268	65.2763
3264	65.3801
3260	65.3301
3256	65.2479
3252	65.272
3248	65.3349
3244	65.3652
3240	65.2365
3236	65.0728
3232	65.089
3228	65.1908
3224	65.239
3220	65.1735
3216	65.0836
3212	65.1399
3208	65.3289
3204	65.5138
3200	65.5459
3196	65.5099
3192	65.5212
3188	65.4272
3184	65.2744
3180	65.1994
3176	65.1951
3172	65.242
3168	65.2471
3164	65.1875
3160	65.1871
3156	65.2645
3152	65.3189
3148	65.3887
3144	65.5258
3140	65.554
3136	65.4857
3132	65.47
3128	65.249
3124	64.8847
3120	64.9082
3116	65.2154
3112	65.3317
3108	65.3023
3104	65.3195
3100	65.3265
3096	65.3571
3092	65.4145
3088	65.3493
3084	65.2058
3080	65.156
3076	65.2485
3072	65.3877
3068	65.4231
3064	65.3521
3060	65.342
3056	65.4407
3052	65.4409
3048	65.2497
3044	65.0715
3040	65.0774
3036	65.2622
3032	65.4305
3028	65.3963
3024	65.2997
3020	65.2656
3016	65.2528
3012	65.2662
3008	65.237
3004	65.1327
3000	65.1158
2996	65.2643
2992	65.402
2988	65.3769
2984	65.2618
2980	65.1999
2976	65.156
2972	65.0697
2968	65.0496
2964	65.0872
2960	65.1002
2956	65.1147
2952	65.1194
2948	65.153
2944	65.24
2940	65.2547
2936	65.1458
2932	65.0024
2928	64.9288
2924	64.8876
2920	64.8196
2916	64.8354
2912	64.9343
2908	65.0441
2904	65.1672
2900	65.2702
2896	65.2687
2892	65.2003
2888	65.168
2884	65.146
2880	65.1851
2876	65.2652
2872	65.2426
2868	65.2387
2864	65.3202
2860	65.3251
2856	65.2486
2852	65.231
2848	65.2938
2844	65.349
2840	65.3667
2836	65.3111
2832	65.2036
2828	65.2401
2824	65.3873
2820	65.4672
2816	65.4897
2812	65.4696
2808	65.4445
2804	65.4448
2800	65.4054
2796	65.3186
2792	65.291
2788	65.3666
2784	65.4549
2780	65.4684
2776	65.4547
2772	65.4707
2768	65.4437
2764	65.399
2760	65.3941
2756	65.4003
2752	65.3778
2748	65.3515
2744	65.3867
2740	65.3944
2736	65.3874
2732	65.4067
2728	65.3874
2724	65.3964
2720	65.4836
2716	65.5877
2712	65.5797
2708	65.4809
2704	65.4524
2700	65.4626
2696	65.4238
2692	65.4271
2688	65.4493
2684	65.3183
2680	65.1602
2676	65.1947
2672	65.3857
2668	65.5551
2664	65.5389
2660	65.4407
2656	65.4235
2652	65.3628
2648	65.2672
2644	65.284
2640	65.38
2636	65.4643
2632	65.4516
2628	65.3728
2624	65.3411
2620	65.3924
2616	65.4793
2612	65.5161
2608	65.4609
2604	65.3964
2600	65.3768
2596	65.3454
2592	65.3426
2588	65.4046
2584	65.4784
2580	65.5122
2576	65.4508
2572	65.3396
2568	65.2929
2564	65.3636
2560	65.488
2556	65.5334
2552	65.4465
2548	65.3531
2544	65.3496
2540	65.355
2536	65.3687
2532	65.4015
2528	65.4143
2524	65.4706
2520	65.5576
2516	65.5463
2512	65.3947
2508	65.2567
2504	65.285
2500	65.4533
2496	65.5951
2492	65.5989
2488	65.5585
2484	65.531
2480	65.487
2476	65.4123
2472	65.3423
2468	65.3085
2464	65.3136
2460	65.3449
2456	65.3568
2452	65.3787
2448	65.382
2444	65.3909
2440	65.4863
2436	65.5564
2432	65.4133
2428	65.0654
2424	64.9101
2420	65.1401
2416	65.3673
2412	65.3894
2408	65.3354
2404	65.3037
2400	65.291
2396	65.2351
2392	65.2588
2388	65.3798
2384	65.435
2380	65.4727
2376	65.4678
2372	65.3635
2368	65.3157
2364	65.3179
2360	65.309
2356	65.3531
2352	65.3784
2348	65.3007
2344	65.2757
2340	65.3951
2336	65.508
2332	65.5368
2328	65.4963
2324	65.4179
2320	65.3802
2316	65.4174
2312	65.4563
2308	65.4259
2304	65.3581
2300	65.3571
2296	65.4448
2292	65.5062
2288	65.5316
2284	65.5267
2280	65.4605
2276	65.4284
2272	65.4445
2268	65.4371
2264	65.4186
2260	65.4312
2256	65.4367
2252	65.3811
2248	65.3468
2244	65.4059
2240	65.4945
2236	65.5516
2232	65.5543
2228	65.5368
2224	65.5075
2220	65.4365
2216	65.4007
2212	65.4092
2208	65.3866
2204	65.3237
2200	65.2831
2196	65.2968
2192	65.3538
2188	65.4341
2184	65.4632
2180	65.4795
2176	65.4926
2172	65.4006
2168	65.3614
2164	65.4505
2160	65.4583
2156	65.4045
2152	65.3587
2148	65.3387
2144	65.4297
2140	65.5629
2136	65.6204
2132	65.5897
2128	65.4779
2124	65.3488
2120	65.3229
2116	65.3897
2112	65.4315
2108	65.4057
2104	65.3746
2100	65.3944
2096	65.4356
2092	65.4622
2088	65.5448
2084	65.6756
2080	65.6773
2076	65.4759
2072	65.2043
2068	65.1052
2064	65.1926
2060	65.2547
2056	65.2344
2052	65.2596
2048	65.3515
2044	65.3715
2040	65.3404
2036	65.3698
2032	65.4276
2028	65.4337
2024	65.4093
2020	65.4559
2016	65.5565
2012	65.5454
2008	65.428
2004	65.3288
2000	65.2746
1996	65.2716
1992	65.2709
1988	65.2467
1984	65.2422
1980	65.253
1976	65.2923
1972	65.3968
1968	65.4591
1964	65.3933
1960	65.3135
1956	65.3176
1952	65.3626
1948	65.3633
1944	65.341
1940	65.341
1936	65.3496
1932	65.4087
1928	65.5143
1924	65.5276
1920	65.4615
1916	65.4463
1912	65.4582
1908	65.4338
1904	65.3798
1900	65.3688
1896	65.448
1892	65.5009
1888	65.4216
1884	65.3214
1880	65.328
1876	65.4112
1872	65.4545
1868	65.4435
1864	65.471
1860	65.4908
1856	65.424
1852	65.3604
1848	65.3623
1844	65.3826
1840	65.3821
1836	65.3657
1832	65.3836
1828	65.4216
1824	65.4772
1820	65.5949
1816	65.688
1812	65.6662
1808	65.5715
1804	65.5085
1800	65.4985
1796	65.4685
1792	65.392
1788	65.3523
1784	65.3811
1780	65.4032
1776	65.4214
1772	65.4134
1768	65.377
1764	65.3966
1760	65.4494
1756	65.4496
1752	65.3732
1748	65.2907
1744	65.2706
1740	65.2999
1736	65.3369
1732	65.3129
1728	65.2452
1724	65.226
1720	65.261
1716	65.3418
1712	65.3501
1708	65.2778
1704	65.3287
1700	65.4674
1696	65.5219
1692	65.4908
1688	65.5
1684	65.5095
1680	65.423
1676	65.3187
1672	65.2797
1668	65.3356
1664	65.3844
1660	65.3671
1656	65.3927
1652	65.4514
1648	65.4928
1644	65.4906
1640	65.3777
1636	65.2679
1632	65.2442
1628	65.2098
1624	65.1936
1620	65.188
1616	65.1411
1612	65.1046
1608	65.1216
1604	65.2056
1600	65.295
1596	65.2771
1592	65.2187
1588	65.2521
1584	65.2946
1580	65.2355
1576	65.1237
1572	65.022
1568	64.9547
1564	64.9599
1560	65.0262
1556	65.0264
1552	64.999
1548	65.0488
1544	65.1387
1540	65.2547
1536	65.2773
1532	65.1978
1528	65.2267
1524	65.3069
1520	65.2409
1516	65.115
1512	65.1232
1508	65.2392
1504	65.3009
1500	65.2733
1496	65.2338
1492	65.2655
1488	65.3349
1484	65.3664
1480	65.3439
1476	65.2794
1472	65.222
1468	65.1993
1464	65.1925
1460	65.1862
1456	65.21
1452	65.1489
1448	65.0061
1444	65.0455
1440	65.212
1436	65.271
1432	65.2761
1428	65.3493
1424	65.3679
1420	65.2758
1416	65.2119
1412	65.1992
1408	65.1624
1404	65.1034
1400	65.1206
1396	65.2117
1392	65.2348
1388	65.2318
1384	65.3332
1380	65.4739
1376	65.4995
1372	65.3639
1368	65.2126
1364	65.1309
1360	65.0996
1356	65.1301
1352	65.2151
1348	65.2772
1344	65.2617
1340	65.2806
1336	65.3131
1332	65.2447
1328	65.1916
1324	65.2288
1320	65.2319
1316	65.1572
1312	65.1116
1308	65.1192
1304	65.1387
1300	65.1664
1296	65.1473
1292	65.1474
1288	65.2308
1284	65.2172
1280	65.1416
1276	65.1272
1272	65.114
1268	65.1743
1264	65.2783
1260	65.24
1256	65.129
1252	65.1294
1248	65.1763
1244	65.1694
1240	65.1684
1236	65.1685
1232	65.0893
1228	65.002
1224	65.0592
1220	65.155
1216	65.1626
1212	65.1889
1208	65.203
1204	65.123
1200	64.9922
1196	64.8841
1192	64.891
1188	64.9707
1184	65.0632
1180	65.1221
1176	65.0508
1172	64.9206
1168	64.8272
1164	64.7646
1160	64.7479
1156	64.7898
1152	64.8526
1148	64.9256
1144	65.042
1140	65.0847
1136	64.9868
1132	64.9055
1128	64.9179
1124	64.9393
1120	64.8917
1116	64.7552
1112	64.709
1108	64.9383
1104	65.1881
1100	65.2362
1096	65.1316
1092	64.9958
1088	64.8782
1084	64.811
1080	64.9182
1076	65.0235
1072	65
1068	64.9901
1064	64.9582
1060	64.9128
1056	64.8881
1052	64.708
1048	64.5325
1044	64.6584
1040	64.8531
1036	64.759
1032	64.5376
1028	64.6042
1024	64.6955
1020	64.66
1016	64.8248
1012	64.9882
1008	64.9818
1004	64.9889
1000	64.9555
996	 64.779
992	 64.6417
988	 64.8363
984	 65.0939
980	 64.9227
976	 64.6276
972	 64.6135
968	 64.7642
964	 64.9217
960	 65.1035
956	 65.2378
952	 65.2412
948	 65.2525
944	 65.2756
940	 65.1994
936	 65.0729
932	 64.9601
928	 64.842
924	 64.7354
920	 64.7322
916	 64.9217
912	 65.1584
908	 65.1364
904	 64.9319
900	 64.8446
896	 64.9368
892	 65.0141
888	 64.952
884	 64.8867
880	 64.8282
876	 64.6372
872	 64.4516
868	 64.453
864	 64.4992
860	 64.4667
856	 64.386
852	 64.3878
848	 64.454
844	 64.4257
840	 64.4775
836	 64.6826
832	 64.7518
828	 64.5732
824	 64.3262
820	 64.2599
816	 64.3953
812	 64.5179
808	 64.5496
804	 64.5705
800	 64.5098
796	 64.326
792	 64.2336
788	 64.1789
784	 64.0348
780	 64.0429
776	 64.2142
772	 64.2706
768	 64.2439
764	 64.3371
760	 64.4631
756	 64.4192
752	 64.1245
748	 64.0336
744	 64.2704
740	 64.0672
736	 63.533
732	 63.2698
728	 63.3442
724	 63.6174
720	 63.7828
716	 63.767
712	 63.6705
708	 63.5663
704	 63.6422
700	 63.757
696	 63.6685
692	 63.5681
688	 63.4566
684	 63.3062
680	 63.2967
676	 63.2485
672	 63.1414
668	 63.0875
664	 62.9913
660	 62.9788
656	 63.1183
652	 63.2375
648	 63.1912
644	 63.0463
640	 62.9184
636	 62.8226
632	 62.9672
628	 63.3029
624	 63.2393
620	 62.6971
616	 62.13
612	 61.9797
608	 62.6058
604	 63.5018
600	 63.6589
596	 63.0724
592	 62.7129
588	 62.8469
584	 62.8733
580	 62.809
576	 62.9048
572	 62.777
568	 62.4694
564	 62.45
560	 62.4815
556	 62.3489
552	 62.3248
548	 62.57
544	 62.8504
540	 62.8805
536	 62.4245
532	 61.8649
528	 62.0054
524	 62.3437
520	 62.2818
516	 62.1172
512	 61.5826
508	 60.8413
504	 60.6887
500	 60.7183
496	 60.6497
492	 60.9584
488	 61.399
484	 61.645
480	 61.6058
476	 61.3003
472	 60.689
468	 59.8613
464	 59.4961
460	 59.8455
456	 60.4245
452	 60.6096
448	 59.8955
444	 59.4752
440	 60.3474
436	 61.2358
432	 61.2127
428	 59.2811
424	 56.5481
420	 56.2382
416	 58.2742
412	 60.8562
408	 61.2549
404	 54.586
400	 44.8286
396	 44.0795
392	 46.2853
388	 43.5159
384	 59.4894
380	 81.0132
376	 68.18
372	 68.1775
370	 82.5312