File: Bakgrunnsmateriale/MATLAB/FTIR/ftir_data/subBb/Mapping_121/C-4040-8_t61_cm-1.asc
PE IR       SPECTRUM    SPECTRUM    ASCII       PEDS        1.60
  -1
C-9CE4~1.ASC
17/03/27
19:28:22.00
17/03/27
19:28:22.00
tln
$C-4040-8_t0061$<tbV0>[0.0,0.0,8.0,0.0,27,1,0]
370
64

2002,4.07
MIRTGS : RIGHTBACK : INTERNAL 2
MIR : ON : INTERNAL 2
OPTKBR

0.200000
8
8.000000
FILLER
RATIO
SPECTRUM
UNLOCKED 256

DOUBLE
64
COMBINED
1
0
0

1.000000
RATIO

1
0
TRUE
51149
0
LEFT NOT FITTED RIGHT NOT FITTED 0
NONE
NONE
15600
12
4.427000
51148
TRUE
1 0 8 72 0 0 0 0

15798

#HDR
-1
-1
#GR
CM-1
%T
2.38419e-05
0.0
5000
-1.000000
4631
8
122.199
38.6222
#DATA
5000	64.952
4996	64.9081
4992	64.9693
4988	65.3775
4984	65.7723
4980	65.8467
4976	65.6048
4972	65.4415
4968	65.7294
4964	65.9864
4960	65.7733
4956	65.1611
4952	64.6852
4948	64.9214
4944	65.3444
4940	65.3034
4936	65.0363
4932	64.847
4928	64.8359
4924	65.0547
4920	65.1817
4916	65.0547
4912	64.9166
4908	65.09
4904	65.387
4900	65.3301
4896	65.2663
4892	65.2823
4888	64.9324
4884	64.6288
4880	64.741
4876	65.014
4872	65.169
4868	65.0696
4864	64.9431
4860	64.8636
4856	64.7465
4852	64.8457
4848	65.0858
4844	65.0484
4840	64.9551
4836	65.1236
4832	65.2941
4828	65.2485
4824	65.0796
4820	64.8345
4816	64.719
4812	64.8058
4808	64.8273
4804	64.817
4800	64.7823
4796	64.812
4792	65.0154
4788	65.3
4784	65.516
4780	65.4177
4776	65.0597
4772	64.754
4768	64.8407
4764	65.1512
4760	65.1204
4756	64.8533
4752	64.7213
4748	64.5855
4744	64.3755
4740	64.4172
4736	64.6556
4732	64.6226
4728	64.4175
4724	64.4744
4720	64.6797
4716	64.7036
4712	64.779
4708	65.1869
4704	65.2548
4700	64.7598
4696	64.5375
4692	64.6375
4688	64.6859
4684	64.7708
4680	64.7601
4676	64.5308
4672	64.245
4668	64.1157
4664	64.3115
4660	64.4613
4656	64.3672
4652	64.4036
4648	64.5163
4644	64.5274
4640	64.5937
4636	64.6894
4632	64.6137
4628	64.4906
4624	64.4537
4620	64.4084
4616	64.3141
4612	64.1499
4608	63.9953
4604	64.1145
4600	64.4684
4596	64.7496
4592	64.8543
4588	64.8798
4584	64.9949
4580	64.9904
4576	64.8414
4572	64.9558
4568	65.0403
4564	64.9409
4560	64.9063
4556	64.7874
4552	64.66
4548	64.7594
4544	65.1022
4540	65.3003
4536	65.1099
4532	65.0264
4528	65.1241
4524	65.1746
4520	65.4514
4516	65.7588
4512	65.8674
4508	65.957
4504	65.7612
4500	65.48
4496	65.5534
4492	65.7204
4488	65.7243
4484	65.6877
4480	65.8338
4476	65.9073
4472	65.7349
4468	65.6455
4464	65.7683
4460	65.9517
4456	65.9956
4452	65.9793
4448	66.056
4444	66.1722
4440	66.1978
4436	66.2615
4432	66.4859
4428	66.661
4424	66.4073
4420	66.054
4416	66.2674
4412	66.8924
4408	67.1139
4404	66.9595
4400	66.6751
4396	66.19
4392	65.8769
4388	65.7526
4384	65.4734
4380	64.9405
4376	63.7249
4372	62.7653
4368	64.6315
4364	55.4309
4360	39.9808
4356	43.1711
4352	58.5857
4348	66.0871
4344	66.9038
4340	67.1019
4336	66.4252
4332	65.7586
4328	66.2838
4324	66.8789
4320	66.6126
4316	66.192
4312	65.8137
4308	65.6946
4304	66.0167
4300	66.3236
4296	66.4136
4292	66.2661
4288	66.1241
4284	66.3428
4280	66.6177
4276	66.5281
4272	66.1919
4268	65.8989
4264	65.7278
4260	65.6873
4256	65.6067
4252	65.4766
4248	65.5149
4244	65.5964
4240	65.5637
4236	65.625
4232	65.8442
4228	65.865
4224	65.7812
4220	65.74
4216	65.5977
4212	65.5287
4208	65.609
4204	65.5753
4200	65.3997
4196	65.4738
4192	66.0121
4188	66.3669
4184	65.9535
4180	65.4972
4176	65.1849
4172	64.6868
4168	64.8059
4164	65.3578
4160	65.5747
4156	65.5369
4152	65.2933
4148	65.1213
4144	65.2205
4140	65.2126
4136	64.939
4132	64.7088
4128	64.6591
4124	64.6982
4120	64.6959
4116	64.6599
4112	64.7889
4108	64.9835
4104	64.9988
4100	64.8613
4096	64.7142
4092	64.6599
4088	64.796
4084	65.0233
4080	65.0621
4076	64.9444
4072	64.8483
4068	64.8169
4064	64.856
4060	64.9079
4056	64.9384
4052	64.9116
4048	64.8276
4044	64.7599
4040	64.7595
4036	64.9041
4032	65.0022
4028	64.87
4024	64.8336
4020	65.0224
4016	65.1716
4012	65.1169
4008	64.9419
4004	64.8587
4000	64.8614
3996	64.8176
3992	64.7952
3988	64.7851
3984	64.7604
3980	64.8525
3976	64.9267
3972	64.9103
3968	64.9406
3964	64.9521
3960	64.9078
3956	64.9404
3952	64.9853
3948	64.9317
3944	64.9392
3940	65.0069
3936	64.9768
3932	64.9399
3928	64.8576
3924	64.6835
3920	64.7243
3916	64.959
3912	65.0946
3908	65.0387
3904	64.9176
3900	65.0017
3896	65.1934
3892	65.2648
3888	65.2992
3884	65.2945
3880	65.2612
3876	65.3161
3872	65.2908
3868	65.083
3864	64.9327
3860	65.0536
3856	65.3609
3852	65.5462
3848	65.5619
3844	65.5148
3840	65.3701
3836	65.1696
3832	64.9988
3828	65.0378
3824	65.2539
3820	65.3161
3816	65.3272
3812	65.4719
3808	65.5632
3804	65.4926
3800	65.3579
3796	65.2873
3792	65.2604
3788	65.2193
3784	65.2555
3780	65.3707
3776	65.3618
3772	65.2741
3768	65.3584
3764	65.442
3760	65.3678
3756	65.3814
3752	65.4737
3748	65.3934
3744	65.2335
3740	65.1339
3736	65.1067
3732	65.2731
3728	65.4367
3724	65.3233
3720	65.119
3716	65.0411
3712	65.0923
3708	65.1278
3704	65.0564
3700	65.1054
3696	65.2903
3692	65.3315
3688	65.293
3684	65.2921
3680	65.2423
3676	65.1353
3672	65.0283
3668	64.9806
3664	64.9965
3660	65.0803
3656	65.1624
3652	65.1561
3648	65.1466
3644	65.1621
3640	65.1475
3636	65.0735
3632	64.9461
3628	64.946
3624	65.0725
3620	65.0263
3616	64.8913
3612	64.9373
3608	64.9931
3604	64.9314
3600	64.9231
3596	64.9098
3592	64.9355
3588	65.0739
3584	65.1566
3580	65.24
3576	65.2559
3572	65.1083
3568	64.9884
3564	64.9863
3560	65.0138
3556	65.029
3552	65.0511
3548	65.0674
3544	65.1125
3540	65.1241
3536	65.1073
3532	65.1883
3528	65.2493
3524	65.1964
3520	65.128
3516	65.0525
3512	64.998
3508	65.0663
3504	65.1595
3500	65.1732
3496	65.0896
3492	64.9099
3488	64.8203
3484	64.9079
3480	65.0907
3476	65.2394
3472	65.2485
3468	65.2005
3464	65.1088
3460	64.9981
3456	65.0018
3452	65.0768
3448	65.0878
3444	65.0907
3440	65.2455
3436	65.4937
3432	65.5999
3428	65.4892
3424	65.3681
3420	65.2969
3416	65.2307
3412	65.2015
3408	65.1309
3404	65.0818
3400	65.151
3396	65.24
3392	65.3502
3388	65.4538
3384	65.379
3380	65.2241
3376	65.2182
3372	65.3396
3368	65.4045
3364	65.3244
3360	65.1862
3356	65.1264
3352	65.112
3348	65.0857
3344	65.1709
3340	65.2863
3336	65.2491
3332	65.2066
3328	65.2813
3324	65.2569
3320	65.1344
3316	65.1493
3312	65.1699
3308	65.1419
3304	65.2383
3300	65.3255
3296	65.3135
3292	65.2579
3288	65.1367
3284	65.058
3280	65.0505
3276	65.0266
3272	65.1273
3268	65.3378
3264	65.3792
3260	65.3653
3256	65.4508
3252	65.3907
3248	65.1956
3244	65.0924
3240	65.034
3236	65.0606
3232	65.2045
3228	65.1655
3224	64.9306
3220	64.862
3216	64.9337
3212	64.956
3208	64.9461
3204	64.8267
3200	64.7293
3196	64.7633
3192	64.8194
3188	64.9517
3184	65.1115
3180	65.2495
3176	65.3331
3172	65.2996
3168	65.2067
3164	65.141
3160	65.1589
3156	65.1382
3152	65.0137
3148	64.9216
3144	64.9042
3140	64.9935
3136	65.2714
3132	65.5874
3128	65.5536
3124	65.1889
3120	65.02
3116	65.0462
3112	65.019
3108	65.1546
3104	65.4204
3100	65.5453
3096	65.5267
3092	65.4976
3088	65.4611
3084	65.3224
3080	65.1478
3076	65.0699
3072	65.1018
3068	65.1771
3064	65.2672
3060	65.3461
3056	65.3852
3052	65.3908
3048	65.3129
3044	65.1865
3040	65.1256
3036	65.1083
3032	65.1005
3028	65.1219
3024	65.1472
3020	65.2021
3016	65.2678
3012	65.2444
3008	65.1611
3004	65.1162
3000	65.1935
2996	65.2923
2992	65.2614
2988	65.2178
2984	65.2769
2980	65.3215
2976	65.2322
2972	65.1211
2968	65.1527
2964	65.2294
2960	65.2278
2956	65.2121
2952	65.2112
2948	65.2338
2944	65.2304
2940	65.1662
2936	65.123
2932	65.128
2928	65.1261
2924	65.0151
2920	64.8743
2916	64.9144
2912	65.1145
2908	65.2574
2904	65.2084
2900	65.0673
2896	64.999
2892	65.0183
2888	65.0561
2884	65.0995
2880	65.175
2876	65.2868
2872	65.3458
2868	65.2639
2864	65.1914
2860	65.1869
2856	65.1095
2852	65.0061
2848	65.0044
2844	65.1067
2840	65.1552
2836	65.0703
2832	65.0144
2828	65.0768
2824	65.204
2820	65.3123
2816	65.2952
2812	65.2124
2808	65.2389
2804	65.3223
2800	65.2769
2796	65.1787
2792	65.1301
2788	65.1177
2784	65.1519
2780	65.179
2776	65.2172
2772	65.2478
2768	65.2013
2764	65.1654
2760	65.1988
2756	65.2636
2752	65.3177
2748	65.351
2744	65.3396
2740	65.304
2736	65.3425
2732	65.395
2728	65.3383
2724	65.2535
2720	65.2525
2716	65.266
2712	65.2622
2708	65.2998
2704	65.3543
2700	65.3681
2696	65.3315
2692	65.2569
2688	65.1781
2684	65.1605
2680	65.1533
2676	65.0916
2672	65.0718
2668	65.1105
2664	65.1751
2660	65.2679
2656	65.304
2652	65.2778
2648	65.2197
2644	65.1907
2640	65.2716
2636	65.3379
2632	65.2987
2628	65.2407
2624	65.2531
2620	65.2671
2616	65.2493
2612	65.2961
2608	65.3136
2604	65.2471
2600	65.25
2596	65.3421
2592	65.3668
2588	65.3236
2584	65.319
2580	65.3221
2576	65.3111
2572	65.3077
2568	65.3095
2564	65.3088
2560	65.3384
2556	65.4479
2552	65.5099
2548	65.403
2544	65.2847
2540	65.2452
2536	65.2184
2532	65.217
2528	65.1994
2524	65.1791
2520	65.2389
2516	65.2632
2512	65.2835
2508	65.426
2504	65.4758
2500	65.3538
2496	65.2797
2492	65.2717
2488	65.258
2484	65.2893
2480	65.326
2476	65.3074
2472	65.2499
2468	65.1721
2464	65.1733
2460	65.2552
2456	65.2325
2452	65.2033
2448	65.2901
2444	65.3576
2440	65.4219
2436	65.4747
2432	65.4772
2428	65.5562
2424	65.6668
2420	65.6381
2416	65.4476
2412	65.2322
2408	65.1441
2404	65.1446
2400	65.1781
2396	65.2568
2392	65.2882
2388	65.2178
2384	65.1467
2380	65.1844
2376	65.2597
2372	65.3032
2368	65.3539
2364	65.3573
2360	65.2787
2356	65.2282
2352	65.2741
2348	65.3088
2344	65.3262
2340	65.3104
2336	65.2106
2332	65.1928
2328	65.2497
2324	65.2439
2320	65.1881
2316	65.1748
2312	65.2436
2308	65.3276
2304	65.38
2300	65.3808
2296	65.3367
2292	65.3049
2288	65.3136
2284	65.2932
2280	65.2287
2276	65.2175
2272	65.2702
2268	65.2889
2264	65.2803
2260	65.2986
2256	65.3294
2252	65.3667
2248	65.3872
2244	65.3738
2240	65.3677
2236	65.3829
2232	65.4033
2228	65.3881
2224	65.3482
2220	65.3669
2216	65.3684
2212	65.28
2208	65.1935
2204	65.1527
2200	65.1513
2196	65.2019
2192	65.2612
2188	65.2867
2184	65.2887
2180	65.2729
2176	65.2152
2172	65.2053
2168	65.3185
2164	65.4074
2160	65.4688
2156	65.5224
2152	65.5065
2148	65.4513
2144	65.3871
2140	65.4379
2136	65.5116
2132	65.4389
2128	65.3552
2124	65.3075
2120	65.2835
2116	65.3294
2112	65.3568
2108	65.3423
2104	65.3346
2100	65.3507
2096	65.3792
2092	65.3884
2088	65.3436
2084	65.146
2080	64.9347
2076	64.922
2072	64.9638
2068	65.0239
2064	65.1889
2060	65.4021
2056	65.4723
2052	65.3259
2048	65.2356
2044	65.264
2040	65.2777
2036	65.2899
2032	65.3554
2028	65.4134
2024	65.3355
2020	65.223
2016	65.2335
2012	65.2943
2008	65.3218
2004	65.3481
2000	65.3277
1996	65.2955
1992	65.371
1988	65.4343
1984	65.4053
1980	65.371
1976	65.3649
1972	65.3619
1968	65.3254
1964	65.3019
1960	65.3176
1956	65.3401
1952	65.3641
1948	65.3948
1944	65.4294
1940	65.439
1936	65.448
1932	65.4715
1928	65.4231
1924	65.3825
1920	65.43
1916	65.4256
1912	65.379
1908	65.3464
1904	65.3136
1900	65.3348
1896	65.3973
1892	65.4057
1888	65.3258
1884	65.2678
1880	65.3078
1876	65.3448
1872	65.3205
1868	65.3471
1864	65.4245
1860	65.3978
1856	65.2944
1852	65.2546
1848	65.251
1844	65.2747
1840	65.3532
1836	65.4184
1832	65.4577
1828	65.4463
1824	65.4016
1820	65.4124
1816	65.4272
1812	65.3986
1808	65.3683
1804	65.3743
1800	65.3836
1796	65.3649
1792	65.3643
1788	65.3381
1784	65.2673
1780	65.2507
1776	65.329
1772	65.4162
1768	65.3779
1764	65.235
1760	65.1579
1756	65.2108
1752	65.2369
1748	65.1707
1744	65.0977
1740	65.0387
1736	65.0318
1732	65.0534
1728	65.0215
1724	64.9587
1720	64.963
1716	65.0856
1712	65.1896
1708	65.2418
1704	65.3279
1700	65.3471
1696	65.2954
1692	65.2968
1688	65.3252
1684	65.3086
1680	65.2526
1676	65.177
1672	65.1337
1668	65.2161
1664	65.3035
1660	65.2368
1656	65.1837
1652	65.2147
1648	65.1842
1644	65.1997
1640	65.3393
1636	65.4135
1632	65.37
1628	65.3045
1624	65.2565
1620	65.222
1616	65.1787
1612	65.1303
1608	65.0954
1604	65.0664
1600	65.0432
1596	65.049
1592	65.0691
1588	65.133
1584	65.2255
1580	65.2947
1576	65.3309
1572	65.3228
1568	65.2512
1564	65.1405
1560	65.0798
1556	65.1494
1552	65.2228
1548	65.1232
1544	65.0376
1540	65.0651
1536	65.083
1532	65.0971
1528	65.075
1524	65.0175
1520	65.0424
1516	65.1251
1512	65.14
1508	65.1335
1504	65.1806
1500	65.1405
1496	64.9284
1492	64.8464
1488	65.0583
1484	65.2216
1480	65.2041
1476	65.1613
1472	65.1679
1468	65.2282
1464	65.248
1460	65.1351
1456	64.9921
1452	64.9897
1448	65.071
1444	65.1077
1440	65.1649
1436	65.1987
1432	65.1749
1428	65.1982
1424	65.2246
1420	65.1797
1416	65.1485
1412	65.1485
1408	65.1076
1404	65.1077
1400	65.1711
1396	65.2109
1392	65.2405
1388	65.2669
1384	65.2536
1380	65.172
1376	65.073
1372	65.0888
1368	65.185
1364	65.1718
1360	65.12
1356	65.1446
1352	65.1134
1348	65.068
1344	65.1144
1340	65.1283
1336	65.0626
1332	65.0021
1328	65.0043
1324	65.0221
1320	64.9757
1316	64.9569
1312	65.0084
1308	65.0015
1304	64.9595
1300	65.0104
1296	65.0719
1292	65.0404
1288	64.9775
1284	64.9361
1280	64.9455
1276	65.0031
1272	65.0202
1268	64.981
1264	65.0093
1260	65.098
1256	65.0543
1252	64.9332
1248	64.9437
1244	65.0417
1240	65.0751
1236	65.0135
1232	64.9747
1228	65.0469
1224	65.1302
1220	65.1386
1216	65.0828
1212	65.02
1208	65.0515
1204	65.0799
1200	65.0634
1196	65.1206
1192	65.1332
1188	65.046
1184	65.006
1180	64.9833
1176	64.9122
1172	64.9076
1168	64.9628
1164	64.9326
1160	64.8592
1156	64.8501
1152	64.9141
1148	65.0303
1144	65.0649
1140	64.8502
1136	64.5318
1132	64.5165
1128	64.7187
1124	64.7267
1120	64.6878
1116	64.7126
1112	64.6044
1108	64.6688
1104	65.2193
1100	65.6531
1096	65.2705
1092	64.8348
1088	65.0305
1084	65.0467
1080	64.6781
1076	64.4491
1072	64.3675
1068	64.3249
1064	64.3698
1060	64.5769
1056	64.7665
1052	64.7016
1048	64.488
1044	64.4271
1040	64.5452
1036	64.5971
1032	64.5344
1028	64.4914
1024	64.4985
1020	64.4454
1016	64.3887
1012	64.5947
1008	64.8017
1004	64.8623
1000	65.1758
996	 65.3386
992	 65.1007
988	 64.9887
984	 65.0056
980	 64.9843
976	 64.8456
972	 64.5824
968	 64.4426
964	 64.473
960	 64.5583
956	 64.6351
952	 64.6872
948	 64.6854
944	 64.5883
940	 64.5145
936	 64.5885
932	 64.7039
928	 64.7163
924	 64.6807
920	 64.6684
916	 64.6497
912	 64.5702
908	 64.4943
904	 64.3909
900	 64.2312
896	 64.258
892	 64.3999
888	 64.4715
884	 64.5209
880	 64.3848
876	 64.1616
872	 64.2882
868	 64.5619
864	 64.6882
860	 64.6972
856	 64.5731
852	 64.489
848	 64.5836
844	 64.6994
840	 64.7086
836	 64.5568
832	 64.3754
828	 64.3914
824	 64.4244
820	 64.3246
816	 64.4274
812	 64.6612
808	 64.5966
804	 64.323
800	 64.1669
796	 64.158
792	 64.1221
788	 64.0882
784	 64.1802
780	 64.3182
776	 64.4127
772	 64.4148
768	 64.237
764	 64.0277
760	 63.8905
756	 63.6251
752	 63.6252
748	 63.7931
744	 63.3436
740	 62.8144
736	 62.8052
732	 63.094
728	 63.4658
724	 63.5536
720	 63.4663
716	 63.5514
712	 63.6389
708	 63.7798
704	 64.0951
700	 64.2095
696	 63.9917
692	 63.7944
688	 63.6242
684	 63.3631
680	 63.1791
676	 63.1424
672	 63.0984
668	 62.9828
664	 63.0214
660	 63.2923
656	 63.4022
652	 63.1741
648	 62.8641
644	 62.7159
640	 62.8409
636	 62.8647
632	 62.6127
628	 62.536
624	 62.8479
620	 63.0852
616	 62.9645
612	 62.6969
608	 62.4163
604	 62.1864
600	 61.8294
596	 61.5669
592	 61.864
588	 62.2808
584	 62.3233
580	 62.1943
576	 62.0285
572	 62.0826
568	 62.4116
564	 62.4243
560	 62.1634
556	 62.1176
552	 62.1112
548	 61.9532
544	 61.7149
540	 61.5766
536	 61.6588
532	 61.4108
528	 60.8989
524	 60.5712
520	 60.415
516	 60.7859
512	 61.223
508	 60.9911
504	 60.7295
500	 60.6689
496	 60.2246
492	 60.0679
488	 60.2749
484	 60.0222
480	 59.6401
476	 59.3704
472	 59.4887
468	 60.6931
464	 61.7643
460	 60.9946
456	 59.7484
452	 58.6674
448	 57.204
444	 57.1834
440	 58.7819
436	 59.4798
432	 58.2608
428	 56.984
424	 58.0174
420	 61.6552
416	 65.5321
412	 68.6437
408	 68.2814
404	 61.3408
400	 61.5139
396	 86.8961
392	 118.276
388	 116.798
384	 95.511
380	 99.2497
376	 98.6499
372	 67.5123
370	 63.2499