File: Bakgrunnsmateriale/MATLAB/FTIR/ftir_data/subBb/Mapping_121/C-4040-8_t99.asc
PE IR       SPECTRUM    SPECTRUM    ASCII       PEDS        1.60
  -1
C-C94E~1.ASC
17/03/27
22:37:33.00
17/03/27
22:37:59.00
tln
$C-4040-8_t0099$<tbV0>[-13.0,7.8,8.0,0.0,27,1,0]
27.028
64

2002,4.07
MIRTGS : RIGHTBACK : INTERNAL 2
MIR : ON : INTERNAL 2
OPTKBR

0.200000
8
8.000000
FILLER
RATIO
SPECTRUM
UNLOCKED 256

DOUBLE
64
COMBINED
1
0
0

0.002000
RATIO

1
0
TRUE
51149
0
LEFT NOT FITTED RIGHT NOT FITTED 0
NONE
NONE
15600
12
4.427000
51148
TRUE
1 0 8 72 0 0 0 0

15798

#HDR
-1
-1
#GR
µM
%T
2.38419e-05
0.0
2.000000
0.002000
12515
8
174.588
49.0296
#DATA
2.000000	 65.202
2.018000	 65.0456
2.036000	 65.1933
2.054000	 64.7838
2.072000	 64.7187
2.090000	 65.294
2.108000	 64.9315
2.126000	 65.0427
2.144000	 65.1271
2.162000	 65.406
2.180000	 64.8047
2.198000	 64.6581
2.216000	 64.0724
2.234000	 63.5635
2.252000	 63.179
2.270000	 63.5501
2.288000	 65.517
2.306000	 63.3089
2.324000	 63.469
2.342000	 64.2783
2.360000	 64.2882
2.378000	 64.3434
2.396000	 64.8963
2.414000	 64.9372
2.432000	 64.955
2.450000	 65.2099
2.468000	 65.2963
2.486000	 65.4114
2.504000	 64.9608
2.522000	 65.0843
2.540000	 65.1046
2.558000	 64.8302
2.576000	 64.748
2.594000	 64.9317
2.612000	 64.257
2.630000	 64.7016
2.648000	 64.8339
2.666000	 65.0661
2.684000	 65.2024
2.702000	 65.1594
2.720000	 65.1536
2.738000	 65.177
2.756000	 65.1138
2.774000	 65.1201
2.792000	 65.1995
2.810000	 65.292
2.828000	 65.09
2.846000	 64.9588
2.864000	 64.9859
2.882000	 64.9089
2.900000	 64.8008
2.918000	 65.1788
2.936000	 65.0536
2.954000	 64.7647
2.972000	 64.9192
2.990000	 65.0581
3.008000	 64.9053
3.026000	 65.0739
3.044000	 65.1242
3.062000	 65.1273
3.080000	 65.0307
3.098000	 64.9234
3.116000	 65.1153
3.134000	 65.1074
3.152000	 65.2434
3.170000	 65.2301
3.188000	 65.2891
3.206000	 64.975
3.224000	 65.3954
3.242000	 65.1048
3.260000	 64.9998
3.278000	 65.1614
3.296000	 65.2278
3.314000	 65.0028
3.332000	 65.2274
3.350000	 65.042
3.368000	 64.883
3.386000	 64.8789
3.404000	 65.037
3.422000	 64.6337
3.440000	 64.9582
3.458000	 64.893
3.476000	 64.8952
3.494000	 65.1287
3.512000	 64.8855
3.530000	 65.0296
3.548000	 65.0532
3.566000	 65.1381
3.584000	 65.1563
3.602000	 65.0693
3.620000	 65.2321
3.638000	 65.1348
3.656000	 65.0874
3.674000	 65.1127
3.692000	 65.2236
3.710000	 65.0634
3.728000	 65.1712
3.746000	 65.1565
3.764000	 65.107
3.782000	 65.0773
3.800000	 65.0784
3.818000	 65.2663
3.836000	 65.0368
3.854000	 65.0277
3.872000	 65.1931
3.890000	 65.0383
3.908000	 65.0197
3.926000	 65.0431
3.944000	 65.1331
3.962000	 64.9852
3.980000	 65.0142
3.998000	 65.2418
4.016000	 65.1503
4.034000	 65.294
4.052000	 65.1323
4.070000	 65.2145
4.088000	 65.1629
4.106000	 65.1567
4.124000	 64.9859
4.141999	 65.4487
4.160000	 65.2291
4.178000	 65.1478
4.196000	 65.1238
4.214000	 65.0266
4.232000	 65.1579
4.250000	 65.2085
4.268000	 65.2145
4.286000	 65.2746
4.304000	 65.1879
4.322000	 65.3872
4.340000	 65.1815
4.358000	 65.2557
4.375999	 65.2282
4.394000	 65.3223
4.412000	 65.1763
4.430000	 65.3093
4.448000	 65.2281
4.466000	 65.0766
4.484000	 65.1643
4.502000	 65.1304
4.520000	 65.1401
4.538000	 65.1593
4.556000	 65.0798
4.574000	 65.1793
4.592000	 65.2158
4.609999	 65.2868
4.628000	 65.3566
4.646000	 65.3902
4.664000	 65.1402
4.682000	 65.1709
4.700000	 65.2413
4.718000	 65.1569
4.736000	 65.2949
4.754000	 65.1662
4.772000	 65.0464
4.790000	 64.8397
4.808000	 65.2004
4.826000	 65.446
4.843999	 65.4342
4.862000	 65.239
4.880000	 65.0879
4.898000	 65.2148
4.916000	 65.1768
4.934000	 65.1917
4.952000	 65.1828
4.970000	 65.2504
4.988000	 65.1678
5.006000	 65.173
5.024000	 65.1458
5.042000	 65.2479
5.060000	 65.2982
5.077999	 65.3496
5.096000	 65.3184
5.114000	 65.275
5.132000	 65.2069
5.150000	 65.2414
5.168000	 65.2491
5.186000	 65.2848
5.204000	 65.2136
5.222000	 65.1654
5.240000	 65.0865
5.258000	 65.1471
5.276000	 65.1111
5.294000	 65.1002
5.312000	 65.0918
5.330000	 65.1043
5.348000	 65.1202
5.366000	 65.2278
5.384000	 65.2514
5.402000	 65.2138
5.420000	 65.2345
5.438000	 65.29
5.456000	 65.2725
5.474000	 65.2236
5.492000	 65.186
5.510000	 65.1226
5.528000	 65.228
5.546000	 65.3548
5.564000	 65.2566
5.582000	 65.2242
5.600000	 65.2265
5.618000	 65.1709
5.636000	 65.1409
5.654000	 65.2462
5.672000	 65.186
5.690000	 65.1283
5.708000	 65.1721
5.726000	 65.1093
5.744000	 65.0708
5.762000	 65.003
5.780000	 64.8521
5.798000	 64.8334
5.816000	 64.9456
5.834000	 65.1884
5.852000	 65.3381
5.870000	 65.2136
5.888000	 65.0924
5.906000	 65.2037
5.923999	 65.2219
5.942000	 65.156
5.960000	 65.1404
5.978000	 65.222
5.996000	 65.2883
6.014000	 65.221
6.032000	 65.1464
6.050000	 65.0229
6.068000	 65.0452
6.086000	 65.1503
6.104000	 65.183
6.122000	 65.1326
6.140000	 65.0656
6.158000	 65.0869
6.176000	 65.1317
6.194000	 65.0597
6.212000	 64.9822
6.230000	 64.9746
6.248000	 64.9444
6.266000	 64.9186
6.284000	 64.9712
6.302000	 65.0262
6.320000	 65.0751
6.338000	 65.037
6.356000	 64.8952
6.374000	 64.8741
6.392000	 64.8978
6.410000	 64.852
6.428000	 64.891
6.446000	 64.9786
6.464000	 65.0692
6.482000	 65.0931
6.500000	 65.02
6.518000	 64.9783
6.536000	 64.9754
6.554000	 64.9975
6.572000	 65.0764
6.590000	 65.121
6.608000	 65.0521
6.626000	 65.0302
6.644000	 65.0913
6.662000	 65.1122
6.680000	 65.1366
6.698000	 65.1105
6.716000	 65.0273
6.734000	 65.0444
6.752000	 65.0956
6.770000	 65.096
6.788000	 65.0473
6.806000	 64.9795
6.824000	 65.0355
6.842000	 65.1608
6.860000	 65.0916
6.878000	 64.8616
6.896000	 64.8495
6.914000	 65.1236
6.932000	 65.2545
6.950000	 65.1265
6.968000	 64.9947
6.986000	 64.9415
7.004000	 64.9001
7.022000	 64.8588
7.040000	 64.8515
7.058000	 64.8768
7.076000	 64.943
7.094000	 65.0816
7.112000	 65.1971
7.130000	 65.1963
7.148000	 65.1588
7.166000	 65.1227
7.184000	 65.0338
7.202000	 64.9381
7.220000	 64.9075
7.238000	 64.8853
7.256000	 64.8196
7.274000	 64.8027
7.292000	 64.8643
7.310000	 64.897
7.328000	 64.8906
7.346000	 64.9272
7.364000	 64.9878
7.382000	 65.008
7.400000	 65.0007
7.418000	 64.9998
7.436000	 64.9977
7.454000	 64.9581
7.472000	 64.8702
7.490000	 64.7968
7.508000	 64.7988
7.526000	 64.86
7.544000	 64.9539
7.562000	 65.0317
7.580000	 65.008
7.598000	 64.901
7.616000	 64.8277
7.634000	 64.8288
7.652000	 64.8706
7.670000	 64.929
7.688000	 64.9777
7.706000	 64.9999
7.724000	 65.0006
7.742000	 64.9639
7.760000	 64.8836
7.778000	 64.816
7.796000	 64.8118
7.814000	 64.8452
7.832000	 64.8604
7.850000	 64.8347
7.868000	 64.7909
7.886000	 64.7797
7.904000	 64.8254
7.922000	 64.8907
7.940000	 64.9299
7.958000	 64.941
7.976000	 64.9332
7.994000	 64.9119
8.012000	 64.9085
8.030000	 64.9401
8.048000	 64.963
8.065999	 64.9363
8.084000	 64.8841
8.102000	 64.8435
8.120000	 64.8198
8.138000	 64.8194
8.155999	 64.8483
8.173999	 64.8776
8.192000	 64.8756
8.210000	 64.8594
8.228000	 64.8598
8.246000	 64.8686
8.263999	 64.8592
8.282000	 64.8219
8.300000	 64.7715
8.318000	 64.7401
8.336000	 64.7583
8.353999	 64.8213
8.372000	 64.8856
8.390000	 64.9123
8.408000	 64.8965
8.426000	 64.8601
8.443999	 64.836
8.462000	 64.8453
8.480000	 64.8764
8.498000	 64.9027
8.516000	 64.9205
8.533999	 64.9441
8.552000	 64.962
8.570000	 64.9372
8.588000	 64.869
8.606000	 64.8109
8.624000	 64.8056
8.641999	 64.8305
8.660000	 64.8357
8.678000	 64.8127
8.696000	 64.7871
8.714000	 64.7635
8.731999	 64.7192
8.750000	 64.6608
8.768000	 64.6391
8.786000	 64.6884
8.804000	 64.7668
8.821999	 64.7918
8.840000	 64.7275
8.858000	 64.6235
8.876000	 64.5636
8.894000	 64.591
8.911999	 64.6817
8.930000	 64.7744
8.948000	 64.8143
8.966000	 64.7845
8.984000	 64.7171
9.001999	 64.6678
9.020000	 64.6642
9.038000	 64.6793
9.056000	 64.6657
9.074000	 64.6176
9.092000	 64.58
9.109999	 64.5855
9.128000	 64.6032
9.146000	 64.5702
9.164000	 64.4675
9.182000	 64.3442
9.199999	 64.2643
9.218000	 64.2515
9.236000	 64.2857
9.254000	 64.3413
9.272000	 64.4095
9.289999	 64.4901
9.308000	 64.5765
9.326000	 64.6551
9.344000	 64.7119
9.362000	 64.7328
9.379999	 64.7056
9.398000	 64.6306
9.416000	 64.5307
9.434000	 64.4474
9.452000	 64.4195
9.469999	 64.4628
9.488000	 64.5657
9.506000	 64.6972
9.524000	 64.8157
9.542000	 64.881
9.560000	 64.8684
9.577999	 64.7802
9.596000	 64.6481
9.614000	 64.5199
9.632000	 64.435
9.650000	 64.4043
9.667999	 64.4135
9.686000	 64.4438
9.704000	 64.4926
9.722000	 64.5752
9.740000	 64.7008
9.757999	 64.8456
9.776000	 64.9532
9.794000	 64.9683
9.812000	 64.8759
9.830000	 64.7112
9.847999	 64.5331
9.866000	 64.3906
9.884000	 64.3087
9.902000	 64.2953
9.920000	 64.3475
9.937999	 64.4478
9.956000	 64.5554
9.974000	 64.6229
9.992000	 64.6281
10.01	64.5913
10.028	64.5618
10.046	64.5779
10.064	64.6385
10.082	64.7089
10.1	64.7481
10.118	64.7365
10.136	64.6834
10.154	64.6119
10.172	64.5425
10.19	64.4854
10.208	64.442
10.226	64.4091
10.244	64.3825
10.262	64.3617
10.28	64.3509
10.298	64.357
10.316	64.3843
10.334	64.4292
10.352	64.4813
10.37	64.5255
10.388	64.5487
10.406	64.5446
10.424	64.5155
10.442	64.4714
10.46	64.4234
10.478	64.3807
10.496	64.3479
10.514	64.3254
10.532	64.314
10.55	64.3186
10.568	64.3448
10.586	64.3917
10.604	64.446
10.622	64.4829
10.64	64.479
10.658	64.4255
10.676	64.3368
10.694	64.243
10.712	64.1778
10.73	64.1622
10.748	64.1993
10.766	64.2793
10.784	64.3902
10.802	64.5201
10.82	64.6569
10.838	64.7838
10.856	64.8823
10.874	64.9377
10.892	64.9465
10.91	64.9173
10.928	64.8658
10.946	64.8086
10.964	64.7533
10.982	64.6974
11	64.6305
11.018	64.5407
11.036	64.4237
11.054	64.2867
11.072	64.148
11.09	64.0337
11.108	63.9664
11.126	63.9612
11.144	64.0189
11.162	64.1258
11.18	64.2611
11.198	64.3998
11.216	64.5171
11.234	64.5919
11.252	64.6078
11.27	64.5596
11.288	64.458
11.306	64.3282
11.324	64.2056
11.342	64.1237
11.36	64.1014
11.378	64.1384
11.396	64.2174
11.414	64.3121
11.432	64.3999
11.45	64.4696
11.468	64.52
11.486	64.5555
11.504	64.5793
11.522	64.5908
11.54	64.5874
11.558	64.569
11.576	64.5398
11.594	64.5069
11.612	64.4781
11.63	64.4583
11.648	64.447
11.666	64.4393
11.684	64.4274
11.702	64.4051
11.72	64.37
11.738	64.3244
11.756	64.2748
11.774	64.2289
11.792	64.1918
11.81	64.1645
11.828	64.1442
11.846	64.1268
11.864	64.1093
11.882	64.0922
11.9	64.0809
11.918	64.0834
11.936	64.1063
11.954	64.1522
11.972	64.2172
11.99	64.2912
12.008	64.3612
12.026	64.4154
12.044	64.4461
12.062	64.4511
12.08	64.4338
12.098	64.4013
12.116	64.3627
12.134	64.3266
12.152	64.2999
12.17	64.2868
12.188	64.2891
12.206	64.3057
12.224	64.3325
12.242	64.3629
12.26	64.3892
12.278	64.4038
12.296	64.4016
12.314	64.3811
12.332	64.3442
12.35	64.2952
12.368	64.2392
12.386	64.1813
12.404	64.1264
12.422	64.0788
12.44	64.0424
12.458	64.0201
12.476	64.0131
12.494	64.02
12.512	64.0365
12.53	64.0554
12.548	64.0687
12.566	64.0694
12.584	64.053
12.602	64.0182
12.62	63.968
12.638	63.9076
12.656	63.8425
12.674	63.7773
12.692	63.7157
12.71	63.6608
12.728	63.6148
12.746	63.58
12.764	63.5583
12.782	63.5509
12.8	63.5565
12.818	63.5723
12.836	63.5935
12.854	63.6162
12.872	63.6374
12.89	63.6567
12.908	63.6757
12.926	63.6978
12.944	63.7266
12.962	63.764
12.98	63.8096
12.998	63.8606
13.016	63.9131
13.034	63.9631
13.052	64.0089
13.07	64.0506
13.088	64.0906
13.106	64.1308
13.124	64.1722
13.142	64.2124
13.16	64.2454
13.178	64.262
13.196	64.253
13.214	64.2116
13.232	64.136
13.25	64.0307
13.268	63.9064
13.286	63.7783
13.304	63.6624
13.322	63.5724
13.34	63.5167
13.358	63.4971
13.376	63.5092
13.394	63.5439
13.412	63.5899
13.43	63.6371
13.448	63.6782
13.466	63.7098
13.484	63.7322
13.502	63.7485
13.52	63.763
13.538	63.7791
13.556	63.7987
13.574	63.8225
13.592	63.8488
13.61	63.8754
13.628	63.8986
13.646	63.9149
13.664	63.9206
13.682	63.9129
13.7	63.8902
13.718	63.852
13.736	63.8001
13.754	63.7379
13.772	63.6704
13.79	63.603
13.808	63.541
13.826	63.4894
13.844	63.4512
13.862	63.4279
13.88	63.4187
13.898	63.4218
13.916	63.4342
13.934	63.4524
13.952	63.4726
13.97	63.4911
13.988	63.5043
14.006	63.509
14.024	63.5023
14.042	63.4815
14.06	63.4451
14.078	63.3929
14.096	63.3268
14.114	63.2506
14.132	63.1699
14.15	63.091
14.168	63.0208
14.186	62.9652
14.204	62.9281
14.222	62.9116
14.24	62.9153
14.258	62.9374
14.276	62.9743
14.294	63.0224
14.312	63.078
14.33	63.1381
14.348	63.2005
14.366	63.2633
14.384	63.3249
14.402	63.383
14.42	63.4353
14.438	63.4789
14.456	63.5111
14.474	63.5298
14.492	63.5337
14.51	63.5231
14.528	63.5
14.546	63.4679
14.564	63.4308
14.582	63.393
14.6	63.3582
14.618	63.329
14.636	63.3069
14.654	63.292
14.672	63.2832
14.69	63.2789
14.708	63.2772
14.726	63.2762
14.744	63.2738
14.762	63.2687
14.78	63.2596
14.798	63.2455
14.816	63.2255
14.834	63.1989
14.852	63.165
14.87	63.1246
14.888	63.0788
14.906	63.0297
14.924	62.9804
14.942	62.9352
14.96	62.8982
14.978	62.8733
14.996	62.863
15.014	62.8687
15.032	62.8895
15.05	62.9219
15.068	62.9611
15.086	63.0014
15.104	63.0365
15.122	63.0599
15.14	63.0672
15.158	63.0565
15.176	63.0273
15.194	62.9815
15.212	62.9238
15.23	62.8592
15.248	62.7928
15.266	62.7296
15.284	62.6742
15.302	62.6292
15.32	62.5955
15.338	62.5729
15.356	62.5602
15.374	62.5549
15.392	62.5551
15.41	62.559
15.428	62.5652
15.446	62.573
15.464	62.5822
15.482	62.5925
15.5	62.6043
15.518	62.6172
15.536	62.631
15.554	62.6451
15.572	62.6586
15.59	62.6702
15.608	62.679
15.626	62.6842
15.644	62.6853
15.662	62.6827
15.68	62.677
15.698	62.6691
15.716	62.6602
15.734	62.6516
15.752	62.6439
15.77	62.6379
15.788	62.6342
15.806	62.6332
15.824	62.6353
15.842	62.6409
15.86	62.6506
15.878	62.665
15.896	62.6848
15.914	62.7107
15.932	62.7431
15.95	62.782
15.968	62.8265
15.986	62.8745
16.004	62.9232
16.022	62.9697
16.04	63.009
16.058	63.0373
16.076	63.0516
16.094	63.0478
16.112	63.025
16.13	62.9831
16.148	62.9231
16.166	62.8497
16.184	62.7669
16.202	62.6799
16.22	62.5965
16.238	62.5216
16.256	62.4602
16.274	62.4172
16.292	62.3938
16.31	62.3909
16.328	62.4066
16.346	62.4372
16.364	62.4794
16.382	62.5262
16.4	62.5723
16.418	62.6131
16.436	62.6423
16.454	62.657
16.472	62.6554
16.49	62.6359
16.508	62.6002
16.526	62.5496
16.544	62.4881
16.562	62.4197
16.58	62.3477
16.598	62.2778
16.616	62.2133
16.634	62.1572
16.652	62.1129
16.67	62.0812
16.688	62.063
16.706	62.058
16.724	62.0652
16.742	62.0832
16.76	62.1091
16.778	62.1413
16.796	62.1769
16.814	62.2132
16.832	62.2486
16.85	62.2806
16.868	62.3079
16.886	62.3294
16.904	62.3445
16.922	62.3533
16.94	62.3558
16.958	62.3535
16.976	62.3469
16.994	62.338
17.012	62.3284
17.03	62.319
17.048	62.3116
17.066	62.3069
17.084	62.3057
17.102	62.3087
17.12	62.3159
17.138	62.3277
17.156	62.3439
17.174	62.3643
17.192	62.3887
17.21	62.4168
17.228	62.4483
17.246	62.4829
17.264	62.5202
17.282	62.5596
17.3	62.6006
17.318	62.6421
17.336	62.6827
17.354	62.7216
17.372	62.7566
17.39	62.7868
17.408	62.8102
17.426	62.8257
17.444	62.8325
17.462	62.8295
17.48	62.8167
17.498	62.7943
17.516	62.7633
17.534	62.7242
17.552	62.6796
17.57	62.6303
17.588	62.5797
17.606	62.5289
17.624	62.4802
17.642	62.4357
17.66	62.3965
17.678	62.3642
17.696	62.3393
17.714	62.3228
17.732	62.3149
17.75	62.316
17.768	62.3262
17.786	62.3453
17.804	62.373
17.822	62.4088
17.84	62.4518
17.858	62.5012
17.876	62.5562
17.894	62.6147
17.912	62.676
17.93	62.7366
17.948	62.7955
17.966	62.8489
17.984	62.8956
18.002	62.9323
18.02	62.9575
18.038	62.9694
18.056	62.9668
18.074	62.949
18.092	62.9167
18.11	62.87
18.128	62.8113
18.146	62.7416
18.164	62.6645
18.182	62.5822
18.2	62.4977
18.218	62.4142
18.236	62.3337
18.254	62.2592
18.272	62.1916
18.29	62.133
18.308	62.0835
18.326	62.0435
18.344	62.0127
18.362	61.9906
18.38	61.9763
18.398	61.9687
18.416	61.9669
18.434	61.9701
18.452	61.9773
18.47	61.9878
18.488	62.0006
18.506	62.0154
18.524	62.0308
18.542	62.0466
18.56	62.0612
18.578	62.0745
18.596	62.0842
18.614	62.0905
18.632	62.0907
18.65	62.0848
18.668	62.0706
18.686	62.0478
18.704	62.0149
18.722	61.9719
18.74	61.9182
18.758	61.8541
18.776	61.7804
18.794	61.6979
18.812	61.6084
18.83	61.513
18.848	61.4145
18.866	61.3144
18.884	61.2159
18.902	61.1205
18.92	61.0314
18.938	60.9498
18.956	60.8786
18.974	60.8182
18.992	60.7705
19.01	60.7355
19.028	60.7141
19.046	60.7057
19.064	60.7104
19.082	60.7271
19.1	60.7547
19.118	60.7922
19.136	60.8377
19.154	60.8903
19.172	60.9476
19.19	61.0092
19.208	61.0728
19.226	61.1382
19.244	61.2034
19.262	61.2685
19.28	61.3324
19.298	61.3951
19.316	61.4563
19.334	61.5161
19.352	61.5746
19.37	61.6319
19.388	61.6888
19.406	61.7452
19.424	61.8015
19.442	61.8576
19.46	61.9133
19.478	61.9687
19.496	62.0224
19.514	62.0742
19.532	62.1223
19.55	62.1664
19.568	62.2046
19.586	62.2352
19.604	62.2578
19.622	62.2703
19.64	62.2727
19.658	62.2634
19.676	62.2426
19.694	62.2104
19.712	62.1667
19.73	62.1135
19.748	62.0502
19.766	61.9802
19.784	61.9037
19.802	61.8236
19.82	61.7416
19.838	61.6592
19.856	61.5798
19.874	61.5032
19.892	61.4327
19.91	61.3679
19.928	61.3107
19.946	61.261
19.964	61.2187
19.982	61.184
20	61.1556
20.018	61.1332
20.036	61.1155
20.054	61.1006
20.072	61.0885
20.09	61.0764
20.108	61.0648
20.126	61.0516
20.144	61.0366
20.162	61.0196
20.18	60.9999
20.198	60.9784
20.216	60.9553
20.234	60.9311
20.252	60.9078
20.27	60.8851
20.288	60.8656
20.306	60.8492
20.324	60.8374
20.342	60.8313
20.36	60.8309
20.378	60.8374
20.396	60.8503
20.414	60.8691
20.432	60.8943
20.45	60.9237
20.468	60.9571
20.486	60.9932
20.504	61.0291
20.522	61.0654
20.54	61.098
20.558	61.1276
20.576	61.1514
20.594	61.1681
20.612	61.1777
20.63	61.1781
20.648	61.1699
20.666	61.1529
20.684	61.1266
20.702	61.0925
20.72	61.051
20.738	61.0028
20.756	60.9507
20.774	60.894
20.792	60.8359
20.81	60.7768
20.828	60.7179
20.846	60.6617
20.864	60.6077
20.882	60.5584
20.9	60.5136
20.918	60.4739
20.936	60.4402
20.954	60.412
20.972	60.3891
20.99	60.3718
21.008	60.3586
21.026	60.3495
21.044	60.344
21.062	60.3404
21.08	60.3392
21.098	60.3386
21.116	60.3383
21.134	60.338
21.152	60.3363
21.17	60.3337
21.188	60.3292
21.206	60.3227
21.224	60.3143
21.242	60.3037
21.26	60.2909
21.278	60.2761
21.296	60.2594
21.314	60.2408
21.332	60.2209
21.35	60.1994
21.368	60.1766
21.386	60.1524
21.404	60.127
21.422	60.1004
21.44	60.0728
21.458	60.0442
21.476	60.0144
21.494	59.9838
21.512	59.9529
21.53	59.9213
21.548	59.8904
21.566	59.8607
21.584	59.832
21.602	59.8068
21.62	59.7845
21.638	59.7666
21.656	59.755
21.674	59.7489
21.692	59.7503
21.71	59.7596
21.728	59.7768
21.746	59.8028
21.764	59.8378
21.782	59.8808
21.8	59.9316
21.818	59.9902
21.836	60.0532
21.854	60.1213
21.872	60.1924
21.89	60.2623
21.908	60.3327
21.926	60.3994
21.944	60.4599
21.962	60.5151
21.98	60.5604
21.998	60.5954
22.016	60.6198
22.034	60.6306
22.052	60.6284
22.07	60.6129
22.088	60.5832
22.106	60.5397
22.124	60.484
22.142	60.4159
22.16	60.3362
22.178	60.2483
22.196	60.1509
22.214	60.0467
22.232	59.9391
22.25	59.8265
22.268	59.7124
22.286	59.5991
22.304	59.4854
22.322	59.3746
22.34	59.2672
22.358	59.1632
22.376	59.0647
22.394	58.9714
22.412	58.8836
22.43	58.8021
22.448	58.7266
22.466	58.6575
22.484	58.5949
22.502	58.5387
22.52	58.489
22.538	58.4458
22.556	58.4091
22.574	58.3793
22.592	58.3564
22.61	58.3402
22.628	58.3313
22.646	58.3296
22.664	58.335
22.682	58.3475
22.7	58.3673
22.718	58.3938
22.736	58.4262
22.754	58.4654
22.772	58.5094
22.79	58.5569
22.808	58.609
22.826	58.6626
22.844	58.7162
22.862	58.771
22.88	58.8229
22.898	58.8706
22.916	58.9151
22.934	58.9522
22.952	58.9803
22.97	59.0006
22.988	59.0105
23.006	59.0095
23.024	58.998
23.042	58.9746
23.06	58.9393
23.078	58.8921
23.096	58.8318
23.114	58.7582
23.132	58.6717
23.15	58.5725
23.168	58.4598
23.186	58.3346
23.204	58.1994
23.222	58.0532
23.24	57.8971
23.258	57.7346
23.276	57.5645
23.294	57.3881
23.312	57.2093
23.33	57.0272
23.348	56.8428
23.366	56.6601
23.384	56.4789
23.402	56.2993
23.42	56.1244
23.438	55.9539
23.456	55.788
23.474	55.6299
23.492	55.4793
23.51	55.3364
23.528	55.2048
23.546	55.0855
23.564	54.9775
23.582	54.8833
23.6	54.8038
23.618	54.7383
23.636	54.687
23.654	54.6507
23.672	54.6292
23.69	54.6209
23.708	54.6253
23.726	54.6434
23.744	54.6721
23.762	54.7089
23.78	54.7558
23.798	54.8098
23.816	54.8673
23.834	54.9303
23.852	54.9966
23.87	55.0622
23.888	55.1283
23.906	55.1943
23.924	55.2571
23.942	55.3166
23.96	55.3734
23.978	55.4257
23.996	55.473
24.014	55.516
24.032	55.554
24.05	55.5866
24.068	55.6139
24.086	55.6363
24.104	55.6539
24.122	55.6671
24.14	55.6753
24.158	55.6779
24.176	55.6749
24.194	55.6666
24.212	55.6532
24.23	55.6349
24.248	55.6116
24.266	55.5828
24.284	55.5478
24.302	55.5061
24.32	55.4607
24.338	55.414
24.356	55.3637
24.374	55.3124
24.392	55.2638
24.41	55.2148
24.428	55.1678
24.446	55.1316
24.464	55.1067
24.482	55.0887
24.5	55.0935
24.518	55.1335
24.536	55.1973
24.554	55.2966
24.572	55.4482
24.59	55.649
24.608	55.8979
24.626	56.2059
24.644	56.5796
24.662	57.0135
24.68	57.5076
24.698	58.0624
24.716	58.6792
24.734	59.3548
24.752	60.0852
24.77	60.8773
24.788	61.7275
24.806	62.6141
24.824	63.5251
24.842	64.4795
24.86	65.4488
24.878	66.3992
24.896	67.35
24.914	68.2914
24.932	69.1783
24.95	69.9922
24.968	70.7641
24.986	71.4463
25.004	71.9883
25.022	72.4114
25.04	72.7108
25.058	72.8527
25.076	72.8179
25.094	72.6243
25.112	72.2692
25.13	71.7481
25.148	71.0469
25.166	70.186
25.184	69.1972
25.202	68.0841
25.22	66.8216
25.238	65.4726
25.256	64.1006
25.274	62.668
25.292	61.1918
25.31	59.7414
25.328	58.3546
25.346	56.9848
25.364	55.6766
25.382	54.4831
25.4	53.3991
25.418	52.4121
25.436	51.5456
25.454	50.8206
25.472	50.2318
25.49	49.7665
25.508	49.413
25.526	49.1744
25.544	49.0549
25.562	49.0315
25.58	49.083
25.598	49.2275
25.616	49.4537
25.634	49.7324
25.652	50.0448
25.67	50.4084
25.688	50.8141
25.706	51.2494
25.724	51.7104
25.742	52.2026
25.76	52.7266
25.778	53.2837
25.796	53.8857
25.814	54.5184
25.832	55.1588
25.85	55.7934
25.868	56.4416
25.886	57.0852
25.904	57.7006
25.922	58.297
25.94	58.8886
25.958	59.4207
25.976	59.8388
25.994	60.1565
26.012	60.3843
26.03	60.4937
26.048	60.4566
26.066	60.2611
26.084	59.9415
26.102	59.5378
26.12	59.063
26.138	58.4614
26.156	57.8127
26.174	57.2122
26.192	56.6586
26.21	56.0728
26.228	55.6167
26.246	55.459
26.264	55.5792
26.282	55.9101
26.3	56.5955
26.318	57.7761
26.336	59.4114
26.354	61.4713
26.372	64.0206
26.39	67.1227
26.408	70.7906
26.426	74.9727
26.444	79.6138
26.462	84.683
26.48	90.3087
26.498	96.3528
26.516	102.61
26.534	108.949
26.552	115.594
26.57	122.359
26.588	128.975
26.606	135.289
26.624	141.551
26.642	147.569
26.66	153.09
26.678	157.975
26.696	162.432
26.714	166.332
26.732	169.508
26.75	171.857
26.768	173.482
26.786	174.387
26.804	174.564
26.822	173.979
26.84	172.607
26.858	170.556
26.876	167.943
26.894	164.788
26.912	160.962
26.93	156.648
26.948	152.052
26.966	147.022
26.984	141.016
27.002	135.096
27.02	130.432
27.028	129.203