File: Bakgrunnsmateriale/MATLAB/FTIR/ftir_data/subBb/Mapping_121/C-4040-8_t104_cm-1.asc
PE IR       SPECTRUM    SPECTRUM    ASCII       PEDS        1.60
  -1
C-498C~1.ASC
17/03/27
23:01:15.00
17/03/27
23:01:15.00
tln
$C-4040-8_t0104$<tbV0>[2.6,10.4,8.0,0.0,27,1,0]
370
64

2002,4.07
MIRTGS : RIGHTBACK : INTERNAL 2
MIR : ON : INTERNAL 2
OPTKBR

0.200000
8
8.000000
FILLER
RATIO
SPECTRUM
UNLOCKED 256

DOUBLE
64
COMBINED
1
0
0

1.000000
RATIO

1
0
TRUE
51149
0
LEFT NOT FITTED RIGHT NOT FITTED 0
NONE
NONE
15600
12
4.427000
51148
TRUE
1 0 8 72 0 0 0 0

15798

#HDR
-1
-1
#GR
CM-1
%T
2.38419e-05
0.0
5000
-1.000000
4631
8
200
53.3781
#DATA
5000	65.2866
4996	65.2486
4992	65.081
4988	65.012
4984	64.7888
4980	64.3805
4976	64.4086
4972	64.7937
4968	65.1111
4964	65.2606
4960	65.2507
4956	65.0085
4952	64.7555
4948	64.913
4944	65.0391
4940	64.9172
4936	64.773
4932	64.6274
4928	64.7165
4924	64.9132
4920	64.9284
4916	65.0457
4912	65.2951
4908	65.2452
4904	65.1134
4900	65.1818
4896	65.1496
4892	64.9379
4888	64.8037
4884	65.0034
4880	65.1415
4876	65.0525
4872	65.5422
4868	65.9987
4864	65.4576
4860	64.9069
4856	64.9585
4852	65.3356
4848	65.7157
4844	65.5917
4840	64.9114
4836	64.3985
4832	64.5256
4828	64.8667
4824	65.163
4820	65.2889
4816	65.1331
4812	65.0504
4808	65.2471
4804	65.4314
4800	65.2932
4796	65.0263
4792	64.8908
4788	65.1151
4784	65.5075
4780	65.342
4776	64.9306
4772	64.9447
4768	65.1922
4764	65.2721
4760	65.1833
4756	65.1415
4752	65.1667
4748	65.1746
4744	65.1202
4740	65.0634
4736	65.2226
4732	65.4453
4728	65.4872
4724	65.5489
4720	65.4814
4716	65.2634
4712	65.2349
4708	65.1446
4704	64.9374
4700	65.039
4696	65.2433
4692	65.1796
4688	65.0161
4684	64.9976
4680	65.0947
4676	65.078
4672	65.0102
4668	65.1383
4664	65.3445
4660	65.309
4656	65.1725
4652	65.2811
4648	65.5433
4644	65.5447
4640	65.2111
4636	64.9148
4632	64.8756
4628	65.1129
4624	65.3256
4620	65.3761
4616	65.5314
4612	65.6521
4608	65.5115
4604	65.2142
4600	64.9764
4596	65.0333
4592	65.3133
4588	65.4513
4584	65.3806
4580	65.1878
4576	65.059
4572	65.152
4568	65.1836
4564	65.12
4560	65.2135
4556	65.2755
4552	65.3075
4548	65.5104
4544	65.6015
4540	65.45
4536	65.1695
4532	65.134
4528	65.3037
4524	65.3263
4520	65.2611
4516	64.9962
4512	64.8107
4508	64.825
4504	64.7507
4500	64.7029
4496	64.8114
4492	64.9729
4488	64.9451
4484	64.6766
4480	64.4321
4476	64.4282
4472	64.5657
4468	64.6891
4464	64.7935
4460	64.6795
4456	64.4957
4452	64.5497
4448	64.5233
4444	64.361
4440	64.4572
4436	64.493
4432	64.479
4428	64.7433
4424	65.0651
4420	65.0415
4416	64.7456
4412	64.3709
4408	63.8935
4404	64.0349
4400	62.4928
4396	57.0515
4392	54.7555
4388	75.2106
4384	91.2059
4380	74.4142
4376	63.6023
4372	64.5364
4368	65.1152
4364	64.7272
4360	64.5182
4356	64.4588
4352	64.6986
4348	64.8236
4344	64.7964
4340	64.5789
4336	64.3411
4332	64.3842
4328	64.6562
4324	65.1238
4320	65.2534
4316	65.01
4312	65.0025
4308	65.091
4304	64.9242
4300	64.63
4296	64.5416
4292	64.553
4288	64.6357
4284	64.8732
4280	64.8432
4276	64.7134
4272	64.8171
4268	64.9329
4264	65.0073
4260	65.0088
4256	64.7177
4252	64.4297
4248	64.5705
4244	64.6682
4240	64.5448
4236	64.5333
4232	64.6229
4228	64.6934
4224	64.5834
4220	64.5442
4216	64.7467
4212	64.7755
4208	64.6914
4204	64.7524
4200	64.7173
4196	64.6963
4192	64.8723
4188	64.7138
4184	64.3605
4180	64.4341
4176	64.7521
4172	64.8517
4168	64.8005
4164	64.975
4160	65.1779
4156	65.2926
4152	65.3237
4148	65.2138
4144	65.1972
4140	65.2263
4136	65.1677
4132	65.0289
4128	64.9043
4124	65.0129
4120	65.236
4116	65.292
4112	65.2638
4108	65.3784
4104	65.4845
4100	65.3138
4096	65.0507
4092	64.8835
4088	64.8623
4084	64.9792
4080	64.9491
4076	64.7687
4072	64.7618
4068	64.9789
4064	65.2078
4060	65.2301
4056	65.0896
4052	64.9898
4048	64.9706
4044	65.0495
4040	65.1905
4036	65.2548
4032	65.2323
4028	65.2214
4024	65.3423
4020	65.4598
4016	65.3859
4012	65.2663
4008	65.2575
4004	65.2517
4000	65.059
3996	64.8972
3992	64.9641
3988	65.1136
3984	65.3094
3980	65.3202
3976	65.0877
3972	65.0411
3968	65.2866
3964	65.5329
3960	65.4998
3956	65.2501
3952	65.0765
3948	65.0339
3944	65.0706
3940	65.1352
3936	65.127
3932	65.095
3928	65.0545
3924	65.0049
3920	65.0871
3916	65.3275
3912	65.5077
3908	65.4374
3904	65.3161
3900	65.3059
3896	65.2364
3892	65.0984
3888	65.0301
3884	65.0898
3880	65.1349
3876	65.1766
3872	65.3284
3868	65.4174
3864	65.4157
3860	65.3476
3856	65.1896
3852	65.0128
3848	64.9474
3844	65.0472
3840	65.147
3836	65.1664
3832	65.0856
3828	64.9764
3824	64.9967
3820	65.0889
3816	65.1518
3812	65.1293
3808	65.0683
3804	65.0894
3800	65.2432
3796	65.3792
3792	65.3666
3788	65.3527
3784	65.3071
3780	65.2191
3776	65.2654
3772	65.287
3768	65.1938
3764	65.1587
3760	65.2596
3756	65.3684
3752	65.3079
3748	65.2558
3744	65.2723
3740	65.2027
3736	65.2266
3732	65.4203
3728	65.5702
3724	65.5485
3720	65.3886
3716	65.2368
3712	65.1882
3708	65.1852
3704	65.1709
3700	65.1486
3696	65.2036
3692	65.3071
3688	65.341
3684	65.3226
3680	65.2051
3676	65.1013
3672	65.1934
3668	65.3831
3664	65.4598
3660	65.3077
3656	65.0671
3652	64.9565
3648	65.1295
3644	65.4639
3640	65.5597
3636	65.4099
3632	65.3124
3628	65.2917
3624	65.2915
3620	65.2595
3616	65.1305
3612	65.0174
3608	65.0577
3604	65.2308
3600	65.3233
3596	65.3067
3592	65.3205
3588	65.3292
3584	65.349
3580	65.3248
3576	65.2437
3572	65.2725
3568	65.3833
3564	65.4556
3560	65.4383
3556	65.4141
3552	65.4063
3548	65.2843
3544	65.1476
3540	65.1168
3536	65.1917
3532	65.3519
3528	65.393
3524	65.2721
3520	65.1276
3516	65.0328
3512	65.0902
3508	65.1614
3504	65.1243
3500	65.106
3496	65.164
3492	65.3022
3488	65.2876
3484	65.0064
3480	64.8476
3476	64.9184
3472	65.0928
3468	65.2974
3464	65.2431
3460	65.0416
3456	65.0527
3452	65.1336
3448	65.1361
3444	65.1726
3440	65.2295
3436	65.3338
3432	65.4599
3428	65.4157
3424	65.299
3420	65.2952
3416	65.378
3412	65.4204
3408	65.3879
3404	65.3422
3400	65.2464
3396	65.0741
3392	64.9722
3388	65.0315
3384	65.1015
3380	65.1328
3376	65.1527
3372	65.147
3368	65.1992
3364	65.3056
3360	65.3556
3356	65.3429
3352	65.3583
3348	65.3658
3344	65.2589
3340	65.1605
3336	65.1781
3332	65.2181
3328	65.2468
3324	65.1869
3320	65.0496
3316	65.0531
3312	65.1848
3308	65.1912
3304	65.1097
3300	65.0874
3296	65.0736
3292	65.0825
3288	65.1174
3284	65.1811
3280	65.2349
3276	65.2332
3272	65.232
3268	65.2594
3264	65.2727
3260	65.185
3256	65.1144
3252	65.0798
3248	65.0231
3244	65.0933
3240	65.2225
3236	65.2207
3232	65.1182
3228	65.0443
3224	65.0792
3220	65.2235
3216	65.325
3212	65.3842
3208	65.4419
3204	65.3484
3200	65.1247
3196	64.9371
3192	64.9429
3188	65.0663
3184	65.1213
3180	65.1555
3176	65.2189
3172	65.2642
3168	65.2628
3164	65.2665
3160	65.3772
3156	65.4288
3152	65.2778
3148	65.1586
3144	65.274
3140	65.4386
3136	65.3766
3132	65.364
3128	65.4592
3124	65.2792
3120	65.1252
3116	65.1882
3112	65.2405
3108	65.3269
3104	65.3748
3100	65.3263
3096	65.3098
3092	65.3247
3088	65.2783
3084	65.1774
3080	65.1642
3076	65.2325
3072	65.2491
3068	65.2176
3064	65.172
3060	65.155
3056	65.1683
3052	65.184
3048	65.2539
3044	65.3454
3040	65.3809
3036	65.3114
3032	65.2188
3028	65.2617
3024	65.3263
3020	65.2743
3016	65.2114
3012	65.238
3008	65.272
3004	65.2227
3000	65.184
2996	65.2359
2992	65.2911
2988	65.2868
2984	65.1904
2980	65.1006
2976	65.0743
2972	64.9748
2968	64.9272
2964	65.0002
2960	65.0806
2956	65.1481
2952	65.1109
2948	65.0409
2944	65.145
2940	65.3202
2936	65.2606
2932	65.0125
2928	64.824
2924	64.6915
2920	64.6984
2916	64.8881
2912	65.0255
2908	65.0981
2904	65.1192
2900	65.0317
2896	65.0252
2892	65.1303
2888	65.2066
2884	65.22
2880	65.1975
2876	65.1859
2872	65.1655
2868	65.1549
2864	65.2468
2860	65.402
2856	65.3903
2852	65.1515
2848	64.904
2844	64.8376
2840	64.993
2836	65.2184
2832	65.2993
2828	65.2656
2824	65.2065
2820	65.1288
2816	65.1887
2812	65.3042
2808	65.268
2804	65.2324
2800	65.303
2796	65.4307
2792	65.5132
2788	65.4384
2784	65.3534
2780	65.3613
2776	65.3617
2772	65.3675
2768	65.3577
2764	65.2815
2760	65.2533
2756	65.272
2752	65.249
2748	65.2429
2744	65.2523
2740	65.2437
2736	65.2417
2732	65.2685
2728	65.345
2724	65.4211
2720	65.4712
2716	65.5007
2712	65.4665
2708	65.4023
2704	65.3372
2700	65.2692
2696	65.3121
2692	65.4152
2688	65.41
2684	65.3379
2680	65.2887
2676	65.2678
2672	65.2687
2668	65.3197
2664	65.4
2660	65.4011
2656	65.2875
2652	65.1846
2648	65.1973
2644	65.2295
2640	65.2013
2636	65.148
2632	65.1275
2628	65.192
2624	65.2968
2620	65.3668
2616	65.3685
2612	65.3574
2608	65.3476
2604	65.3256
2600	65.3222
2596	65.3117
2592	65.2992
2588	65.2853
2584	65.2712
2580	65.2781
2576	65.2997
2572	65.3047
2568	65.2984
2564	65.3161
2560	65.3078
2556	65.2924
2552	65.3046
2548	65.3646
2544	65.4325
2540	65.3926
2536	65.3409
2532	65.3371
2528	65.2816
2524	65.1941
2520	65.1818
2516	65.3221
2512	65.4963
2508	65.5632
2504	65.5144
2500	65.4502
2496	65.4634
2492	65.4067
2488	65.2937
2484	65.3291
2480	65.4219
2476	65.4197
2472	65.3558
2468	65.2585
2464	65.2412
2460	65.3593
2456	65.4422
2452	65.3985
2448	65.3085
2444	65.2306
2440	65.1472
2436	65.1447
2432	65.1027
2428	64.8731
2424	64.8081
2420	64.9918
2416	65.1496
2412	65.2856
2408	65.534
2404	65.6934
2400	65.549
2396	65.362
2392	65.2846
2388	65.2199
2384	65.1754
2380	65.1592
2376	65.1672
2372	65.1927
2368	65.2593
2364	65.3424
2360	65.3289
2356	65.2647
2352	65.2101
2348	65.1783
2344	65.2245
2340	65.3296
2336	65.3826
2332	65.3342
2328	65.3318
2324	65.4223
2320	65.4611
2316	65.3978
2312	65.3214
2308	65.2991
2304	65.3148
2300	65.3296
2296	65.3709
2292	65.4368
2288	65.4129
2284	65.345
2280	65.3303
2276	65.3373
2272	65.3006
2268	65.2343
2264	65.2536
2260	65.3339
2256	65.3701
2252	65.3713
2248	65.3422
2244	65.2936
2240	65.27
2236	65.2631
2232	65.2933
2228	65.33
2224	65.3293
2220	65.3566
2216	65.3847
2212	65.3527
2208	65.2944
2204	65.2438
2200	65.2483
2196	65.3396
2192	65.4224
2188	65.4188
2184	65.4257
2180	65.4312
2176	65.3855
2172	65.3787
2168	65.3958
2164	65.4001
2160	65.4141
2156	65.487
2152	65.4827
2148	65.2944
2144	65.2244
2140	65.3256
2136	65.3909
2132	65.4417
2128	65.4275
2124	65.3156
2120	65.2729
2116	65.3342
2112	65.4293
2108	65.4216
2104	65.288
2100	65.2542
2096	65.3297
2092	65.3537
2088	65.2519
2084	65.188
2080	65.387
2076	65.657
2072	65.8546
2068	65.8893
2064	65.6462
2060	65.3519
2056	65.1918
2052	65.2429
2048	65.3481
2044	65.3445
2040	65.334
2036	65.3211
2032	65.2821
2028	65.2464
2024	65.2496
2020	65.2986
2016	65.3316
2012	65.3417
2008	65.3632
2004	65.351
2000	65.297
1996	65.262
1992	65.2709
1988	65.3195
1984	65.3735
1980	65.3735
1976	65.3309
1972	65.3311
1968	65.3599
1964	65.3466
1960	65.3012
1956	65.2848
1952	65.2848
1948	65.2915
1944	65.3574
1940	65.4461
1936	65.4903
1932	65.4965
1928	65.4685
1924	65.4004
1920	65.3439
1916	65.296
1912	65.2558
1908	65.2533
1904	65.2577
1900	65.2936
1896	65.3625
1892	65.4245
1888	65.4533
1884	65.3939
1880	65.2768
1876	65.2427
1872	65.3042
1868	65.2944
1864	65.2356
1860	65.2579
1856	65.3012
1852	65.295
1848	65.3195
1844	65.3929
1840	65.3884
1836	65.351
1832	65.3891
1828	65.4323
1824	65.4154
1820	65.3708
1816	65.3306
1812	65.2995
1808	65.327
1804	65.3854
1800	65.3625
1796	65.3034
1792	65.2955
1788	65.3194
1784	65.3427
1780	65.3626
1776	65.3797
1772	65.3834
1768	65.3408
1764	65.2053
1760	65.0473
1756	64.9902
1752	65.0717
1748	65.1776
1744	65.2104
1740	65.1572
1736	64.9739
1732	64.9009
1728	65.0019
1724	65.0419
1720	65.0663
1716	65.1252
1712	65.1742
1708	65.2063
1704	65.2529
1700	65.3165
1696	65.3794
1692	65.4291
1688	65.3616
1684	65.249
1680	65.2374
1676	65.2825
1672	65.3548
1668	65.3839
1664	65.3241
1660	65.2532
1656	65.2082
1652	65.2082
1648	65.2305
1644	65.2068
1640	65.1755
1636	65.1947
1632	65.1854
1628	65.1501
1624	65.1664
1620	65.1532
1616	65.107
1612	65.136
1608	65.186
1604	65.1911
1600	65.1922
1596	65.171
1592	65.1459
1588	65.1715
1584	65.2195
1580	65.1824
1576	65.0549
1572	64.9855
1568	64.9936
1564	64.9485
1560	64.8804
1556	64.9488
1552	65.1204
1548	65.2154
1544	65.2202
1540	65.2264
1536	65.1961
1532	65.1186
1528	65.1051
1524	65.144
1520	65.1444
1516	65.1346
1512	65.1836
1508	65.2531
1504	65.2486
1500	65.206
1496	65.1842
1492	65.1488
1488	65.0999
1484	65.0651
1480	65.0555
1476	65.0882
1472	65.1337
1468	65.116
1464	65.1057
1460	65.1616
1456	65.2101
1452	65.2781
1448	65.3696
1444	65.419
1440	65.3618
1436	65.2042
1432	65.0626
1428	65.0137
1424	65.0329
1420	65.0614
1416	65.0887
1412	65.1449
1408	65.2228
1404	65.203
1400	65.1222
1396	65.112
1392	65.0765
1388	65.0035
1384	65.0056
1380	65.0163
1376	64.9788
1372	64.9798
1368	65.0269
1364	65.038
1360	65.0485
1356	65.0614
1352	65.0671
1348	65.1271
1344	65.1023
1340	65.0079
1336	64.992
1332	65.0424
1328	65.143
1324	65.2181
1320	65.1795
1316	65.0105
1312	64.8953
1308	64.9467
1304	65.0095
1300	65.0596
1296	65.1375
1292	65.1476
1288	65.0344
1284	64.9162
1280	64.9727
1276	65.0926
1272	65.0145
1268	64.8833
1264	64.9283
1260	64.9878
1256	64.9738
1252	64.9884
1248	65.0394
1244	65.0993
1240	65.1242
1236	65.0739
1232	65.0112
1228	65.0567
1224	65.0774
1220	64.9587
1216	64.8735
1212	64.8458
1208	64.8795
1204	64.9665
1200	65.0035
1196	65.0267
1192	65.038
1188	65.0293
1184	65.0024
1180	64.9799
1176	64.9863
1172	65.0439
1168	65.0506
1164	64.94
1160	64.9456
1156	65.0003
1152	64.9069
1148	64.8391
1144	64.8908
1140	64.9281
1136	64.797
1132	64.6018
1128	64.642
1124	64.8869
1120	65.0433
1116	65.0007
1112	64.8985
1108	64.8899
1104	64.8683
1100	64.7429
1096	64.6343
1092	64.6656
1088	64.819
1084	64.888
1080	64.8153
1076	64.7628
1072	64.7511
1068	64.7694
1064	64.8125
1060	64.7601
1056	64.7101
1052	64.8149
1048	64.9571
1044	64.9425
1040	64.786
1036	64.6714
1032	64.6542
1028	64.6955
1024	64.6839
1020	64.5716
1016	64.4577
1012	64.4697
1008	64.5888
1004	64.5494
1000	64.3753
996	 64.3508
992	 64.5178
988	 64.6492
984	 64.6652
980	 64.6939
976	 64.6796
972	 64.6506
968	 64.7286
964	 64.7164
960	 64.5616
956	 64.4976
952	 64.5887
948	 64.697
944	 64.6897
940	 64.6215
936	 64.5354
932	 64.7122
928	 65.1199
924	 65.105
920	 64.7619
916	 64.5402
912	 64.4875
908	 64.4142
904	 64.1284
900	 64.1655
896	 64.4691
892	 64.2281
888	 64.0233
884	 64.3427
880	 64.5346
876	 64.3868
872	 64.2211
868	 64.3316
864	 64.555
860	 64.5846
856	 64.528
852	 64.4015
848	 64.1323
844	 63.879
840	 63.7102
836	 63.7683
832	 64.0746
828	 64.3443
824	 64.5712
820	 64.7669
816	 64.7402
812	 64.4501
808	 64.1243
804	 63.9582
800	 63.9422
796	 63.9977
792	 63.9254
788	 63.8335
784	 63.9434
780	 64.2167
776	 64.3186
772	 64.1084
768	 63.9676
764	 63.8297
760	 63.6811
756	 63.9463
752	 64.286
748	 64.2013
744	 63.754
740	 63.3914
736	 63.4327
732	 63.6601
728	 63.7342
724	 63.5992
720	 63.5557
716	 63.4998
712	 63.3816
708	 63.4597
704	 63.5556
700	 63.3749
696	 63.0709
692	 63.0347
688	 63.218
684	 63.3701
680	 63.3349
676	 63.1515
672	 63.0249
668	 63.1202
664	 63.309
660	 63.1797
656	 63.0117
652	 63.2791
648	 63.5988
644	 63.4719
640	 63.0985
636	 62.8429
632	 62.7347
628	 62.8653
624	 63.1121
620	 63.0339
616	 62.593
612	 62.2456
608	 62.2534
604	 62.3842
600	 62.4844
596	 62.4532
592	 62.1389
588	 61.8988
584	 62.156
580	 62.4245
576	 62.3293
572	 62.3847
568	 62.4679
564	 62.295
560	 62.3982
556	 62.9204
552	 63.2048
548	 62.8111
544	 61.9805
540	 61.4093
536	 61.3646
532	 61.3633
528	 61.1226
524	 60.8423
520	 61.0555
516	 61.223
512	 60.797
508	 60.8615
504	 61.2314
500	 60.948
496	 60.4903
492	 60.4729
488	 60.9714
484	 61.2582
480	 60.8232
476	 60.3027
472	 60.0951
468	 59.6298
464	 59.0196
460	 58.9997
456	 59.2712
452	 59.2378
448	 59.1042
444	 58.7691
440	 58.2503
436	 57.8325
432	 56.0541
428	 54.5426
424	 56.6249
420	 59.867
416	 60.0625
412	 56.2533
408	 55.2076
404	 62.8538
400	 78.0552
396	 81.0012
392	 69.6671
388	 56.4626
384	 55.6593
380	 64.8881
376	 154.465
372	 200
370	 197.486