File: Bakgrunnsmateriale/MATLAB/FTIR/ftir_data/subBb/Mapping_121/C-4040-8_t96_cm-1.asc
PE IR       SPECTRUM    SPECTRUM    ASCII       PEDS        1.60
  -1
C-1E6E~1.ASC
17/03/27
22:23:43.00
17/03/27
22:23:43.00
tln
$C-4040-8_t0096$<tbV0>[-5.2,7.8,8.0,0.0,27,1,0]
370
64

2002,4.07
MIRTGS : RIGHTBACK : INTERNAL 2
MIR : ON : INTERNAL 2
OPTKBR

0.200000
8
8.000000
FILLER
RATIO
SPECTRUM
UNLOCKED 256

DOUBLE
64
COMBINED
1
0
0

1.000000
RATIO

1
0
TRUE
51149
0
LEFT NOT FITTED RIGHT NOT FITTED 0
NONE
NONE
15600
12
4.427000
51148
TRUE
1 0 8 72 0 0 0 0

15798

#HDR
-1
-1
#GR
CM-1
%T
2.38419e-05
0.0
5000
-1.000000
4631
8
115.332
48.9146
#DATA
5000	65.5339
4996	65.3396
4992	65.1606
4988	65.4042
4984	65.5027
4980	65.1232
4976	64.9526
4972	64.8724
4968	64.4291
4964	64.5093
4960	65.157
4956	65.4119
4952	65.5128
4948	65.4805
4944	64.9692
4940	64.7436
4936	64.9559
4932	64.9782
4928	64.885
4924	64.8882
4920	64.7352
4916	64.5953
4912	64.8531
4908	65.0747
4904	65.115
4900	65.3198
4896	65.5632
4892	65.4651
4888	65.2318
4884	65.2063
4880	65.044
4876	64.7921
4872	64.8547
4868	65.1067
4864	65.1642
4860	64.9179
4856	64.762
4852	65.0582
4848	65.3059
4844	65.0959
4840	64.9708
4836	64.9789
4832	64.7371
4828	64.6655
4824	64.9248
4820	64.9802
4816	64.9369
4812	65.177
4808	65.4572
4804	65.4168
4800	65.182
4796	64.9626
4792	64.8814
4788	64.9811
4784	64.9953
4780	64.8883
4776	64.8303
4772	64.8049
4768	64.8335
4764	64.9214
4760	65.0138
4756	65.0045
4752	64.9404
4748	64.9733
4744	64.971
4740	64.8988
4736	64.9067
4732	64.8604
4728	64.74
4724	64.9118
4720	65.1259
4716	65.0379
4712	65.0771
4708	65.2405
4704	65.257
4700	65.1701
4696	65.0989
4692	65.0783
4688	65.0295
4684	65.0851
4680	65.1847
4676	65.2221
4672	65.382
4668	65.5034
4664	65.3003
4660	65.0749
4656	65.1569
4652	65.3843
4648	65.4343
4644	65.2202
4640	65.0487
4636	65.0699
4632	65.2073
4628	65.4259
4624	65.5254
4620	65.3856
4616	65.1817
4612	64.9035
4608	64.6265
4604	64.7134
4600	64.9705
4596	65.1647
4592	65.3335
4588	65.3919
4584	65.3917
4580	65.2841
4576	65.0858
4572	65.0305
4568	65.1803
4564	65.345
4560	65.4294
4556	65.5501
4552	65.6894
4548	65.8476
4544	65.7906
4540	65.2283
4536	64.5395
4532	64.3647
4528	64.6166
4524	64.7167
4520	64.9181
4516	65.4347
4512	65.6246
4508	65.2295
4504	64.7302
4500	64.6592
4496	64.8729
4492	64.9997
4488	65.004
4484	64.9585
4480	65.0536
4476	65.1997
4472	65.1504
4468	65.0905
4464	65.1002
4460	65.038
4456	64.8371
4452	64.6999
4448	64.7901
4444	64.5713
4440	64.18
4436	64.3379
4432	64.7277
4428	64.6126
4424	64.2191
4420	63.7998
4416	63.71
4412	64.348
4408	65.5349
4404	65.9564
4400	65.8274
4396	66.0506
4392	70.3134
4388	84.0153
4384	78.5271
4380	59.5377
4376	59.443
4372	62.9767
4368	65.1761
4364	65.8651
4360	65.6115
4356	65.2204
4352	65.0211
4348	65.058
4344	64.9315
4340	64.8035
4336	64.7531
4332	64.7532
4328	64.8978
4324	65.2804
4320	65.2923
4316	64.8262
4312	64.6093
4308	64.6123
4304	64.6725
4300	64.7746
4296	64.7114
4292	64.5693
4288	64.5731
4284	64.7974
4280	65.0958
4276	65.1922
4272	65.0932
4268	65.2285
4264	65.3816
4260	65.2433
4256	65.0558
4252	64.7815
4248	64.7754
4244	65.0113
4240	64.9365
4236	64.9908
4232	65.1734
4228	65.0992
4224	65.0292
4220	64.9154
4216	64.7117
4212	64.6194
4208	64.8113
4204	65.098
4200	64.9262
4196	64.4512
4192	63.9625
4188	63.9336
4184	64.483
4180	64.4825
4176	64.1615
4172	64.2731
4168	64.4959
4164	64.8825
4160	65.1528
4156	65.0361
4152	65.0032
4148	65.1508
4144	65.1283
4140	65.0776
4136	65.0761
4132	64.8333
4128	64.7421
4124	64.9993
4120	65.2355
4116	65.339
4112	65.3455
4108	65.3436
4104	65.2644
4100	65.1426
4096	65.1632
4092	65.1625
4088	65.04
4084	65.0457
4080	65.0995
4076	64.9719
4072	64.8736
4068	64.8837
4064	64.8811
4060	64.9686
4056	65.0275
4052	64.9827
4048	65.0773
4044	65.2915
4040	65.445
4036	65.4334
4032	65.3564
4028	65.4256
4024	65.5055
4020	65.4164
4016	65.3302
4012	65.2927
4008	65.1831
4004	65.0206
4000	64.9317
3996	65.0573
3992	65.2431
3988	65.3462
3984	65.4314
3980	65.4116
3976	65.2727
3972	65.2116
3968	65.2658
3964	65.3361
3960	65.2849
3956	65.0451
3952	64.8982
3948	64.8975
3944	64.8923
3940	64.9736
3936	65.0801
3932	65.0141
3928	64.8335
3924	64.8225
3920	64.9462
3916	65.0835
3912	65.2453
3908	65.2471
3904	65.1159
3900	65.0386
3896	65.1064
3892	65.215
3888	65.1728
3884	65.0727
3880	64.9862
3876	64.9429
3872	64.9223
3868	64.9449
3864	65.0329
3860	65.0626
3856	65.0112
3852	64.9389
3848	65.0578
3844	65.2673
3840	65.2172
3836	65.019
3832	64.891
3828	64.7481
3824	64.7048
3820	64.9212
3816	65.0729
3812	65.0293
3808	64.9433
3804	64.8753
3800	64.9287
3796	65.0431
3792	65.1564
3788	65.3364
3784	65.4278
3780	65.3432
3776	65.3127
3772	65.4179
3768	65.3904
3764	65.197
3760	65.1231
3756	65.1743
3752	65.2194
3748	65.2263
3744	65.2166
3740	65.2503
3736	65.2944
3732	65.3043
3728	65.3296
3724	65.3534
3720	65.286
3716	65.1818
3712	65.1745
3708	65.2669
3704	65.3131
3700	65.2252
3696	65.1691
3692	65.1974
3688	65.1546
3684	65.1068
3680	65.1315
3676	65.162
3672	65.1834
3668	65.1968
3664	65.1856
3660	65.153
3656	65.1087
3652	65.0086
3648	64.9635
3644	65.0957
3640	65.185
3636	65.1506
3632	65.1805
3628	65.2662
3624	65.3799
3620	65.4219
3616	65.2817
3612	65.1762
3608	65.1924
3604	65.2143
3600	65.1924
3596	65.1715
3592	65.2482
3588	65.345
3584	65.3986
3580	65.4639
3576	65.4882
3572	65.4922
3568	65.4976
3564	65.389
3560	65.2056
3556	65.0189
3552	64.8228
3548	64.7165
3544	64.7807
3540	64.9303
3536	65.0429
3532	65.0548
3528	65.0338
3524	65.1335
3520	65.2796
3516	65.3207
3512	65.3455
3508	65.3498
3504	65.1828
3500	64.9477
3496	64.9075
3492	65.1039
3488	65.19
3484	65.0496
3480	64.9474
3476	64.9577
3472	65.1547
3468	65.3223
3464	65.2878
3460	65.323
3456	65.3207
3452	65.1816
3448	65.1201
3444	65.1403
3440	65.2029
3436	65.3765
3432	65.5039
3428	65.3216
3424	65.0312
3420	64.9763
3416	65.0842
3412	65.1696
3408	65.1834
3404	65.1708
3400	65.2179
3396	65.3086
3392	65.3787
3388	65.4012
3384	65.3609
3380	65.3107
3376	65.2137
3372	65.0808
3368	65.068
3364	65.1505
3360	65.2097
3356	65.2632
3352	65.3715
3348	65.459
3344	65.3684
3340	65.1689
3336	65.1294
3332	65.2581
3328	65.3618
3324	65.2438
3320	65.0126
3316	64.9807
3312	65.0948
3308	65.2064
3304	65.2391
3300	65.1279
3296	64.9965
3292	64.9045
3288	64.8492
3284	64.944
3280	65.1024
3276	65.197
3272	65.2776
3268	65.3516
3264	65.3683
3260	65.3537
3256	65.355
3252	65.2539
3248	65.0415
3244	64.9396
3240	65.0107
3236	65.0979
3232	65.1657
3228	65.2328
3224	65.2566
3220	65.3321
3216	65.4344
3212	65.4341
3208	65.2961
3204	65.1136
3200	64.9377
3196	64.7653
3192	64.8556
3188	65.0823
3184	65.1242
3180	65.1345
3176	65.2622
3172	65.3665
3168	65.2838
3164	65.248
3160	65.3777
3156	65.3604
3152	65.1951
3148	65.0833
3144	65.1083
3140	65.254
3136	65.2993
3132	65.3173
3128	65.4712
3124	65.3981
3120	65.0422
3116	64.9398
3112	65.1907
3108	65.4085
3104	65.4365
3100	65.3805
3096	65.342
3092	65.2987
3088	65.2564
3084	65.2438
3080	65.2396
3076	65.3178
3072	65.3865
3068	65.3032
3064	65.2335
3060	65.245
3056	65.2224
3052	65.1829
3048	65.2288
3044	65.3433
3040	65.355
3036	65.2141
3032	65.1234
3028	65.1828
3024	65.2374
3020	65.2892
3016	65.41
3012	65.449
3008	65.3657
3004	65.2617
3000	65.225
2996	65.2846
2992	65.3394
2988	65.2708
2984	65.1096
2980	65.0706
2976	65.1605
2972	65.2277
2968	65.235
2964	65.1753
2960	65.1739
2956	65.1953
2952	65.1469
2948	65.1426
2944	65.1543
2940	65.1339
2936	65.127
2932	65.1157
2928	65.0619
2924	64.9584
2920	64.868
2916	64.8576
2912	64.881
2908	64.9549
2904	65.0641
2900	65.1178
2896	65.1481
2892	65.1809
2888	65.1753
2884	65.1366
2880	65.2016
2876	65.2727
2872	65.1004
2868	64.9353
2864	65.0817
2860	65.2427
2856	65.0641
2852	64.7891
2848	64.7762
2844	64.9698
2840	65.2264
2836	65.3759
2832	65.2706
2828	65.125
2824	65.1018
2820	65.104
2816	65.1197
2812	65.1326
2808	65.1202
2804	65.1386
2800	65.1996
2796	65.3087
2792	65.4061
2788	65.399
2784	65.3519
2780	65.3587
2776	65.3581
2772	65.3044
2768	65.256
2764	65.2105
2760	65.2143
2756	65.3233
2752	65.4002
2748	65.3276
2744	65.2133
2740	65.1754
2736	65.2037
2732	65.2583
2728	65.2997
2724	65.3257
2720	65.3273
2716	65.3033
2712	65.3167
2708	65.366
2704	65.3417
2700	65.2632
2696	65.2689
2692	65.3148
2688	65.3166
2684	65.3076
2680	65.3202
2676	65.3565
2672	65.3977
2668	65.3898
2664	65.309
2660	65.2198
2656	65.2125
2652	65.2979
2648	65.3711
2644	65.3656
2640	65.282
2636	65.2063
2632	65.2204
2628	65.2356
2624	65.2496
2620	65.2863
2616	65.2733
2612	65.2314
2608	65.2099
2604	65.2248
2600	65.2445
2596	65.2338
2592	65.1922
2588	65.1554
2584	65.1723
2580	65.2231
2576	65.2684
2572	65.2476
2568	65.1718
2564	65.1624
2560	65.2429
2556	65.3309
2552	65.3489
2548	65.33
2544	65.3566
2540	65.3429
2536	65.2807
2532	65.2682
2528	65.2511
2524	65.202
2520	65.1953
2516	65.2587
2512	65.3174
2508	65.2987
2504	65.2805
2500	65.3815
2496	65.4243
2492	65.3725
2488	65.4286
2484	65.4784
2480	65.4524
2476	65.372
2472	65.2331
2468	65.1309
2464	65.1187
2460	65.1862
2456	65.2831
2452	65.3473
2448	65.3685
2444	65.3823
2440	65.3641
2436	65.2534
2432	65.1002
2428	64.9419
2424	64.9842
2420	65.4131
2416	65.6495
2412	65.4034
2408	65.2491
2404	65.2497
2400	65.2248
2396	65.2626
2392	65.3071
2388	65.3213
2384	65.3124
2380	65.2581
2376	65.19
2372	65.2182
2368	65.3242
2364	65.3423
2360	65.3024
2356	65.3042
2352	65.2936
2348	65.2699
2344	65.263
2340	65.261
2336	65.2897
2332	65.2727
2328	65.2433
2324	65.3273
2320	65.4541
2316	65.5161
2312	65.448
2308	65.3388
2304	65.2871
2300	65.2578
2296	65.2685
2292	65.3268
2288	65.3539
2284	65.3397
2280	65.3724
2276	65.3948
2272	65.344
2268	65.2763
2264	65.2125
2260	65.2042
2256	65.2069
2252	65.2046
2248	65.279
2244	65.3027
2240	65.2033
2236	65.1438
2232	65.2072
2228	65.2908
2224	65.2914
2220	65.2726
2216	65.2988
2212	65.3112
2208	65.3058
2204	65.2898
2200	65.2426
2196	65.2771
2192	65.3394
2188	65.3022
2184	65.2872
2180	65.2869
2176	65.2594
2172	65.3119
2168	65.3669
2164	65.3076
2160	65.2706
2156	65.3421
2152	65.4129
2148	65.4856
2144	65.5128
2140	65.4594
2136	65.5026
2132	65.5194
2128	65.354
2124	65.2407
2120	65.302
2116	65.3743
2112	65.4427
2108	65.4917
2104	65.3895
2100	65.2864
2096	65.2971
2092	65.2973
2088	65.1847
2084	65.0073
2080	64.9384
2076	65.07
2072	65.3925
2068	65.6901
2064	65.6357
2060	65.3061
2056	65.019
2052	64.966
2048	65.0914
2044	65.2035
2040	65.2596
2036	65.2858
2032	65.2728
2028	65.2077
2024	65.2143
2020	65.3228
2016	65.3544
2012	65.3226
2008	65.3401
2004	65.3796
2000	65.3871
1996	65.363
1992	65.3472
1988	65.377
1984	65.3702
1980	65.2762
1976	65.2305
1972	65.3114
1968	65.4029
1964	65.3745
1960	65.2896
1956	65.2582
1952	65.2694
1948	65.3168
1944	65.3741
1940	65.4122
1936	65.4363
1932	65.443
1928	65.4248
1924	65.3843
1920	65.3786
1916	65.3498
1912	65.2453
1908	65.2096
1904	65.2821
1900	65.3363
1896	65.3574
1892	65.3892
1888	65.4039
1884	65.4066
1880	65.3886
1876	65.3342
1872	65.283
1868	65.2648
1864	65.3197
1860	65.3789
1856	65.3545
1852	65.3333
1848	65.3539
1844	65.4181
1840	65.4769
1836	65.4575
1832	65.4526
1828	65.4835
1824	65.4992
1820	65.4546
1816	65.3396
1812	65.2842
1808	65.3256
1804	65.3503
1800	65.2662
1796	65.1676
1792	65.2061
1788	65.292
1784	65.2845
1780	65.2463
1776	65.2772
1772	65.3176
1768	65.3446
1764	65.388
1760	65.3557
1756	65.2402
1752	65.1424
1748	65.0998
1744	65.1062
1740	65.1048
1736	65.0478
1732	64.9789
1728	64.9377
1724	64.9229
1720	64.9547
1716	65.0975
1712	65.2749
1708	65.3598
1704	65.3559
1700	65.3112
1696	65.2886
1692	65.2869
1688	65.2794
1684	65.2382
1680	65.1961
1676	65.2412
1672	65.3171
1668	65.2901
1664	65.2283
1660	65.2208
1656	65.1931
1652	65.169
1648	65.1853
1644	65.2552
1640	65.3465
1636	65.3587
1632	65.3044
1628	65.2206
1624	65.1628
1620	65.1495
1616	65.1133
1612	65.059
1608	65.0584
1604	65.0796
1600	65.0802
1596	65.0988
1592	65.1393
1588	65.1554
1584	65.1552
1580	65.1778
1576	65.1434
1572	65.0507
1568	65.0041
1564	64.9802
1560	64.9456
1556	64.9198
1552	64.9594
1548	65.0152
1544	65.0812
1540	65.1946
1536	65.2174
1532	65.1567
1528	65.14
1524	65.1654
1520	65.2016
1516	65.2507
1512	65.2347
1508	65.1553
1504	65.1561
1500	65.2181
1496	65.2128
1492	65.098
1488	64.9571
1484	64.9373
1480	65.0308
1476	65.1076
1472	65.1335
1468	65.1563
1464	65.2209
1460	65.2389
1456	65.1352
1452	65.0401
1448	65.1277
1444	65.3305
1440	65.3975
1436	65.3296
1432	65.2335
1428	65.1535
1424	65.0958
1420	65.0255
1416	65.0247
1412	65.1252
1408	65.2361
1404	65.2504
1400	65.1967
1396	65.1488
1392	65.098
1388	65.0708
1384	65.0623
1380	65.0011
1376	64.9121
1372	64.8838
1368	64.9161
1364	64.9445
1360	64.9843
1356	65.0967
1352	65.2322
1348	65.2906
1344	65.1761
1340	64.9749
1336	64.8946
1332	64.9327
1328	64.9955
1324	65.0664
1320	65.059
1316	64.93
1312	64.8664
1308	64.9473
1304	65.0641
1300	65.1043
1296	65.0557
1292	65.0323
1288	65.0339
1284	65.0676
1280	65.1594
1276	65.1802
1272	65.0267
1268	64.7844
1264	64.7343
1260	64.9017
1256	65.0172
1252	65.0107
1248	64.9605
1244	64.9421
1240	64.9556
1236	64.9565
1232	64.9459
1228	64.9522
1224	65.0128
1220	65.0762
1216	65.0603
1212	65.0338
1208	65.0607
1204	65.0731
1200	65.0627
1196	65.0315
1192	64.9509
1188	64.9095
1184	64.9134
1180	64.9006
1176	64.8525
1172	64.8136
1168	64.818
1164	64.7818
1160	64.7405
1156	64.7923
1152	64.8258
1148	64.7612
1144	64.7351
1140	64.8145
1136	64.8485
1132	64.759
1128	64.7084
1124	64.7809
1120	64.8008
1116	64.7375
1112	64.783
1108	64.8625
1104	64.735
1100	64.4567
1096	64.2582
1092	64.3245
1088	64.5614
1084	64.6592
1080	64.6065
1076	64.6225
1072	64.7276
1068	64.806
1064	64.7848
1060	64.6864
1056	64.7069
1052	64.8899
1048	64.9888
1044	64.906
1040	64.7989
1036	64.8332
1032	64.924
1028	64.9163
1024	64.8715
1020	64.6884
1016	64.3738
1012	64.3006
1008	64.4565
1004	64.499
1000	64.517
996	 64.6389
992	 64.7022
988	 64.7203
984	 64.7422
980	 64.7868
976	 64.6841
972	 64.4821
968	 64.5287
964	 64.5257
960	 64.3625
956	 64.3962
952	 64.5295
948	 64.5599
944	 64.5668
940	 64.3232
936	 63.8348
932	 63.9016
928	 64.5206
924	 65.0092
920	 64.9977
916	 64.5285
912	 64.4151
908	 64.7025
904	 64.4903
900	 64.1631
896	 64.334
892	 64.6173
888	 64.8316
884	 64.8315
880	 64.6094
876	 64.6268
872	 64.7366
868	 64.6513
864	 64.5745
860	 64.5879
856	 64.6106
852	 64.6104
848	 64.4913
844	 64.2344
840	 64.0141
836	 64.0095
832	 64.1618
828	 64.0988
824	 63.8684
820	 63.8703
816	 64.0083
812	 64.0397
808	 64.0163
804	 63.9653
800	 63.9444
796	 64.07
792	 64.173
788	 64.1144
784	 63.9914
780	 64.0301
776	 64.0636
772	 63.939
768	 63.9262
764	 63.9125
760	 63.8868
756	 64.036
752	 64.194
748	 64.3629
744	 64.341
740	 63.8174
736	 63.4248
732	 63.5574
728	 63.6194
724	 63.4697
720	 63.3883
716	 63.256
712	 63.129
708	 63.1605
704	 63.1551
700	 62.9985
696	 62.903
692	 63.0436
688	 63.2464
684	 63.3996
680	 63.5193
676	 63.459
672	 63.1723
668	 62.8659
664	 62.8031
660	 62.8532
656	 62.8085
652	 62.8805
648	 63.0354
644	 62.9983
640	 62.8372
636	 62.7748
632	 62.8656
628	 62.9713
624	 63.0582
620	 62.9963
616	 62.5937
612	 62.3299
608	 62.535
604	 62.7168
600	 62.6791
596	 62.68
592	 62.6261
588	 62.3541
584	 62.2024
580	 62.4063
576	 62.6374
572	 62.6355
568	 62.4831
564	 62.2227
560	 61.996
556	 62.0852
552	 62.2704
548	 62.0612
544	 61.5386
540	 61.3852
536	 61.629
532	 61.6501
528	 61.3832
524	 60.9696
520	 60.7291
516	 61.0327
512	 61.6331
508	 62.1484
504	 61.9016
500	 61.1062
496	 61.1294
492	 61.5138
488	 61.2062
484	 60.6837
480	 60.3876
476	 60.3813
472	 60.2233
468	 59.6232
464	 59.0892
460	 58.6287
456	 58.5353
452	 58.9252
448	 58.8019
444	 58.235
440	 57.8607
436	 58.017
432	 58.5889
428	 60.0663
424	 61.4165
420	 60.1531
416	 56.3192
412	 52.522
408	 50.1142
404	 49.0837
400	 56.7134
396	 64.9368
392	 63.1756
388	 67.6148
384	 77.5708
380	 86.0979
376	 110.611
372	 105.825
370	 89.869