File: Bakgrunnsmateriale/MATLAB/FTIR/ftir_data/subBb/Mapping_121/C-4040-8_t84_cm-1.asc
PE IR       SPECTRUM    SPECTRUM    ASCII       PEDS        1.60
  -1
C-9D6F~1.ASC
17/03/27
21:21:52.00
17/03/27
21:21:52.00
tln
$C-4040-8_t0084$<tbV0>[-2.6,5.2,8.0,0.0,27,1,0]
370
64

2002,4.07
MIRTGS : RIGHTBACK : INTERNAL 2
MIR : ON : INTERNAL 2
OPTKBR

0.200000
8
8.000000
FILLER
RATIO
SPECTRUM
UNLOCKED 256

DOUBLE
64
COMBINED
1
0
0

1.000000
RATIO

1
0
TRUE
51149
0
LEFT NOT FITTED RIGHT NOT FITTED 0
NONE
NONE
15600
12
4.427000
51148
TRUE
1 0 8 72 0 0 0 0

15798

#HDR
-1
-1
#GR
CM-1
%T
2.38419e-05
0.0
5000
-1.000000
4631
8
88.9569
52.7446
#DATA
5000	65.1016
4996	65.2547
4992	65.4212
4988	65.532
4984	65.5258
4980	65.3211
4976	64.993
4972	64.5479
4968	64.0293
4964	64.1657
4960	65.0799
4956	65.6202
4952	65.4397
4948	65.0935
4944	64.6081
4940	64.3333
4936	64.5275
4932	64.8654
4928	65.2467
4924	65.443
4920	65.1923
4916	64.904
4912	65.0419
4908	65.3027
4904	65.477
4900	65.4831
4896	65.1405
4892	64.9544
4888	65.3904
4884	66.1478
4880	66.3888
4876	65.9911
4872	65.5707
4868	65.2313
4864	64.9838
4860	64.9576
4856	65.0091
4852	64.9722
4848	64.9616
4844	64.8722
4840	64.5835
4836	64.6969
4832	65.3146
4828	65.6241
4824	65.4883
4820	65.3464
4816	65.291
4812	65.2064
4808	65.1639
4804	65.0937
4800	64.8924
4796	64.8358
4792	64.9809
4788	65.0193
4784	64.9533
4780	65.0603
4776	65.1365
4772	65.131
4768	65.3461
4764	65.5799
4760	65.5199
4756	65.2114
4752	65.0064
4748	65.1359
4744	65.3322
4740	65.3447
4736	65.288
4732	65.1769
4728	65.1119
4724	65.1928
4720	65.2414
4716	65.2497
4712	65.2773
4708	65.3523
4704	65.2825
4700	65.0079
4696	64.8984
4692	64.8964
4688	64.8752
4684	65.1177
4680	65.5012
4676	65.5967
4672	65.3816
4668	65.1314
4664	65.0348
4660	65.0614
4656	65.1186
4652	65.1804
4648	65.0709
4644	65.123
4640	65.6453
4636	65.8363
4632	65.3995
4628	65.0039
4624	65.1614
4620	65.4902
4616	65.4116
4612	65.3337
4608	65.4293
4604	65.2767
4600	64.9578
4596	64.7889
4592	65.0272
4588	65.3572
4584	65.3878
4580	65.3981
4576	65.3514
4572	65.1337
4568	64.9941
4564	65.0418
4560	65.0328
4556	64.7932
4552	64.6787
4548	64.7117
4544	64.5666
4540	64.7228
4536	65.4309
4532	66.0097
4528	66.2387
4524	66.0253
4520	65.476
4516	65.0464
4512	64.7165
4508	64.5916
4504	64.6503
4500	64.6685
4496	64.5536
4492	64.4846
4488	64.6375
4484	64.7346
4480	64.7569
4476	64.8711
4472	64.9867
4468	65.1116
4464	65.2792
4460	65.2212
4456	64.8654
4452	64.619
4448	64.6302
4444	64.7248
4440	64.7756
4436	64.8844
4432	64.7731
4428	64.5708
4424	64.4484
4420	64.4628
4416	64.6362
4412	64.5619
4408	64.4124
4404	64.5335
4400	65.4459
4396	66.0671
4392	67.0462
4388	68.1344
4384	78.2066
4380	88.9569
4376	82.4577
4372	73.9663
4368	69.3207
4364	65.7664
4360	64.2955
4356	64.3382
4352	64.5295
4348	64.7783
4344	65.0829
4340	65.1934
4336	64.9321
4332	64.7127
4328	64.9614
4324	65.3088
4320	65.4591
4316	65.5812
4312	65.4588
4308	65.1441
4304	65.1046
4300	65.2717
4296	65.2735
4292	65.1463
4288	65.211
4284	65.3491
4280	65.2073
4276	64.9646
4272	64.9117
4268	64.897
4264	64.9584
4260	64.949
4256	64.7178
4252	64.631
4248	64.72
4244	64.9309
4240	65.1063
4236	65.0956
4232	65.0456
4228	65.0216
4224	65.0029
4220	64.879
4216	64.7284
4212	64.7591
4208	64.9378
4204	64.9297
4200	64.438
4196	63.7036
4192	63.6617
4188	64.6256
4184	65.1176
4180	64.6129
4176	64.3845
4172	64.9716
4168	65.6233
4164	65.6538
4160	65.2009
4156	64.815
4152	64.878
4148	65.1325
4144	65.2762
4140	65.3598
4136	65.3959
4132	65.3284
4128	65.2636
4124	65.244
4120	65.1781
4116	65.1513
4112	65.2494
4108	65.3627
4104	65.2825
4100	65.0488
4096	64.9271
4092	64.9618
4088	65.0739
4084	65.1779
4080	65.1568
4076	65.0938
4072	65.0894
4068	65.1601
4064	65.2457
4060	65.2588
4056	65.2784
4052	65.2565
4048	65.1488
4044	65.0987
4040	65.1486
4036	65.2189
4032	65.1847
4028	65.1529
4024	65.2325
4020	65.2384
4016	65.2301
4012	65.2654
4008	65.1864
4004	65.0312
4000	65.0186
3996	65.1749
3992	65.2563
3988	65.1923
3984	65.1461
3980	65.2166
3976	65.2988
3972	65.2525
3968	65.1519
3964	65.1871
3960	65.265
3956	65.1889
3952	65.0533
3948	65.0582
3944	65.0577
3940	64.9479
3936	64.9674
3932	65.045
3928	65.1668
3924	65.3215
3920	65.3404
3916	65.408
3912	65.4807
3908	65.3824
3904	65.329
3900	65.4565
3896	65.5675
3892	65.5707
3888	65.5952
3884	65.5932
3880	65.5078
3876	65.4432
3872	65.4402
3868	65.4961
3864	65.4687
3860	65.2284
3856	65.0559
3852	65.1414
3848	65.2255
3844	65.2751
3840	65.316
3836	65.2551
3832	65.2339
3828	65.1274
3824	65.0012
3820	65.1461
3816	65.1941
3812	65.1173
3808	65.1923
3804	65.1648
3800	65.0911
3796	65.1372
3792	65.159
3788	65.187
3784	65.2395
3780	65.2324
3776	65.1656
3772	65.101
3768	65.0788
3764	65.1175
3760	65.2744
3756	65.408
3752	65.3686
3748	65.3327
3744	65.351
3740	65.3385
3736	65.3301
3732	65.3444
3728	65.3297
3724	65.3541
3720	65.4792
3716	65.4836
3712	65.3782
3708	65.3757
3704	65.3286
3700	65.189
3696	65.1939
3692	65.2779
3688	65.2953
3684	65.2966
3680	65.2987
3676	65.3135
3672	65.3625
3668	65.4258
3664	65.4834
3660	65.475
3656	65.3697
3652	65.3071
3648	65.3092
3644	65.3157
3640	65.3462
3636	65.3131
3632	65.2038
3628	65.2826
3624	65.5376
3620	65.6053
3616	65.4515
3612	65.2913
3608	65.2126
3604	65.2817
3600	65.5281
3596	65.6348
3592	65.4695
3588	65.3759
3584	65.4389
3580	65.4769
3576	65.4418
3572	65.3603
3568	65.368
3564	65.3917
3560	65.265
3556	65.1821
3552	65.1846
3548	65.1462
3544	65.1335
3540	65.2971
3536	65.5471
3532	65.6444
3528	65.5873
3524	65.4324
3520	65.3032
3516	65.3161
3512	65.271
3508	65.1554
3504	65.2107
3500	65.3349
3496	65.3056
3492	65.2559
3488	65.3433
3484	65.3938
3480	65.3226
3476	65.348
3472	65.3921
3468	65.2384
3464	65.1633
3460	65.2507
3456	65.3126
3452	65.3437
3448	65.3504
3444	65.4103
3440	65.5226
3436	65.5583
3432	65.4512
3428	65.3362
3424	65.3154
3420	65.2849
3416	65.2698
3412	65.3275
3408	65.3547
3404	65.3509
3400	65.3871
3396	65.3859
3392	65.3998
3388	65.4878
3384	65.4409
3380	65.3252
3376	65.3229
3372	65.2956
3368	65.2564
3364	65.3145
3360	65.3067
3356	65.1479
3352	65.0667
3348	65.112
3344	65.1536
3340	65.2192
3336	65.3044
3332	65.305
3328	65.1627
3324	65.0119
3320	65.0175
3316	65.114
3312	65.2027
3308	65.2793
3304	65.313
3300	65.3163
3296	65.2556
3292	65.1686
3288	65.2271
3284	65.2974
3280	65.2638
3276	65.3267
3272	65.4164
3268	65.3531
3264	65.2264
3260	65.1264
3256	65.149
3252	65.233
3248	65.2524
3244	65.2493
3240	65.1981
3236	65.1608
3232	65.1372
3228	65.1016
3224	65.1721
3220	65.2209
3216	65.1629
3212	65.1902
3208	65.3915
3204	65.5529
3200	65.5416
3196	65.522
3192	65.4739
3188	65.3721
3184	65.3437
3180	65.29
3176	65.1565
3172	65.1211
3168	65.2108
3164	65.2513
3160	65.2598
3156	65.3453
3152	65.4039
3148	65.4167
3144	65.4741
3140	65.4143
3136	65.373
3132	65.5712
3128	65.5555
3124	65.2828
3120	65.1333
3116	65.0341
3112	64.9315
3108	64.9275
3104	65.0706
3100	65.2647
3096	65.3312
3092	65.2724
3088	65.2203
3084	65.2122
3080	65.2911
3076	65.4224
3072	65.4222
3068	65.3036
3064	65.1402
3060	65.0654
3056	65.2162
3052	65.3271
3048	65.2589
3044	65.2263
3040	65.2588
3036	65.3578
3032	65.5055
3028	65.5181
3024	65.4153
3020	65.3038
3016	65.239
3012	65.2164
3008	65.183
3004	65.1819
3000	65.2453
2996	65.3011
2992	65.2202
2988	65.076
2984	65.0604
2980	65.1239
2976	65.1704
2972	65.2275
2968	65.2696
2964	65.2119
2960	65.1265
2956	65.1397
2952	65.1627
2948	65.1603
2944	65.189
2940	65.2428
2936	65.2663
2932	65.1918
2928	65.1142
2924	65.0065
2920	64.8399
2916	64.8648
2912	64.9935
2908	65.0413
2904	65.1314
2900	65.2439
2896	65.2621
2892	65.2614
2888	65.3119
2884	65.3164
2880	65.1923
2876	65.0978
2872	65.1633
2868	65.3003
2864	65.3736
2860	65.2267
2856	65.0155
2852	65.0375
2848	65.1242
2844	65.1216
2840	65.1382
2836	65.1526
2832	65.125
2828	65.115
2824	65.1582
2820	65.2195
2816	65.2751
2812	65.3111
2808	65.3433
2804	65.4181
2800	65.4361
2796	65.3464
2792	65.3172
2788	65.3751
2784	65.3684
2780	65.3349
2776	65.4128
2772	65.4857
2768	65.4041
2764	65.3096
2760	65.3466
2756	65.4246
2752	65.4135
2748	65.3746
2744	65.3965
2740	65.4436
2736	65.4594
2732	65.3678
2728	65.2476
2724	65.3021
2720	65.455
2716	65.5177
2712	65.5049
2708	65.519
2704	65.5729
2700	65.5794
2696	65.518
2692	65.4063
2688	65.2871
2684	65.2261
2680	65.2466
2676	65.2979
2672	65.3176
2668	65.3343
2664	65.3419
2660	65.3799
2656	65.4552
2652	65.4241
2648	65.3371
2644	65.3255
2640	65.3543
2636	65.4131
2632	65.4424
2628	65.3599
2624	65.3087
2620	65.3471
2616	65.357
2612	65.346
2608	65.3545
2604	65.341
2600	65.3054
2596	65.2753
2592	65.247
2588	65.2597
2584	65.3722
2580	65.5202
2576	65.5224
2572	65.3703
2568	65.2582
2564	65.295
2560	65.3629
2556	65.366
2552	65.3532
2548	65.3239
2544	65.3096
2540	65.3229
2536	65.3524
2532	65.4142
2528	65.4469
2524	65.4184
2520	65.3556
2516	65.2874
2512	65.2198
2508	65.1488
2504	65.1011
2500	65.0817
2496	65.0894
2492	65.1616
2488	65.2586
2484	65.3291
2480	65.408
2476	65.4403
2472	65.4298
2468	65.4342
2464	65.3722
2460	65.2633
2456	65.2541
2452	65.3738
2448	65.4845
2444	65.4766
2440	65.4375
2436	65.4382
2432	65.3024
2428	65.0917
2424	65.1057
2420	65.2653
2416	65.2465
2412	65.0234
2408	64.9998
2404	65.2663
2400	65.4674
2396	65.5125
2392	65.5033
2388	65.5066
2384	65.5526
2380	65.5921
2376	65.5137
2372	65.3633
2368	65.3919
2364	65.4606
2360	65.3724
2356	65.3284
2352	65.3817
2348	65.4181
2344	65.4238
2340	65.4273
2336	65.4204
2332	65.4357
2328	65.4359
2324	65.3639
2320	65.3117
2316	65.3397
2312	65.4138
2308	65.472
2304	65.464
2300	65.42
2296	65.4255
2292	65.469
2288	65.5308
2284	65.5562
2280	65.477
2276	65.4191
2272	65.4189
2268	65.4144
2264	65.4421
2260	65.4709
2256	65.4583
2252	65.4743
2248	65.4818
2244	65.4204
2240	65.4004
2236	65.4567
2232	65.5248
2228	65.5809
2224	65.5842
2220	65.5435
2216	65.4973
2212	65.4463
2208	65.4232
2204	65.4254
2200	65.4498
2196	65.4707
2192	65.4185
2188	65.3407
2184	65.3237
2180	65.3804
2176	65.4509
2172	65.5035
2168	65.5653
2164	65.5767
2160	65.4951
2156	65.3112
2152	65.0743
2148	64.9889
2144	65.0745
2140	65.1633
2136	65.2371
2132	65.3355
2128	65.3753
2124	65.3077
2120	65.1844
2116	65.1009
2112	65.1799
2108	65.3185
2104	65.3712
2100	65.398
2096	65.4562
2092	65.5192
2088	65.5781
2084	65.6201
2080	65.624
2076	65.6262
2072	65.6013
2068	65.581
2064	65.5138
2060	65.3001
2056	65.1716
2052	65.231
2048	65.3617
2044	65.4717
2040	65.4787
2036	65.4539
2032	65.4953
2028	65.5197
2024	65.4453
2020	65.424
2016	65.5138
2012	65.5421
2008	65.4475
2004	65.3265
2000	65.2857
1996	65.3515
1992	65.4168
1988	65.3877
1984	65.3361
1980	65.3121
1976	65.3414
1972	65.4312
1968	65.483
1964	65.4355
1960	65.3653
1956	65.373
1952	65.413
1948	65.3982
1944	65.3543
1940	65.37
1936	65.4052
1932	65.3809
1928	65.3795
1924	65.4374
1920	65.4989
1916	65.5169
1912	65.4468
1908	65.3534
1904	65.3227
1900	65.3487
1896	65.4198
1892	65.4508
1888	65.4244
1884	65.4439
1880	65.4686
1876	65.4895
1872	65.5178
1868	65.4857
1864	65.4487
1860	65.4472
1856	65.423
1852	65.3845
1848	65.3951
1844	65.4604
1840	65.5227
1836	65.5185
1832	65.4799
1828	65.4472
1824	65.433
1820	65.4924
1816	65.5703
1812	65.5632
1808	65.5162
1804	65.5011
1800	65.4671
1796	65.4091
1792	65.3945
1788	65.4677
1784	65.5219
1780	65.4127
1776	65.3149
1772	65.3349
1768	65.339
1764	65.3912
1760	65.5271
1756	65.5452
1752	65.4317
1748	65.3713
1744	65.3664
1740	65.3175
1736	65.2095
1732	65.1345
1728	65.2429
1724	65.3772
1720	65.3772
1716	65.4006
1712	65.3224
1708	65.1677
1704	65.2652
1700	65.3746
1696	65.3117
1692	65.3152
1688	65.361
1684	65.3656
1680	65.3657
1676	65.3525
1672	65.3462
1668	65.3502
1664	65.3221
1660	65.3107
1656	65.3746
1652	65.4723
1648	65.5229
1644	65.4641
1640	65.3634
1636	65.3269
1632	65.3435
1628	65.3159
1624	65.2244
1620	65.1592
1616	65.1407
1612	65.148
1608	65.1917
1604	65.2502
1600	65.2123
1596	65.0839
1592	65.0315
1588	65.0949
1584	65.1451
1580	65.1826
1576	65.2344
1572	65.1882
1568	65.1029
1564	65.0231
1560	64.9641
1556	65.007
1552	65.0666
1548	65.0855
1544	65.1272
1540	65.1818
1536	65.2076
1532	65.229
1528	65.2434
1524	65.2684
1520	65.2671
1516	65.1704
1512	65.0836
1508	65.1234
1504	65.2424
1500	65.2893
1496	65.2817
1492	65.2551
1488	65.1328
1484	65.097
1480	65.2284
1476	65.3094
1472	65.252
1468	65.2359
1464	65.2659
1460	65.1632
1456	64.9749
1452	64.8815
1448	64.9695
1444	65.0972
1440	65.1472
1436	65.2016
1432	65.2801
1428	65.3584
1424	65.3843
1420	65.3202
1416	65.2116
1412	65.1029
1408	65.0491
1404	65.0843
1400	65.1625
1396	65.1716
1392	65.0999
1388	65.1001
1384	65.1598
1380	65.1837
1376	65.1837
1372	65.1116
1368	65.068
1364	65.1523
1360	65.1646
1356	65.0573
1352	65.0211
1348	65.0908
1344	65.2039
1340	65.2987
1336	65.3041
1332	65.2576
1328	65.2117
1324	65.1584
1320	65.0946
1316	65.0375
1312	65.0255
1308	65.0866
1304	65.1369
1300	65.0914
1296	65.0081
1292	64.971
1288	65.0344
1284	65.1409
1280	65.1982
1276	65.1764
1272	65.1003
1268	65.0837
1264	65.1004
1260	65.0632
1256	65.0832
1252	65.1414
1248	65.1119
1244	65.0735
1240	65.0803
1236	65.1041
1232	65.0966
1228	65.066
1224	65.1113
1220	65.1747
1216	65.2102
1212	65.25
1208	65.1852
1204	65.0762
1200	65.0636
1196	65.0727
1192	65.0789
1188	65.0754
1184	65.0144
1180	64.9229
1176	64.8276
1172	64.8042
1168	64.8608
1164	64.8844
1160	64.8612
1156	64.8996
1152	64.9272
1148	64.8556
1144	64.8446
1140	64.9412
1136	64.9647
1132	64.9219
1128	64.9458
1124	64.9671
1120	64.8831
1116	64.7524
1112	64.7458
1108	64.8797
1104	64.8793
1100	64.5674
1096	64.3138
1092	64.5396
1088	64.864
1084	64.9133
1080	64.9142
1076	64.9214
1072	64.9355
1068	65.0346
1064	65.0853
1060	65.0627
1056	65.056
1052	64.9387
1048	64.9135
1044	65.125
1040	65.1617
1036	65.0362
1032	65.0039
1028	65.0281
1024	64.9955
1020	65.0349
1016	65.0185
1012	64.737
1008	64.664
1004	64.9006
1000	64.9656
996	 64.9831
992	 65.1445
988	 65.0776
984	 64.863
980	 64.8384
976	 64.7625
972	 64.6265
968	 64.5288
964	 64.5073
960	 64.8799
956	 65.1665
952	 65.0355
948	 64.9356
944	 64.8635
940	 64.7838
936	 64.6592
932	 64.3971
928	 64.228
924	 64.295
920	 64.4546
916	 64.5602
912	 64.5974
908	 64.5946
904	 64.6616
900	 64.7421
896	 64.7576
892	 64.822
888	 64.8715
884	 64.8643
880	 64.8283
876	 64.8117
872	 64.8524
868	 64.8752
864	 64.8586
860	 64.7296
856	 64.4643
852	 64.2676
848	 64.3362
844	 64.5123
840	 64.7069
836	 64.9181
832	 64.9484
828	 64.7498
824	 64.4773
820	 64.3415
816	 64.4115
812	 64.5167
808	 64.4745
804	 64.4553
800	 64.4507
796	 64.3184
792	 64.3114
788	 64.4557
784	 64.5922
780	 64.6431
776	 64.5358
772	 64.4236
768	 64.2977
764	 64.1626
760	 64.2902
756	 64.5781
752	 64.6814
748	 64.45
744	 64.3361
740	 64.432
736	 64.0845
732	 63.4667
728	 63.1552
724	 63.3244
720	 63.7626
716	 63.9311
712	 63.778
708	 63.6496
704	 63.8317
700	 64.1433
696	 64.0461
692	 63.8144
688	 63.7527
684	 63.6195
680	 63.4836
676	 63.2625
672	 62.9949
668	 63.0429
664	 63.2246
660	 63.2391
656	 63.3461
652	 63.6423
648	 63.6805
644	 63.2481
640	 62.7805
636	 62.708
632	 62.9775
628	 63.3413
624	 63.3655
620	 62.9274
616	 62.6372
612	 62.7507
608	 63.2505
604	 63.9541
600	 64.0214
596	 63.4648
592	 62.9782
588	 62.6893
584	 62.6483
580	 62.7922
576	 62.9586
572	 63.2204
568	 63.1427
564	 62.5924
560	 62.3907
556	 62.4609
552	 62.2559
548	 62.1698
544	 62.2736
540	 62.209
536	 62.2051
532	 62.2035
528	 61.9226
524	 61.9449
520	 62.757
516	 63.1521
512	 62.359
508	 61.6151
504	 61.4415
500	 61.4278
496	 61.4043
492	 61.3303
488	 61.4977
484	 61.81
480	 61.5564
476	 60.811
472	 60.6494
468	 61.3886
464	 61.837
460	 61.3509
456	 60.4086
452	 59.7719
448	 60.0486
444	 60.4863
440	 61.4141
436	 62.6223
432	 61.6207
428	 59.0442
424	 56.9569
420	 56.8859
416	 60.2558
412	 63.7843
408	 66.8437
404	 76.0911
400	 77.7759
396	 61.8191
392	 56.6349
388	 65.6235
384	 72.0924
380	 78.9946
376	 86.2231
372	 70.8256
370	 52.7446