File: Bakgrunnsmateriale/MATLAB/FTIR/ftir_data/subBb/Mapping_121/C-4040-8_t107_cm-1.asc
PE IR       SPECTRUM    SPECTRUM    ASCII       PEDS        1.60
  -1
C-4C8C~1.ASC
17/03/27
23:15:06.00
17/03/27
23:15:06.00
tln
$C-4040-8_t0107$<tbV0>[-5.2,10.4,8.0,0.0,27,1,0]
370
64

2002,4.07
MIRTGS : RIGHTBACK : INTERNAL 2
MIR : ON : INTERNAL 2
OPTKBR

0.200000
8
8.000000
FILLER
RATIO
SPECTRUM
UNLOCKED 256

DOUBLE
64
COMBINED
1
0
0

1.000000
RATIO

1
0
TRUE
51149
0
LEFT NOT FITTED RIGHT NOT FITTED 0
NONE
NONE
15600
12
4.427000
51148
TRUE
1 0 8 72 0 0 0 0

15798

#HDR
-1
-1
#GR
CM-1
%T
2.38419e-05
0.0
5000
-1.000000
4631
8
102.854
40.89
#DATA
5000	65.464
4996	64.7881
4992	64.3768
4988	64.7289
4984	65.15
4980	65.1089
4976	64.8733
4972	64.6137
4968	64.2078
4964	64.0641
4960	64.4996
4956	64.8285
4952	64.8254
4948	64.9108
4944	64.781
4940	64.5192
4936	64.3596
4932	64.0979
4928	63.9812
4924	64.0644
4920	64.225
4916	64.5395
4912	64.8353
4908	64.8056
4904	64.5424
4900	64.4332
4896	64.4994
4892	64.7654
4888	65.1561
4884	65.0577
4880	64.515
4876	64.4611
4872	65.0391
4868	65.4435
4864	65.3657
4860	65.0582
4856	64.697
4852	64.5044
4848	64.5176
4844	64.7028
4840	64.9189
4836	64.8667
4832	64.934
4828	65.3524
4824	65.5684
4820	65.4219
4816	65.1255
4812	65.0104
4808	65.1571
4804	65.0247
4800	64.7196
4796	64.7912
4792	65.004
4788	65.0636
4784	65.2143
4780	65.3647
4776	65.3373
4772	65.3745
4768	65.3575
4764	65.2589
4760	65.3333
4756	65.4151
4752	65.3693
4748	65.2068
4744	64.9188
4740	64.7542
4736	64.8065
4732	64.8706
4728	64.932
4724	65.1466
4720	65.2006
4716	64.9981
4712	64.9122
4708	64.9099
4704	65.0561
4700	65.2383
4696	65.239
4692	65.2349
4688	65.1866
4684	65.0731
4680	64.9454
4676	64.834
4672	65.0434
4668	65.3662
4664	65.3628
4660	65.2517
4656	65.2889
4652	65.4319
4648	65.5721
4644	65.6359
4640	65.6158
4636	65.626
4632	65.6065
4628	65.4194
4624	65.1202
4620	65.0039
4616	65.2868
4612	65.4485
4608	65.1972
4604	64.9502
4600	64.8861
4596	65.0334
4592	65.255
4588	65.307
4584	65.3812
4580	65.4735
4576	65.3472
4572	64.9852
4568	64.6095
4564	64.633
4560	64.961
4556	65.1167
4552	65.1152
4548	65.1619
4544	64.9423
4540	64.1545
4536	63.4715
4532	63.781
4528	64.5586
4524	64.8644
4520	64.7345
4516	64.4071
4512	64.133
4508	64.1111
4504	64.1826
4500	64.2209
4496	64.1256
4492	63.9741
4488	63.9633
4484	64.0713
4480	64.2321
4476	64.3352
4472	64.448
4468	64.6045
4464	64.5092
4460	64.0931
4456	63.6857
4452	63.6804
4448	63.9917
4444	63.89
4440	63.5328
4436	63.6243
4432	63.9933
4428	63.8872
4424	63.5313
4420	63.588
4416	63.24
4412	62.2009
4408	61.614
4404	61.2323
4400	60.4666
4396	69.1074
4392	87.1264
4388	100.642
4384	93.7931
4380	73.2126
4376	64.4382
4372	64.525
4368	65.1549
4364	64.8742
4360	64.6187
4356	63.8225
4352	63.3047
4348	63.4864
4344	63.7934
4340	63.7245
4336	63.6567
4332	63.9156
4328	64.1456
4324	64.2455
4320	64.3044
4316	64.3033
4312	64.2141
4308	64.0384
4304	64.0529
4300	64.2581
4296	64.2425
4292	64.0308
4288	64.037
4284	64.1036
4280	64.0651
4276	64.2669
4272	64.5699
4268	64.77
4264	65.0606
4260	65.2623
4256	65.0438
4252	64.6991
4248	64.6816
4244	64.8115
4240	64.7284
4236	64.5526
4232	64.4981
4228	64.4957
4224	64.5382
4220	64.7069
4216	64.8324
4212	64.8088
4208	64.9394
4204	65.1111
4200	64.9252
4196	64.718
4192	64.7312
4188	65.0716
4184	65.811
4180	66.1796
4176	65.8047
4172	65.1259
4168	64.7424
4164	64.8085
4160	64.797
4156	64.6602
4152	64.6504
4148	64.8237
4144	64.9757
4140	64.9918
4136	65.0187
4132	64.9406
4128	64.9202
4124	65.06
4120	65.1596
4116	65.1753
4112	65.1544
4108	65.2681
4104	65.3975
4100	65.3795
4096	65.308
4092	65.1797
4088	65.0539
4084	65.1137
4080	65.287
4076	65.2921
4072	65.2134
4068	65.2475
4064	65.3031
4060	65.3649
4056	65.4071
4052	65.3707
4048	65.2286
4044	65.0702
4040	65.0887
4036	65.2041
4032	65.283
4028	65.3339
4024	65.392
4020	65.482
4016	65.4665
4012	65.2923
4008	65.2327
4004	65.3338
4000	65.3842
3996	65.3861
3992	65.3292
3988	65.2881
3984	65.3601
3980	65.2997
3976	65.0538
3972	64.9389
3968	65.072
3964	65.1819
3960	65.1099
3956	64.9936
3952	64.9344
3948	64.9257
3944	64.9696
3940	65.1087
3936	65.2223
3932	65.1035
3928	64.8617
3924	64.7792
3920	64.832
3916	64.9627
3912	65.1447
3908	65.219
3904	65.1966
3900	65.1088
3896	64.919
3892	64.7657
3888	64.716
3884	64.7461
3880	64.8454
3876	64.8697
3872	64.8064
3868	64.8046
3864	64.8523
3860	64.8524
3856	64.7151
3852	64.5388
3848	64.6338
3844	64.8434
3840	64.9294
3836	64.9403
3832	64.7559
3828	64.5258
3824	64.5561
3820	64.8002
3816	64.9932
3812	65.0429
3808	65.0465
3804	64.9817
3800	64.9515
3796	64.9199
3792	64.8198
3788	64.9071
3784	65.0761
3780	65.0914
3776	65.0867
3772	65.1474
3768	65.2058
3764	65.1756
3760	65.0925
3756	65.086
3752	65.13
3748	65.1614
3744	65.1515
3740	65.1129
3736	65.136
3732	65.2539
3728	65.3679
3724	65.3123
3720	65.1986
3716	65.1894
3712	65.1218
3708	65.0119
3704	65.0414
3700	65.1288
3696	65.1777
3692	65.2274
3688	65.2741
3684	65.2964
3680	65.2764
3676	65.199
3672	65.1371
3668	65.1442
3664	65.158
3660	65.1074
3656	65.0385
3652	65.0326
3648	65.0941
3644	65.1902
3640	65.2605
3636	65.2293
3632	65.1077
3628	65.108
3624	65.2457
3620	65.2703
3616	65.1882
3612	65.114
3608	65.1309
3604	65.2197
3600	65.224
3596	65.2026
3592	65.2999
3588	65.4288
3584	65.4508
3580	65.4321
3576	65.4316
3572	65.4078
3568	65.4027
3564	65.4326
3560	65.4384
3556	65.3882
3552	65.3123
3548	65.212
3544	65.1402
3540	65.134
3536	65.1533
3532	65.2292
3528	65.3315
3524	65.3367
3520	65.1468
3516	64.9378
3512	65.0645
3508	65.3829
3504	65.4529
3500	65.3841
3496	65.3652
3492	65.2766
3488	65.1231
3484	64.9568
3480	64.8594
3476	64.9325
3472	65.1284
3468	65.2214
3464	65.0952
3460	65.0041
3456	65.1032
3452	65.165
3448	65.1295
3444	65.1187
3440	65.17
3436	65.2967
3432	65.3625
3428	65.2321
3424	65.0512
3420	65.0021
3416	65.0164
3412	65.108
3408	65.3184
3404	65.3972
3400	65.2237
3396	65.0028
3392	64.9353
3388	65.0015
3384	65.0981
3380	65.1455
3376	65.0821
3372	65.0627
3368	65.136
3364	65.115
3360	64.9974
3356	64.9314
3352	65.0431
3348	65.1436
3344	65.043
3340	64.9507
3336	65.013
3332	65.1131
3328	65.1382
3324	65.0769
3320	64.9736
3316	64.9454
3312	64.9652
3308	64.9703
3304	65.0418
3300	65.0808
3296	65.0057
3292	64.942
3288	64.9513
3284	65.0322
3280	65.1254
3276	65.2004
3272	65.2553
3268	65.2417
3264	65.1428
3260	65.0786
3256	65.1612
3252	65.2191
3248	65.1861
3244	65.1812
3240	65.1179
3236	64.992
3232	64.9371
3228	65.0162
3224	65.1956
3220	65.3104
3216	65.3126
3212	65.3052
3208	65.2421
3204	65.0816
3200	64.9502
3196	64.8775
3192	64.8884
3188	64.9541
3184	64.9634
3180	64.9865
3176	65.0895
3172	65.1856
3168	65.169
3164	65.1275
3160	65.2053
3156	65.2352
3152	65.1387
3148	65.0532
3144	65.0789
3140	65.1839
3136	65.1906
3132	65.1679
3128	65.1443
3124	65.0551
3120	65.0882
3116	65.2079
3112	65.312
3108	65.5092
3104	65.6161
3100	65.4375
3096	65.2428
3092	65.2295
3088	65.2584
3084	65.1981
3080	65.1549
3076	65.2448
3072	65.2998
3068	65.2046
3064	65.0625
3060	64.9846
3056	64.9486
3052	64.9023
3048	64.9321
3044	65.0399
3040	65.1484
3036	65.2378
3032	65.2735
3028	65.2912
3024	65.2447
3020	65.128
3016	65.1476
3012	65.2126
3008	65.1432
3004	65.0749
3000	65.0907
2996	65.1369
2992	65.1844
2988	65.1796
2984	65.1233
2980	65.1013
2976	65.0795
2972	65.0527
2968	65.092
2964	65.1048
2960	65.0221
2956	64.942
2952	64.9489
2948	64.9938
2944	64.9814
2940	64.96
2936	64.9369
2932	64.797
2928	64.6152
2924	64.5888
2920	64.6802
2916	64.7796
2912	64.9102
2908	65.0346
2904	65.1031
2900	65.0815
2896	65.0038
2892	64.9979
2888	65.0579
2884	65.0663
2880	65.0369
2876	65.0025
2872	64.9149
2868	64.8688
2864	64.9787
2860	65.0896
2856	65.0092
2852	64.9017
2848	64.9876
2844	65.1092
2840	65.1321
2836	65.1888
2832	65.2305
2828	65.2013
2824	65.2026
2820	65.2192
2816	65.2245
2812	65.2099
2808	65.1742
2804	65.1312
2800	65.1374
2796	65.2745
2792	65.3916
2788	65.3338
2784	65.2399
2780	65.1911
2776	65.1691
2772	65.2024
2768	65.2111
2764	65.1579
2760	65.1612
2756	65.2206
2752	65.2502
2748	65.24
2744	65.1825
2740	65.1294
2736	65.1627
2732	65.2236
2728	65.2385
2724	65.272
2720	65.2893
2716	65.2289
2712	65.2194
2708	65.2807
2704	65.2526
2700	65.1393
2696	65.124
2692	65.2326
2688	65.2977
2684	65.2379
2680	65.1736
2676	65.1902
2672	65.2333
2668	65.3098
2664	65.3711
2660	65.2899
2656	65.1329
2652	65.1038
2648	65.1981
2644	65.2032
2640	65.1024
2636	65.0695
2632	65.1376
2628	65.1881
2624	65.1975
2620	65.2216
2616	65.2459
2612	65.203
2608	65.0915
2604	65.0626
2600	65.1398
2596	65.166
2592	65.1641
2588	65.2187
2584	65.2206
2580	65.1133
2576	65.072
2572	65.1706
2568	65.2497
2564	65.2617
2560	65.2497
2556	65.2456
2552	65.2577
2548	65.251
2544	65.2272
2540	65.1907
2536	65.2116
2532	65.221
2528	65.1259
2524	65.0832
2520	65.0949
2516	65.0695
2512	65.0383
2508	65.0028
2504	65.0151
2500	65.1388
2496	65.2648
2492	65.2346
2488	65.0905
2484	65.0867
2480	65.2561
2476	65.3597
2472	65.3589
2468	65.2953
2464	65.1743
2460	65.1168
2456	65.1669
2452	65.2349
2448	65.2776
2444	65.3121
2440	65.324
2436	65.305
2432	65.3167
2428	65.2078
2424	64.985
2420	65.0255
2416	65.2082
2412	65.2948
2408	65.349
2404	65.3187
2400	65.2479
2396	65.1815
2392	65.1413
2388	65.1666
2384	65.188
2380	65.2232
2376	65.1916
2372	65.076
2368	65.0669
2364	65.1563
2360	65.2154
2356	65.2302
2352	65.2387
2348	65.2113
2344	65.1676
2340	65.2066
2336	65.277
2332	65.2804
2328	65.2113
2324	65.1573
2320	65.1618
2316	65.1259
2312	65.0693
2308	65.1147
2304	65.2291
2300	65.2787
2296	65.3021
2292	65.3901
2288	65.4389
2284	65.4044
2280	65.3577
2276	65.3163
2272	65.2686
2268	65.2033
2264	65.1747
2260	65.2026
2256	65.1986
2252	65.1839
2248	65.242
2244	65.2573
2240	65.2111
2236	65.226
2232	65.207
2228	65.1745
2224	65.2583
2220	65.3138
2216	65.241
2212	65.1555
2208	65.1345
2204	65.1231
2200	65.086
2196	65.122
2192	65.2294
2188	65.2518
2184	65.2222
2180	65.2299
2176	65.2273
2172	65.2266
2168	65.2292
2164	65.2355
2160	65.3485
2156	65.5545
2152	65.4771
2148	65.1795
2144	65.1341
2140	65.1993
2136	65.2835
2132	65.4161
2128	65.4093
2124	65.2904
2120	65.2101
2116	65.2482
2112	65.3882
2108	65.479
2104	65.3924
2100	65.2668
2096	65.26
2092	65.278
2088	65.2702
2084	65.3082
2080	65.388
2076	65.5214
2072	65.6552
2068	65.6179
2064	65.484
2060	65.4113
2056	65.2912
2052	65.1986
2048	65.2791
2044	65.3938
2040	65.412
2036	65.329
2032	65.2549
2028	65.2187
2024	65.1851
2020	65.1869
2016	65.2186
2012	65.2558
2008	65.2666
2004	65.2398
2000	65.2132
1996	65.2006
1992	65.2028
1988	65.2452
1984	65.2822
1980	65.2462
1976	65.2551
1972	65.3638
1968	65.3986
1964	65.2924
1960	65.1784
1956	65.1391
1952	65.1056
1948	65.1161
1944	65.2225
1940	65.3131
1936	65.3611
1932	65.4109
1928	65.4186
1924	65.3441
1920	65.2699
1916	65.2042
1912	65.1373
1908	65.1287
1904	65.1175
1900	65.107
1896	65.1346
1892	65.1853
1888	65.2455
1884	65.2553
1880	65.2269
1876	65.2199
1872	65.1924
1868	65.1247
1864	65.143
1860	65.2539
1856	65.3375
1852	65.3571
1848	65.3353
1844	65.3121
1840	65.2663
1836	65.2289
1832	65.2401
1828	65.2285
1824	65.1884
1820	65.1458
1816	65.0747
1812	65.0438
1808	65.1156
1804	65.1783
1800	65.1731
1796	65.1715
1792	65.1701
1788	65.1315
1784	65.1236
1780	65.1901
1776	65.2632
1772	65.2333
1768	65.1609
1764	65.161
1760	65.1633
1756	65.1338
1752	65.1016
1748	65.0416
1744	65.0076
1740	65.006
1736	64.953
1732	64.9601
1728	65.0492
1724	65.15
1720	65.2099
1716	65.1368
1712	65.0864
1708	65.152
1704	65.2343
1700	65.253
1696	65.1863
1692	65.1392
1688	65.1396
1684	65.1033
1680	65.0809
1676	65.1366
1672	65.2163
1668	65.2979
1664	65.3451
1660	65.3065
1656	65.2054
1652	65.1117
1648	65.0835
1644	65.1626
1640	65.2389
1636	65.1603
1632	65.0518
1628	65.0327
1624	65.0475
1620	65.0398
1616	65.0316
1612	65.1075
1608	65.2256
1604	65.2395
1600	65.1755
1596	65.1104
1592	65.0519
1588	65.0209
1584	65.0337
1580	65.0746
1576	65.1027
1572	65.069
1568	65.0172
1564	65.015
1560	64.9946
1556	64.9339
1552	65.0023
1548	65.1858
1544	65.291
1540	65.278
1536	65.2461
1532	65.25
1528	65.1798
1524	65.0753
1520	65.081
1516	65.0973
1512	65.0387
1508	65.0108
1504	65.056
1500	65.089
1496	65.0953
1492	65.0959
1488	65.0486
1484	64.9698
1480	64.9302
1476	64.974
1472	65.0299
1468	65.0187
1464	65.0047
1460	65.0219
1456	65.0376
1452	65.0527
1448	65.1271
1444	65.175
1440	65.0124
1436	64.7913
1432	64.7146
1428	64.8082
1424	64.9756
1420	65.0468
1416	65.0855
1412	65.1706
1408	65.2353
1404	65.1773
1400	65.0219
1396	64.9273
1392	64.9022
1388	64.9401
1384	65.0157
1380	64.9999
1376	64.9559
1372	64.9838
1368	64.9871
1364	64.9112
1360	64.8689
1356	64.9332
1352	65.0142
1348	65.0309
1344	64.9781
1340	64.9155
1336	64.8811
1332	64.8872
1328	64.9336
1324	64.9633
1320	64.9493
1316	64.874
1312	64.791
1308	64.7817
1304	64.8172
1300	64.85
1296	64.83
1292	64.8069
1288	64.8969
1284	65.014
1280	65.0119
1276	64.901
1272	64.8053
1268	64.8159
1264	64.8624
1260	64.8932
1256	64.9186
1252	64.8804
1248	64.8336
1244	64.869
1240	64.8906
1236	64.8498
1232	64.8438
1228	64.8332
1224	64.8406
1220	64.9435
1216	64.9938
1212	64.9623
1208	64.9385
1204	64.8936
1200	64.8256
1196	64.8174
1192	64.8526
1188	64.8232
1184	64.7758
1180	64.8471
1176	64.9722
1172	65.0561
1168	65.0385
1164	64.9151
1160	64.8322
1156	64.7863
1152	64.7116
1148	64.717
1144	64.8365
1140	64.9455
1136	64.8894
1132	64.6711
1128	64.5416
1124	64.6169
1120	64.759
1116	64.8733
1112	65.0131
1108	65.2068
1104	65.1423
1100	64.7274
1096	64.4453
1092	64.396
1088	64.3101
1084	64.3187
1080	64.4672
1076	64.4884
1072	64.4647
1068	64.5173
1064	64.5167
1060	64.5244
1056	64.6459
1052	64.8236
1048	64.9278
1044	64.868
1040	64.6912
1036	64.5326
1032	64.4606
1028	64.5168
1024	64.643
1020	64.5985
1016	64.4336
1012	64.3362
1008	64.339
1004	64.4696
1000	64.5522
996	 64.5208
992	 64.5354
988	 64.5064
984	 64.4146
980	 64.4445
976	 64.4822
972	 64.4627
968	 64.491
964	 64.4381
960	 64.371
956	 64.4818
952	 64.5908
948	 64.5042
944	 64.3825
940	 64.3366
936	 64.2565
932	 64.179
928	 64.2897
924	 64.674
920	 64.876
916	 64.5197
912	 64.1477
908	 64.0889
904	 63.9843
900	 63.8718
896	 64.0664
892	 64.3327
888	 64.3482
884	 63.9839
880	 63.4579
876	 63.4201
872	 63.7519
868	 64.094
864	 64.4611
860	 64.5951
856	 64.4302
852	 64.3287
848	 64.5407
844	 64.6963
840	 64.3196
836	 63.8003
832	 63.6616
828	 63.5981
824	 63.6836
820	 64.023
816	 64.0745
812	 64.1006
808	 64.2541
804	 64.1428
800	 64.0152
796	 64.0274
792	 63.9158
788	 63.7069
784	 63.5175
780	 63.5081
776	 63.647
772	 63.6996
768	 63.7245
764	 63.8043
760	 63.7801
756	 63.625
752	 63.3012
748	 63.228
744	 63.3997
740	 63.1261
736	 62.891
732	 63.0253
728	 63.2813
724	 63.5887
720	 63.5325
716	 63.2368
712	 63.1341
708	 63.1921
704	 63.3382
700	 63.3207
696	 63.0528
692	 62.9687
688	 63.1326
684	 63.1042
680	 63.0359
676	 63.0639
672	 62.9005
668	 62.6229
664	 62.3862
660	 62.4431
656	 62.7431
652	 62.8532
648	 62.8086
644	 62.7306
640	 62.6378
636	 62.5238
632	 62.5267
628	 62.7685
624	 62.8293
620	 62.5687
616	 62.3819
612	 62.5583
608	 62.7383
604	 62.6559
600	 62.7438
596	 62.8349
592	 62.4737
588	 61.8873
584	 61.445
580	 61.1723
576	 61.1654
572	 61.3459
568	 61.4909
564	 61.635
560	 61.7328
556	 62.106
552	 62.5794
548	 62.3261
544	 61.686
540	 61.2235
536	 60.8229
532	 60.6643
528	 60.7954
524	 60.6253
520	 60.6053
516	 61.0998
512	 61.0979
508	 60.8249
504	 60.733
500	 60.6283
496	 60.8945
492	 60.9309
488	 60.1882
484	 59.5184
480	 59.2299
476	 59.447
472	 59.6807
468	 58.9706
464	 58.0534
460	 57.929
456	 58.573
452	 58.8927
448	 58.243
444	 58.0009
440	 58.3117
436	 57.1682
432	 55.1249
428	 54.1382
424	 54.8853
420	 56.9272
416	 57.7905
412	 57.2996
408	 53.9764
404	 52.3353
400	 55.7975
396	 48.3624
392	 40.89
388	 46.159
384	 52.2303
380	 64.2004
376	 89.9355
372	 102.854
370	 99.0229