File: Bakgrunnsmateriale/MATLAB/FTIR/ftir_data/subBb/Mapping_121/C-4040-8_t27.asc
PE IR       SPECTRUM    SPECTRUM    ASCII       PEDS        1.60
  -1
C-BD26~1.ASC
17/03/27
16:43:17.00
17/03/27
16:43:43.00
tln
$C-4040-8_t0027$<tbV0>[2.6,-7.8,8.0,0.0,27,1,0]
27.028
64

2002,4.07
MIRTGS : RIGHTBACK : INTERNAL 2
MIR : ON : INTERNAL 2
OPTKBR

0.200000
8
8.000000
FILLER
RATIO
SPECTRUM
UNLOCKED 256

DOUBLE
64
COMBINED
1
0
0

0.002000
RATIO

1
0
TRUE
51149
0
LEFT NOT FITTED RIGHT NOT FITTED 0
NONE
NONE
15600
12
4.427000
51148
TRUE
1 0 8 72 0 0 0 0

15798

#HDR
-1
-1
#GR
µM
%T
2.38419e-05
0.0
2.000000
0.002000
12515
8
64.636
15.3113
#DATA
2.000000	 63.2913
2.018000	 63.5172
2.036000	 63.582
2.054000	 63.5416
2.072000	 63.7981
2.090000	 63.2008
2.108000	 63.7126
2.126000	 63.4757
2.144000	 63.5391
2.162000	 63.4758
2.180000	 63.2663
2.198000	 63.7167
2.216000	 63.5516
2.234000	 63.3074
2.252000	 63.393
2.270000	 63.0797
2.288000	 60.3127
2.306000	 63.0059
2.324000	 63.1795
2.342000	 63.2924
2.360000	 63.0662
2.378000	 62.7862
2.396000	 63.5899
2.414000	 63.1133
2.432000	 62.575
2.450000	 62.5223
2.468000	 62.7125
2.486000	 62.5801
2.504000	 62.6418
2.522000	 62.5103
2.540000	 62.5762
2.558000	 62.0621
2.576000	 62.5238
2.594000	 62.2756
2.612000	 62.2413
2.630000	 62.1644
2.648000	 61.9528
2.666000	 62.0273
2.684000	 62.143
2.702000	 61.92
2.720000	 61.7152
2.738000	 61.6986
2.756000	 61.7307
2.774000	 61.6751
2.792000	 61.59
2.810000	 61.3075
2.828000	 61.3997
2.846000	 61.2073
2.864000	 61.0726
2.882000	 60.8582
2.900000	 60.8877
2.918000	 60.7679
2.936000	 60.8184
2.954000	 60.6043
2.972000	 60.5143
2.990000	 60.6084
3.008000	 60.3732
3.026000	 60.3101
3.044000	 60.2233
3.062000	 59.9914
3.080000	 59.978
3.098000	 59.7685
3.116000	 59.5692
3.134000	 59.5539
3.152000	 59.6503
3.170000	 59.4246
3.188000	 59.1989
3.206000	 59.0828
3.224000	 59.0412
3.242000	 59.0804
3.260000	 58.934
3.278000	 58.9155
3.296000	 58.8253
3.314000	 58.6303
3.332000	 58.5393
3.350000	 58.4631
3.368000	 58.3267
3.386000	 58.1445
3.404000	 57.8373
3.422000	 57.7535
3.440000	 57.8215
3.458000	 57.8209
3.476000	 57.6508
3.494000	 57.5004
3.512000	 57.5871
3.530000	 57.4827
3.548000	 57.447
3.566000	 57.3082
3.584000	 57.1074
3.602000	 57.0734
3.620000	 56.9712
3.638000	 56.9137
3.656000	 56.7089
3.674000	 56.6741
3.692000	 56.4846
3.710000	 56.5497
3.728000	 56.3194
3.746000	 56.3106
3.764000	 56.0089
3.782000	 55.8825
3.800000	 55.9914
3.818000	 55.8845
3.836000	 55.6829
3.854000	 55.7024
3.872000	 55.529
3.890000	 55.5213
3.908000	 55.364
3.926000	 55.3716
3.944000	 55.0921
3.962000	 55.0135
3.980000	 54.8547
3.998000	 54.8403
4.016000	 54.5581
4.034000	 54.5529
4.052000	 54.6279
4.070000	 54.3792
4.088000	 54.4097
4.106000	 54.3384
4.124000	 54.1727
4.141999	 54.3247
4.160000	 53.8599
4.178000	 53.7587
4.196000	 53.806
4.214000	 53.7721
4.232000	 53.658
4.250000	 53.4873
4.268000	 53.3653
4.286000	 53.3174
4.304000	 53.2414
4.322000	 53.0891
4.340000	 53.0514
4.358000	 52.9094
4.375999	 52.8906
4.394000	 52.7642
4.412000	 52.6328
4.430000	 52.6026
4.448000	 52.595
4.466000	 52.4421
4.484000	 52.416
4.502000	 52.1812
4.520000	 52.2694
4.538000	 52.1297
4.556000	 52.0088
4.574000	 51.9884
4.592000	 51.9859
4.609999	 51.8807
4.628000	 51.8076
4.646000	 51.7866
4.664000	 51.7343
4.682000	 51.4878
4.700000	 51.3447
4.718000	 51.2432
4.736000	 51.2559
4.754000	 51.1338
4.772000	 51.0898
4.790000	 51.0954
4.808000	 51.0359
4.826000	 50.9583
4.843999	 50.9113
4.862000	 50.7289
4.880000	 50.6545
4.898000	 50.4543
4.916000	 50.4623
4.934000	 50.3357
4.952000	 50.1682
4.970000	 50.1515
4.988000	 50.1446
5.006000	 50.1164
5.024000	 49.9819
5.042000	 49.8988
5.060000	 49.8016
5.077999	 49.6711
5.096000	 49.6319
5.114000	 49.6324
5.132000	 49.5425
5.150000	 49.5377
5.168000	 49.4751
5.186000	 49.3922
5.204000	 49.2917
5.222000	 49.1751
5.240000	 49.0657
5.258000	 48.9939
5.276000	 48.8526
5.294000	 48.732
5.312000	 48.7318
5.330000	 48.7825
5.348000	 48.7632
5.366000	 48.6839
5.384000	 48.5592
5.402000	 48.3831
5.420000	 48.4143
5.438000	 48.4099
5.456000	 48.2674
5.474000	 48.2402
5.492000	 48.2458
5.510000	 48.1394
5.528000	 47.9354
5.546000	 47.9026
5.564000	 47.878
5.582000	 47.8274
5.600000	 47.7554
5.618000	 47.6298
5.636000	 47.5671
5.654000	 47.5414
5.672000	 47.4819
5.690000	 47.4174
5.708000	 47.3746
5.726000	 47.2435
5.744000	 47.0635
5.762000	 47.0401
5.780000	 47.0518
5.798000	 46.96
5.816000	 46.8143
5.834000	 46.8767
5.852000	 46.9525
5.870000	 46.9047
5.888000	 46.8735
5.906000	 46.8551
5.923999	 46.8181
5.942000	 46.6356
5.960000	 46.5318
5.978000	 46.5519
5.996000	 46.5377
6.014000	 46.4477
6.032000	 46.3767
6.050000	 46.293
6.068000	 46.2202
6.086000	 46.1816
6.104000	 46.1652
6.122000	 46.1583
6.140000	 46.0777
6.158000	 45.9039
6.176000	 45.7718
6.194000	 45.7833
6.212000	 45.8536
6.230000	 45.862
6.248000	 45.7683
6.266000	 45.608
6.284000	 45.5075
6.302000	 45.4754
6.320000	 45.4724
6.338000	 45.3802
6.356000	 45.3045
6.374000	 45.3321
6.392000	 45.2631
6.410000	 45.1925
6.428000	 45.1813
6.446000	 45.1537
6.464000	 45.0557
6.482000	 44.9587
6.500000	 44.9485
6.518000	 44.9255
6.536000	 44.8583
6.554000	 44.8104
6.572000	 44.7993
6.590000	 44.7703
6.608000	 44.7032
6.626000	 44.6705
6.644000	 44.6468
6.662000	 44.5754
6.680000	 44.5074
6.698000	 44.4365
6.716000	 44.3688
6.734000	 44.3774
6.752000	 44.3869
6.770000	 44.3285
6.788000	 44.2608
6.806000	 44.1853
6.824000	 44.1083
6.842000	 44.1129
6.860000	 44.1263
6.878000	 44.0367
6.896000	 43.958
6.914000	 43.9659
6.932000	 43.9845
6.950000	 44.0062
6.968000	 43.9795
6.986000	 43.8061
7.004000	 43.5731
7.022000	 43.4626
7.040000	 43.5115
7.058000	 43.5971
7.076000	 43.5923
7.094000	 43.4956
7.112000	 43.4196
7.130000	 43.444
7.148000	 43.4958
7.166000	 43.455
7.184000	 43.3519
7.202000	 43.296
7.220000	 43.2706
7.238000	 43.2049
7.256000	 43.1361
7.274000	 43.1026
7.292000	 43.0776
7.310000	 43.0413
7.328000	 42.9928
7.346000	 42.9523
7.364000	 42.9516
7.382000	 42.9645
7.400000	 42.9211
7.418000	 42.8077
7.436000	 42.6947
7.454000	 42.6595
7.472000	 42.6908
7.490000	 42.6924
7.508000	 42.6211
7.526000	 42.5519
7.544000	 42.5527
7.562000	 42.5953
7.580000	 42.6086
7.598000	 42.5349
7.616000	 42.3858
7.634000	 42.2739
7.652000	 42.2754
7.670000	 42.3173
7.688000	 42.3114
7.706000	 42.272
7.724000	 42.228
7.742000	 42.1698
7.760000	 42.1051
7.778000	 42.0561
7.796000	 42.0257
7.814000	 42.008
7.832000	 41.9882
7.850000	 41.9489
7.868000	 41.9109
7.886000	 41.9178
7.904000	 41.9564
7.922000	 41.9586
7.940000	 41.8981
7.958000	 41.8305
7.976000	 41.8157
7.994000	 41.8393
8.012000	 41.8388
8.030000	 41.7856
8.048000	 41.7122
8.065999	 41.6579
8.084000	 41.6213
8.102000	 41.5776
8.120000	 41.5159
8.138000	 41.4525
8.155999	 41.4169
8.173999	 41.4148
8.192000	 41.4135
8.210000	 41.381
8.228000	 41.3255
8.246000	 41.2685
8.263999	 41.2064
8.282000	 41.1362
8.300000	 41.0834
8.318000	 41.0674
8.336000	 41.0702
8.353999	 41.0708
8.372000	 41.0754
8.390000	 41.088
8.408000	 41.0833
8.426000	 41.0362
8.443999	 40.9595
8.462000	 40.8959
8.480000	 40.8776
8.498000	 40.9026
8.516000	 40.9377
8.533999	 40.9438
8.552000	 40.9059
8.570000	 40.8437
8.588000	 40.7896
8.606000	 40.7597
8.624000	 40.7449
8.641999	 40.7251
8.660000	 40.6846
8.678000	 40.6222
8.696000	 40.557
8.714000	 40.5226
8.731999	 40.5391
8.750000	 40.589
8.768000	 40.6272
8.786000	 40.6206
8.804000	 40.5713
8.821999	 40.5007
8.840000	 40.4243
8.858000	 40.3479
8.876000	 40.2792
8.894000	 40.2311
8.911999	 40.2087
8.930000	 40.2011
8.948000	 40.1883
8.966000	 40.1623
8.984000	 40.1398
9.001999	 40.1499
9.020000	 40.2007
9.038000	 40.2599
9.056000	 40.2803
9.074000	 40.243
9.092000	 40.1708
9.109999	 40.0934
9.128000	 40.0123
9.146000	 39.9078
9.164000	 39.7768
9.182000	 39.646
9.199999	 39.5493
9.218000	 39.4954
9.236000	 39.4656
9.254000	 39.4349
9.272000	 39.3966
9.289999	 39.3636
9.308000	 39.3546
9.326000	 39.3771
9.344000	 39.423
9.362000	 39.4758
9.379999	 39.5219
9.398000	 39.5553
9.416000	 39.5734
9.434000	 39.5734
9.452000	 39.5537
9.469999	 39.5144
9.488000	 39.4595
9.506000	 39.401
9.524000	 39.3582
9.542000	 39.3477
9.560000	 39.3655
9.577999	 39.3832
9.596000	 39.3635
9.614000	 39.2832
9.632000	 39.1453
9.650000	 38.9766
9.667999	 38.8153
9.686000	 38.7051
9.704000	 38.6872
9.722000	 38.7844
9.740000	 38.9786
9.757999	 39.2033
9.776000	 39.3675
9.794000	 39.4035
9.812000	 39.3078
9.830000	 39.1367
9.847999	 38.9606
9.866000	 38.8164
9.884000	 38.694
9.902000	 38.5665
9.920000	 38.4281
9.937999	 38.3081
9.956000	 38.246
9.974000	 38.2564
9.992000	 38.3166
10.01	38.386
10.028	38.4364
10.046	38.4673
10.064	38.4951
10.082	38.529
10.1	38.5611
10.118	38.5737
10.136	38.5567
10.154	38.5161
10.172	38.4669
10.19	38.4191
10.208	38.3722
10.226	38.3211
10.244	38.264
10.262	38.205
10.28	38.1492
10.298	38.0982
10.316	38.0495
10.334	38.0014
10.352	37.9563
10.37	37.9207
10.388	37.9022
10.406	37.9054
10.424	37.9316
10.442	37.9771
10.46	38.0328
10.478	38.0838
10.496	38.1145
10.514	38.1161
10.532	38.0916
10.55	38.0509
10.568	38.0047
10.586	37.9574
10.604	37.907
10.622	37.8514
10.64	37.7933
10.658	37.7399
10.676	37.6973
10.694	37.664
10.712	37.6303
10.73	37.5856
10.748	37.5265
10.766	37.4617
10.784	37.406
10.802	37.3727
10.82	37.3663
10.838	37.3818
10.856	37.4111
10.874	37.448
10.892	37.491
10.91	37.5391
10.928	37.5868
10.946	37.6218
10.964	37.6308
10.982	37.6063
11	37.5526
11.018	37.4845
11.036	37.4175
11.054	37.3607
11.072	37.3123
11.09	37.264
11.108	37.2103
11.126	37.1544
11.144	37.108
11.162	37.085
11.18	37.0914
11.198	37.121
11.216	37.1571
11.234	37.1816
11.252	37.1823
11.27	37.1587
11.288	37.1204
11.306	37.0798
11.324	37.0467
11.342	37.0238
11.36	37.0079
11.378	36.9928
11.396	36.9736
11.414	36.9481
11.432	36.9162
11.45	36.8786
11.468	36.8357
11.486	36.7871
11.504	36.7334
11.522	36.6772
11.54	36.6227
11.558	36.5749
11.576	36.5383
11.594	36.5148
11.612	36.5034
11.63	36.5008
11.648	36.5034
11.666	36.5072
11.684	36.51
11.702	36.5109
11.72	36.5099
11.738	36.5062
11.756	36.4981
11.774	36.4836
11.792	36.4613
11.81	36.4314
11.828	36.3962
11.846	36.3598
11.864	36.3277
11.882	36.3044
11.9	36.292
11.918	36.2894
11.936	36.2916
11.954	36.2911
11.972	36.2791
11.99	36.2489
12.008	36.1979
12.026	36.1297
12.044	36.0536
12.062	35.9842
12.08	35.9366
12.098	35.9214
12.116	35.9413
12.134	35.9882
12.152	36.0458
12.17	36.0956
12.188	36.1224
12.206	36.1193
12.224	36.0889
12.242	36.0409
12.26	35.9867
12.278	35.9372
12.296	35.8986
12.314	35.873
12.332	35.8582
12.35	35.8502
12.368	35.8431
12.386	35.8314
12.404	35.8109
12.422	35.7792
12.44	35.7359
12.458	35.6823
12.476	35.6216
12.494	35.5583
12.512	35.4977
12.53	35.4452
12.548	35.4053
12.566	35.3813
12.584	35.3737
12.602	35.3804
12.62	35.3966
12.638	35.4161
12.656	35.4323
12.674	35.4399
12.692	35.4354
12.71	35.4177
12.728	35.3881
12.746	35.3496
12.764	35.3051
12.782	35.2573
12.8	35.2079
12.818	35.1572
12.836	35.1047
12.854	35.0498
12.872	34.9926
12.89	34.9339
12.908	34.8757
12.926	34.8211
12.944	34.7733
12.962	34.7356
12.98	34.7102
12.998	34.698
13.016	34.6989
13.034	34.7109
13.052	34.7314
13.07	34.7566
13.088	34.7827
13.106	34.8055
13.124	34.8217
13.142	34.8288
13.16	34.8256
13.178	34.8125
13.196	34.7911
13.214	34.7642
13.232	34.735
13.25	34.7066
13.268	34.6818
13.286	34.6621
13.304	34.6481
13.322	34.6393
13.34	34.6349
13.358	34.6335
13.376	34.6336
13.394	34.6338
13.412	34.6326
13.43	34.6282
13.448	34.6188
13.466	34.6029
13.484	34.5791
13.502	34.5473
13.52	34.5087
13.538	34.4658
13.556	34.4221
13.574	34.3815
13.592	34.3471
13.61	34.321
13.628	34.3033
13.646	34.2923
13.664	34.2847
13.682	34.2767
13.7	34.2644
13.718	34.245
13.736	34.2173
13.754	34.1818
13.772	34.1405
13.79	34.0963
13.808	34.0522
13.826	34.0108
13.844	33.9731
13.862	33.9397
13.88	33.9097
13.898	33.8815
13.916	33.8532
13.934	33.8229
13.952	33.7896
13.97	33.7525
13.988	33.7119
14.006	33.6691
14.024	33.6261
14.042	33.5855
14.06	33.5502
14.078	33.5226
14.096	33.5045
14.114	33.4966
14.132	33.4988
14.15	33.5097
14.168	33.5272
14.186	33.5485
14.204	33.5706
14.222	33.5905
14.24	33.6055
14.258	33.6133
14.276	33.6125
14.294	33.6021
14.312	33.5812
14.33	33.5493
14.348	33.5065
14.366	33.4532
14.384	33.3905
14.402	33.32
14.42	33.244
14.438	33.1655
14.456	33.0878
14.474	33.0142
14.492	32.9477
14.51	32.8907
14.528	32.8445
14.546	32.8095
14.564	32.7852
14.582	32.7705
14.6	32.7637
14.618	32.7628
14.636	32.7652
14.654	32.7688
14.672	32.7711
14.69	32.77
14.708	32.7636
14.726	32.7505
14.744	32.7302
14.762	32.703
14.78	32.6703
14.798	32.6347
14.816	32.5994
14.834	32.5686
14.852	32.5468
14.87	32.5374
14.888	32.5434
14.906	32.566
14.924	32.6052
14.942	32.6585
14.96	32.7215
14.978	32.789
14.996	32.8555
15.014	32.9151
15.032	32.9623
15.05	32.9931
15.068	33.0056
15.086	32.9991
15.104	32.9746
15.122	32.935
15.14	32.884
15.158	32.8251
15.176	32.7619
15.194	32.6981
15.212	32.6368
15.23	32.5797
15.248	32.528
15.266	32.4823
15.284	32.4424
15.302	32.4081
15.32	32.3788
15.338	32.3541
15.356	32.3335
15.374	32.3164
15.392	32.3022
15.41	32.2901
15.428	32.2794
15.446	32.2687
15.464	32.2564
15.482	32.2413
15.5	32.2218
15.518	32.1965
15.536	32.1645
15.554	32.1254
15.572	32.0791
15.59	32.0263
15.608	31.9685
15.626	31.9072
15.644	31.8445
15.662	31.783
15.68	31.7247
15.698	31.6717
15.716	31.6265
15.734	31.5907
15.752	31.5652
15.77	31.5506
15.788	31.5466
15.806	31.5523
15.824	31.5664
15.842	31.5871
15.86	31.6112
15.878	31.6362
15.896	31.6597
15.914	31.6784
15.932	31.6903
15.95	31.6941
15.968	31.6887
15.986	31.6744
16.004	31.652
16.022	31.6227
16.04	31.5894
16.058	31.5542
16.076	31.5192
16.094	31.4869
16.112	31.4586
16.13	31.4349
16.148	31.4164
16.166	31.4017
16.184	31.3899
16.202	31.3793
16.22	31.3672
16.238	31.3521
16.256	31.3325
16.274	31.3067
16.292	31.2743
16.31	31.2352
16.328	31.1898
16.346	31.1394
16.364	31.0849
16.382	31.0284
16.4	30.9712
16.418	30.9146
16.436	30.8604
16.454	30.8093
16.472	30.762
16.49	30.7192
16.508	30.6807
16.526	30.6467
16.544	30.6168
16.562	30.5907
16.58	30.5682
16.598	30.5488
16.616	30.5323
16.634	30.5182
16.652	30.5061
16.67	30.4955
16.688	30.4862
16.706	30.4774
16.724	30.469
16.742	30.4606
16.76	30.4517
16.778	30.4422
16.796	30.4319
16.814	30.4209
16.832	30.4093
16.85	30.3976
16.868	30.3861
16.886	30.3753
16.904	30.3655
16.922	30.3571
16.94	30.3501
16.958	30.3445
16.976	30.3401
16.994	30.3361
17.012	30.3321
17.03	30.3274
17.048	30.321
17.066	30.3125
17.084	30.3012
17.102	30.2867
17.12	30.2691
17.138	30.2483
17.156	30.2248
17.174	30.1989
17.192	30.1715
17.21	30.1431
17.228	30.1148
17.246	30.0874
17.264	30.0615
17.282	30.0379
17.3	30.0168
17.318	29.9987
17.336	29.9837
17.354	29.9719
17.372	29.9629
17.39	29.9565
17.408	29.9521
17.426	29.9493
17.444	29.9475
17.462	29.9459
17.48	29.9443
17.498	29.9418
17.516	29.9381
17.534	29.9328
17.552	29.9254
17.57	29.9158
17.588	29.9037
17.606	29.8891
17.624	29.8721
17.642	29.8528
17.66	29.8311
17.678	29.8075
17.696	29.7818
17.714	29.754
17.732	29.7242
17.75	29.6923
17.768	29.6581
17.786	29.6216
17.804	29.5825
17.822	29.5408
17.84	29.4967
17.858	29.4506
17.876	29.4029
17.894	29.3546
17.912	29.3062
17.93	29.2595
17.948	29.2148
17.966	29.1742
17.984	29.1379
18.002	29.1077
18.02	29.0836
18.038	29.0663
18.056	29.0554
18.074	29.0511
18.092	29.0519
18.11	29.0578
18.128	29.0668
18.146	29.0785
18.164	29.091
18.182	29.1036
18.2	29.115
18.218	29.1244
18.236	29.1313
18.254	29.1352
18.272	29.136
18.29	29.1339
18.308	29.1288
18.326	29.1212
18.344	29.1111
18.362	29.0987
18.38	29.084
18.398	29.067
18.416	29.0473
18.434	29.0246
18.452	28.9986
18.47	28.9688
18.488	28.9348
18.506	28.8965
18.524	28.8537
18.542	28.8064
18.56	28.7556
18.578	28.7015
18.596	28.6457
18.614	28.5884
18.632	28.5321
18.65	28.4769
18.668	28.4253
18.686	28.3773
18.704	28.3348
18.722	28.2979
18.74	28.2673
18.758	28.2428
18.776	28.2242
18.794	28.2108
18.812	28.2015
18.83	28.1955
18.848	28.1909
18.866	28.187
18.884	28.1817
18.902	28.1745
18.92	28.1637
18.938	28.1489
18.956	28.1291
18.974	28.1044
18.992	28.0743
19.01	28.0395
19.028	28.0002
19.046	27.9573
19.064	27.9118
19.082	27.8644
19.1	27.8166
19.118	27.7689
19.136	27.7228
19.154	27.6786
19.172	27.6376
19.19	27.5997
19.208	27.5659
19.226	27.5361
19.244	27.5103
19.262	27.4887
19.28	27.4708
19.298	27.4568
19.316	27.4462
19.334	27.4391
19.352	27.4351
19.37	27.4344
19.388	27.4365
19.406	27.4416
19.424	27.4494
19.442	27.4601
19.46	27.4735
19.478	27.4895
19.496	27.5079
19.514	27.5288
19.532	27.5516
19.55	27.5761
19.568	27.6018
19.586	27.6282
19.604	27.6548
19.622	27.6807
19.64	27.7058
19.658	27.7288
19.676	27.7497
19.694	27.7672
19.712	27.7816
19.73	27.7915
19.748	27.7971
19.766	27.7975
19.784	27.7926
19.802	27.7822
19.82	27.766
19.838	27.7439
19.856	27.7161
19.874	27.6827
19.892	27.644
19.91	27.5999
19.928	27.5513
19.946	27.498
19.964	27.4413
19.982	27.3811
20	27.3189
20.018	27.2551
20.036	27.1906
20.054	27.1268
20.072	27.0638
20.09	27.0036
20.108	26.9459
20.126	26.8927
20.144	26.8439
20.162	26.8003
20.18	26.7627
20.198	26.7307
20.216	26.7048
20.234	26.6847
20.252	26.6697
20.27	26.6598
20.288	26.6532
20.306	26.6501
20.324	26.6486
20.342	26.6479
20.36	26.6473
20.378	26.6449
20.396	26.6409
20.414	26.6334
20.432	26.6226
20.45	26.6078
20.468	26.5885
20.486	26.5649
20.504	26.5371
20.522	26.5051
20.54	26.47
20.558	26.4316
20.576	26.3913
20.594	26.3494
20.612	26.3065
20.63	26.2638
20.648	26.2211
20.666	26.1794
20.684	26.139
20.702	26.0998
20.72	26.0624
20.738	26.0264
20.756	25.9918
20.774	25.9587
20.792	25.9264
20.81	25.8948
20.828	25.8638
20.846	25.8329
20.864	25.8021
20.882	25.7713
20.9	25.7405
20.918	25.71
20.936	25.6799
20.954	25.6504
20.972	25.6225
20.99	25.5959
21.008	25.5718
21.026	25.5504
21.044	25.5319
21.062	25.5175
21.08	25.5067
21.098	25.5002
21.116	25.4982
21.134	25.5004
21.152	25.5065
21.17	25.5168
21.188	25.5304
21.206	25.5473
21.224	25.5671
21.242	25.5886
21.26	25.6122
21.278	25.6365
21.296	25.6614
21.314	25.6866
21.332	25.7107
21.35	25.7343
21.368	25.756
21.386	25.7758
21.404	25.7933
21.422	25.8076
21.44	25.8188
21.458	25.8263
21.476	25.8296
21.494	25.8288
21.512	25.8231
21.53	25.8127
21.548	25.7973
21.566	25.7766
21.584	25.7506
21.602	25.7194
21.62	25.6829
21.638	25.6414
21.656	25.5954
21.674	25.5447
21.692	25.4905
21.71	25.4328
21.728	25.3721
21.746	25.3103
21.764	25.2468
21.782	25.1833
21.8	25.121
21.818	25.0593
21.836	25.0005
21.854	24.9446
21.872	24.892
21.89	24.8442
21.908	24.8007
21.926	24.7624
21.944	24.7298
21.962	24.7027
21.98	24.6811
21.998	24.6655
22.016	24.6552
22.034	24.6496
22.052	24.6491
22.07	24.6526
22.088	24.6593
22.106	24.6698
22.124	24.6825
22.142	24.6973
22.16	24.7142
22.178	24.7317
22.196	24.7503
22.214	24.7691
22.232	24.7875
22.25	24.8057
22.268	24.8229
22.286	24.8386
22.304	24.8531
22.322	24.8655
22.34	24.8757
22.358	24.8837
22.376	24.8882
22.394	24.8897
22.412	24.8876
22.43	24.8808
22.448	24.8696
22.466	24.8536
22.484	24.8321
22.502	24.8054
22.52	24.7735
22.538	24.736
22.556	24.6933
22.574	24.6457
22.592	24.5932
22.61	24.536
22.628	24.4754
22.646	24.4107
22.664	24.3431
22.682	24.2747
22.7	24.2045
22.718	24.1341
22.736	24.0658
22.754	23.9983
22.772	23.9337
22.79	23.8739
22.808	23.8179
22.826	23.7671
22.844	23.7226
22.862	23.6838
22.88	23.6511
22.898	23.6251
22.916	23.6055
22.934	23.5911
22.952	23.582
22.97	23.578
22.988	23.5768
23.006	23.5785
23.024	23.5827
23.042	23.5862
23.06	23.5888
23.078	23.5906
23.096	23.5882
23.114	23.5818
23.132	23.5713
23.15	23.5538
23.168	23.5295
23.186	23.4982
23.204	23.4588
23.222	23.4109
23.24	23.355
23.258	23.2907
23.276	23.2178
23.294	23.1367
23.312	23.0481
23.33	22.9516
23.348	22.8477
23.366	22.7382
23.384	22.6225
23.402	22.5012
23.42	22.3765
23.438	22.248
23.456	22.1161
23.474	21.9833
23.492	21.8495
23.51	21.7148
23.528	21.5816
23.546	21.4502
23.564	21.3202
23.582	21.1938
23.6	21.0715
23.618	20.9527
23.636	20.8394
23.654	20.7326
23.672	20.6317
23.69	20.5368
23.708	20.4485
23.726	20.3669
23.744	20.2907
23.762	20.2195
23.78	20.1543
23.798	20.0928
23.816	20.0326
23.834	19.9755
23.852	19.9193
23.87	19.8602
23.888	19.8002
23.906	19.7375
23.924	19.6678
23.942	19.5916
23.96	19.5089
23.978	19.4165
23.996	19.3129
24.014	19.1996
24.032	19.075
24.05	18.9377
24.068	18.7883
24.086	18.6279
24.104	18.4572
24.122	18.2747
24.14	18.0832
24.158	17.8863
24.176	17.6817
24.194	17.4715
24.212	17.2618
24.23	17.0522
24.248	16.8418
24.266	16.6379
24.284	16.4444
24.302	16.2571
24.32	16.082
24.338	15.9247
24.356	15.7824
24.374	15.6564
24.392	15.5503
24.41	15.4642
24.428	15.3972
24.446	15.3489
24.464	15.3203
24.482	15.3113
24.5	15.3187
24.518	15.34
24.536	15.3781
24.554	15.4291
24.572	15.4874
24.59	15.5554
24.608	15.6319
24.626	15.7099
24.644	15.7866
24.662	15.8656
24.68	15.9416
24.698	16.0098
24.716	16.0727
24.734	16.1291
24.752	16.1762
24.77	16.2129
24.788	16.2407
24.806	16.2597
24.824	16.2697
24.842	16.2702
24.86	16.263
24.878	16.2502
24.896	16.23
24.914	16.2038
24.932	16.1757
24.95	16.1477
24.968	16.1173
24.986	16.0877
25.004	16.0624
25.022	16.0393
25.04	16.0196
25.058	16.0071
25.076	16.0035
25.094	16.0066
25.112	16.0188
25.13	16.0428
25.148	16.0772
25.166	16.1223
25.184	16.1801
25.202	16.2511
25.22	16.3344
25.238	16.4309
25.256	16.5416
25.274	16.667
25.292	16.8062
25.31	16.9573
25.328	17.1202
25.346	17.2966
25.364	17.4827
25.382	17.6747
25.4	17.8747
25.418	18.0821
25.436	18.2914
25.454	18.4987
25.472	18.7083
25.49	18.9164
25.508	19.1174
25.526	19.3109
25.544	19.4994
25.562	19.6777
25.58	19.8409
25.598	19.9918
25.616	20.1296
25.634	20.251
25.652	20.353
25.67	20.4366
25.688	20.5042
25.706	20.5581
25.724	20.5962
25.742	20.6183
25.76	20.6317
25.778	20.6428
25.796	20.6464
25.814	20.6452
25.832	20.6465
25.85	20.6549
25.868	20.6639
25.886	20.6793
25.904	20.709
25.922	20.7548
25.94	20.8126
25.958	20.8858
25.976	20.9782
25.994	21.0887
26.012	21.2166
26.03	21.3637
26.048	21.5312
26.066	21.7168
26.084	21.9224
26.102	22.1511
26.12	22.4052
26.138	22.6818
26.156	22.9827
26.174	23.31
26.192	23.6638
26.21	24.0424
26.228	24.4486
26.246	24.8852
26.264	25.3535
26.282	25.8517
26.3	26.3783
26.318	26.9321
26.336	27.5168
26.354	28.1301
26.372	28.7644
26.39	29.4132
26.408	30.0854
26.426	30.7755
26.444	31.4707
26.462	32.1613
26.48	32.8628
26.498	33.5636
26.516	34.2441
26.534	34.8907
26.552	35.5208
26.57	36.1237
26.588	36.6826
26.606	37.1868
26.624	37.6498
26.642	38.0646
26.66	38.421
26.678	38.7119
26.696	38.9432
26.714	39.1163
26.732	39.232
26.75	39.286
26.768	39.2722
26.786	39.208
26.804	39.1126
26.822	38.9928
26.84	38.8316
26.858	38.6461
26.876	38.4555
26.894	38.2691
26.912	38.0718
26.93	37.873
26.948	37.6844
26.966	37.5084
26.984	37.3308
27.002	37.1697
27.02	37.0453
27.028	37.011