File: Bakgrunnsmateriale/MATLAB/FTIR/ftir_data/subBb/Mapping_121/C-4040-8_t87_cm-1.asc
PE IR       SPECTRUM    SPECTRUM    ASCII       PEDS        1.60
  -1
C-9DEF~1.ASC
17/03/27
21:35:42.00
17/03/27
21:35:42.00
tln
$C-4040-8_t0087$<tbV0>[-10.4,5.2,8.0,0.0,27,1,0]
370
64

2002,4.07
MIRTGS : RIGHTBACK : INTERNAL 2
MIR : ON : INTERNAL 2
OPTKBR

0.200000
8
8.000000
FILLER
RATIO
SPECTRUM
UNLOCKED 256

DOUBLE
64
COMBINED
1
0
0

1.000000
RATIO

1
0
TRUE
51149
0
LEFT NOT FITTED RIGHT NOT FITTED 0
NONE
NONE
15600
12
4.427000
51148
TRUE
1 0 8 72 0 0 0 0

15798

#HDR
-1
-1
#GR
CM-1
%T
2.38419e-05
0.0
5000
-1.000000
4631
8
92.1895
32.3265
#DATA
5000	65.4676
4996	65.3168
4992	65.1566
4988	64.7744
4984	64.4895
4980	64.279
4976	64.1075
4972	64.575
4968	65.2988
4964	65.5812
4960	65.5515
4956	65.2815
4952	65.2534
4948	65.4573
4944	65.1328
4940	64.7313
4936	64.6991
4932	64.6815
4928	64.6782
4924	64.7274
4920	64.889
4916	65.0986
4912	65.1197
4908	65.1156
4904	65.287
4900	65.2441
4896	64.7558
4892	64.481
4888	64.5839
4884	64.7685
4880	64.814
4876	64.6619
4872	64.6949
4868	64.7484
4864	64.7869
4860	64.9564
4856	64.9949
4852	64.9756
4848	64.8767
4844	64.6651
4840	64.6264
4836	64.9197
4832	65.2558
4828	65.3331
4824	65.4322
4820	65.4643
4816	65.2552
4812	65.2611
4808	65.4862
4804	65.5322
4800	65.3745
4796	65.2194
4792	65.1205
4788	65.04
4784	65.0035
4780	65.0944
4776	65.2644
4772	65.3688
4768	65.4239
4764	65.4394
4760	65.3278
4756	65.0676
4752	64.9932
4748	65.3159
4744	65.6162
4740	65.5279
4736	65.1963
4732	65.0859
4728	65.3054
4724	65.3635
4720	65.2092
4716	65.2568
4712	65.494
4708	65.5488
4704	65.2925
4700	65.103
4696	65.1187
4692	65.1165
4688	65.1415
4684	65.228
4680	65.352
4676	65.4896
4672	65.6338
4668	65.7833
4664	65.6251
4660	65.1692
4656	65.1091
4652	65.3397
4648	65.1593
4644	64.8871
4640	64.9094
4636	65.0085
4632	65.1124
4628	65.2663
4624	65.3794
4620	65.2582
4616	65.069
4612	65.0599
4608	65.0538
4604	64.9433
4600	64.8204
4596	64.7207
4592	64.6995
4588	64.7666
4584	64.8171
4580	64.8067
4576	64.7305
4572	64.4779
4568	64.2477
4564	64.2329
4560	64.3129
4556	64.652
4552	65.1065
4548	65.0591
4544	64.8182
4540	65.0246
4536	65.0453
4532	64.5757
4528	64.2902
4524	64.0853
4520	63.8863
4516	64.043
4512	64.3661
4508	64.5789
4504	64.6592
4500	64.5573
4496	64.1613
4492	63.8949
4488	64.1612
4484	64.383
4480	64.0953
4476	63.7732
4472	63.9549
4468	64.2144
4464	64.0006
4460	63.7538
4456	63.8492
4452	63.9993
4448	64.0537
4444	63.9797
4440	63.8218
4436	63.7376
4432	63.6835
4428	63.6056
4424	63.561
4420	63.9331
4416	64.3149
4412	63.8772
4408	62.9822
4404	62.8661
4400	63.1024
4396	62.3308
4392	62.8425
4388	71.3246
4384	89.0388
4380	87.1384
4376	71.6063
4372	68.03
4368	65.9686
4364	64.5926
4360	63.9239
4356	64.0236
4352	64.1992
4348	64.2434
4344	64.3286
4340	64.3759
4336	64.4396
4332	64.4579
4328	64.5606
4324	64.7678
4320	64.7322
4316	64.7169
4312	64.7511
4308	64.5214
4304	64.3901
4300	64.5665
4296	64.6677
4292	64.4737
4288	64.2961
4284	64.3832
4280	64.5997
4276	64.774
4272	64.8595
4268	64.8366
4264	64.8307
4260	64.7685
4256	64.5582
4252	64.5137
4248	64.6181
4244	64.5654
4240	64.3991
4236	64.3228
4232	64.2729
4228	64.3919
4224	64.7449
4220	64.9045
4216	64.7305
4212	64.5065
4208	64.5613
4204	64.8146
4200	64.7558
4196	64.4648
4192	64.4881
4188	64.7598
4184	65.0561
4180	65.0774
4176	64.9851
4172	65.1108
4168	64.9126
4164	64.5068
4160	64.6054
4156	65.0638
4152	65.2722
4148	65.2053
4144	65.3279
4140	65.52
4136	65.3834
4132	65.1288
4128	65.0567
4124	65.1354
4120	65.1035
4116	64.885
4112	64.7278
4108	64.7318
4104	64.8154
4100	64.914
4096	65.0398
4092	65.1556
4088	65.2241
4084	65.1581
4080	65.0234
4076	64.9788
4072	64.9277
4068	64.942
4064	65.0717
4060	65.0802
4056	65.0146
4052	65.1505
4048	65.3321
4044	65.3327
4040	65.2901
4036	65.2845
4032	65.2164
4028	65.1371
4024	65.1969
4020	65.329
4016	65.4172
4012	65.4261
4008	65.3723
4004	65.3427
4000	65.3428
3996	65.3081
3992	65.2463
3988	65.2488
3984	65.3499
3980	65.4497
3976	65.4641
3972	65.415
3968	65.3569
3964	65.2878
3960	65.2664
3956	65.2747
3952	65.2
3948	65.0762
3944	64.9875
3940	64.9642
3936	64.9964
3932	65.1264
3928	65.2585
3924	65.2473
3920	65.1611
3916	65.0365
3912	65.0256
3908	65.1548
3904	65.155
3900	65.0856
3896	65.0309
3892	65.1329
3888	65.3363
3884	65.1851
3880	64.9317
3876	64.9926
3872	65.1716
3868	65.2903
3864	65.2583
3860	65.0626
3856	64.9241
3852	64.9934
3848	65.1475
3844	65.1895
3840	65.1177
3836	65.1382
3832	65.2143
3828	64.9993
3824	64.7768
3820	64.9475
3816	65.1231
3812	65.1071
3808	65.0584
3804	64.9958
3800	64.9485
3796	64.9128
3792	64.9084
3788	64.9778
3784	65.0693
3780	65.0805
3776	65.0878
3772	65.1275
3768	65.1412
3764	65.2664
3760	65.3737
3756	65.3396
3752	65.3116
3748	65.2806
3744	65.2147
3740	65.1447
3736	65.1334
3732	65.1819
3728	65.2183
3724	65.2996
3720	65.3536
3716	65.3059
3712	65.3017
3708	65.2639
3704	65.1437
3700	65.0674
3696	65.0528
3692	65.1406
3688	65.1968
3684	65.1303
3680	65.158
3676	65.2917
3672	65.3829
3668	65.4472
3664	65.4916
3660	65.432
3656	65.3052
3652	65.2315
3648	65.2733
3644	65.3663
3640	65.3473
3636	65.2683
3632	65.3144
3628	65.4591
3624	65.4792
3620	65.3488
3616	65.2951
3612	65.2363
3608	65.076
3604	65.046
3600	65.1273
3596	65.1535
3592	65.1716
3588	65.1772
3584	65.154
3580	65.2174
3576	65.3594
3572	65.5237
3568	65.6343
3564	65.5231
3560	65.3695
3556	65.362
3552	65.3243
3548	65.2384
3544	65.1839
3540	65.1809
3536	65.2208
3532	65.2508
3528	65.3437
3524	65.4265
3520	65.4284
3516	65.3516
3512	65.1656
3508	65.1112
3504	65.2081
3500	65.1674
3496	65.0422
3492	64.9879
3488	65.0439
3484	65.2241
3480	65.3367
3476	65.3718
3472	65.3598
3468	65.1925
3464	65.1585
3460	65.3895
3456	65.5251
3452	65.4309
3448	65.3364
3444	65.3246
3440	65.2893
3436	65.2534
3432	65.2005
3428	65.1283
3424	65.116
3420	65.1422
3416	65.2631
3412	65.3693
3408	65.2638
3404	65.0431
3400	64.8948
3396	64.9184
3392	65.1265
3388	65.3967
3384	65.5456
3380	65.5469
3376	65.4244
3372	65.1981
3368	65.0131
3364	65.0038
3360	65.1145
3356	65.2425
3352	65.3257
3348	65.2774
3344	65.1469
3340	65.0831
3336	65.1456
3332	65.2133
3328	65.1342
3324	65.0159
3320	65.0301
3316	65.1379
3312	65.2572
3308	65.3406
3304	65.3393
3300	65.293
3296	65.2289
3292	65.1299
3288	65.0665
3284	65.1848
3280	65.4198
3276	65.4799
3272	65.3638
3268	65.269
3264	65.2136
3260	65.1699
3256	65.15
3252	65.1762
3248	65.1898
3244	65.1334
3240	65.0993
3236	65.1435
3232	65.1998
3228	65.2215
3224	65.1847
3220	65.1288
3216	65.1437
3212	65.1802
3208	65.1351
3204	65.115
3200	65.1957
3196	65.2602
3192	65.3209
3188	65.3642
3184	65.2962
3180	65.1132
3176	64.9216
3172	64.9199
3168	65.0402
3164	65.0249
3160	64.9361
3156	64.9893
3152	65.1322
3148	65.2238
3144	65.3625
3140	65.4727
3136	65.3705
3132	65.2254
3128	65.0074
3124	64.7507
3120	64.7575
3116	64.8613
3112	64.8562
3108	64.9186
3104	65.0581
3100	65.1171
3096	65.112
3092	65.1021
3088	65.1136
3084	65.0988
3080	65.0486
3076	65.0736
3072	65.1437
3068	65.1684
3064	65.1365
3060	65.1392
3056	65.21
3052	65.2044
3048	65.0941
3044	65.0034
3040	65.0037
3036	65.0923
3032	65.1974
3028	65.2507
3024	65.293
3020	65.3013
3016	65.1989
3012	65.0663
3008	65.0349
3004	65.0571
3000	65.0787
2996	65.1008
2992	65.0671
2988	65.076
2984	65.1678
2980	65.1844
2976	65.081
2972	64.9823
2968	64.9649
2964	64.9436
2960	64.9163
2956	64.9375
2952	64.9327
2948	64.9493
2944	65.0327
2940	65.0183
2936	64.958
2932	64.9491
2928	64.8526
2924	64.6773
2920	64.5123
2916	64.5289
2912	64.7517
2908	64.9312
2904	65.0061
2900	65.0861
2896	65.1783
2892	65.1894
2888	65.1478
2884	65.0793
2880	64.9667
2876	64.9353
2872	65.0458
2868	65.2805
2864	65.4173
2860	65.1986
2856	64.9828
2852	65.0522
2848	65.0715
2844	65.0401
2840	65.1417
2836	65.1526
2832	65.0573
2828	65.0731
2824	65.1884
2820	65.2734
2816	65.233
2812	65.1485
2808	65.1546
2804	65.1926
2800	65.1746
2796	65.1521
2792	65.2045
2788	65.2375
2784	65.2084
2780	65.2489
2776	65.3111
2772	65.2853
2768	65.2014
2764	65.1298
2760	65.132
2756	65.1864
2752	65.2082
2748	65.2024
2744	65.1981
2740	65.162
2736	65.1619
2732	65.2333
2728	65.2845
2724	65.3139
2720	65.3642
2716	65.394
2712	65.3414
2708	65.2866
2704	65.2843
2700	65.2717
2696	65.2637
2692	65.2625
2688	65.2751
2684	65.2709
2680	65.2204
2676	65.1484
2672	65.0949
2668	65.1485
2664	65.2262
2660	65.2601
2656	65.3019
2652	65.2811
2648	65.1798
2644	65.0987
2640	65.1226
2636	65.2077
2632	65.2434
2628	65.2483
2624	65.265
2620	65.2644
2616	65.2252
2612	65.1827
2608	65.1911
2604	65.2094
2600	65.1781
2596	65.1482
2592	65.2046
2588	65.2576
2584	65.2136
2580	65.2151
2576	65.2453
2572	65.1907
2568	65.1455
2564	65.1865
2560	65.2403
2556	65.268
2552	65.2743
2548	65.1978
2544	65.112
2540	65.1286
2536	65.222
2532	65.3147
2528	65.3903
2524	65.4327
2520	65.3862
2516	65.2765
2512	65.1632
2508	65.1149
2504	65.0938
2500	65.0866
2496	65.0954
2492	65.0884
2488	65.2021
2484	65.3567
2480	65.3613
2476	65.2809
2472	65.2048
2468	65.1054
2464	65.001
2460	65.0366
2456	65.1927
2452	65.3092
2448	65.3291
2444	65.2378
2440	65.134
2436	65.1509
2432	65.081
2428	64.9001
2424	64.9616
2420	65.1823
2416	65.2892
2412	65.3586
2408	65.3855
2404	65.2375
2400	65.1262
2396	65.1879
2392	65.2885
2388	65.35
2384	65.3377
2380	65.3559
2376	65.4117
2372	65.3774
2368	65.2725
2364	65.193
2360	65.182
2356	65.2056
2352	65.2398
2348	65.272
2344	65.2786
2340	65.2727
2336	65.317
2332	65.3942
2328	65.3884
2324	65.2746
2320	65.1856
2316	65.198
2312	65.2039
2308	65.191
2304	65.2206
2300	65.2353
2296	65.192
2292	65.1797
2288	65.2274
2284	65.2492
2280	65.252
2276	65.227
2272	65.1744
2268	65.1674
2264	65.1919
2260	65.1915
2256	65.177
2252	65.1919
2248	65.211
2244	65.2026
2240	65.2007
2236	65.2075
2232	65.2216
2228	65.259
2224	65.2506
2220	65.1844
2216	65.1524
2212	65.2149
2208	65.3202
2204	65.3219
2200	65.2527
2196	65.2104
2192	65.1855
2188	65.195
2184	65.2594
2180	65.3379
2176	65.3156
2172	65.2247
2168	65.1489
2164	65.0692
2160	65.0512
2156	65.0953
2152	65.1474
2148	65.2323
2144	65.2392
2140	65.0687
2136	64.9679
2132	65.0685
2128	65.1386
2124	65.1356
2120	65.1692
2116	65.1953
2112	65.2069
2108	65.2305
2104	65.2501
2100	65.2355
2096	65.1751
2092	65.1859
2088	65.3167
2084	65.4328
2080	65.4574
2076	65.4313
2072	65.3428
2068	65.227
2064	65.189
2060	65.1034
2056	64.8933
2052	64.8202
2048	64.958
2044	65.1362
2040	65.2723
2036	65.3379
2032	65.2908
2028	65.1522
2024	65.0951
2020	65.1473
2016	65.2261
2012	65.2899
2008	65.2602
2004	65.1968
2000	65.2207
1996	65.3083
1992	65.3147
1988	65.1819
1984	65.0843
1980	65.1097
1976	65.1646
1972	65.2281
1968	65.3014
1964	65.2854
1960	65.199
1956	65.2108
1952	65.3075
1948	65.3709
1944	65.3383
1940	65.2284
1936	65.1669
1932	65.2194
1928	65.3243
1924	65.3589
1920	65.3046
1916	65.2717
1912	65.2589
1908	65.2386
1904	65.2494
1900	65.2597
1896	65.2998
1892	65.3579
1888	65.3379
1884	65.2902
1880	65.2545
1876	65.2459
1872	65.308
1868	65.3656
1864	65.3517
1860	65.3149
1856	65.2972
1852	65.2656
1848	65.1951
1844	65.1598
1840	65.2027
1836	65.249
1832	65.2609
1828	65.3131
1824	65.3908
1820	65.3715
1816	65.2935
1812	65.2656
1808	65.263
1804	65.2544
1800	65.2519
1796	65.2873
1792	65.3721
1788	65.4062
1784	65.3121
1780	65.177
1776	65.1561
1772	65.1946
1768	65.1779
1764	65.1937
1760	65.2704
1756	65.3304
1752	65.3356
1748	65.2885
1744	65.2232
1740	65.1197
1736	65.0302
1732	65.0506
1728	65.0835
1724	64.9676
1720	64.9193
1716	65.1048
1712	65.0733
1708	64.8744
1704	64.9764
1700	65.2601
1696	65.4589
1692	65.4785
1688	65.381
1684	65.2997
1680	65.2695
1676	65.2638
1672	65.2871
1668	65.3457
1664	65.3993
1660	65.3953
1656	65.3033
1652	65.1998
1648	65.1581
1644	65.1495
1640	65.1476
1636	65.162
1632	65.1734
1628	65.1946
1624	65.2302
1620	65.2202
1616	65.1868
1612	65.1563
1608	65.1398
1604	65.152
1600	65.1394
1596	65.0642
1592	64.9945
1588	64.979
1584	64.9951
1580	64.9635
1576	64.9442
1572	65.0298
1568	65.0543
1564	64.9551
1560	64.9068
1556	64.9374
1552	64.967
1548	65.0144
1544	65.0812
1540	65.1577
1536	65.1701
1532	65.0926
1528	65.0542
1524	65.067
1520	65.0437
1516	64.9843
1512	65.0169
1508	65.155
1504	65.2196
1500	65.1483
1496	64.9934
1492	64.9425
1488	65.0026
1484	64.9878
1480	64.9967
1476	65.0519
1472	65.0557
1468	64.9695
1464	64.953
1460	65.1897
1456	65.226
1452	64.7819
1448	64.5041
1444	64.5967
1440	64.729
1436	64.8261
1432	64.9067
1428	64.9878
1424	65.0188
1420	65.0479
1416	65.1009
1412	65.1281
1408	65.1808
1404	65.1494
1400	65.0851
1396	65.1155
1392	65.0873
1388	65.0205
1384	64.9956
1380	65.0923
1376	65.2127
1372	65.0877
1368	64.8808
1364	64.8146
1360	64.8497
1356	64.9068
1352	64.982
1348	65.0804
1344	65.1248
1340	65.1388
1336	65.0684
1332	64.9001
1328	64.8394
1324	64.9003
1320	64.9064
1316	64.8293
1312	64.8236
1308	64.91
1304	64.9656
1300	65.0073
1296	65.0252
1292	64.9461
1288	64.8771
1284	65.0001
1280	65.1855
1276	65.1315
1272	64.9059
1268	64.7879
1264	64.8609
1260	64.9699
1256	64.9726
1252	64.9514
1248	64.9376
1244	64.877
1240	64.8575
1236	64.8824
1232	64.8415
1228	64.7849
1224	64.7996
1220	64.8279
1216	64.8579
1212	64.947
1208	65.0291
1204	64.9824
1200	64.8021
1196	64.6535
1192	64.6448
1188	64.7373
1184	64.8207
1180	64.8538
1176	64.8201
1172	64.7384
1168	64.6616
1164	64.5748
1160	64.5545
1156	64.6624
1152	64.7397
1148	64.6966
1144	64.6965
1140	64.7352
1136	64.6757
1132	64.6303
1128	64.6371
1124	64.6677
1120	64.7898
1116	64.9304
1112	65.0314
1108	65.1333
1104	65.1641
1100	65.0432
1096	64.8221
1092	64.642
1088	64.5187
1084	64.4999
1080	64.6807
1076	64.7802
1072	64.6279
1068	64.5534
1064	64.6774
1060	64.7822
1056	64.8416
1052	64.8822
1048	64.8915
1044	64.9012
1040	64.8033
1036	64.6207
1032	64.5731
1028	64.6213
1024	64.6487
1020	64.7982
1016	65.0823
1012	65.1413
1008	64.9456
1004	64.9167
1000	64.8839
996	 64.6662
992	 64.6244
988	 64.6329
984	 64.4253
980	 64.3019
976	 64.3854
972	 64.45
968	 64.4747
964	 64.5016
960	 64.7472
956	 65.0154
952	 64.9367
948	 64.909
944	 64.9922
940	 64.8641
936	 64.5284
932	 64.351
928	 64.6444
924	 64.9436
920	 64.8894
916	 64.7698
912	 64.6114
908	 64.3266
904	 64.1359
900	 64.2455
896	 64.6356
892	 64.7686
888	 64.5532
884	 64.4685
880	 64.4155
876	 64.3082
872	 64.2038
868	 64.1974
864	 64.2296
860	 64.1226
856	 63.9786
852	 63.9916
848	 64.2383
844	 64.3196
840	 64.2058
836	 64.2873
832	 64.3997
828	 64.3406
824	 64.2467
820	 64.23
816	 64.0827
812	 63.8373
808	 63.9508
804	 64.2564
800	 64.2418
796	 63.9031
792	 63.7044
788	 63.9938
784	 64.2441
780	 64.1683
776	 64.1157
772	 64.0762
768	 63.9795
764	 63.9283
760	 64.1509
756	 64.2017
752	 63.5459
748	 62.9154
744	 62.8893
740	 63.2167
736	 63.6206
732	 63.9275
728	 63.9422
724	 63.9375
720	 64.0393
716	 63.8341
712	 63.5352
708	 63.3328
704	 63.2411
700	 63.5636
696	 63.9281
692	 63.8872
688	 63.5201
684	 63.1812
680	 63.2037
676	 63.2034
672	 63.1426
668	 63.2981
664	 63.4414
660	 63.5374
656	 63.5329
652	 63.3204
648	 63.026
644	 62.8213
640	 62.8996
636	 63.0788
632	 63.2075
628	 63.4287
624	 63.4608
620	 63.1107
616	 62.5496
612	 62.0264
608	 62.0618
604	 62.6983
600	 63.0213
596	 62.7838
592	 62.7222
588	 62.7973
584	 62.7287
580	 62.8313
576	 62.7046
572	 62.161
568	 61.9775
564	 62.2312
560	 62.2588
556	 61.8696
552	 61.7187
548	 61.9648
544	 62.0059
540	 61.9988
536	 61.9833
532	 61.7377
528	 61.6343
524	 61.5402
520	 61.5259
516	 61.617
512	 61.2552
508	 60.8956
504	 60.9336
500	 61.0231
496	 60.77
492	 60.1191
488	 59.6249
484	 59.8196
480	 60.7329
476	 61.5497
472	 61.679
468	 61.621
464	 61.146
460	 59.8291
456	 59.057
452	 59.3575
448	 59.193
444	 58.7403
440	 59.304
436	 60.4743
432	 61.6
428	 61.8912
424	 61.0807
420	 58.4932
416	 51.6946
412	 46.2411
408	 50.7226
404	 60.265
400	 66.5354
396	 64.4786
392	 48.6353
388	 33.4181
384	 35.7234
380	 46.7288
376	 55.3223
372	 51.1587
370	 44.6348