File: Bakgrunnsmateriale/MATLAB/FTIR/ftir_data/subBb/Mapping_121/C-4040-8_t100.asc
PE IR       SPECTRUM    SPECTRUM    ASCII       PEDS        1.60
  -1
C-8CB6~1.ASC
17/03/27
22:42:47.00
17/03/27
22:43:14.00
tln
$C-4040-8_t0100$<tbV0>[13.0,10.4,8.0,0.0,27,1,0]
27.028
64

2002,4.07
MIRTGS : RIGHTBACK : INTERNAL 2
MIR : ON : INTERNAL 2
OPTKBR

0.200000
8
8.000000
FILLER
RATIO
SPECTRUM
UNLOCKED 256

DOUBLE
64
COMBINED
1
0
0

0.002000
RATIO

1
0
TRUE
51149
0
LEFT NOT FITTED RIGHT NOT FITTED 0
NONE
NONE
15600
12
4.427000
51148
TRUE
1 0 8 72 0 0 0 0

15798

#HDR
-1
-1
#GR
µM
%T
2.38419e-05
0.0
2.000000
0.002000
12515
8
185.842
49.7641
#DATA
2.000000	 64.9681
2.018000	 65.7969
2.036000	 64.6959
2.054000	 64.9644
2.072000	 64.3623
2.090000	 65.2216
2.108000	 65.0571
2.126000	 65.0053
2.144000	 65.6449
2.162000	 65.1054
2.180000	 65.1661
2.198000	 65.0051
2.216000	 63.9766
2.234000	 64.4311
2.252000	 64.2043
2.270000	 63.8815
2.288000	 66.1918
2.306000	 63.456
2.324000	 64.1372
2.342000	 64.7021
2.360000	 64.7801
2.378000	 64.7337
2.396000	 65.9353
2.414000	 65.1421
2.432000	 65.0144
2.450000	 65.1659
2.468000	 65.0863
2.486000	 65.4369
2.504000	 65.2639
2.522000	 65.2574
2.540000	 64.9929
2.558000	 65.2064
2.576000	 65.0978
2.594000	 65.063
2.612000	 64.6367
2.630000	 65.0445
2.648000	 65.2981
2.666000	 65.1724
2.684000	 65.4861
2.702000	 65.201
2.720000	 65.3113
2.738000	 65.321
2.756000	 65.1784
2.774000	 65.0621
2.792000	 65.2447
2.810000	 65.5025
2.828000	 65.1925
2.846000	 65.4393
2.864000	 65.12
2.882000	 65.6682
2.900000	 65.1089
2.918000	 65.2835
2.936000	 65.1581
2.954000	 64.9463
2.972000	 64.9903
2.990000	 65.3686
3.008000	 65.3017
3.026000	 65.126
3.044000	 65.1431
3.062000	 65.2152
3.080000	 65.0856
3.098000	 65.0038
3.116000	 65.3197
3.134000	 64.893
3.152000	 65.2544
3.170000	 65.3923
3.188000	 65.2766
3.206000	 65.5976
3.224000	 65.3382
3.242000	 65.1644
3.260000	 65.2066
3.278000	 65.2591
3.296000	 65.4632
3.314000	 65.3431
3.332000	 65.3597
3.350000	 65.1157
3.368000	 65.2432
3.386000	 65.1688
3.404000	 65.2304
3.422000	 65.0272
3.440000	 65.005
3.458000	 65.1545
3.476000	 65.2233
3.494000	 65.2878
3.512000	 65.2263
3.530000	 65.3627
3.548000	 65.3449
3.566000	 65.2371
3.584000	 65.3673
3.602000	 65.3141
3.620000	 65.2228
3.638000	 65.2502
3.656000	 65.2948
3.674000	 65.3719
3.692000	 65.2677
3.710000	 65.2492
3.728000	 65.2771
3.746000	 65.4484
3.764000	 65.3959
3.782000	 65.2564
3.800000	 65.2797
3.818000	 65.2749
3.836000	 65.37
3.854000	 65.3037
3.872000	 65.4437
3.890000	 65.2892
3.908000	 65.3024
3.926000	 65.3132
3.944000	 65.3763
3.962000	 65.2565
3.980000	 65.2926
3.998000	 65.4113
4.016000	 65.5048
4.034000	 65.3942
4.052000	 65.1632
4.070000	 65.3291
4.088000	 65.3624
4.106000	 65.2287
4.124000	 65.4702
4.141999	 65.3346
4.160000	 65.2646
4.178000	 65.3868
4.196000	 65.2796
4.214000	 65.3046
4.232000	 65.3644
4.250000	 65.3829
4.268000	 65.2712
4.286000	 65.3878
4.304000	 65.4648
4.322000	 65.3782
4.340000	 65.3557
4.358000	 65.3598
4.375999	 65.3568
4.394000	 65.4412
4.412000	 65.3483
4.430000	 65.3775
4.448000	 65.3232
4.466000	 65.2248
4.484000	 65.3583
4.502000	 65.3899
4.520000	 65.3766
4.538000	 65.365
4.556000	 65.2767
4.574000	 65.3763
4.592000	 65.4455
4.609999	 65.3457
4.628000	 65.3836
4.646000	 65.3219
4.664000	 65.158
4.682000	 65.366
4.700000	 65.2853
4.718000	 65.4485
4.736000	 65.5815
4.754000	 65.4004
4.772000	 65.2616
4.790000	 65.3696
4.808000	 65.3723
4.826000	 65.6151
4.843999	 65.5251
4.862000	 65.0401
4.880000	 65.1283
4.898000	 65.3648
4.916000	 65.3145
4.934000	 65.4201
4.952000	 65.4451
4.970000	 65.4334
4.988000	 65.4545
5.006000	 65.3778
5.024000	 65.2474
5.042000	 65.3504
5.060000	 65.3222
5.077999	 65.4453
5.096000	 65.4333
5.114000	 65.3358
5.132000	 65.324
5.150000	 65.3352
5.168000	 65.454
5.186000	 65.4853
5.204000	 65.4316
5.222000	 65.2894
5.240000	 65.2301
5.258000	 65.4457
5.276000	 65.4471
5.294000	 65.3922
5.312000	 65.4423
5.330000	 65.4859
5.348000	 65.4726
5.366000	 65.4435
5.384000	 65.3923
5.402000	 65.4767
5.420000	 65.479
5.438000	 65.4401
5.456000	 65.3792
5.474000	 65.4377
5.492000	 65.3641
5.510000	 65.2865
5.528000	 65.3278
5.546000	 65.3577
5.564000	 65.2794
5.582000	 65.2272
5.600000	 65.2848
5.618000	 65.3881
5.636000	 65.3001
5.654000	 65.3684
5.672000	 65.2759
5.690000	 65.1517
5.708000	 65.1228
5.726000	 65.1527
5.744000	 65.2056
5.762000	 65.0901
5.780000	 64.9761
5.798000	 65.049
5.816000	 65.238
5.834000	 65.3714
5.852000	 65.4591
5.870000	 65.3658
5.888000	 65.2928
5.906000	 65.3468
5.923999	 65.3625
5.942000	 65.2805
5.960000	 65.2398
5.978000	 65.3065
5.996000	 65.3561
6.014000	 65.3352
6.032000	 65.3254
6.050000	 65.2825
6.068000	 65.2158
6.086000	 65.2107
6.104000	 65.2426
6.122000	 65.2373
6.140000	 65.216
6.158000	 65.2259
6.176000	 65.2395
6.194000	 65.1919
6.212000	 65.1824
6.230000	 65.1744
6.248000	 65.0921
6.266000	 65.1134
6.284000	 65.2563
6.302000	 65.3086
6.320000	 65.2927
6.338000	 65.2995
6.356000	 65.2689
6.374000	 65.2119
6.392000	 65.1579
6.410000	 65.1178
6.428000	 65.0871
6.446000	 65.1147
6.464000	 65.1686
6.482000	 65.277
6.500000	 65.2923
6.518000	 65.1947
6.536000	 65.1558
6.554000	 65.155
6.572000	 65.1881
6.590000	 65.2293
6.608000	 65.1853
6.626000	 65.1194
6.644000	 65.1345
6.662000	 65.2059
6.680000	 65.2915
6.698000	 65.2836
6.716000	 65.1885
6.734000	 65.15
6.752000	 65.1491
6.770000	 65.1637
6.788000	 65.2297
6.806000	 65.259
6.824000	 65.2248
6.842000	 65.1969
6.860000	 65.1536
6.878000	 65.1079
6.896000	 65.1449
6.914000	 65.2425
6.932000	 65.243
6.950000	 65.114
6.968000	 64.9758
6.986000	 64.932
7.004000	 65.0382
7.022000	 65.2184
7.040000	 65.3453
7.058000	 65.3958
7.076000	 65.4244
7.094000	 65.4874
7.112000	 65.4991
7.130000	 65.376
7.148000	 65.228
7.166000	 65.1376
7.184000	 65.0932
7.202000	 65.1194
7.220000	 65.1967
7.238000	 65.2314
7.256000	 65.1966
7.274000	 65.1722
7.292000	 65.1805
7.310000	 65.1641
7.328000	 65.1299
7.346000	 65.1395
7.364000	 65.1914
7.382000	 65.2264
7.400000	 65.2239
7.418000	 65.2209
7.436000	 65.203
7.454000	 65.116
7.472000	 65.0063
7.490000	 64.9714
7.508000	 65.0205
7.526000	 65.1017
7.544000	 65.1557
7.562000	 65.1378
7.580000	 65.0524
7.598000	 64.9426
7.616000	 64.8631
7.634000	 64.8724
7.652000	 64.9826
7.670000	 65.1196
7.688000	 65.1949
7.706000	 65.1934
7.724000	 65.1563
7.742000	 65.1243
7.760000	 65.1164
7.778000	 65.1353
7.796000	 65.1758
7.814000	 65.2145
7.832000	 65.2094
7.850000	 65.1418
7.868000	 65.0407
7.886000	 64.9482
7.904000	 64.8979
7.922000	 64.9224
7.940000	 65.0176
7.958000	 65.1135
7.976000	 65.1423
7.994000	 65.1132
8.012000	 65.0776
8.030000	 65.0585
8.048000	 65.0415
8.065999	 65.0185
8.084000	 65.0084
8.102000	 65.0254
8.120000	 65.0557
8.138000	 65.0779
8.155999	 65.0873
8.173999	 65.0931
8.192000	 65.1065
8.210000	 65.1341
8.228000	 65.1641
8.246000	 65.1699
8.263999	 65.1376
8.282000	 65.0808
8.300000	 65.0217
8.318000	 64.9745
8.336000	 64.9517
8.353999	 64.9689
8.372000	 65.0264
8.390000	 65.0918
8.408000	 65.1201
8.426000	 65.0996
8.443999	 65.0668
8.462000	 65.0666
8.480000	 65.1008
8.498000	 65.1331
8.516000	 65.139
8.533999	 65.1331
8.552000	 65.1401
8.570000	 65.1591
8.588000	 65.1671
8.606000	 65.1454
8.624000	 65.0939
8.641999	 65.0249
8.660000	 64.9534
8.678000	 64.8945
8.696000	 64.8642
8.714000	 64.8779
8.731999	 64.9428
8.750000	 65.044
8.768000	 65.1389
8.786000	 65.1763
8.804000	 65.1289
8.821999	 65.0197
8.840000	 64.9127
8.858000	 64.8698
8.876000	 64.9069
8.894000	 64.9947
8.911999	 65.0922
8.930000	 65.1691
8.948000	 65.2016
8.966000	 65.1725
8.984000	 65.0947
9.001999	 65.0204
9.020000	 65.0046
9.038000	 65.0558
9.056000	 65.1319
9.074000	 65.1784
9.092000	 65.1635
9.109999	 65.0852
9.128000	 64.9655
9.146000	 64.8447
9.164000	 64.7665
9.182000	 64.7482
9.199999	 64.7656
9.218000	 64.7756
9.236000	 64.7504
9.254000	 64.6956
9.272000	 64.6397
9.289999	 64.6121
9.308000	 64.6253
9.326000	 64.6704
9.344000	 64.7249
9.362000	 64.7664
9.379999	 64.7864
9.398000	 64.7887
9.416000	 64.7783
9.434000	 64.7607
9.452000	 64.7497
9.469999	 64.7716
9.488000	 64.8495
9.506000	 64.9791
9.524000	 65.1221
9.542000	 65.2257
9.560000	 65.2523
9.577999	 65.1935
9.596000	 65.0659
9.614000	 64.9057
9.632000	 64.7608
9.650000	 64.6704
9.667999	 64.642
9.686000	 64.6516
9.704000	 64.6674
9.722000	 64.6738
9.740000	 64.6769
9.757999	 64.69
9.776000	 64.715
9.794000	 64.7373
9.812000	 64.7375
9.830000	 64.7091
9.847999	 64.6645
9.866000	 64.6246
9.884000	 64.6043
9.902000	 64.6031
9.920000	 64.6112
9.937999	 64.6213
9.956000	 64.6368
9.974000	 64.6659
9.992000	 64.7089
10.01	64.7538
10.028	64.7867
10.046	64.8072
10.064	64.8331
10.082	64.8865
10.1	64.9746
10.118	65.0771
10.136	65.1543
10.154	65.1706
10.172	65.1159
10.19	65.0127
10.208	64.9029
10.226	64.8231
10.244	64.7903
10.262	64.7984
10.28	64.8288
10.298	64.8634
10.316	64.8904
10.334	64.9052
10.352	64.9066
10.37	64.8962
10.388	64.879
10.406	64.8613
10.424	64.8468
10.442	64.8335
10.46	64.819
10.478	64.8064
10.496	64.8043
10.514	64.8196
10.532	64.8503
10.55	64.8822
10.568	64.8982
10.586	64.8912
10.604	64.8704
10.622	64.8548
10.64	64.8607
10.658	64.8913
10.676	64.9385
10.694	64.9919
10.712	65.0442
10.73	65.0928
10.748	65.1333
10.766	65.1626
10.784	65.1837
10.802	65.2105
10.82	65.2613
10.838	65.3474
10.856	65.4575
10.874	65.5535
10.892	65.5892
10.91	65.5305
10.928	65.3819
10.946	65.1859
10.964	65.0003
10.982	64.8698
11	64.7991
11.018	64.7561
11.036	64.6964
11.054	64.5915
11.072	64.4504
11.09	64.3157
11.108	64.2334
11.126	64.2306
11.144	64.2989
11.162	64.4003
11.18	64.494
11.198	64.5556
11.216	64.5871
11.234	64.6075
11.252	64.6358
11.27	64.676
11.288	64.7161
11.306	64.7392
11.324	64.7351
11.342	64.7085
11.36	64.6778
11.378	64.6635
11.396	64.6753
11.414	64.708
11.432	64.7448
11.45	64.7679
11.468	64.7661
11.486	64.7414
11.504	64.7061
11.522	64.6774
11.54	64.6685
11.558	64.6856
11.576	64.7249
11.594	64.7762
11.612	64.8272
11.63	64.869
11.648	64.8998
11.666	64.9219
11.684	64.9391
11.702	64.9509
11.72	64.9511
11.738	64.9283
11.756	64.8719
11.774	64.7765
11.792	64.6461
11.81	64.495
11.828	64.3427
11.846	64.21
11.864	64.1116
11.882	64.0557
11.9	64.0448
11.918	64.0783
11.936	64.1529
11.954	64.2627
11.972	64.3966
11.99	64.5375
12.008	64.6641
12.026	64.7554
12.044	64.7944
12.062	64.7746
12.08	64.7021
12.098	64.5929
12.116	64.4685
12.134	64.3496
12.152	64.2515
12.17	64.1823
12.188	64.1454
12.206	64.1405
12.224	64.1652
12.242	64.216
12.26	64.2879
12.278	64.3742
12.296	64.4677
12.314	64.5605
12.332	64.6454
12.35	64.715
12.368	64.7625
12.386	64.7822
12.404	64.7727
12.422	64.7375
12.44	64.6855
12.458	64.6293
12.476	64.5834
12.494	64.5594
12.512	64.5631
12.53	64.5921
12.548	64.6365
12.566	64.6826
12.584	64.7156
12.602	64.7251
12.62	64.7071
12.638	64.6647
12.656	64.606
12.674	64.5412
12.692	64.4795
12.71	64.4275
12.728	64.3887
12.746	64.3641
12.764	64.3518
12.782	64.3485
12.8	64.3497
12.818	64.3516
12.836	64.3516
12.854	64.3496
12.872	64.3465
12.89	64.3457
12.908	64.3511
12.926	64.3661
12.944	64.3915
12.962	64.4255
12.98	64.4628
12.998	64.4958
13.016	64.5154
13.034	64.5128
13.052	64.4821
13.07	64.4217
13.088	64.3354
13.106	64.2327
13.124	64.127
13.142	64.0337
13.16	63.9673
13.178	63.9386
13.196	63.9531
13.214	64.0089
13.232	64.0977
13.25	64.2055
13.268	64.3156
13.286	64.4105
13.304	64.4752
13.322	64.499
13.34	64.4772
13.358	64.4115
13.376	64.3087
13.394	64.1801
13.412	64.039
13.43	63.8989
13.448	63.7717
13.466	63.6666
13.484	63.5894
13.502	63.5421
13.52	63.524
13.538	63.5317
13.556	63.5608
13.574	63.6065
13.592	63.6643
13.61	63.7296
13.628	63.7979
13.646	63.8643
13.664	63.9239
13.682	63.9716
13.7	64.0035
13.718	64.0171
13.736	64.0122
13.754	63.9918
13.772	63.9604
13.79	63.9244
13.808	63.8895
13.826	63.8608
13.844	63.8412
13.862	63.8313
13.88	63.8299
13.898	63.8348
13.916	63.8434
13.934	63.8538
13.952	63.8655
13.97	63.8791
13.988	63.8959
14.006	63.9173
14.024	63.9434
14.042	63.9734
14.06	64.0048
14.078	64.0342
14.096	64.0578
14.114	64.0727
14.132	64.0772
14.15	64.0713
14.168	64.0567
14.186	64.0365
14.204	64.0139
14.222	63.9924
14.24	63.9742
14.258	63.961
14.276	63.9529
14.294	63.9496
14.312	63.9509
14.33	63.9569
14.348	63.9682
14.366	63.9856
14.384	64.0103
14.402	64.043
14.42	64.0832
14.438	64.1293
14.456	64.1782
14.474	64.2263
14.492	64.2692
14.51	64.3028
14.528	64.3241
14.546	64.3314
14.564	64.3247
14.582	64.3049
14.6	64.2743
14.618	64.2359
14.636	64.1929
14.654	64.1481
14.672	64.1041
14.69	64.063
14.708	64.0263
14.726	63.9954
14.744	63.9707
14.762	63.9529
14.78	63.9416
14.798	63.9361
14.816	63.9347
14.834	63.935
14.852	63.9337
14.87	63.9274
14.888	63.9129
14.906	63.8877
14.924	63.8499
14.942	63.7992
14.96	63.7365
14.978	63.6639
14.996	63.5839
15.014	63.4997
15.032	63.4145
15.05	63.3313
15.068	63.2528
15.086	63.1811
15.104	63.1181
15.122	63.0653
15.14	63.0237
15.158	62.9939
15.176	62.9764
15.194	62.9711
15.212	62.9777
15.23	62.9955
15.248	63.0237
15.266	63.0614
15.284	63.1068
15.302	63.1583
15.32	63.2139
15.338	63.2715
15.356	63.3287
15.374	63.3829
15.392	63.4323
15.41	63.4751
15.428	63.51
15.446	63.5359
15.464	63.5532
15.482	63.5622
15.5	63.5639
15.518	63.5601
15.536	63.5525
15.554	63.5426
15.572	63.5325
15.59	63.5234
15.608	63.5155
15.626	63.5091
15.644	63.5035
15.662	63.4975
15.68	63.4902
15.698	63.4807
15.716	63.4682
15.734	63.4528
15.752	63.4352
15.77	63.4164
15.788	63.398
15.806	63.3816
15.824	63.3686
15.842	63.3601
15.86	63.357
15.878	63.3591
15.896	63.3661
15.914	63.3769
15.932	63.39
15.95	63.4039
15.968	63.4169
15.986	63.4272
16.004	63.4338
16.022	63.4358
16.04	63.4321
16.058	63.4229
16.076	63.4084
16.094	63.389
16.112	63.3664
16.13	63.3418
16.148	63.3167
16.166	63.2933
16.184	63.2733
16.202	63.2588
16.22	63.2519
16.238	63.2535
16.256	63.2646
16.274	63.2852
16.292	63.3138
16.31	63.3493
16.328	63.3884
16.346	63.4277
16.364	63.4647
16.382	63.4947
16.4	63.5152
16.418	63.5241
16.436	63.5195
16.454	63.502
16.472	63.472
16.49	63.4319
16.508	63.3846
16.526	63.3322
16.544	63.2787
16.562	63.2266
16.58	63.1778
16.598	63.1344
16.616	63.0963
16.634	63.0637
16.652	63.0354
16.67	63.0102
16.688	62.9867
16.706	62.963
16.724	62.9385
16.742	62.9122
16.76	62.8842
16.778	62.8547
16.796	62.8249
16.814	62.7957
16.832	62.768
16.85	62.7434
16.868	62.7221
16.886	62.7045
16.904	62.6908
16.922	62.6804
16.94	62.6727
16.958	62.667
16.976	62.6629
16.994	62.6596
17.012	62.6572
17.03	62.6557
17.048	62.6556
17.066	62.6576
17.084	62.6625
17.102	62.6717
17.12	62.6855
17.138	62.7054
17.156	62.7315
17.174	62.7645
17.192	62.8038
17.21	62.8488
17.228	62.8983
17.246	62.9504
17.264	63.004
17.282	63.0563
17.3	63.1059
17.318	63.1504
17.336	63.188
17.354	63.2175
17.372	63.2373
17.39	63.2472
17.408	63.247
17.426	63.2374
17.444	63.219
17.462	63.1942
17.48	63.1638
17.498	63.1307
17.516	63.0967
17.534	63.0635
17.552	63.0342
17.57	63.0097
17.588	62.992
17.606	62.9815
17.624	62.9788
17.642	62.9833
17.66	62.995
17.678	63.0119
17.696	63.0336
17.714	63.0581
17.732	63.0845
17.75	63.1117
17.768	63.1391
17.786	63.1661
17.804	63.1929
17.822	63.2195
17.84	63.2462
17.858	63.2734
17.876	63.3014
17.894	63.33
17.912	63.3592
17.93	63.3877
17.948	63.4149
17.966	63.4383
17.984	63.4568
18.002	63.4678
18.02	63.4693
18.038	63.4596
18.056	63.4365
18.074	63.3992
18.092	63.3469
18.11	63.2796
18.128	63.1986
18.146	63.1048
18.164	63.001
18.182	62.8897
18.2	62.7742
18.218	62.6584
18.236	62.5448
18.254	62.4385
18.272	62.3409
18.29	62.2568
18.308	62.1865
18.326	62.1332
18.344	62.0969
18.362	62.0788
18.38	62.0781
18.398	62.0941
18.416	62.1253
18.434	62.1703
18.452	62.226
18.47	62.291
18.488	62.3609
18.506	62.4343
18.524	62.5064
18.542	62.5763
18.56	62.6387
18.578	62.6932
18.596	62.7358
18.614	62.7663
18.632	62.7822
18.65	62.7836
18.668	62.7703
18.686	62.7428
18.704	62.7025
18.722	62.6501
18.74	62.5887
18.758	62.519
18.776	62.4447
18.794	62.3667
18.812	62.2884
18.83	62.2106
18.848	62.1362
18.866	62.0655
18.884	62.0003
18.902	61.9406
18.92	61.8874
18.938	61.8403
18.956	61.7993
18.974	61.7642
18.992	61.7344
19.01	61.7099
19.028	61.69
19.046	61.6748
19.064	61.6641
19.082	61.6579
19.1	61.6564
19.118	61.6597
19.136	61.6682
19.154	61.6821
19.172	61.7014
19.19	61.7262
19.208	61.7564
19.226	61.7917
19.244	61.8316
19.262	61.8758
19.28	61.923
19.298	61.9732
19.316	62.0246
19.334	62.0774
19.352	62.1293
19.37	62.1807
19.388	62.23
19.406	62.2773
19.424	62.3213
19.442	62.3621
19.46	62.3989
19.478	62.4316
19.496	62.4598
19.514	62.4832
19.532	62.5013
19.55	62.5138
19.568	62.5204
19.586	62.5205
19.604	62.5144
19.622	62.5016
19.64	62.4825
19.658	62.4574
19.676	62.4264
19.694	62.3907
19.712	62.3503
19.73	62.3077
19.748	62.2624
19.766	62.2179
19.784	62.1742
19.802	62.134
19.82	62.0987
19.838	62.0694
19.856	62.0486
19.874	62.036
19.892	62.0335
19.91	62.0407
19.928	62.0577
19.946	62.0846
19.964	62.1193
19.982	62.1621
20	62.2101
20.018	62.2623
20.036	62.3172
20.054	62.3716
20.072	62.4258
20.09	62.4761
20.108	62.523
20.126	62.5645
20.144	62.6002
20.162	62.6302
20.18	62.6539
20.198	62.6722
20.216	62.686
20.234	62.6955
20.252	62.7028
20.27	62.7076
20.288	62.7122
20.306	62.7167
20.324	62.7218
20.342	62.7283
20.36	62.7357
20.378	62.7443
20.396	62.7539
20.414	62.7624
20.432	62.7702
20.45	62.775
20.468	62.7762
20.486	62.7727
20.504	62.7615
20.522	62.7434
20.54	62.7157
20.558	62.6785
20.576	62.631
20.594	62.5725
20.612	62.5036
20.63	62.4246
20.648	62.3357
20.666	62.2395
20.684	62.1354
20.702	62.0266
20.72	61.9147
20.738	61.8003
20.756	61.6882
20.774	61.5771
20.792	61.4715
20.81	61.3719
20.828	61.2794
20.846	61.197
20.864	61.1238
20.882	61.062
20.9	61.0116
20.918	60.9724
20.936	60.9448
20.954	60.9284
20.972	60.9216
20.99	60.9252
21.008	60.9365
21.026	60.9549
21.044	60.9796
21.062	61.0074
21.08	61.0394
21.098	61.0718
21.116	61.1042
21.134	61.1356
21.152	61.163
21.17	61.1874
21.188	61.2061
21.206	61.2188
21.224	61.2253
21.242	61.2242
21.26	61.2159
21.278	61.2002
21.296	61.1766
21.314	61.1457
21.332	61.1082
21.35	61.0636
21.368	61.0139
21.386	60.9591
21.404	60.9
21.422	60.8392
21.44	60.7758
21.458	60.7123
21.476	60.6497
21.494	60.588
21.512	60.5301
21.53	60.475
21.548	60.4248
21.566	60.381
21.584	60.3431
21.602	60.3128
21.62	60.2903
21.638	60.2758
21.656	60.2701
21.674	60.273
21.692	60.284
21.71	60.3034
21.728	60.3307
21.746	60.3642
21.764	60.4047
21.782	60.4501
21.8	60.499
21.818	60.552
21.836	60.6059
21.854	60.6608
21.872	60.7157
21.89	60.7678
21.908	60.8181
21.926	60.8645
21.944	60.9054
21.962	60.9416
21.98	60.9713
21.998	60.9942
22.016	61.0104
22.034	61.0194
22.052	61.0212
22.07	61.0163
22.088	61.005
22.106	60.987
22.124	60.9639
22.142	60.9358
22.16	60.903
22.178	60.8673
22.196	60.8283
22.214	60.7869
22.232	60.7445
22.25	60.7005
22.268	60.6561
22.286	60.612
22.304	60.5678
22.322	60.5246
22.34	60.4827
22.358	60.4419
22.376	60.4022
22.394	60.3639
22.412	60.3265
22.43	60.2895
22.448	60.2532
22.466	60.2168
22.484	60.1799
22.502	60.1429
22.52	60.1048
22.538	60.0655
22.556	60.0252
22.574	59.9825
22.592	59.9375
22.61	59.8901
22.628	59.8389
22.646	59.7844
22.664	59.7259
22.682	59.6624
22.7	59.5942
22.718	59.521
22.736	59.442
22.754	59.3575
22.772	59.2676
22.79	59.172
22.808	59.0706
22.826	58.9646
22.844	58.8546
22.862	58.7403
22.88	58.623
22.898	58.503
22.916	58.3801
22.934	58.257
22.952	58.1339
22.97	58.0106
22.988	57.8919
23.006	57.7778
23.024	57.6684
23.042	57.5689
23.06	57.4797
23.078	57.4003
23.096	57.3343
23.114	57.2817
23.132	57.2422
23.15	57.2179
23.168	57.2087
23.186	57.2144
23.204	57.2363
23.222	57.275
23.24	57.3294
23.258	57.3978
23.276	57.4816
23.294	57.5789
23.312	57.6854
23.33	57.803
23.348	57.9295
23.366	58.0582
23.384	58.1911
23.402	58.3261
23.42	58.4546
23.438	58.5773
23.456	58.6939
23.474	58.7966
23.492	58.8845
23.51	58.9588
23.528	59.0155
23.546	59.0535
23.564	59.074
23.582	59.075
23.6	59.0554
23.618	59.0161
23.636	58.9578
23.654	58.8804
23.672	58.784
23.69	58.6697
23.708	58.5381
23.726	58.3887
23.744	58.2227
23.762	58.041
23.78	57.8431
23.798	57.6297
23.816	57.4018
23.834	57.1588
23.852	56.9015
23.87	56.631
23.888	56.3465
23.906	56.0492
23.924	55.741
23.942	55.4211
23.96	55.0902
23.978	54.7523
23.996	54.4081
24.014	54.0562
24.032	53.7023
24.05	53.3494
24.068	52.9936
24.086	52.6423
24.104	52.3019
24.122	51.9674
24.14	51.6443
24.158	51.3409
24.176	51.053
24.194	50.7838
24.212	50.5432
24.23	50.3323
24.248	50.1483
24.266	49.9985
24.284	49.8861
24.302	49.8069
24.32	49.7673
24.338	49.7736
24.356	49.8225
24.374	49.9153
24.392	50.0551
24.41	50.2408
24.428	50.4725
24.446	50.753
24.464	51.0826
24.482	51.4594
24.5	51.8884
24.518	52.3738
24.536	52.9126
24.554	53.5063
24.572	54.1581
24.59	54.87
24.608	55.6386
24.626	56.4597
24.644	57.3335
24.662	58.2629
24.68	59.2355
24.698	60.2406
24.716	61.286
24.734	62.3649
24.752	63.4647
24.77	64.5911
24.788	65.7436
24.806	66.8971
24.824	68.0372
24.842	69.1844
24.86	70.3106
24.878	71.3822
24.896	72.4163
24.914	73.4055
24.932	74.3098
24.95	75.1119
24.968	75.8389
24.986	76.4524
25.004	76.9116
25.022	77.2322
25.04	77.4126
25.058	77.4289
25.076	77.2659
25.094	76.9357
25.112	76.443
25.13	75.7908
25.148	74.9623
25.166	73.9781
25.184	72.8732
25.202	71.6538
25.22	70.2938
25.238	68.8533
25.256	67.3933
25.274	65.877
25.292	64.3215
25.31	62.7942
25.328	61.3313
25.346	59.8863
25.364	58.5061
25.382	57.2459
25.4	56.0998
25.418	55.0551
25.436	54.1374
25.454	53.3688
25.472	52.7431
25.49	52.2479
25.508	51.8722
25.526	51.6188
25.544	51.4915
25.562	51.4688
25.58	51.5307
25.598	51.694
25.616	51.9481
25.634	52.2657
25.652	52.6312
25.67	53.0644
25.688	53.5468
25.706	54.056
25.724	54.5913
25.742	55.1612
25.76	55.75
25.778	56.344
25.796	56.9613
25.814	57.5884
25.832	58.1967
25.85	58.7679
25.868	59.3236
25.886	59.8479
25.904	60.3192
25.922	60.742
25.94	61.1293
25.958	61.4417
25.976	61.6394
25.994	61.7276
26.012	61.7175
26.03	61.5986
26.048	61.3585
26.066	60.9794
26.084	60.4924
26.102	59.9388
26.12	59.3336
26.138	58.6225
26.156	57.8799
26.174	57.195
26.192	56.5699
26.21	55.9325
26.228	55.423
26.246	55.1881
26.264	55.2075
26.282	55.4236
26.3	55.9664
26.318	56.963
26.336	58.3709
26.354	60.167
26.372	62.421
26.39	65.1996
26.408	68.5001
26.426	72.2849
26.444	76.5255
26.462	81.2098
26.48	86.4276
26.498	92.0737
26.516	97.9956
26.534	104.098
26.552	110.555
26.57	117.214
26.588	123.858
26.606	130.369
26.624	136.951
26.642	143.437
26.66	149.606
26.678	155.341
26.696	160.83
26.714	165.942
26.732	170.507
26.75	174.431
26.768	177.831
26.786	180.673
26.804	182.909
26.822	184.497
26.84	185.456
26.858	185.833
26.876	185.671
26.894	184.97
26.912	183.666
26.93	181.872
26.948	179.712
26.966	177.063
26.984	173.551
27.002	169.939
27.02	167.064
27.028	166.323