File: Bakgrunnsmateriale/MATLAB/FTIR/ftir_data/subBb/Mapping_121/C-4040-8_t111.asc
PE IR       SPECTRUM    SPECTRUM    ASCII       PEDS        1.60
  -1
C-80C8~1.ASC
17/03/27
23:39:47.00
17/03/27
23:40:13.00
tln
$C-4040-8_t0111$<tbV0>[13.0,13.0,8.0,0.0,27,1,0]
27.028
64

2002,4.07
MIRTGS : RIGHTBACK : INTERNAL 2
MIR : ON : INTERNAL 2
OPTKBR

0.200000
8
8.000000
FILLER
RATIO
SPECTRUM
UNLOCKED 256

DOUBLE
64
COMBINED
1
0
0

0.002000
RATIO

1
0
TRUE
51149
0
LEFT NOT FITTED RIGHT NOT FITTED 0
NONE
NONE
15600
12
4.427000
51148
TRUE
1 0 8 72 0 0 0 0

15798

#HDR
-1
-1
#GR
µM
%T
2.38419e-05
0.0
2.000000
0.002000
12515
8
117.454
51.8179
#DATA
2.000000	 62.6936
2.018000	 62.0831
2.036000	 62.9297
2.054000	 62.5515
2.072000	 62.3435
2.090000	 62.8682
2.108000	 62.8805
2.126000	 63.1755
2.144000	 63.0675
2.162000	 63.0304
2.180000	 63.0799
2.198000	 62.8525
2.216000	 62.4047
2.234000	 62.7209
2.252000	 62.4196
2.270000	 72.9714
2.288000	 62.9758
2.306000	 63.1359
2.324000	 63.3012
2.342000	 62.4018
2.360000	 62.4991
2.378000	 62.8568
2.396000	 62.5892
2.414000	 62.841
2.432000	 63.1823
2.450000	 63.4412
2.468000	 63.1881
2.486000	 62.8645
2.504000	 62.8932
2.522000	 62.9678
2.540000	 62.833
2.558000	 62.9895
2.576000	 63.3243
2.594000	 63.0064
2.612000	 62.7806
2.630000	 62.9628
2.648000	 63.2353
2.666000	 63.0138
2.684000	 63.1112
2.702000	 63.094
2.720000	 63.1884
2.738000	 63.1416
2.756000	 63.0361
2.774000	 63.2129
2.792000	 62.8776
2.810000	 63.2919
2.828000	 62.9941
2.846000	 63.1276
2.864000	 62.9793
2.882000	 63.1543
2.900000	 63.0372
2.918000	 62.9574
2.936000	 63.2962
2.954000	 63.298
2.972000	 63.1127
2.990000	 63.34
3.008000	 63.2667
3.026000	 63.0579
3.044000	 63.1018
3.062000	 63.1709
3.080000	 63.0748
3.098000	 62.9607
3.116000	 63.0349
3.134000	 63.1697
3.152000	 63.2022
3.170000	 63.3427
3.188000	 63.409
3.206000	 63.1721
3.224000	 63.4824
3.242000	 63.2819
3.260000	 63.3933
3.278000	 62.9913
3.296000	 63.1927
3.314000	 63.151
3.332000	 63.1229
3.350000	 62.9895
3.368000	 62.9093
3.386000	 63.021
3.404000	 62.9443
3.422000	 62.8153
3.440000	 62.903
3.458000	 63.0057
3.476000	 63.1789
3.494000	 62.9564
3.512000	 63.1624
3.530000	 63.2322
3.548000	 63.1305
3.566000	 63.2184
3.584000	 63.2489
3.602000	 63.2133
3.620000	 63.1641
3.638000	 63.2373
3.656000	 63.1149
3.674000	 63.1662
3.692000	 63.1469
3.710000	 63.147
3.728000	 63.2528
3.746000	 63.2963
3.764000	 63.1554
3.782000	 63.2654
3.800000	 63.2067
3.818000	 63.2898
3.836000	 63.3296
3.854000	 63.573
3.872000	 63.4152
3.890000	 63.2911
3.908000	 63.3967
3.926000	 63.4986
3.944000	 63.3297
3.962000	 63.3415
3.980000	 63.3085
3.998000	 63.047
4.016000	 63.2047
4.034000	 63.3251
4.052000	 63.2927
4.070000	 63.4406
4.088000	 63.2115
4.106000	 63.4048
4.124000	 63.0871
4.141999	 63.2783
4.160000	 63.0969
4.178000	 63.3912
4.196000	 63.3944
4.214000	 63.5831
4.232000	 63.5267
4.250000	 63.4534
4.268000	 63.4696
4.286000	 63.464
4.304000	 63.3079
4.322000	 63.3796
4.340000	 63.4691
4.358000	 63.4855
4.375999	 63.3222
4.394000	 63.2915
4.412000	 63.3383
4.430000	 63.2022
4.448000	 63.2208
4.466000	 63.1697
4.484000	 63.1167
4.502000	 63.107
4.520000	 63.2899
4.538000	 63.3605
4.556000	 63.4162
4.574000	 63.3883
4.592000	 63.3034
4.609999	 63.3307
4.628000	 63.4761
4.646000	 63.3901
4.664000	 63.2733
4.682000	 63.4809
4.700000	 63.2914
4.718000	 63.3723
4.736000	 63.4477
4.754000	 63.6546
4.772000	 63.526
4.790000	 63.3892
4.808000	 63.4332
4.826000	 63.8802
4.843999	 64.1765
4.862000	 63.3022
4.880000	 63.0125
4.898000	 63.333
4.916000	 63.3478
4.934000	 63.3428
4.952000	 63.3639
4.970000	 63.3207
4.988000	 63.2678
5.006000	 63.2873
5.024000	 63.3361
5.042000	 63.4582
5.060000	 63.3556
5.077999	 63.2861
5.096000	 63.2869
5.114000	 63.2662
5.132000	 63.2715
5.150000	 63.2474
5.168000	 63.3307
5.186000	 63.3305
5.204000	 63.316
5.222000	 63.3945
5.240000	 63.4992
5.258000	 63.4709
5.276000	 63.4114
5.294000	 63.4533
5.312000	 63.4691
5.330000	 63.4959
5.348000	 63.3809
5.366000	 63.3075
5.384000	 63.3376
5.402000	 63.4584
5.420000	 63.3629
5.438000	 63.3593
5.456000	 63.4348
5.474000	 63.4203
5.492000	 63.3546
5.510000	 63.311
5.528000	 63.3897
5.546000	 63.4116
5.564000	 63.4618
5.582000	 63.3081
5.600000	 63.3091
5.618000	 63.4078
5.636000	 63.4323
5.654000	 63.3942
5.672000	 63.3632
5.690000	 63.2981
5.708000	 63.2568
5.726000	 63.1561
5.744000	 62.9771
5.762000	 62.9795
5.780000	 63.0642
5.798000	 62.9883
5.816000	 62.9339
5.834000	 63.2806
5.852000	 63.422
5.870000	 63.4102
5.888000	 63.3688
5.906000	 63.4218
5.923999	 63.3659
5.942000	 63.3176
5.960000	 63.269
5.978000	 63.2064
5.996000	 63.2873
6.014000	 63.3133
6.032000	 63.1942
6.050000	 63.1639
6.068000	 63.2067
6.086000	 63.1603
6.104000	 63.1928
6.122000	 63.3044
6.140000	 63.3383
6.158000	 63.377
6.176000	 63.3618
6.194000	 63.3352
6.212000	 63.3527
6.230000	 63.3301
6.248000	 63.3446
6.266000	 63.3332
6.284000	 63.2346
6.302000	 63.1893
6.320000	 63.2663
6.338000	 63.2683
6.356000	 63.1565
6.374000	 63.1674
6.392000	 63.2003
6.410000	 63.2272
6.428000	 63.274
6.446000	 63.2413
6.464000	 63.2239
6.482000	 63.2538
6.500000	 63.2164
6.518000	 63.2548
6.536000	 63.3691
6.554000	 63.3442
6.572000	 63.2226
6.590000	 63.1445
6.608000	 63.1715
6.626000	 63.239
6.644000	 63.2729
6.662000	 63.2822
6.680000	 63.2681
6.698000	 63.2776
6.716000	 63.3024
6.734000	 63.2338
6.752000	 63.1304
6.770000	 63.081
6.788000	 63.0469
6.806000	 63.0479
6.824000	 63.0725
6.842000	 63.0834
6.860000	 63.1442
6.878000	 63.1338
6.896000	 62.9613
6.914000	 62.9091
6.932000	 63.0633
6.950000	 63.206
6.968000	 63.2848
6.986000	 63.3788
7.004000	 63.4366
7.022000	 63.38
7.040000	 63.2728
7.058000	 63.1802
7.076000	 63.1273
7.094000	 63.2121
7.112000	 63.3984
7.130000	 63.454
7.148000	 63.3791
7.166000	 63.3645
7.184000	 63.381
7.202000	 63.3321
7.220000	 63.2426
7.238000	 63.141
7.256000	 63.1081
7.274000	 63.2166
7.292000	 63.3382
7.310000	 63.3318
7.328000	 63.2686
7.346000	 63.272
7.364000	 63.3494
7.382000	 63.4351
7.400000	 63.468
7.418000	 63.4118
7.436000	 63.2767
7.454000	 63.1561
7.472000	 63.1566
7.490000	 63.2627
7.508000	 63.3537
7.526000	 63.3503
7.544000	 63.2921
7.562000	 63.2578
7.580000	 63.2521
7.598000	 63.2358
7.616000	 63.2143
7.634000	 63.2009
7.652000	 63.1643
7.670000	 63.1029
7.688000	 63.0615
7.706000	 63.0435
7.724000	 63.0285
7.742000	 63.0227
7.760000	 63.0295
7.778000	 63.0458
7.796000	 63.0839
7.814000	 63.1241
7.832000	 63.1101
7.850000	 63.0301
7.868000	 62.9321
7.886000	 62.8625
7.904000	 62.8384
7.922000	 62.8591
7.940000	 62.9087
7.958000	 62.9677
7.976000	 63.0204
7.994000	 63.0391
8.012000	 62.9842
8.030000	 62.8428
8.048000	 62.6636
8.065999	 62.5297
8.084000	 62.5001
8.102000	 62.5698
8.120000	 62.6729
8.138000	 62.7331
8.155999	 62.7341
8.173999	 62.7362
8.192000	 62.7918
8.210000	 62.8683
8.228000	 62.8897
8.246000	 62.8402
8.263999	 62.7751
8.282000	 62.7475
8.300000	 62.7624
8.318000	 62.7976
8.336000	 62.8314
8.353999	 62.8503
8.372000	 62.8558
8.390000	 62.8681
8.408000	 62.9031
8.426000	 62.9444
8.443999	 62.9539
8.462000	 62.9122
8.480000	 62.8429
8.498000	 62.7933
8.516000	 62.7889
8.533999	 62.8131
8.552000	 62.8288
8.570000	 62.8137
8.588000	 62.7707
8.606000	 62.7116
8.624000	 62.6451
8.641999	 62.5828
8.660000	 62.5482
8.678000	 62.5637
8.696000	 62.6305
8.714000	 62.7266
8.731999	 62.8248
8.750000	 62.9063
8.768000	 62.9608
8.786000	 62.9828
8.804000	 62.9724
8.821999	 62.9345
8.840000	 62.8733
8.858000	 62.7976
8.876000	 62.7276
8.894000	 62.6839
8.911999	 62.6707
8.930000	 62.6803
8.948000	 62.7129
8.966000	 62.7832
8.984000	 62.8975
9.001999	 63.0352
9.020000	 63.1589
9.038000	 63.2261
9.056000	 63.1924
9.074000	 63.0369
9.092000	 62.8038
9.109999	 62.5947
9.128000	 62.4958
9.146000	 62.5084
9.164000	 62.5639
9.182000	 62.6041
9.199999	 62.6224
9.218000	 62.6319
9.236000	 62.6262
9.254000	 62.5916
9.272000	 62.5385
9.289999	 62.5004
9.308000	 62.5045
9.326000	 62.5457
9.344000	 62.5909
9.362000	 62.606
9.379999	 62.5763
9.398000	 62.5165
9.416000	 62.4619
9.434000	 62.4471
9.452000	 62.4815
9.469999	 62.5404
9.488000	 62.5853
9.506000	 62.5912
9.524000	 62.562
9.542000	 62.5199
9.560000	 62.485
9.577999	 62.4674
9.596000	 62.4692
9.614000	 62.4856
9.632000	 62.5025
9.650000	 62.4994
9.667999	 62.4624
9.686000	 62.3958
9.704000	 62.3243
9.722000	 62.2841
9.740000	 62.3057
9.757999	 62.3957
9.776000	 62.5262
9.794000	 62.6381
9.812000	 62.6677
9.830000	 62.5879
9.847999	 62.4322
9.866000	 62.2771
9.884000	 62.1943
9.902000	 62.2106
9.920000	 62.3012
9.937999	 62.4137
9.956000	 62.5025
9.974000	 62.5458
9.992000	 62.5439
10.01	62.5097
10.028	62.4604
10.046	62.415
10.064	62.3912
10.082	62.4018
10.1	62.4512
10.118	62.5315
10.136	62.6205
10.154	62.6866
10.172	62.7008
10.19	62.6516
10.208	62.5548
10.226	62.4448
10.244	62.3604
10.262	62.3286
10.28	62.3517
10.298	62.4113
10.316	62.4761
10.334	62.5177
10.352	62.5214
10.37	62.4901
10.388	62.4413
10.406	62.3964
10.424	62.3707
10.442	62.3676
10.46	62.3831
10.478	62.4111
10.496	62.4473
10.514	62.4872
10.532	62.523
10.55	62.544
10.568	62.5427
10.586	62.5191
10.604	62.4803
10.622	62.4389
10.64	62.4042
10.658	62.38
10.676	62.3653
10.694	62.3576
10.712	62.3552
10.73	62.3575
10.748	62.3616
10.766	62.3637
10.784	62.3608
10.802	62.3529
10.82	62.3439
10.838	62.3405
10.856	62.3501
10.874	62.3787
10.892	62.4273
10.91	62.4918
10.928	62.5635
10.946	62.6322
10.964	62.6892
10.982	62.7262
11	62.7341
11.018	62.7031
11.036	62.6248
11.054	62.4971
11.072	62.3314
11.09	62.1545
11.108	61.9998
11.126	61.8984
11.144	61.8618
11.162	61.8781
11.18	61.9201
11.198	61.9562
11.216	61.9653
11.234	61.9435
11.252	61.9017
11.27	61.858
11.288	61.8324
11.306	61.8373
11.324	61.8767
11.342	61.9461
11.36	62.035
11.378	62.1285
11.396	62.2134
11.414	62.2806
11.432	62.3284
11.45	62.3628
11.468	62.3926
11.486	62.4214
11.504	62.4471
11.522	62.4617
11.54	62.4552
11.558	62.4219
11.576	62.3605
11.594	62.2731
11.612	62.1642
11.63	62.0424
11.648	61.9212
11.666	61.8191
11.684	61.7579
11.702	61.755
11.72	61.8176
11.738	61.9368
11.756	62.0899
11.774	62.2461
11.792	62.3792
11.81	62.4775
11.828	62.5456
11.846	62.601
11.864	62.6638
11.882	62.7455
11.9	62.8455
11.918	62.9496
11.936	63.0358
11.954	63.0829
11.972	63.075
11.99	63.0082
12.008	62.8904
12.026	62.7389
12.044	62.5765
12.062	62.4246
12.08	62.2984
12.098	62.2055
12.116	62.1455
12.134	62.1114
12.152	62.0934
12.17	62.0833
12.188	62.0775
12.206	62.0759
12.224	62.0815
12.242	62.0972
12.26	62.1227
12.278	62.1532
12.296	62.1806
12.314	62.1959
12.332	62.1921
12.35	62.1661
12.368	62.1198
12.386	62.0596
12.404	61.9963
12.422	61.9422
12.44	61.9082
12.458	61.9011
12.476	61.9227
12.494	61.9677
12.512	62.0257
12.53	62.0819
12.548	62.1211
12.566	62.1326
12.584	62.1116
12.602	62.0615
12.62	61.9937
12.638	61.9248
12.656	61.8722
12.674	61.8499
12.692	61.8644
12.71	61.9139
12.728	61.9883
12.746	62.0721
12.764	62.1489
12.782	62.2047
12.8	62.2317
12.818	62.2291
12.836	62.2017
12.854	62.1585
12.872	62.1095
12.89	62.0636
12.908	62.0264
12.926	61.9996
12.944	61.9823
12.962	61.9705
12.98	61.9595
12.998	61.9445
13.016	61.9227
13.034	61.8941
13.052	61.8611
13.07	61.8282
13.088	61.8013
13.106	61.7864
13.124	61.7877
13.142	61.8071
13.16	61.8427
13.178	61.8905
13.196	61.9439
13.214	61.9966
13.232	62.0437
13.25	62.083
13.268	62.1152
13.286	62.1433
13.304	62.1717
13.322	62.2041
13.34	62.242
13.358	62.2847
13.376	62.3288
13.394	62.3695
13.412	62.4018
13.43	62.4215
13.448	62.4261
13.466	62.4156
13.484	62.3917
13.502	62.3573
13.52	62.3154
13.538	62.2687
13.556	62.2187
13.574	62.166
13.592	62.1106
13.61	62.0527
13.628	61.9933
13.646	61.9337
13.664	61.8763
13.682	61.8239
13.7	61.7795
13.718	61.7455
13.736	61.7242
13.754	61.7157
13.772	61.7191
13.79	61.7319
13.808	61.7503
13.826	61.7698
13.844	61.7857
13.862	61.7939
13.88	61.7914
13.898	61.7766
13.916	61.7492
13.934	61.711
13.952	61.6648
13.97	61.6144
13.988	61.5637
14.006	61.5171
14.024	61.4785
14.042	61.4512
14.06	61.4377
14.078	61.4392
14.096	61.456
14.114	61.4871
14.132	61.5302
14.15	61.5814
14.168	61.6358
14.186	61.6878
14.204	61.7317
14.222	61.7629
14.24	61.7786
14.258	61.7783
14.276	61.7646
14.294	61.7423
14.312	61.7176
14.33	61.6967
14.348	61.685
14.366	61.6863
14.384	61.7005
14.402	61.7243
14.42	61.7512
14.438	61.7733
14.456	61.7827
14.474	61.7722
14.492	61.7373
14.51	61.677
14.528	61.5946
14.546	61.4959
14.564	61.3889
14.582	61.2818
14.6	61.1826
14.618	61.0978
14.636	61.031
14.654	60.9835
14.672	60.9542
14.69	60.941
14.708	60.9413
14.726	60.9523
14.744	60.9726
14.762	61.001
14.78	61.0375
14.798	61.0825
14.816	61.1361
14.834	61.1987
14.852	61.2688
14.87	61.3437
14.888	61.4198
14.906	61.4929
14.924	61.5583
14.942	61.6115
14.96	61.649
14.978	61.6691
14.996	61.6715
15.014	61.6569
15.032	61.6285
15.05	61.59
15.068	61.5455
15.086	61.4988
15.104	61.4537
15.122	61.4132
15.14	61.3797
15.158	61.3544
15.176	61.3382
15.194	61.3314
15.212	61.3338
15.23	61.3444
15.248	61.3616
15.266	61.3833
15.284	61.4066
15.302	61.428
15.32	61.4441
15.338	61.4515
15.356	61.4465
15.374	61.4267
15.392	61.3914
15.41	61.3413
15.428	61.2782
15.446	61.2067
15.464	61.1321
15.482	61.0596
15.5	60.9955
15.518	60.9464
15.536	60.9163
15.554	60.9076
15.572	60.9214
15.59	60.9554
15.608	61.0055
15.626	61.0667
15.644	61.1323
15.662	61.194
15.68	61.2461
15.698	61.2836
15.716	61.3018
15.734	61.2997
15.752	61.2782
15.77	61.2393
15.788	61.1881
15.806	61.1303
15.824	61.0708
15.842	61.0159
15.86	60.9712
15.878	60.9396
15.896	60.9238
15.914	60.9247
15.932	60.9412
15.95	60.9719
15.968	61.0137
15.986	61.063
16.004	61.1167
16.022	61.1717
16.04	61.2242
16.058	61.272
16.076	61.313
16.094	61.3449
16.112	61.3666
16.13	61.3773
16.148	61.3759
16.166	61.3624
16.184	61.3373
16.202	61.3009
16.22	61.2555
16.238	61.2033
16.256	61.1468
16.274	61.0905
16.292	61.0379
16.31	60.992
16.328	60.9574
16.346	60.9364
16.364	60.9311
16.382	60.9427
16.4	60.9704
16.418	61.0133
16.436	61.0682
16.454	61.131
16.472	61.1988
16.49	61.2656
16.508	61.3271
16.526	61.3803
16.544	61.4203
16.562	61.4455
16.58	61.4545
16.598	61.4463
16.616	61.422
16.634	61.3821
16.652	61.3297
16.67	61.2669
16.688	61.1961
16.706	61.1213
16.724	61.0442
16.742	60.9675
16.76	60.8935
16.778	60.8232
16.796	60.7583
16.814	60.6996
16.832	60.6474
16.85	60.6024
16.868	60.5645
16.886	60.5337
16.904	60.5101
16.922	60.4938
16.94	60.485
16.958	60.4841
16.976	60.4915
16.994	60.5071
17.012	60.531
17.03	60.5633
17.048	60.6032
17.066	60.6502
17.084	60.7034
17.102	60.7608
17.12	60.8214
17.138	60.8824
17.156	60.9419
17.174	60.9982
17.192	61.0485
17.21	61.0922
17.228	61.1276
17.246	61.1548
17.264	61.1736
17.282	61.1855
17.3	61.1915
17.318	61.1941
17.336	61.1956
17.354	61.1976
17.372	61.2033
17.39	61.2135
17.408	61.2299
17.426	61.2524
17.444	61.2811
17.462	61.314
17.48	61.3499
17.498	61.3859
17.516	61.4192
17.534	61.4475
17.552	61.4672
17.57	61.4774
17.588	61.4752
17.606	61.4607
17.624	61.4333
17.642	61.3944
17.66	61.3444
17.678	61.2868
17.696	61.2226
17.714	61.1557
17.732	61.0879
17.75	61.0214
17.768	60.9586
17.786	60.9004
17.804	60.848
17.822	60.8015
17.84	60.7612
17.858	60.7267
17.876	60.6979
17.894	60.6742
17.912	60.6554
17.93	60.6416
17.948	60.6326
17.966	60.6287
17.984	60.63
18.002	60.6368
18.02	60.6492
18.038	60.6673
18.056	60.6905
18.074	60.7187
18.092	60.7507
18.11	60.7863
18.128	60.8239
18.146	60.8628
18.164	60.9014
18.182	60.9389
18.2	60.974
18.218	61.006
18.236	61.0345
18.254	61.0592
18.272	61.08
18.29	61.0971
18.308	61.1106
18.326	61.1212
18.344	61.1288
18.362	61.134
18.38	61.1368
18.398	61.1373
18.416	61.1354
18.434	61.1308
18.452	61.1231
18.47	61.1118
18.488	61.0965
18.506	61.0773
18.524	61.0536
18.542	61.0254
18.56	60.9932
18.578	60.957
18.596	60.9177
18.614	60.8753
18.632	60.8311
18.65	60.7854
18.668	60.7396
18.686	60.694
18.704	60.6499
18.722	60.6076
18.74	60.5686
18.758	60.5333
18.776	60.503
18.794	60.4783
18.812	60.4607
18.83	60.4505
18.848	60.4492
18.866	60.4568
18.884	60.4743
18.902	60.5013
18.92	60.5379
18.938	60.5829
18.956	60.6354
18.974	60.6937
18.992	60.7559
19.01	60.8197
19.028	60.8822
19.046	60.9413
19.064	60.9933
19.082	61.037
19.1	61.0686
19.118	61.0879
19.136	61.0923
19.154	61.0824
19.172	61.0575
19.19	61.0188
19.208	60.9679
19.226	60.906
19.244	60.8369
19.262	60.7613
19.28	60.6845
19.298	60.6063
19.316	60.5321
19.334	60.4615
19.352	60.3983
19.37	60.3422
19.388	60.2942
19.406	60.2545
19.424	60.2216
19.442	60.1959
19.46	60.1749
19.478	60.1584
19.496	60.1441
19.514	60.1311
19.532	60.1182
19.55	60.1044
19.568	60.0894
19.586	60.0724
19.604	60.0538
19.622	60.0337
19.64	60.0125
19.658	59.9912
19.676	59.9698
19.694	59.9495
19.712	59.9301
19.73	59.9128
19.748	59.8977
19.766	59.8847
19.784	59.8741
19.802	59.8657
19.82	59.8595
19.838	59.8553
19.856	59.8528
19.874	59.852
19.892	59.8527
19.91	59.855
19.928	59.8589
19.946	59.8645
19.964	59.8725
19.982	59.8828
20	59.8965
20.018	59.914
20.036	59.9356
20.054	59.9624
20.072	59.994
20.09	60.0308
20.108	60.0729
20.126	60.1194
20.144	60.1707
20.162	60.2248
20.18	60.2817
20.198	60.3397
20.216	60.3969
20.234	60.453
20.252	60.5043
20.27	60.5516
20.288	60.5915
20.306	60.624
20.324	60.6478
20.342	60.6615
20.36	60.6654
20.378	60.6587
20.396	60.6417
20.414	60.6151
20.432	60.5785
20.45	60.534
20.468	60.482
20.486	60.4236
20.504	60.3611
20.522	60.2941
20.54	60.226
20.558	60.1564
20.576	60.0872
20.594	60.0195
20.612	59.9533
20.63	59.8904
20.648	59.8304
20.666	59.7739
20.684	59.7211
20.702	59.6716
20.72	59.6254
20.738	59.5823
20.756	59.5417
20.774	59.5038
20.792	59.4676
20.81	59.4328
20.828	59.3997
20.846	59.3681
20.864	59.3382
20.882	59.3113
20.9	59.2868
20.918	59.2666
20.936	59.2518
20.954	59.2422
20.972	59.2405
20.99	59.2459
21.008	59.2603
21.026	59.2845
21.044	59.3182
21.062	59.3623
21.08	59.4166
21.098	59.4802
21.116	59.5534
21.134	59.6349
21.152	59.7222
21.17	59.8162
21.188	59.9134
21.206	60.0136
21.224	60.1156
21.242	60.2162
21.26	60.3166
21.278	60.4141
21.296	60.5082
21.314	60.5988
21.332	60.6848
21.35	60.7663
21.368	60.8437
21.386	60.9167
21.404	60.9858
21.422	61.052
21.44	61.1149
21.458	61.1757
21.476	61.2349
21.494	61.2925
21.512	61.3491
21.53	61.4047
21.548	61.4591
21.566	61.5124
21.584	61.5645
21.602	61.6136
21.62	61.6603
21.638	61.7034
21.656	61.7416
21.674	61.7757
21.692	61.8032
21.71	61.8235
21.728	61.8368
21.746	61.8416
21.764	61.8384
21.782	61.8262
21.8	61.8044
21.818	61.7732
21.836	61.7334
21.854	61.6849
21.872	61.6281
21.89	61.5639
21.908	61.4918
21.926	61.413
21.944	61.3282
21.962	61.2371
21.98	61.1409
21.998	61.0396
22.016	60.9335
22.034	60.8235
22.052	60.7094
22.07	60.5918
22.088	60.4714
22.106	60.3479
22.124	60.2225
22.142	60.0952
22.16	59.9664
22.178	59.8377
22.196	59.7086
22.214	59.5804
22.232	59.4552
22.25	59.332
22.268	59.213
22.286	59.0995
22.304	58.9906
22.322	58.8889
22.34	58.7946
22.358	58.7076
22.376	58.6291
22.394	58.559
22.412	58.497
22.43	58.443
22.448	58.3974
22.466	58.3587
22.484	58.3263
22.502	58.3007
22.52	58.2797
22.538	58.2625
22.556	58.2495
22.574	58.2386
22.592	58.2294
22.61	58.2222
22.628	58.2155
22.646	58.2097
22.664	58.2043
22.682	58.1985
22.7	58.1922
22.718	58.1856
22.736	58.1783
22.754	58.1702
22.772	58.1623
22.79	58.1552
22.808	58.1484
22.826	58.1437
22.844	58.1421
22.862	58.143
22.88	58.1477
22.898	58.1569
22.916	58.17
22.934	58.188
22.952	58.2114
22.97	58.2398
22.988	58.2729
23.006	58.3111
23.024	58.3541
23.042	58.4009
23.06	58.4517
23.078	58.5063
23.096	58.5632
23.114	58.6226
23.132	58.6841
23.15	58.7463
23.168	58.8091
23.186	58.8725
23.204	58.9352
23.222	58.9974
23.24	59.059
23.258	59.1191
23.276	59.1778
23.294	59.2351
23.312	59.2899
23.33	59.3423
23.348	59.3922
23.366	59.4395
23.384	59.484
23.402	59.5259
23.42	59.5656
23.438	59.603
23.456	59.6384
23.474	59.6723
23.492	59.7046
23.51	59.7355
23.528	59.7659
23.546	59.7962
23.564	59.8261
23.582	59.8557
23.6	59.8854
23.618	59.915
23.636	59.9437
23.654	59.9717
23.672	59.9992
23.69	60.0244
23.708	60.0464
23.726	60.0662
23.744	60.0819
23.762	60.0917
23.78	60.0968
23.798	60.0959
23.816	60.0872
23.834	60.0712
23.852	60.0481
23.87	60.0174
23.888	59.9778
23.906	59.9315
23.924	59.8819
23.942	59.8269
23.96	59.768
23.978	59.7132
23.996	59.6634
24.014	59.6161
24.032	59.5818
24.05	59.566
24.068	59.5626
24.086	59.5817
24.104	59.6325
24.122	59.7077
24.14	59.8152
24.158	59.9669
24.176	60.1595
24.194	60.3938
24.212	60.6777
24.23	61.0135
24.248	61.3981
24.266	61.8329
24.284	62.3205
24.302	62.8612
24.32	63.4471
24.338	64.0725
24.356	64.7469
24.374	65.4557
24.392	66.1787
24.41	66.9245
24.428	67.6881
24.446	68.4425
24.464	69.1792
24.482	69.9113
24.5	70.613
24.518	71.263
24.536	71.8769
24.554	72.4424
24.572	72.9402
24.59	73.3723
24.608	73.7416
24.626	74.0393
24.644	74.2589
24.662	74.4042
24.68	74.481
24.698	74.493
24.716	74.4303
24.734	74.3076
24.752	74.1463
24.77	73.9425
24.788	73.6939
24.806	73.4275
24.824	73.1607
24.842	72.8747
24.86	72.5904
24.878	72.334
24.896	72.0989
24.914	71.8844
24.932	71.7071
24.95	71.5776
24.968	71.4878
24.986	71.4384
25.004	71.4314
25.022	71.4718
25.04	71.5526
25.058	71.6625
25.076	71.7994
25.094	71.9708
25.112	72.1594
25.13	72.348
25.148	72.5486
25.166	72.754
25.184	72.944
25.202	73.1097
25.22	73.263
25.238	73.3913
25.256	73.4808
25.274	73.5353
25.292	73.556
25.31	73.5379
25.328	73.4759
25.346	73.3715
25.364	73.2301
25.382	73.0571
25.4	72.8487
25.418	72.6066
25.436	72.34
25.454	72.0557
25.472	71.7462
25.49	71.4183
25.508	71.0814
25.526	70.7387
25.544	70.3856
25.562	70.0249
25.58	69.6597
25.598	69.2915
25.616	68.9174
25.634	68.5335
25.652	68.1389
25.67	67.7383
25.688	67.3237
25.706	66.8862
25.724	66.4258
25.742	65.9462
25.76	65.44
25.778	64.9003
25.796	64.3304
25.814	63.7305
25.832	63.0976
25.85	62.4277
25.868	61.7182
25.886	60.9794
25.904	60.2223
25.922	59.4436
25.94	58.6366
25.958	57.8255
25.976	57.034
25.994	56.2422
26.012	55.4563
26.03	54.7152
26.048	54.051
26.066	53.4264
26.084	52.8658
26.102	52.4169
26.12	52.1075
26.138	51.8969
26.156	51.8179
26.174	51.9133
26.192	52.1968
26.21	52.6391
26.228	53.2667
26.246	54.1078
26.264	55.1693
26.282	56.4358
26.3	57.9065
26.318	59.5808
26.336	61.4766
26.354	63.5795
26.372	65.8545
26.39	68.2713
26.408	70.8734
26.426	73.6319
26.444	76.4823
26.462	79.3746
26.48	82.3778
26.498	85.4441
26.516	88.489
26.534	91.4551
26.552	94.4226
26.57	97.3361
26.588	100.113
26.606	102.701
26.624	105.17
26.642	107.479
26.66	109.568
26.678	111.402
26.696	113.029
26.714	114.426
26.732	115.563
26.75	116.421
26.768	117.016
26.786	117.357
26.804	117.453
26.822	117.303
26.84	116.891
26.858	116.25
26.876	115.414
26.894	114.391
26.912	113.148
26.93	111.728
26.948	110.181
26.966	108.432
26.984	106.294
27.002	104.167
27.02	102.487
27.028	102.047