File: Bakgrunnsmateriale/MATLAB/FTIR/ftir_data/subBb/Mapping_121/C-4040-8_t13.asc
PE IR       SPECTRUM    SPECTRUM    ASCII       PEDS        1.60
  -1
C-A926~1.ASC
17/03/27
15:31:33.00
17/03/27
15:31:59.00
tln
$C-4040-8_t0013$<tbV0>[10.4,-10.4,8.0,0.0,27,1,0]
27.028
64

2002,4.07
MIRTGS : RIGHTBACK : INTERNAL 2
MIR : ON : INTERNAL 2
OPTKBR

0.200000
8
8.000000
FILLER
RATIO
SPECTRUM
UNLOCKED 256

DOUBLE
64
COMBINED
1
0
0

0.002000
RATIO

1
0
TRUE
51149
0
LEFT NOT FITTED RIGHT NOT FITTED 0
NONE
NONE
15600
12
4.427000
51148
TRUE
1 0 8 72 0 0 0 0

15798

#HDR
-1
-1
#GR
µM
%T
2.38419e-05
0.0
2.000000
0.002000
12515
8
77.2942
31.798
#DATA
2.000000	 63.8203
2.018000	 62.9891
2.036000	 64.166
2.054000	 64.1086
2.072000	 64.1212
2.090000	 64.1036
2.108000	 64.3222
2.126000	 64.3677
2.144000	 64.099
2.162000	 64.0783
2.180000	 63.8779
2.198000	 63.5311
2.216000	 63.5466
2.234000	 63.5986
2.252000	 66.3885
2.270000	 61.1339
2.288000	 65.7995
2.306000	 63.1203
2.324000	 63.3368
2.342000	 63.3598
2.360000	 63.5679
2.378000	 63.298
2.396000	 62.8166
2.414000	 63.1512
2.432000	 63.8328
2.450000	 63.9734
2.468000	 63.91
2.486000	 64.0079
2.504000	 63.8071
2.522000	 63.4017
2.540000	 63.395
2.558000	 63.4617
2.576000	 63.4782
2.594000	 63.7641
2.612000	 63.4637
2.630000	 63.7193
2.648000	 63.1123
2.666000	 63.7857
2.684000	 63.3818
2.702000	 63.3765
2.720000	 63.5012
2.738000	 63.3535
2.756000	 63.2808
2.774000	 63.1832
2.792000	 63.0667
2.810000	 63.2314
2.828000	 62.946
2.846000	 62.9863
2.864000	 62.7074
2.882000	 62.7579
2.900000	 62.7109
2.918000	 62.6999
2.936000	 62.6632
2.954000	 62.3337
2.972000	 62.5489
2.990000	 62.6327
3.008000	 62.3695
3.026000	 62.3095
3.044000	 62.3458
3.062000	 62.2153
3.080000	 62.1404
3.098000	 62.1916
3.116000	 62.0731
3.134000	 62.0893
3.152000	 61.9194
3.170000	 62.0214
3.188000	 61.8329
3.206000	 61.988
3.224000	 61.8543
3.242000	 61.9177
3.260000	 61.9012
3.278000	 61.7506
3.296000	 61.6667
3.314000	 61.7709
3.332000	 61.43
3.350000	 61.3921
3.368000	 61.2647
3.386000	 61.2239
3.404000	 61.3986
3.422000	 61.131
3.440000	 60.9156
3.458000	 60.9673
3.476000	 61.0206
3.494000	 61.1466
3.512000	 61.0462
3.530000	 61.0625
3.548000	 61.0383
3.566000	 60.8701
3.584000	 60.873
3.602000	 60.8682
3.620000	 60.7723
3.638000	 60.8293
3.656000	 60.7444
3.674000	 60.639
3.692000	 60.5953
3.710000	 60.6377
3.728000	 60.5245
3.746000	 60.3815
3.764000	 60.3416
3.782000	 60.2552
3.800000	 60.2846
3.818000	 60.1483
3.836000	 60.0953
3.854000	 60.081
3.872000	 60.118
3.890000	 60.0649
3.908000	 59.8943
3.926000	 59.9538
3.944000	 59.8289
3.962000	 59.8578
3.980000	 59.8475
3.998000	 59.7507
4.016000	 59.6143
4.034000	 59.6218
4.052000	 59.76
4.070000	 59.5661
4.088000	 59.5757
4.106000	 59.5556
4.124000	 59.3657
4.141999	 58.9581
4.160000	 59.2288
4.178000	 59.2238
4.196000	 59.1622
4.214000	 59.2001
4.232000	 59.2414
4.250000	 59.1604
4.268000	 59.0096
4.286000	 59.13
4.304000	 58.887
4.322000	 58.8244
4.340000	 58.9409
4.358000	 58.8742
4.375999	 58.8549
4.394000	 58.81
4.412000	 58.8675
4.430000	 58.7769
4.448000	 58.7218
4.466000	 58.5625
4.484000	 58.6261
4.502000	 58.5584
4.520000	 58.462
4.538000	 58.3447
4.556000	 58.422
4.574000	 58.308
4.592000	 58.3568
4.609999	 58.281
4.628000	 58.2571
4.646000	 58.2191
4.664000	 58.1149
4.682000	 58.0193
4.700000	 57.8835
4.718000	 57.9963
4.736000	 57.8035
4.754000	 57.8333
4.772000	 57.9065
4.790000	 57.9352
4.808000	 57.9553
4.826000	 57.8617
4.843999	 57.834
4.862000	 57.6763
4.880000	 57.6097
4.898000	 57.6494
4.916000	 57.6147
4.934000	 57.5225
4.952000	 57.4051
4.970000	 57.5595
4.988000	 57.5362
5.006000	 57.4233
5.024000	 57.4143
5.042000	 57.4539
5.060000	 57.3173
5.077999	 57.3102
5.096000	 57.3443
5.114000	 57.2849
5.132000	 57.2043
5.150000	 57.193
5.168000	 57.1361
5.186000	 57.1236
5.204000	 57.112
5.222000	 57.0575
5.240000	 56.9666
5.258000	 56.8748
5.276000	 56.9746
5.294000	 56.9458
5.312000	 56.8543
5.330000	 56.8032
5.348000	 56.712
5.366000	 56.7014
5.384000	 56.701
5.402000	 56.6032
5.420000	 56.7156
5.438000	 56.625
5.456000	 56.5902
5.474000	 56.5755
5.492000	 56.5423
5.510000	 56.6059
5.528000	 56.6202
5.546000	 56.5248
5.564000	 56.5361
5.582000	 56.6485
5.600000	 56.6132
5.618000	 56.5081
5.636000	 56.5727
5.654000	 56.5851
5.672000	 56.4789
5.690000	 56.3891
5.708000	 56.3488
5.726000	 56.3313
5.744000	 56.2656
5.762000	 56.3141
5.780000	 56.2
5.798000	 56.0865
5.816000	 56.1395
5.834000	 56.1314
5.852000	 56.0774
5.870000	 56.1855
5.888000	 56.2126
5.906000	 56.0506
5.923999	 55.987
5.942000	 55.9259
5.960000	 55.8613
5.978000	 55.9421
5.996000	 55.8961
6.014000	 55.817
6.032000	 55.9689
6.050000	 56.1554
6.068000	 55.9869
6.086000	 55.7578
6.104000	 55.7197
6.122000	 55.6857
6.140000	 55.4719
6.158000	 55.4326
6.176000	 55.5508
6.194000	 55.5448
6.212000	 55.464
6.230000	 55.4326
6.248000	 55.3675
6.266000	 55.334
6.284000	 55.3437
6.302000	 55.3748
6.320000	 55.3713
6.338000	 55.4406
6.356000	 55.4074
6.374000	 55.2353
6.392000	 55.327
6.410000	 55.5974
6.428000	 55.5697
6.446000	 55.3674
6.464000	 55.3695
6.482000	 55.5361
6.500000	 55.4903
6.518000	 55.2667
6.536000	 55.1688
6.554000	 55.2711
6.572000	 55.3772
6.590000	 55.2837
6.608000	 55.2147
6.626000	 55.354
6.644000	 55.3998
6.662000	 55.2194
6.680000	 55.0702
6.698000	 55.0475
6.716000	 55.0465
6.734000	 54.9521
6.752000	 54.8441
6.770000	 54.8774
6.788000	 54.9261
6.806000	 54.8343
6.824000	 54.7767
6.842000	 54.8663
6.860000	 54.8944
6.878000	 54.7561
6.896000	 54.682
6.914000	 54.7385
6.932000	 54.7442
6.950000	 54.7218
6.968000	 54.697
6.986000	 54.5683
7.004000	 54.4366
7.022000	 54.4501
7.040000	 54.4937
7.058000	 54.4256
7.076000	 54.3167
7.094000	 54.2828
7.112000	 54.36
7.130000	 54.4694
7.148000	 54.4633
7.166000	 54.3567
7.184000	 54.29
7.202000	 54.2745
7.220000	 54.2318
7.238000	 54.1501
7.256000	 54.0982
7.274000	 54.1275
7.292000	 54.1816
7.310000	 54.1788
7.328000	 54.1383
7.346000	 54.1215
7.364000	 54.1302
7.382000	 54.1228
7.400000	 54.0881
7.418000	 54.0661
7.436000	 54.07
7.454000	 54.0608
7.472000	 54.0225
7.490000	 53.9669
7.508000	 53.9071
7.526000	 53.8839
7.544000	 53.925
7.562000	 53.9885
7.580000	 54.0145
7.598000	 53.9767
7.616000	 53.8911
7.634000	 53.8286
7.652000	 53.8377
7.670000	 53.8633
7.688000	 53.842
7.706000	 53.8053
7.724000	 53.7958
7.742000	 53.7905
7.760000	 53.7721
7.778000	 53.7641
7.796000	 53.7639
7.814000	 53.7349
7.832000	 53.6718
7.850000	 53.6159
7.868000	 53.6072
7.886000	 53.6458
7.904000	 53.6909
7.922000	 53.7167
7.940000	 53.7438
7.958000	 53.7796
7.976000	 53.7888
7.994000	 53.7521
8.012000	 53.6977
8.030000	 53.6467
8.048000	 53.5871
8.065999	 53.5238
8.084000	 53.4956
8.102000	 53.5141
8.120000	 53.5288
8.138000	 53.5
8.155999	 53.4612
8.173999	 53.4584
8.192000	 53.4723
8.210000	 53.4623
8.228000	 53.4393
8.246000	 53.4389
8.263999	 53.4509
8.282000	 53.4319
8.300000	 53.3764
8.318000	 53.3277
8.336000	 53.3207
8.353999	 53.339
8.372000	 53.3395
8.390000	 53.3018
8.408000	 53.244
8.426000	 53.195
8.443999	 53.1632
8.462000	 53.1403
8.480000	 53.1204
8.498000	 53.099
8.516000	 53.0729
8.533999	 53.0505
8.552000	 53.051
8.570000	 53.0772
8.588000	 53.1034
8.606000	 53.1057
8.624000	 53.0897
8.641999	 53.0737
8.660000	 53.0667
8.678000	 53.0673
8.696000	 53.0677
8.714000	 53.0551
8.731999	 53.0229
8.750000	 52.9852
8.768000	 52.9694
8.786000	 52.9875
8.804000	 53.0207
8.821999	 53.0397
8.840000	 53.0331
8.858000	 53.0106
8.876000	 52.9862
8.894000	 52.9668
8.911999	 52.9566
8.930000	 52.9594
8.948000	 52.9752
8.966000	 52.9947
8.984000	 53.0027
9.001999	 52.9887
9.020000	 52.9539
9.038000	 52.9066
9.056000	 52.8485
9.074000	 52.7745
9.092000	 52.6904
9.109999	 52.6233
9.128000	 52.6074
9.146000	 52.652
9.164000	 52.7263
9.182000	 52.7796
9.199999	 52.7822
9.218000	 52.7437
9.236000	 52.6902
9.254000	 52.6313
9.272000	 52.5611
9.289999	 52.4843
9.308000	 52.4267
9.326000	 52.4123
9.344000	 52.4359
9.362000	 52.4709
9.379999	 52.5011
9.398000	 52.5345
9.416000	 52.5836
9.434000	 52.6428
9.452000	 52.6915
9.469999	 52.7152
9.488000	 52.7154
9.506000	 52.7016
9.524000	 52.6818
9.542000	 52.6632
9.560000	 52.6567
9.577999	 52.6713
9.596000	 52.7015
9.614000	 52.7255
9.632000	 52.7225
9.650000	 52.6927
9.667999	 52.6574
9.686000	 52.6393
9.704000	 52.6418
9.722000	 52.6472
9.740000	 52.6343
9.757999	 52.5967
9.776000	 52.5469
9.794000	 52.5047
9.812000	 52.4838
9.830000	 52.4875
9.847999	 52.5108
9.866000	 52.5426
9.884000	 52.5658
9.902000	 52.5637
9.920000	 52.5296
9.937999	 52.4731
9.956000	 52.4151
9.974000	 52.3743
9.992000	 52.3576
10.01	52.3599
10.028	52.3712
10.046	52.3836
10.064	52.3933
10.082	52.3972
10.1	52.3934
10.118	52.3815
10.136	52.3635
10.154	52.3415
10.172	52.3174
10.19	52.2934
10.208	52.2739
10.226	52.2657
10.244	52.2743
10.262	52.2999
10.28	52.3347
10.298	52.365
10.316	52.3753
10.334	52.3563
10.352	52.3075
10.37	52.2358
10.388	52.1526
10.406	52.0687
10.424	51.9933
10.442	51.9319
10.46	51.887
10.478	51.8575
10.496	51.8389
10.514	51.8274
10.532	51.8206
10.55	51.8192
10.568	51.8254
10.586	51.8377
10.604	51.8483
10.622	51.8462
10.64	51.8247
10.658	51.7868
10.676	51.7474
10.694	51.7239
10.712	51.7269
10.73	51.7527
10.748	51.7823
10.766	51.7884
10.784	51.75
10.802	51.6627
10.82	51.5436
10.838	51.4304
10.856	51.3635
10.874	51.3755
10.892	51.474
10.91	51.6405
10.928	51.8361
10.946	52.0114
10.964	52.123
10.982	52.1386
11	52.0442
11.018	51.8441
11.036	51.5618
11.054	51.2407
11.072	50.9359
11.09	50.7097
11.108	50.6073
11.126	50.6463
11.144	50.807
11.162	51.0346
11.18	51.2654
11.198	51.4438
11.216	51.5414
11.234	51.5596
11.252	51.5211
11.27	51.4559
11.288	51.3934
11.306	51.3528
11.324	51.3454
11.342	51.3736
11.36	51.4311
11.378	51.5014
11.396	51.5631
11.414	51.5943
11.432	51.5829
11.45	51.5337
11.468	51.4659
11.486	51.4018
11.504	51.3585
11.522	51.3409
11.54	51.3421
11.558	51.3496
11.576	51.3526
11.594	51.3467
11.612	51.3325
11.63	51.3143
11.648	51.2958
11.666	51.2781
11.684	51.2602
11.702	51.2414
11.72	51.2233
11.738	51.2083
11.756	51.1987
11.774	51.1945
11.792	51.1942
11.81	51.1948
11.828	51.1939
11.846	51.1907
11.864	51.1863
11.882	51.1825
11.9	51.1815
11.918	51.1842
11.936	51.1897
11.954	51.1957
11.972	51.1987
11.99	51.1962
12.008	51.1871
12.026	51.1729
12.044	51.1576
12.062	51.1477
12.08	51.15
12.098	51.1695
12.116	51.2069
12.134	51.2576
12.152	51.3123
12.17	51.3603
12.188	51.3921
12.206	51.4031
12.224	51.3938
12.242	51.3691
12.26	51.3355
12.278	51.2994
12.296	51.2654
12.314	51.2357
12.332	51.2106
12.35	51.1895
12.368	51.1718
12.386	51.1569
12.404	51.145
12.422	51.1361
12.44	51.1294
12.458	51.1238
12.476	51.1173
12.494	51.1083
12.512	51.0961
12.53	51.082
12.548	51.0695
12.566	51.0628
12.584	51.0665
12.602	51.0832
12.62	51.1126
12.638	51.1514
12.656	51.1943
12.674	51.2349
12.692	51.2676
12.71	51.2888
12.728	51.2977
12.746	51.2958
12.764	51.286
12.782	51.2711
12.8	51.2533
12.818	51.233
12.836	51.2091
12.854	51.1798
12.872	51.1437
12.89	51.1005
12.908	51.0519
12.926	51.0011
12.944	50.9522
12.962	50.9092
12.98	50.875
12.998	50.8501
13.016	50.8325
13.034	50.8182
13.052	50.8019
13.07	50.7791
13.088	50.7468
13.106	50.7049
13.124	50.6562
13.142	50.6062
13.16	50.5622
13.178	50.5316
13.196	50.52
13.214	50.53
13.232	50.5607
13.25	50.6074
13.268	50.6632
13.286	50.7193
13.304	50.7671
13.322	50.7995
13.34	50.812
13.358	50.8024
13.376	50.7709
13.394	50.72
13.412	50.6535
13.43	50.5764
13.448	50.4946
13.466	50.4144
13.484	50.342
13.502	50.2829
13.52	50.241
13.538	50.2183
13.556	50.2144
13.574	50.2259
13.592	50.2476
13.61	50.2725
13.628	50.2939
13.646	50.3061
13.664	50.306
13.682	50.2934
13.7	50.2712
13.718	50.2439
13.736	50.2176
13.754	50.1984
13.772	50.1907
13.79	50.1972
13.808	50.2178
13.826	50.2503
13.844	50.2904
13.862	50.3329
13.88	50.3724
13.898	50.404
13.916	50.4242
13.934	50.4315
13.952	50.4261
13.97	50.4102
13.988	50.3867
14.006	50.3594
14.024	50.3311
14.042	50.3045
14.06	50.2806
14.078	50.2597
14.096	50.241
14.114	50.2236
14.132	50.2067
14.15	50.1901
14.168	50.1742
14.186	50.1606
14.204	50.1509
14.222	50.1467
14.24	50.1493
14.258	50.1588
14.276	50.1743
14.294	50.1936
14.312	50.2136
14.33	50.2306
14.348	50.2411
14.366	50.2422
14.384	50.232
14.402	50.2102
14.42	50.1776
14.438	50.1359
14.456	50.0876
14.474	50.0354
14.492	49.9816
14.51	49.9282
14.528	49.8762
14.546	49.826
14.564	49.7776
14.582	49.7306
14.6	49.6843
14.618	49.6384
14.636	49.5921
14.654	49.5452
14.672	49.4973
14.69	49.4481
14.708	49.3979
14.726	49.3466
14.744	49.2952
14.762	49.2449
14.78	49.1974
14.798	49.1552
14.816	49.1205
14.834	49.0962
14.852	49.0846
14.87	49.0869
14.888	49.1035
14.906	49.1336
14.924	49.1754
14.942	49.2254
14.96	49.2795
14.978	49.3339
14.996	49.3848
15.014	49.4295
15.032	49.4658
15.05	49.4936
15.068	49.5138
15.086	49.5284
15.104	49.5397
15.122	49.5506
15.14	49.5633
15.158	49.5787
15.176	49.597
15.194	49.6176
15.212	49.6384
15.23	49.6572
15.248	49.6719
15.266	49.6805
15.284	49.6817
15.302	49.6756
15.32	49.663
15.338	49.6453
15.356	49.6248
15.374	49.6041
15.392	49.5849
15.41	49.5686
15.428	49.5558
15.446	49.5456
15.464	49.537
15.482	49.5285
15.5	49.5184
15.518	49.505
15.536	49.4875
15.554	49.466
15.572	49.4408
15.59	49.4137
15.608	49.3867
15.626	49.3615
15.644	49.3402
15.662	49.3241
15.68	49.3136
15.698	49.3087
15.716	49.3091
15.734	49.3134
15.752	49.3201
15.77	49.3279
15.788	49.3348
15.806	49.3395
15.824	49.3411
15.842	49.3385
15.86	49.3313
15.878	49.3191
15.896	49.3016
15.914	49.2791
15.932	49.2517
15.95	49.2198
15.968	49.184
15.986	49.1459
16.004	49.107
16.022	49.069
16.04	49.0349
16.058	49.0071
16.076	48.9875
16.094	48.979
16.112	48.9826
16.13	48.9989
16.148	49.0277
16.166	49.0667
16.184	49.1133
16.202	49.1644
16.22	49.214
16.238	49.2581
16.256	49.2927
16.274	49.3125
16.292	49.3151
16.31	49.2983
16.328	49.2613
16.346	49.206
16.364	49.1338
16.382	49.0496
16.4	48.9588
16.418	48.8654
16.436	48.7771
16.454	48.6986
16.472	48.6336
16.49	48.5867
16.508	48.5586
16.526	48.5498
16.544	48.5585
16.562	48.5811
16.58	48.6149
16.598	48.6539
16.616	48.6944
16.634	48.7327
16.652	48.764
16.67	48.7872
16.688	48.8004
16.706	48.8035
16.724	48.7972
16.742	48.783
16.76	48.7633
16.778	48.7396
16.796	48.7145
16.814	48.69
16.832	48.6672
16.85	48.6481
16.868	48.6332
16.886	48.6232
16.904	48.6184
16.922	48.6188
16.94	48.6243
16.958	48.6344
16.976	48.6489
16.994	48.6675
17.012	48.6894
17.03	48.7142
17.048	48.7409
17.066	48.7686
17.084	48.7962
17.102	48.8218
17.12	48.8446
17.138	48.8621
17.156	48.8733
17.174	48.8768
17.192	48.871
17.21	48.8557
17.228	48.8301
17.246	48.7951
17.264	48.7507
17.282	48.699
17.3	48.6408
17.318	48.5786
17.336	48.5147
17.354	48.4504
17.372	48.3886
17.39	48.3299
17.408	48.276
17.426	48.2271
17.444	48.1835
17.462	48.1448
17.48	48.1106
17.498	48.0798
17.516	48.0518
17.534	48.0259
17.552	48.0012
17.57	47.9774
17.588	47.9543
17.606	47.9325
17.624	47.9122
17.642	47.8948
17.66	47.8808
17.678	47.8715
17.696	47.8674
17.714	47.8694
17.732	47.8775
17.75	47.892
17.768	47.9118
17.786	47.9369
17.804	47.9651
17.822	47.9958
17.84	48.0267
17.858	48.0564
17.876	48.0832
17.894	48.1055
17.912	48.1225
17.93	48.133
17.948	48.1367
17.966	48.1339
17.984	48.125
18.002	48.1112
18.02	48.0939
18.038	48.0742
18.056	48.0542
18.074	48.0345
18.092	48.0173
18.11	48.0028
18.128	47.9922
18.146	47.9855
18.164	47.9829
18.182	47.9835
18.2	47.9869
18.218	47.9919
18.236	47.9978
18.254	48.003
18.272	48.0068
18.29	48.0081
18.308	48.0067
18.326	48.0017
18.344	47.9933
18.362	47.9811
18.38	47.9655
18.398	47.9468
18.416	47.9252
18.434	47.9013
18.452	47.8756
18.47	47.8484
18.488	47.8203
18.506	47.7913
18.524	47.7619
18.542	47.7324
18.56	47.7031
18.578	47.6742
18.596	47.6464
18.614	47.6197
18.632	47.5952
18.65	47.5729
18.668	47.5536
18.686	47.5375
18.704	47.5255
18.722	47.5175
18.74	47.5136
18.758	47.5133
18.776	47.5159
18.794	47.5205
18.812	47.5255
18.83	47.53
18.848	47.532
18.866	47.5303
18.884	47.5228
18.902	47.5088
18.92	47.4861
18.938	47.4547
18.956	47.4137
18.974	47.3637
18.992	47.305
19.01	47.239
19.028	47.1673
19.046	47.0915
19.064	47.0144
19.082	46.9375
19.1	46.8641
19.118	46.7951
19.136	46.7335
19.154	46.6797
19.172	46.6358
19.19	46.6015
19.208	46.5776
19.226	46.5634
19.244	46.5579
19.262	46.5606
19.28	46.5691
19.298	46.5833
19.316	46.6
19.334	46.6195
19.352	46.6389
19.37	46.6584
19.388	46.6762
19.406	46.6924
19.424	46.7066
19.442	46.7186
19.46	46.7285
19.478	46.7362
19.496	46.7425
19.514	46.7475
19.532	46.7516
19.55	46.7548
19.568	46.7576
19.586	46.7605
19.604	46.7635
19.622	46.7667
19.64	46.7704
19.658	46.7756
19.676	46.7821
19.694	46.7913
19.712	46.8028
19.73	46.8191
19.748	46.8399
19.766	46.8679
19.784	46.9034
19.802	46.9481
19.82	47.0034
19.838	47.0695
19.856	47.1479
19.874	47.2382
19.892	47.3402
19.91	47.454
19.928	47.5769
19.946	47.7097
19.964	47.8471
19.982	47.9896
20	48.1316
20.018	48.271
20.036	48.4049
20.054	48.5276
20.072	48.6397
20.09	48.7342
20.108	48.8124
20.126	48.8698
20.144	48.9061
20.162	48.921
20.18	48.9131
20.198	48.8843
20.216	48.8354
20.234	48.7672
20.252	48.6842
20.27	48.5857
20.288	48.4781
20.306	48.3612
20.324	48.2401
20.342	48.1179
20.36	47.9957
20.378	47.8797
20.396	47.7688
20.414	47.6686
20.432	47.5786
20.45	47.5018
20.468	47.4397
20.486	47.3923
20.504	47.3608
20.522	47.345
20.54	47.3444
20.558	47.3595
20.576	47.3879
20.594	47.4293
20.612	47.4823
20.63	47.5438
20.648	47.6145
20.666	47.6892
20.684	47.7686
20.702	47.849
20.72	47.9284
20.738	48.0062
20.756	48.0779
20.774	48.1444
20.792	48.2018
20.81	48.2497
20.828	48.2868
20.846	48.3104
20.864	48.3212
20.882	48.3167
20.9	48.2969
20.918	48.2613
20.936	48.2089
20.954	48.1403
20.972	48.0557
20.99	47.9549
21.008	47.8394
21.026	47.7096
21.044	47.5662
21.062	47.4118
21.08	47.2456
21.098	47.0716
21.116	46.89
21.134	46.7028
21.152	46.5141
21.17	46.3225
21.188	46.1334
21.206	45.9472
21.224	45.7655
21.242	45.5926
21.26	45.4272
21.278	45.2729
21.296	45.1302
21.314	44.9994
21.332	44.8822
21.35	44.7782
21.368	44.6873
21.386	44.6098
21.404	44.5449
21.422	44.4913
21.44	44.4497
21.458	44.417
21.476	44.3923
21.494	44.3753
21.512	44.3624
21.53	44.3545
21.548	44.3492
21.566	44.3444
21.584	44.3409
21.602	44.3365
21.62	44.3311
21.638	44.3246
21.656	44.3161
21.674	44.3058
21.692	44.2943
21.71	44.2815
21.728	44.2676
21.746	44.2531
21.764	44.2378
21.782	44.2223
21.8	44.2073
21.818	44.1925
21.836	44.1779
21.854	44.1636
21.872	44.1494
21.89	44.1356
21.908	44.1222
21.926	44.1088
21.944	44.095
21.962	44.0809
21.98	44.0671
21.998	44.0532
22.016	44.0399
22.034	44.0278
22.052	44.0163
22.07	44.0075
22.088	44.0026
22.106	44.001
22.124	44.0061
22.142	44.0182
22.16	44.0377
22.178	44.0685
22.196	44.1095
22.214	44.1622
22.232	44.2294
22.25	44.31
22.268	44.4044
22.286	44.5137
22.304	44.6372
22.322	44.7725
22.34	44.9205
22.358	45.0795
22.376	45.2443
22.394	45.4171
22.412	45.5935
22.43	45.7675
22.448	45.9424
22.466	46.1112
22.484	46.2685
22.502	46.4176
22.52	46.5506
22.538	46.6644
22.556	46.7609
22.574	46.8342
22.592	46.8832
22.61	46.9089
22.628	46.9091
22.646	46.8831
22.664	46.8328
22.682	46.76
22.7	46.6628
22.718	46.5454
22.736	46.4126
22.754	46.2611
22.772	46.0978
22.79	45.9284
22.808	45.7491
22.826	45.5681
22.844	45.3906
22.862	45.213
22.88	45.0437
22.898	44.8864
22.916	44.7384
22.934	44.6058
22.952	44.4907
22.97	44.3916
22.988	44.3115
23.006	44.2518
23.024	44.2112
23.042	44.189
23.06	44.1862
23.078	44.2014
23.096	44.2312
23.114	44.2768
23.132	44.3365
23.15	44.4047
23.168	44.4826
23.186	44.5687
23.204	44.6565
23.222	44.7471
23.24	44.8393
23.258	44.9273
23.276	45.0119
23.294	45.0924
23.312	45.164
23.33	45.2268
23.348	45.2811
23.366	45.3248
23.384	45.3575
23.402	45.3799
23.42	45.3919
23.438	45.3925
23.456	45.3828
23.474	45.3656
23.492	45.3404
23.51	45.3075
23.528	45.2707
23.546	45.2303
23.564	45.1857
23.582	45.1422
23.6	45.1011
23.618	45.0609
23.636	45.0266
23.654	45.0004
23.672	44.9802
23.69	44.9699
23.708	44.9721
23.726	44.985
23.744	45.0101
23.762	45.0493
23.78	45.1018
23.798	45.1674
23.816	45.2464
23.834	45.3393
23.852	45.4446
23.87	45.5604
23.888	45.6887
23.906	45.827
23.924	45.9706
23.942	46.1208
23.96	46.2767
23.978	46.4317
23.996	46.5843
24.014	46.7369
24.032	46.8818
24.05	47.0147
24.068	47.1399
24.086	47.2512
24.104	47.3425
24.122	47.4174
24.14	47.4734
24.158	47.5062
24.176	47.5164
24.194	47.5045
24.212	47.4695
24.23	47.4108
24.248	47.329
24.266	47.2255
24.284	47.1005
24.302	46.9528
24.32	46.7864
24.338	46.6043
24.356	46.4031
24.374	46.1873
24.392	45.9632
24.41	45.7285
24.428	45.4844
24.446	45.2385
24.464	44.9933
24.482	44.7451
24.5	44.5012
24.518	44.2676
24.536	44.0398
24.554	43.8216
24.572	43.6192
24.59	43.4315
24.608	43.2581
24.626	43.1027
24.644	42.9673
24.662	42.8498
24.68	42.7513
24.698	42.673
24.716	42.6153
24.734	42.5766
24.752	42.5545
24.77	42.5495
24.788	42.5618
24.806	42.5882
24.824	42.6268
24.842	42.6792
24.86	42.7437
24.878	42.8179
24.896	42.9025
24.914	42.9972
24.932	43.1004
24.95	43.2111
24.968	43.3301
24.986	43.4567
25.004	43.59
25.022	43.7304
25.04	43.8776
25.058	44.0307
25.076	44.1897
25.094	44.3555
25.112	44.5254
25.13	44.6965
25.148	44.8705
25.166	45.0467
25.184	45.2227
25.202	45.3979
25.22	45.5739
25.238	45.7478
25.256	45.9162
25.274	46.0786
25.292	46.2367
25.31	46.3925
25.328	46.5458
25.346	46.6943
25.364	46.8435
25.382	46.9993
25.4	47.1578
25.418	47.3203
25.436	47.4962
25.454	47.6925
25.472	47.9014
25.49	48.1293
25.508	48.386
25.526	48.6747
25.544	48.9908
25.562	49.3353
25.58	49.7095
25.598	50.1179
25.616	50.5547
25.634	51.0101
25.652	51.4814
25.67	51.9802
25.688	52.487
25.706	52.9795
25.724	53.463
25.742	53.944
25.76	54.3936
25.778	54.7851
25.796	55.1384
25.814	55.445
25.832	55.6784
25.85	55.8212
25.868	55.8924
25.886	55.8806
25.904	55.7694
25.922	55.5507
25.94	55.2336
25.958	54.8216
25.976	54.3181
25.994	53.7131
26.012	53.0136
26.03	52.2397
26.048	51.4077
26.066	50.4953
26.084	49.5202
26.102	48.5137
26.12	47.4934
26.138	46.431
26.156	45.3532
26.174	44.2938
26.192	43.2628
26.21	42.2374
26.228	41.2421
26.246	40.303
26.264	39.4202
26.282	38.5824
26.3	37.8039
26.318	37.0985
26.336	36.4652
26.354	35.8986
26.372	35.3998
26.39	34.9701
26.408	34.6151
26.426	34.3279
26.444	34.0975
26.462	33.9155
26.48	33.7942
26.498	33.7243
26.516	33.6898
26.534	33.6801
26.552	33.711
26.57	33.7704
26.588	33.8404
26.606	33.9104
26.624	33.9964
26.642	34.0867
26.66	34.1659
26.678	34.225
26.696	34.2758
26.714	34.3122
26.732	34.3257
26.75	34.3114
26.768	34.2743
26.786	34.2143
26.804	34.1308
26.822	34.0215
26.84	33.8849
26.858	33.7274
26.876	33.5557
26.894	33.3715
26.912	33.168
26.93	32.9536
26.948	32.7375
26.966	32.5158
26.984	32.2685
27.002	32.0322
27.02	31.8474
27.028	31.798