File: Bakgrunnsmateriale/MATLAB/FTIR/ftir_data/subBb/Mapping_121/C-4040-8_t80.asc
PE IR       SPECTRUM    SPECTRUM    ASCII       PEDS        1.60
  -1
C-A54A~1.ASC
17/03/27
21:03:25.00
17/03/27
21:03:51.00
tln
$C-4040-8_t0080$<tbV0>[7.8,5.2,8.0,0.0,27,1,0]
27.028
64

2002,4.07
MIRTGS : RIGHTBACK : INTERNAL 2
MIR : ON : INTERNAL 2
OPTKBR

0.200000
8
8.000000
FILLER
RATIO
SPECTRUM
UNLOCKED 256

DOUBLE
64
COMBINED
1
0
0

0.002000
RATIO

1
0
TRUE
51149
0
LEFT NOT FITTED RIGHT NOT FITTED 0
NONE
NONE
15600
12
4.427000
51148
TRUE
1 0 8 72 0 0 0 0

15798

#HDR
-1
-1
#GR
µM
%T
2.38419e-05
0.0
2.000000
0.002000
12515
8
109.902
40.2511
#DATA
2.000000	 64.8612
2.018000	 64.9087
2.036000	 65.2034
2.054000	 65.0616
2.072000	 65.0043
2.090000	 64.9034
2.108000	 65.3679
2.126000	 65.0249
2.144000	 64.9731
2.162000	 64.925
2.180000	 64.9846
2.198000	 65.6238
2.216000	 65.0014
2.234000	 64.8337
2.252000	 65.0946
2.270000	 65.2197
2.288000	 69.6791
2.306000	 65.9308
2.324000	 65.4408
2.342000	 64.6801
2.360000	 65.2967
2.378000	 64.9726
2.396000	 65.1087
2.414000	 65.1152
2.432000	 64.9583
2.450000	 65.1281
2.468000	 65.0545
2.486000	 65.1124
2.504000	 65.1352
2.522000	 65.1111
2.540000	 65.0349
2.558000	 65.4081
2.576000	 65.2876
2.594000	 64.8903
2.612000	 64.7865
2.630000	 64.9737
2.648000	 65.0099
2.666000	 65.24
2.684000	 65.2992
2.702000	 65.0438
2.720000	 65.2139
2.738000	 65.2331
2.756000	 65.15
2.774000	 65.222
2.792000	 65.4192
2.810000	 65.1105
2.828000	 65.1925
2.846000	 65.0819
2.864000	 65.2008
2.882000	 65.0726
2.900000	 65.2068
2.918000	 64.9389
2.936000	 65.2378
2.954000	 65.2668
2.972000	 65.1525
2.990000	 65.3496
3.008000	 65.2146
3.026000	 65.2197
3.044000	 65.2437
3.062000	 65.2859
3.080000	 65.1403
3.098000	 65.3685
3.116000	 65.0835
3.134000	 65.2418
3.152000	 65.0645
3.170000	 65.1481
3.188000	 65.2789
3.206000	 64.894
3.224000	 64.9586
3.242000	 65.2434
3.260000	 65.206
3.278000	 65.1378
3.296000	 65.2547
3.314000	 65.138
3.332000	 65.2704
3.350000	 65.0664
3.368000	 64.8803
3.386000	 64.9705
3.404000	 65.1338
3.422000	 64.8767
3.440000	 65.045
3.458000	 65.0924
3.476000	 64.9811
3.494000	 65.1528
3.512000	 65.066
3.530000	 65.2616
3.548000	 65.173
3.566000	 65.2824
3.584000	 65.2589
3.602000	 65.3009
3.620000	 65.3089
3.638000	 65.3266
3.656000	 65.2514
3.674000	 65.2961
3.692000	 65.2789
3.710000	 65.2679
3.728000	 65.1255
3.746000	 65.1684
3.764000	 65.2807
3.782000	 65.2149
3.800000	 65.3432
3.818000	 65.2745
3.836000	 65.2698
3.854000	 65.2546
3.872000	 65.2715
3.890000	 65.2393
3.908000	 65.2713
3.926000	 65.3237
3.944000	 65.3334
3.962000	 65.2057
3.980000	 65.1777
3.998000	 65.03
4.016000	 65.1585
4.034000	 65.25
4.052000	 65.2287
4.070000	 65.2746
4.088000	 65.3232
4.106000	 65.716
4.124000	 64.9376
4.141999	 65.6721
4.160000	 65.2533
4.178000	 65.3473
4.196000	 65.2672
4.214000	 65.3144
4.232000	 65.163
4.250000	 65.2065
4.268000	 65.367
4.286000	 65.2445
4.304000	 65.187
4.322000	 65.293
4.340000	 65.2505
4.358000	 65.197
4.375999	 65.3502
4.394000	 65.305
4.412000	 65.3755
4.430000	 65.3562
4.448000	 65.3994
4.466000	 65.3084
4.484000	 65.2601
4.502000	 65.413
4.520000	 65.3452
4.538000	 65.2486
4.556000	 65.2869
4.574000	 65.319
4.592000	 65.2231
4.609999	 65.3091
4.628000	 65.4224
4.646000	 65.2487
4.664000	 65.2493
4.682000	 65.3585
4.700000	 65.2494
4.718000	 65.2081
4.736000	 65.3957
4.754000	 65.4899
4.772000	 65.4088
4.790000	 65.5272
4.808000	 65.4233
4.826000	 65.6798
4.843999	 65.2527
4.862000	 65.1169
4.880000	 65.4936
4.898000	 65.416
4.916000	 65.2781
4.934000	 65.4185
4.952000	 65.4595
4.970000	 65.4727
4.988000	 65.2497
5.006000	 65.1771
5.024000	 65.2367
5.042000	 65.2585
5.060000	 65.2681
5.077999	 65.4037
5.096000	 65.3511
5.114000	 65.4204
5.132000	 65.3301
5.150000	 65.2718
5.168000	 65.2169
5.186000	 65.3048
5.204000	 65.3746
5.222000	 65.4174
5.240000	 65.3311
5.258000	 65.3436
5.276000	 65.3269
5.294000	 65.2403
5.312000	 65.2069
5.330000	 65.3735
5.348000	 65.3404
5.366000	 65.2937
5.384000	 65.3394
5.402000	 65.2761
5.420000	 65.2242
5.438000	 65.2472
5.456000	 65.2843
5.474000	 65.2683
5.492000	 65.3123
5.510000	 65.42
5.528000	 65.3692
5.546000	 65.2938
5.564000	 65.3814
5.582000	 65.3297
5.600000	 65.267
5.618000	 65.2081
5.636000	 65.317
5.654000	 65.3841
5.672000	 65.2876
5.690000	 65.3563
5.708000	 65.3579
5.726000	 65.164
5.744000	 65.0846
5.762000	 65.1044
5.780000	 65.0234
5.798000	 65.0883
5.816000	 65.1736
5.834000	 65.202
5.852000	 65.0742
5.870000	 65.1258
5.888000	 65.2138
5.906000	 65.2559
5.923999	 65.2652
5.942000	 65.2495
5.960000	 65.2834
5.978000	 65.306
5.996000	 65.354
6.014000	 65.3865
6.032000	 65.3192
6.050000	 65.2751
6.068000	 65.253
6.086000	 65.2056
6.104000	 65.0927
6.122000	 65.0285
6.140000	 65.0845
6.158000	 65.0795
6.176000	 65.0222
6.194000	 65.0061
6.212000	 65.0278
6.230000	 65.0708
6.248000	 65.1288
6.266000	 65.1315
6.284000	 65.1492
6.302000	 65.1205
6.320000	 65.0338
6.338000	 65.0299
6.356000	 65.0102
6.374000	 64.9878
6.392000	 64.9617
6.410000	 64.8768
6.428000	 64.8831
6.446000	 64.9473
6.464000	 64.9748
6.482000	 65.0115
6.500000	 65.0347
6.518000	 65.0391
6.536000	 65.083
6.554000	 65.1073
6.572000	 65.0646
6.590000	 65.0332
6.608000	 65.0568
6.626000	 65.1728
6.644000	 65.272
6.662000	 65.2128
6.680000	 65.0521
6.698000	 64.9462
6.716000	 64.9614
6.734000	 65.0002
6.752000	 65.0547
6.770000	 65.0781
6.788000	 65.0491
6.806000	 65.0781
6.824000	 65.1734
6.842000	 65.2926
6.860000	 65.385
6.878000	 65.2768
6.896000	 64.9824
6.914000	 64.867
6.932000	 65.0498
6.950000	 65.2662
6.968000	 65.2525
6.986000	 65.1056
7.004000	 65.0806
7.022000	 65.1075
7.040000	 65.051
7.058000	 64.9817
7.076000	 64.9638
7.094000	 65.0089
7.112000	 65.0386
7.130000	 64.9582
7.148000	 64.9114
7.166000	 65.0125
7.184000	 65.1046
7.202000	 65.1111
7.220000	 65.1111
7.238000	 65.1365
7.256000	 65.2023
7.274000	 65.2803
7.292000	 65.2863
7.310000	 65.2465
7.328000	 65.2633
7.346000	 65.3135
7.364000	 65.2738
7.382000	 65.1187
7.400000	 64.9662
7.418000	 64.9164
7.436000	 64.9521
7.454000	 65.0144
7.472000	 65.0687
7.490000	 65.0922
7.508000	 65.0996
7.526000	 65.1409
7.544000	 65.1859
7.562000	 65.1437
7.580000	 65.0241
7.598000	 64.9341
7.616000	 64.9247
7.634000	 64.949
7.652000	 64.9543
7.670000	 64.9507
7.688000	 64.9713
7.706000	 65.0089
7.724000	 65.0446
7.742000	 65.0905
7.760000	 65.1532
7.778000	 65.2019
7.796000	 65.212
7.814000	 65.1907
7.832000	 65.1518
7.850000	 65.1083
7.868000	 65.0812
7.886000	 65.0775
7.904000	 65.0735
7.922000	 65.0529
7.940000	 65.0323
7.958000	 65.0272
7.976000	 65.02
7.994000	 64.9817
8.012000	 64.9194
8.030000	 64.8836
8.048000	 64.9093
8.065999	 64.9726
8.084000	 65.0217
8.102000	 65.0223
8.120000	 64.9691
8.138000	 64.8929
8.155999	 64.8549
8.173999	 64.8846
8.192000	 64.9379
8.210000	 64.9627
8.228000	 64.969
8.246000	 64.9898
8.263999	 65.017
8.282000	 65.0258
8.300000	 65.0159
8.318000	 64.9946
8.336000	 64.9631
8.353999	 64.9298
8.372000	 64.9103
8.390000	 64.9042
8.408000	 64.8989
8.426000	 64.8971
8.443999	 64.9216
8.462000	 64.9776
8.480000	 65.0313
8.498000	 65.0383
8.516000	 64.9862
8.533999	 64.9084
8.552000	 64.8623
8.570000	 64.8792
8.588000	 64.9298
8.606000	 64.9531
8.624000	 64.9206
8.641999	 64.8554
8.660000	 64.7954
8.678000	 64.7562
8.696000	 64.7353
8.714000	 64.7261
8.731999	 64.7238
8.750000	 64.7345
8.768000	 64.7709
8.786000	 64.8306
8.804000	 64.8864
8.821999	 64.9153
8.840000	 64.9249
8.858000	 64.94
8.876000	 64.9636
8.894000	 64.9726
8.911999	 64.9493
8.930000	 64.8979
8.948000	 64.8325
8.966000	 64.7625
8.984000	 64.6953
9.001999	 64.6479
9.020000	 64.6445
9.038000	 64.6986
9.056000	 64.7924
9.074000	 64.8783
9.092000	 64.9098
9.109999	 64.8819
9.128000	 64.8363
9.146000	 64.8122
9.164000	 64.8011
9.182000	 64.7617
9.199999	 64.6789
9.218000	 64.5927
9.236000	 64.565
9.254000	 64.6207
9.272000	 64.7276
9.289999	 64.8292
9.308000	 64.8877
9.326000	 64.9006
9.344000	 64.8886
9.362000	 64.8723
9.379999	 64.859
9.398000	 64.8462
9.416000	 64.8329
9.434000	 64.8224
9.452000	 64.8141
9.469999	 64.7987
9.488000	 64.7672
9.506000	 64.7272
9.524000	 64.7055
9.542000	 64.7244
9.560000	 64.7758
9.577999	 64.8244
9.596000	 64.8363
9.614000	 64.8025
9.632000	 64.7401
9.650000	 64.6781
9.667999	 64.641
9.686000	 64.636
9.704000	 64.6481
9.722000	 64.6511
9.740000	 64.6261
9.757999	 64.5782
9.776000	 64.5355
9.794000	 64.5294
9.812000	 64.5706
9.830000	 64.6403
9.847999	 64.7055
9.866000	 64.7444
9.884000	 64.761
9.902000	 64.7781
9.920000	 64.8161
9.937999	 64.8724
9.956000	 64.9202
9.974000	 64.9294
9.992000	 64.8902
10.01	64.8239
10.028	64.7695
10.046	64.7557
10.064	64.7795
10.082	64.8106
10.1	64.8116
10.118	64.7663
10.136	64.6925
10.154	64.6258
10.172	64.5965
10.19	64.6095
10.208	64.645
10.226	64.679
10.244	64.6999
10.262	64.7168
10.28	64.7436
10.298	64.7826
10.316	64.8178
10.334	64.8305
10.352	64.8186
10.37	64.8026
10.388	64.8105
10.406	64.856
10.424	64.93
10.442	65.0059
10.46	65.0555
10.478	65.0586
10.496	65.0086
10.514	64.9084
10.532	64.7718
10.55	64.6251
10.568	64.5023
10.586	64.4334
10.604	64.4287
10.622	64.4731
10.64	64.5361
10.658	64.5897
10.676	64.619
10.694	64.6243
10.712	64.6144
10.73	64.5994
10.748	64.5899
10.766	64.5961
10.784	64.6269
10.802	64.6838
10.82	64.7542
10.838	64.8092
10.856	64.8168
10.874	64.7571
10.892	64.6377
10.91	64.492
10.928	64.3648
10.946	64.2936
10.964	64.2887
10.982	64.3338
11	64.3962
11.018	64.4438
11.036	64.4632
11.054	64.461
11.072	64.4552
11.09	64.4624
11.108	64.4857
11.126	64.5158
11.144	64.5402
11.162	64.5522
11.18	64.5568
11.198	64.5681
11.216	64.5998
11.234	64.6572
11.252	64.7325
11.27	64.8079
11.288	64.8614
11.306	64.8775
11.324	64.851
11.342	64.7889
11.36	64.707
11.378	64.6256
11.396	64.5612
11.414	64.5226
11.432	64.5073
11.45	64.504
11.468	64.498
11.486	64.4787
11.504	64.4443
11.522	64.4017
11.54	64.3618
11.558	64.3332
11.576	64.3173
11.594	64.3085
11.612	64.2964
11.63	64.2722
11.648	64.2342
11.666	64.1877
11.684	64.1441
11.702	64.1154
11.72	64.1105
11.738	64.1342
11.756	64.1873
11.774	64.267
11.792	64.3672
11.81	64.4793
11.828	64.592
11.846	64.6917
11.864	64.7658
11.882	64.8052
11.9	64.8067
11.918	64.7741
11.936	64.7171
11.954	64.6481
11.972	64.5799
11.99	64.5217
12.008	64.4784
12.026	64.4499
12.044	64.4332
12.062	64.4233
12.08	64.4157
12.098	64.4073
12.116	64.3986
12.134	64.3936
12.152	64.3981
12.17	64.4168
12.188	64.4516
12.206	64.4995
12.224	64.553
12.242	64.6024
12.26	64.6387
12.278	64.6547
12.296	64.6478
12.314	64.6192
12.332	64.5731
12.35	64.5151
12.368	64.4515
12.386	64.388
12.404	64.3289
12.422	64.2767
12.44	64.2328
12.458	64.1968
12.476	64.1671
12.494	64.141
12.512	64.1157
12.53	64.0902
12.548	64.0655
12.566	64.0436
12.584	64.0281
12.602	64.022
12.62	64.0262
12.638	64.0388
12.656	64.0558
12.674	64.0713
12.692	64.0803
12.71	64.0804
12.728	64.0731
12.746	64.0629
12.764	64.0566
12.782	64.0607
12.8	64.0798
12.818	64.1144
12.836	64.1615
12.854	64.2137
12.872	64.2628
12.89	64.2991
12.908	64.3139
12.926	64.3009
12.944	64.2575
12.962	64.1858
12.98	64.0926
12.998	63.9889
13.016	63.8878
13.034	63.8021
13.052	63.7418
13.07	63.7116
13.088	63.71
13.106	63.7289
13.124	63.7561
13.142	63.7781
13.16	63.7831
13.178	63.7644
13.196	63.7214
13.214	63.6601
13.232	63.5906
13.25	63.5252
13.268	63.4744
13.286	63.4456
13.304	63.4409
13.322	63.4574
13.34	63.4885
13.358	63.5254
13.376	63.5594
13.394	63.5834
13.412	63.5935
13.43	63.5892
13.448	63.573
13.466	63.5495
13.484	63.5238
13.502	63.501
13.52	63.4849
13.538	63.4779
13.556	63.4808
13.574	63.4932
13.592	63.5141
13.61	63.5426
13.628	63.5779
13.646	63.6188
13.664	63.6645
13.682	63.7136
13.7	63.7646
13.718	63.815
13.736	63.8623
13.754	63.9036
13.772	63.9363
13.79	63.9586
13.808	63.9693
13.826	63.9692
13.844	63.9594
13.862	63.9416
13.88	63.9177
13.898	63.8889
13.916	63.8561
13.934	63.8192
13.952	63.7777
13.97	63.7304
13.988	63.6763
14.006	63.6149
14.024	63.5473
14.042	63.4759
14.06	63.4047
14.078	63.3393
14.096	63.2862
14.114	63.2518
14.132	63.2413
14.15	63.258
14.168	63.3026
14.186	63.3726
14.204	63.4622
14.222	63.5628
14.24	63.6644
14.258	63.7572
14.276	63.8327
14.294	63.885
14.312	63.9119
14.33	63.9148
14.348	63.898
14.366	63.8679
14.384	63.8315
14.402	63.7946
14.42	63.7605
14.438	63.7303
14.456	63.7023
14.474	63.6734
14.492	63.6398
14.51	63.5982
14.528	63.5475
14.546	63.489
14.564	63.4259
14.582	63.3627
14.6	63.3048
14.618	63.2571
14.636	63.223
14.654	63.2033
14.672	63.1969
14.69	63.2009
14.708	63.2119
14.726	63.2259
14.744	63.2394
14.762	63.2509
14.78	63.2599
14.798	63.2667
14.816	63.2719
14.834	63.276
14.852	63.2779
14.87	63.2756
14.888	63.2665
14.906	63.2482
14.924	63.2179
14.942	63.174
14.96	63.1167
14.978	63.0485
14.996	62.9736
15.014	62.897
15.032	62.8257
15.05	62.7653
15.068	62.72
15.086	62.6923
15.104	62.6831
15.122	62.6908
15.14	62.7116
15.158	62.7414
15.176	62.776
15.194	62.811
15.212	62.8432
15.23	62.871
15.248	62.8939
15.266	62.9125
15.284	62.9278
15.302	62.9416
15.32	62.9548
15.338	62.9681
15.356	62.9814
15.374	62.9939
15.392	63.0044
15.41	63.0112
15.428	63.0126
15.446	63.0064
15.464	62.9914
15.482	62.9669
15.5	62.932
15.518	62.8871
15.536	62.8331
15.554	62.7711
15.572	62.7029
15.59	62.6312
15.608	62.5589
15.626	62.4887
15.644	62.4242
15.662	62.369
15.68	62.3256
15.698	62.296
15.716	62.2817
15.734	62.2821
15.752	62.2961
15.77	62.322
15.788	62.3558
15.806	62.3933
15.824	62.4309
15.842	62.4644
15.86	62.49
15.878	62.5059
15.896	62.511
15.914	62.5053
15.932	62.4906
15.95	62.4686
15.968	62.4421
15.986	62.4149
16.004	62.3896
16.022	62.3687
16.04	62.3545
16.058	62.3476
16.076	62.3485
16.094	62.3567
16.112	62.371
16.13	62.3902
16.148	62.4128
16.166	62.4373
16.184	62.4623
16.202	62.4867
16.22	62.5094
16.238	62.5298
16.256	62.5475
16.274	62.5625
16.292	62.575
16.31	62.5851
16.328	62.594
16.346	62.6024
16.364	62.6112
16.382	62.622
16.4	62.6359
16.418	62.6539
16.436	62.6773
16.454	62.7065
16.472	62.7417
16.49	62.7826
16.508	62.8281
16.526	62.877
16.544	62.9269
16.562	62.9753
16.58	63.0201
16.598	63.0576
16.616	63.0857
16.634	63.1023
16.652	63.1049
16.67	63.0933
16.688	63.0669
16.706	63.0268
16.724	62.9748
16.742	62.9128
16.76	62.8449
16.778	62.7736
16.796	62.7031
16.814	62.6375
16.832	62.5792
16.85	62.5322
16.868	62.4982
16.886	62.4786
16.904	62.474
16.922	62.4837
16.94	62.5071
16.958	62.5408
16.976	62.5832
16.994	62.63
17.012	62.6777
17.03	62.7236
17.048	62.763
17.066	62.794
17.084	62.8137
17.102	62.8203
17.12	62.8132
17.138	62.7919
17.156	62.7573
17.174	62.71
17.192	62.653
17.21	62.5875
17.228	62.5168
17.246	62.4441
17.264	62.3716
17.282	62.3036
17.3	62.2417
17.318	62.1892
17.336	62.1478
17.354	62.1185
17.372	62.1023
17.39	62.0989
17.408	62.1076
17.426	62.1265
17.444	62.1544
17.462	62.1873
17.48	62.224
17.498	62.2603
17.516	62.2943
17.534	62.3237
17.552	62.3458
17.57	62.3597
17.588	62.3639
17.606	62.3585
17.624	62.3428
17.642	62.318
17.66	62.2845
17.678	62.244
17.696	62.1971
17.714	62.1461
17.732	62.0919
17.75	62.0357
17.768	61.9791
17.786	61.9227
17.804	61.8682
17.822	61.8158
17.84	61.767
17.858	61.7221
17.876	61.6821
17.894	61.6475
17.912	61.6186
17.93	61.5961
17.948	61.5799
17.966	61.5699
17.984	61.5658
18.002	61.567
18.02	61.5726
18.038	61.5816
18.056	61.5922
18.074	61.6036
18.092	61.6137
18.11	61.622
18.128	61.6268
18.146	61.628
18.164	61.6248
18.182	61.6177
18.2	61.6069
18.218	61.5933
18.236	61.5773
18.254	61.5606
18.272	61.5435
18.29	61.5276
18.308	61.5133
18.326	61.5019
18.344	61.4932
18.362	61.4877
18.38	61.485
18.398	61.4847
18.416	61.4863
18.434	61.4892
18.452	61.4925
18.47	61.4959
18.488	61.4984
18.506	61.5
18.524	61.5001
18.542	61.4986
18.56	61.4959
18.578	61.4919
18.596	61.4872
18.614	61.4818
18.632	61.4764
18.65	61.4708
18.668	61.4652
18.686	61.4597
18.704	61.4539
18.722	61.4477
18.74	61.4404
18.758	61.4318
18.776	61.421
18.794	61.4079
18.812	61.3916
18.83	61.3721
18.848	61.349
18.866	61.3224
18.884	61.2921
18.902	61.2585
18.92	61.2219
18.938	61.1827
18.956	61.1415
18.974	61.0988
18.992	61.0554
19.01	61.0119
19.028	60.9693
19.046	60.9284
19.064	60.8904
19.082	60.8558
19.1	60.8261
19.118	60.8016
19.136	60.7835
19.154	60.7721
19.172	60.7684
19.19	60.7724
19.208	60.7846
19.226	60.8048
19.244	60.8325
19.262	60.8674
19.28	60.9084
19.298	60.9552
19.316	61.0057
19.334	61.0599
19.352	61.1155
19.37	61.1726
19.388	61.2286
19.406	61.2837
19.424	61.3361
19.442	61.3858
19.46	61.4319
19.478	61.4743
19.496	61.5128
19.514	61.5474
19.532	61.5788
19.55	61.6071
19.568	61.6328
19.586	61.6564
19.604	61.6782
19.622	61.6987
19.64	61.7179
19.658	61.7357
19.676	61.752
19.694	61.7664
19.712	61.7788
19.73	61.7879
19.748	61.7938
19.766	61.795
19.784	61.7914
19.802	61.782
19.82	61.7661
19.838	61.7436
19.856	61.714
19.874	61.6775
19.892	61.6342
19.91	61.5841
19.928	61.5289
19.946	61.4681
19.964	61.404
19.982	61.3365
20	61.2675
20.018	61.198
20.036	61.1288
20.054	61.0619
20.072	60.9973
20.09	60.937
20.108	60.8808
20.126	60.83
20.144	60.7848
20.162	60.7451
20.18	60.7114
20.198	60.6831
20.216	60.6599
20.234	60.6415
20.252	60.6267
20.27	60.6156
20.288	60.6064
20.306	60.5991
20.324	60.5926
20.342	60.5862
20.36	60.5797
20.378	60.5716
20.396	60.5623
20.414	60.5512
20.432	60.5383
20.45	60.5238
20.468	60.5075
20.486	60.4902
20.504	60.4727
20.522	60.4549
20.54	60.439
20.558	60.4244
20.576	60.413
20.594	60.4055
20.612	60.4024
20.63	60.4052
20.648	60.4135
20.666	60.4282
20.684	60.4494
20.702	60.4766
20.72	60.5102
20.738	60.5495
20.756	60.5928
20.774	60.6406
20.792	60.6899
20.81	60.7408
20.828	60.7914
20.846	60.839
20.864	60.8842
20.882	60.9231
20.9	60.9562
20.918	60.9816
20.936	60.9976
20.954	61.0046
20.972	61.0012
20.99	60.9875
21.008	60.9637
21.026	60.9295
21.044	60.8856
21.062	60.8334
21.08	60.7723
21.098	60.705
21.116	60.6316
21.134	60.553
21.152	60.472
21.17	60.3876
21.188	60.3029
21.206	60.218
21.224	60.1338
21.242	60.0526
21.26	59.9737
21.278	59.8989
21.296	59.8287
21.314	59.7632
21.332	59.7039
21.35	59.6502
21.368	59.6036
21.386	59.5642
21.404	59.5321
21.422	59.5088
21.44	59.4937
21.458	59.4879
21.476	59.4917
21.494	59.5049
21.512	59.5283
21.53	59.5618
21.548	59.6052
21.566	59.6586
21.584	59.7219
21.602	59.7935
21.62	59.8742
21.638	59.9622
21.656	60.0554
21.674	60.1547
21.692	60.2561
21.71	60.3593
21.728	60.4632
21.746	60.5631
21.764	60.6604
21.782	60.7518
21.8	60.8344
21.818	60.9094
21.836	60.9727
21.854	61.0239
21.872	61.0628
21.89	61.0876
21.908	61.0984
21.926	61.0962
21.944	61.0809
21.962	61.0527
21.98	61.015
21.998	60.967
22.016	60.9109
22.034	60.8511
22.052	60.7857
22.07	60.719
22.088	60.6543
22.106	60.5899
22.124	60.5304
22.142	60.4769
22.16	60.429
22.178	60.3896
22.196	60.3585
22.214	60.3356
22.232	60.3216
22.25	60.3167
22.268	60.3189
22.286	60.3279
22.304	60.3438
22.322	60.3629
22.34	60.3854
22.358	60.4105
22.376	60.4337
22.394	60.4562
22.412	60.4762
22.43	60.4901
22.448	60.4995
22.466	60.5022
22.484	60.496
22.502	60.4821
22.52	60.4592
22.538	60.4268
22.556	60.3852
22.574	60.3341
22.592	60.273
22.61	60.2026
22.628	60.1235
22.646	60.035
22.664	59.9385
22.682	59.836
22.7	59.7262
22.718	59.6115
22.736	59.4943
22.754	59.3732
22.772	59.2509
22.79	59.1301
22.808	59.0091
22.826	58.8909
22.844	58.7773
22.862	58.6671
22.88	58.5632
22.898	58.467
22.916	58.3776
22.934	58.2966
22.952	58.2244
22.97	58.1606
22.988	58.1061
23.006	58.0616
23.024	58.0263
23.042	57.9989
23.06	57.9802
23.078	57.9692
23.096	57.9621
23.114	57.96
23.132	57.9615
23.15	57.9618
23.168	57.9621
23.186	57.961
23.204	57.9531
23.222	57.9391
23.24	57.9185
23.258	57.8873
23.276	57.8458
23.294	57.794
23.312	57.7305
23.33	57.6544
23.348	57.5669
23.366	57.4701
23.384	57.3629
23.402	57.2465
23.42	57.1243
23.438	56.9947
23.456	56.8593
23.474	56.7251
23.492	56.5913
23.51	56.4584
23.528	56.3354
23.546	56.2236
23.564	56.1213
23.582	56.0372
23.6	55.9743
23.618	55.9295
23.636	55.9087
23.654	55.9157
23.672	55.9477
23.69	56.0058
23.708	56.0916
23.726	56.2052
23.744	56.3425
23.762	56.5008
23.78	56.6838
23.798	56.884
23.816	57.0932
23.834	57.3177
23.852	57.5495
23.87	57.7763
23.888	58.0041
23.906	58.2274
23.924	58.4318
23.942	58.6188
23.96	58.7888
23.978	58.9284
23.996	59.0334
24.014	59.109
24.032	59.1462
24.05	59.139
24.068	59.0917
24.086	59.0022
24.104	58.8679
24.122	58.6892
24.14	58.4678
24.158	58.2054
24.176	57.8988
24.194	57.552
24.212	57.1732
24.23	56.7612
24.248	56.3155
24.266	55.8484
24.284	55.3653
24.302	54.8585
24.32	54.3435
24.338	53.8343
24.356	53.3194
24.374	52.8107
24.392	52.3271
24.41	51.863
24.428	51.4201
24.446	51.0169
24.464	50.6592
24.482	50.3379
24.5	50.0698
24.518	49.8692
24.536	49.727
24.554	49.6482
24.572	49.642
24.59	49.7092
24.608	49.8463
24.626	50.0526
24.644	50.331
24.662	50.6827
24.68	51.094
24.698	51.5536
24.716	52.0741
24.734	52.6412
24.752	53.2317
24.77	53.851
24.788	54.5011
24.806	55.1505
24.824	55.7798
24.842	56.4124
24.86	57.0199
24.878	57.5678
24.896	58.0683
24.914	58.519
24.932	58.8904
24.95	59.1663
24.968	59.3644
24.986	59.4696
25.004	59.4654
25.022	59.3539
25.04	59.14
25.058	58.8229
25.076	58.399
25.094	57.8671
25.112	57.2419
25.13	56.537
25.148	55.7362
25.166	54.8541
25.184	53.9213
25.202	52.9471
25.22	51.911
25.238	50.8493
25.256	49.7995
25.274	48.7398
25.292	47.6795
25.31	46.658
25.328	45.6967
25.346	44.7688
25.364	43.8998
25.382	43.1201
25.4	42.4242
25.418	41.8066
25.436	41.2855
25.454	40.8755
25.472	40.5675
25.49	40.3615
25.508	40.2609
25.526	40.2703
25.544	40.3872
25.562	40.6007
25.58	40.9009
25.598	41.2996
25.616	41.7872
25.634	42.3432
25.652	42.9576
25.67	43.6478
25.688	44.392
25.706	45.1643
25.724	45.9668
25.742	46.8081
25.76	47.664
25.778	48.5122
25.796	49.3656
25.814	50.2209
25.832	51.0619
25.85	51.8775
25.868	52.6773
25.886	53.4581
25.904	54.2143
25.922	54.9436
25.94	55.649
25.958	56.3306
25.976	56.9882
25.994	57.619
26.012	58.2253
26.03	58.8132
26.048	59.3879
26.066	59.9451
26.084	60.487
26.102	61.0182
26.12	61.5413
26.138	62.0519
26.156	62.5546
26.174	63.0551
26.192	63.5556
26.21	64.0523
26.228	64.5485
26.246	65.0479
26.264	65.5493
26.282	66.0514
26.3	66.5592
26.318	67.0775
26.336	67.6036
26.354	68.1374
26.372	68.6837
26.39	69.2465
26.408	69.8209
26.426	70.4094
26.444	71.0188
26.462	71.654
26.48	72.3061
26.498	72.982
26.516	73.6933
26.534	74.448
26.552	75.236
26.57	76.063
26.588	76.9384
26.606	77.8685
26.624	78.8472
26.642	79.8753
26.66	80.9552
26.678	82.0892
26.696	83.2776
26.714	84.5157
26.732	85.7988
26.75	87.1271
26.768	88.5076
26.786	89.9278
26.804	91.3741
26.822	92.8424
26.84	94.3459
26.858	95.8695
26.876	97.396
26.894	98.9186
26.912	100.452
26.93	101.984
26.948	103.499
26.966	105.049
26.984	106.737
27.002	108.328
27.02	109.568
27.028	109.902