File: Bakgrunnsmateriale/MATLAB/FTIR/ftir_data/subBb/Mapping_121/C-4040-8_t57.asc
PE IR       SPECTRUM    SPECTRUM    ASCII       PEDS        1.60
  -1
C-B936~1.ASC
17/03/27
19:09:55.00
17/03/27
19:10:21.00
tln
$C-4040-8_t0057$<tbV0>[10.4,0.0,8.0,0.0,27,1,0]
27.028
64

2002,4.07
MIRTGS : RIGHTBACK : INTERNAL 2
MIR : ON : INTERNAL 2
OPTKBR

0.200000
8
8.000000
FILLER
RATIO
SPECTRUM
UNLOCKED 256

DOUBLE
64
COMBINED
1
0
0

0.002000
RATIO

1
0
TRUE
51149
0
LEFT NOT FITTED RIGHT NOT FITTED 0
NONE
NONE
15600
12
4.427000
51148
TRUE
1 0 8 72 0 0 0 0

15798

#HDR
-1
-1
#GR
µM
%T
2.38419e-05
0.0
2.000000
0.002000
12515
8
85.7645
18.6864
#DATA
2.000000	 65.1597
2.018000	 65.261
2.036000	 64.7395
2.054000	 64.4972
2.072000	 64.9182
2.090000	 65.0435
2.108000	 64.3384
2.126000	 64.7968
2.144000	 64.5198
2.162000	 64.8498
2.180000	 64.6302
2.198000	 64.7441
2.216000	 64.771
2.234000	 65.1931
2.252000	 65.5111
2.270000	 65.9029
2.288000	 64.0876
2.306000	 67.4022
2.324000	 65.1744
2.342000	 65.8078
2.360000	 65.0054
2.378000	 65.4571
2.396000	 64.3129
2.414000	 65.1181
2.432000	 64.7112
2.450000	 65.2442
2.468000	 64.9704
2.486000	 64.922
2.504000	 65.0406
2.522000	 64.7636
2.540000	 65.1867
2.558000	 65.2252
2.576000	 65.0547
2.594000	 65.4373
2.612000	 65.1146
2.630000	 65.2663
2.648000	 65.2894
2.666000	 65.0271
2.684000	 65.1623
2.702000	 64.969
2.720000	 65.0869
2.738000	 65.0332
2.756000	 65.035
2.774000	 65.151
2.792000	 65.0545
2.810000	 65.2146
2.828000	 65.0683
2.846000	 65.0628
2.864000	 64.9507
2.882000	 65.2912
2.900000	 65.0772
2.918000	 65.0411
2.936000	 65.1459
2.954000	 65.2218
2.972000	 65.3499
2.990000	 65.1449
3.008000	 65.1378
3.026000	 65.1952
3.044000	 65.0176
3.062000	 65.2757
3.080000	 65.0805
3.098000	 65.2347
3.116000	 65.1722
3.134000	 64.9965
3.152000	 65.2897
3.170000	 65.1888
3.188000	 65.1977
3.206000	 64.8576
3.224000	 65.0943
3.242000	 65.1398
3.260000	 65.2716
3.278000	 65.1598
3.296000	 65.255
3.314000	 65.2535
3.332000	 65.1064
3.350000	 65.2364
3.368000	 65.4269
3.386000	 65.1787
3.404000	 65.15
3.422000	 64.8259
3.440000	 65.197
3.458000	 65.2213
3.476000	 65.0842
3.494000	 65.0777
3.512000	 65.107
3.530000	 65.0569
3.548000	 65.2724
3.566000	 65.2413
3.584000	 65.1768
3.602000	 65.163
3.620000	 65.1467
3.638000	 65.1002
3.656000	 65.1886
3.674000	 65.1086
3.692000	 65.1877
3.710000	 65.0563
3.728000	 65.1089
3.746000	 65.2463
3.764000	 65.3816
3.782000	 65.2379
3.800000	 65.2577
3.818000	 65.2182
3.836000	 65.4476
3.854000	 65.2614
3.872000	 65.2422
3.890000	 65.2679
3.908000	 65.2844
3.926000	 65.3323
3.944000	 65.2107
3.962000	 65.0147
3.980000	 65.4038
3.998000	 65.0038
4.016000	 65.2378
4.034000	 65.2991
4.052000	 65.2075
4.070000	 65.2185
4.088000	 65.2955
4.106000	 65.2762
4.124000	 65.4445
4.141999	 65.0726
4.160000	 65.3289
4.178000	 65.2903
4.196000	 65.1828
4.214000	 65.12
4.232000	 65.1532
4.250000	 65.1821
4.268000	 65.138
4.286000	 65.2441
4.304000	 65.2099
4.322000	 65.031
4.340000	 65.2672
4.358000	 65.1919
4.375999	 65.2296
4.394000	 65.1515
4.412000	 65.1517
4.430000	 65.3259
4.448000	 65.3861
4.466000	 65.31
4.484000	 65.2879
4.502000	 65.3346
4.520000	 65.277
4.538000	 65.1142
4.556000	 65.3865
4.574000	 65.3096
4.592000	 65.3177
4.609999	 65.206
4.628000	 65.4478
4.646000	 65.2749
4.664000	 65.1404
4.682000	 65.2901
4.700000	 65.3156
4.718000	 65.4015
4.736000	 65.4097
4.754000	 65.3052
4.772000	 65.3259
4.790000	 65.4208
4.808000	 65.4835
4.826000	 65.3
4.843999	 65.2126
4.862000	 65.2635
4.880000	 65.1966
4.898000	 65.1508
4.916000	 65.313
4.934000	 65.3146
4.952000	 65.0966
4.970000	 65.1494
4.988000	 65.294
5.006000	 65.1858
5.024000	 65.3012
5.042000	 65.3543
5.060000	 65.2767
5.077999	 65.3037
5.096000	 65.3036
5.114000	 65.3627
5.132000	 65.2796
5.150000	 65.2565
5.168000	 65.3128
5.186000	 65.3011
5.204000	 65.2894
5.222000	 65.3184
5.240000	 65.2917
5.258000	 65.2417
5.276000	 65.249
5.294000	 65.2966
5.312000	 65.2694
5.330000	 65.2571
5.348000	 65.2165
5.366000	 65.1966
5.384000	 65.0932
5.402000	 65.1631
5.420000	 65.2838
5.438000	 65.2423
5.456000	 65.3305
5.474000	 65.2927
5.492000	 65.2157
5.510000	 65.1734
5.528000	 65.1281
5.546000	 65.2249
5.564000	 65.1943
5.582000	 65.231
5.600000	 65.2065
5.618000	 65.171
5.636000	 65.2256
5.654000	 65.2281
5.672000	 65.194
5.690000	 65.1421
5.708000	 65.116
5.726000	 65.1259
5.744000	 65.137
5.762000	 65.0673
5.780000	 65.1065
5.798000	 65.0066
5.816000	 64.8739
5.834000	 64.8308
5.852000	 65.0066
5.870000	 65.2352
5.888000	 65.2765
5.906000	 65.1702
5.923999	 65.0681
5.942000	 65.0955
5.960000	 65.1787
5.978000	 65.2365
5.996000	 65.2712
6.014000	 65.2269
6.032000	 65.1932
6.050000	 65.2022
6.068000	 65.1752
6.086000	 65.1823
6.104000	 65.1305
6.122000	 65.0832
6.140000	 65.1612
6.158000	 65.2253
6.176000	 65.2424
6.194000	 65.1473
6.212000	 65.0874
6.230000	 65.1002
6.248000	 65.0419
6.266000	 65.0406
6.284000	 65.0815
6.302000	 65.1351
6.320000	 65.1311
6.338000	 65.1295
6.356000	 65.1683
6.374000	 65.1774
6.392000	 65.0486
6.410000	 64.9448
6.428000	 65.0043
6.446000	 65.0416
6.464000	 65.0518
6.482000	 65.1383
6.500000	 65.1422
6.518000	 65.0454
6.536000	 65.018
6.554000	 65.0182
6.572000	 65.0545
6.590000	 65.0525
6.608000	 65.0249
6.626000	 65.0772
6.644000	 65.0915
6.662000	 65.1287
6.680000	 65.232
6.698000	 65.2143
6.716000	 65.1431
6.734000	 65.1345
6.752000	 65.1413
6.770000	 65.0705
6.788000	 64.937
6.806000	 64.8953
6.824000	 64.9295
6.842000	 64.9181
6.860000	 64.8334
6.878000	 64.7926
6.896000	 64.9175
6.914000	 65.0665
6.932000	 65.1188
6.950000	 65.1292
6.968000	 65.0524
6.986000	 64.9154
7.004000	 64.8874
7.022000	 64.9269
7.040000	 64.9227
7.058000	 64.9561
7.076000	 65.0466
7.094000	 65.0829
7.112000	 65.09
7.130000	 65.1181
7.148000	 65.0739
7.166000	 64.9532
7.184000	 64.8919
7.202000	 64.9433
7.220000	 65.0411
7.238000	 65.0866
7.256000	 65.0618
7.274000	 65.0317
7.292000	 65.0405
7.310000	 65.0582
7.328000	 65.0354
7.346000	 64.9941
7.364000	 64.9902
7.382000	 64.9998
7.400000	 64.9581
7.418000	 64.8719
7.436000	 64.8129
7.454000	 64.8165
7.472000	 64.8417
7.490000	 64.8622
7.508000	 64.8994
7.526000	 64.9355
7.544000	 64.9435
7.562000	 64.945
7.580000	 64.9594
7.598000	 64.9878
7.616000	 65.0264
7.634000	 65.0359
7.652000	 64.9862
7.670000	 64.919
7.688000	 64.8939
7.706000	 64.9225
7.724000	 64.9736
7.742000	 65.0111
7.760000	 65.029
7.778000	 65.0364
7.796000	 65.0175
7.814000	 64.9667
7.832000	 64.9168
7.850000	 64.8955
7.868000	 64.902
7.886000	 64.9203
7.904000	 64.923
7.922000	 64.8975
7.940000	 64.8726
7.958000	 64.8748
7.976000	 64.8918
7.994000	 64.904
8.012000	 64.9113
8.030000	 64.9171
8.048000	 64.9196
8.065999	 64.9263
8.084000	 64.9421
8.102000	 64.9456
8.120000	 64.9207
8.138000	 64.8925
8.155999	 64.8905
8.173999	 64.9088
8.192000	 64.927
8.210000	 64.9365
8.228000	 64.9271
8.246000	 64.8996
8.263999	 64.8884
8.282000	 64.919
8.300000	 64.9576
8.318000	 64.9503
8.336000	 64.8974
8.353999	 64.8536
8.372000	 64.8643
8.390000	 64.919
8.408000	 64.9623
8.426000	 64.9491
8.443999	 64.8951
8.462000	 64.8429
8.480000	 64.8002
8.498000	 64.7558
8.516000	 64.7245
8.533999	 64.7302
8.552000	 64.7656
8.570000	 64.8007
8.588000	 64.827
8.606000	 64.8646
8.624000	 64.9182
8.641999	 64.9577
8.660000	 64.9527
8.678000	 64.9116
8.696000	 64.8744
8.714000	 64.87
8.731999	 64.8944
8.750000	 64.9242
8.768000	 64.9269
8.786000	 64.8687
8.804000	 64.7504
8.821999	 64.6299
8.840000	 64.5799
8.858000	 64.6095
8.876000	 64.6603
8.894000	 64.6846
8.911999	 64.696
8.930000	 64.7124
8.948000	 64.7026
8.966000	 64.6261
8.984000	 64.5139
9.001999	 64.4494
9.020000	 64.4716
9.038000	 64.5277
9.056000	 64.5403
9.074000	 64.4964
9.092000	 64.4485
9.109999	 64.4552
9.128000	 64.5394
9.146000	 64.692
9.164000	 64.8856
9.182000	 65.0742
9.199999	 65.1954
9.218000	 65.1962
9.236000	 65.0743
9.254000	 64.8923
9.272000	 64.7413
9.289999	 64.6786
9.308000	 64.692
9.326000	 64.718
9.344000	 64.7036
9.362000	 64.6525
9.379999	 64.6167
9.398000	 64.6391
9.416000	 64.7078
9.434000	 64.7664
9.452000	 64.771
9.469999	 64.7332
9.488000	 64.7038
9.506000	 64.7096
9.524000	 64.7202
9.542000	 64.688
9.560000	 64.6116
9.577999	 64.5419
9.596000	 64.5258
9.614000	 64.5578
9.632000	 64.5938
9.650000	 64.6021
9.667999	 64.5904
9.686000	 64.5849
9.704000	 64.5967
9.722000	 64.6169
9.740000	 64.6357
9.757999	 64.6543
9.776000	 64.6722
9.794000	 64.6765
9.812000	 64.6548
9.830000	 64.6238
9.847999	 64.6296
9.866000	 64.7075
9.884000	 64.8396
9.902000	 64.9581
9.920000	 64.9995
9.937999	 64.96
9.956000	 64.8946
9.974000	 64.8619
9.992000	 64.8725
10.01	64.8867
10.028	64.8586
10.046	64.7846
10.064	64.7053
10.082	64.6657
10.1	64.6769
10.118	64.7076
10.136	64.7143
10.154	64.6769
10.172	64.6112
10.19	64.5545
10.208	64.5353
10.226	64.5558
10.244	64.5933
10.262	64.616
10.28	64.6042
10.298	64.5599
10.316	64.5054
10.334	64.4677
10.352	64.4619
10.37	64.4842
10.388	64.5172
10.406	64.5453
10.424	64.563
10.442	64.5758
10.46	64.5921
10.478	64.6139
10.496	64.6341
10.514	64.642
10.532	64.6317
10.55	64.605
10.568	64.5675
10.586	64.524
10.604	64.4749
10.622	64.4178
10.64	64.354
10.658	64.2918
10.676	64.2467
10.694	64.233
10.712	64.2576
10.73	64.3141
10.748	64.3854
10.766	64.4508
10.784	64.4966
10.802	64.5217
10.82	64.536
10.838	64.5539
10.856	64.5814
10.874	64.6112
10.892	64.6262
10.91	64.6082
10.928	64.5527
10.946	64.4731
10.964	64.395
10.982	64.3449
11	64.3346
11.018	64.3568
11.036	64.3924
11.054	64.4218
11.072	64.4366
11.09	64.4404
11.108	64.4423
11.126	64.4492
11.144	64.4615
11.162	64.4734
11.18	64.479
11.198	64.4763
11.216	64.4693
11.234	64.4641
11.252	64.4649
11.27	64.4689
11.288	64.4662
11.306	64.4442
11.324	64.3911
11.342	64.3022
11.36	64.1831
11.378	64.0508
11.396	63.9281
11.414	63.839
11.432	63.8
11.45	63.8142
11.468	63.8721
11.486	63.9556
11.504	64.0447
11.522	64.1229
11.54	64.1817
11.558	64.219
11.576	64.2378
11.594	64.2428
11.612	64.2385
11.63	64.2291
11.648	64.218
11.666	64.2094
11.684	64.206
11.702	64.2085
11.72	64.2151
11.738	64.2213
11.756	64.2227
11.774	64.2174
11.792	64.2083
11.81	64.2031
11.828	64.2112
11.846	64.2392
11.864	64.2866
11.882	64.3447
11.9	64.3989
11.918	64.432
11.936	64.4316
11.954	64.3934
11.972	64.3229
11.99	64.2339
12.008	64.1451
12.026	64.0747
12.044	64.0366
12.062	64.0358
12.08	64.0678
12.098	64.1211
12.116	64.1796
12.134	64.2281
12.152	64.2563
12.17	64.2617
12.188	64.2496
12.206	64.2306
12.224	64.2159
12.242	64.2134
12.26	64.2251
12.278	64.2465
12.296	64.2688
12.314	64.2823
12.332	64.28
12.35	64.2593
12.368	64.2223
12.386	64.1747
12.404	64.1239
12.422	64.0773
12.44	64.0406
12.458	64.0175
12.476	64.0101
12.494	64.0185
12.512	64.0407
12.53	64.072
12.548	64.1051
12.566	64.1314
12.584	64.1427
12.602	64.1336
12.62	64.1027
12.638	64.0528
12.656	63.9909
12.674	63.9253
12.692	63.8646
12.71	63.816
12.728	63.7852
12.746	63.7748
12.764	63.785
12.782	63.8133
12.8	63.8553
12.818	63.9051
12.836	63.9553
12.854	63.9993
12.872	64.0311
12.89	64.0472
12.908	64.0471
12.926	64.0328
12.944	64.0087
12.962	63.9795
12.98	63.949
12.998	63.9198
13.016	63.8923
13.034	63.8656
13.052	63.838
13.07	63.8078
13.088	63.7731
13.106	63.7324
13.124	63.6838
13.142	63.6265
13.16	63.5605
13.178	63.4884
13.196	63.4144
13.214	63.3456
13.232	63.2902
13.25	63.2561
13.268	63.2488
13.286	63.269
13.304	63.3125
13.322	63.3694
13.34	63.4264
13.358	63.4698
13.376	63.4888
13.394	63.4784
13.412	63.4402
13.43	63.3833
13.448	63.3213
13.466	63.2697
13.484	63.2418
13.502	63.2463
13.52	63.285
13.538	63.3536
13.556	63.4419
13.574	63.5367
13.592	63.6241
13.61	63.6931
13.628	63.7362
13.646	63.7503
13.664	63.7365
13.682	63.6987
13.7	63.6423
13.718	63.5729
13.736	63.4954
13.754	63.4142
13.772	63.3328
13.79	63.2547
13.808	63.1837
13.826	63.1238
13.844	63.0791
13.862	63.0526
13.88	63.0459
13.898	63.0578
13.916	63.0849
13.934	63.1221
13.952	63.1629
13.97	63.2011
13.988	63.2313
14.006	63.2508
14.024	63.2601
14.042	63.2623
14.06	63.2621
14.078	63.265
14.096	63.2751
14.114	63.295
14.132	63.3242
14.15	63.3594
14.168	63.3952
14.186	63.4249
14.204	63.4421
14.222	63.4417
14.24	63.4219
14.258	63.3841
14.276	63.3327
14.294	63.2745
14.312	63.217
14.33	63.1678
14.348	63.133
14.366	63.1165
14.384	63.1186
14.402	63.1367
14.42	63.1656
14.438	63.199
14.456	63.2302
14.474	63.253
14.492	63.2622
14.51	63.2545
14.528	63.229
14.546	63.1871
14.564	63.1313
14.582	63.0654
14.6	62.9935
14.618	62.9203
14.636	62.8506
14.654	62.7883
14.672	62.7371
14.69	62.6996
14.708	62.6776
14.726	62.6721
14.744	62.6826
14.762	62.7072
14.78	62.7426
14.798	62.7844
14.816	62.8279
14.834	62.8674
14.852	62.8972
14.87	62.9132
14.888	62.9129
14.906	62.8953
14.924	62.8617
14.942	62.8154
14.96	62.7619
14.978	62.707
14.996	62.6566
15.014	62.6163
15.032	62.5908
15.05	62.5822
15.068	62.5905
15.086	62.614
15.104	62.6495
15.122	62.692
15.14	62.7365
15.158	62.7786
15.176	62.8144
15.194	62.8411
15.212	62.8572
15.23	62.8629
15.248	62.8588
15.266	62.8463
15.284	62.8272
15.302	62.803
15.32	62.7749
15.338	62.7433
15.356	62.7084
15.374	62.6706
15.392	62.6301
15.41	62.5877
15.428	62.5447
15.446	62.5031
15.464	62.4652
15.482	62.4332
15.5	62.4092
15.518	62.3948
15.536	62.3896
15.554	62.3925
15.572	62.4015
15.59	62.4124
15.608	62.4215
15.626	62.4254
15.644	62.4207
15.662	62.4051
15.68	62.3784
15.698	62.3414
15.716	62.2964
15.734	62.2477
15.752	62.1988
15.77	62.1536
15.788	62.1166
15.806	62.0903
15.824	62.0759
15.842	62.0742
15.86	62.0835
15.878	62.1018
15.896	62.1269
15.914	62.1552
15.932	62.184
15.95	62.2115
15.968	62.2355
15.986	62.2551
16.004	62.2705
16.022	62.2819
16.04	62.2901
16.058	62.2963
16.076	62.3012
16.094	62.3057
16.112	62.3102
16.13	62.3151
16.148	62.3206
16.166	62.3266
16.184	62.3328
16.202	62.339
16.22	62.3449
16.238	62.3502
16.256	62.355
16.274	62.3589
16.292	62.3616
16.31	62.3631
16.328	62.3623
16.346	62.3588
16.364	62.352
16.382	62.3405
16.4	62.3235
16.418	62.3002
16.436	62.2696
16.454	62.2316
16.472	62.186
16.49	62.1336
16.508	62.0758
16.526	62.0135
16.544	61.9495
16.562	61.8856
16.58	61.8235
16.598	61.7658
16.616	61.7135
16.634	61.6678
16.652	61.6292
16.67	61.5971
16.688	61.5716
16.706	61.5511
16.724	61.5351
16.742	61.5225
16.76	61.5123
16.778	61.5042
16.796	61.498
16.814	61.4938
16.832	61.492
16.85	61.4936
16.868	61.4989
16.886	61.5083
16.904	61.5221
16.922	61.5401
16.94	61.5619
16.958	61.5862
16.976	61.6124
16.994	61.6382
17.012	61.6622
17.03	61.6831
17.048	61.6991
17.066	61.7095
17.084	61.7135
17.102	61.7113
17.12	61.7028
17.138	61.6891
17.156	61.6711
17.174	61.6495
17.192	61.626
17.21	61.601
17.228	61.5754
17.246	61.5492
17.264	61.5225
17.282	61.4944
17.3	61.4645
17.318	61.4315
17.336	61.3946
17.354	61.3532
17.372	61.3067
17.39	61.2553
17.408	61.1992
17.426	61.14
17.444	61.0785
17.462	61.0178
17.48	60.9593
17.498	60.9061
17.516	60.8601
17.534	60.8232
17.552	60.7974
17.57	60.7831
17.588	60.7811
17.606	60.7902
17.624	60.8096
17.642	60.8364
17.66	60.8693
17.678	60.9037
17.696	60.9384
17.714	60.9691
17.732	60.9943
17.75	61.0115
17.768	61.0196
17.786	61.0179
17.804	61.0065
17.822	60.9858
17.84	60.9575
17.858	60.9232
17.876	60.8844
17.894	60.8439
17.912	60.8027
17.93	60.7634
17.948	60.7264
17.966	60.6935
17.984	60.6646
18.002	60.6403
18.02	60.6199
18.038	60.6033
18.056	60.5895
18.074	60.5782
18.092	60.5682
18.11	60.5593
18.128	60.5508
18.146	60.5427
18.164	60.5347
18.182	60.5268
18.2	60.5193
18.218	60.5124
18.236	60.5062
18.254	60.5015
18.272	60.4985
18.29	60.4976
18.308	60.4989
18.326	60.503
18.344	60.5097
18.362	60.5195
18.38	60.5323
18.398	60.5484
18.416	60.568
18.434	60.5913
18.452	60.6184
18.47	60.6495
18.488	60.6842
18.506	60.7227
18.524	60.7638
18.542	60.8075
18.56	60.8522
18.578	60.8978
18.596	60.9418
18.614	60.9842
18.632	61.0219
18.65	61.0549
18.668	61.0806
18.686	61.0991
18.704	61.1088
18.722	61.1099
18.74	61.1023
18.758	61.0866
18.776	61.0639
18.794	61.0352
18.812	61.0026
18.83	60.9675
18.848	60.9328
18.866	60.8993
18.884	60.8694
18.902	60.8436
18.92	60.8233
18.938	60.8079
18.956	60.7974
18.974	60.7905
18.992	60.7859
19.01	60.7815
19.028	60.7749
19.046	60.7643
19.064	60.7464
19.082	60.7204
19.1	60.6832
19.118	60.635
19.136	60.574
19.154	60.5012
19.172	60.4171
19.19	60.323
19.208	60.2222
19.226	60.1157
19.244	60.0085
19.262	59.9012
19.28	59.8002
19.298	59.7054
19.316	59.6228
19.334	59.5521
19.352	59.4978
19.37	59.4595
19.388	59.4384
19.406	59.4348
19.424	59.4468
19.442	59.4749
19.46	59.515
19.478	59.5672
19.496	59.627
19.514	59.6937
19.532	59.7634
19.55	59.8338
19.568	59.9032
19.586	59.9688
19.604	60.0307
19.622	60.0866
19.64	60.1374
19.658	60.1832
19.676	60.2241
19.694	60.2619
19.712	60.2962
19.73	60.3301
19.748	60.3634
19.766	60.3984
19.784	60.4357
19.802	60.4761
19.82	60.5204
19.838	60.568
19.856	60.619
19.874	60.6728
19.892	60.7272
19.91	60.7826
19.928	60.8351
19.946	60.8855
19.964	60.9299
19.982	60.9682
20	60.9983
20.018	61.0188
20.036	61.0296
20.054	61.0291
20.072	61.0179
20.09	60.996
20.108	60.9633
20.126	60.9219
20.144	60.8714
20.162	60.8145
20.18	60.7519
20.198	60.685
20.216	60.6163
20.234	60.5456
20.252	60.4757
20.27	60.406
20.288	60.3385
20.306	60.2735
20.324	60.2109
20.342	60.1514
20.36	60.0944
20.378	60.0399
20.396	59.9877
20.414	59.9364
20.432	59.8863
20.45	59.8364
20.468	59.7864
20.486	59.7359
20.504	59.6842
20.522	59.6314
20.54	59.5769
20.558	59.5209
20.576	59.4631
20.594	59.4036
20.612	59.3425
20.63	59.2799
20.648	59.2158
20.666	59.1505
20.684	59.0841
20.702	59.0168
20.72	58.9487
20.738	58.8798
20.756	58.8104
20.774	58.7406
20.792	58.6703
20.81	58.5993
20.828	58.528
20.846	58.4567
20.864	58.3852
20.882	58.3148
20.9	58.245
20.918	58.177
20.936	58.1115
20.954	58.0485
20.972	57.9895
20.99	57.9341
21.008	57.8836
21.026	57.8384
21.044	57.7985
21.062	57.7652
21.08	57.738
21.098	57.7172
21.116	57.7031
21.134	57.6951
21.152	57.6928
21.17	57.6963
21.188	57.7044
21.206	57.7171
21.224	57.7339
21.242	57.7535
21.26	57.7764
21.278	57.8011
21.296	57.8276
21.314	57.8556
21.332	57.8841
21.35	57.9135
21.368	57.9431
21.386	57.9726
21.404	58.0021
21.422	58.0311
21.44	58.0597
21.458	58.0877
21.476	58.1149
21.494	58.1414
21.512	58.1668
21.53	58.1912
21.548	58.2143
21.566	58.236
21.584	58.2561
21.602	58.2744
21.62	58.2906
21.638	58.3049
21.656	58.317
21.674	58.3271
21.692	58.335
21.71	58.3406
21.728	58.3441
21.746	58.3457
21.764	58.3452
21.782	58.3428
21.8	58.3384
21.818	58.332
21.836	58.3236
21.854	58.3136
21.872	58.3016
21.89	58.2873
21.908	58.2708
21.926	58.2517
21.944	58.2298
21.962	58.2051
21.98	58.1765
21.998	58.1442
22.016	58.1079
22.034	58.0665
22.052	58.0204
22.07	57.9691
22.088	57.9121
22.106	57.8496
22.124	57.7819
22.142	57.7088
22.16	57.6307
22.178	57.5487
22.196	57.4621
22.214	57.3726
22.232	57.2817
22.25	57.1886
22.268	57.0956
22.286	57.0039
22.304	56.9128
22.322	56.8248
22.34	56.7403
22.358	56.6593
22.376	56.5836
22.394	56.5131
22.412	56.448
22.43	56.3894
22.448	56.3368
22.466	56.2905
22.484	56.2508
22.502	56.2174
22.52	56.19
22.538	56.1688
22.556	56.1535
22.574	56.1436
22.592	56.139
22.61	56.1398
22.628	56.1451
22.646	56.1553
22.664	56.1699
22.682	56.1884
22.7	56.2109
22.718	56.237
22.736	56.2662
22.754	56.2986
22.772	56.334
22.79	56.372
22.808	56.4129
22.826	56.4562
22.844	56.5018
22.862	56.5499
22.88	56.5992
22.898	56.6493
22.916	56.7005
22.934	56.7509
22.952	56.8002
22.97	56.8485
22.988	56.8942
23.006	56.9371
23.024	56.9772
23.042	57.0126
23.06	57.0432
23.078	57.069
23.096	57.0888
23.114	57.1027
23.132	57.1105
23.15	57.1111
23.168	57.1046
23.186	57.0909
23.204	57.0696
23.222	57.0405
23.24	57.0038
23.258	56.9591
23.276	56.9065
23.294	56.8459
23.312	56.7772
23.33	56.7001
23.348	56.615
23.366	56.5226
23.384	56.4223
23.402	56.3149
23.42	56.2018
23.438	56.0827
23.456	55.958
23.474	55.8307
23.492	55.7005
23.51	55.5676
23.528	55.4356
23.546	55.3048
23.564	55.1747
23.582	55.0498
23.6	54.9311
23.618	54.8173
23.636	54.7127
23.654	54.6193
23.672	54.5352
23.69	54.4635
23.708	54.4062
23.726	54.3621
23.744	54.332
23.762	54.3173
23.78	54.318
23.798	54.3326
23.816	54.3602
23.834	54.4022
23.852	54.4563
23.87	54.5192
23.888	54.5935
23.906	54.6762
23.924	54.7608
23.942	54.8485
23.96	54.9388
23.978	55.0245
23.996	55.1032
24.014	55.1775
24.032	55.2431
24.05	55.2966
24.068	55.3398
24.086	55.3731
24.104	55.3963
24.122	55.4074
24.14	55.4107
24.158	55.4111
24.176	55.4048
24.194	55.3954
24.212	55.3924
24.23	55.3954
24.248	55.4028
24.266	55.4261
24.284	55.4714
24.302	55.5325
24.32	55.6172
24.338	55.7334
24.356	55.8767
24.374	56.0496
24.392	56.257
24.41	56.5005
24.428	56.7773
24.446	57.0844
24.464	57.4237
24.482	57.7968
24.5	58.1902
24.518	58.5938
24.536	59.0188
24.554	59.4514
24.572	59.8726
24.59	60.2889
24.608	60.6982
24.626	61.082
24.644	61.4323
24.662	61.7588
24.68	62.0494
24.698	62.2925
24.716	62.4935
24.734	62.6513
24.752	62.7606
24.77	62.818
24.788	62.827
24.806	62.7933
24.824	62.7188
24.842	62.5969
24.86	62.4409
24.878	62.2662
24.896	62.0644
24.914	61.8398
24.932	61.6124
24.95	61.3911
24.968	61.1631
24.986	60.9461
25.004	60.7589
25.022	60.5942
25.04	60.4533
25.058	60.3479
25.076	60.2851
25.094	60.2589
25.112	60.2692
25.13	60.3162
25.148	60.4048
25.166	60.5288
25.184	60.6778
25.202	60.8496
25.22	61.0518
25.238	61.2681
25.256	61.4817
25.274	61.7018
25.292	61.9247
25.31	62.134
25.328	62.3199
25.346	62.4929
25.364	62.6451
25.382	62.7667
25.4	62.8548
25.418	62.9148
25.436	62.9501
25.454	62.9617
25.472	62.9416
25.49	62.903
25.508	62.8624
25.526	62.8175
25.544	62.7609
25.562	62.7188
25.58	62.7153
25.598	62.7321
25.616	62.7784
25.634	62.8814
25.652	63.0573
25.67	63.2864
25.688	63.584
25.706	63.9697
25.724	64.4483
25.742	65.0102
25.76	65.6576
25.778	66.3932
25.796	67.2242
25.814	68.1403
25.832	69.126
25.85	70.1754
25.868	71.3089
25.886	72.4961
25.904	73.701
25.922	74.9239
25.94	76.1852
25.958	77.4383
25.976	78.6365
25.994	79.8068
26.012	80.9462
26.03	82.0013
26.048	82.9269
26.066	83.7648
26.084	84.494
26.102	85.0676
26.12	85.4557
26.138	85.6949
26.156	85.7626
26.174	85.628
26.192	85.2773
26.21	84.7303
26.228	83.9805
26.246	83.0204
26.264	81.8403
26.282	80.4477
26.3	78.862
26.318	77.102
26.336	75.1454
26.354	73.0025
26.372	70.7154
26.39	68.3217
26.408	65.7788
26.426	63.1105
26.444	60.376
26.462	57.6223
26.48	54.7926
26.498	51.922
26.516	49.0752
26.534	46.2969
26.552	43.5276
26.57	40.8062
26.588	38.1927
26.606	35.7233
26.624	33.3472
26.642	31.0963
26.66	29.015
26.678	27.1284
26.696	25.4023
26.714	23.8533
26.732	22.5044
26.75	21.3699
26.768	20.4356
26.786	19.699
26.804	19.1594
26.822	18.821
26.84	18.6895
26.858	18.7454
26.876	18.9682
26.894	19.3534
26.912	19.923
26.93	20.6463
26.948	21.4894
26.966	22.5032
26.984	23.8159
27.002	25.1533
27.02	26.2151
27.028	26.4903