File: Bakgrunnsmateriale/MATLAB/FTIR/ftir_data/subBb/Mapping_121/C-4040-8_e123.asc
PE IR       SPECTRUM    SPECTRUM    ASCII       PEDS        1.60
  -1
C-78C3~1.ASC
17/03/27
16:18:59.00
17/03/27
16:19:26.00
tln
$C-4040-8_e0123$<ebV0>[-23.3,12.1,10.0,0.0,27,1,0]
27.028
64

2002,4.07
MIRTGS : RIGHTBACK : INTERNAL 2
MIR : ON : INTERNAL 2
OPTKBR

0.200000
8
8.000000
FILLER
SINGLE
SPECTRUM
UNLOCKED 256

DOUBLE

COMBINED
1
0
0

0.002000
BACKG

1
0
TRUE
51149
0
LEFT NOT FITTED RIGHT NOT FITTED 0
NONE
NONE
15600
12
4.427000
51148
TRUE
1 0 8 72 0 0 0 0

15798

#HDR
-1
-1
#GR
µM
EGY
2.38419e-05
0.0
2.000000
0.002000
12515
8
2.455999
0.008106
#DATA
2.000000	 0.769138
2.018000	 0.783960
2.036000	 0.802870
2.054000	 0.821845
2.072000	 0.846631
2.090000	 0.876162
2.108000	 0.893100
2.126000	 0.904714
2.144000	 0.909801
2.162000	 0.924112
2.180000	 0.945636
2.198000	 0.972137
2.216000	 0.991353
2.234000	 1.004619
2.252000	 1.010591
2.270000	 1.016327
2.288000	 0.978122
2.306000	 1.079202
2.324000	 1.116725
2.342000	 1.147145
2.360000	 1.174282
2.378000	 1.190009
2.396000	 1.205508
2.414000	 1.219741
2.432000	 1.253387
2.450000	 1.287375
2.468000	 1.331346
2.486000	 1.366281
2.504000	 1.394549
2.522000	 1.407911
2.540000	 1.419757
2.558000	 1.430437
2.576000	 1.434450
2.594000	 1.446035
2.612000	 1.487287
2.630000	 1.511016
2.648000	 1.547226
2.666000	 1.544943
2.684000	 1.567873
2.702000	 1.574707
2.720000	 1.566379
2.738000	 1.569543
2.756000	 1.574354
2.774000	 1.591309
2.792000	 1.602880
2.810000	 1.618480
2.828000	 1.624030
2.846000	 1.626206
2.864000	 1.621468
2.882000	 1.611089
2.900000	 1.594323
2.918000	 1.585527
2.936000	 1.596382
2.954000	 1.608788
2.972000	 1.629045
2.990000	 1.659507
3.008000	 1.689147
3.026000	 1.716504
3.044000	 1.743309
3.062000	 1.762024
3.080000	 1.776769
3.098000	 1.786667
3.116000	 1.793734
3.134000	 1.792545
3.152000	 1.800967
3.170000	 1.811533
3.188000	 1.825903
3.206000	 1.845818
3.224000	 1.874353
3.242000	 1.909285
3.260000	 1.933647
3.278000	 1.962090
3.296000	 1.976992
3.314000	 1.963394
3.332000	 2.024923
3.350000	 2.026924
3.368000	 1.963742
3.386000	 1.922917
3.404000	 1.830683
3.422000	 1.783400
3.440000	 1.933672
3.458000	 1.986115
3.476000	 2.005632
3.494000	 1.909690
3.512000	 2.013668
3.530000	 2.102277
3.548000	 2.143266
3.566000	 2.172746
3.584000	 2.196664
3.602000	 2.225521
3.620000	 2.241489
3.638000	 2.251144
3.656000	 2.258406
3.674000	 2.256621
3.692000	 2.251030
3.710000	 2.241226
3.728000	 2.238058
3.746000	 2.226554
3.764000	 2.221360
3.782000	 2.220617
3.800000	 2.217113
3.818000	 2.222032
3.836000	 2.224906
3.854000	 2.229564
3.872000	 2.242986
3.890000	 2.261371
3.908000	 2.277726
3.926000	 2.288778
3.944000	 2.302880
3.962000	 2.313988
3.980000	 2.325850
3.998000	 2.329170
4.016000	 2.330116
4.034000	 2.324149
4.052000	 2.316421
4.070000	 2.307202
4.088000	 2.294281
4.106000	 2.285898
4.124000	 2.274545
4.141999	 2.260946
4.160000	 2.259420
4.178000	 2.249845
4.196000	 2.247400
4.214000	 2.239976
4.232000	 2.233831
4.250000	 2.254832
4.268000	 2.265204
4.286000	 2.276850
4.304000	 2.295595
4.322000	 2.314872
4.340000	 2.330950
4.358000	 2.347802
4.375999	 2.358336
4.394000	 2.369018
4.412000	 2.376509
4.430000	 2.380577
4.448000	 2.382030
4.466000	 2.383035
4.484000	 2.380118
4.502000	 2.380294
4.520000	 2.370594
4.538000	 2.361321
4.556000	 2.353245
4.574000	 2.346837
4.592000	 2.339415
4.609999	 2.337136
4.628000	 2.336138
4.646000	 2.338133
4.664000	 2.335685
4.682000	 2.333851
4.700000	 2.334482
4.718000	 2.336813
4.736000	 2.339808
4.754000	 2.339663
4.772000	 2.339709
4.790000	 2.337101
4.808000	 2.342528
4.826000	 2.359555
4.843999	 2.373804
4.862000	 2.388486
4.880000	 2.406882
4.898000	 2.423266
4.916000	 2.434340
4.934000	 2.441509
4.952000	 2.447864
4.970000	 2.452314
4.988000	 2.454835
5.006000	 2.455894
5.024000	 2.454355
5.042000	 2.452276
5.060000	 2.446876
5.077999	 2.442028
5.096000	 2.435148
5.114000	 2.428204
5.132000	 2.425232
5.150000	 2.419729
5.168000	 2.411939
5.186000	 2.403557
5.204000	 2.396886
5.222000	 2.390531
5.240000	 2.385168
5.258000	 2.379987
5.276000	 2.374081
5.294000	 2.374203
5.312000	 2.376407
5.330000	 2.377866
5.348000	 2.378070
5.366000	 2.383200
5.384000	 2.390010
5.402000	 2.395167
5.420000	 2.395524
5.438000	 2.403263
5.456000	 2.407610
5.474000	 2.411131
5.492000	 2.420830
5.510000	 2.427954
5.528000	 2.432175
5.546000	 2.434161
5.564000	 2.430592
5.582000	 2.428649
5.600000	 2.429726
5.618000	 2.428668
5.636000	 2.418482
5.654000	 2.413105
5.672000	 2.411097
5.690000	 2.402755
5.708000	 2.385923
5.726000	 2.369584
5.744000	 2.349395
5.762000	 2.325980
5.780000	 2.323987
5.798000	 2.325860
5.816000	 2.309375
5.834000	 2.300932
5.852000	 2.295082
5.870000	 2.271308
5.888000	 2.251099
5.906000	 2.256542
5.923999	 2.250564
5.942000	 2.239100
5.960000	 2.237570
5.978000	 2.227558
5.996000	 2.220033
6.014000	 2.211672
6.032000	 2.190296
6.050000	 2.164719
6.068000	 2.160839
6.086000	 2.160252
6.104000	 2.147874
6.122000	 2.136023
6.140000	 2.127032
6.158000	 2.105890
6.176000	 2.070922
6.194000	 2.023494
6.212000	 1.980855
6.230000	 1.971760
6.248000	 1.991494
6.266000	 2.008745
6.284000	 2.014276
6.302000	 2.010590
6.320000	 1.999790
6.338000	 1.986934
6.356000	 1.981642
6.374000	 1.977487
6.392000	 1.958226
6.410000	 1.931734
6.428000	 1.933103
6.446000	 1.953244
6.464000	 1.958574
6.482000	 1.961971
6.500000	 1.999448
6.518000	 2.058378
6.536000	 2.098634
6.554000	 2.112001
6.572000	 2.111904
6.590000	 2.107697
6.608000	 2.096519
6.626000	 2.072215
6.644000	 2.019163
6.662000	 1.894881
6.680000	 1.731140
6.698000	 1.672417
6.716000	 1.758378
6.734000	 1.877103
6.752000	 1.948571
6.770000	 1.973016
6.788000	 1.975575
6.806000	 1.969588
6.824000	 1.950279
6.842000	 1.906549
6.860000	 1.836703
6.878000	 1.772946
6.896000	 1.762192
6.914000	 1.801725
6.932000	 1.842857
6.950000	 1.860659
6.968000	 1.866425
6.986000	 1.870140
7.004000	 1.870837
7.022000	 1.866057
7.040000	 1.857157
7.058000	 1.846541
7.076000	 1.826443
7.094000	 1.788358
7.112000	 1.745568
7.130000	 1.726017
7.148000	 1.739434
7.166000	 1.768467
7.184000	 1.788452
7.202000	 1.789373
7.220000	 1.784755
7.238000	 1.790947
7.256000	 1.803454
7.274000	 1.812192
7.292000	 1.817131
7.310000	 1.819613
7.328000	 1.818949
7.346000	 1.817149
7.364000	 1.815805
7.382000	 1.814904
7.400000	 1.814547
7.418000	 1.814970
7.436000	 1.815624
7.454000	 1.816818
7.472000	 1.820636
7.490000	 1.828434
7.508000	 1.838076
7.526000	 1.845761
7.544000	 1.850114
7.562000	 1.852629
7.580000	 1.854585
7.598000	 1.855952
7.616000	 1.856470
7.634000	 1.856047
7.652000	 1.855224
7.670000	 1.855145
7.688000	 1.856001
7.706000	 1.856709
7.724000	 1.856286
7.742000	 1.855283
7.760000	 1.854644
7.778000	 1.853822
7.796000	 1.851136
7.814000	 1.845227
7.832000	 1.835381
7.850000	 1.819631
7.868000	 1.795095
7.886000	 1.762270
7.904000	 1.730185
7.922000	 1.713542
7.940000	 1.721189
7.958000	 1.748030
7.976000	 1.779723
7.994000	 1.804453
8.012000	 1.819518
8.030000	 1.827742
8.048000	 1.831857
8.065999	 1.833146
8.084000	 1.832396
8.102000	 1.830001
8.120000	 1.826296
8.138000	 1.821737
8.155999	 1.816535
8.173999	 1.810037
8.192000	 1.800781
8.210000	 1.788535
8.228000	 1.774832
8.246000	 1.762209
8.263999	 1.752848
8.282000	 1.747669
8.300000	 1.745909
8.318000	 1.745617
8.336000	 1.745319
8.353999	 1.744430
8.372000	 1.742490
8.390000	 1.739329
8.408000	 1.735276
8.426000	 1.730330
8.443999	 1.724178
8.462000	 1.716599
8.480000	 1.708109
8.498000	 1.699626
8.516000	 1.691302
8.533999	 1.682469
8.552000	 1.672569
8.570000	 1.661633
8.588000	 1.650000
8.606000	 1.638319
8.624000	 1.627771
8.641999	 1.619302
8.660000	 1.613248
8.678000	 1.609183
8.696000	 1.606023
8.714000	 1.602738
8.731999	 1.598675
8.750000	 1.593742
8.768000	 1.587829
8.786000	 1.580765
8.804000	 1.572486
8.821999	 1.563268
8.840000	 1.553496
8.858000	 1.543392
8.876000	 1.532933
8.894000	 1.522088
8.911999	 1.510710
8.930000	 1.498818
8.948000	 1.486715
8.966000	 1.474763
8.984000	 1.463539
9.001999	 1.453195
9.020000	 1.443763
9.038000	 1.435774
9.056000	 1.429698
9.074000	 1.425418
9.092000	 1.422470
9.109999	 1.420517
9.128000	 1.419623
9.146000	 1.419896
9.164000	 1.421082
9.182000	 1.422516
9.199999	 1.423713
9.218000	 1.424448
9.236000	 1.424835
9.254000	 1.425221
9.272000	 1.425949
9.289999	 1.427517
9.308000	 1.430015
9.326000	 1.433218
9.344000	 1.436498
9.362000	 1.439142
9.379999	 1.440417
9.398000	 1.439410
9.416000	 1.434389
9.434000	 1.422681
9.452000	 1.401656
9.469999	 1.371862
9.488000	 1.338806
9.506000	 1.312018
9.524000	 1.300232
9.542000	 1.306068
9.560000	 1.324895
9.577999	 1.347972
9.596000	 1.367489
9.614000	 1.379675
9.632000	 1.384724
9.650000	 1.384635
9.667999	 1.381643
9.686000	 1.377327
9.704000	 1.372762
9.722000	 1.368467
9.740000	 1.364535
9.757999	 1.360996
9.776000	 1.358138
9.794000	 1.356495
9.812000	 1.356742
9.830000	 1.359186
9.847999	 1.363626
9.866000	 1.369357
9.884000	 1.375676
9.902000	 1.381928
9.920000	 1.387691
9.937999	 1.392705
9.956000	 1.396773
9.974000	 1.399728
9.992000	 1.401614
10.01	1.402711
10.028	1.403185
10.046	1.402842
10.064	1.401335
10.082	1.398276
10.1	1.393724
10.118	1.388279
10.136	1.382992
10.154	1.378714
10.172	1.375859
10.19	1.374155
10.208	1.372739
10.226	1.370817
10.244	1.367874
10.262	1.363875
10.28	1.359113
10.298	1.354071
10.316	1.348947
10.334	1.343872
10.352	1.338806
10.37	1.333610
10.388	1.328206
10.406	1.322546
10.424	1.316385
10.442	1.309687
10.46	1.302510
10.478	1.295213
10.496	1.288253
10.514	1.282127
10.532	1.276934
10.55	1.272722
10.568	1.269296
10.586	1.266438
10.604	1.264055
10.622	1.261996
10.64	1.259960
10.658	1.257604
10.676	1.254671
10.694	1.251114
10.712	1.247121
10.73	1.243127
10.748	1.239498
10.766	1.236340
10.784	1.233426
10.802	1.230491
10.82	1.227187
10.838	1.223358
10.856	1.218906
10.874	1.213883
10.892	1.208348
10.91	1.202365
10.928	1.196170
10.946	1.189919
10.964	1.183946
10.982	1.178334
11	1.173263
11.018	1.168740
11.036	1.164750
11.054	1.161273
11.072	1.158324
11.09	1.155869
11.108	1.153824
11.126	1.151995
11.144	1.150061
11.162	1.147782
11.18	1.144929
11.198	1.141238
11.216	1.136502
11.234	1.130403
11.252	1.122768
11.27	1.113436
11.288	1.102447
11.306	1.090031
11.324	1.076882
11.342	1.063713
11.36	1.051511
11.378	1.041207
11.396	1.033607
11.414	1.029332
11.432	1.028623
11.45	1.031320
11.468	1.036899
11.486	1.044501
11.504	1.053135
11.522	1.061869
11.54	1.069963
11.558	1.076835
11.576	1.082353
11.594	1.086591
11.612	1.089569
11.63	1.091487
11.648	1.092484
11.666	1.092662
11.684	1.092084
11.702	1.090879
11.72	1.089245
11.738	1.087299
11.756	1.085180
11.774	1.083088
11.792	1.081017
11.81	1.078980
11.828	1.076898
11.846	1.074581
11.864	1.071689
11.882	1.067931
11.9	1.062706
11.918	1.055564
11.936	1.045962
11.954	1.033425
11.972	1.017713
11.99	0.998745
12.008	0.976945
12.026	0.952987
12.044	0.928077
12.062	0.903824
12.08	0.882019
12.098	0.864366
12.116	0.852339
12.134	0.846862
12.152	0.848016
12.17	0.855072
12.188	0.866688
12.206	0.881063
12.224	0.896293
12.242	0.910786
12.26	0.923366
12.278	0.933410
12.296	0.940745
12.314	0.945613
12.332	0.948437
12.35	0.949654
12.368	0.949749
12.386	0.949199
12.404	0.948304
12.422	0.947303
12.44	0.946407
12.458	0.945864
12.476	0.945691
12.494	0.945962
12.512	0.946754
12.53	0.948011
12.548	0.949644
12.566	0.951616
12.584	0.953914
12.602	0.956439
12.62	0.959110
12.638	0.961852
12.656	0.964593
12.674	0.967249
12.692	0.969695
12.71	0.971885
12.728	0.973743
12.746	0.975267
12.764	0.976377
12.782	0.977089
12.8	0.977508
12.818	0.977630
12.836	0.977639
12.854	0.977487
12.872	0.977303
12.89	0.977092
12.908	0.976861
12.926	0.976603
12.944	0.976228
12.962	0.975749
12.98	0.975121
12.998	0.974283
13.016	0.973244
13.034	0.972061
13.052	0.970744
13.07	0.969363
13.088	0.968004
13.106	0.966773
13.124	0.965704
13.142	0.964895
13.16	0.964267
13.178	0.963821
13.196	0.963509
13.214	0.963183
13.232	0.962793
13.25	0.962244
13.268	0.961455
13.286	0.960427
13.304	0.959092
13.322	0.957547
13.34	0.955757
13.358	0.953770
13.376	0.951595
13.394	0.949293
13.412	0.946883
13.43	0.944424
13.448	0.941966
13.466	0.939506
13.484	0.937087
13.502	0.934734
13.52	0.932437
13.538	0.930132
13.556	0.927818
13.574	0.925487
13.592	0.923065
13.61	0.920560
13.628	0.917957
13.646	0.915220
13.664	0.912477
13.682	0.909719
13.7	0.906950
13.718	0.904234
13.736	0.901523
13.754	0.898887
13.772	0.896282
13.79	0.893662
13.808	0.891051
13.826	0.888409
13.844	0.885747
13.862	0.883066
13.88	0.880413
13.898	0.877801
13.916	0.875213
13.934	0.872663
13.952	0.870145
13.97	0.867612
13.988	0.865079
14.006	0.862443
14.024	0.859671
14.042	0.856789
14.06	0.853758
14.078	0.850575
14.096	0.847248
14.114	0.843854
14.132	0.840434
14.15	0.836997
14.168	0.833571
14.186	0.830158
14.204	0.826817
14.222	0.823503
14.24	0.820183
14.258	0.816840
14.276	0.813439
14.294	0.809897
14.312	0.806123
14.33	0.802032
14.348	0.797513
14.366	0.792491
14.384	0.786932
14.402	0.780888
14.42	0.774405
14.438	0.767649
14.456	0.760840
14.474	0.754209
14.492	0.748065
14.51	0.742610
14.528	0.738079
14.546	0.734602
14.564	0.732226
14.582	0.730900
14.6	0.730484
14.618	0.730811
14.636	0.731607
14.654	0.732674
14.672	0.733813
14.69	0.734841
14.708	0.735621
14.726	0.736115
14.744	0.736264
14.762	0.736020
14.78	0.735425
14.798	0.734517
14.816	0.733311
14.834	0.731837
14.852	0.730125
14.87	0.728198
14.888	0.726102
14.906	0.723884
14.924	0.721582
14.942	0.719269
14.96	0.716994
14.978	0.714808
14.996	0.712740
15.014	0.710784
15.032	0.708955
15.05	0.707258
15.068	0.705654
15.086	0.704097
15.104	0.702554
15.122	0.701002
15.14	0.699416
15.158	0.697775
15.176	0.696061
15.194	0.694278
15.212	0.692428
15.23	0.690506
15.248	0.688531
15.266	0.686538
15.284	0.684520
15.302	0.682481
15.32	0.680411
15.338	0.678304
15.356	0.676176
15.374	0.674023
15.392	0.671856
15.41	0.669680
15.428	0.667477
15.446	0.665272
15.464	0.663109
15.482	0.661008
15.5	0.658963
15.518	0.657021
15.536	0.655161
15.554	0.653364
15.572	0.651608
15.59	0.649903
15.608	0.648201
15.626	0.646470
15.644	0.644706
15.662	0.642874
15.68	0.640953
15.698	0.638933
15.716	0.636839
15.734	0.634705
15.752	0.632549
15.77	0.630386
15.788	0.628257
15.806	0.626156
15.824	0.624089
15.842	0.622079
15.86	0.620139
15.878	0.618242
15.896	0.616356
15.914	0.614492
15.932	0.612610
15.95	0.610693
15.968	0.608759
15.986	0.606807
16.004	0.604831
16.022	0.602822
16.04	0.600777
16.058	0.598724
16.076	0.596679
16.094	0.594657
16.112	0.592624
16.13	0.590571
16.148	0.588524
16.166	0.586409
16.184	0.584209
16.202	0.581916
16.22	0.579475
16.238	0.576867
16.256	0.574074
16.274	0.571049
16.292	0.567810
16.31	0.564371
16.328	0.560762
16.346	0.557014
16.364	0.553162
16.382	0.549335
16.4	0.545571
16.418	0.541911
16.436	0.538464
16.454	0.535280
16.472	0.532398
16.49	0.529861
16.508	0.527677
16.526	0.525853
16.544	0.524431
16.562	0.523352
16.58	0.522575
16.598	0.522069
16.616	0.521799
16.634	0.521732
16.652	0.521769
16.67	0.521868
16.688	0.521980
16.706	0.522076
16.724	0.522140
16.742	0.522161
16.76	0.522069
16.778	0.521858
16.796	0.521553
16.814	0.521152
16.832	0.520656
16.85	0.520048
16.868	0.519356
16.886	0.518605
16.904	0.517781
16.922	0.516914
16.94	0.516064
16.958	0.515198
16.976	0.514315
16.994	0.513432
17.012	0.512569
17.03	0.511739
17.048	0.510938
17.066	0.510167
17.084	0.509422
17.102	0.508715
17.12	0.508046
17.138	0.507405
17.156	0.506788
17.174	0.506188
17.192	0.505610
17.21	0.505047
17.228	0.504483
17.246	0.503920
17.264	0.503359
17.282	0.502792
17.3	0.502214
17.318	0.501616
17.336	0.501013
17.354	0.500414
17.372	0.499818
17.39	0.499221
17.408	0.498599
17.426	0.497978
17.444	0.497373
17.462	0.496762
17.48	0.496141
17.498	0.495501
17.516	0.494854
17.534	0.494215
17.552	0.493561
17.57	0.492891
17.588	0.492215
17.606	0.491533
17.624	0.490846
17.642	0.490147
17.66	0.489433
17.678	0.488696
17.696	0.487937
17.714	0.487165
17.732	0.486379
17.75	0.485582
17.768	0.484759
17.786	0.483902
17.804	0.483033
17.822	0.482151
17.84	0.481245
17.858	0.480321
17.876	0.479387
17.894	0.478434
17.912	0.477459
17.93	0.476463
17.948	0.475447
17.966	0.474419
17.984	0.473378
18.002	0.472328
18.02	0.471257
18.038	0.470153
18.056	0.469034
18.074	0.467903
18.092	0.466767
18.11	0.465627
18.128	0.464478
18.146	0.463329
18.164	0.462211
18.182	0.461114
18.2	0.460033
18.218	0.458964
18.236	0.457895
18.254	0.456865
18.272	0.455887
18.29	0.454932
18.308	0.453998
18.326	0.453079
18.344	0.452175
18.362	0.451288
18.38	0.450414
18.398	0.449549
18.416	0.448689
18.434	0.447833
18.452	0.446970
18.47	0.446092
18.488	0.445207
18.506	0.444318
18.524	0.443425
18.542	0.442530
18.56	0.441612
18.578	0.440663
18.596	0.439712
18.614	0.438758
18.632	0.437793
18.65	0.436816
18.668	0.435828
18.686	0.434830
18.704	0.433822
18.722	0.432803
18.74	0.431756
18.758	0.430687
18.776	0.429605
18.794	0.428504
18.812	0.427381
18.83	0.426233
18.848	0.425043
18.866	0.423824
18.884	0.422598
18.902	0.421350
18.92	0.420056
18.938	0.418740
18.956	0.417433
18.974	0.416115
18.992	0.414763
19.01	0.413403
19.028	0.412069
19.046	0.410746
19.064	0.409427
19.082	0.408122
19.1	0.406849
19.118	0.405600
19.136	0.404366
19.154	0.403155
19.172	0.401980
19.19	0.400834
19.208	0.399703
19.226	0.398592
19.244	0.397509
19.262	0.396450
19.28	0.395394
19.298	0.394345
19.316	0.393306
19.334	0.392274
19.352	0.391236
19.37	0.390194
19.388	0.389150
19.406	0.388104
19.424	0.387043
19.442	0.385968
19.46	0.384874
19.478	0.383758
19.496	0.382626
19.514	0.381477
19.532	0.380325
19.55	0.379183
19.568	0.378035
19.586	0.376871
19.604	0.375692
19.622	0.374489
19.64	0.373270
19.658	0.372051
19.676	0.370830
19.694	0.369606
19.712	0.368380
19.73	0.367151
19.748	0.365923
19.766	0.364679
19.784	0.363411
19.802	0.362132
19.82	0.360848
19.838	0.359556
19.856	0.358257
19.874	0.356950
19.892	0.355629
19.91	0.354295
19.928	0.352954
19.946	0.351606
19.964	0.350251
19.982	0.348888
20	0.347518
20.018	0.346143
20.036	0.344759
20.054	0.343362
20.072	0.341953
20.09	0.340527
20.108	0.339085
20.126	0.337622
20.144	0.336139
20.162	0.334632
20.18	0.333095
20.198	0.331536
20.216	0.329967
20.234	0.328382
20.252	0.326767
20.27	0.325121
20.288	0.323478
20.306	0.321847
20.324	0.320210
20.342	0.318557
20.36	0.316895
20.378	0.315233
20.396	0.313569
20.414	0.311909
20.432	0.310251
20.45	0.308599
20.468	0.306955
20.486	0.305319
20.504	0.303696
20.522	0.302086
20.54	0.300483
20.558	0.298889
20.576	0.297295
20.594	0.295696
20.612	0.294097
20.63	0.292508
20.648	0.290927
20.666	0.289348
20.684	0.287768
20.702	0.286198
20.72	0.284651
20.738	0.283117
20.756	0.281577
20.774	0.280028
20.792	0.278496
20.81	0.276989
20.828	0.275500
20.846	0.274029
20.864	0.272575
20.882	0.271154
20.9	0.269768
20.918	0.268408
20.936	0.267068
20.954	0.265750
20.972	0.264454
20.99	0.263178
21.008	0.261930
21.026	0.260718
21.044	0.259533
21.062	0.258362
21.08	0.257209
21.098	0.256073
21.116	0.254958
21.134	0.253858
21.152	0.252761
21.17	0.251670
21.188	0.250578
21.206	0.249483
21.224	0.248386
21.242	0.247283
21.26	0.246177
21.278	0.245053
21.296	0.243902
21.314	0.242732
21.332	0.241546
21.35	0.240345
21.368	0.239124
21.386	0.237880
21.404	0.236617
21.422	0.235345
21.44	0.234066
21.458	0.232762
21.476	0.231421
21.494	0.230056
21.512	0.228689
21.53	0.227321
21.548	0.225947
21.566	0.224568
21.584	0.223183
21.602	0.221801
21.62	0.220422
21.638	0.219046
21.656	0.217673
21.674	0.216301
21.692	0.214932
21.71	0.213564
21.728	0.212199
21.746	0.210840
21.764	0.209489
21.782	0.208141
21.8	0.206795
21.818	0.205452
21.836	0.204108
21.854	0.202759
21.872	0.201410
21.89	0.200071
21.908	0.198741
21.926	0.197409
21.944	0.196060
21.962	0.194702
21.98	0.193353
21.998	0.192015
22.016	0.190687
22.034	0.189372
22.052	0.188068
22.07	0.186778
22.088	0.185504
22.106	0.184244
22.124	0.183002
22.142	0.181776
22.16	0.180568
22.178	0.179394
22.196	0.178254
22.214	0.177143
22.232	0.176058
22.25	0.175001
22.268	0.173969
22.286	0.172960
22.304	0.171973
22.322	0.171011
22.34	0.170073
22.358	0.169159
22.376	0.168260
22.394	0.167382
22.412	0.166516
22.43	0.165651
22.448	0.164790
22.466	0.163932
22.484	0.163075
22.502	0.162222
22.52	0.161363
22.538	0.160494
22.556	0.159618
22.574	0.158731
22.592	0.157835
22.61	0.156927
22.628	0.156003
22.646	0.155058
22.664	0.154100
22.682	0.153132
22.7	0.152158
22.718	0.151171
22.736	0.150167
22.754	0.149149
22.772	0.148112
22.79	0.147049
22.808	0.145961
22.826	0.144861
22.844	0.143761
22.862	0.142655
22.88	0.141539
22.898	0.140413
22.916	0.139277
22.934	0.138133
22.952	0.136984
22.97	0.135827
22.988	0.134667
23.006	0.133501
23.024	0.132330
23.042	0.131168
23.06	0.130014
23.078	0.128867
23.096	0.127734
23.114	0.126614
23.132	0.125508
23.15	0.124413
23.168	0.123329
23.186	0.122257
23.204	0.121207
23.222	0.120179
23.24	0.119171
23.258	0.118184
23.276	0.117218
23.294	0.116272
23.312	0.115340
23.33	0.114421
23.348	0.113516
23.366	0.112626
23.384	0.111753
23.402	0.110895
23.42	0.110039
23.438	0.109186
23.456	0.108336
23.474	0.107487
23.492	0.106640
23.51	0.105795
23.528	0.104947
23.546	0.104094
23.564	0.103238
23.582	0.102374
23.6	0.101500
23.618	0.100618
23.636	0.099725
23.654	0.098819
23.672	0.097902
23.69	0.096976
23.708	0.096042
23.726	0.095098
23.744	0.094148
23.762	0.093196
23.78	0.092241
23.798	0.091283
23.816	0.090325
23.834	0.089363
23.852	0.088403
23.87	0.087450
23.888	0.086502
23.906	0.085561
23.924	0.084634
23.942	0.083722
23.96	0.082824
23.978	0.081938
23.996	0.081065
24.014	0.080205
24.032	0.079359
24.05	0.078529
24.068	0.077714
24.086	0.076915
24.104	0.076131
24.122	0.075363
24.14	0.074609
24.158	0.073864
24.176	0.073131
24.194	0.072408
24.212	0.071687
24.23	0.070968
24.248	0.070252
24.266	0.069539
24.284	0.068829
24.302	0.068124
24.32	0.067421
24.338	0.066718
24.356	0.066018
24.374	0.065318
24.392	0.064613
24.41	0.063901
24.428	0.063185
24.446	0.062474
24.464	0.061771
24.482	0.061074
24.5	0.060382
24.518	0.059699
24.536	0.059018
24.554	0.058348
24.572	0.057698
24.59	0.057072
24.608	0.056463
24.626	0.055867
24.644	0.055278
24.662	0.054697
24.68	0.054132
24.698	0.053590
24.716	0.053072
24.734	0.052573
24.752	0.052083
24.77	0.051605
24.788	0.051139
24.806	0.050677
24.824	0.050212
24.842	0.049750
24.86	0.049286
24.878	0.048812
24.896	0.048336
24.914	0.047852
24.932	0.047348
24.95	0.046813
24.968	0.046255
24.986	0.045674
25.004	0.045067
25.022	0.044436
25.04	0.043780
25.058	0.043097
25.076	0.042383
25.094	0.041642
25.112	0.040872
25.13	0.040071
25.148	0.039234
25.166	0.038369
25.184	0.037484
25.202	0.036584
25.22	0.035663
25.238	0.034730
25.256	0.033793
25.274	0.032847
25.292	0.031894
25.31	0.030948
25.328	0.030016
25.346	0.029090
25.364	0.028176
25.382	0.027283
25.4	0.026405
25.418	0.025544
25.436	0.024711
25.454	0.023912
25.472	0.023143
25.49	0.022406
25.508	0.021707
25.526	0.021049
25.544	0.020428
25.562	0.019844
25.58	0.019295
25.598	0.018780
25.616	0.018300
25.634	0.017855
25.652	0.017445
25.67	0.017071
25.688	0.016731
25.706	0.016418
25.724	0.016133
25.742	0.015877
25.76	0.015648
25.778	0.015445
25.796	0.015274
25.814	0.015128
25.832	0.015000
25.85	0.014884
25.868	0.014785
25.886	0.014700
25.904	0.014625
25.922	0.014561
25.94	0.014510
25.958	0.014464
25.976	0.014419
25.994	0.014373
26.012	0.014329
26.03	0.014285
26.048	0.014242
26.066	0.014201
26.084	0.014160
26.102	0.014113
26.12	0.014057
26.138	0.013995
26.156	0.013926
26.174	0.013847
26.192	0.013757
26.21	0.013657
26.228	0.013547
26.246	0.013427
26.264	0.013297
26.282	0.013155
26.3	0.013007
26.318	0.012855
26.336	0.012701
26.354	0.012543
26.372	0.012379
26.39	0.012208
26.408	0.012027
26.426	0.011841
26.444	0.011653
26.462	0.011467
26.48	0.011281
26.498	0.011095
26.516	0.010914
26.534	0.010739
26.552	0.010567
26.57	0.010401
26.588	0.010244
26.606	0.010099
26.624	0.009966
26.642	0.009842
26.66	0.009723
26.678	0.009606
26.696	0.009491
26.714	0.009383
26.732	0.009282
26.75	0.009191
26.768	0.009109
26.786	0.009034
26.804	0.008963
26.822	0.008892
26.84	0.008826
26.858	0.008762
26.876	0.008699
26.894	0.008634
26.912	0.008571
26.93	0.008507
26.948	0.008440
26.966	0.008365
26.984	0.008277
27.002	0.008191
27.02	0.008124
27.028	0.008106