File: Bakgrunnsmateriale/MATLAB/FTIR/ftir_data/subBb/Mapping_121/C-4040-8_t46_cm-1.asc
PE IR       SPECTRUM    SPECTRUM    ASCII       PEDS        1.60
  -1
C-9B6E~1.ASC
17/03/27
18:18:32.00
17/03/27
18:18:32.00
tln
$C-4040-8_t0046$<tbV0>[10.4,-2.6,8.0,0.0,27,1,0]
370
64

2002,4.07
MIRTGS : RIGHTBACK : INTERNAL 2
MIR : ON : INTERNAL 2
OPTKBR

0.200000
8
8.000000
FILLER
RATIO
SPECTRUM
UNLOCKED 256

DOUBLE
64
COMBINED
1
0
0

1.000000
RATIO

1
0
TRUE
51149
0
LEFT NOT FITTED RIGHT NOT FITTED 0
NONE
NONE
15600
12
4.427000
51148
TRUE
1 0 8 72 0 0 0 0

15798

#HDR
-1
-1
#GR
CM-1
%T
2.38419e-05
0.0
5000
-1.000000
4631
8
125.006
44.5901
#DATA
5000	64.9106
4996	65.1125
4992	65.026
4988	65.1295
4984	65.3723
4980	65.0744
4976	64.753
4972	64.9639
4968	64.9232
4964	64.4908
4960	64.3214
4956	64.2743
4952	64.2493
4948	64.5349
4944	64.9441
4940	65.1542
4936	64.979
4932	64.7283
4928	65.0093
4924	65.3013
4920	65.0082
4916	64.8482
4912	64.934
4908	64.935
4904	65.0166
4900	64.8281
4896	64.6459
4892	65.0008
4888	65.0769
4884	64.9193
4880	65.2978
4876	65.3604
4872	64.9283
4868	64.847
4864	64.8925
4860	64.8383
4856	64.9354
4852	65.3224
4848	65.4736
4844	65.0347
4840	64.696
4836	64.8225
4832	64.9096
4828	64.8409
4824	64.9814
4820	65.1905
4816	65.2882
4812	65.1237
4808	64.8217
4804	64.8678
4800	64.925
4796	64.7431
4792	64.7654
4788	64.9621
4784	65.1044
4780	65.1847
4776	64.9588
4772	64.5664
4768	64.5489
4764	64.4873
4760	64.1891
4756	64.1931
4752	64.3057
4748	64.3481
4744	64.4356
4740	64.4501
4736	64.4875
4732	64.6016
4728	64.6644
4724	64.7731
4720	64.9496
4716	65.0366
4712	65.0266
4708	65.0099
4704	64.8436
4700	64.6922
4696	64.8383
4692	64.9564
4688	64.9369
4684	64.9896
4680	64.9209
4676	64.677
4672	64.4286
4668	64.199
4664	64.2023
4660	64.3769
4656	64.3931
4652	64.411
4648	64.6707
4644	64.918
4640	64.9975
4636	64.9104
4632	64.732
4628	64.7929
4624	64.8514
4620	64.5851
4616	64.1746
4612	63.844
4608	63.8794
4604	64.2059
4600	64.4969
4596	64.5874
4592	64.3917
4588	64.3586
4584	64.7254
4580	65.0239
4576	65.1093
4572	65.0585
4568	64.9585
4564	65.0345
4560	65.0948
4556	64.8928
4552	64.7553
4548	64.8303
4544	64.9554
4540	65.0716
4536	65.0693
4532	64.9224
4528	64.8383
4524	65.093
4520	65.3707
4516	65.522
4512	65.8931
4508	66.0362
4504	65.6776
4500	65.5417
4496	65.7217
4492	65.7974
4488	65.8968
4484	65.942
4480	65.7453
4476	65.4488
4472	65.1927
4468	65.1784
4464	65.4739
4460	65.7709
4456	65.8974
4452	65.7824
4448	65.5157
4444	65.4945
4440	65.631
4436	65.8196
4432	66.0141
4428	66.2007
4424	66.3829
4420	66.267
4416	66.02
4412	66.0168
4408	66.1857
4404	66.3443
4400	66.165
4396	65.8305
4392	66.1615
4388	66.6912
4384	66.3922
4380	65.9512
4376	65.6838
4372	64.6511
4368	63.523
4364	58.3968
4360	49.0429
4356	44.5901
4352	52.9447
4348	65.1546
4344	67.5174
4340	65.1266
4336	64.8967
4332	65.6854
4328	66.1435
4324	66.5568
4320	66.5794
4316	66.2439
4312	65.9926
4308	65.9517
4304	66.123
4300	66.1257
4296	66.1214
4292	66.0572
4288	65.8456
4284	66.0252
4280	66.3268
4276	66.1615
4272	65.796
4268	65.6152
4264	65.4873
4260	65.2004
4256	64.8771
4252	64.7246
4248	64.7525
4244	64.8535
4240	65.0013
4236	65.1885
4232	65.2699
4228	65.1252
4224	65.0202
4220	65.1807
4216	65.3299
4212	65.1873
4208	64.9843
4204	64.948
4200	64.9312
4196	64.9777
4192	65.0643
4188	64.8555
4184	64.5165
4180	64.4089
4176	64.5386
4172	64.8178
4168	65.1042
4164	65.2617
4160	65.3104
4156	65.4109
4152	65.3989
4148	65.25
4144	65.3202
4140	65.3604
4136	65.1493
4132	64.9748
4128	64.8922
4124	64.7944
4120	64.7278
4116	64.7959
4112	64.9691
4108	65.04
4104	65.012
4100	65.0683
4096	65.157
4092	65.1311
4088	65.0886
4084	65.0419
4080	64.9753
4076	64.988
4072	64.9641
4068	64.8739
4064	64.7678
4060	64.7023
4056	64.7982
4052	64.9932
4048	65.0567
4044	64.9216
4040	64.8061
4036	64.8474
4032	64.8212
4028	64.8106
4024	65.1127
4020	65.44
4016	65.4943
4012	65.3835
4008	65.2576
4004	65.155
4000	65.0731
3996	64.9693
3992	64.93
3988	65.0009
3984	65.0107
3980	65.0056
3976	65.0704
3972	65.0806
3968	65.0435
3964	65.0604
3960	65.0912
3956	65.1236
3952	65.2117
3948	65.2507
3944	65.1932
3940	65.1787
3936	65.212
3932	65.1869
3928	65.0622
3924	64.9354
3920	64.9029
3916	65.0077
3912	65.1451
3908	65.1246
3904	65.0605
3900	65.1145
3896	65.2739
3892	65.3789
3888	65.268
3884	65.0904
3880	65.025
3876	65.1197
3872	65.3069
3868	65.3302
3864	65.111
3860	64.9269
3856	65.0472
3852	65.3014
3848	65.3975
3844	65.3626
3840	65.3508
3836	65.26
3832	65.0072
3828	64.8247
3824	64.7123
3820	64.6074
3816	64.7917
3812	65.1985
3808	65.4221
3804	65.4451
3800	65.374
3796	65.3932
3792	65.5979
3788	65.7035
3784	65.6179
3780	65.5052
3776	65.4247
3772	65.3098
3768	65.2163
3764	65.2577
3760	65.3464
3756	65.349
3752	65.3053
3748	65.3361
3744	65.4123
3740	65.3944
3736	65.2788
3732	65.187
3728	65.1226
3724	65.0743
3720	65.1577
3716	65.2862
3712	65.2853
3708	65.2559
3704	65.2033
3700	65.1157
3696	65.162
3692	65.2568
3688	65.2466
3684	65.1909
3680	65.0918
3676	65.0296
3672	65.114
3668	65.1751
3664	65.13
3660	65.157
3656	65.2708
3652	65.2017
3648	65.0375
3644	65.0668
3640	65.1858
3636	65.2354
3632	65.126
3628	64.9447
3624	64.9502
3620	65.0932
3616	65.2009
3612	65.3241
3608	65.387
3604	65.292
3600	65.1706
3596	65.0433
3592	64.9297
3588	64.9331
3584	65.0692
3580	65.2527
3576	65.2714
3572	65.1543
3568	65.1644
3564	65.2987
3560	65.3423
3556	65.3281
3552	65.3778
3548	65.3637
3544	65.2509
3540	65.1015
3536	65.024
3532	65.1608
3528	65.3623
3524	65.4473
3520	65.3842
3516	65.2385
3512	65.1927
3508	65.2132
3504	65.1463
3500	65.0203
3496	64.9142
3492	64.9284
3488	65.0944
3484	65.2512
3480	65.391
3476	65.4709
3472	65.3764
3468	65.3725
3464	65.4834
3460	65.4508
3456	65.3393
3452	65.2417
3448	65.1562
3444	65.1448
3440	65.1854
3436	65.2255
3432	65.2699
3428	65.3329
3424	65.4155
3420	65.4025
3416	65.2971
3412	65.2786
3408	65.2968
3404	65.2432
3400	65.2283
3396	65.2679
3392	65.2943
3388	65.2982
3384	65.2752
3380	65.2619
3376	65.2672
3372	65.3275
3368	65.4416
3364	65.508
3360	65.4924
3356	65.4153
3352	65.3018
3348	65.1989
3344	65.1682
3340	65.222
3336	65.2432
3332	65.2142
3328	65.2662
3324	65.3812
3320	65.4102
3316	65.3314
3312	65.239
3308	65.1629
3304	65.064
3300	65.0132
3296	65.1336
3292	65.2498
3288	65.238
3284	65.2206
3280	65.2715
3276	65.3413
3272	65.2923
3268	65.2319
3264	65.2728
3260	65.3548
3256	65.3621
3252	65.1836
3248	65.0475
3244	65.0527
3240	65.0286
3236	65.0936
3232	65.2557
3228	65.1831
3224	64.9595
3220	64.949
3216	65.0608
3212	65.0669
3208	64.9649
3204	64.8898
3200	64.9751
3196	65.0702
3192	65.0445
3188	65.1404
3184	65.3379
3180	65.3607
3176	65.274
3172	65.2407
3168	65.2252
3164	65.2187
3160	65.2916
3156	65.3762
3152	65.3383
3148	65.2077
3144	65.0165
3140	64.8977
3136	65.1702
3132	65.5132
3128	65.3839
3124	65.0597
3120	64.9261
3116	64.9347
3112	64.9675
3108	65.0722
3104	65.2407
3100	65.3268
3096	65.3554
3092	65.4025
3088	65.4606
3084	65.4124
3080	65.2476
3076	65.1845
3072	65.249
3068	65.2935
3064	65.3072
3060	65.3464
3056	65.3871
3052	65.3859
3048	65.3416
3044	65.2549
3040	65.147
3036	65.0981
3032	65.1012
3028	65.138
3024	65.2321
3020	65.3055
3016	65.2818
3012	65.2431
3008	65.248
3004	65.2182
3000	65.2389
2996	65.3075
2992	65.2859
2988	65.2423
2984	65.2449
2980	65.2395
2976	65.1639
2972	65.1083
2968	65.1466
2964	65.1925
2960	65.2408
2956	65.2339
2952	65.1678
2948	65.1614
2944	65.1403
2940	65.1474
2936	65.2494
2932	65.1958
2928	65.0246
2924	64.9782
2920	64.9848
2916	64.9918
2912	65.0393
2908	65.0809
2904	65.0809
2900	65.0167
2896	64.9509
2892	65.0258
2888	65.1977
2884	65.2793
2880	65.2146
2876	65.1806
2872	65.2863
2868	65.2804
2864	65.087
2860	64.9178
2856	64.8429
2852	64.9163
2848	65.1065
2844	65.2436
2840	65.2119
2836	65.0793
2832	65.041
2828	65.1428
2824	65.2601
2820	65.3497
2816	65.4242
2812	65.4328
2808	65.4056
2804	65.3921
2800	65.3293
2796	65.2518
2792	65.2464
2788	65.2346
2784	65.1833
2780	65.1829
2776	65.2482
2772	65.2657
2768	65.246
2764	65.3197
2760	65.3647
2756	65.2828
2752	65.2486
2748	65.259
2744	65.2149
2740	65.1947
2736	65.238
2732	65.2755
2728	65.2823
2724	65.2825
2720	65.2381
2716	65.1871
2712	65.1998
2708	65.2266
2704	65.2619
2700	65.2899
2696	65.2584
2692	65.1828
2688	65.1189
2684	65.1371
2680	65.2179
2676	65.3227
2672	65.4198
2668	65.4189
2664	65.3762
2660	65.3655
2656	65.369
2652	65.3673
2648	65.3214
2644	65.2726
2640	65.2713
2636	65.2839
2632	65.2417
2628	65.1682
2624	65.1559
2620	65.1948
2616	65.2624
2612	65.3627
2608	65.4084
2604	65.3846
2600	65.365
2596	65.3411
2592	65.2963
2588	65.2744
2584	65.2941
2580	65.2972
2576	65.2954
2572	65.3456
2568	65.3989
2564	65.3995
2560	65.371
2556	65.3846
2552	65.4264
2548	65.3902
2544	65.3197
2540	65.3236
2536	65.3214
2532	65.2649
2528	65.224
2524	65.2981
2520	65.5264
2516	65.7038
2512	65.6955
2508	65.6084
2504	65.4976
2500	65.3637
2496	65.2827
2492	65.2316
2488	65.1893
2484	65.2624
2480	65.3653
2476	65.338
2472	65.2329
2468	65.1837
2464	65.2288
2460	65.2784
2456	65.2398
2452	65.2256
2448	65.3036
2444	65.3869
2440	65.4658
2436	65.5517
2432	65.6455
2428	65.6911
2424	65.6211
2420	65.4744
2416	65.3228
2412	65.1611
2408	65.0708
2404	65.1242
2400	65.1736
2396	65.2138
2392	65.3103
2388	65.3584
2384	65.334
2380	65.2849
2376	65.264
2372	65.3164
2368	65.3925
2364	65.4167
2360	65.379
2356	65.3338
2352	65.3134
2348	65.2847
2344	65.2807
2340	65.3638
2336	65.4433
2332	65.4444
2328	65.4257
2324	65.3949
2320	65.3114
2316	65.2615
2312	65.296
2308	65.3372
2304	65.3682
2300	65.3717
2296	65.3366
2292	65.3085
2288	65.307
2284	65.2868
2280	65.2313
2276	65.25
2272	65.3426
2268	65.3748
2264	65.3394
2260	65.3542
2256	65.4346
2252	65.4751
2248	65.4302
2244	65.3526
2240	65.3499
2236	65.4504
2232	65.516
2228	65.4169
2224	65.2851
2220	65.3364
2216	65.4347
2212	65.3599
2208	65.2337
2204	65.2237
2200	65.2827
2196	65.3252
2192	65.3751
2188	65.4237
2184	65.4121
2180	65.4028
2176	65.3948
2172	65.3404
2168	65.3282
2164	65.3817
2160	65.3894
2156	65.3066
2152	65.3047
2148	65.4131
2144	65.4408
2140	65.4441
2136	65.4974
2132	65.5029
2128	65.4705
2124	65.4394
2120	65.4209
2116	65.3881
2112	65.3296
2108	65.3168
2104	65.2997
2100	65.2854
2096	65.3808
2092	65.4718
2088	65.4185
2084	65.3259
2080	65.3449
2076	65.4107
2072	65.4091
2068	65.3586
2064	65.3729
2060	65.4898
2056	65.4892
2052	65.3303
2048	65.2581
2044	65.2442
2040	65.1878
2036	65.1843
2032	65.2443
2028	65.3261
2024	65.3798
2020	65.3559
2016	65.3268
2012	65.3346
2008	65.3566
2004	65.3986
2000	65.4174
1996	65.3998
1992	65.399
1988	65.3968
1984	65.3594
1980	65.3315
1976	65.3737
1972	65.4348
1968	65.3649
1964	65.2192
1960	65.1407
1956	65.1148
1952	65.1638
1948	65.2987
1944	65.4075
1940	65.4257
1936	65.4103
1932	65.3895
1928	65.3429
1924	65.3095
1920	65.3341
1916	65.353
1912	65.3168
1908	65.2965
1904	65.3515
1900	65.4259
1896	65.429
1892	65.3713
1888	65.3218
1884	65.3378
1880	65.3794
1876	65.3477
1872	65.2569
1868	65.2351
1864	65.3039
1860	65.3123
1856	65.2331
1852	65.2081
1848	65.258
1844	65.3056
1840	65.3687
1836	65.465
1832	65.5273
1828	65.4872
1824	65.3962
1820	65.3721
1816	65.3769
1812	65.3333
1808	65.3019
1804	65.3155
1800	65.2987
1796	65.2601
1792	65.2248
1788	65.2052
1784	65.2643
1780	65.2907
1776	65.2099
1772	65.1591
1768	65.1444
1764	65.1078
1760	65.1389
1756	65.2155
1752	65.2115
1748	65.1733
1744	65.1352
1740	65.0244
1736	64.8937
1732	64.9099
1728	65.025
1724	65.1195
1720	65.1942
1716	65.2081
1712	65.2087
1708	65.2746
1704	65.3828
1700	65.4817
1696	65.4607
1692	65.3214
1688	65.2622
1684	65.2905
1680	65.247
1676	65.1986
1672	65.3034
1668	65.4996
1664	65.5668
1660	65.4483
1656	65.3482
1652	65.3223
1648	65.2727
1644	65.2507
1640	65.2557
1636	65.2491
1632	65.2644
1628	65.2338
1624	65.1877
1620	65.2646
1616	65.3605
1612	65.3199
1608	65.2502
1604	65.2681
1600	65.2888
1596	65.2347
1592	65.1507
1588	65.1202
1584	65.1315
1580	65.1387
1576	65.1664
1572	65.2444
1568	65.3012
1564	65.2496
1560	65.1677
1556	65.1488
1552	65.1282
1548	65.099
1544	65.1595
1540	65.2281
1536	65.2127
1532	65.2172
1528	65.2503
1524	65.266
1520	65.289
1516	65.2729
1512	65.1971
1508	65.1443
1504	65.1614
1500	65.1779
1496	65.1261
1492	65.1081
1488	65.2028
1484	65.2976
1480	65.3138
1476	65.2528
1472	65.17
1468	65.1608
1464	65.1959
1460	65.0913
1456	64.9433
1452	65.0712
1448	65.2813
1444	65.2288
1440	65.0837
1436	65.0352
1432	65.0346
1428	65.0939
1424	65.1909
1420	65.1916
1416	65.1176
1412	65.1198
1408	65.1458
1404	65.0985
1400	65.0315
1396	65.0242
1392	65.1049
1388	65.1682
1384	65.175
1380	65.2048
1376	65.2391
1372	65.1724
1368	65.0828
1364	65.0803
1360	65.0734
1356	65.0984
1352	65.1952
1348	65.2728
1344	65.2743
1340	65.1785
1336	65.0568
1332	65
1328	65.0648
1324	65.1433
1320	65.0851
1316	65.0336
1312	65.0955
1308	65.1209
1304	65.0897
1300	65.0759
1296	65.0558
1292	65.0408
1288	65.0431
1284	65.0243
1280	65.0016
1276	65.0208
1272	65.0313
1268	65.0304
1264	65.0686
1260	65.0455
1256	64.9621
1252	64.9617
1248	65.0333
1244	65.1075
1240	65.0876
1236	64.9542
1232	64.8683
1228	64.9061
1224	64.9252
1220	64.8844
1216	64.9325
1212	65.0649
1208	65.1764
1204	65.2027
1200	65.1288
1196	65.0224
1192	64.9499
1188	64.9243
1184	64.8821
1180	64.8384
1176	64.8235
1172	64.7631
1168	64.731
1164	64.8479
1160	64.9621
1156	65.0208
1152	65.2424
1148	65.5097
1144	65.3035
1140	64.8163
1136	64.7053
1132	64.8965
1128	65.0245
1124	65.0334
1120	65.0774
1116	65.0204
1112	64.6818
1108	64.4123
1104	64.6076
1100	65.054
1096	65.0601
1092	64.8648
1088	65.065
1084	65.1794
1080	65.0305
1076	64.9003
1072	64.7663
1068	64.8226
1064	65.0316
1060	65.0941
1056	65.0227
1052	64.9581
1048	64.8759
1044	64.7302
1040	64.5955
1036	64.4739
1032	64.4502
1028	64.5777
1024	64.6948
1020	64.6891
1016	64.6834
1012	64.8387
1008	64.8803
1004	64.7381
1000	64.7663
996	 64.8082
992	 64.7352
988	 64.7403
984	 64.8431
980	 64.9236
976	 64.7534
972	 64.4156
968	 64.2918
964	 64.4652
960	 64.613
956	 64.5775
952	 64.6613
948	 64.829
944	 64.7608
940	 64.5533
936	 64.439
932	 64.4834
928	 64.5532
924	 64.5286
920	 64.5304
916	 64.6109
912	 64.6213
908	 64.5878
904	 64.6044
900	 64.6158
896	 64.5613
892	 64.4656
888	 64.4499
884	 64.4736
880	 64.4043
876	 64.3332
872	 64.4315
868	 64.5452
864	 64.5501
860	 64.4992
856	 64.4441
852	 64.5376
848	 64.6631
844	 64.5907
840	 64.4602
836	 64.3869
832	 64.3175
828	 64.3646
824	 64.4045
820	 64.2126
816	 64.1604
812	 64.4341
808	 64.5611
804	 64.396
800	 64.3049
796	 64.3368
792	 64.2413
788	 64.0776
784	 64.0763
780	 64.1821
776	 64.175
772	 64.0806
768	 64.1814
764	 64.284
760	 64.024
756	 63.5685
752	 63.4598
748	 63.7843
744	 63.8709
740	 63.7655
736	 63.8056
732	 63.7374
728	 63.5541
724	 63.4118
720	 63.4278
716	 63.625
712	 63.6742
708	 63.4924
704	 63.5972
700	 63.9057
696	 63.889
692	 63.6419
688	 63.3163
684	 63.1374
680	 63.287
676	 63.4859
672	 63.5665
668	 63.4918
664	 63.2827
660	 63.2165
656	 63.2746
652	 63.0832
648	 62.7264
644	 62.5574
640	 62.8138
636	 63.2659
632	 63.4706
628	 63.3474
624	 63.1117
620	 63.0641
616	 63.181
612	 63.2346
608	 63.1205
604	 63.0149
600	 62.8661
596	 62.6112
592	 62.4286
588	 62.135
584	 61.848
580	 61.9531
576	 62.2624
572	 62.4566
568	 62.4636
564	 62.275
560	 62.055
556	 62.1428
552	 62.3782
548	 62.4259
544	 62.2804
540	 61.9063
536	 61.6126
532	 61.518
528	 61.5095
524	 61.4097
520	 61.0178
516	 60.8486
512	 60.7435
508	 60.4291
504	 60.5611
500	 60.8256
496	 60.8474
492	 60.935
488	 60.6531
484	 60.0296
480	 59.5937
476	 59.3777
472	 59.4124
468	 59.6437
464	 59.8036
460	 59.826
456	 60.5935
452	 61.0968
448	 60.1505
444	 59.7734
440	 60.0544
436	 60.0581
432	 60.188
428	 61.0159
424	 61.9241
420	 61.0787
416	 58.7099
412	 57.9745
408	 63.0854
404	 67.4697
400	 67.7814
396	 87.6631
392	 119.37
388	 122.521
384	 111.834
380	 108.093
376	 80.7909
372	 50.8506
370	 45.8837