File: Bakgrunnsmateriale/MATLAB/FTIR/ftir_data/subBb/Mapping_121/C-4040-8_t20_cm-1.asc
PE IR       SPECTRUM    SPECTRUM    ASCII       PEDS        1.60
  -1
C-9A61~1.ASC
17/03/27
16:03:50.00
17/03/27
16:03:50.00
tln
$C-4040-8_t0020$<tbV0>[-7.8,-10.4,8.0,0.0,27,1,0]
370
64

2002,4.07
MIRTGS : RIGHTBACK : INTERNAL 2
MIR : ON : INTERNAL 2
OPTKBR

0.200000
8
8.000000
FILLER
RATIO
SPECTRUM
UNLOCKED 256

DOUBLE
64
COMBINED
1
0
0

1.000000
RATIO

1
0
TRUE
51149
0
LEFT NOT FITTED RIGHT NOT FITTED 0
NONE
NONE
15600
12
4.427000
51148
TRUE
1 0 8 72 0 0 0 0

15798

#HDR
-1
-1
#GR
CM-1
%T
2.38419e-05
0.0
5000
-1.000000
4631
8
73.0181
18.7814
#DATA
5000	64.2489
4996	64.0724
4992	64.226
4988	64.7223
4984	64.6744
4980	64.2326
4976	63.9054
4972	63.8277
4968	64.2021
4964	64.0294
4960	63.316
4956	63.3919
4952	63.6323
4948	63.2071
4944	62.3226
4940	62.1293
4936	63.3154
4932	64.3502
4928	64.1922
4924	63.9715
4920	64.307
4916	64.6578
4912	64.9725
4908	65.164
4904	65.1211
4900	64.8711
4896	64.3966
4892	64.226
4888	64.4796
4884	64.5382
4880	64.1193
4876	64.0268
4872	64.4437
4868	64.6061
4864	64.602
4860	64.5911
4856	64.4277
4852	64.2447
4848	64.2279
4844	64.3339
4840	64.4817
4836	64.6241
4832	64.5236
4828	64.3009
4824	64.1713
4820	63.9761
4816	63.803
4812	63.8214
4808	64.0315
4804	64.2702
4800	64.3342
4796	64.304
4792	64.378
4788	64.5791
4784	64.6686
4780	64.5745
4776	64.4639
4772	64.4282
4768	64.3768
4764	64.2205
4760	64.1685
4756	64.2747
4752	64.2975
4748	64.2691
4744	64.2825
4740	64.2956
4736	64.2617
4732	64.1741
4728	64.0669
4724	63.9312
4720	63.8869
4716	63.8847
4712	63.8534
4708	64.0138
4704	64.2619
4700	64.3056
4696	64.1763
4692	64.1423
4688	64.234
4684	64.2112
4680	64.0875
4676	64.0421
4672	64.2309
4668	64.5896
4664	64.6644
4660	64.5288
4656	64.5002
4652	64.3514
4648	64.1622
4644	64.1554
4640	64.3049
4636	64.4603
4632	64.4195
4628	64.273
4624	64.2065
4620	64.3702
4616	64.4989
4612	64.3759
4608	64.3448
4604	64.5086
4600	64.6417
4596	64.5185
4592	64.2529
4588	64.1647
4584	64.2926
4580	64.5809
4576	64.6971
4572	64.3957
4568	64.1082
4564	64.1201
4560	64.251
4556	64.1642
4552	63.8921
4548	63.9205
4544	64.0136
4540	63.8253
4536	63.6526
4532	63.5049
4528	63.5955
4524	63.9138
4520	64.095
4516	64.0997
4512	63.9472
4508	63.977
4504	64.2106
4500	64.307
4496	64.1886
4492	63.8847
4488	63.8141
4484	63.9485
4480	64.2197
4476	64.2133
4472	63.9122
4468	64.0873
4464	64.487
4460	64.9725
4456	65.7934
4452	68.0551
4448	70.5554
4444	70.3199
4440	67.2272
4436	63.3618
4432	62.1212
4428	62.9861
4424	63.24
4420	63.1051
4416	63.1488
4412	63.1539
4408	63.0162
4404	62.87
4400	62.6044
4396	62.036
4392	62.0641
4388	62.3537
4384	66.3014
4380	72.1486
4376	72.4642
4372	69.9306
4368	66.2867
4364	63.7482
4360	64.1551
4356	64.2219
4352	63.8968
4348	63.8515
4344	64.068
4340	64.3866
4336	64.4986
4332	64.3199
4328	64.0486
4324	64.023
4320	64.1101
4316	64.0501
4312	63.956
4308	63.7483
4304	63.4516
4300	63.4222
4296	63.6754
4292	63.8946
4288	63.9011
4284	63.7807
4280	63.7361
4276	63.8898
4272	64.1432
4268	64.161
4264	63.8779
4260	63.6331
4256	63.626
4252	63.8865
4248	64.0294
4244	63.8853
4240	63.8921
4236	63.9332
4232	63.7844
4228	63.7127
4224	63.8515
4220	64.0134
4216	63.9987
4212	63.9415
4208	64.0563
4204	64.1055
4200	63.9025
4196	63.597
4192	63.2882
4188	63.3482
4184	63.6469
4180	63.6058
4176	63.3557
4172	63.2056
4168	63.4084
4164	63.7644
4160	63.9252
4156	63.9844
4152	63.9025
4148	63.6596
4144	63.5305
4140	63.5772
4136	63.557
4132	63.5907
4128	63.8201
4124	63.8853
4120	63.7662
4116	63.88
4112	63.9844
4108	63.8275
4104	63.7302
4100	63.7328
4096	63.7654
4092	63.9175
4088	64.0692
4084	64.0407
4080	63.9284
4076	63.8885
4072	63.9384
4068	64.0582
4064	64.1793
4060	64.1023
4056	63.9109
4052	63.8943
4048	63.909
4044	63.8857
4040	63.9926
4036	64.0697
4032	63.9619
4028	63.8649
4024	63.9309
4020	64.0304
4016	63.9903
4012	63.9253
4008	63.9464
4004	63.8932
4000	63.8759
3996	64.0175
3992	64.0252
3988	63.8231
3984	63.6469
3980	63.5455
3976	63.4793
3972	63.5384
3968	63.7933
3964	64.0191
3960	63.9729
3956	63.8499
3952	63.784
3948	63.8218
3944	63.9202
3940	63.8163
3936	63.6331
3932	63.6341
3928	63.8543
3924	63.9449
3920	63.7559
3916	63.7624
3912	63.9396
3908	63.907
3904	63.8299
3900	63.8651
3896	63.7916
3892	63.6156
3888	63.5424
3884	63.6032
3880	63.7452
3876	63.8751
3872	63.8695
3868	63.7841
3864	63.7605
3860	63.8313
3856	63.9838
3852	64.0407
3848	63.959
3844	63.8857
3840	63.8178
3836	63.7977
3832	63.7892
3828	63.5952
3824	63.3186
3820	63.3005
3816	63.4266
3812	63.4787
3808	63.6286
3804	63.8241
3800	63.8142
3796	63.5774
3792	63.3265
3788	63.2522
3784	63.2695
3780	63.2513
3776	63.3144
3772	63.5312
3768	63.6342
3764	63.5123
3760	63.4074
3756	63.52
3752	63.7401
3748	63.8434
3744	63.7943
3740	63.7625
3736	63.8952
3732	63.8662
3728	63.5653
3724	63.3984
3720	63.4875
3716	63.6369
3712	63.6418
3708	63.5199
3704	63.4199
3700	63.3488
3696	63.3258
3692	63.3904
3688	63.4531
3684	63.5144
3680	63.6836
3676	63.9017
3672	63.8386
3668	63.4981
3664	63.3358
3660	63.359
3656	63.3555
3652	63.4078
3648	63.3909
3644	63.1463
3640	62.9774
3636	63.0971
3632	63.296
3628	63.2773
3624	63.1033
3620	63.078
3616	63.2309
3612	63.3506
3608	63.2315
3604	62.9895
3600	62.9234
3596	63.0352
3592	63.149
3588	63.1284
3584	63.0261
3580	62.9934
3576	62.928
3572	62.8087
3568	62.7749
3564	62.8512
3560	63.0075
3556	63.1158
3552	63.0556
3548	62.882
3544	62.8271
3540	62.8987
3536	62.8439
3532	62.7323
3528	62.7264
3524	62.7205
3520	62.6987
3516	62.7175
3512	62.6772
3508	62.6031
3504	62.5911
3500	62.5753
3496	62.5547
3492	62.6049
3488	62.727
3484	62.8611
3480	62.9258
3476	62.8777
3472	62.7843
3468	62.7554
3464	62.7384
3460	62.6817
3456	62.6585
3452	62.6695
3448	62.6133
3444	62.4785
3440	62.4609
3436	62.5548
3432	62.5197
3428	62.4167
3424	62.4221
3420	62.4266
3416	62.339
3412	62.3092
3408	62.3582
3404	62.3508
3400	62.3217
3396	62.3409
3392	62.3438
3388	62.3297
3384	62.3569
3380	62.3652
3376	62.3117
3372	62.2752
3368	62.3382
3364	62.3704
3360	62.2436
3356	62.1484
3352	62.1936
3348	62.2103
3344	62.0944
3340	62.0511
3336	62.2352
3332	62.359
3328	62.2504
3324	62.0997
3320	62.0555
3316	62.092
3312	62.1093
3308	62.0656
3304	62.0497
3300	62.133
3296	62.2094
3292	62.2036
3288	62.0932
3284	61.9659
3280	62.0001
3276	62.0729
3272	61.9849
3268	61.8225
3264	61.7371
3260	61.7032
3256	61.647
3252	61.6748
3248	61.8283
3244	61.906
3240	61.8827
3236	61.9035
3232	61.8897
3228	61.8148
3224	61.87
3220	61.9473
3216	61.8527
3212	61.7607
3208	61.842
3204	61.9807
3200	61.9819
3196	61.817
3192	61.6226
3188	61.5565
3184	61.5656
3180	61.5668
3176	61.5725
3172	61.5062
3168	61.4938
3164	61.6384
3160	61.7662
3156	61.7527
3152	61.612
3148	61.4979
3144	61.4483
3140	61.4555
3136	61.5565
3132	61.5597
3128	61.4485
3124	61.43
3120	61.499
3116	61.5349
3112	61.4425
3108	61.2989
3104	61.2792
3100	61.3327
3096	61.3205
3092	61.2968
3088	61.3789
3084	61.4538
3080	61.3847
3076	61.3175
3072	61.3263
3068	61.3278
3064	61.3405
3060	61.3686
3056	61.3587
3052	61.2988
3048	61.2273
3044	61.1669
3040	61.1287
3036	61.1095
3032	61.073
3028	61.0334
3024	61.0325
3020	61.1279
3016	61.2408
3012	61.1876
3008	61.0462
3004	60.9477
3000	60.8894
2996	60.876
2992	60.8593
2988	60.8163
2984	60.8013
2980	60.817
2976	60.7514
2972	60.6031
2968	60.5663
2964	60.6136
2960	60.6298
2956	60.6223
2952	60.5614
2948	60.5179
2944	60.5863
2940	60.6108
2936	60.464
2932	60.2959
2928	60.2513
2924	60.3005
2920	60.2808
2916	60.1737
2912	60.1574
2908	60.2256
2904	60.2842
2900	60.3567
2896	60.4412
2892	60.471
2888	60.3773
2884	60.2741
2880	60.212
2876	60.1458
2872	60.229
2868	60.3431
2864	60.2996
2860	60.2033
2856	60.1252
2852	60.0834
2848	60.0701
2844	60.1379
2840	60.2587
2836	60.287
2832	60.2624
2828	60.2387
2824	60.2218
2820	60.2448
2816	60.2285
2812	60.1566
2808	60.1059
2804	60.043
2800	59.9759
2796	59.958
2792	60.0397
2788	60.1193
2784	60.0792
2780	60.0163
2776	59.9818
2772	59.9376
2768	59.8942
2764	59.8386
2760	59.7587
2756	59.7616
2752	59.8629
2748	59.8887
2744	59.8164
2740	59.776
2736	59.7507
2732	59.6691
2728	59.5614
2724	59.5107
2720	59.5196
2716	59.4826
2712	59.4567
2708	59.5493
2704	59.6014
2700	59.5469
2696	59.5416
2692	59.567
2688	59.5403
2684	59.4753
2680	59.3617
2676	59.2979
2672	59.3204
2668	59.3183
2664	59.3071
2660	59.2764
2656	59.2399
2652	59.2492
2648	59.2465
2644	59.2193
2640	59.2029
2636	59.2091
2632	59.1685
2628	59.0717
2624	59.0486
2620	59.0343
2616	58.9317
2612	58.8924
2608	58.9446
2604	58.9646
2600	58.918
2596	58.9049
2592	58.944
2588	58.8986
2584	58.8117
2580	58.777
2576	58.766
2572	58.7611
2568	58.7393
2564	58.7196
2560	58.7467
2556	58.7686
2552	58.7441
2548	58.6991
2544	58.6577
2540	58.6275
2536	58.5598
2532	58.4969
2528	58.5117
2524	58.465
2520	58.3235
2516	58.2957
2512	58.428
2508	58.4826
2504	58.4081
2500	58.3244
2496	58.2726
2492	58.2866
2488	58.2715
2484	58.2252
2480	58.2362
2476	58.259
2472	58.2711
2468	58.2699
2464	58.2225
2460	58.1512
2456	58.0638
2452	57.9812
2448	58.0094
2444	58.1382
2440	58.1906
2436	58.1153
2432	58.0962
2428	58.0424
2424	57.7685
2420	57.6045
2416	57.5809
2412	57.503
2408	57.5291
2404	57.6119
2400	57.6903
2396	57.7411
2392	57.6923
2388	57.6339
2384	57.6083
2380	57.5886
2376	57.5583
2372	57.5504
2368	57.6016
2364	57.6712
2360	57.663
2356	57.5339
2352	57.3837
2348	57.311
2344	57.2969
2340	57.3419
2336	57.4156
2332	57.3848
2328	57.2678
2324	57.1656
2320	57.1071
2316	57.0552
2312	56.9808
2308	56.972
2304	56.9822
2300	56.9547
2296	56.9773
2292	56.9647
2288	56.8806
2284	56.8787
2280	56.9242
2276	56.8931
2272	56.8317
2268	56.8382
2264	56.8834
2260	56.8396
2256	56.7351
2252	56.7231
2248	56.7529
2244	56.7066
2240	56.6311
2236	56.5582
2232	56.4996
2228	56.4744
2224	56.4529
2220	56.4161
2216	56.356
2212	56.3305
2208	56.3779
2204	56.3819
2200	56.3393
2196	56.353
2192	56.3177
2188	56.2161
2184	56.1875
2180	56.183
2176	56.1468
2172	56.1468
2168	56.1777
2164	56.1969
2160	56.1839
2156	56.1071
2152	55.9892
2148	55.8751
2144	55.8624
2140	55.9769
2136	56.013
2132	55.9219
2128	55.8324
2124	55.7494
2120	55.7039
2116	55.7155
2112	55.72
2108	55.6966
2104	55.6389
2100	55.5863
2096	55.5924
2092	55.6295
2088	55.6829
2084	55.6946
2080	55.554
2076	55.3209
2072	55.1671
2068	55.2214
2064	55.4118
2060	55.4591
2056	55.2772
2052	55.1092
2048	55.1195
2044	55.1877
2040	55.2058
2036	55.1975
2032	55.1497
2028	55.067
2024	55.011
2020	54.9645
2016	54.9553
2012	55.0138
2008	55.013
2004	54.9153
2000	54.838
1996	54.8136
1992	54.7921
1988	54.7902
1984	54.7927
1980	54.7424
1976	54.6901
1972	54.6549
1968	54.6052
1964	54.5813
1960	54.5551
1956	54.4958
1952	54.4539
1948	54.4275
1944	54.4128
1940	54.3957
1936	54.3963
1932	54.4013
1928	54.3044
1924	54.2446
1920	54.2798
1916	54.244
1912	54.218
1908	54.2186
1904	54.1293
1900	54.0746
1896	54.1093
1892	54.096
1888	54.0138
1884	53.9406
1880	53.9057
1876	53.8876
1872	53.8599
1868	53.8191
1864	53.7693
1860	53.7153
1856	53.6826
1852	53.6681
1848	53.6947
1844	53.7097
1840	53.5985
1836	53.4954
1832	53.5244
1828	53.5725
1824	53.5726
1820	53.5632
1816	53.5341
1812	53.4801
1808	53.4685
1804	53.4839
1800	53.4169
1796	53.3208
1792	53.3225
1788	53.3513
1784	53.3188
1780	53.2797
1776	53.2871
1772	53.2762
1768	53.1628
1764	53.0539
1760	53.049
1756	53.0802
1752	53.0717
1748	52.9877
1744	52.874
1740	52.8014
1736	52.802
1732	52.7901
1728	52.7097
1724	52.6826
1720	52.7623
1716	52.8118
1712	52.7665
1708	52.795
1704	52.9291
1700	52.9964
1696	52.8419
1692	52.6052
1688	52.601
1684	52.6653
1680	52.5403
1676	52.4176
1672	52.3632
1668	52.2321
1664	52.1258
1660	52.242
1656	52.5375
1652	52.687
1648	52.5269
1644	52.2539
1640	52.0864
1636	52.017
1632	51.917
1628	51.8516
1624	51.8455
1620	51.8187
1616	51.7438
1612	51.6295
1608	51.5986
1604	51.6213
1600	51.6047
1596	51.5751
1592	51.5141
1588	51.4503
1584	51.4689
1580	51.5818
1576	51.5972
1572	51.4546
1568	51.3805
1564	51.4726
1560	51.5872
1556	51.513
1552	51.383
1548	51.4014
1544	51.5429
1540	51.573
1536	51.3369
1532	51.1286
1528	51.1404
1524	51.2205
1520	51.1766
1516	51.0288
1512	51.0175
1508	51.1202
1504	51.066
1500	50.9135
1496	50.8263
1492	50.786
1488	50.7078
1484	50.5808
1480	50.5448
1476	50.6603
1472	50.7451
1468	50.6473
1464	50.5698
1460	50.6667
1456	50.6587
1452	50.4575
1448	50.3475
1444	50.2928
1440	50.2402
1436	50.2522
1432	50.2059
1428	50.1325
1424	50.1849
1420	50.2479
1416	50.1367
1412	49.9332
1408	49.7875
1404	49.7843
1400	49.8271
1396	49.7985
1392	49.8065
1388	49.8479
1384	49.8011
1380	49.7059
1376	49.653
1372	49.6079
1368	49.5123
1364	49.4672
1360	49.5158
1356	49.5169
1352	49.4308
1348	49.3733
1344	49.4015
1340	49.4101
1336	49.3464
1332	49.284
1328	49.2536
1324	49.222
1320	49.2269
1316	49.2239
1312	49.1023
1308	48.9811
1304	48.9725
1300	48.976
1296	48.931
1292	48.9114
1288	48.9348
1284	48.8576
1280	48.6817
1276	48.5741
1272	48.5837
1268	48.6327
1264	48.6407
1260	48.5935
1256	48.5174
1252	48.453
1248	48.4507
1244	48.48
1240	48.4549
1236	48.398
1232	48.3613
1228	48.3276
1224	48.2971
1220	48.2506
1216	48.1781
1212	48.148
1208	48.1833
1204	48.2152
1200	48.1922
1196	48.1318
1192	48.0896
1188	48.0636
1184	47.9982
1180	47.8989
1176	47.7765
1172	47.6568
1168	47.6396
1164	47.7101
1160	47.7404
1156	47.7033
1152	47.6561
1148	47.5832
1144	47.4687
1140	47.4326
1136	47.472
1132	47.4908
1128	47.4683
1124	47.382
1120	47.3379
1116	47.369
1112	47.3059
1108	47.1467
1104	47.0304
1100	46.9731
1096	46.9973
1092	47.1047
1088	47.1029
1084	47.0223
1080	46.9498
1076	46.8083
1072	46.7158
1068	46.781
1064	46.9356
1060	46.9585
1056	46.7546
1052	46.6293
1048	46.7683
1044	46.8434
1040	46.69
1036	46.4982
1032	46.426
1028	46.5365
1024	46.6486
1020	46.5121
1016	46.3146
1012	46.3719
1008	46.3994
1004	46.2132
1000	46.1319
996	 46.1045
992	 46.071
988	 46.2362
984	 46.4253
980	 46.499
976	 46.4347
972	 46.1036
968	 45.7174
964	 45.5843
960	 45.7671
956	 45.8693
952	 45.5584
948	 45.2058
944	 45.1195
940	 45.2056
936	 45.2696
932	 45.305
928	 45.4364
924	 45.5111
920	 45.4236
916	 45.3
912	 45.1071
908	 44.8838
904	 44.7671
900	 44.715
896	 44.7973
892	 44.9097
888	 44.8407
884	 44.7526
880	 44.7444
876	 44.7239
872	 44.6747
868	 44.5894
864	 44.4866
860	 44.4147
856	 44.3988
852	 44.4186
848	 44.3707
844	 44.2325
840	 44.1462
836	 44.0608
832	 43.9664
828	 44.047
824	 44.1217
820	 43.9976
816	 43.8051
812	 43.6782
808	 43.6811
804	 43.7338
800	 43.66
796	 43.5183
792	 43.5624
788	 43.7528
784	 43.8758
780	 43.8436
776	 43.6714
772	 43.488
768	 43.4346
764	 43.4098
760	 43.1744
756	 42.8669
752	 42.7842
748	 42.8342
744	 42.7081
740	 42.3991
736	 42.3123
732	 42.4512
728	 42.5243
724	 42.4346
720	 42.2971
716	 42.259
712	 42.1528
708	 41.9676
704	 41.837
700	 41.7798
696	 41.7042
692	 41.5515
688	 41.5491
684	 41.6827
680	 41.6361
676	 41.4692
672	 41.3792
668	 41.3643
664	 41.3097
660	 41.1278
656	 41.118
652	 41.2884
648	 41.2403
644	 40.9213
640	 40.5667
636	 40.4118
632	 40.4385
628	 40.5942
624	 40.6704
620	 40.5437
616	 40.4797
612	 40.3966
608	 40.0959
604	 39.708
600	 39.4632
596	 39.473
592	 39.6012
588	 39.6231
584	 39.435
580	 39.1827
576	 39.0964
572	 38.9683
568	 38.5957
564	 38.482
560	 38.6936
556	 38.5285
552	 37.8972
548	 37.6434
544	 37.9132
540	 37.8922
536	 37.5473
532	 37.4903
528	 37.5321
524	 37.0311
520	 36.4523
516	 36.4241
512	 36.752
508	 36.7427
504	 36.4207
500	 36.7394
496	 37.1133
492	 36.4052
488	 35.5489
484	 35.7267
480	 36.3782
476	 36.6027
472	 36.1086
468	 35.5067
464	 35.3141
460	 35.2574
456	 35.353
452	 34.5604
448	 33.4556
444	 34.1851
440	 34.479
436	 32.4907
432	 31.4177
428	 32.4803
424	 33.7805
420	 33.9524
416	 32.4345
412	 31.0848
408	 30.6473
404	 27.9189
400	 25.3933
396	 32.3908
392	 44.5294
388	 49.7552
384	 40.7636
380	 28.2753
376	 21.8656
372	 19.6313
370	 26.3288