File: Bakgrunnsmateriale/MATLAB/FTIR/ftir_data/subBb/Mapping_121/C-4040-8_t16_cm-1.asc
PE IR       SPECTRUM    SPECTRUM    ASCII       PEDS        1.60
  -1
C-1A6E~1.ASC
17/03/27
15:45:23.00
17/03/27
15:45:23.00
tln
$C-4040-8_t0016$<tbV0>[2.6,-10.4,8.0,0.0,27,1,0]
370
64

2002,4.07
MIRTGS : RIGHTBACK : INTERNAL 2
MIR : ON : INTERNAL 2
OPTKBR

0.200000
8
8.000000
FILLER
RATIO
SPECTRUM
UNLOCKED 256

DOUBLE
64
COMBINED
1
0
0

1.000000
RATIO

1
0
TRUE
51149
0
LEFT NOT FITTED RIGHT NOT FITTED 0
NONE
NONE
15600
12
4.427000
51148
TRUE
1 0 8 72 0 0 0 0

15798

#HDR
-1
-1
#GR
CM-1
%T
2.38419e-05
0.0
5000
-1.000000
4631
8
70.3482
6.412982
#DATA
5000	63.7287
4996	63.2293
4992	63.4253
4988	63.9081
4984	63.8809
4980	63.4681
4976	63.1284
4972	63.2454
4968	63.7287
4964	63.5129
4960	62.8968
4956	63.1609
4952	63.646
4948	63.0929
4944	61.8782
4940	61.7793
4936	63.058
4932	63.8369
4928	63.2634
4924	62.8411
4920	63.2587
4916	63.6104
4912	63.9347
4908	64.4132
4904	64.7751
4900	64.7527
4896	64.395
4892	64.1304
4888	63.7637
4884	63.2618
4880	63.0999
4876	63.4318
4872	63.8204
4868	63.7263
4864	63.5028
4860	63.6378
4856	63.8246
4852	63.8139
4848	63.8166
4844	64.0278
4840	64.2658
4836	64.2303
4832	63.9805
4828	63.793
4824	63.7334
4820	63.6882
4816	63.5691
4812	63.5741
4808	63.7856
4804	63.8351
4800	63.6909
4796	63.538
4792	63.5473
4788	63.7562
4784	63.8265
4780	63.6717
4776	63.557
4772	63.62
4768	63.69
4764	63.6342
4760	63.54
4756	63.5176
4752	63.6666
4748	63.8665
4744	63.7826
4740	63.554
4736	63.4829
4732	63.5019
4728	63.5432
4724	63.429
4720	63.1491
4716	62.9612
4712	62.9499
4708	63.131
4704	63.2212
4700	63.0752
4696	63.1126
4692	63.4617
4688	63.7959
4684	63.8916
4680	63.8439
4676	63.687
4672	63.5018
4668	63.6139
4664	63.8374
4660	63.7853
4656	63.5959
4652	63.5015
4648	63.5046
4644	63.444
4640	63.4706
4636	63.6692
4632	63.6384
4628	63.4267
4624	63.2471
4620	63.1851
4616	63.3419
4612	63.5224
4608	63.6476
4604	63.7903
4600	63.92
4596	64.0435
4592	64.0478
4588	63.9188
4584	63.742
4580	63.6555
4576	63.7022
4572	63.6376
4568	63.6169
4564	63.6876
4560	63.7184
4556	63.7691
4552	63.4782
4548	62.9606
4544	62.6883
4540	62.6685
4536	62.9818
4532	63.3433
4528	63.4908
4524	63.6757
4520	63.8914
4516	63.9589
4512	63.9773
4508	64.103
4504	64.0887
4500	63.7712
4496	63.5628
4492	63.4517
4488	63.5527
4484	63.9128
4480	64.4011
4476	64.4366
4472	64.1382
4468	64.2531
4464	64.2602
4460	64.3877
4456	65.1426
4452	67.433
4448	70.0132
4444	69.8447
4440	66.844
4436	62.8888
4432	61.3896
4428	62.3255
4424	63.0294
4420	63.2517
4416	62.9535
4412	62.6227
4408	62.8646
4404	62.6521
4400	62.5062
4396	62.8323
4392	63.333
4388	61.6183
4384	56.2792
4380	56.3289
4376	62.4165
4372	65.3572
4368	65.8206
4364	66.2911
4360	66.3183
4356	65.7628
4352	64.9424
4348	64.3136
4344	63.9209
4340	63.7844
4336	63.7045
4332	63.5642
4328	63.4907
4324	63.4833
4320	63.427
4316	63.3124
4312	63.3018
4308	63.3645
4304	63.4961
4300	63.7378
4296	63.7522
4292	63.5759
4288	63.4906
4284	63.517
4280	63.4809
4276	63.3467
4272	63.3679
4268	63.4436
4264	63.4251
4260	63.5055
4256	63.5868
4252	63.5157
4248	63.38
4244	63.2537
4240	63.1694
4236	63.1995
4232	63.3342
4228	63.4309
4224	63.47
4220	63.5154
4216	63.4942
4212	63.3193
4208	63.1145
4204	63.0558
4200	63.0881
4196	62.9857
4192	62.6828
4188	62.499
4184	62.7156
4180	63.0334
4176	63.1509
4172	63.3195
4168	63.4864
4164	63.3125
4160	63.1057
4156	63.1202
4152	63.0611
4148	62.8776
4144	62.8233
4140	62.9385
4136	63.0662
4132	63.1997
4128	63.328
4124	63.2466
4120	63.0827
4116	63.0768
4112	63.0148
4108	62.876
4104	62.8826
4100	62.9683
4096	63.0642
4092	63.1638
4088	63.1898
4084	63.1677
4080	63.1818
4076	63.1382
4072	63.011
4068	63.0117
4064	63.0858
4060	63.0415
4056	63.0819
4052	63.2369
4048	63.2265
4044	63.0858
4040	62.9931
4036	63.1175
4032	63.352
4028	63.3245
4024	63.1739
4020	63.1666
4016	63.1107
4012	62.9469
4008	62.8583
4004	62.9268
4000	63.1018
3996	63.2003
3992	63.1142
3988	62.984
3984	62.9016
3980	62.8284
3976	62.8208
3972	62.8003
3968	62.7851
3964	62.8808
3960	62.8908
3956	62.8855
3952	62.9445
3948	63.0068
3944	63.0793
3940	62.9673
3936	62.8064
3932	62.7738
3928	62.8132
3924	62.9276
3920	62.9264
3916	62.8281
3912	62.8461
3908	62.9217
3904	62.9448
3900	62.8956
3896	62.8726
3892	62.8531
3888	62.7863
3884	62.8196
3880	62.9043
3876	62.9938
3872	63.062
3868	63.0173
3864	62.9184
3860	62.875
3856	63.0289
3852	63.0982
3848	62.9424
3844	62.8935
3840	62.9026
3836	62.8468
3832	62.7282
3828	62.6302
3824	62.6461
3820	62.7531
3816	62.8205
3812	62.8423
3808	62.9785
3804	63.1113
3800	63.0119
3796	62.7452
3792	62.5838
3788	62.5419
3784	62.4993
3780	62.5351
3776	62.7043
3772	62.8765
3768	62.8906
3764	62.7627
3760	62.6112
3756	62.6791
3752	62.9519
3748	63.0701
3744	62.984
3740	62.9019
3736	62.9173
3732	62.8118
3728	62.6343
3724	62.6316
3720	62.6454
3716	62.6804
3712	62.7133
3708	62.632
3704	62.6006
3700	62.5288
3696	62.4285
3692	62.4948
3688	62.5015
3684	62.4358
3680	62.5856
3676	62.7956
3672	62.7752
3668	62.6088
3664	62.5057
3660	62.498
3656	62.5198
3652	62.5241
3648	62.3936
3644	62.2062
3640	62.2016
3636	62.3247
3632	62.4413
3628	62.44
3624	62.3252
3620	62.2365
3616	62.238
3612	62.309
3608	62.2639
3604	62.1059
3600	62.0319
3596	62.1273
3592	62.3539
3588	62.5078
3584	62.4213
3580	62.2308
3576	62.1223
3572	62.079
3568	62.1084
3564	62.1889
3560	62.2401
3556	62.2036
3552	62.0932
3548	62.021
3544	61.9826
3540	61.9627
3536	61.9664
3532	61.9368
3528	61.878
3524	61.8447
3520	61.8829
3516	61.9181
3512	61.8332
3508	61.7687
3504	61.8363
3500	61.8757
3496	61.8678
3492	61.853
3488	61.8747
3484	61.9116
3480	61.7915
3476	61.695
3472	61.7952
3468	61.8386
3464	61.7717
3460	61.7453
3456	61.6743
3452	61.5748
3448	61.6148
3444	61.7282
3440	61.7291
3436	61.6336
3432	61.6188
3428	61.6805
3424	61.6686
3420	61.6117
3416	61.6207
3412	61.724
3408	61.7671
3404	61.6002
3400	61.3974
3396	61.3349
3392	61.3786
3388	61.4244
3384	61.4185
3380	61.4716
3376	61.5616
3372	61.4757
3368	61.3597
3364	61.3487
3360	61.2991
3356	61.2636
3352	61.2545
3348	61.2194
3344	61.2164
3340	61.2103
3336	61.184
3332	61.2159
3328	61.2852
3324	61.2696
3320	61.1807
3316	61.1564
3312	61.2174
3308	61.2379
3304	61.1774
3300	61.128
3296	61.1353
3292	61.1493
3288	61.0702
3284	60.9847
3280	61.0409
3276	61.124
3272	61.1167
3268	61.0593
3264	60.9782
3260	60.9105
3256	60.8659
3252	60.832
3248	60.8221
3244	60.781
3240	60.7193
3236	60.747
3232	60.8251
3228	60.8362
3224	60.811
3220	60.8313
3216	60.8733
3212	60.8783
3208	60.8498
3204	60.7318
3200	60.5625
3196	60.4805
3192	60.4875
3188	60.5514
3184	60.6244
3180	60.6709
3176	60.6103
3172	60.4431
3168	60.4206
3164	60.5488
3160	60.5941
3156	60.56
3152	60.565
3148	60.6156
3144	60.5834
3140	60.3993
3136	60.2236
3132	60.2087
3128	60.3214
3124	60.4582
3120	60.5376
3116	60.5885
3112	60.6157
3108	60.5012
3104	60.3157
3100	60.2687
3096	60.3233
3092	60.3268
3088	60.3035
3084	60.2628
3080	60.2322
3076	60.2839
3072	60.3101
3068	60.2571
3064	60.1974
3060	60.1875
3056	60.228
3052	60.2387
3048	60.1874
3044	60.1368
3040	60.1206
3036	60.0953
3032	60.0399
3028	60.0011
3024	59.9774
3020	59.9318
3016	59.8858
3012	59.9167
3008	60.0383
3004	60.1055
3000	60.0301
2996	59.8832
2992	59.7833
2988	59.751
2984	59.705
2980	59.6749
2976	59.6677
2972	59.5999
2968	59.5105
2964	59.5147
2960	59.5642
2956	59.5347
2952	59.4763
2948	59.449
2944	59.4609
2940	59.4898
2936	59.4863
2932	59.4269
2928	59.324
2924	59.2462
2920	59.2441
2916	59.2902
2912	59.274
2908	59.21
2904	59.2129
2900	59.2454
2896	59.2603
2892	59.3178
2888	59.3363
2884	59.2713
2880	59.2111
2876	59.1772
2872	59.1742
2868	59.1856
2864	59.1981
2860	59.1635
2856	59.1194
2852	59.1434
2848	59.1551
2844	59.114
2840	59.0694
2836	59.0901
2832	59.1135
2828	59.064
2824	59.0377
2820	59.0452
2816	59.045
2812	59.0474
2808	58.9955
2804	58.8475
2800	58.7319
2796	58.7376
2792	58.7742
2788	58.7575
2784	58.7592
2780	58.8006
2776	58.7917
2772	58.7294
2768	58.7035
2764	58.683
2760	58.5994
2756	58.569
2752	58.6075
2748	58.6156
2744	58.6316
2740	58.6419
2736	58.5788
2732	58.4885
2728	58.441
2724	58.4576
2720	58.4616
2716	58.3981
2712	58.3365
2708	58.3278
2704	58.3215
2700	58.2962
2696	58.3205
2692	58.3406
2688	58.2531
2684	58.1219
2680	58.0661
2676	58.1304
2672	58.1933
2668	58.1449
2664	58.0859
2660	58.0429
2656	57.9714
2652	57.8829
2648	57.8193
2644	57.8629
2640	57.9549
2636	57.9488
2632	57.8936
2628	57.8923
2624	57.8361
2620	57.6974
2616	57.6392
2612	57.6709
2608	57.7036
2604	57.7392
2600	57.7359
2596	57.6854
2592	57.639
2588	57.5803
2584	57.5397
2580	57.5212
2576	57.5035
2572	57.5094
2568	57.5028
2564	57.4768
2560	57.4777
2556	57.4356
2552	57.2792
2548	57.1841
2544	57.2256
2540	57.2547
2536	57.2296
2532	57.2009
2528	57.2021
2524	57.21
2520	57.1845
2516	57.1445
2512	57.0698
2508	57.0013
2504	57.0204
2500	56.9987
2496	56.9426
2492	57.0026
2488	56.9898
2484	56.8175
2480	56.7419
2476	56.8079
2472	56.846
2468	56.8131
2464	56.7794
2460	56.7286
2456	56.654
2452	56.6514
2448	56.7247
2444	56.7688
2440	56.7074
2436	56.5941
2432	56.5536
2428	56.5726
2424	56.5127
2420	56.3316
2416	56.189
2412	56.1874
2408	56.2174
2404	56.2473
2400	56.2983
2396	56.3047
2392	56.2819
2388	56.2634
2384	56.2378
2380	56.2424
2376	56.2598
2372	56.2032
2368	56.1527
2364	56.1688
2360	56.1352
2356	56.081
2352	56.0388
2348	55.9279
2344	55.8089
2340	55.8352
2336	55.9425
2332	55.9598
2328	55.9174
2324	55.8853
2320	55.8591
2316	55.8018
2312	55.6841
2308	55.6118
2304	55.6276
2300	55.6068
2296	55.5386
2292	55.4597
2288	55.4088
2284	55.4393
2280	55.513
2276	55.527
2272	55.4424
2268	55.3874
2264	55.4049
2260	55.3749
2256	55.2961
2252	55.3099
2248	55.3576
2244	55.2854
2240	55.1795
2236	55.1215
2232	55.0818
2228	55.0294
2224	54.9543
2220	54.9165
2216	54.943
2212	54.9817
2208	54.9852
2204	54.906
2200	54.8241
2196	54.843
2192	54.858
2188	54.8045
2184	54.7606
2180	54.76
2176	54.7965
2172	54.7863
2168	54.6718
2164	54.6016
2160	54.6162
2156	54.565
2152	54.3964
2148	54.2942
2144	54.3102
2140	54.2931
2136	54.2985
2132	54.3503
2128	54.3258
2124	54.2536
2120	54.2532
2116	54.2925
2112	54.2777
2108	54.2124
2104	54.1158
2100	54.0503
2096	54.063
2092	54.0717
2088	54.0818
2084	54.1105
2080	54.007
2076	53.8095
2072	53.7814
2068	53.915
2064	53.9435
2060	53.8066
2056	53.7389
2052	53.8077
2048	53.8546
2044	53.828
2040	53.7443
2036	53.6561
2032	53.604
2028	53.5641
2024	53.4916
2020	53.3675
2016	53.2836
2012	53.2999
2008	53.3379
2004	53.3391
2000	53.3462
1996	53.3637
1992	53.3507
1988	53.327
1984	53.2726
1980	53.1691
1976	53.1098
1972	53.1036
1968	53.0871
1964	53.0372
1960	52.959
1956	52.9066
1952	52.8712
1948	52.8571
1944	52.8722
1940	52.8534
1936	52.828
1932	52.8135
1928	52.7807
1924	52.7588
1920	52.7575
1916	52.7503
1912	52.7059
1908	52.6101
1904	52.522
1900	52.4982
1896	52.5115
1892	52.517
1888	52.4846
1884	52.4275
1880	52.3724
1876	52.3138
1872	52.283
1868	52.2549
1864	52.214
1860	52.1991
1856	52.1428
1852	52.0878
1848	52.0789
1844	52.0366
1840	51.9912
1836	51.9622
1832	51.9553
1828	51.9668
1824	51.9408
1820	51.8612
1816	51.7682
1812	51.7344
1808	51.7718
1804	51.7946
1800	51.7767
1796	51.7655
1792	51.7146
1788	51.6724
1784	51.7002
1780	51.6678
1776	51.5937
1772	51.5327
1768	51.4289
1764	51.3968
1760	51.4557
1756	51.4676
1752	51.4293
1748	51.3306
1744	51.1899
1740	51.1582
1736	51.2445
1732	51.2444
1728	51.1199
1724	51.066
1720	51.1765
1716	51.1834
1712	50.9882
1708	50.9482
1704	51.1146
1700	51.2125
1696	51.0784
1692	50.9116
1688	50.9693
1684	51.0062
1680	50.8463
1676	50.7333
1672	50.7064
1668	50.6395
1664	50.5215
1660	50.483
1656	50.6838
1652	50.8341
1648	50.6686
1644	50.471
1640	50.4355
1636	50.4163
1632	50.2706
1628	50.1377
1624	50.1441
1620	50.1911
1616	50.1472
1612	50.0253
1608	50.0072
1604	49.9796
1600	49.8257
1596	49.7818
1592	49.8336
1588	49.7917
1584	49.7118
1580	49.7346
1576	49.7663
1572	49.6849
1568	49.6295
1564	49.7471
1560	49.8732
1556	49.7528
1552	49.5544
1548	49.5326
1544	49.6696
1540	49.6966
1536	49.5486
1532	49.4488
1528	49.4186
1524	49.4391
1520	49.403
1516	49.2761
1512	49.33
1508	49.4645
1504	49.3214
1500	49.0504
1496	48.9164
1492	48.911
1488	48.8885
1484	48.8055
1480	48.8013
1476	48.9198
1472	48.9775
1468	48.8751
1464	48.8019
1460	48.8112
1456	48.6935
1452	48.4434
1448	48.317
1444	48.4252
1440	48.57
1436	48.4383
1432	48.192
1428	48.1986
1424	48.3477
1420	48.3978
1416	48.3183
1412	48.1591
1408	47.9516
1404	47.8957
1400	48.0382
1396	48.0914
1392	48.0269
1388	47.9716
1384	47.9303
1380	47.8565
1376	47.7772
1372	47.7572
1368	47.7555
1364	47.7508
1360	47.7207
1356	47.6716
1352	47.6596
1348	47.6602
1344	47.5973
1340	47.4574
1336	47.3891
1332	47.4165
1328	47.4522
1324	47.4535
1320	47.3979
1316	47.3469
1312	47.3301
1308	47.3167
1304	47.2775
1300	47.179
1296	47.0702
1292	47.0799
1288	47.1629
1284	47.1119
1280	46.9481
1276	46.8178
1272	46.7942
1268	46.8387
1264	46.7667
1260	46.6659
1256	46.7327
1252	46.7692
1248	46.6737
1244	46.5563
1240	46.4398
1236	46.391
1232	46.4604
1228	46.543
1224	46.5482
1220	46.4913
1216	46.4244
1212	46.3867
1208	46.34
1204	46.2527
1200	46.181
1196	46.155
1192	46.1693
1188	46.1964
1184	46.1497
1180	46.02
1176	45.9199
1172	45.9248
1168	45.9977
1164	45.9663
1160	45.8001
1156	45.7099
1152	45.7288
1148	45.7052
1144	45.6061
1140	45.5268
1136	45.4676
1132	45.4372
1128	45.4635
1124	45.4376
1120	45.38
1116	45.3543
1112	45.3226
1108	45.2017
1104	44.95
1100	44.8048
1096	44.9206
1092	45.0284
1088	44.965
1084	44.862
1080	44.8136
1076	44.861
1072	44.9274
1068	44.8762
1064	44.7922
1060	44.7662
1056	44.7295
1052	44.7042
1048	44.6973
1044	44.6405
1040	44.5712
1036	44.5251
1032	44.4631
1028	44.3272
1024	44.1987
1020	44.1662
1016	44.1393
1012	44.1441
1008	44.1341
1004	44.131
1000	44.2334
996	 44.137
992	 43.8646
988	 43.7993
984	 43.9222
980	 43.9773
976	 43.872
972	 43.7178
968	 43.6327
964	 43.6348
960	 43.7261
956	 43.7349
952	 43.5244
948	 43.5111
944	 43.7138
940	 43.625
936	 43.4437
932	 43.4168
928	 43.2811
924	 42.9705
920	 42.6086
916	 42.556
912	 42.8542
908	 42.874
904	 42.5867
900	 42.3192
896	 42.1521
892	 42.1815
888	 42.2657
884	 42.2891
880	 42.251
876	 42.2085
872	 42.1866
868	 42.0892
864	 41.9682
860	 42.0204
856	 42.1881
852	 42.2817
848	 42.3682
844	 42.3606
840	 42.1117
836	 41.8255
832	 41.7349
828	 41.81
824	 41.8611
820	 41.7985
816	 41.653
812	 41.4948
808	 41.4224
804	 41.3483
800	 41.1865
796	 41.0589
792	 41.0371
788	 41.0656
784	 41.1021
780	 41.1487
776	 41.2068
772	 41.2365
768	 41.1217
764	 40.905
760	 40.7449
756	 40.5666
752	 40.3454
748	 40.2528
744	 40.3168
740	 40.3688
736	 40.2955
732	 40.0911
728	 39.94
724	 39.9294
720	 39.8594
716	 39.6811
712	 39.4695
708	 39.3499
704	 39.4424
700	 39.5684
696	 39.4806
692	 39.3425
688	 39.2737
684	 39.1106
680	 38.9049
676	 38.8293
672	 38.8705
668	 39.0224
664	 39.1255
660	 38.8443
656	 38.4612
652	 38.3704
648	 38.5071
644	 38.6063
640	 38.4926
636	 38.3293
632	 38.1527
628	 37.9168
624	 37.7713
620	 37.7144
616	 37.6427
612	 37.6693
608	 37.864
604	 37.8362
600	 37.3952
596	 37.0113
592	 36.9241
588	 36.891
584	 36.8371
580	 36.9121
576	 36.8018
572	 36.292
568	 35.903
564	 35.9216
560	 36.1024
556	 36.0846
552	 35.722
548	 35.3075
544	 35.1121
540	 35.136
536	 35.0521
532	 34.8322
528	 34.731
524	 34.572
520	 34.2095
516	 33.749
512	 33.511
508	 33.4213
504	 33.4325
500	 33.9466
496	 34.1986
492	 33.4232
488	 32.8564
484	 33.3929
480	 34.0512
476	 33.9665
472	 33.0271
468	 31.9477
464	 31.6071
460	 31.7752
456	 31.6534
452	 30.8892
448	 30.77
444	 31.6333
440	 31.2568
436	 29.9055
432	 29.9995
428	 31.0254
424	 31.5618
420	 31.5246
416	 30.1779
412	 28.6282
408	 29.9582
404	 33.4774
400	 33.7511
396	 29.9303
392	 23.4986
388	 13.0561
384	 11.2174
380	 9.167981
376	 7.458066
372	 18.1205
370	 22.7838