File: Bakgrunnsmateriale/MATLAB/FTIR/ftir_data/subCa/Mapping_25/BZ12041010-4_t19_cm-1.asc
PE IR       SPECTRUM    SPECTRUM    ASCII       PEDS        1.60
  -1
BZ2C70~1.ASC
17/04/10
10:27:47.00
17/04/10
10:27:47.00
tln
$BZ12041010-4_t0019$<tbV0>[-2.6,-4.6,9.0,0.0,22,1,0]
370
64

2002,4.07
MIRTGS : RIGHTBACK : INTERNAL 2
MIR : ON : INTERNAL 2
OPTKBR

0.200000
8
8.000000
FILLER
RATIO
SPECTRUM
UNLOCKED 256

DOUBLE
64
COMBINED
1
0
0

1.000000
RATIO

1
0
TRUE
51149
0
LEFT NOT FITTED RIGHT NOT FITTED 0
NONE
NONE
15600
12
4.427000
51148
TRUE
1 0 8 72 0 0 0 0

15798

#HDR
-1
-1
#GR
CM-1
%T
2.38419e-05
0.0
5000
-1.000000
4631
8
76.4997
9.356856
#DATA
5000	65.1032
4996	64.5628
4992	64.3042
4988	64.2337
4984	64.2103
4980	64.3382
4976	64.443
4972	64.4381
4968	64.0748
4964	63.6139
4960	63.788
4956	64.2755
4952	64.3732
4948	64.1829
4944	63.9952
4940	63.8812
4936	63.9516
4932	64.0779
4928	64.2503
4924	64.6581
4920	64.8879
4916	64.7042
4912	64.4443
4908	64.2064
4904	64.0127
4900	63.9736
4896	64.0707
4892	64.2975
4888	64.691
4884	64.9907
4880	64.9961
4876	64.993
4872	64.576
4868	63.6288
4864	63.3317
4860	63.8494
4856	64.4959
4852	64.9797
4848	65.308
4844	65.7187
4840	65.944
4836	66.1843
4832	66.2835
4828	65.4631
4824	64.9682
4820	65.1489
4816	63.9261
4812	61.8372
4808	61.9308
4804	63.673
4800	64.4695
4796	64.0581
4792	63.1425
4788	62.8486
4784	63.4529
4780	63.9265
4776	63.9754
4772	64.0975
4768	64.3813
4764	64.444
4760	64.5111
4756	65.0213
4752	65.2673
4748	64.8795
4744	64.6272
4740	64.585
4736	64.5942
4732	64.4807
4728	64.222
4724	64.3125
4720	64.6544
4716	64.8974
4712	64.8554
4708	64.5561
4704	64.3511
4700	64.4808
4696	64.7205
4692	64.707
4688	64.6143
4684	64.5019
4680	64.3233
4676	64.3203
4672	64.2549
4668	64.0652
4664	64.1433
4660	64.2824
4656	64.199
4652	64.3175
4648	64.5013
4644	64.2707
4640	64.1614
4636	64.3132
4632	64.312
4628	64.2968
4624	64.2867
4620	64.1932
4616	64.1353
4612	64.0099
4608	63.7738
4604	63.5971
4600	63.683
4596	64.0428
4592	64.2575
4588	64.1354
4584	64.1154
4580	64.2934
4576	64.1802
4572	63.8277
4568	63.627
4564	63.618
4560	63.7441
4556	63.8104
4552	63.7642
4548	63.6372
4544	63.4745
4540	63.5366
4536	63.6107
4532	63.4652
4528	63.4788
4524	63.7997
4520	64.1472
4516	64.3619
4512	64.3011
4508	64.1699
4504	64.172
4500	64.4171
4496	64.9575
4492	65.3258
4488	65.3958
4484	65.1305
4480	64.5351
4476	66.0977
4472	71.1655
4468	75.6129
4464	74.0757
4460	73.5387
4456	76.4997
4452	71.7746
4448	64.3485
4444	62.3945
4440	63.3881
4436	64.325
4432	64.7582
4428	64.0945
4424	63.1668
4420	62.9139
4416	63.064
4412	63.3016
4408	63.3991
4404	63.4505
4400	63.509
4396	63.5607
4392	63.7354
4388	64.0249
4384	64.1704
4380	64.0822
4376	64.1175
4372	64.2085
4368	64.0367
4364	63.8628
4360	63.745
4356	63.6006
4352	63.6895
4348	63.8606
4344	63.9351
4340	63.9929
4336	63.9778
4332	64.0399
4328	64.2214
4324	64.2572
4320	64.1293
4316	64.0379
4312	64.0689
4308	64.2269
4304	64.3148
4300	64.2643
4296	64.2351
4292	64.1553
4288	64.0774
4284	64.1438
4280	64.2854
4276	64.4227
4272	64.4368
4268	64.2315
4264	63.9782
4260	63.9738
4256	64.2113
4252	64.3999
4248	64.3998
4244	64.3486
4240	64.3845
4236	64.5005
4232	64.5989
4228	64.6759
4224	64.73
4220	64.6049
4216	64.4676
4212	64.56
4208	64.7124
4204	64.8179
4200	64.8203
4196	64.6968
4192	64.5723
4188	64.4698
4184	64.4907
4180	64.6519
4176	64.7443
4172	64.7958
4168	64.9338
4164	64.9913
4160	64.8431
4156	64.7206
4152	64.7847
4148	64.7968
4144	64.6586
4140	64.7087
4136	64.9531
4132	65.0966
4128	65.0949
4124	64.9434
4120	64.7339
4116	64.6201
4112	64.6045
4108	64.6982
4104	64.9077
4100	65.1394
4096	65.1721
4092	64.9471
4088	64.6786
4084	64.5365
4080	64.5549
4076	64.6424
4072	64.6978
4068	64.5901
4064	64.3902
4060	64.2731
4056	64.2886
4052	64.4787
4048	64.654
4044	64.6915
4040	64.6787
4036	64.614
4032	64.4654
4028	64.313
4024	64.2501
4020	64.3196
4016	64.4783
4012	64.4765
4008	64.3296
4004	64.3119
4000	64.3093
3996	64.2229
3992	64.2475
3988	64.3338
3984	64.2909
3980	64.1244
3976	63.9818
3972	64.0908
3968	64.2709
3964	64.2421
3960	64.3607
3956	64.6937
3952	64.7603
3948	64.5953
3944	64.5573
3940	64.6142
3936	64.6581
3932	64.6392
3928	64.5271
3924	64.4853
3920	64.4682
3916	64.3724
3912	64.3875
3908	64.4886
3904	64.5688
3900	64.5778
3896	64.4167
3892	64.3368
3888	64.486
3884	64.6139
3880	64.6429
3876	64.7433
3872	64.8663
3868	64.7741
3864	64.5871
3860	64.5612
3856	64.609
3852	64.5432
3848	64.4144
3844	64.3742
3840	64.3693
3836	64.3271
3832	64.353
3828	64.4326
3824	64.4369
3820	64.413
3816	64.4315
3812	64.5221
3808	64.6837
3804	64.7475
3800	64.6396
3796	64.564
3792	64.6089
3788	64.6487
3784	64.6543
3780	64.6755
3776	64.7157
3772	64.6699
3768	64.5861
3764	64.6492
3760	64.6831
3756	64.5793
3752	64.5628
3748	64.6922
3744	64.7839
3740	64.6676
3736	64.5212
3732	64.5545
3728	64.6339
3724	64.7066
3720	64.7711
3716	64.7042
3712	64.5931
3708	64.6103
3704	64.7264
3700	64.7956
3696	64.7695
3692	64.7432
3688	64.7437
3684	64.7459
3680	64.7736
3676	64.836
3672	64.8493
3668	64.7636
3664	64.6239
3660	64.5232
3656	64.5452
3652	64.6155
3648	64.6699
3644	64.6491
3640	64.6092
3636	64.6442
3632	64.6448
3628	64.6127
3624	64.6126
3620	64.6097
3616	64.5854
3612	64.6191
3608	64.6797
3604	64.6227
3600	64.6109
3596	64.7224
3592	64.7277
3588	64.6628
3584	64.6604
3580	64.6731
3576	64.6638
3572	64.6094
3568	64.5488
3564	64.5645
3560	64.5886
3556	64.5562
3552	64.5528
3548	64.5289
3544	64.4278
3540	64.3409
3536	64.2999
3532	64.2693
3528	64.2465
3524	64.3173
3520	64.36
3516	64.1934
3512	64.0195
3508	63.9974
3504	64.0855
3500	64.2439
3496	64.3574
3492	64.3394
3488	64.2331
3484	64.0972
3480	64.015
3476	64.1067
3472	64.2274
3468	64.1749
3464	64.0914
3460	64.1058
3456	64.1211
3452	64.0811
3448	64.1008
3444	64.1911
3440	64.1962
3436	64.1653
3432	64.1802
3428	64.189
3424	64.1897
3420	64.1631
3416	64.1519
3412	64.1859
3408	64.274
3404	64.3623
3400	64.3176
3396	64.218
3392	64.1353
3388	64.0731
3384	64.0903
3380	64.1309
3376	64.1491
3372	64.1823
3368	64.2254
3364	64.2249
3360	64.1942
3356	64.2439
3352	64.347
3348	64.416
3344	64.3914
3340	64.3087
3336	64.2514
3332	64.1653
3328	64.1138
3324	64.2065
3320	64.3009
3316	64.2869
3312	64.2513
3308	64.2763
3304	64.2926
3300	64.2449
3296	64.3052
3292	64.4476
3288	64.4111
3284	64.2833
3280	64.2872
3276	64.3278
3272	64.2655
3268	64.1796
3264	64.1623
3260	64.237
3256	64.327
3252	64.3212
3248	64.2664
3244	64.244
3240	64.238
3236	64.2404
3232	64.2308
3228	64.2254
3224	64.3124
3220	64.4184
3216	64.4007
3212	64.2996
3208	64.2597
3204	64.3008
3200	64.3396
3196	64.4042
3192	64.4603
3188	64.4098
3184	64.3975
3180	64.4945
3176	64.5581
3172	64.5538
3168	64.5282
3164	64.4734
3160	64.3826
3156	64.3766
3152	64.4782
3148	64.5325
3144	64.5209
3140	64.4845
3136	64.4571
3132	64.485
3128	64.5145
3124	64.4794
3120	64.4282
3116	64.4311
3112	64.4668
3108	64.4975
3104	64.49
3100	64.5255
3096	64.5534
3092	64.4651
3088	64.4248
3084	64.4705
3080	64.4756
3076	64.4402
3072	64.4285
3068	64.4469
3064	64.4595
3060	64.4415
3056	64.4855
3052	64.6054
3048	64.6568
3044	64.6406
3040	64.6041
3036	64.5563
3032	64.5197
3028	64.4778
3024	64.4383
3020	64.4389
3016	64.4845
3012	64.5127
3008	64.4848
3004	64.4953
3000	64.5807
2996	64.6116
2992	64.5612
2988	64.5129
2984	64.4816
2980	64.4882
2976	64.5994
2972	64.7599
2968	64.7483
2964	64.5662
2960	64.4218
2956	64.3882
2952	64.4228
2948	64.4388
2944	64.3847
2940	64.2676
2936	64.2337
2932	64.3348
2928	64.3471
2924	64.2726
2920	64.3056
2916	64.3525
2912	64.3126
2908	64.261
2904	64.2596
2900	64.293
2896	64.3128
2892	64.3493
2888	64.3838
2884	64.3566
2880	64.2782
2876	64.2405
2872	64.3211
2868	64.43
2864	64.4151
2860	64.3081
2856	64.2781
2852	64.3105
2848	64.3587
2844	64.4451
2840	64.4862
2836	64.4928
2832	64.5115
2828	64.5086
2824	64.4819
2820	64.4688
2816	64.5104
2812	64.5728
2808	64.5886
2804	64.5562
2800	64.5333
2796	64.5771
2792	64.6409
2788	64.6372
2784	64.6008
2780	64.5602
2776	64.4826
2772	64.4522
2768	64.4833
2764	64.4862
2760	64.4788
2756	64.4925
2752	64.5528
2748	64.6189
2744	64.5869
2740	64.4988
2736	64.4303
2732	64.4077
2728	64.445
2724	64.513
2720	64.5726
2716	64.5522
2712	64.4813
2708	64.477
2704	64.5265
2700	64.5428
2696	64.5161
2692	64.4989
2688	64.4679
2684	64.4397
2680	64.4468
2676	64.4773
2672	64.5593
2668	64.6145
2664	64.5514
2660	64.459
2656	64.4646
2652	64.5162
2648	64.5154
2644	64.4745
2640	64.4386
2636	64.423
2632	64.4279
2628	64.4617
2624	64.4855
2620	64.4956
2616	64.5227
2612	64.5181
2608	64.4703
2604	64.4562
2600	64.4588
2596	64.4297
2592	64.4119
2588	64.3923
2584	64.3732
2580	64.3918
2576	64.448
2572	64.5095
2568	64.525
2564	64.4885
2560	64.4525
2556	64.476
2552	64.5204
2548	64.5482
2544	64.5943
2540	64.6141
2536	64.5546
2532	64.5329
2528	64.5659
2524	64.5078
2520	64.4147
2516	64.4142
2512	64.4554
2508	64.4708
2504	64.493
2500	64.5307
2496	64.5275
2492	64.4727
2488	64.4361
2484	64.4415
2480	64.4467
2476	64.444
2472	64.4443
2468	64.4603
2464	64.497
2460	64.5277
2456	64.542
2452	64.5495
2448	64.5568
2444	64.5605
2440	64.5561
2436	64.5743
2432	64.5807
2428	64.5235
2424	64.4638
2420	64.4256
2416	64.3801
2412	64.4005
2408	64.5089
2404	64.5478
2400	64.4773
2396	64.4263
2392	64.4056
2388	64.3845
2384	64.348
2380	64.2862
2376	64.2819
2372	64.3362
2368	64.3737
2364	64.3843
2360	64.3937
2356	64.3999
2352	64.3761
2348	64.3578
2344	64.4126
2340	64.4433
2336	64.3838
2332	64.4029
2328	64.4856
2324	64.467
2320	64.3708
2316	64.3339
2312	64.36
2308	64.3378
2304	64.3243
2300	64.3644
2296	64.3709
2292	64.3416
2288	64.3121
2284	64.2722
2280	64.2461
2276	64.2503
2272	64.256
2268	64.286
2264	64.2996
2260	64.2263
2256	64.1781
2252	64.2244
2248	64.2724
2244	64.3019
2240	64.316
2236	64.2979
2232	64.2919
2228	64.3126
2224	64.3353
2220	64.3255
2216	64.3049
2212	64.3484
2208	64.4309
2204	64.4565
2200	64.4007
2196	64.3202
2192	64.2882
2188	64.3311
2184	64.3886
2180	64.4089
2176	64.3935
2172	64.368
2168	64.3689
2164	64.3377
2160	64.2435
2156	64.2004
2152	64.2303
2148	64.2732
2144	64.3409
2140	64.3955
2136	64.3972
2132	64.375
2128	64.3562
2124	64.3711
2120	64.3997
2116	64.3592
2112	64.2943
2108	64.2848
2104	64.3077
2100	64.3064
2096	64.2488
2092	64.1881
2088	64.1503
2084	64.1475
2080	64.2138
2076	64.3163
2072	64.3612
2068	64.2943
2064	64.2475
2060	64.3035
2056	64.3278
2052	64.2796
2048	64.2477
2044	64.2326
2040	64.2328
2036	64.2769
2032	64.2889
2028	64.2431
2024	64.2178
2020	64.2391
2016	64.2634
2012	64.2539
2008	64.234
2004	64.2122
2000	64.1894
1996	64.1903
1992	64.2237
1988	64.279
1984	64.2773
1980	64.229
1976	64.2204
1972	64.2096
1968	64.1956
1964	64.2061
1960	64.2482
1956	64.3433
1952	64.4052
1948	64.3395
1944	64.2092
1940	64.1837
1936	64.2646
1932	64.2715
1928	64.209
1924	64.2013
1920	64.2189
1916	64.2002
1912	64.1855
1908	64.1979
1904	64.1976
1900	64.18
1896	64.1605
1892	64.1613
1888	64.2093
1884	64.2289
1880	64.1878
1876	64.1701
1872	64.1737
1868	64.1689
1864	64.1605
1860	64.1514
1856	64.1438
1852	64.1447
1848	64.1772
1844	64.1939
1840	64.1665
1836	64.1391
1832	64.115
1828	64.1088
1824	64.1162
1820	64.1144
1816	64.1092
1812	64.0934
1808	64.064
1804	64.0453
1800	64.0547
1796	64.0276
1792	63.9845
1788	63.9989
1784	64.0297
1780	64.0388
1776	64.0278
1772	64.0367
1768	64.0431
1764	63.9888
1760	63.9618
1756	64.0291
1752	64.0837
1748	64.0317
1744	63.9387
1740	63.8792
1736	63.8544
1732	63.8602
1728	63.8844
1724	63.864
1720	63.7415
1716	63.6541
1712	63.7506
1708	63.8907
1704	63.9093
1700	63.8354
1696	63.8107
1692	63.8985
1688	63.9551
1684	63.9425
1680	63.9466
1676	63.9411
1672	63.9212
1668	63.9
1664	63.8787
1660	63.911
1656	64.0283
1652	64.12
1648	64.0689
1644	63.9743
1640	63.9648
1636	64.0255
1632	64.0357
1628	63.9742
1624	63.9508
1620	63.9854
1616	64.0041
1612	64.0098
1608	64.0381
1604	64.0212
1600	63.9717
1596	63.9504
1592	63.952
1588	63.9584
1584	63.958
1580	63.9956
1576	64.0676
1572	64.1111
1568	64.1256
1564	64.1225
1560	64.1749
1556	64.2153
1552	64.0952
1548	63.9535
1544	63.9442
1540	63.9946
1536	64.0122
1532	64.0108
1528	64.0197
1524	64.0346
1520	64.0391
1516	64.0399
1512	64.0493
1508	64.0471
1504	64.06
1500	64.1483
1496	64.2151
1492	64.1263
1488	64.0422
1484	63.9957
1480	63.9171
1476	63.8918
1472	63.9465
1468	64.0123
1464	64.0191
1460	64.0135
1456	64.0615
1452	64.1301
1448	64.1337
1444	64.044
1440	63.9638
1436	63.9159
1432	63.8561
1428	63.819
1424	63.8259
1420	63.8743
1416	63.8695
1412	63.7891
1408	63.7763
1404	63.8361
1400	63.8927
1396	63.9105
1392	63.8926
1388	63.8486
1384	63.8026
1380	63.8623
1376	63.9651
1372	63.9994
1368	63.9856
1364	63.9575
1360	63.9188
1356	63.8407
1352	63.7822
1348	63.786
1344	63.8278
1340	63.8732
1336	63.886
1332	63.8946
1328	63.8879
1324	63.8188
1320	63.7535
1316	63.7352
1312	63.7094
1308	63.7331
1304	63.8553
1300	63.9273
1296	63.911
1292	63.9225
1288	63.9597
1284	63.9445
1280	63.8628
1276	63.7956
1272	63.7765
1268	63.7765
1264	63.7985
1260	63.8459
1256	63.8978
1252	63.9185
1248	63.886
1244	63.874
1240	63.9484
1236	63.9848
1232	63.9438
1228	63.9683
1224	64.0421
1220	64.0472
1216	64.0261
1212	64.0557
1208	64.0895
1204	64.0857
1200	64.0845
1196	64.1157
1192	64.178
1188	64.2379
1184	64.2322
1180	64.1503
1176	64.0466
1172	63.9584
1168	63.9073
1164	63.8958
1160	63.8997
1156	63.893
1152	63.8648
1148	63.8336
1144	63.8522
1140	63.9227
1136	63.9728
1132	63.9741
1128	63.9616
1124	63.9559
1120	63.9343
1116	63.9059
1112	63.8891
1108	63.9073
1104	63.8809
1100	63.765
1096	63.7211
1092	63.7662
1088	63.8016
1084	63.8211
1080	63.7651
1076	63.6197
1072	63.5844
1068	63.7148
1064	63.7708
1060	63.7246
1056	63.6464
1052	63.5041
1048	63.4931
1044	63.6859
1040	63.7931
1036	63.7317
1032	63.6428
1028	63.5818
1024	63.5476
1020	63.5088
1016	63.4672
1012	63.495
1008	63.5519
1004	63.5614
1000	63.5591
996	 63.526
992	 63.458
988	 63.4107
984	 63.4077
980	 63.4672
976	 63.4617
972	 63.4165
968	 63.4533
964	 63.5016
960	 63.5426
956	 63.5514
952	 63.5716
948	 63.6413
944	 63.6168
940	 63.5092
936	 63.4285
932	 63.4209
928	 63.5136
924	 63.6574
920	 63.7933
916	 63.8587
912	 63.8242
908	 63.7801
904	 63.7712
900	 63.7366
896	 63.7032
892	 63.6998
888	 63.7603
884	 63.8498
880	 63.8408
876	 63.8526
872	 63.8906
868	 63.8382
864	 63.8057
860	 63.8575
856	 63.9312
852	 63.8781
848	 63.7568
844	 63.7709
840	 63.8203
836	 63.8603
832	 63.9711
828	 64.0387
824	 63.9742
820	 63.8408
816	 63.761
812	 63.8149
808	 63.9279
804	 63.9804
800	 63.9345
796	 63.8347
792	 63.8516
788	 63.9806
784	 63.9894
780	 63.9635
776	 64.0642
772	 64.1749
768	 64.2318
764	 64.2068
760	 64.1011
756	 64.0127
752	 63.9786
748	 63.9856
744	 64.01
740	 64.1176
736	 64.2947
732	 64.3562
728	 64.2781
724	 64.2958
720	 64.3968
716	 64.3014
712	 64.0601
708	 63.9747
704	 64.129
700	 64.2919
696	 64.2914
692	 64.2578
688	 64.2231
684	 64.1233
680	 64.0804
676	 64.1912
672	 64.2025
668	 63.9771
664	 63.8621
660	 64.0023
656	 64.1954
652	 64.1435
648	 64.0453
644	 64.1721
640	 64.1999
636	 64.131
632	 64.1409
628	 64.1313
624	 64.1569
620	 64.1465
616	 63.9416
612	 63.8073
608	 63.9102
604	 63.9802
600	 63.8511
596	 63.7378
592	 63.8005
588	 63.8741
584	 63.7367
580	 63.6055
576	 63.8315
572	 63.9953
568	 63.8057
564	 63.7265
560	 63.9483
556	 64.2129
552	 64.2596
548	 64.3317
544	 64.6093
540	 64.8578
536	 65.0478
532	 65.0236
528	 64.6104
524	 64.2907
520	 64.3337
516	 64.4283
512	 64.7142
508	 65.1852
504	 65.0156
500	 64.3478
496	 64.2107
492	 64.5304
488	 64.5804
484	 64.2953
480	 64.2696
476	 64.6868
472	 64.6881
468	 64.1193
464	 64.2039
460	 64.9358
456	 65.2111
452	 65.7264
448	 66.3003
444	 65.5027
440	 65.153
436	 65.1261
432	 63.3439
428	 62.8231
424	 65.3878
420	 68.1598
416	 70.6408
412	 73.4776
408	 73.7012
404	 70.9254
400	 68.9776
396	 69.0323
392	 67.4107
388	 57.7023
384	 32.2756
380	 33.7039
376	 9.356856
372	 65.0226
370	 15.0221