File: Bakgrunnsmateriale/MATLAB/FTIR/ftir_data/subCa/Mapping_25/BZ12041010-4_t08.asc
PE IR       SPECTRUM    SPECTRUM    ASCII       PEDS        1.60
  -1
BZ46BE~1.ASC
17/04/10
09:29:00.00
17/04/10
09:29:26.00
tln
$BZ12041010-4_t0008$<tbV0>[0.0,-9.8,9.0,0.0,22,1,0]
27.028
64

2002,4.07
MIRTGS : RIGHTBACK : INTERNAL 2
MIR : ON : INTERNAL 2
OPTKBR

0.200000
8
8.000000
FILLER
RATIO
SPECTRUM
UNLOCKED 256

DOUBLE
64
COMBINED
1
0
0

0.002000
RATIO

1
0
TRUE
51149
0
LEFT NOT FITTED RIGHT NOT FITTED 0
NONE
NONE
15600
12
4.427000
51148
TRUE
1 0 8 72 0 0 0 0

15798

#HDR
-1
-1
#GR
µM
%T
2.38419e-05
0.0
2.000000
0.002000
12515
8
80.0818
-7.580685
#DATA
2.000000	 64.3792
2.018000	 64.6285
2.036000	 64.9119
2.054000	 64.3639
2.072000	 65.0215
2.090000	 65.2321
2.108000	 64.8332
2.126000	 64.747
2.144000	 65.0201
2.162000	 64.7582
2.180000	 64.5277
2.198000	 65.0992
2.216000	 65.0313
2.234000	 62.7012
2.252000	 64.9134
2.270000	 64.2824
2.288000	 64.9853
2.306000	 64.6563
2.324000	 64.6744
2.342000	 64.8494
2.360000	 65.3227
2.378000	 65.1376
2.396000	 65.3735
2.414000	 64.9783
2.432000	 65.3225
2.450000	 65.1819
2.468000	 65.013
2.486000	 65.1809
2.504000	 65.1519
2.522000	 65.0357
2.540000	 65.0134
2.558000	 65.0068
2.576000	 65.2473
2.594000	 65.5029
2.612000	 65.0685
2.630000	 65.4543
2.648000	 65.2237
2.666000	 65.658
2.684000	 65.3578
2.702000	 65.2069
2.720000	 65.4825
2.738000	 65.295
2.756000	 65.4659
2.774000	 65.3396
2.792000	 65.2371
2.810000	 65.5
2.828000	 65.132
2.846000	 65.1733
2.864000	 65.3912
2.882000	 65.0825
2.900000	 65.0956
2.918000	 65.1774
2.936000	 65.3053
2.954000	 65.3039
2.972000	 65.1433
2.990000	 65.2132
3.008000	 65.2249
3.026000	 65.1143
3.044000	 65.4166
3.062000	 65.3195
3.080000	 65.1963
3.098000	 65.1325
3.116000	 65.354
3.134000	 65.1911
3.152000	 65.1525
3.170000	 65.2416
3.188000	 65.0982
3.206000	 65.1617
3.224000	 65.1318
3.242000	 65.2045
3.260000	 65.0168
3.278000	 65.3031
3.296000	 65.2459
3.314000	 65.0839
3.332000	 65.0824
3.350000	 65.1694
3.368000	 65.0882
3.386000	 65.1626
3.404000	 65.1898
3.422000	 65.1487
3.440000	 65.1601
3.458000	 65.1373
3.476000	 65.2753
3.494000	 65.094
3.512000	 65.216
3.530000	 65.1879
3.548000	 65.1299
3.566000	 65.3291
3.584000	 65.1843
3.602000	 65.2101
3.620000	 65.1898
3.638000	 65.285
3.656000	 65.3353
3.674000	 65.191
3.692000	 65.1683
3.710000	 65.3339
3.728000	 65.14
3.746000	 65.2543
3.764000	 65.2215
3.782000	 65.2862
3.800000	 65.2187
3.818000	 65.2428
3.836000	 65.2937
3.854000	 65.2196
3.872000	 65.2198
3.890000	 65.2467
3.908000	 65.3063
3.926000	 65.2824
3.944000	 65.1582
3.962000	 65.2133
3.980000	 65.2036
3.998000	 65.2533
4.016000	 65.2504
4.034000	 65.1752
4.052000	 65.2347
4.070000	 65.2512
4.088000	 65.2168
4.106000	 65.1732
4.124000	 65.2173
4.141999	 65.2016
4.160000	 65.2093
4.178000	 65.2206
4.196000	 65.2922
4.214000	 65.2322
4.232000	 65.219
4.250000	 65.2676
4.268000	 65.2612
4.286000	 65.2443
4.304000	 65.2209
4.322000	 65.2705
4.340000	 65.2892
4.358000	 65.1556
4.375999	 65.1817
4.394000	 65.3595
4.412000	 65.1393
4.430000	 65.257
4.448000	 65.2269
4.466000	 65.1648
4.484000	 65.2716
4.502000	 65.3164
4.520000	 65.2779
4.538000	 65.1903
4.556000	 65.2049
4.574000	 65.1869
4.592000	 65.2159
4.609999	 65.2041
4.628000	 65.3266
4.646000	 65.2834
4.664000	 65.2274
4.682000	 65.2554
4.700000	 65.218
4.718000	 65.2304
4.736000	 65.0757
4.754000	 65.1663
4.772000	 65.2963
4.790000	 65.2113
4.808000	 65.2357
4.826000	 65.2875
4.843999	 65.3121
4.862000	 65.2468
4.880000	 65.2236
4.898000	 65.2837
4.916000	 65.2597
4.934000	 65.2928
4.952000	 65.2268
4.970000	 65.2096
4.988000	 65.2469
5.006000	 65.2965
5.024000	 65.1901
5.042000	 65.157
5.060000	 65.215
5.077999	 65.2914
5.096000	 65.2941
5.114000	 65.2577
5.132000	 65.1762
5.150000	 65.2095
5.168000	 65.2077
5.186000	 65.2633
5.204000	 65.2353
5.222000	 65.1733
5.240000	 65.22
5.258000	 65.2292
5.276000	 65.2572
5.294000	 65.2532
5.312000	 65.2694
5.330000	 65.3442
5.348000	 65.2616
5.366000	 65.2174
5.384000	 65.2453
5.402000	 65.2808
5.420000	 65.3013
5.438000	 65.2022
5.456000	 65.2449
5.474000	 65.2535
5.492000	 65.219
5.510000	 65.2022
5.528000	 65.2611
5.546000	 65.2833
5.564000	 65.1533
5.582000	 65.1941
5.600000	 65.2714
5.618000	 65.2917
5.636000	 65.412
5.654000	 65.3976
5.672000	 65.2815
5.690000	 65.193
5.708000	 65.1277
5.726000	 65.1872
5.744000	 65.2753
5.762000	 65.3843
5.780000	 65.1841
5.798000	 65.1038
5.816000	 65.4249
5.834000	 65.436
5.852000	 65.2272
5.870000	 65.3308
5.888000	 65.5146
5.906000	 65.4352
5.923999	 65.4726
5.942000	 65.5555
5.960000	 65.4415
5.978000	 65.4947
5.996000	 65.424
6.014000	 65.2718
6.032000	 65.2515
6.050000	 65.4189
6.068000	 65.3971
6.086000	 65.2899
6.104000	 65.2952
6.122000	 65.2882
6.140000	 65.2623
6.158000	 65.2716
6.176000	 65.4
6.194000	 65.4036
6.212000	 65.2493
6.230000	 65.237
6.248000	 65.1962
6.266000	 65.1102
6.284000	 65.073
6.302000	 65.1377
6.320000	 65.2325
6.338000	 65.2846
6.356000	 65.2858
6.374000	 65.271
6.392000	 65.3088
6.410000	 65.5131
6.428000	 65.5791
6.446000	 65.4412
6.464000	 65.483
6.482000	 65.625
6.500000	 65.5448
6.518000	 65.3335
6.536000	 65.2666
6.554000	 65.4071
6.572000	 65.5568
6.590000	 65.4922
6.608000	 65.45
6.626000	 65.5421
6.644000	 65.4512
6.662000	 65.2603
6.680000	 65.2506
6.698000	 65.3004
6.716000	 65.309
6.734000	 65.2993
6.752000	 65.2699
6.770000	 65.2999
6.788000	 65.3559
6.806000	 65.3716
6.824000	 65.3755
6.842000	 65.3702
6.860000	 65.2991
6.878000	 65.1755
6.896000	 65.1225
6.914000	 65.129
6.932000	 65.1389
6.950000	 65.1827
6.968000	 65.2357
6.986000	 65.2776
7.004000	 65.3042
7.022000	 65.2881
7.040000	 65.2492
7.058000	 65.227
7.076000	 65.2273
7.094000	 65.2237
7.112000	 65.1779
7.130000	 65.123
7.148000	 65.1366
7.166000	 65.1818
7.184000	 65.1616
7.202000	 65.0968
7.220000	 65.0761
7.238000	 65.127
7.256000	 65.2105
7.274000	 65.2565
7.292000	 65.241
7.310000	 65.2358
7.328000	 65.2644
7.346000	 65.2492
7.364000	 65.1849
7.382000	 65.1533
7.400000	 65.1753
7.418000	 65.2002
7.436000	 65.1876
7.454000	 65.1449
7.472000	 65.1019
7.490000	 65.0731
7.508000	 65.0607
7.526000	 65.067
7.544000	 65.0973
7.562000	 65.1425
7.580000	 65.171
7.598000	 65.1632
7.616000	 65.1351
7.634000	 65.1108
7.652000	 65.1063
7.670000	 65.1309
7.688000	 65.1709
7.706000	 65.1964
7.724000	 65.1943
7.742000	 65.1656
7.760000	 65.1174
7.778000	 65.071
7.796000	 65.0435
7.814000	 65.0312
7.832000	 65.0299
7.850000	 65.0403
7.868000	 65.0471
7.886000	 65.0329
7.904000	 65.0093
7.922000	 65.0004
7.940000	 65.0051
7.958000	 65.0056
7.976000	 65.0033
7.994000	 65.0203
8.012000	 65.0591
8.030000	 65.0865
8.048000	 65.0791
8.065999	 65.0628
8.084000	 65.0739
8.102000	 65.1001
8.120000	 65.1043
8.138000	 65.0905
8.155999	 65.0942
8.173999	 65.1136
8.192000	 65.1128
8.210000	 65.0895
8.228000	 65.0815
8.246000	 65.1076
8.263999	 65.1505
8.282000	 65.1874
8.300000	 65.1997
8.318000	 65.1704
8.336000	 65.1055
8.353999	 65.0386
8.372000	 64.9948
8.390000	 64.9704
8.408000	 64.9541
8.426000	 64.9466
8.443999	 64.9573
8.462000	 64.9901
8.480000	 65.0386
8.498000	 65.085
8.516000	 65.1098
8.533999	 65.1057
8.552000	 65.0835
8.570000	 65.0615
8.588000	 65.0542
8.606000	 65.0636
8.624000	 65.0794
8.641999	 65.085
8.660000	 65.0703
8.678000	 65.0401
8.696000	 65.0066
8.714000	 64.9726
8.731999	 64.9279
8.750000	 64.868
8.768000	 64.8149
8.786000	 64.8075
8.804000	 64.8639
8.821999	 64.96
8.840000	 65.0511
8.858000	 65.1109
8.876000	 65.1419
8.894000	 65.1544
8.911999	 65.1536
8.930000	 65.1476
8.948000	 65.1522
8.966000	 65.1719
8.984000	 65.1867
9.001999	 65.1701
9.020000	 65.1213
9.038000	 65.067
9.056000	 65.0314
9.074000	 65.0146
9.092000	 65.0034
9.109999	 64.9927
9.128000	 64.9883
9.146000	 64.9949
9.164000	 65.0108
9.182000	 65.0356
9.199999	 65.0714
9.218000	 65.1123
9.236000	 65.139
9.254000	 65.1327
9.272000	 65.0938
9.289999	 65.044
9.308000	 65.0099
9.326000	 65.0052
9.344000	 65.0286
9.362000	 65.0709
9.379999	 65.1197
9.398000	 65.1606
9.416000	 65.183
9.434000	 65.1863
9.452000	 65.1801
9.469999	 65.1753
9.488000	 65.174
9.506000	 65.1683
9.524000	 65.148
9.542000	 65.1111
9.560000	 65.0663
9.577999	 65.0271
9.596000	 65.0039
9.614000	 64.9975
9.632000	 64.9995
9.650000	 65
9.667999	 64.9966
9.686000	 64.9999
9.704000	 65.0279
9.722000	 65.0885
9.740000	 65.1669
9.757999	 65.229
9.776000	 65.2423
9.794000	 65.1967
9.812000	 65.1137
9.830000	 65.0338
9.847999	 64.9937
9.866000	 65.0092
9.884000	 65.0696
9.902000	 65.1468
9.920000	 65.2104
9.937999	 65.2427
9.956000	 65.2464
9.974000	 65.236
9.992000	 65.2247
10.01	65.2155
10.028	65.2009
10.046	65.1743
10.064	65.1388
10.082	65.1066
10.1	65.0897
10.118	65.0896
10.136	65.0949
10.154	65.0899
10.172	65.0655
10.19	65.0252
10.208	64.984
10.226	64.9606
10.244	64.9681
10.262	65.0088
10.28	65.0724
10.298	65.1418
10.316	65.1996
10.334	65.2354
10.352	65.2476
10.37	65.2423
10.388	65.227
10.406	65.2068
10.424	65.1824
10.442	65.1524
10.46	65.1181
10.478	65.0848
10.496	65.0586
10.514	65.0426
10.532	65.0337
10.55	65.0256
10.568	65.0143
10.586	65.0028
10.604	65.0003
10.622	65.0175
10.64	65.0603
10.658	65.1256
10.676	65.2019
10.694	65.2739
10.712	65.3263
10.73	65.3487
10.748	65.3369
10.766	65.2944
10.784	65.2313
10.802	65.1621
10.82	65.1
10.838	65.0553
10.856	65.0315
10.874	65.027
10.892	65.0371
10.91	65.0555
10.928	65.0763
10.946	65.0948
10.964	65.1084
10.982	65.1155
11	65.117
11.018	65.1154
11.036	65.1148
11.054	65.1193
11.072	65.1318
11.09	65.1528
11.108	65.1805
11.126	65.2115
11.144	65.2419
11.162	65.269
11.18	65.2911
11.198	65.3071
11.216	65.3161
11.234	65.3164
11.252	65.3062
11.27	65.285
11.288	65.2552
11.306	65.2219
11.324	65.1924
11.342	65.1738
11.36	65.1707
11.378	65.1849
11.396	65.2155
11.414	65.2593
11.432	65.3113
11.45	65.3657
11.468	65.4146
11.486	65.45
11.504	65.4645
11.522	65.4537
11.54	65.4185
11.558	65.3657
11.576	65.3068
11.594	65.2537
11.612	65.2172
11.63	65.2027
11.648	65.2103
11.666	65.2354
11.684	65.271
11.702	65.3101
11.72	65.3475
11.738	65.38
11.756	65.4072
11.774	65.4289
11.792	65.4453
11.81	65.4553
11.828	65.4575
11.846	65.4506
11.864	65.4338
11.882	65.4082
11.9	65.3768
11.918	65.3443
11.936	65.3152
11.954	65.2938
11.972	65.2831
11.99	65.2843
12.008	65.2966
12.026	65.3181
12.044	65.3457
12.062	65.3746
12.08	65.3997
12.098	65.4163
12.116	65.4219
12.134	65.4172
12.152	65.407
12.17	65.3977
12.188	65.3957
12.206	65.4049
12.224	65.4251
12.242	65.4513
12.26	65.4763
12.278	65.4915
12.296	65.4897
12.314	65.4673
12.332	65.4252
12.35	65.3682
12.368	65.3042
12.386	65.2424
12.404	65.1905
12.422	65.1532
12.44	65.1315
12.458	65.1229
12.476	65.123
12.494	65.1263
12.512	65.1289
12.53	65.1299
12.548	65.1306
12.566	65.134
12.584	65.1436
12.602	65.1614
12.62	65.1871
12.638	65.2177
12.656	65.249
12.674	65.2768
12.692	65.2985
12.71	65.3136
12.728	65.3241
12.746	65.3331
12.764	65.3441
12.782	65.3592
12.8	65.3786
12.818	65.4005
12.836	65.4221
12.854	65.4401
12.872	65.4528
12.89	65.459
12.908	65.4583
12.926	65.4511
12.944	65.4379
12.962	65.4194
12.98	65.3963
12.998	65.3697
13.016	65.3413
13.034	65.3133
13.052	65.288
13.07	65.2677
13.088	65.2543
13.106	65.2488
13.124	65.2515
13.142	65.2614
13.16	65.2768
13.178	65.2954
13.196	65.3141
13.214	65.3304
13.232	65.3422
13.25	65.3484
13.268	65.3486
13.286	65.3433
13.304	65.3336
13.322	65.3209
13.34	65.3067
13.358	65.2919
13.376	65.277
13.394	65.2621
13.412	65.2468
13.43	65.2309
13.448	65.2145
13.466	65.198
13.484	65.1823
13.502	65.1686
13.52	65.158
13.538	65.1514
13.556	65.1493
13.574	65.1512
13.592	65.1561
13.61	65.1623
13.628	65.1682
13.646	65.1718
13.664	65.1717
13.682	65.1669
13.7	65.1576
13.718	65.1446
13.736	65.1303
13.754	65.1174
13.772	65.1092
13.79	65.1088
13.808	65.1187
13.826	65.1403
13.844	65.1732
13.862	65.2154
13.88	65.2634
13.898	65.3128
13.916	65.3589
13.934	65.3976
13.952	65.4262
13.97	65.4438
13.988	65.4515
14.006	65.452
14.024	65.4493
14.042	65.4475
14.06	65.4499
14.078	65.4581
14.096	65.4718
14.114	65.4885
14.132	65.5047
14.15	65.5159
14.168	65.518
14.186	65.508
14.204	65.4849
14.222	65.4498
14.24	65.4057
14.258	65.3571
14.276	65.309
14.294	65.2658
14.312	65.2315
14.33	65.2082
14.348	65.1965
14.366	65.1953
14.384	65.2019
14.402	65.2127
14.42	65.224
14.438	65.2324
14.456	65.2354
14.474	65.2318
14.492	65.2216
14.51	65.2066
14.528	65.1893
14.546	65.173
14.564	65.1607
14.582	65.1551
14.6	65.1583
14.618	65.1708
14.636	65.1919
14.654	65.2198
14.672	65.2519
14.69	65.2853
14.708	65.3176
14.726	65.3466
14.744	65.3713
14.762	65.3918
14.78	65.409
14.798	65.4243
14.816	65.439
14.834	65.4544
14.852	65.4712
14.87	65.4889
14.888	65.5066
14.906	65.5231
14.924	65.5366
14.942	65.5459
14.96	65.5499
14.978	65.5486
14.996	65.5425
15.014	65.5326
15.032	65.5205
15.05	65.508
15.068	65.4968
15.086	65.4881
15.104	65.4828
15.122	65.4812
15.14	65.4831
15.158	65.4879
15.176	65.4952
15.194	65.5041
15.212	65.5141
15.23	65.5245
15.248	65.5346
15.266	65.5438
15.284	65.5517
15.302	65.5576
15.32	65.5611
15.338	65.5614
15.356	65.5582
15.374	65.5512
15.392	65.5407
15.41	65.5269
15.428	65.5104
15.446	65.4918
15.464	65.4719
15.482	65.4513
15.5	65.4303
15.518	65.4093
15.536	65.3879
15.554	65.3659
15.572	65.3428
15.59	65.3178
15.608	65.2906
15.626	65.2611
15.644	65.229
15.662	65.1949
15.68	65.1593
15.698	65.123
15.716	65.0872
15.734	65.0528
15.752	65.0207
15.77	64.9913
15.788	64.9653
15.806	64.9429
15.824	64.9245
15.842	64.9101
15.86	64.9002
15.878	64.8954
15.896	64.8962
15.914	64.9041
15.932	64.9203
15.95	64.9458
15.968	64.9819
15.986	65.0294
16.004	65.0881
16.022	65.1577
16.04	65.2367
16.058	65.3226
16.076	65.4134
16.094	65.505
16.112	65.5936
16.13	65.6764
16.148	65.7499
16.166	65.8109
16.184	65.8579
16.202	65.8897
16.22	65.9057
16.238	65.9068
16.256	65.8941
16.274	65.8698
16.292	65.8359
16.31	65.7944
16.328	65.748
16.346	65.6986
16.364	65.6478
16.382	65.5972
16.4	65.5476
16.418	65.4997
16.436	65.4541
16.454	65.411
16.472	65.3707
16.49	65.3336
16.508	65.2999
16.526	65.2698
16.544	65.2441
16.562	65.2233
16.58	65.208
16.598	65.1988
16.616	65.196
16.634	65.2001
16.652	65.211
16.67	65.2286
16.688	65.2526
16.706	65.2817
16.724	65.3152
16.742	65.352
16.76	65.3898
16.778	65.4278
16.796	65.464
16.814	65.497
16.832	65.5261
16.85	65.55
16.868	65.5685
16.886	65.5814
16.904	65.5889
16.922	65.5915
16.94	65.5898
16.958	65.5848
16.976	65.5771
16.994	65.5679
17.012	65.5574
17.03	65.546
17.048	65.5341
17.066	65.5214
17.084	65.5079
17.102	65.4932
17.12	65.477
17.138	65.4592
17.156	65.4399
17.174	65.4193
17.192	65.3984
17.21	65.3779
17.228	65.3592
17.246	65.3438
17.264	65.3327
17.282	65.3281
17.3	65.3305
17.318	65.3413
17.336	65.3607
17.354	65.3891
17.372	65.4256
17.39	65.4696
17.408	65.5196
17.426	65.5737
17.444	65.6306
17.462	65.6873
17.48	65.7429
17.498	65.7945
17.516	65.841
17.534	65.8811
17.552	65.9135
17.57	65.9378
17.588	65.954
17.606	65.9626
17.624	65.9639
17.642	65.9596
17.66	65.9501
17.678	65.9379
17.696	65.9235
17.714	65.9091
17.732	65.8957
17.75	65.8848
17.768	65.8775
17.786	65.8744
17.804	65.8762
17.822	65.883
17.84	65.8946
17.858	65.9103
17.876	65.9298
17.894	65.9515
17.912	65.9749
17.93	65.998
17.948	66.0205
17.966	66.0402
17.984	66.0568
18.002	66.0689
18.02	66.0761
18.038	66.0778
18.056	66.0742
18.074	66.0652
18.092	66.0517
18.11	66.0341
18.128	66.014
18.146	65.9919
18.164	65.9697
18.182	65.9482
18.2	65.9289
18.218	65.9128
18.236	65.901
18.254	65.8945
18.272	65.8934
18.29	65.8986
18.308	65.9099
18.326	65.9271
18.344	65.9499
18.362	65.9776
18.38	66.0096
18.398	66.0445
18.416	66.0813
18.434	66.1189
18.452	66.1556
18.47	66.1903
18.488	66.2211
18.506	66.2474
18.524	66.2672
18.542	66.2802
18.56	66.2846
18.578	66.2804
18.596	66.2671
18.614	66.2446
18.632	66.2135
18.65	66.174
18.668	66.1283
18.686	66.0766
18.704	66.022
18.722	65.9651
18.74	65.9096
18.758	65.8559
18.776	65.8078
18.794	65.7658
18.812	65.7326
18.83	65.7085
18.848	65.6956
18.866	65.6932
18.884	65.7019
18.902	65.7206
18.92	65.7486
18.938	65.784
18.956	65.8249
18.974	65.8695
18.992	65.9148
19.01	65.9595
19.028	66.0004
19.046	66.0367
19.064	66.066
19.082	66.0881
19.1	66.1015
19.118	66.1068
19.136	66.1038
19.154	66.0933
19.172	66.0763
19.19	66.0536
19.208	66.0272
19.226	65.9977
19.244	65.9673
19.262	65.9364
19.28	65.9071
19.298	65.8794
19.316	65.8554
19.334	65.8349
19.352	65.819
19.37	65.8075
19.388	65.8011
19.406	65.7997
19.424	65.8029
19.442	65.8107
19.46	65.8221
19.478	65.837
19.496	65.8542
19.514	65.8736
19.532	65.8936
19.55	65.9134
19.568	65.9326
19.586	65.9503
19.604	65.9664
19.622	65.9805
19.64	65.9927
19.658	66.0035
19.676	66.013
19.694	66.0225
19.712	66.0319
19.73	66.043
19.748	66.0556
19.766	66.0711
19.784	66.09
19.802	66.1123
19.82	66.1386
19.838	66.1684
19.856	66.2011
19.874	66.2365
19.892	66.2728
19.91	66.3101
19.928	66.3457
19.946	66.3798
19.964	66.41
19.982	66.4361
20	66.4568
20.018	66.4712
20.036	66.4795
20.054	66.4811
20.072	66.4764
20.09	66.4661
20.108	66.4502
20.126	66.4309
20.144	66.4079
20.162	66.3834
20.18	66.3581
20.198	66.3331
20.216	66.31
20.234	66.2886
20.252	66.2705
20.27	66.2556
20.288	66.2438
20.306	66.2356
20.324	66.23
20.342	66.2268
20.36	66.2255
20.378	66.2247
20.396	66.2246
20.414	66.2235
20.432	66.2213
20.45	66.2174
20.468	66.2113
20.486	66.2031
20.504	66.1925
20.522	66.1795
20.54	66.1648
20.558	66.1482
20.576	66.1306
20.594	66.1121
20.612	66.0932
20.63	66.0746
20.648	66.0562
20.666	66.0386
20.684	66.0218
20.702	66.0056
20.72	65.99
20.738	65.9747
20.756	65.9588
20.774	65.9425
20.792	65.9245
20.81	65.9047
20.828	65.8824
20.846	65.8565
20.864	65.8274
20.882	65.7942
20.9	65.7568
20.918	65.7155
20.936	65.67
20.954	65.6207
20.972	65.5685
20.99	65.5132
21.008	65.4562
21.026	65.398
21.044	65.3389
21.062	65.2806
21.08	65.2226
21.098	65.1667
21.116	65.1131
21.134	65.0621
21.152	65.0148
21.17	64.9708
21.188	64.931
21.206	64.8957
21.224	64.8648
21.242	64.8387
21.26	64.8173
21.278	64.801
21.296	64.7897
21.314	64.7834
21.332	64.7822
21.35	64.7862
21.368	64.7949
21.386	64.8083
21.404	64.8263
21.422	64.8481
21.44	64.8741
21.458	64.9031
21.476	64.9347
21.494	64.9687
21.512	65.0038
21.53	65.0403
21.548	65.0772
21.566	65.1135
21.584	65.1497
21.602	65.1844
21.62	65.2177
21.638	65.2495
21.656	65.2793
21.674	65.3073
21.692	65.3335
21.71	65.3579
21.728	65.3806
21.746	65.4021
21.764	65.4222
21.782	65.4413
21.8	65.4597
21.818	65.4773
21.836	65.4942
21.854	65.5105
21.872	65.5261
21.89	65.5408
21.908	65.5547
21.926	65.5676
21.944	65.5794
21.962	65.5902
21.98	65.5996
21.998	65.6077
22.016	65.6144
22.034	65.6197
22.052	65.6234
22.07	65.6258
22.088	65.6271
22.106	65.6272
22.124	65.6269
22.142	65.6264
22.16	65.6257
22.178	65.6262
22.196	65.6275
22.214	65.6304
22.232	65.6361
22.25	65.6439
22.268	65.6549
22.286	65.6696
22.304	65.6878
22.322	65.7099
22.34	65.7361
22.358	65.7662
22.376	65.7999
22.394	65.8375
22.412	65.8783
22.43	65.9215
22.448	65.9676
22.466	66.0154
22.484	66.0642
22.502	66.1143
22.52	66.1645
22.538	66.2141
22.556	66.2635
22.574	66.3116
22.592	66.3582
22.61	66.4036
22.628	66.4471
22.646	66.4888
22.664	66.5288
22.682	66.5673
22.7	66.6041
22.718	66.6395
22.736	66.674
22.754	66.7073
22.772	66.7398
22.79	66.7722
22.808	66.8041
22.826	66.8358
22.844	66.8676
22.862	66.8992
22.88	66.931
22.898	66.9631
22.916	66.9956
22.934	67.0277
22.952	67.0595
22.97	67.091
22.988	67.1212
23.006	67.1505
23.024	67.1785
23.042	67.2035
23.06	67.2255
23.078	67.2444
23.096	67.2583
23.114	67.2675
23.132	67.2717
23.15	67.2686
23.168	67.2585
23.186	67.2413
23.204	67.2148
23.222	67.1794
23.24	67.135
23.258	67.0803
23.276	67.0153
23.294	66.9404
23.312	66.8561
23.33	66.7618
23.348	66.6583
23.366	66.5475
23.384	66.4287
23.402	66.3027
23.42	66.1725
23.438	66.0373
23.456	65.898
23.474	65.7583
23.492	65.6183
23.51	65.4778
23.528	65.3412
23.546	65.2094
23.564	65.0813
23.582	64.961
23.6	64.8497
23.618	64.7462
23.636	64.6532
23.654	64.5725
23.672	64.503
23.69	64.4451
23.708	64.3998
23.726	64.3671
23.744	64.3451
23.762	64.3326
23.78	64.3308
23.798	64.3377
23.816	64.351
23.834	64.3721
23.852	64.3995
23.87	64.4306
23.888	64.4667
23.906	64.5066
23.924	64.5477
23.942	64.59
23.96	64.6337
23.978	64.6765
23.996	64.7176
24.014	64.7579
24.032	64.7959
24.05	64.8306
24.068	64.8627
24.086	64.8916
24.104	64.9167
24.122	64.9378
24.14	64.9557
24.158	64.9711
24.176	64.9834
24.194	64.9933
24.212	65.002
24.23	65.0101
24.248	65.0171
24.266	65.0229
24.284	65.0279
24.302	65.0321
24.32	65.0346
24.338	65.0347
24.356	65.033
24.374	65.0288
24.392	65.0211
24.41	65.0105
24.428	64.9966
24.446	64.9783
24.464	64.9552
24.482	64.9279
24.5	64.8955
24.518	64.8574
24.536	64.814
24.554	64.765
24.572	64.7098
24.59	64.6474
24.608	64.5791
24.626	64.5066
24.644	64.4307
24.662	64.3506
24.68	64.2675
24.698	64.1829
24.716	64.0964
24.734	64.0079
24.752	63.9172
24.77	63.8249
24.788	63.7307
24.806	63.6332
24.824	63.5316
24.842	63.4264
24.86	63.3173
24.878	63.2037
24.896	63.0864
24.914	62.9647
24.932	62.8372
24.95	62.7041
24.968	62.5674
24.986	62.4213
25.004	62.2597
25.022	62.0836
25.04	61.8943
25.058	61.6912
25.076	61.4719
25.094	61.2361
25.112	60.9904
25.13	60.7413
25.148	60.4813
25.166	60.2167
25.184	59.9607
25.202	59.7178
25.22	59.4793
25.238	59.2586
25.256	59.0695
25.274	58.9015
25.292	58.7603
25.31	58.6653
25.328	58.6261
25.346	58.628
25.364	58.6878
25.382	58.8247
25.4	59.0359
25.418	59.3174
25.436	59.6785
25.454	60.1279
25.472	60.6634
25.49	61.2792
25.508	61.9701
25.526	62.7401
25.544	63.5907
25.562	64.5036
25.58	65.462
25.598	66.4841
25.616	67.5568
25.634	68.6498
25.652	69.7486
25.67	70.8805
25.688	72.0114
25.706	73.1008
25.724	74.1538
25.742	75.1841
25.76	76.1498
25.778	77.0129
25.796	77.7993
25.814	78.4998
25.832	79.0812
25.85	79.5212
25.868	79.8427
25.886	80.034
25.904	80.0779
25.922	79.9651
25.94	79.7053
25.958	79.3046
25.976	78.7687
25.994	78.085
26.012	77.2619
26.03	76.3253
26.048	75.2961
26.066	74.1481
26.084	72.9012
26.102	71.5917
26.12	70.2404
26.138	68.8151
26.156	67.3457
26.174	65.8701
26.192	64.3951
26.21	62.8929
26.228	61.4054
26.246	59.9768
26.264	58.6069
26.282	57.2767
26.3	56.0124
26.318	54.8397
26.336	53.7558
26.354	52.7519
26.372	51.8313
26.39	50.9983
26.408	50.2656
26.426	49.6174
26.444	49.0292
26.462	48.4824
26.48	48.0054
26.498	47.5767
26.516	47.16
26.534	46.7325
26.552	46.3354
26.57	45.9334
26.588	45.4765
26.606	44.9354
26.624	44.3564
26.642	43.7051
26.66	42.9361
26.678	42.0262
26.696	41.0152
26.714	39.8739
26.732	38.5659
26.75	37.0714
26.768	35.4175
26.786	33.5935
26.804	31.5853
26.822	29.3831
26.84	26.9952
26.858	24.427
26.876	21.6833
26.894	18.7609
26.912	15.6496
26.93	12.3737
26.948	8.958990
26.966	5.227234
26.984	0.874931
27.002	-3.365699
27.02	-6.697688
27.028	-7.580685