File: Bakgrunnsmateriale/MATLAB/FTIR/ftir_data/subCa/Mapping_25/BZ12041010-4_t01.asc
PE IR       SPECTRUM    SPECTRUM    ASCII       PEDS        1.60
  -1
BZ1204~4.ASC
17/04/10
08:56:20.00
17/04/10
08:56:47.00
tln
$BZ12041010-4_t0001$<tbV0>[5.2,-12.4,9.0,0.0,22,1,0]
27.028
64

2002,4.07
MIRTGS : RIGHTBACK : INTERNAL 2
MIR : ON : INTERNAL 2
OPTKBR

0.200000
8
8.000000
FILLER
RATIO
SPECTRUM
UNLOCKED 256

DOUBLE
64
COMBINED
1
0
0

0.002000
RATIO

1
0
TRUE
51149
0
LEFT NOT FITTED RIGHT NOT FITTED 0
NONE
NONE
15600
12
4.427000
51148
TRUE
1 0 8 72 0 0 0 0

15798

#HDR
-1
-1
#GR
µM
%T
2.38419e-05
0.0
2.000000
0.002000
12515
8
76.5367
59.3694
#DATA
2.000000	 64.8946
2.018000	 64.9008
2.036000	 65.0214
2.054000	 65.0406
2.072000	 65.2737
2.090000	 66.2279
2.108000	 64.975
2.126000	 64.9162
2.144000	 65.2203
2.162000	 65.1228
2.180000	 64.7751
2.198000	 64.9375
2.216000	 66.4549
2.234000	 76.5367
2.252000	 64.5502
2.270000	 65.2328
2.288000	 65.301
2.306000	 65.008
2.324000	 64.898
2.342000	 64.6105
2.360000	 64.8973
2.378000	 64.8864
2.396000	 64.9204
2.414000	 65.0169
2.432000	 65.0473
2.450000	 65.1008
2.468000	 65.2254
2.486000	 65.0515
2.504000	 65.1021
2.522000	 65.0335
2.540000	 65.0111
2.558000	 65.1337
2.576000	 65.267
2.594000	 65.3793
2.612000	 65.0882
2.630000	 65.3135
2.648000	 65.2748
2.666000	 65.3759
2.684000	 65.3095
2.702000	 65.3337
2.720000	 65.2402
2.738000	 65.3109
2.756000	 65.4724
2.774000	 65.337
2.792000	 65.36
2.810000	 65.4353
2.828000	 65.1702
2.846000	 65.2976
2.864000	 65.3842
2.882000	 65.2512
2.900000	 65.2626
2.918000	 65.3181
2.936000	 65.1862
2.954000	 65.2404
2.972000	 65.1623
2.990000	 65.4281
3.008000	 65.2602
3.026000	 65.2043
3.044000	 65.2842
3.062000	 65.3668
3.080000	 65.2983
3.098000	 65.1096
3.116000	 65.1951
3.134000	 65.3537
3.152000	 65.0078
3.170000	 65.3296
3.188000	 65.2066
3.206000	 65.1664
3.224000	 65.1722
3.242000	 65.0843
3.260000	 65.1364
3.278000	 65.1364
3.296000	 65.2041
3.314000	 65.225
3.332000	 64.9747
3.350000	 65.1648
3.368000	 65.0712
3.386000	 65.1438
3.404000	 65.0233
3.422000	 65.1189
3.440000	 65.1812
3.458000	 65.1841
3.476000	 65.2118
3.494000	 65.1354
3.512000	 65.2843
3.530000	 65.3276
3.548000	 65.1611
3.566000	 65.211
3.584000	 65.2778
3.602000	 65.2425
3.620000	 65.2987
3.638000	 65.3155
3.656000	 65.4422
3.674000	 65.1428
3.692000	 65.2231
3.710000	 65.2839
3.728000	 65.1273
3.746000	 65.391
3.764000	 65.29
3.782000	 65.343
3.800000	 65.3841
3.818000	 65.3469
3.836000	 65.1559
3.854000	 65.2202
3.872000	 65.2245
3.890000	 65.1
3.908000	 65.2675
3.926000	 65.3278
3.944000	 65.3042
3.962000	 65.1993
3.980000	 65.3217
3.998000	 65.2602
4.016000	 65.4293
4.034000	 65.2956
4.052000	 65.2196
4.070000	 65.3829
4.088000	 65.2931
4.106000	 65.2548
4.124000	 65.3312
4.141999	 65.2903
4.160000	 65.2342
4.178000	 65.3353
4.196000	 65.2976
4.214000	 65.3992
4.232000	 65.2459
4.250000	 65.3637
4.268000	 65.3254
4.286000	 65.3225
4.304000	 65.2231
4.322000	 65.3087
4.340000	 65.3433
4.358000	 65.3393
4.375999	 65.3243
4.394000	 65.3497
4.412000	 65.2618
4.430000	 65.3076
4.448000	 65.3111
4.466000	 65.4623
4.484000	 65.3937
4.502000	 65.3707
4.520000	 65.3551
4.538000	 65.2815
4.556000	 65.3799
4.574000	 65.3227
4.592000	 65.2948
4.609999	 65.2694
4.628000	 65.3453
4.646000	 65.3054
4.664000	 65.253
4.682000	 65.1781
4.700000	 65.3112
4.718000	 65.2958
4.736000	 65.2806
4.754000	 65.2596
4.772000	 65.2724
4.790000	 65.3098
4.808000	 65.3366
4.826000	 65.4089
4.843999	 65.2968
4.862000	 65.2753
4.880000	 65.2962
4.898000	 65.2913
4.916000	 65.3136
4.934000	 65.3769
4.952000	 65.3663
4.970000	 65.3213
4.988000	 65.3448
5.006000	 65.3484
5.024000	 65.2974
5.042000	 65.3039
5.060000	 65.4174
5.077999	 65.3869
5.096000	 65.373
5.114000	 65.3136
5.132000	 65.318
5.150000	 65.3683
5.168000	 65.3276
5.186000	 65.3544
5.204000	 65.341
5.222000	 65.2402
5.240000	 65.3291
5.258000	 65.3252
5.276000	 65.3951
5.294000	 65.3447
5.312000	 65.3195
5.330000	 65.3805
5.348000	 65.3373
5.366000	 65.3126
5.384000	 65.3345
5.402000	 65.3328
5.420000	 65.3728
5.438000	 65.3208
5.456000	 65.3559
5.474000	 65.4005
5.492000	 65.2501
5.510000	 65.2596
5.528000	 65.3971
5.546000	 65.4995
5.564000	 65.3777
5.582000	 65.3687
5.600000	 65.3696
5.618000	 65.3019
5.636000	 65.3285
5.654000	 65.3076
5.672000	 65.3307
5.690000	 65.3859
5.708000	 65.3524
5.726000	 65.2772
5.744000	 65.2037
5.762000	 65.2003
5.780000	 65.1303
5.798000	 65.0928
5.816000	 65.2385
5.834000	 65.3547
5.852000	 65.3413
5.870000	 65.3418
5.888000	 65.3715
5.906000	 65.3153
5.923999	 65.3143
5.942000	 65.4069
5.960000	 65.459
5.978000	 65.4549
5.996000	 65.3716
6.014000	 65.3494
6.032000	 65.3356
6.050000	 65.2855
6.068000	 65.2471
6.086000	 65.2293
6.104000	 65.2542
6.122000	 65.2104
6.140000	 65.2036
6.158000	 65.2827
6.176000	 65.3461
6.194000	 65.3206
6.212000	 65.2075
6.230000	 65.1336
6.248000	 65.1116
6.266000	 65.1116
6.284000	 65.0934
6.302000	 65.1435
6.320000	 65.2718
6.338000	 65.2877
6.356000	 65.1765
6.374000	 65.1087
6.392000	 65.1724
6.410000	 65.3111
6.428000	 65.389
6.446000	 65.3676
6.464000	 65.317
6.482000	 65.2817
6.500000	 65.2898
6.518000	 65.3052
6.536000	 65.2942
6.554000	 65.2977
6.572000	 65.3627
6.590000	 65.376
6.608000	 65.3479
6.626000	 65.3926
6.644000	 65.3955
6.662000	 65.3265
6.680000	 65.3483
6.698000	 65.3761
6.716000	 65.2926
6.734000	 65.2262
6.752000	 65.2301
6.770000	 65.2709
6.788000	 65.2997
6.806000	 65.3083
6.824000	 65.3203
6.842000	 65.3394
6.860000	 65.3025
6.878000	 65.1829
6.896000	 65.1294
6.914000	 65.1818
6.932000	 65.1909
6.950000	 65.1491
6.968000	 65.1532
6.986000	 65.2052
7.004000	 65.2683
7.022000	 65.2989
7.040000	 65.259
7.058000	 65.216
7.076000	 65.2356
7.094000	 65.2906
7.112000	 65.3261
7.130000	 65.3004
7.148000	 65.2527
7.166000	 65.2416
7.184000	 65.2319
7.202000	 65.1914
7.220000	 65.1439
7.238000	 65.11
7.256000	 65.1136
7.274000	 65.1628
7.292000	 65.2003
7.310000	 65.1932
7.328000	 65.1867
7.346000	 65.19
7.364000	 65.1742
7.382000	 65.1688
7.400000	 65.203
7.418000	 65.2371
7.436000	 65.2515
7.454000	 65.2769
7.472000	 65.3121
7.490000	 65.3132
7.508000	 65.2629
7.526000	 65.2002
7.544000	 65.1854
7.562000	 65.2195
7.580000	 65.2445
7.598000	 65.2323
7.616000	 65.1958
7.634000	 65.1481
7.652000	 65.1221
7.670000	 65.1531
7.688000	 65.2116
7.706000	 65.2374
7.724000	 65.2234
7.742000	 65.2047
7.760000	 65.2055
7.778000	 65.2263
7.796000	 65.2521
7.814000	 65.269
7.832000	 65.2727
7.850000	 65.2539
7.868000	 65.2061
7.886000	 65.1577
7.904000	 65.15
7.922000	 65.1812
7.940000	 65.2095
7.958000	 65.1993
7.976000	 65.1499
7.994000	 65.0991
8.012000	 65.0928
8.030000	 65.1296
8.048000	 65.1623
8.065999	 65.1611
8.084000	 65.1433
8.102000	 65.1404
8.120000	 65.1573
8.138000	 65.1725
8.155999	 65.1696
8.173999	 65.1582
8.192000	 65.1612
8.210000	 65.1891
8.228000	 65.2311
8.246000	 65.2663
8.263999	 65.2806
8.282000	 65.277
8.300000	 65.2693
8.318000	 65.2664
8.336000	 65.2695
8.353999	 65.2773
8.372000	 65.2818
8.390000	 65.2651
8.408000	 65.2171
8.426000	 65.1542
8.443999	 65.1063
8.462000	 65.0863
8.480000	 65.0846
8.498000	 65.0932
8.516000	 65.1115
8.533999	 65.1314
8.552000	 65.1372
8.570000	 65.1296
8.588000	 65.1277
8.606000	 65.1369
8.624000	 65.1345
8.641999	 65.1011
8.660000	 65.0526
8.678000	 65.0242
8.696000	 65.0284
8.714000	 65.0496
8.731999	 65.0722
8.750000	 65.0899
8.768000	 65.0982
8.786000	 65.0965
8.804000	 65.0937
8.821999	 65.0999
8.840000	 65.1134
8.858000	 65.1254
8.876000	 65.1354
8.894000	 65.1491
8.911999	 65.1653
8.930000	 65.1785
8.948000	 65.1846
8.966000	 65.1746
8.984000	 65.1369
9.001999	 65.075
9.020000	 65.0146
9.038000	 64.9848
9.056000	 64.9943
9.074000	 65.0278
9.092000	 65.0656
9.109999	 65.0985
9.128000	 65.124
9.146000	 65.1382
9.164000	 65.1368
9.182000	 65.1234
9.199999	 65.1116
9.218000	 65.116
9.236000	 65.1364
9.254000	 65.1546
9.272000	 65.15
9.289999	 65.1211
9.308000	 65.0889
9.326000	 65.0779
9.344000	 65.0924
9.362000	 65.1147
9.379999	 65.1287
9.398000	 65.1364
9.416000	 65.1519
9.434000	 65.1802
9.452000	 65.21
9.469999	 65.2253
9.488000	 65.2213
9.506000	 65.207
9.524000	 65.1934
9.542000	 65.1849
9.560000	 65.1799
9.577999	 65.1759
9.596000	 65.172
9.614000	 65.1678
9.632000	 65.163
9.650000	 65.1578
9.667999	 65.1531
9.686000	 65.1503
9.704000	 65.1513
9.722000	 65.1581
9.740000	 65.1714
9.757999	 65.1866
9.776000	 65.1933
9.794000	 65.1816
9.812000	 65.1518
9.830000	 65.1161
9.847999	 65.0911
9.866000	 65.0867
9.884000	 65.1004
9.902000	 65.1211
9.920000	 65.1374
9.937999	 65.1451
9.956000	 65.1493
9.974000	 65.158
9.992000	 65.1768
10.01	65.204
10.028	65.2302
10.046	65.2443
10.064	65.2404
10.082	65.2218
10.1	65.1991
10.118	65.184
10.136	65.1813
10.154	65.1871
10.172	65.1923
10.19	65.1888
10.208	65.1739
10.226	65.1505
10.244	65.1261
10.262	65.1118
10.28	65.1172
10.298	65.1458
10.316	65.1901
10.334	65.2345
10.352	65.2635
10.37	65.2706
10.388	65.2625
10.406	65.2516
10.424	65.2456
10.442	65.2407
10.46	65.2278
10.478	65.2024
10.496	65.1719
10.514	65.1507
10.532	65.1497
10.55	65.1676
10.568	65.1918
10.586	65.2073
10.604	65.2085
10.622	65.2023
10.64	65.2044
10.658	65.2269
10.676	65.2705
10.694	65.3222
10.712	65.3618
10.73	65.3726
10.748	65.3488
10.766	65.2984
10.784	65.2369
10.802	65.1813
10.82	65.1408
10.838	65.1165
10.856	65.105
10.874	65.1033
10.892	65.1122
10.91	65.1344
10.928	65.1706
10.946	65.217
10.964	65.2653
10.982	65.3054
11	65.3312
11.018	65.3417
11.036	65.3408
11.054	65.334
11.072	65.3254
11.09	65.3168
11.108	65.3076
11.126	65.2965
11.144	65.2827
11.162	65.2671
11.18	65.2526
11.198	65.2444
11.216	65.2491
11.234	65.2713
11.252	65.311
11.27	65.3617
11.288	65.4098
11.306	65.44
11.324	65.4409
11.342	65.411
11.36	65.3598
11.378	65.3057
11.396	65.2667
11.414	65.2547
11.432	65.2705
11.45	65.3056
11.468	65.3463
11.486	65.3823
11.504	65.4096
11.522	65.4308
11.54	65.451
11.558	65.4738
11.576	65.4984
11.594	65.5201
11.612	65.5335
11.63	65.535
11.648	65.5249
11.666	65.5072
11.684	65.487
11.702	65.4683
11.72	65.4526
11.738	65.4391
11.756	65.4261
11.774	65.4117
11.792	65.3947
11.81	65.3749
11.828	65.3529
11.846	65.3291
11.864	65.3042
11.882	65.2797
11.9	65.2579
11.918	65.2418
11.936	65.2341
11.954	65.2367
11.972	65.2501
11.99	65.273
12.008	65.3033
12.026	65.3384
12.044	65.3749
12.062	65.4088
12.08	65.4351
12.098	65.4488
12.116	65.4462
12.134	65.4271
12.152	65.3956
12.17	65.3594
12.188	65.3277
12.206	65.3092
12.224	65.3091
12.242	65.3274
12.26	65.3601
12.278	65.3994
12.296	65.4367
12.314	65.4644
12.332	65.4784
12.35	65.4778
12.368	65.4645
12.386	65.4421
12.404	65.4143
12.422	65.3832
12.44	65.3495
12.458	65.3131
12.476	65.2738
12.494	65.2326
12.512	65.1923
12.53	65.1572
12.548	65.132
12.566	65.1206
12.584	65.1249
12.602	65.1442
12.62	65.1752
12.638	65.2129
12.656	65.2519
12.674	65.2876
12.692	65.3175
12.71	65.341
12.728	65.3596
12.746	65.3756
12.764	65.3918
12.782	65.4103
12.8	65.4321
12.818	65.4569
12.836	65.4841
12.854	65.5124
12.872	65.5406
12.89	65.5679
12.908	65.5937
12.926	65.6175
12.944	65.6389
12.962	65.6567
12.98	65.6695
12.998	65.6757
13.016	65.6744
13.034	65.6651
13.052	65.6487
13.07	65.6266
13.088	65.6012
13.106	65.5752
13.124	65.5504
13.142	65.5284
13.16	65.5102
13.178	65.4965
13.196	65.4876
13.214	65.4834
13.232	65.4837
13.25	65.4876
13.268	65.4935
13.286	65.4989
13.304	65.5006
13.322	65.4956
13.34	65.4811
13.358	65.4565
13.376	65.4229
13.394	65.3841
13.412	65.3453
13.43	65.3126
13.448	65.2915
13.466	65.286
13.484	65.297
13.502	65.323
13.52	65.3595
13.538	65.4004
13.556	65.4391
13.574	65.4692
13.592	65.4862
13.61	65.4875
13.628	65.4734
13.646	65.4458
13.664	65.4088
13.682	65.3672
13.7	65.326
13.718	65.2897
13.736	65.2614
13.754	65.2431
13.772	65.235
13.79	65.2356
13.808	65.2425
13.826	65.2522
13.844	65.2615
13.862	65.2675
13.88	65.2682
13.898	65.2631
13.916	65.2526
13.934	65.2381
13.952	65.2216
13.97	65.2054
13.988	65.1914
14.006	65.1813
14.024	65.1761
14.042	65.176
14.06	65.1807
14.078	65.189
14.096	65.1995
14.114	65.2101
14.132	65.2187
14.15	65.2234
14.168	65.2228
14.186	65.2161
14.204	65.2032
14.222	65.1855
14.24	65.1651
14.258	65.1446
14.276	65.1272
14.294	65.1153
14.312	65.1107
14.33	65.1138
14.348	65.124
14.366	65.1392
14.384	65.1569
14.402	65.1746
14.42	65.1905
14.438	65.2038
14.456	65.2146
14.474	65.2239
14.492	65.2333
14.51	65.2445
14.528	65.2583
14.546	65.275
14.564	65.2936
14.582	65.3126
14.6	65.3301
14.618	65.3439
14.636	65.3526
14.654	65.3556
14.672	65.3535
14.69	65.3478
14.708	65.3408
14.726	65.335
14.744	65.333
14.762	65.3365
14.78	65.346
14.798	65.3612
14.816	65.3808
14.834	65.4022
14.852	65.4227
14.87	65.4395
14.888	65.4503
14.906	65.4534
14.924	65.4477
14.942	65.4333
14.96	65.4117
14.978	65.3847
14.996	65.3547
15.014	65.3244
15.032	65.2966
15.05	65.2737
15.068	65.2573
15.086	65.2486
15.104	65.2478
15.122	65.2546
15.14	65.2677
15.158	65.2857
15.176	65.3072
15.194	65.3303
15.212	65.3534
15.23	65.3751
15.248	65.3945
15.266	65.4111
15.284	65.4244
15.302	65.4345
15.32	65.4417
15.338	65.4461
15.356	65.4483
15.374	65.4486
15.392	65.4476
15.41	65.4462
15.428	65.4451
15.446	65.4454
15.464	65.4484
15.482	65.4551
15.5	65.4663
15.518	65.4828
15.536	65.5042
15.554	65.53
15.572	65.559
15.59	65.5887
15.608	65.6166
15.626	65.6405
15.644	65.6574
15.662	65.6645
15.68	65.6607
15.698	65.6449
15.716	65.617
15.734	65.5789
15.752	65.5325
15.77	65.4804
15.788	65.4268
15.806	65.3755
15.824	65.3297
15.842	65.2928
15.86	65.2679
15.878	65.2562
15.896	65.2589
15.914	65.2758
15.932	65.3057
15.95	65.3473
15.968	65.3984
15.986	65.4556
16.004	65.5166
16.022	65.5789
16.04	65.6389
16.058	65.6948
16.076	65.7448
16.094	65.7874
16.112	65.8218
16.13	65.8481
16.148	65.8663
16.166	65.8771
16.184	65.8814
16.202	65.8802
16.22	65.8747
16.238	65.8657
16.256	65.854
16.274	65.8401
16.292	65.8242
16.31	65.8067
16.328	65.7873
16.346	65.7662
16.364	65.7433
16.382	65.7187
16.4	65.6925
16.418	65.665
16.436	65.637
16.454	65.609
16.472	65.5818
16.49	65.5565
16.508	65.5342
16.526	65.5154
16.544	65.5015
16.562	65.493
16.58	65.4904
16.598	65.4938
16.616	65.503
16.634	65.5178
16.652	65.5374
16.67	65.5609
16.688	65.5877
16.706	65.6163
16.724	65.646
16.742	65.6755
16.76	65.7038
16.778	65.7303
16.796	65.7537
16.814	65.7733
16.832	65.7888
16.85	65.7992
16.868	65.8042
16.886	65.8033
16.904	65.7962
16.922	65.783
16.94	65.7639
16.958	65.7396
16.976	65.7107
16.994	65.6783
17.012	65.6439
17.03	65.6083
17.048	65.5736
17.066	65.5407
17.084	65.5109
17.102	65.4853
17.12	65.4646
17.138	65.4493
17.156	65.4393
17.174	65.4347
17.192	65.4347
17.21	65.4392
17.228	65.4473
17.246	65.4584
17.264	65.4721
17.282	65.4877
17.3	65.5052
17.318	65.5242
17.336	65.5451
17.354	65.5678
17.372	65.5927
17.39	65.6198
17.408	65.6493
17.426	65.6809
17.444	65.7145
17.462	65.7491
17.48	65.7844
17.498	65.8191
17.516	65.8519
17.534	65.8819
17.552	65.9074
17.57	65.928
17.588	65.9422
17.606	65.9501
17.624	65.9511
17.642	65.946
17.66	65.9347
17.678	65.9189
17.696	65.8992
17.714	65.8775
17.732	65.8551
17.75	65.8336
17.768	65.8146
17.786	65.7988
17.804	65.7877
17.822	65.7813
17.84	65.7802
17.858	65.7838
17.876	65.792
17.894	65.8034
17.912	65.8178
17.93	65.8333
17.948	65.8497
17.966	65.8655
17.984	65.8805
18.002	65.894
18.02	65.9062
18.038	65.917
18.056	65.9271
18.074	65.9367
18.092	65.9467
18.11	65.9573
18.128	65.9692
18.146	65.9822
18.164	65.9966
18.182	66.0117
18.2	66.0273
18.218	66.0426
18.236	66.0572
18.254	66.0702
18.272	66.0813
18.29	66.0901
18.308	66.0963
18.326	66.1001
18.344	66.1016
18.362	66.1015
18.38	66.1002
18.398	66.0986
18.416	66.0971
18.434	66.0966
18.452	66.0975
18.47	66.1002
18.488	66.105
18.506	66.1119
18.524	66.1206
18.542	66.1311
18.56	66.1425
18.578	66.1547
18.596	66.1665
18.614	66.1775
18.632	66.1865
18.65	66.1932
18.668	66.1963
18.686	66.1958
18.704	66.1906
18.722	66.1808
18.74	66.166
18.758	66.1467
18.776	66.1231
18.794	66.0958
18.812	66.0657
18.83	66.0335
18.848	66.0008
18.866	65.9682
18.884	65.9372
18.902	65.9083
18.92	65.8828
18.938	65.8609
18.956	65.8435
18.974	65.8304
18.992	65.8219
19.01	65.8177
19.028	65.8174
19.046	65.8205
19.064	65.8263
19.082	65.8342
19.1	65.8432
19.118	65.8529
19.136	65.8621
19.154	65.8705
19.172	65.8768
19.19	65.8811
19.208	65.8823
19.226	65.8805
19.244	65.875
19.262	65.8659
19.28	65.8532
19.298	65.8372
19.316	65.8187
19.334	65.7977
19.352	65.7759
19.37	65.7533
19.388	65.7322
19.406	65.7125
19.424	65.6962
19.442	65.6836
19.46	65.6758
19.478	65.6733
19.496	65.6762
19.514	65.6847
19.532	65.6982
19.55	65.7165
19.568	65.7384
19.586	65.7628
19.604	65.7889
19.622	65.8146
19.64	65.8395
19.658	65.8612
19.676	65.8799
19.694	65.8933
19.712	65.9018
19.73	65.9044
19.748	65.9011
19.766	65.8924
19.784	65.8781
19.802	65.8597
19.82	65.8377
19.838	65.8132
19.856	65.788
19.874	65.7624
19.892	65.7391
19.91	65.7178
19.928	65.7011
19.946	65.6888
19.964	65.6823
19.982	65.6821
20	65.6882
20.018	65.701
20.036	65.7201
20.054	65.7455
20.072	65.7767
20.09	65.8128
20.108	65.8539
20.126	65.8981
20.144	65.9457
20.162	65.9949
20.18	66.0452
20.198	66.0957
20.216	66.1452
20.234	66.1935
20.252	66.2392
20.27	66.2825
20.288	66.322
20.306	66.3576
20.324	66.3889
20.342	66.4152
20.36	66.4368
20.378	66.4534
20.396	66.465
20.414	66.4723
20.432	66.4748
20.45	66.4739
20.468	66.4696
20.486	66.4626
20.504	66.4541
20.522	66.444
20.54	66.434
20.558	66.4238
20.576	66.4146
20.594	66.4069
20.612	66.4008
20.63	66.3972
20.648	66.3959
20.666	66.3974
20.684	66.4018
20.702	66.4087
20.72	66.4183
20.738	66.4304
20.756	66.4444
20.774	66.4606
20.792	66.4783
20.81	66.4973
20.828	66.5175
20.846	66.5383
20.864	66.56
20.882	66.5823
20.9	66.6053
20.918	66.6289
20.936	66.653
20.954	66.6775
20.972	66.7024
20.99	66.7278
21.008	66.753
21.026	66.7778
21.044	66.8018
21.062	66.8239
21.08	66.8445
21.098	66.8613
21.116	66.8744
21.134	66.8829
21.152	66.8844
21.17	66.8798
21.188	66.8665
21.206	66.8442
21.224	66.8124
21.242	66.7695
21.26	66.716
21.278	66.6515
21.296	66.5754
21.314	66.489
21.332	66.3932
21.35	66.2875
21.368	66.1751
21.386	66.056
21.404	65.9318
21.422	65.8067
21.44	65.6792
21.458	65.5539
21.476	65.4323
21.494	65.3147
21.512	65.2061
21.53	65.1053
21.548	65.0152
21.566	64.9382
21.584	64.8735
21.602	64.8237
21.62	64.7889
21.638	64.7691
21.656	64.7649
21.674	64.7762
21.692	64.8015
21.71	64.841
21.728	64.8937
21.746	64.9568
21.764	65.0314
21.782	65.1143
21.8	65.2031
21.818	65.2988
21.836	65.3963
21.854	65.4958
21.872	65.5958
21.89	65.6919
21.908	65.7858
21.926	65.8739
21.944	65.9541
21.962	66.0273
21.98	66.0903
21.998	66.1431
22.016	66.1853
22.034	66.2152
22.052	66.2331
22.07	66.2391
22.088	66.2329
22.106	66.2146
22.124	66.1857
22.142	66.1459
22.16	66.096
22.178	66.0386
22.196	65.9728
22.214	65.9007
22.232	65.8249
22.25	65.7441
22.268	65.6619
22.286	65.58
22.304	65.4975
22.322	65.4187
22.34	65.3439
22.358	65.2733
22.376	65.2106
22.394	65.155
22.412	65.1076
22.43	65.0705
22.448	65.043
22.466	65.0257
22.484	65.0195
22.502	65.024
22.52	65.0385
22.538	65.0631
22.556	65.0976
22.574	65.1399
22.592	65.1903
22.61	65.2481
22.628	65.3099
22.646	65.3771
22.664	65.4476
22.682	65.5181
22.7	65.5899
22.718	65.6608
22.736	65.7276
22.754	65.7918
22.772	65.8511
22.79	65.9033
22.808	65.9496
22.826	65.9884
22.844	66.0185
22.862	66.0408
22.88	66.0544
22.898	66.0588
22.916	66.0543
22.934	66.0418
22.952	66.0211
22.97	65.9923
22.988	65.9574
23.006	65.9164
23.024	65.8694
23.042	65.8195
23.06	65.7664
23.078	65.7106
23.096	65.6555
23.114	65.6008
23.132	65.547
23.15	65.4972
23.168	65.4509
23.186	65.4086
23.204	65.3731
23.222	65.3442
23.24	65.3219
23.258	65.3071
23.276	65.3001
23.294	65.3005
23.312	65.3078
23.33	65.3229
23.348	65.3447
23.366	65.3709
23.384	65.4022
23.402	65.4378
23.42	65.4741
23.438	65.5119
23.456	65.5506
23.474	65.5857
23.492	65.6174
23.51	65.6457
23.528	65.6665
23.546	65.6789
23.564	65.684
23.582	65.6787
23.6	65.6618
23.618	65.6345
23.636	65.5957
23.654	65.5446
23.672	65.4816
23.69	65.4079
23.708	65.324
23.726	65.2289
23.744	65.1254
23.762	65.0156
23.78	64.8974
23.798	64.7744
23.816	64.6507
23.834	64.5235
23.852	64.3962
23.87	64.2738
23.888	64.1545
23.906	64.0398
23.924	63.9346
23.942	63.8387
23.96	63.7517
23.978	63.6772
23.996	63.6167
24.014	63.5686
24.032	63.5344
24.05	63.5153
24.068	63.5106
24.086	63.5198
24.104	63.5423
24.122	63.5789
24.14	63.6283
24.158	63.6889
24.176	63.7616
24.194	63.8456
24.212	63.9382
24.23	64.0395
24.248	64.1499
24.266	64.2664
24.284	64.3875
24.302	64.515
24.32	64.6459
24.338	64.7777
24.356	64.9122
24.374	65.0477
24.392	65.181
24.41	65.3131
24.428	65.4436
24.446	65.5698
24.464	65.6907
24.482	65.8077
24.5	65.9182
24.518	66.02
24.536	66.1148
24.554	66.2012
24.572	66.2771
24.59	66.343
24.608	66.399
24.626	66.4437
24.644	66.4763
24.662	66.4975
24.68	66.5074
24.698	66.5056
24.716	66.4918
24.734	66.4669
24.752	66.4325
24.77	66.3878
24.788	66.333
24.806	66.2707
24.824	66.2026
24.842	66.1267
24.86	66.0456
24.878	65.9626
24.896	65.8762
24.914	65.787
24.932	65.6991
24.95	65.6143
24.968	65.5303
24.986	65.45
25.004	65.3767
25.022	65.3084
25.04	65.2461
25.058	65.1934
25.076	65.1516
25.094	65.1184
25.112	65.0969
25.13	65.0899
25.148	65.096
25.166	65.1155
25.184	65.1508
25.202	65.2031
25.22	65.2711
25.238	65.3551
25.256	65.4556
25.274	65.5727
25.292	65.706
25.31	65.8551
25.328	66.0199
25.346	66.2008
25.364	66.3967
25.382	66.6063
25.4	66.8314
25.418	67.0708
25.436	67.3209
25.454	67.5792
25.472	67.8497
25.49	68.1277
25.508	68.407
25.526	68.6878
25.544	68.9729
25.562	69.2543
25.58	69.5242
25.598	69.7887
25.616	70.0447
25.634	70.2829
25.652	70.4984
25.67	70.6986
25.688	70.8762
25.706	71.0224
25.724	71.1373
25.742	71.2244
25.76	71.2773
25.778	71.2901
25.796	71.2658
25.814	71.2043
25.832	71.1031
25.85	70.9598
25.868	70.775
25.886	70.5511
25.904	70.2904
25.922	69.9909
25.94	69.6516
25.958	69.2808
25.976	68.8867
25.994	68.4631
26.012	68.0119
26.03	67.5459
26.048	67.0759
26.066	66.5912
26.084	66.0981
26.102	65.6097
26.12	65.1338
26.138	64.6593
26.156	64.1954
26.174	63.7537
26.192	63.3375
26.21	62.9385
26.228	62.5663
26.246	62.2312
26.264	61.9333
26.282	61.668
26.3	61.4409
26.318	61.2572
26.336	61.1174
26.354	61.0188
26.372	60.9601
26.39	60.9406
26.408	60.9637
26.426	61.0261
26.444	61.1214
26.462	61.2448
26.48	61.4028
26.498	61.5907
26.516	61.8003
26.534	62.026
26.552	62.2766
26.57	62.5449
26.588	62.8211
26.606	63.0993
26.624	63.3888
26.642	63.6824
26.66	63.97
26.678	64.2468
26.696	64.5216
26.714	64.7873
26.732	65.0352
26.75	65.2607
26.768	65.47
26.786	65.6603
26.804	65.8279
26.822	65.9715
26.84	66.095
26.858	66.1944
26.876	66.265
26.894	66.3058
26.912	66.3216
26.93	66.3069
26.948	66.2555
26.966	66.1495
26.984	65.9723
27.002	65.7764
27.02	65.6181
27.028	65.5787