File: Bakgrunnsmateriale/MATLAB/FTIR/ftir_data/subCa/Mapping_25/BZ12041010-4_t18.asc
PE IR       SPECTRUM    SPECTRUM    ASCII       PEDS        1.60
  -1
BZ4ABE~1.ASC
17/04/10
10:23:10.00
17/04/10
10:23:36.00
tln
$BZ12041010-4_t0018$<tbV0>[0.0,-4.6,9.0,0.0,22,1,0]
27.028
64

2002,4.07
MIRTGS : RIGHTBACK : INTERNAL 2
MIR : ON : INTERNAL 2
OPTKBR

0.200000
8
8.000000
FILLER
RATIO
SPECTRUM
UNLOCKED 256

DOUBLE
64
COMBINED
1
0
0

0.002000
RATIO

1
0
TRUE
51149
0
LEFT NOT FITTED RIGHT NOT FITTED 0
NONE
NONE
15600
12
4.427000
51148
TRUE
1 0 8 72 0 0 0 0

15798

#HDR
-1
-1
#GR
µM
%T
2.38419e-05
0.0
2.000000
0.002000
12515
8
78.6644
3.681367
#DATA
2.000000	 64.9023
2.018000	 65.2381
2.036000	 65.5496
2.054000	 64.9981
2.072000	 65.5507
2.090000	 64.4168
2.108000	 65.5191
2.126000	 65.2573
2.144000	 65.3809
2.162000	 65.3346
2.180000	 65.1963
2.198000	 64.8854
2.216000	 65.6546
2.234000	 62.2323
2.252000	 64.7701
2.270000	 64.9386
2.288000	 65.4372
2.306000	 65.4173
2.324000	 65.1267
2.342000	 65.4869
2.360000	 65.1643
2.378000	 65.0665
2.396000	 65.2504
2.414000	 65.0587
2.432000	 65.0342
2.450000	 65.1668
2.468000	 65.3081
2.486000	 65.1136
2.504000	 65.0255
2.522000	 64.8659
2.540000	 65.3693
2.558000	 65.3861
2.576000	 65.3932
2.594000	 65.3801
2.612000	 65.4063
2.630000	 65.3702
2.648000	 65.1367
2.666000	 65.1928
2.684000	 65.3229
2.702000	 65.3839
2.720000	 65.3832
2.738000	 65.3123
2.756000	 65.3316
2.774000	 65.3803
2.792000	 65.3512
2.810000	 65.3319
2.828000	 65.5098
2.846000	 65.3076
2.864000	 65.3336
2.882000	 65.0574
2.900000	 65.3783
2.918000	 65.3295
2.936000	 65.3876
2.954000	 65.2469
2.972000	 65.2434
2.990000	 65.3734
3.008000	 65.2267
3.026000	 65.1373
3.044000	 65.2915
3.062000	 65.2367
3.080000	 65.254
3.098000	 65.4036
3.116000	 65.4116
3.134000	 65.2551
3.152000	 65.3453
3.170000	 65.2999
3.188000	 65.2996
3.206000	 65.295
3.224000	 65.3758
3.242000	 65.1973
3.260000	 65.3872
3.278000	 65.2857
3.296000	 65.2269
3.314000	 65.3671
3.332000	 65.2996
3.350000	 65.3697
3.368000	 65.3543
3.386000	 65.1834
3.404000	 65.1365
3.422000	 65.2114
3.440000	 65.2689
3.458000	 65.3333
3.476000	 65.2809
3.494000	 65.2626
3.512000	 65.2537
3.530000	 65.3651
3.548000	 65.3426
3.566000	 65.2857
3.584000	 65.2892
3.602000	 65.2911
3.620000	 65.4672
3.638000	 65.4283
3.656000	 65.3256
3.674000	 65.3679
3.692000	 65.2609
3.710000	 65.2277
3.728000	 65.2618
3.746000	 65.3113
3.764000	 65.4457
3.782000	 65.4037
3.800000	 65.2677
3.818000	 65.2942
3.836000	 65.3359
3.854000	 65.3869
3.872000	 65.3681
3.890000	 65.2616
3.908000	 65.2852
3.926000	 65.3616
3.944000	 65.2952
3.962000	 65.3321
3.980000	 65.4309
3.998000	 65.3079
4.016000	 65.3321
4.034000	 65.2421
4.052000	 65.2839
4.070000	 65.401
4.088000	 65.3572
4.106000	 65.4271
4.124000	 65.3219
4.141999	 65.4059
4.160000	 65.3801
4.178000	 65.3503
4.196000	 65.164
4.214000	 65.2804
4.232000	 65.3197
4.250000	 65.3552
4.268000	 65.2549
4.286000	 65.2655
4.304000	 65.2711
4.322000	 65.3191
4.340000	 65.2816
4.358000	 65.3499
4.375999	 65.3233
4.394000	 65.284
4.412000	 65.3796
4.430000	 65.3076
4.448000	 65.2953
4.466000	 65.3677
4.484000	 65.3
4.502000	 65.343
4.520000	 65.2621
4.538000	 65.3704
4.556000	 65.4407
4.574000	 65.4187
4.592000	 65.3627
4.609999	 65.3246
4.628000	 65.252
4.646000	 65.1387
4.664000	 65.256
4.682000	 65.3443
4.700000	 65.3084
4.718000	 65.4057
4.736000	 65.4163
4.754000	 65.383
4.772000	 65.2527
4.790000	 65.2947
4.808000	 65.2912
4.826000	 65.3969
4.843999	 65.4433
4.862000	 65.4298
4.880000	 65.3473
4.898000	 65.2793
4.916000	 65.3248
4.934000	 65.3373
4.952000	 65.3679
4.970000	 65.3098
4.988000	 65.3667
5.006000	 65.2596
5.024000	 65.3281
5.042000	 65.4291
5.060000	 65.3916
5.077999	 65.3508
5.096000	 65.2863
5.114000	 65.3917
5.132000	 65.3473
5.150000	 65.2995
5.168000	 65.359
5.186000	 65.3507
5.204000	 65.3187
5.222000	 65.3713
5.240000	 65.3224
5.258000	 65.3051
5.276000	 65.2151
5.294000	 65.3466
5.312000	 65.3508
5.330000	 65.291
5.348000	 65.2224
5.366000	 65.267
5.384000	 65.2946
5.402000	 65.2804
5.420000	 65.3024
5.438000	 65.3555
5.456000	 65.2575
5.474000	 65.2113
5.492000	 65.3203
5.510000	 65.3379
5.528000	 65.2144
5.546000	 65.1834
5.564000	 65.214
5.582000	 65.2563
5.600000	 65.3138
5.618000	 65.3126
5.636000	 65.2537
5.654000	 65.236
5.672000	 65.2159
5.690000	 65.2251
5.708000	 65.3383
5.726000	 65.2145
5.744000	 65.118
5.762000	 65.112
5.780000	 65.1036
5.798000	 65.1576
5.816000	 65.0955
5.834000	 65.1164
5.852000	 65.2412
5.870000	 65.2789
5.888000	 65.2619
5.906000	 65.1699
5.923999	 65.1823
5.942000	 65.1916
5.960000	 65.134
5.978000	 65.1452
5.996000	 65.226
6.014000	 65.1988
6.032000	 65.2379
6.050000	 65.4093
6.068000	 65.3778
6.086000	 65.2226
6.104000	 65.2202
6.122000	 65.3108
6.140000	 65.2994
6.158000	 65.2609
6.176000	 65.2734
6.194000	 65.3158
6.212000	 65.2925
6.230000	 65.2828
6.248000	 65.316
6.266000	 65.3161
6.284000	 65.3458
6.302000	 65.3809
6.320000	 65.3752
6.338000	 65.3414
6.356000	 65.2365
6.374000	 65.232
6.392000	 65.395
6.410000	 65.5302
6.428000	 65.4843
6.446000	 65.3465
6.464000	 65.2214
6.482000	 65.1341
6.500000	 65.154
6.518000	 65.2417
6.536000	 65.249
6.554000	 65.2559
6.572000	 65.3392
6.590000	 65.3519
6.608000	 65.3436
6.626000	 65.3632
6.644000	 65.3242
6.662000	 65.2842
6.680000	 65.3088
6.698000	 65.2906
6.716000	 65.2168
6.734000	 65.1934
6.752000	 65.2133
6.770000	 65.2414
6.788000	 65.3099
6.806000	 65.3449
6.824000	 65.2935
6.842000	 65.2909
6.860000	 65.3333
6.878000	 65.2773
6.896000	 65.1971
6.914000	 65.2091
6.932000	 65.2371
6.950000	 65.2468
6.968000	 65.2327
6.986000	 65.2035
7.004000	 65.2201
7.022000	 65.2435
7.040000	 65.2197
7.058000	 65.178
7.076000	 65.1372
7.094000	 65.1232
7.112000	 65.1846
7.130000	 65.3013
7.148000	 65.364
7.166000	 65.3303
7.184000	 65.2856
7.202000	 65.2588
7.220000	 65.2096
7.238000	 65.175
7.256000	 65.204
7.274000	 65.2549
7.292000	 65.2674
7.310000	 65.2344
7.328000	 65.2023
7.346000	 65.2051
7.364000	 65.2091
7.382000	 65.1839
7.400000	 65.1585
7.418000	 65.1547
7.436000	 65.1625
7.454000	 65.1754
7.472000	 65.1916
7.490000	 65.2024
7.508000	 65.1979
7.526000	 65.1827
7.544000	 65.1703
7.562000	 65.1628
7.580000	 65.1683
7.598000	 65.1964
7.616000	 65.2165
7.634000	 65.2011
7.652000	 65.179
7.670000	 65.1824
7.688000	 65.198
7.706000	 65.2066
7.724000	 65.2126
7.742000	 65.2181
7.760000	 65.2129
7.778000	 65.1976
7.796000	 65.1825
7.814000	 65.1594
7.832000	 65.1125
7.850000	 65.0585
7.868000	 65.0368
7.886000	 65.0596
7.904000	 65.1012
7.922000	 65.1341
7.940000	 65.1531
7.958000	 65.1692
7.976000	 65.1906
7.994000	 65.2092
8.012000	 65.2116
8.030000	 65.2026
8.048000	 65.2008
8.065999	 65.2194
8.084000	 65.2578
8.102000	 65.2984
8.120000	 65.3147
8.138000	 65.2947
8.155999	 65.252
8.173999	 65.207
8.192000	 65.1717
8.210000	 65.1606
8.228000	 65.1889
8.246000	 65.2454
8.263999	 65.2882
8.282000	 65.2779
8.300000	 65.2151
8.318000	 65.1335
8.336000	 65.0689
8.353999	 65.0416
8.372000	 65.0573
8.390000	 65.1018
8.408000	 65.1424
8.426000	 65.1532
8.443999	 65.1389
8.462000	 65.1241
8.480000	 65.1236
8.498000	 65.134
8.516000	 65.1453
8.533999	 65.15
8.552000	 65.1456
8.570000	 65.1405
8.588000	 65.148
8.606000	 65.1665
8.624000	 65.1728
8.641999	 65.1505
8.660000	 65.1171
8.678000	 65.1043
8.696000	 65.1173
8.714000	 65.1332
8.731999	 65.1355
8.750000	 65.1274
8.768000	 65.1104
8.786000	 65.0776
8.804000	 65.0323
8.821999	 64.9993
8.840000	 65.0038
8.858000	 65.0446
8.876000	 65.098
8.894000	 65.1385
8.911999	 65.1523
8.930000	 65.1352
8.948000	 65.089
8.966000	 65.0219
8.984000	 64.9551
9.001999	 64.9164
9.020000	 64.9197
9.038000	 64.9521
9.056000	 64.9908
9.074000	 65.0223
9.092000	 65.0464
9.109999	 65.0671
9.128000	 65.0848
9.146000	 65.0974
9.164000	 65.1062
9.182000	 65.118
9.199999	 65.1341
9.218000	 65.1371
9.236000	 65.0982
9.254000	 65.006
9.272000	 64.8908
9.289999	 64.8137
9.308000	 64.8224
9.326000	 64.9127
9.344000	 65.031
9.362000	 65.1157
9.379999	 65.1382
9.398000	 65.114
9.416000	 65.0812
9.434000	 65.0698
9.452000	 65.0843
9.469999	 65.1073
9.488000	 65.1157
9.506000	 65.1003
9.524000	 65.0726
9.542000	 65.0553
9.560000	 65.0662
9.577999	 65.1069
9.596000	 65.1638
9.614000	 65.2147
9.632000	 65.2363
9.650000	 65.2142
9.667999	 65.1523
9.686000	 65.0738
9.704000	 65.0112
9.722000	 64.9884
9.740000	 65.0067
9.757999	 65.0468
9.776000	 65.0817
9.794000	 65.0949
9.812000	 65.087
9.830000	 65.0715
9.847999	 65.0628
9.866000	 65.0676
9.884000	 65.0832
9.902000	 65.1022
9.920000	 65.118
9.937999	 65.1279
9.956000	 65.1334
9.974000	 65.137
9.992000	 65.1395
10.01	65.14
10.028	65.1387
10.046	65.1388
10.064	65.1441
10.082	65.1564
10.1	65.1747
10.118	65.1976
10.136	65.2266
10.154	65.2649
10.172	65.3119
10.19	65.3585
10.208	65.3901
10.226	65.3962
10.244	65.377
10.262	65.3435
10.28	65.3088
10.298	65.2799
10.316	65.2563
10.334	65.2337
10.352	65.2102
10.37	65.1879
10.388	65.1703
10.406	65.1576
10.424	65.1452
10.442	65.1268
10.46	65.0987
10.478	65.0619
10.496	65.024
10.514	64.9962
10.532	64.9888
10.55	65.0061
10.568	65.0441
10.586	65.0905
10.604	65.1315
10.622	65.1556
10.64	65.1589
10.658	65.145
10.676	65.1236
10.694	65.1054
10.712	65.0992
10.73	65.1084
10.748	65.1316
10.766	65.1619
10.784	65.1906
10.802	65.2096
10.82	65.2156
10.838	65.2108
10.856	65.201
10.874	65.193
10.892	65.1905
10.91	65.1938
10.928	65.2006
10.946	65.208
10.964	65.2148
10.982	65.2215
11	65.2299
11.018	65.2414
11.036	65.2553
11.054	65.2693
11.072	65.2814
11.09	65.2913
11.108	65.3016
11.126	65.3169
11.144	65.3408
11.162	65.3724
11.18	65.405
11.198	65.4264
11.216	65.4253
11.234	65.3975
11.252	65.3484
11.27	65.2918
11.288	65.2439
11.306	65.2153
11.324	65.2075
11.342	65.2135
11.36	65.2236
11.378	65.2303
11.396	65.2327
11.414	65.2349
11.432	65.2419
11.45	65.2551
11.468	65.2721
11.486	65.2884
11.504	65.3009
11.522	65.3099
11.54	65.3179
11.558	65.3278
11.576	65.3401
11.594	65.3523
11.612	65.36
11.63	65.359
11.648	65.3474
11.666	65.3272
11.684	65.3031
11.702	65.2814
11.72	65.2681
11.738	65.2669
11.756	65.2784
11.774	65.3005
11.792	65.3295
11.81	65.3613
11.828	65.3924
11.846	65.42
11.864	65.4436
11.882	65.4634
11.9	65.4811
11.918	65.4985
11.936	65.5175
11.954	65.54
11.972	65.5665
11.99	65.5962
12.008	65.6267
12.026	65.6537
12.044	65.6723
12.062	65.6783
12.08	65.6698
12.098	65.6478
12.116	65.6156
12.134	65.5783
12.152	65.541
12.17	65.5072
12.188	65.4783
12.206	65.4542
12.224	65.4338
12.242	65.4163
12.26	65.4009
12.278	65.3875
12.296	65.3764
12.314	65.3671
12.332	65.3588
12.35	65.3503
12.368	65.3412
12.386	65.3321
12.404	65.3243
12.422	65.3195
12.44	65.3185
12.458	65.3209
12.476	65.3247
12.494	65.3266
12.512	65.3236
12.53	65.3149
12.548	65.3024
12.566	65.2908
12.584	65.2865
12.602	65.2957
12.62	65.3219
12.638	65.364
12.656	65.4158
12.674	65.4675
12.692	65.5084
12.71	65.5298
12.728	65.5279
12.746	65.505
12.764	65.4692
12.782	65.4323
12.8	65.4062
12.818	65.3999
12.836	65.4174
12.854	65.4566
12.872	65.5107
12.89	65.5692
12.908	65.6217
12.926	65.6594
12.944	65.6778
12.962	65.6766
12.98	65.6591
12.998	65.6316
13.016	65.6008
13.034	65.5726
13.052	65.551
13.07	65.5373
13.088	65.5309
13.106	65.5297
13.124	65.5311
13.142	65.5326
13.16	65.5327
13.178	65.5306
13.196	65.5259
13.214	65.5185
13.232	65.5079
13.25	65.4933
13.268	65.4735
13.286	65.4478
13.304	65.4158
13.322	65.379
13.34	65.3406
13.358	65.3054
13.376	65.2792
13.394	65.2677
13.412	65.2747
13.43	65.3018
13.448	65.3469
13.466	65.4047
13.484	65.4673
13.502	65.5263
13.52	65.5742
13.538	65.6063
13.556	65.6207
13.574	65.6185
13.592	65.6035
13.61	65.5804
13.628	65.5537
13.646	65.5273
13.664	65.503
13.682	65.4814
13.7	65.4617
13.718	65.4431
13.736	65.4253
13.754	65.4086
13.772	65.3951
13.79	65.387
13.808	65.387
13.826	65.3971
13.844	65.4177
13.862	65.4472
13.88	65.4822
13.898	65.5181
13.916	65.5495
13.934	65.5716
13.952	65.5812
13.97	65.577
13.988	65.5603
14.006	65.5343
14.024	65.5038
14.042	65.4741
14.06	65.4495
14.078	65.433
14.096	65.4252
14.114	65.4247
14.132	65.4283
14.15	65.4322
14.168	65.4322
14.186	65.4256
14.204	65.4107
14.222	65.3883
14.24	65.3605
14.258	65.3311
14.276	65.304
14.294	65.2828
14.312	65.2706
14.33	65.2691
14.348	65.2786
14.366	65.2981
14.384	65.3252
14.402	65.3572
14.42	65.3909
14.438	65.4238
14.456	65.4534
14.474	65.4782
14.492	65.4975
14.51	65.511
14.528	65.5195
14.546	65.524
14.564	65.5261
14.582	65.5271
14.6	65.5287
14.618	65.5322
14.636	65.5383
14.654	65.5474
14.672	65.559
14.69	65.5724
14.708	65.586
14.726	65.5981
14.744	65.6065
14.762	65.6091
14.78	65.6047
14.798	65.5928
14.816	65.5731
14.834	65.5468
14.852	65.5156
14.87	65.4819
14.888	65.4484
14.906	65.4176
14.924	65.3918
14.942	65.373
14.96	65.3619
14.978	65.3586
14.996	65.3623
15.014	65.372
15.032	65.3857
15.05	65.4019
15.068	65.4191
15.086	65.4362
15.104	65.4522
15.122	65.4666
15.14	65.479
15.158	65.489
15.176	65.4967
15.194	65.5014
15.212	65.503
15.23	65.501
15.248	65.4957
15.266	65.4872
15.284	65.4764
15.302	65.4644
15.32	65.4525
15.338	65.4421
15.356	65.4342
15.374	65.4298
15.392	65.4288
15.41	65.4307
15.428	65.4343
15.446	65.4377
15.464	65.4389
15.482	65.4364
15.5	65.4287
15.518	65.4151
15.536	65.3962
15.554	65.3731
15.572	65.3475
15.59	65.3224
15.608	65.3001
15.626	65.2826
15.644	65.2719
15.662	65.2688
15.68	65.2727
15.698	65.283
15.716	65.2977
15.734	65.3142
15.752	65.3306
15.77	65.3448
15.788	65.3547
15.806	65.3599
15.824	65.3602
15.842	65.3558
15.86	65.3482
15.878	65.3389
15.896	65.3291
15.914	65.3213
15.932	65.3166
15.95	65.3161
15.968	65.3207
15.986	65.3308
16.004	65.3462
16.022	65.3668
16.04	65.3922
16.058	65.4219
16.076	65.4552
16.094	65.4914
16.112	65.5292
16.13	65.5678
16.148	65.606
16.166	65.6421
16.184	65.6749
16.202	65.7031
16.22	65.7249
16.238	65.7396
16.256	65.7464
16.274	65.7449
16.292	65.7356
16.31	65.7193
16.328	65.6976
16.346	65.6726
16.364	65.646
16.382	65.6206
16.4	65.5984
16.418	65.5807
16.436	65.5692
16.454	65.564
16.472	65.5652
16.49	65.5715
16.508	65.581
16.526	65.5922
16.544	65.6017
16.562	65.6074
16.58	65.6075
16.598	65.5997
16.616	65.5838
16.634	65.5596
16.652	65.5282
16.67	65.4914
16.688	65.451
16.706	65.4112
16.724	65.3741
16.742	65.3431
16.76	65.3212
16.778	65.3097
16.796	65.3103
16.814	65.3226
16.832	65.346
16.85	65.3783
16.868	65.4165
16.886	65.4584
16.904	65.4989
16.922	65.5356
16.94	65.565
16.958	65.5841
16.976	65.5916
16.994	65.586
17.012	65.5678
17.03	65.5375
17.048	65.4976
17.066	65.4502
17.084	65.3982
17.102	65.3459
17.12	65.295
17.138	65.2501
17.156	65.213
17.174	65.1857
17.192	65.17
17.21	65.1662
17.228	65.1746
17.246	65.1939
17.264	65.2235
17.282	65.2606
17.3	65.3038
17.318	65.3502
17.336	65.3973
17.354	65.4436
17.372	65.4856
17.39	65.5226
17.408	65.5522
17.426	65.5737
17.444	65.5862
17.462	65.5897
17.48	65.5844
17.498	65.5711
17.516	65.5513
17.534	65.5259
17.552	65.4976
17.57	65.4671
17.588	65.4373
17.606	65.409
17.624	65.384
17.642	65.3631
17.66	65.3468
17.678	65.3356
17.696	65.3293
17.714	65.3274
17.732	65.3292
17.75	65.334
17.768	65.3407
17.786	65.3489
17.804	65.3573
17.822	65.366
17.84	65.3744
17.858	65.3828
17.876	65.3911
17.894	65.4001
17.912	65.41
17.93	65.4215
17.948	65.4349
17.966	65.4508
17.984	65.4691
18.002	65.49
18.02	65.5131
18.038	65.5383
18.056	65.5645
18.074	65.5917
18.092	65.6185
18.11	65.6447
18.128	65.6688
18.146	65.6908
18.164	65.7097
18.182	65.7255
18.2	65.7376
18.218	65.7461
18.236	65.7506
18.254	65.7511
18.272	65.7476
18.29	65.7397
18.308	65.7276
18.326	65.7111
18.344	65.6902
18.362	65.665
18.38	65.6357
18.398	65.6028
18.416	65.5669
18.434	65.5286
18.452	65.4891
18.47	65.4492
18.488	65.4105
18.506	65.3737
18.524	65.3408
18.542	65.312
18.56	65.2891
18.578	65.2724
18.596	65.2626
18.614	65.26
18.632	65.2642
18.65	65.2752
18.668	65.2917
18.686	65.3135
18.704	65.3385
18.722	65.3665
18.74	65.3951
18.758	65.4242
18.776	65.4517
18.794	65.4775
18.812	65.5002
18.83	65.5201
18.848	65.5363
18.866	65.5492
18.884	65.5591
18.902	65.5665
18.92	65.5722
18.938	65.5769
18.956	65.5819
18.974	65.5877
18.992	65.5954
19.01	65.6054
19.028	65.6187
19.046	65.6354
19.064	65.6561
19.082	65.6803
19.1	65.7084
19.118	65.7397
19.136	65.7737
19.154	65.8101
19.172	65.8479
19.19	65.8868
19.208	65.9257
19.226	65.9644
19.244	66.0019
19.262	66.0382
19.28	66.0724
19.298	66.1045
19.316	66.134
19.334	66.1611
19.352	66.1855
19.37	66.2074
19.388	66.2268
19.406	66.2438
19.424	66.2589
19.442	66.2719
19.46	66.2838
19.478	66.2947
19.496	66.305
19.514	66.315
19.532	66.3251
19.55	66.3358
19.568	66.347
19.586	66.3588
19.604	66.3707
19.622	66.3825
19.64	66.3937
19.658	66.403
19.676	66.4105
19.694	66.4141
19.712	66.4139
19.73	66.4083
19.748	66.3972
19.766	66.38
19.784	66.3562
19.802	66.3265
19.82	66.2908
19.838	66.2503
19.856	66.2062
19.874	66.159
19.892	66.1114
19.91	66.0633
19.928	66.0178
19.946	65.9748
19.964	65.9365
19.982	65.9033
20	65.8758
20.018	65.8548
20.036	65.8399
20.054	65.8312
20.072	65.8284
20.09	65.8305
20.108	65.8376
20.126	65.8479
20.144	65.8614
20.162	65.8765
20.18	65.8928
20.198	65.9095
20.216	65.9253
20.234	65.9405
20.252	65.9539
20.27	65.9657
20.288	65.9751
20.306	65.9822
20.324	65.9868
20.342	65.9888
20.36	65.9884
20.378	65.9857
20.396	65.9807
20.414	65.9738
20.432	65.9649
20.45	65.9544
20.468	65.9424
20.486	65.9288
20.504	65.9139
20.522	65.8975
20.54	65.8796
20.558	65.8602
20.576	65.839
20.594	65.816
20.612	65.7912
20.63	65.7641
20.648	65.7349
20.666	65.7037
20.684	65.6703
20.702	65.6352
20.72	65.5986
20.738	65.5607
20.756	65.5227
20.774	65.4843
20.792	65.4473
20.81	65.4119
20.828	65.3789
20.846	65.35
20.864	65.3246
20.882	65.3045
20.9	65.2895
20.918	65.2801
20.936	65.277
20.954	65.2796
20.972	65.2879
20.99	65.302
21.008	65.3208
21.026	65.3441
21.044	65.3714
21.062	65.4007
21.08	65.4328
21.098	65.4652
21.116	65.4976
21.134	65.5294
21.152	65.5585
21.17	65.5855
21.188	65.6085
21.206	65.6273
21.224	65.6416
21.242	65.6502
21.26	65.6536
21.278	65.6515
21.296	65.6436
21.314	65.6305
21.332	65.6127
21.35	65.59
21.368	65.5637
21.386	65.5339
21.404	65.5012
21.422	65.4672
21.44	65.4314
21.458	65.3954
21.476	65.36
21.494	65.3251
21.512	65.2924
21.53	65.2617
21.548	65.2336
21.566	65.209
21.584	65.1876
21.602	65.1699
21.62	65.156
21.638	65.1458
21.656	65.1389
21.674	65.1355
21.692	65.1349
21.71	65.1372
21.728	65.142
21.746	65.1482
21.764	65.1561
21.782	65.1651
21.8	65.1749
21.818	65.1856
21.836	65.1971
21.854	65.2089
21.872	65.2217
21.89	65.2361
21.908	65.2518
21.926	65.2698
21.944	65.2906
21.962	65.3141
21.98	65.3421
21.998	65.3744
22.016	65.4116
22.034	65.4559
22.052	65.5068
22.07	65.5646
22.088	65.6302
22.106	65.7033
22.124	65.7822
22.142	65.8675
22.16	65.9581
22.178	66.0507
22.196	66.1466
22.214	66.2431
22.232	66.3367
22.25	66.4292
22.268	66.5163
22.286	66.5955
22.304	66.6682
22.322	66.73
22.34	66.78
22.358	66.8188
22.376	66.8442
22.394	66.8559
22.412	66.855
22.43	66.8418
22.448	66.8155
22.466	66.7792
22.484	66.7348
22.502	66.6808
22.52	66.6227
22.538	66.562
22.556	66.4978
22.574	66.4362
22.592	66.3775
22.61	66.3219
22.628	66.2739
22.646	66.2331
22.664	66.2002
22.682	66.1778
22.7	66.1657
22.718	66.1634
22.736	66.1714
22.754	66.1902
22.772	66.2175
22.79	66.2519
22.808	66.2948
22.826	66.3422
22.844	66.3919
22.862	66.4455
22.88	66.4982
22.898	66.5478
22.916	66.5958
22.934	66.6382
22.952	66.6736
22.97	66.703
22.988	66.7237
23.006	66.7346
23.024	66.7367
23.042	66.7307
23.06	66.716
23.078	66.6933
23.096	66.6653
23.114	66.6305
23.132	66.5908
23.15	66.5519
23.168	66.5126
23.186	66.4742
23.204	66.4434
23.222	66.4183
23.24	66.4009
23.258	66.3986
23.276	66.4102
23.294	66.4368
23.312	66.4842
23.33	66.5517
23.348	66.6397
23.366	66.7523
23.384	66.8899
23.402	67.0515
23.42	67.2384
23.438	67.4515
23.456	67.6894
23.474	67.9501
23.492	68.2345
23.51	68.5416
23.528	68.8665
23.546	69.2093
23.564	69.5702
23.582	69.9415
23.6	70.3216
23.618	70.7127
23.636	71.1056
23.654	71.4966
23.672	71.8896
23.69	72.2757
23.708	72.6491
23.726	73.0147
23.744	73.3654
23.762	73.6948
23.78	74.0075
23.798	74.2984
23.816	74.5612
23.834	74.7991
23.852	75.0096
23.87	75.1876
23.888	75.3343
23.906	75.4496
23.924	75.5313
23.942	75.5788
23.96	75.5932
23.978	75.5754
23.996	75.5251
24.014	75.4425
24.032	75.3298
24.05	75.1882
24.068	75.0163
24.086	74.8175
24.104	74.5946
24.122	74.3445
24.14	74.072
24.158	73.7835
24.176	73.4756
24.194	73.1513
24.212	72.8192
24.23	72.4797
24.248	72.1311
24.266	71.7817
24.284	71.4358
24.302	71.0885
24.32	70.747
24.338	70.4178
24.356	70.0958
24.374	69.7861
24.392	69.4969
24.41	69.2263
24.428	68.9745
24.446	68.7485
24.464	68.5515
24.482	68.3798
24.5	68.2371
24.518	68.1264
24.536	68.0461
24.554	67.9962
24.572	67.9774
24.59	67.9905
24.608	68.0343
24.626	68.107
24.644	68.2083
24.662	68.3394
24.68	68.496
24.698	68.6745
24.716	68.8791
24.734	69.1048
24.752	69.3441
24.77	69.5978
24.788	69.867
24.806	70.1433
24.824	70.4213
24.842	70.7067
24.86	70.9934
24.878	71.274
24.896	71.5513
24.914	71.8246
24.932	72.0875
24.95	72.3368
24.968	72.5764
24.986	72.8021
25.004	73.0094
25.022	73.2003
25.04	73.3743
25.058	73.5284
25.076	73.6614
25.094	73.7751
25.112	73.8677
25.13	73.937
25.148	73.9834
25.166	74.0076
25.184	74.0097
25.202	73.9886
25.22	73.9438
25.238	73.8796
25.256	73.8004
25.274	73.706
25.292	73.5952
25.31	73.4683
25.328	73.3269
25.346	73.1724
25.364	72.9994
25.382	72.8018
25.4	72.5795
25.418	72.3346
25.436	72.0661
25.454	71.773
25.472	71.4551
25.49	71.1141
25.508	70.7519
25.526	70.366
25.544	69.956
25.562	69.5311
25.58	69.0997
25.598	68.6526
25.616	68.1963
25.634	67.7459
25.652	67.3169
25.67	66.9099
25.688	66.5016
25.706	66.0673
25.724	65.6161
25.742	65.1544
25.76	64.6418
25.778	64.0412
25.796	63.3781
25.814	62.6433
25.832	61.8038
25.85	60.8373
25.868	59.7663
25.886	58.5799
25.904	57.2617
25.922	55.7712
25.94	54.1148
25.958	52.3875
25.976	50.6834
25.994	48.9454
26.012	47.182
26.03	45.5075
26.048	44.0223
26.066	42.6666
26.084	41.4475
26.102	40.411
26.12	39.5932
26.138	38.9735
26.156	38.5392
26.174	38.281
26.192	38.2559
26.21	38.4988
26.228	38.8137
26.246	38.999
26.264	39.0813
26.282	39.1385
26.3	38.9922
26.318	38.4667
26.336	37.5711
26.354	36.3708
26.372	34.8574
26.39	33.0192
26.408	30.8017
26.426	28.2685
26.444	25.5216
26.462	22.6161
26.48	19.2968
26.498	15.8345
26.516	12.6318
26.534	9.978151
26.552	7.543120
26.57	5.501124
26.588	4.139471
26.606	3.682396
26.624	3.996237
26.642	5.003807
26.66	6.652601
26.678	8.965620
26.696	12.0691
26.714	15.7183
26.732	19.6396
26.75	23.8305
26.768	28.6823
26.786	33.5566
26.804	37.7462
26.822	40.915
26.84	43.611
26.858	45.4962
26.876	46.1637
26.894	45.3253
26.912	43.1869
26.93	39.8973
26.948	35.5882
26.966	29.8445
26.984	21.852
27.002	13.4916
27.02	6.815298
27.028	5.106735