File: Bakgrunnsmateriale/MATLAB/FTIR/ftir_data/subCa/Mapping_25/BZ12041010-4_e28_cm-1.asc
PE IR       SPECTRUM    SPECTRUM    ASCII       PEDS        1.60
  -1
BZACB1~1.ASC
17/04/10
10:38:40.00
17/04/10
10:38:40.00
tln
$BZ12041010-4_e0028$<ebV0>[-23.0,28.0,5.5,0.0,22,1,0]
370
64

2002,4.07
MIRTGS : RIGHTBACK : INTERNAL 2
MIR : ON : INTERNAL 2
OPTKBR

0.200000
8
8.000000
FILLER
SINGLE
SPECTRUM
UNLOCKED 256

DOUBLE

COMBINED
1
0
0

1.000000
BACKG

1
0
TRUE
51149
0
LEFT NOT FITTED RIGHT NOT FITTED 0
NONE
NONE
15600
12
4.427000
51148
TRUE
1 0 8 72 0 0 0 0

15798

#HDR
-1
-1
#GR
CM-1
EGY
2.38419e-05
0.0
5000
-1.000000
4631
8
2.462601
0.013208
#DATA
5000	0.778555
4996	0.780487
4992	0.782823
4988	0.785779
4984	0.788116
4980	0.788164
4976	0.787591
4972	0.789022
4968	0.791931
4964	0.796103
4960	0.800418
4956	0.801968
4952	0.800657
4948	0.798463
4944	0.798654
4940	0.800848
4936	0.802397
4932	0.804090
4928	0.804924
4924	0.804781
4920	0.805830
4916	0.807976
4912	0.811219
4908	0.815725
4904	0.820374
4900	0.821423
4896	0.820112
4892	0.822854
4888	0.826096
4884	0.827956
4880	0.833892
4876	0.838351
4872	0.838923
4868	0.838565
4864	0.835704
4860	0.834155
4856	0.833201
4852	0.836300
4848	0.849843
4844	0.857186
4840	0.848460
4836	0.839376
4832	0.843167
4828	0.852513
4824	0.856733
4820	0.858473
4816	0.859975
4812	0.861978
4808	0.868868
4804	0.877642
4800	0.880527
4796	0.877904
4792	0.878143
4788	0.884652
4784	0.892758
4780	0.897026
4776	0.897622
4772	0.896739
4768	0.896596
4764	0.901150
4760	0.907182
4756	0.909399
4752	0.908303
4748	0.906825
4744	0.906777
4740	0.907325
4736	0.907611
4732	0.909399
4728	0.911855
4724	0.911808
4720	0.911593
4716	0.912857
4712	0.914692
4708	0.916862
4704	0.918126
4700	0.918674
4696	0.918197
4692	0.917291
4688	0.918126
4684	0.918602
4680	0.918197
4676	0.917959
4672	0.917100
4668	0.918388
4664	0.921940
4660	0.922775
4656	0.921630
4652	0.921821
4648	0.921893
4644	0.921440
4640	0.923228
4636	0.927114
4632	0.930380
4628	0.931286
4624	0.930380
4620	0.930070
4616	0.932455
4612	0.936388
4608	0.940227
4604	0.943374
4600	0.945425
4596	0.945949
4592	0.946593
4588	0.948834
4584	0.950074
4580	0.951862
4576	0.956869
4572	0.962066
4568	0.966024
4564	0.967597
4560	0.968265
4556	0.971317
4552	0.974059
4548	0.975537
4544	0.978398
4540	0.982594
4536	0.987267
4532	0.991535
4528	0.993084
4524	0.991725
4520	0.989389
4516	0.989389
4512	0.991749
4508	0.993919
4504	0.995469
4500	0.999093
4496	1.001024
4492	1.001524
4488	1.001381
4484	1.000833
4480	1.005983
4476	1.009130
4472	1.005768
4468	1.059126
4464	1.211714
4460	1.261806
4456	1.123738
4452	1.021957
4448	1.014137
4444	1.017141
4440	1.019525
4436	1.021099
4432	1.021313
4428	1.022505
4424	1.023483
4420	1.024174
4416	1.023626
4412	1.021599
4408	1.021814
4404	1.024246
4400	1.025629
4396	1.025199
4392	1.026010
4388	1.029157
4384	1.031494
4380	1.033258
4376	1.035976
4372	1.038479
4368	1.041007
4364	1.045966
4360	1.052904
4356	1.057958
4352	1.059699
4348	1.061844
4344	1.067185
4340	1.072549
4336	1.076626
4332	1.080250
4328	1.084661
4324	1.091432
4320	1.097941
4316	1.103067
4312	1.107978
4308	1.113939
4304	1.121044
4300	1.126003
4296	1.128125
4292	1.130294
4288	1.134181
4284	1.139736
4280	1.145219
4276	1.149153
4272	1.151561
4268	1.154685
4264	1.158905
4260	1.162600
4256	1.166248
4252	1.170682
4248	1.175475
4244	1.180315
4240	1.184916
4236	1.187992
4232	1.190328
4228	1.193141
4224	1.194691
4220	1.195859
4216	1.196980
4212	1.198434
4208	1.202344
4204	1.205945
4200	1.208114
4196	1.210689
4192	1.211690
4188	1.211524
4184	1.213216
4180	1.216173
4176	1.218581
4172	1.220345
4168	1.223587
4164	1.228189
4160	1.230692
4156	1.231265
4152	1.233077
4148	1.236820
4144	1.241040
4140	1.244640
4136	1.246380
4132	1.247668
4128	1.250815
4124	1.254653
4120	1.257133
4116	1.259446
4112	1.263499
4108	1.268100
4104	1.271820
4100	1.276588
4096	1.282858
4092	1.287770
4088	1.291370
4084	1.297330
4080	1.305818
4076	1.311564
4072	1.312422
4068	1.315116
4064	1.322746
4060	1.330494
4056	1.335716
4052	1.340723
4048	1.346635
4044	1.351261
4040	1.354622
4036	1.359272
4032	1.364803
4028	1.370000
4024	1.375770
4020	1.381230
4016	1.385021
4012	1.388549
4008	1.392745
4004	1.396703
4000	1.399588
3996	1.402235
3992	1.405286
3988	1.407551
3984	1.409459
3980	1.411724
3976	1.413655
3972	1.415514
3968	1.417684
3964	1.420736
3960	1.423239
3956	1.424169
3952	1.425719
3948	1.427197
3944	1.428127
3940	1.429557
3936	1.430797
3932	1.430845
3928	1.429891
3924	1.429724
3920	1.431226
3916	1.434016
3912	1.436543
3908	1.435351
3904	1.433157
3900	1.436686
3896	1.441836
3892	1.441836
3888	1.440668
3884	1.442909
3880	1.448082
3876	1.451468
3872	1.451635
3868	1.453423
3864	1.458621
3860	1.459980
3856	1.454162
3852	1.457118
3848	1.471281
3844	1.477956
3840	1.476693
3836	1.480817
3832	1.491236
3828	1.498842
3824	1.500463
3820	1.500630
3816	1.505875
3812	1.514673
3808	1.519703
3804	1.522088
3800	1.527214
3796	1.534962
3792	1.541709
3788	1.546502
3784	1.549935
3780	1.553106
3776	1.557159
3772	1.560974
3768	1.564455
3764	1.566195
3760	1.565098
3756	1.561665
3752	1.556539
3748	1.553845
3744	1.558136
3740	1.565933
3736	1.570773
3732	1.575016
3728	1.580762
3724	1.585388
3720	1.586675
3716	1.584458
3712	1.583790
3708	1.587796
3704	1.591372
3700	1.591610
3696	1.589059
3692	1.583528
3688	1.581764
3684	1.584434
3680	1.580452
3676	1.572895
3672	1.573014
3668	1.580429
3664	1.586890
3660	1.587367
3656	1.583957
3652	1.578807
3648	1.578736
3644	1.586461
3640	1.592278
3636	1.591157
3632	1.585602
3628	1.583600
3624	1.586937
3620	1.589417
3616	1.590871
3612	1.591992
3608	1.594638
3604	1.600146
3600	1.604127
3596	1.605129
3592	1.604819
3588	1.605296
3584	1.609253
3580	1.614594
3576	1.618266
3572	1.619291
3568	1.619076
3564	1.621675
3560	1.626801
3556	1.630282
3552	1.630854
3548	1.630854
3544	1.632666
3540	1.634550
3536	1.633954
3532	1.632523
3528	1.632881
3524	1.635599
3520	1.638507
3516	1.639628
3512	1.639556
3508	1.637911
3504	1.635622
3500	1.634049
3496	1.632881
3492	1.631617
3488	1.629567
3484	1.626658
3480	1.624679
3476	1.623749
3472	1.621794
3468	1.619029
3464	1.616096
3460	1.612901
3456	1.610183
3452	1.607298
3448	1.603960
3444	1.600909
3440	1.598000
3436	1.595759
3432	1.594281
3428	1.592922
3424	1.592826
3420	1.593852
3416	1.594686
3412	1.596069
3408	1.598405
3404	1.601052
3400	1.604461
3396	1.608419
3392	1.611256
3388	1.613426
3384	1.615810
3380	1.618266
3376	1.621699
3372	1.626300
3368	1.632213
3364	1.638841
3360	1.644039
3356	1.648330
3352	1.653909
3348	1.661562
3344	1.669406
3340	1.675200
3336	1.680469
3332	1.686549
3328	1.692724
3324	1.698899
3320	1.704621
3316	1.709485
3312	1.715230
3308	1.721835
3304	1.727247
3300	1.732420
3296	1.738691
3292	1.744580
3288	1.749348
3284	1.753783
3280	1.757979
3276	1.762986
3272	1.768183
3268	1.772475
3264	1.775836
3260	1.777720
3256	1.779890
3252	1.783680
3248	1.787352
3244	1.789736
3240	1.790976
3236	1.792216
3232	1.793217
3228	1.793837
3224	1.794838
3220	1.795721
3216	1.796960
3212	1.798987
3208	1.799988
3204	1.800203
3200	1.801276
3196	1.802325
3192	1.803135
3188	1.804518
3184	1.805615
3180	1.805257
3176	1.805591
3172	1.807928
3168	1.810097
3164	1.812386
3160	1.815366
3156	1.817679
3152	1.818990
3148	1.821208
3144	1.826405
3140	1.832628
3136	1.836824
3132	1.839923
3128	1.843285
3124	1.847457
3120	1.853656
3116	1.860642
3112	1.866769
3108	1.873111
3104	1.880407
3100	1.888799
3096	1.896190
3092	1.901292
3088	1.907634
3084	1.915717
3080	1.923823
3076	1.930499
3072	1.934981
3068	1.939439
3064	1.945924
3060	1.954245
3056	1.961898
3052	1.967668
3048	1.973867
3044	1.980328
3040	1.984882
3036	1.988172
3032	1.988768
3028	1.983571
3024	1.974868
3020	1.968836
3016	1.973581
3012	1.991248
3008	2.012252
3004	2.027273
3000	2.035546
2996	2.039504
2992	2.040624
2988	2.039122
2984	2.035355
2980	2.028799
2976	2.016019
2972	1.995491
2968	1.971220
2964	1.950597
2960	1.938676
2956	1.933431
2952	1.928758
2948	1.917767
2944	1.894235
2940	1.858592
2936	1.821780
2932	1.792311
2928	1.773309
2924	1.776933
2920	1.811671
2916	1.862621
2912	1.906800
2908	1.935911
2904	1.955032
2900	1.970601
2896	1.984119
2892	1.995420
2888	2.005290
2884	2.012848
2880	2.015662
2876	2.011060
2872	1.994681
2868	1.963496
2864	1.927781
2860	1.913738
2856	1.934599
2852	1.975679
2848	2.018809
2844	2.054810
2840	2.080368
2836	2.099370
2832	2.114748
2828	2.126955
2824	2.137851
2820	2.149033
2816	2.159929
2812	2.170062
2808	2.178740
2804	2.184772
2800	2.190804
2796	2.198362
2792	2.205610
2788	2.212309
2784	2.219057
2780	2.226853
2776	2.234482
2772	2.240228
2768	2.246046
2764	2.251386
2760	2.254748
2756	2.257633
2752	2.259349
2748	2.260494
2744	2.263021
2740	2.265572
2736	2.265906
2732	2.265691
2728	2.266502
2724	2.266550
2720	2.265334
2716	2.263355
2712	2.260875
2708	2.259135
2704	2.256846
2700	2.253651
2696	2.251267
2692	2.249503
2688	2.248430
2684	2.246975
2680	2.243375
2676	2.239751
2672	2.237892
2668	2.236199
2664	2.234268
2660	2.232551
2656	2.230238
2652	2.227520
2648	2.225661
2644	2.225542
2640	2.225899
2636	2.225303
2632	2.225446
2628	2.226448
2624	2.226638
2620	2.227139
2616	2.228975
2612	2.230739
2608	2.231264
2604	2.232003
2600	2.234148
2596	2.236413
2592	2.237892
2588	2.240872
2584	2.247333
2580	2.254772
2576	2.260971
2572	2.267289
2568	2.273654
2564	2.278995
2560	2.284693
2556	2.290368
2552	2.293777
2548	2.295923
2544	2.299761
2540	2.306175
2536	2.312636
2532	2.316284
2528	2.319025
2524	2.322554
2520	2.325177
2516	2.326369
2512	2.328062
2508	2.330899
2504	2.332568
2500	2.332782
2496	2.333736
2492	2.334809
2488	2.334141
2484	2.332377
2480	2.330517
2476	2.328705
2472	2.327084
2468	2.324128
2464	2.319049
2460	2.315163
2456	2.312445
2452	2.307891
2448	2.302598
2444	2.299165
2440	2.296113
2436	2.291178
2432	2.285885
2428	2.282166
2424	2.279877
2420	2.277135
2416	2.272748
2412	2.267694
2408	2.263951
2404	2.262449
2400	2.262043
2396	2.260756
2392	2.258563
2388	2.257061
2384	2.255678
2380	2.253055
2376	2.249145
2372	2.244567
2368	2.240800
2364	2.239680
2360	2.243375
2356	2.251601
2352	2.261519
2348	2.268505
2344	2.270388
2340	2.272534
2336	2.277946
2332	2.284884
2328	2.292919
2324	2.301144
2320	2.309250
2316	2.317404
2312	2.324771
2308	2.331423
2304	2.337646
2300	2.344226
2296	2.350878
2292	2.357745
2288	2.364039
2284	2.367520
2280	2.369880
2276	2.373027
2272	2.376317
2268	2.379655
2264	2.383041
2260	2.385210
2256	2.386021
2252	2.385997
2248	2.385473
2244	2.385759
2240	2.386713
2236	2.385687
2232	2.383565
2228	2.382850
2224	2.382588
2220	2.380418
2216	2.376699
2212	2.373337
2208	2.370381
2204	2.367353
2200	2.364706
2196	2.362275
2192	2.359676
2188	2.356863
2184	2.352738
2180	2.348494
2176	2.346181
2172	2.344131
2168	2.342104
2164	2.341055
2160	2.339816
2156	2.338552
2152	2.337861
2148	2.337431
2144	2.337241
2140	2.337622
2136	2.338123
2132	2.337789
2128	2.338624
2124	2.340459
2120	2.341437
2116	2.343130
2112	2.345228
2108	2.345991
2104	2.345633
2100	2.344703
2096	2.343630
2092	2.343678
2088	2.345275
2084	2.347087
2080	2.350425
2076	2.356314
2072	2.362895
2068	2.370071
2064	2.378129
2060	2.387428
2056	2.397274
2052	2.405834
2048	2.413511
2044	2.421665
2040	2.429103
2036	2.434730
2032	2.439498
2028	2.444410
2024	2.448368
2020	2.450084
2016	2.452278
2012	2.456235
2008	2.460050
2004	2.461957
2000	2.462601
1996	2.462053
1992	2.459907
1988	2.458500
1984	2.457523
1980	2.454710
1976	2.450537
1972	2.445650
1968	2.441549
1964	2.438616
1960	2.436304
1956	2.433848
1952	2.430438
1948	2.426815
1944	2.423906
1940	2.421474
1936	2.417850
1932	2.413296
1928	2.408957
1924	2.403306
1920	2.397322
1916	2.394175
1912	2.391886
1908	2.387285
1904	2.382206
1900	2.378678
1896	2.376651
1892	2.375793
1888	2.376198
1884	2.377390
1880	2.378249
1876	2.379202
1872	2.380299
1868	2.383041
1864	2.388644
1860	2.393770
1856	2.396488
1852	2.397370
1848	2.396583
1844	2.398014
1840	2.404618
1836	2.409839
1832	2.410197
1828	2.411913
1824	2.417445
1820	2.423191
1816	2.426910
1812	2.429771
1808	2.432155
1804	2.432584
1800	2.432417
1796	2.431201
1792	2.429986
1788	2.431488
1784	2.432560
1780	2.430033
1776	2.422142
1772	2.415680
1768	2.416801
1764	2.416658
1760	2.411532
1756	2.402377
1752	2.389717
1748	2.378630
1744	2.366924
1740	2.348971
1736	2.330493
1732	2.324914
1728	2.329182
1724	2.325582
1720	2.311253
1716	2.302145
1712	2.302718
1708	2.296042
1704	2.276539
1700	2.257823
1696	2.255249
1692	2.260160
1688	2.251052
1684	2.240324
1680	2.241492
1676	2.238607
1672	2.229666
1668	2.222204
1664	2.215290
1660	2.202820
1656	2.178955
1652	2.161431
1648	2.161884
1644	2.164554
1640	2.156186
1636	2.142548
1632	2.134871
1628	2.125597
1624	2.107000
1620	2.078270
1616	2.039742
1612	1.999521
1608	1.974534
1604	1.977610
1600	1.996493
1596	2.012491
1592	2.019405
1588	2.017521
1584	2.009487
1580	1.996827
1576	1.986789
1572	1.984071
1568	1.978945
1564	1.957750
1560	1.932477
1556	1.933836
1552	1.953268
1548	1.959919
1544	1.957583
1540	1.978826
1536	2.031350
1532	2.081584
1528	2.106356
1524	2.111101
1520	2.108955
1516	2.104353
1512	2.091169
1508	2.062797
1504	1.995182
1500	1.851987
1496	1.701688
1492	1.683354
1488	1.789999
1484	1.902437
1480	1.959657
1476	1.973962
1472	1.973462
1468	1.964378
1464	1.936316
1460	1.879072
1456	1.804375
1452	1.761674
1448	1.784420
1444	1.833891
1440	1.859068
1436	1.864862
1432	1.868820
1428	1.870012
1424	1.865696
1420	1.856637
1416	1.843762
1412	1.816391
1408	1.768279
1404	1.729559
1400	1.732730
1396	1.764822
1392	1.789832
1388	1.790356
1384	1.786351
1380	1.797461
1376	1.809644
1372	1.813960
1368	1.815891
1364	1.816511
1360	1.816344
1356	1.815390
1352	1.813578
1348	1.812314
1344	1.812195
1340	1.816058
1336	1.826524
1332	1.839351
1328	1.848435
1324	1.852941
1320	1.855182
1316	1.855731
1312	1.854777
1308	1.854705
1304	1.855349
1300	1.855993
1296	1.856994
1292	1.856589
1288	1.854705
1284	1.851987
1280	1.845932
1276	1.831960
1272	1.803851
1268	1.760911
1264	1.722836
1260	1.721906
1256	1.759290
1252	1.800036
1248	1.823043
1244	1.832580
1240	1.834535
1236	1.832723
1232	1.829481
1228	1.823449
1224	1.813435
1220	1.799392
1216	1.781606
1212	1.763057
1208	1.750063
1204	1.744794
1200	1.743125
1196	1.741242
1192	1.737451
1188	1.730847
1184	1.720857
1180	1.709675
1176	1.698303
1172	1.684165
1168	1.666498
1164	1.647424
1160	1.629662
1156	1.617026
1152	1.610302
1148	1.605463
1144	1.597881
1140	1.587867
1136	1.575660
1132	1.559638
1128	1.540017
1124	1.518750
1120	1.497650
1116	1.477479
1112	1.458764
1108	1.442217
1104	1.431107
1100	1.425981
1096	1.423335
1092	1.423358
1088	1.426219
1084	1.427960
1080	1.427197
1076	1.428103
1072	1.433372
1068	1.439189
1064	1.439070
1060	1.421427
1056	1.369953
1052	1.310992
1048	1.307010
1044	1.350879
1040	1.381134
1036	1.383829
1032	1.376438
1028	1.367402
1024	1.360821
1020	1.360154
1016	1.366376
1012	1.377153
1008	1.387333
1004	1.393961
1000	1.397466
996	 1.398205
992	 1.395201
988	 1.389336
984	 1.382541
980	 1.375365
976	 1.366591
972	 1.354980
968	 1.341366
964	 1.327252
960	 1.313185
956	 1.299309
952	 1.285719
948	 1.274180
944	 1.265215
940	 1.257753
936	 1.250672
932	 1.242566
928	 1.233243
924	 1.224875
920	 1.216578
916	 1.203680
912	 1.185965
908	 1.170396
904	 1.160526
900	 1.153230
896	 1.146626
892	 1.137661
888	 1.119184
884	 1.087331
880	 1.050162
876	 1.028180
872	 1.035022
868	 1.060032
864	 1.081991
860	 1.091909
856	 1.092529
852	 1.088452
848	 1.082873
844	 1.075839
840	 1.061105
836	 1.026844
832	 0.962805
828	 0.885176
824	 0.846362
820	 0.871253
816	 0.917458
812	 0.942754
808	 0.947237
804	 0.945115
800	 0.945281
796	 0.950503
792	 0.959849
788	 0.970625
784	 0.978398
780	 0.980448
776	 0.978255
772	 0.974822
768	 0.971341
764	 0.967431
760	 0.963163
756	 0.958681
752	 0.953745
748	 0.948095
744	 0.941443
740	 0.933647
736	 0.924563
732	 0.913548
728	 0.901150
724	 0.889635
720	 0.878620
716	 0.866794
712	 0.855422
708	 0.844168
704	 0.830626
700	 0.813078
696	 0.790143
692	 0.759935
688	 0.734519
684	 0.728869
680	 0.732946
676	 0.731635
672	 0.724411
668	 0.715327
664	 0.706028
660	 0.696277
656	 0.686025
652	 0.675702
648	 0.664973
644	 0.653791
640	 0.642991
636	 0.632882
632	 0.622916
628	 0.612354
624	 0.601148
620	 0.589776
616	 0.576448
612	 0.557732
608	 0.536441
604	 0.523853
600	 0.522971
596	 0.522756
592	 0.517153
588	 0.510549
584	 0.505828
580	 0.502085
576	 0.499010
572	 0.495862
568	 0.490474
564	 0.483202
560	 0.476861
556	 0.471615
552	 0.465011
548	 0.457119
544	 0.449800
540	 0.443291
536	 0.435948
532	 0.426697
528	 0.415873
524	 0.405073
520	 0.395894
516	 0.388240
512	 0.380587
508	 0.372076
504	 0.361156
500	 0.347924
496	 0.334095
492	 0.319170
488	 0.304126
484	 0.290083
480	 0.275969
476	 0.262665
472	 0.251531
468	 0.240778
464	 0.228500
460	 0.213074
456	 0.195574
452	 0.180196
448	 0.168228
444	 0.158500
440	 0.149321
436	 0.138831
432	 0.125932
428	 0.111675
424	 0.097489
420	 0.085449
416	 0.077891
412	 0.070285
408	 0.058293
404	 0.045299
400	 0.034666
396	 0.027108
392	 0.023555
388	 0.022459
384	 0.021457
380	 0.019860
376	 0.016617
372	 0.014019
370	 0.013208