File: Bakgrunnsmateriale/MATLAB/FTIR/ftir_data/subCa/Mapping_25/BZ12041010-4_t04.asc
PE IR       SPECTRUM    SPECTRUM    ASCII       PEDS        1.60
  -1
BZ36BE~1.ASC
17/04/10
09:10:12.00
17/04/10
09:10:39.00
tln
$BZ12041010-4_t0004$<tbV0>[-2.6,-12.4,9.0,0.0,22,1,0]
27.028
64

2002,4.07
MIRTGS : RIGHTBACK : INTERNAL 2
MIR : ON : INTERNAL 2
OPTKBR

0.200000
8
8.000000
FILLER
RATIO
SPECTRUM
UNLOCKED 256

DOUBLE
64
COMBINED
1
0
0

0.002000
RATIO

1
0
TRUE
51149
0
LEFT NOT FITTED RIGHT NOT FITTED 0
NONE
NONE
15600
12
4.427000
51148
TRUE
1 0 8 72 0 0 0 0

15798

#HDR
-1
-1
#GR
µM
%T
2.38419e-05
0.0
2.000000
0.002000
12515
8
75.1307
35.0248
#DATA
2.000000	 65.035
2.018000	 64.9428
2.036000	 64.7915
2.054000	 64.9888
2.072000	 64.7188
2.090000	 63.937
2.108000	 64.4512
2.126000	 64.3562
2.144000	 64.767
2.162000	 65.5651
2.180000	 64.9493
2.198000	 65.8121
2.216000	 66.5346
2.234000	 60.679
2.252000	 66.3581
2.270000	 66.3268
2.288000	 65.8966
2.306000	 65.9208
2.324000	 65.4
2.342000	 65.337
2.360000	 64.9317
2.378000	 64.4579
2.396000	 65.307
2.414000	 64.5445
2.432000	 65.0104
2.450000	 65.0614
2.468000	 65.1458
2.486000	 65.1117
2.504000	 65.3616
2.522000	 65.3328
2.540000	 65.1196
2.558000	 65.3471
2.576000	 65.3505
2.594000	 65.3008
2.612000	 65.2881
2.630000	 65.4436
2.648000	 65.1771
2.666000	 65.5547
2.684000	 65.2015
2.702000	 65.3384
2.720000	 65.399
2.738000	 65.4612
2.756000	 65.585
2.774000	 65.4268
2.792000	 65.3246
2.810000	 65.4309
2.828000	 65.4211
2.846000	 65.303
2.864000	 65.253
2.882000	 65.3484
2.900000	 65.3246
2.918000	 65.1229
2.936000	 65.3928
2.954000	 65.2472
2.972000	 65.0738
2.990000	 65.1169
3.008000	 65.1342
3.026000	 65.2184
3.044000	 65.2663
3.062000	 65.3194
3.080000	 65.2697
3.098000	 65.1617
3.116000	 65.2584
3.134000	 65.1319
3.152000	 65.0936
3.170000	 65.2219
3.188000	 65.3247
3.206000	 65.1911
3.224000	 65.2448
3.242000	 65.3028
3.260000	 65.1128
3.278000	 65.2851
3.296000	 65.0819
3.314000	 65.3318
3.332000	 65.2003
3.350000	 65.1265
3.368000	 65.1206
3.386000	 65.0221
3.404000	 65.1101
3.422000	 65.236
3.440000	 65.1868
3.458000	 65.2713
3.476000	 65.214
3.494000	 65.2612
3.512000	 65.2535
3.530000	 65.3167
3.548000	 65.1862
3.566000	 65.2538
3.584000	 65.348
3.602000	 65.3
3.620000	 65.265
3.638000	 65.4336
3.656000	 65.2894
3.674000	 65.3076
3.692000	 65.1623
3.710000	 65.2894
3.728000	 65.1373
3.746000	 65.3103
3.764000	 65.3173
3.782000	 65.3072
3.800000	 65.4114
3.818000	 65.3341
3.836000	 65.2152
3.854000	 65.3252
3.872000	 65.3937
3.890000	 65.46
3.908000	 65.2012
3.926000	 65.2854
3.944000	 65.3233
3.962000	 65.3251
3.980000	 65.4041
3.998000	 65.3339
4.016000	 65.2903
4.034000	 65.2342
4.052000	 65.2705
4.070000	 65.4004
4.088000	 65.2545
4.106000	 65.3934
4.124000	 65.3024
4.141999	 65.2693
4.160000	 65.1606
4.178000	 65.3218
4.196000	 65.2712
4.214000	 65.3394
4.232000	 65.3729
4.250000	 65.3573
4.268000	 65.2931
4.286000	 65.342
4.304000	 65.3243
4.322000	 65.3489
4.340000	 65.3382
4.358000	 65.3503
4.375999	 65.3619
4.394000	 65.4641
4.412000	 65.2941
4.430000	 65.3078
4.448000	 65.2431
4.466000	 65.2466
4.484000	 65.2715
4.502000	 65.4698
4.520000	 65.3204
4.538000	 65.3433
4.556000	 65.3636
4.574000	 65.3484
4.592000	 65.3432
4.609999	 65.3018
4.628000	 65.3743
4.646000	 65.3801
4.664000	 65.3349
4.682000	 65.377
4.700000	 65.2988
4.718000	 65.2789
4.736000	 65.316
4.754000	 65.3339
4.772000	 65.4242
4.790000	 65.3939
4.808000	 65.3584
4.826000	 65.2899
4.843999	 65.3581
4.862000	 65.32
4.880000	 65.2766
4.898000	 65.3182
4.916000	 65.3696
4.934000	 65.3317
4.952000	 65.3154
4.970000	 65.3066
4.988000	 65.3263
5.006000	 65.3381
5.024000	 65.3002
5.042000	 65.3125
5.060000	 65.3275
5.077999	 65.3209
5.096000	 65.3466
5.114000	 65.3473
5.132000	 65.3259
5.150000	 65.3858
5.168000	 65.3763
5.186000	 65.3202
5.204000	 65.3784
5.222000	 65.324
5.240000	 65.3242
5.258000	 65.3407
5.276000	 65.4162
5.294000	 65.3589
5.312000	 65.3084
5.330000	 65.3307
5.348000	 65.3102
5.366000	 65.3783
5.384000	 65.4416
5.402000	 65.3886
5.420000	 65.3726
5.438000	 65.3529
5.456000	 65.4558
5.474000	 65.4403
5.492000	 65.3093
5.510000	 65.3634
5.528000	 65.4492
5.546000	 65.5124
5.564000	 65.4288
5.582000	 65.4702
5.600000	 65.5096
5.618000	 65.4183
5.636000	 65.5016
5.654000	 65.5595
5.672000	 65.4474
5.690000	 65.3184
5.708000	 65.277
5.726000	 65.2039
5.744000	 65.2466
5.762000	 65.3164
5.780000	 65.2017
5.798000	 65.1022
5.816000	 65.2761
5.834000	 65.3255
5.852000	 65.302
5.870000	 65.4306
5.888000	 65.5783
5.906000	 65.4351
5.923999	 65.407
5.942000	 65.5458
5.960000	 65.4826
5.978000	 65.4794
5.996000	 65.4479
6.014000	 65.4245
6.032000	 65.5096
6.050000	 65.6595
6.068000	 65.6404
6.086000	 65.5047
6.104000	 65.3641
6.122000	 65.3136
6.140000	 65.2933
6.158000	 65.3493
6.176000	 65.4346
6.194000	 65.4155
6.212000	 65.3401
6.230000	 65.3588
6.248000	 65.4083
6.266000	 65.3616
6.284000	 65.2678
6.302000	 65.2832
6.320000	 65.3776
6.338000	 65.3708
6.356000	 65.3099
6.374000	 65.3218
6.392000	 65.4882
6.410000	 65.6972
6.428000	 65.5401
6.446000	 65.333
6.464000	 65.4645
6.482000	 65.6022
6.500000	 65.546
6.518000	 65.457
6.536000	 65.4267
6.554000	 65.4395
6.572000	 65.4509
6.590000	 65.393
6.608000	 65.3854
6.626000	 65.5163
6.644000	 65.5464
6.662000	 65.5175
6.680000	 65.5949
6.698000	 65.5734
6.716000	 65.4758
6.734000	 65.3841
6.752000	 65.2986
6.770000	 65.3223
6.788000	 65.4177
6.806000	 65.4399
6.824000	 65.3655
6.842000	 65.3566
6.860000	 65.3875
6.878000	 65.2677
6.896000	 65.1133
6.914000	 65.0712
6.932000	 65.1127
6.950000	 65.2256
6.968000	 65.3423
6.986000	 65.3972
7.004000	 65.4077
7.022000	 65.4153
7.040000	 65.4108
7.058000	 65.3531
7.076000	 65.2781
7.094000	 65.2547
7.112000	 65.2709
7.130000	 65.2805
7.148000	 65.2857
7.166000	 65.2852
7.184000	 65.2465
7.202000	 65.1958
7.220000	 65.1849
7.238000	 65.1859
7.256000	 65.1657
7.274000	 65.1584
7.292000	 65.1813
7.310000	 65.2072
7.328000	 65.2063
7.346000	 65.165
7.364000	 65.1219
7.382000	 65.1344
7.400000	 65.1886
7.418000	 65.2353
7.436000	 65.2675
7.454000	 65.2952
7.472000	 65.2967
7.490000	 65.2504
7.508000	 65.1793
7.526000	 65.1249
7.544000	 65.1114
7.562000	 65.1401
7.580000	 65.1874
7.598000	 65.2269
7.616000	 65.2691
7.634000	 65.3345
7.652000	 65.3979
7.670000	 65.4148
7.688000	 65.3752
7.706000	 65.3038
7.724000	 65.2464
7.742000	 65.2298
7.760000	 65.2271
7.778000	 65.2061
7.796000	 65.1814
7.814000	 65.1723
7.832000	 65.1636
7.850000	 65.1386
7.868000	 65.1083
7.886000	 65.0974
7.904000	 65.123
7.922000	 65.1822
7.940000	 65.2479
7.958000	 65.2847
7.976000	 65.2755
7.994000	 65.2393
8.012000	 65.2162
8.030000	 65.221
8.048000	 65.2356
8.065999	 65.2386
8.084000	 65.2225
8.102000	 65.1974
8.120000	 65.1886
8.138000	 65.2195
8.155999	 65.2899
8.173999	 65.3648
8.192000	 65.3988
8.210000	 65.3788
8.228000	 65.34
8.246000	 65.3254
8.263999	 65.3387
8.282000	 65.3528
8.300000	 65.3395
8.318000	 65.2889
8.336000	 65.2208
8.353999	 65.171
8.372000	 65.156
8.390000	 65.1613
8.408000	 65.1671
8.426000	 65.1636
8.443999	 65.1444
8.462000	 65.113
8.480000	 65.0994
8.498000	 65.1402
8.516000	 65.2329
8.533999	 65.3262
8.552000	 65.3633
8.570000	 65.3306
8.588000	 65.2671
8.606000	 65.2241
8.624000	 65.2182
8.641999	 65.2259
8.660000	 65.2202
8.678000	 65.2015
8.696000	 65.1826
8.714000	 65.1619
8.731999	 65.1267
8.750000	 65.0804
8.768000	 65.0507
8.786000	 65.0651
8.804000	 65.1212
8.821999	 65.19
8.840000	 65.242
8.858000	 65.2715
8.876000	 65.2921
8.894000	 65.3141
8.911999	 65.3316
8.930000	 65.3309
8.948000	 65.304
8.966000	 65.2485
8.984000	 65.166
9.001999	 65.0677
9.020000	 64.9796
9.038000	 64.9332
9.056000	 64.9396
9.074000	 64.9794
9.092000	 65.0203
9.109999	 65.0428
9.128000	 65.0504
9.146000	 65.0619
9.164000	 65.0948
9.182000	 65.1501
9.199999	 65.2112
9.218000	 65.2574
9.236000	 65.2831
9.254000	 65.3016
9.272000	 65.3216
9.289999	 65.3287
9.308000	 65.2997
9.326000	 65.2352
9.344000	 65.1705
9.362000	 65.1453
9.379999	 65.1674
9.398000	 65.2083
9.416000	 65.2334
9.434000	 65.2301
9.452000	 65.2094
9.469999	 65.1913
9.488000	 65.1908
9.506000	 65.2074
9.524000	 65.2209
9.542000	 65.2041
9.560000	 65.1461
9.577999	 65.0655
9.596000	 65.0015
9.614000	 64.9858
9.632000	 65.0215
9.650000	 65.0834
9.667999	 65.14
9.686000	 65.1749
9.704000	 65.1913
9.722000	 65.2018
9.740000	 65.2134
9.757999	 65.2191
9.776000	 65.2032
9.794000	 65.1536
9.812000	 65.0745
9.830000	 64.9893
9.847999	 64.93
9.866000	 64.92
9.884000	 64.9605
9.902000	 65.0309
9.920000	 65.102
9.937999	 65.1549
9.956000	 65.1889
9.974000	 65.2129
9.992000	 65.2326
10.01	65.2429
10.028	65.2349
10.046	65.2097
10.064	65.1845
10.082	65.183
10.1	65.2173
10.118	65.2767
10.136	65.3341
10.154	65.3642
10.172	65.3586
10.19	65.3271
10.208	65.2874
10.226	65.2536
10.244	65.2317
10.262	65.2218
10.28	65.2214
10.298	65.2264
10.316	65.2307
10.334	65.2287
10.352	65.2197
10.37	65.2106
10.388	65.2131
10.406	65.2349
10.424	65.2719
10.442	65.3076
10.46	65.3232
10.478	65.3089
10.496	65.2711
10.514	65.2278
10.532	65.1989
10.55	65.1932
10.568	65.2071
10.586	65.2284
10.604	65.2469
10.622	65.2592
10.64	65.2704
10.658	65.2871
10.676	65.3127
10.694	65.3441
10.712	65.3731
10.73	65.3911
10.748	65.3937
10.766	65.3833
10.784	65.3672
10.802	65.3545
10.82	65.3504
10.838	65.3543
10.856	65.3606
10.874	65.3621
10.892	65.355
10.91	65.3398
10.928	65.3208
10.946	65.3031
10.964	65.2898
10.982	65.282
11	65.2804
11.018	65.287
11.036	65.3046
11.054	65.3349
11.072	65.3747
11.09	65.4158
11.108	65.4478
11.126	65.461
11.144	65.4514
11.162	65.4218
11.18	65.3804
11.198	65.3376
11.216	65.3028
11.234	65.2832
11.252	65.2832
11.27	65.3042
11.288	65.3436
11.306	65.3948
11.324	65.4469
11.342	65.4866
11.36	65.5025
11.378	65.4882
11.396	65.4454
11.414	65.3843
11.432	65.3202
11.45	65.2683
11.468	65.2403
11.486	65.2409
11.504	65.2668
11.522	65.3086
11.54	65.3545
11.558	65.3929
11.576	65.4162
11.594	65.4232
11.612	65.4177
11.63	65.4067
11.648	65.3966
11.666	65.3916
11.684	65.3919
11.702	65.3952
11.72	65.3983
11.738	65.4002
11.756	65.4021
11.774	65.4069
11.792	65.4168
11.81	65.4313
11.828	65.4475
11.846	65.4598
11.864	65.4636
11.882	65.4567
11.9	65.4395
11.918	65.4144
11.936	65.3854
11.954	65.356
11.972	65.3288
11.99	65.306
12.008	65.2895
12.026	65.2813
12.044	65.2824
12.062	65.2912
12.08	65.3039
12.098	65.3147
12.116	65.3184
12.134	65.313
12.152	65.3008
12.17	65.2873
12.188	65.2799
12.206	65.2837
12.224	65.3005
12.242	65.3285
12.26	65.3628
12.278	65.3977
12.296	65.4281
12.314	65.4511
12.332	65.4663
12.35	65.4746
12.368	65.4779
12.386	65.4781
12.404	65.4766
12.422	65.4739
12.44	65.4706
12.458	65.4673
12.476	65.4649
12.494	65.4642
12.512	65.4659
12.53	65.4698
12.548	65.4753
12.566	65.4808
12.584	65.4844
12.602	65.4839
12.62	65.4781
12.638	65.466
12.656	65.4485
12.674	65.4275
12.692	65.4061
12.71	65.3882
12.728	65.3778
12.746	65.3784
12.764	65.3919
12.782	65.4185
12.8	65.4563
12.818	65.5012
12.836	65.5477
12.854	65.5896
12.872	65.6213
12.89	65.6383
12.908	65.6384
12.926	65.6218
12.944	65.591
12.962	65.5503
12.98	65.5048
12.998	65.4601
13.016	65.4208
13.034	65.3904
13.052	65.3712
13.07	65.3637
13.088	65.3668
13.106	65.3785
13.124	65.3956
13.142	65.4148
13.16	65.4328
13.178	65.4474
13.196	65.4574
13.214	65.4632
13.232	65.4665
13.25	65.4698
13.268	65.476
13.286	65.4865
13.304	65.5018
13.322	65.5199
13.34	65.5376
13.358	65.551
13.376	65.5566
13.394	65.5523
13.412	65.5378
13.43	65.5151
13.448	65.4881
13.466	65.4614
13.484	65.4391
13.502	65.4242
13.52	65.4177
13.538	65.4188
13.556	65.425
13.574	65.4329
13.592	65.4391
13.61	65.4408
13.628	65.4365
13.646	65.426
13.664	65.4102
13.682	65.3906
13.7	65.3694
13.718	65.3486
13.736	65.3304
13.754	65.3162
13.772	65.3071
13.79	65.3034
13.808	65.3049
13.826	65.3108
13.844	65.3198
13.862	65.3307
13.88	65.3422
13.898	65.3534
13.916	65.3638
13.934	65.3734
13.952	65.3827
13.97	65.3924
13.988	65.4031
14.006	65.4149
14.024	65.4276
14.042	65.4402
14.06	65.4511
14.078	65.4588
14.096	65.4616
14.114	65.4586
14.132	65.4497
14.15	65.4355
14.168	65.4178
14.186	65.3989
14.204	65.3814
14.222	65.368
14.24	65.3606
14.258	65.3607
14.276	65.3686
14.294	65.3837
14.312	65.4048
14.33	65.43
14.348	65.4571
14.366	65.4838
14.384	65.5081
14.402	65.5287
14.42	65.5447
14.438	65.5559
14.456	65.5627
14.474	65.5656
14.492	65.5658
14.51	65.5642
14.528	65.5618
14.546	65.5589
14.564	65.5558
14.582	65.5522
14.6	65.5479
14.618	65.5423
14.636	65.5351
14.654	65.5262
14.672	65.5158
14.69	65.5049
14.708	65.4942
14.726	65.4851
14.744	65.4788
14.762	65.4764
14.78	65.4781
14.798	65.484
14.816	65.4933
14.834	65.5045
14.852	65.516
14.87	65.5259
14.888	65.5326
14.906	65.5347
14.924	65.5316
14.942	65.5231
14.96	65.5097
14.978	65.4924
14.996	65.4724
15.014	65.451
15.032	65.4292
15.05	65.408
15.068	65.3881
15.086	65.37
15.104	65.3543
15.122	65.3413
15.14	65.3313
15.158	65.3247
15.176	65.3219
15.194	65.3232
15.212	65.3286
15.23	65.3378
15.248	65.3505
15.266	65.3661
15.284	65.3835
15.302	65.4017
15.32	65.4197
15.338	65.4367
15.356	65.452
15.374	65.4653
15.392	65.4772
15.41	65.4883
15.428	65.4992
15.446	65.511
15.464	65.5245
15.482	65.5403
15.5	65.5585
15.518	65.5785
15.536	65.5991
15.554	65.619
15.572	65.6366
15.59	65.6498
15.608	65.6577
15.626	65.6595
15.644	65.6549
15.662	65.6445
15.68	65.6293
15.698	65.6105
15.716	65.5898
15.734	65.5687
15.752	65.5479
15.77	65.528
15.788	65.5092
15.806	65.4912
15.824	65.4735
15.842	65.4557
15.86	65.4375
15.878	65.4193
15.896	65.4013
15.914	65.3853
15.932	65.3728
15.95	65.3653
15.968	65.3651
15.986	65.3737
16.004	65.3921
16.022	65.4208
16.04	65.4594
16.058	65.5066
16.076	65.5611
16.094	65.6202
16.112	65.6811
16.13	65.7419
16.148	65.8
16.166	65.853
16.184	65.9
16.202	65.9398
16.22	65.9718
16.238	65.996
16.256	66.0126
16.274	66.0216
16.292	66.0231
16.31	66.0172
16.328	66.0035
16.346	65.9817
16.364	65.9517
16.382	65.9131
16.4	65.8664
16.418	65.8119
16.436	65.7509
16.454	65.6852
16.472	65.616
16.49	65.5459
16.508	65.4767
16.526	65.4102
16.544	65.3483
16.562	65.2924
16.58	65.2434
16.598	65.2021
16.616	65.1688
16.634	65.1437
16.652	65.1268
16.67	65.1182
16.688	65.1179
16.706	65.1257
16.724	65.1416
16.742	65.1654
16.76	65.1963
16.778	65.2338
16.796	65.2771
16.814	65.3245
16.832	65.3749
16.85	65.4264
16.868	65.4772
16.886	65.526
16.904	65.5706
16.922	65.6105
16.94	65.6447
16.958	65.6728
16.976	65.6949
16.994	65.7116
17.012	65.7234
17.03	65.7308
17.048	65.7349
17.066	65.7359
17.084	65.7342
17.102	65.7299
17.12	65.7231
17.138	65.7135
17.156	65.7013
17.174	65.6866
17.192	65.67
17.21	65.6521
17.228	65.6343
17.246	65.6185
17.264	65.6055
17.282	65.5983
17.3	65.5975
17.318	65.6053
17.336	65.6223
17.354	65.6493
17.372	65.6859
17.39	65.7315
17.408	65.7849
17.426	65.8437
17.444	65.9069
17.462	65.9708
17.48	66.0343
17.498	66.0941
17.516	66.1489
17.534	66.1968
17.552	66.2369
17.57	66.2686
17.588	66.292
17.606	66.3076
17.624	66.316
17.642	66.3188
17.66	66.3166
17.678	66.3115
17.696	66.3041
17.714	66.296
17.732	66.2877
17.75	66.2801
17.768	66.2735
17.786	66.2681
17.804	66.264
17.822	66.2611
17.84	66.2589
17.858	66.2571
17.876	66.2555
17.894	66.2535
17.912	66.251
17.93	66.2476
17.948	66.2433
17.966	66.238
17.984	66.2319
18.002	66.2251
18.02	66.2179
18.038	66.2106
18.056	66.2033
18.074	66.1963
18.092	66.1897
18.11	66.1835
18.128	66.1775
18.146	66.1717
18.164	66.1655
18.182	66.1587
18.2	66.151
18.218	66.1422
18.236	66.1319
18.254	66.1205
18.272	66.1077
18.29	66.0944
18.308	66.0806
18.326	66.0675
18.344	66.0551
18.362	66.0445
18.38	66.0361
18.398	66.0305
18.416	66.0278
18.434	66.0283
18.452	66.0317
18.47	66.0381
18.488	66.0466
18.506	66.0571
18.524	66.0688
18.542	66.0813
18.56	66.0938
18.578	66.1062
18.596	66.118
18.614	66.1291
18.632	66.1399
18.65	66.1503
18.668	66.1611
18.686	66.1725
18.704	66.1853
18.722	66.1997
18.74	66.2165
18.758	66.2357
18.776	66.2579
18.794	66.2828
18.812	66.3104
18.83	66.34
18.848	66.3712
18.866	66.403
18.884	66.4343
18.902	66.4642
18.92	66.4913
18.938	66.5147
18.956	66.533
18.974	66.5459
18.992	66.5522
19.01	66.552
19.028	66.5449
19.046	66.5313
19.064	66.5116
19.082	66.4867
19.1	66.4576
19.118	66.4253
19.136	66.3915
19.154	66.3569
19.172	66.3234
19.19	66.2913
19.208	66.2628
19.226	66.2377
19.244	66.2175
19.262	66.202
19.28	66.1921
19.298	66.1876
19.316	66.1892
19.334	66.1966
19.352	66.2099
19.37	66.229
19.388	66.2541
19.406	66.2851
19.424	66.3215
19.442	66.3635
19.46	66.41
19.478	66.4612
19.496	66.5154
19.514	66.5725
19.532	66.6306
19.55	66.6889
19.568	66.7458
19.586	66.7994
19.604	66.8491
19.622	66.8921
19.64	66.9284
19.658	66.9555
19.676	66.9735
19.694	66.981
19.712	66.9781
19.73	66.9648
19.748	66.9409
19.766	66.908
19.784	66.8661
19.802	66.8174
19.82	66.7628
19.838	66.704
19.856	66.6434
19.874	66.5815
19.892	66.5217
19.91	66.4636
19.928	66.4106
19.946	66.3622
19.964	66.3205
19.982	66.2857
20	66.2581
20.018	66.2383
20.036	66.2255
20.054	66.2196
20.072	66.2203
20.09	66.2258
20.108	66.2366
20.126	66.25
20.144	66.2663
20.162	66.2833
20.18	66.3005
20.198	66.3169
20.216	66.3307
20.234	66.3423
20.252	66.35
20.27	66.3542
20.288	66.3539
20.306	66.3489
20.324	66.3395
20.342	66.3256
20.36	66.3076
20.378	66.2863
20.396	66.2615
20.414	66.2351
20.432	66.2069
20.45	66.1786
20.468	66.1508
20.486	66.1242
20.504	66.1004
20.522	66.0792
20.54	66.0623
20.558	66.0497
20.576	66.0419
20.594	66.0395
20.612	66.0422
20.63	66.0503
20.648	66.0636
20.666	66.0811
20.684	66.1033
20.702	66.1285
20.72	66.1562
20.738	66.1862
20.756	66.2163
20.774	66.2471
20.792	66.2765
20.81	66.3043
20.828	66.3299
20.846	66.3522
20.864	66.3716
20.882	66.3875
20.9	66.3996
20.918	66.4086
20.936	66.4146
20.954	66.4177
20.972	66.4192
20.99	66.4187
21.008	66.4177
21.026	66.4165
21.044	66.4152
21.062	66.4152
21.08	66.416
21.098	66.4182
21.116	66.4221
21.134	66.4274
21.152	66.434
21.17	66.4419
21.188	66.4502
21.206	66.459
21.224	66.4675
21.242	66.4746
21.26	66.4806
21.278	66.4842
21.296	66.4853
21.314	66.4835
21.332	66.4782
21.35	66.4695
21.368	66.4568
21.386	66.44
21.404	66.4191
21.422	66.3939
21.44	66.3646
21.458	66.3312
21.476	66.2939
21.494	66.2528
21.512	66.2089
21.53	66.1617
21.548	66.1122
21.566	66.0611
21.584	66.0082
21.602	65.9552
21.62	65.902
21.638	65.8494
21.656	65.799
21.674	65.7502
21.692	65.705
21.71	65.6636
21.728	65.6263
21.746	65.595
21.764	65.569
21.782	65.5494
21.8	65.537
21.818	65.5314
21.836	65.5329
21.854	65.5417
21.872	65.5574
21.89	65.5797
21.908	65.6087
21.926	65.6434
21.944	65.683
21.962	65.7278
21.98	65.7757
21.998	65.827
22.016	65.8808
22.034	65.9347
22.052	65.9894
22.07	66.0435
22.088	66.0955
22.106	66.146
22.124	66.1935
22.142	66.2375
22.16	66.2783
22.178	66.315
22.196	66.3477
22.214	66.3765
22.232	66.4012
22.25	66.4218
22.268	66.4388
22.286	66.4526
22.304	66.463
22.322	66.4711
22.34	66.4768
22.358	66.4804
22.376	66.4832
22.394	66.4847
22.412	66.4858
22.43	66.4874
22.448	66.4892
22.466	66.4919
22.484	66.4964
22.502	66.5023
22.52	66.5104
22.538	66.5211
22.556	66.5341
22.574	66.5506
22.592	66.5705
22.61	66.594
22.628	66.6218
22.646	66.6539
22.664	66.6903
22.682	66.7312
22.7	66.7767
22.718	66.8264
22.736	66.8799
22.754	66.9375
22.772	66.9984
22.79	67.0618
22.808	67.1283
22.826	67.1963
22.844	67.265
22.862	67.3349
22.88	67.4042
22.898	67.4721
22.916	67.5391
22.934	67.6029
22.952	67.6632
22.97	67.7202
22.988	67.7719
23.006	67.8182
23.024	67.8591
23.042	67.8932
23.06	67.9199
23.078	67.9398
23.096	67.9523
23.114	67.9575
23.132	67.9555
23.15	67.9462
23.168	67.9296
23.186	67.9058
23.204	67.8755
23.222	67.8387
23.24	67.7955
23.258	67.7464
23.276	67.6914
23.294	67.6305
23.312	67.5642
23.33	67.4925
23.348	67.4153
23.366	67.3331
23.384	67.2456
23.402	67.1531
23.42	67.0565
23.438	66.9556
23.456	66.8505
23.474	66.7426
23.492	66.6316
23.51	66.5178
23.528	66.4024
23.546	66.2856
23.564	66.1671
23.582	66.0495
23.6	65.9332
23.618	65.8176
23.636	65.706
23.654	65.5997
23.672	65.4972
23.69	65.4019
23.708	65.3161
23.726	65.2379
23.744	65.1699
23.762	65.1146
23.78	65.0703
23.798	65.0387
23.816	65.0217
23.834	65.0186
23.852	65.0295
23.87	65.0551
23.888	65.0955
23.906	65.1502
23.924	65.2188
23.942	65.3017
23.96	65.3984
23.978	65.5073
23.996	65.6284
24.014	65.7621
24.032	65.9058
24.05	66.0581
24.068	66.2207
24.086	66.3906
24.104	66.5649
24.122	66.7454
24.14	66.9304
24.158	67.1175
24.176	67.3077
24.194	67.5002
24.212	67.6923
24.23	67.8841
24.248	68.076
24.266	68.2647
24.284	68.4488
24.302	68.6302
24.32	68.8052
24.338	68.97
24.356	69.1273
24.374	69.2747
24.392	69.4078
24.41	69.5281
24.428	69.635
24.446	69.7241
24.464	69.7939
24.482	69.8469
24.5	69.8783
24.518	69.8845
24.536	69.868
24.554	69.8272
24.572	69.7593
24.59	69.6641
24.608	69.5427
24.626	69.3952
24.644	69.2207
24.662	69.0188
24.68	68.7941
24.698	68.5503
24.716	68.283
24.734	67.9972
24.752	67.7009
24.77	67.392
24.788	67.0699
24.806	66.7464
24.824	66.4286
24.842	66.1076
24.86	65.7947
24.878	65.5037
24.896	65.2292
24.914	64.9725
24.932	64.7472
24.95	64.56
24.968	64.4031
24.986	64.284
25.004	64.2112
25.022	64.1821
25.04	64.1961
25.058	64.2568
25.076	64.3669
25.094	64.5249
25.112	64.7279
25.13	64.9733
25.148	65.2654
25.166	65.5998
25.184	65.9682
25.202	66.3682
25.22	66.8054
25.238	67.2693
25.256	67.7494
25.274	68.2536
25.292	68.7772
25.31	69.3054
25.328	69.8311
25.346	70.3656
25.364	70.8946
25.382	71.4017
25.4	71.8912
25.418	72.3649
25.436	72.8097
25.454	73.216
25.472	73.5919
25.49	73.9333
25.508	74.233
25.526	74.4893
25.544	74.7059
25.562	74.8795
25.58	75.0071
25.598	75.0896
25.616	75.1279
25.634	75.1215
25.652	75.0694
25.67	74.9706
25.688	74.8294
25.706	74.6501
25.724	74.4317
25.742	74.1731
25.76	73.8808
25.778	73.5607
25.796	73.21
25.814	72.8293
25.832	72.4215
25.85	71.989
25.868	71.5304
25.886	71.0458
25.904	70.5355
25.922	69.9993
25.94	69.4374
25.958	68.8506
25.976	68.2399
25.994	67.6043
26.012	66.9444
26.03	66.2626
26.048	65.5607
26.066	64.8356
26.084	64.0903
26.102	63.3296
26.12	62.5559
26.138	61.7641
26.156	60.9602
26.174	60.1519
26.192	59.3386
26.21	58.514
26.228	57.6921
26.246	56.8875
26.264	56.0982
26.282	55.3185
26.3	54.5616
26.318	53.8404
26.336	53.15
26.354	52.4886
26.372	51.8646
26.39	51.2863
26.408	50.7514
26.426	50.2574
26.444	49.8041
26.462	49.3921
26.48	49.0271
26.498	48.7012
26.516	48.404
26.534	48.1288
26.552	47.8886
26.57	47.6714
26.588	47.4608
26.606	47.2482
26.624	47.0515
26.642	46.8537
26.66	46.6336
26.678	46.3794
26.696	46.1082
26.714	45.8096
26.732	45.4701
26.75	45.0822
26.768	44.6553
26.786	44.1864
26.804	43.6717
26.822	43.105
26.84	42.4845
26.858	41.8237
26.876	41.137
26.894	40.4262
26.912	39.6744
26.93	38.906
26.948	38.1478
26.966	37.3876
26.984	36.565
27.002	35.7908
27.02	35.1876
27.028	35.0248