File: Bakgrunnsmateriale/MATLAB/FTIR/ftir_data/subCa/Mapping_25/BZ12041010-4_t10.asc
PE IR       SPECTRUM    SPECTRUM    ASCII       PEDS        1.60
  -1
BZ2ABE~1.ASC
17/04/10
09:38:13.00
17/04/10
09:38:40.00
tln
$BZ12041010-4_t0010$<tbV0>[-5.2,-9.8,9.0,0.0,22,1,0]
27.028
64

2002,4.07
MIRTGS : RIGHTBACK : INTERNAL 2
MIR : ON : INTERNAL 2
OPTKBR

0.200000
8
8.000000
FILLER
RATIO
SPECTRUM
UNLOCKED 256

DOUBLE
64
COMBINED
1
0
0

0.002000
RATIO

1
0
TRUE
51149
0
LEFT NOT FITTED RIGHT NOT FITTED 0
NONE
NONE
15600
12
4.427000
51148
TRUE
1 0 8 72 0 0 0 0

15798

#HDR
-1
-1
#GR
µM
%T
2.38419e-05
0.0
2.000000
0.002000
12515
8
85.0314
12.7582
#DATA
2.000000	 64.7877
2.018000	 65.3397
2.036000	 65.699
2.054000	 64.061
2.072000	 63.8876
2.090000	 64.8014
2.108000	 64.981
2.126000	 64.4849
2.144000	 65.0824
2.162000	 65.1117
2.180000	 64.6037
2.198000	 64.9619
2.216000	 66.0144
2.234000	 62.4621
2.252000	 64.9703
2.270000	 66.0297
2.288000	 65.4964
2.306000	 65.5025
2.324000	 65.3411
2.342000	 65.0419
2.360000	 65.3979
2.378000	 64.771
2.396000	 65.1516
2.414000	 65.0394
2.432000	 65.0985
2.450000	 65.0056
2.468000	 65.223
2.486000	 65.2314
2.504000	 65.3118
2.522000	 65.3609
2.540000	 65.0534
2.558000	 65.1558
2.576000	 65.471
2.594000	 65.4513
2.612000	 65.36
2.630000	 65.5386
2.648000	 65.3805
2.666000	 65.4948
2.684000	 65.3604
2.702000	 65.1053
2.720000	 65.3252
2.738000	 65.3432
2.756000	 65.5079
2.774000	 65.3986
2.792000	 65.4974
2.810000	 65.4713
2.828000	 65.2684
2.846000	 65.2343
2.864000	 65.3573
2.882000	 65.2316
2.900000	 65.3937
2.918000	 65.3418
2.936000	 65.3835
2.954000	 65.3166
2.972000	 65.3582
2.990000	 65.2694
3.008000	 65.3012
3.026000	 65.1632
3.044000	 65.3435
3.062000	 65.3854
3.080000	 65.3024
3.098000	 65.2347
3.116000	 65.428
3.134000	 65.2578
3.152000	 65.2082
3.170000	 65.2547
3.188000	 65.3569
3.206000	 65.1348
3.224000	 65.2623
3.242000	 65.2665
3.260000	 65.164
3.278000	 65.2783
3.296000	 65.3284
3.314000	 65.2257
3.332000	 65.1424
3.350000	 65.1632
3.368000	 65.1255
3.386000	 65.1866
3.404000	 65.1732
3.422000	 65.1682
3.440000	 65.2465
3.458000	 65.2054
3.476000	 65.2765
3.494000	 65.1999
3.512000	 65.3248
3.530000	 65.2576
3.548000	 65.1655
3.566000	 65.3378
3.584000	 65.3846
3.602000	 65.3683
3.620000	 65.3487
3.638000	 65.4014
3.656000	 65.4654
3.674000	 65.3498
3.692000	 65.2605
3.710000	 65.2677
3.728000	 65.237
3.746000	 65.3025
3.764000	 65.3568
3.782000	 65.2714
3.800000	 65.3306
3.818000	 65.2918
3.836000	 65.2822
3.854000	 65.2359
3.872000	 65.3176
3.890000	 65.2287
3.908000	 65.287
3.926000	 65.2734
3.944000	 65.3495
3.962000	 65.3048
3.980000	 65.344
3.998000	 65.2979
4.016000	 65.4108
4.034000	 65.2683
4.052000	 65.2684
4.070000	 65.3979
4.088000	 65.2618
4.106000	 65.3644
4.124000	 65.4426
4.141999	 65.3505
4.160000	 65.1569
4.178000	 65.199
4.196000	 65.2912
4.214000	 65.3689
4.232000	 65.2885
4.250000	 65.3671
4.268000	 65.2663
4.286000	 65.3603
4.304000	 65.4097
4.322000	 65.4273
4.340000	 65.4194
4.358000	 65.419
4.375999	 65.4425
4.394000	 65.4424
4.412000	 65.4125
4.430000	 65.4257
4.448000	 65.3258
4.466000	 65.4071
4.484000	 65.3416
4.502000	 65.4598
4.520000	 65.442
4.538000	 65.3764
4.556000	 65.3545
4.574000	 65.3514
4.592000	 65.3419
4.609999	 65.3473
4.628000	 65.3215
4.646000	 65.363
4.664000	 65.3451
4.682000	 65.3415
4.700000	 65.3505
4.718000	 65.3858
4.736000	 65.3598
4.754000	 65.3223
4.772000	 65.3801
4.790000	 65.4408
4.808000	 65.4656
4.826000	 65.4211
4.843999	 65.3592
4.862000	 65.3351
4.880000	 65.3317
4.898000	 65.319
4.916000	 65.4348
4.934000	 65.414
4.952000	 65.3634
4.970000	 65.2989
4.988000	 65.2809
5.006000	 65.3211
5.024000	 65.3499
5.042000	 65.3828
5.060000	 65.3487
5.077999	 65.3586
5.096000	 65.3693
5.114000	 65.4251
5.132000	 65.3393
5.150000	 65.3022
5.168000	 65.3387
5.186000	 65.4163
5.204000	 65.381
5.222000	 65.2419
5.240000	 65.3534
5.258000	 65.3609
5.276000	 65.3817
5.294000	 65.352
5.312000	 65.2941
5.330000	 65.3054
5.348000	 65.3542
5.366000	 65.4057
5.384000	 65.4178
5.402000	 65.429
5.420000	 65.4596
5.438000	 65.3381
5.456000	 65.3384
5.474000	 65.3355
5.492000	 65.3469
5.510000	 65.3256
5.528000	 65.3992
5.546000	 65.4317
5.564000	 65.3659
5.582000	 65.4591
5.600000	 65.4589
5.618000	 65.3789
5.636000	 65.442
5.654000	 65.4432
5.672000	 65.4096
5.690000	 65.4196
5.708000	 65.3912
5.726000	 65.213
5.744000	 65.1941
5.762000	 65.3394
5.780000	 65.2613
5.798000	 65.1817
5.816000	 65.3842
5.834000	 65.4127
5.852000	 65.2915
5.870000	 65.356
5.888000	 65.4875
5.906000	 65.4203
5.923999	 65.4389
5.942000	 65.5236
5.960000	 65.4684
5.978000	 65.472
5.996000	 65.3952
6.014000	 65.3435
6.032000	 65.4696
6.050000	 65.7257
6.068000	 65.7161
6.086000	 65.5214
6.104000	 65.4768
6.122000	 65.4672
6.140000	 65.365
6.158000	 65.3507
6.176000	 65.3869
6.194000	 65.3877
6.212000	 65.3432
6.230000	 65.331
6.248000	 65.2884
6.266000	 65.2506
6.284000	 65.2238
6.302000	 65.2257
6.320000	 65.2791
6.338000	 65.3866
6.356000	 65.4585
6.374000	 65.4637
6.392000	 65.6138
6.410000	 65.8851
6.428000	 65.7763
6.446000	 65.4786
6.464000	 65.4558
6.482000	 65.6194
6.500000	 65.6636
6.518000	 65.5497
6.536000	 65.4984
6.554000	 65.6062
6.572000	 65.6738
6.590000	 65.5417
6.608000	 65.4737
6.626000	 65.5973
6.644000	 65.5634
6.662000	 65.4231
6.680000	 65.4836
6.698000	 65.5544
6.716000	 65.5031
6.734000	 65.4153
6.752000	 65.4017
6.770000	 65.4745
6.788000	 65.49
6.806000	 65.452
6.824000	 65.4522
6.842000	 65.5094
6.860000	 65.5305
6.878000	 65.4013
6.896000	 65.2485
6.914000	 65.228
6.932000	 65.2997
6.950000	 65.383
6.968000	 65.3924
6.986000	 65.3449
7.004000	 65.3295
7.022000	 65.3719
7.040000	 65.4134
7.058000	 65.3856
7.076000	 65.3469
7.094000	 65.3474
7.112000	 65.3267
7.130000	 65.3115
7.148000	 65.3499
7.166000	 65.3573
7.184000	 65.2971
7.202000	 65.2632
7.220000	 65.2979
7.238000	 65.3371
7.256000	 65.3338
7.274000	 65.2954
7.292000	 65.2446
7.310000	 65.2264
7.328000	 65.2502
7.346000	 65.2454
7.364000	 65.2016
7.382000	 65.1989
7.400000	 65.2283
7.418000	 65.2175
7.436000	 65.1985
7.454000	 65.2357
7.472000	 65.292
7.490000	 65.3028
7.508000	 65.2685
7.526000	 65.2279
7.544000	 65.2276
7.562000	 65.2806
7.580000	 65.3403
7.598000	 65.3628
7.616000	 65.346
7.634000	 65.2915
7.652000	 65.214
7.670000	 65.1573
7.688000	 65.1432
7.706000	 65.154
7.724000	 65.1758
7.742000	 65.2119
7.760000	 65.2576
7.778000	 65.295
7.796000	 65.3117
7.814000	 65.3143
7.832000	 65.3168
7.850000	 65.3303
7.868000	 65.3599
7.886000	 65.3872
7.904000	 65.3729
7.922000	 65.3092
7.940000	 65.2441
7.958000	 65.218
7.976000	 65.2232
7.994000	 65.2373
8.012000	 65.253
8.030000	 65.2625
8.048000	 65.2462
8.065999	 65.1983
8.084000	 65.1458
8.102000	 65.1264
8.120000	 65.1512
8.138000	 65.2002
8.155999	 65.2465
8.173999	 65.2703
8.192000	 65.265
8.210000	 65.2472
8.228000	 65.2449
8.246000	 65.2668
8.263999	 65.291
8.282000	 65.2887
8.300000	 65.2561
8.318000	 65.2149
8.336000	 65.1873
8.353999	 65.1763
8.372000	 65.1752
8.390000	 65.1879
8.408000	 65.2165
8.426000	 65.2411
8.443999	 65.2371
8.462000	 65.2108
8.480000	 65.1953
8.498000	 65.2136
8.516000	 65.2524
8.533999	 65.2772
8.552000	 65.2668
8.570000	 65.2281
8.588000	 65.1877
8.606000	 65.1698
8.624000	 65.1758
8.641999	 65.1841
8.660000	 65.1775
8.678000	 65.1664
8.696000	 65.1752
8.714000	 65.2035
8.731999	 65.2182
8.750000	 65.1913
8.768000	 65.1403
8.786000	 65.1146
8.804000	 65.1408
8.821999	 65.1963
8.840000	 65.2399
8.858000	 65.2548
8.876000	 65.2517
8.894000	 65.238
8.911999	 65.209
8.930000	 65.1748
8.948000	 65.1657
8.966000	 65.1943
8.984000	 65.2317
9.001999	 65.235
9.020000	 65.1901
9.038000	 65.1213
9.056000	 65.0657
9.074000	 65.0473
9.092000	 65.0706
9.109999	 65.1236
9.128000	 65.1828
9.146000	 65.2244
9.164000	 65.2405
9.182000	 65.244
9.199999	 65.256
9.218000	 65.2887
9.236000	 65.3403
9.254000	 65.3985
9.272000	 65.4431
9.289999	 65.449
9.308000	 65.3995
9.326000	 65.3046
9.344000	 65.202
9.362000	 65.1329
9.379999	 65.1154
9.398000	 65.1366
9.416000	 65.1731
9.434000	 65.2105
9.452000	 65.248
9.469999	 65.2863
9.488000	 65.3187
9.506000	 65.3312
9.524000	 65.3114
9.542000	 65.2561
9.560000	 65.1737
9.577999	 65.081
9.596000	 64.9962
9.614000	 64.9335
9.632000	 64.9021
9.650000	 64.9071
9.667999	 64.9485
9.686000	 65.0169
9.704000	 65.0927
9.722000	 65.1545
9.740000	 65.1908
9.757999	 65.2042
9.776000	 65.2047
9.794000	 65.1996
9.812000	 65.1915
9.830000	 65.1834
9.847999	 65.1829
9.866000	 65.1971
9.884000	 65.2244
9.902000	 65.2544
9.920000	 65.2771
9.937999	 65.291
9.956000	 65.2988
9.974000	 65.2997
9.992000	 65.2858
10.01	65.2493
10.028	65.1934
10.046	65.1356
10.064	65.0977
10.082	65.0909
10.1	65.1084
10.118	65.1299
10.136	65.1372
10.154	65.1241
10.172	65.0992
10.19	65.0801
10.208	65.0807
10.226	65.1041
10.244	65.1439
10.262	65.1893
10.28	65.2325
10.298	65.2693
10.316	65.2967
10.334	65.3111
10.352	65.3089
10.37	65.2897
10.388	65.2582
10.406	65.2234
10.424	65.1938
10.442	65.1751
10.46	65.1715
10.478	65.1878
10.496	65.2268
10.514	65.2851
10.532	65.3506
10.55	65.4071
10.568	65.4421
10.586	65.454
10.604	65.4508
10.622	65.4444
10.64	65.4423
10.658	65.4455
10.676	65.4517
10.694	65.4607
10.712	65.4747
10.73	65.4942
10.748	65.5141
10.766	65.5237
10.784	65.5131
10.802	65.4791
10.82	65.4275
10.838	65.3713
10.856	65.3237
10.874	65.2947
10.892	65.2871
10.91	65.2978
10.928	65.3192
10.946	65.3412
10.964	65.3541
10.982	65.3507
11	65.3313
11.018	65.3035
11.036	65.2794
11.054	65.2702
11.072	65.2805
11.09	65.307
11.108	65.3415
11.126	65.3745
11.144	65.4006
11.162	65.4188
11.18	65.4314
11.198	65.4418
11.216	65.4516
11.234	65.4607
11.252	65.4679
11.27	65.4713
11.288	65.4695
11.306	65.4616
11.324	65.4494
11.342	65.437
11.36	65.4304
11.378	65.4349
11.396	65.452
11.414	65.4778
11.432	65.5042
11.45	65.5225
11.468	65.5273
11.486	65.5195
11.504	65.5057
11.522	65.495
11.54	65.4943
11.558	65.505
11.576	65.5235
11.594	65.5441
11.612	65.5622
11.63	65.5758
11.648	65.5854
11.666	65.593
11.684	65.5999
11.702	65.606
11.72	65.6101
11.738	65.6112
11.756	65.6095
11.774	65.606
11.792	65.602
11.81	65.5977
11.828	65.5921
11.846	65.5831
11.864	65.5685
11.882	65.5477
11.9	65.5215
11.918	65.4928
11.936	65.4659
11.954	65.4462
11.972	65.4392
11.99	65.4485
12.008	65.4755
12.026	65.5177
12.044	65.5678
12.062	65.615
12.08	65.6475
12.098	65.6555
12.116	65.6349
12.134	65.5898
12.152	65.5316
12.17	65.4745
12.188	65.432
12.206	65.4128
12.224	65.4186
12.242	65.4453
12.26	65.4864
12.278	65.5332
12.296	65.5779
12.314	65.6138
12.332	65.6359
12.35	65.6412
12.368	65.6287
12.386	65.6001
12.404	65.5586
12.422	65.5088
12.44	65.4562
12.458	65.4059
12.476	65.3631
12.494	65.3322
12.512	65.3165
12.53	65.318
12.548	65.3368
12.566	65.3711
12.584	65.4173
12.602	65.47
12.62	65.523
12.638	65.5703
12.656	65.6082
12.674	65.6359
12.692	65.6549
12.71	65.6693
12.728	65.6834
12.746	65.7007
12.764	65.7225
12.782	65.7474
12.8	65.7722
12.818	65.793
12.836	65.8067
12.854	65.812
12.872	65.81
12.89	65.8037
12.908	65.7967
12.926	65.7923
12.944	65.792
12.962	65.7951
12.98	65.7991
12.998	65.8006
13.016	65.7964
13.034	65.784
13.052	65.7626
13.07	65.733
13.088	65.6973
13.106	65.6588
13.124	65.6201
13.142	65.584
13.16	65.5525
13.178	65.5269
13.196	65.508
13.214	65.4962
13.232	65.4918
13.25	65.4948
13.268	65.5045
13.286	65.5197
13.304	65.5383
13.322	65.5575
13.34	65.5743
13.358	65.5861
13.376	65.5912
13.394	65.5896
13.412	65.5826
13.43	65.5733
13.448	65.5656
13.466	65.5635
13.484	65.5697
13.502	65.5852
13.52	65.6087
13.538	65.6372
13.556	65.6665
13.574	65.692
13.592	65.7106
13.61	65.7202
13.628	65.7209
13.646	65.7141
13.664	65.7025
13.682	65.6886
13.7	65.6751
13.718	65.6637
13.736	65.6555
13.754	65.6508
13.772	65.6491
13.79	65.6498
13.808	65.6519
13.826	65.6541
13.844	65.6554
13.862	65.6543
13.88	65.6499
13.898	65.6414
13.916	65.6285
13.934	65.6119
13.952	65.5929
13.97	65.5737
13.988	65.5567
14.006	65.5439
14.024	65.5366
14.042	65.5349
14.06	65.5379
14.078	65.5433
14.096	65.5487
14.114	65.5513
14.132	65.5491
14.15	65.5408
14.168	65.5262
14.186	65.5056
14.204	65.4803
14.222	65.4518
14.24	65.4215
14.258	65.3909
14.276	65.3608
14.294	65.3323
14.312	65.3062
14.33	65.2835
14.348	65.2655
14.366	65.2535
14.384	65.2489
14.402	65.2526
14.42	65.2653
14.438	65.2865
14.456	65.3156
14.474	65.3512
14.492	65.3914
14.51	65.4343
14.528	65.4782
14.546	65.5214
14.564	65.563
14.582	65.602
14.6	65.638
14.618	65.6708
14.636	65.6999
14.654	65.7251
14.672	65.7462
14.69	65.7631
14.708	65.7759
14.726	65.785
14.744	65.7907
14.762	65.7939
14.78	65.7952
14.798	65.795
14.816	65.7937
14.834	65.791
14.852	65.7864
14.87	65.7793
14.888	65.7692
14.906	65.7559
14.924	65.7396
14.942	65.7211
14.96	65.7019
14.978	65.6838
14.996	65.6683
15.014	65.6571
15.032	65.6513
15.05	65.6512
15.068	65.6568
15.086	65.6675
15.104	65.6824
15.122	65.7002
15.14	65.7197
15.158	65.7403
15.176	65.7614
15.194	65.7826
15.212	65.8037
15.23	65.8242
15.248	65.8437
15.266	65.8614
15.284	65.876
15.302	65.8862
15.32	65.8908
15.338	65.8886
15.356	65.8787
15.374	65.8615
15.392	65.8379
15.41	65.8092
15.428	65.7775
15.446	65.7454
15.464	65.7153
15.482	65.6892
15.5	65.6687
15.518	65.6547
15.536	65.6468
15.554	65.6442
15.572	65.6454
15.59	65.6481
15.608	65.6504
15.626	65.6504
15.644	65.6463
15.662	65.6369
15.68	65.6218
15.698	65.6009
15.716	65.5746
15.734	65.5439
15.752	65.5098
15.77	65.4733
15.788	65.4362
15.806	65.4
15.824	65.3661
15.842	65.3364
15.86	65.3128
15.878	65.2969
15.896	65.2902
15.914	65.2943
15.932	65.3102
15.95	65.3382
15.968	65.3785
15.986	65.4302
16.004	65.492
16.022	65.5624
16.04	65.6386
16.058	65.718
16.076	65.7984
16.094	65.8763
16.112	65.9493
16.13	66.0155
16.148	66.0731
16.166	66.1208
16.184	66.1584
16.202	66.1857
16.22	66.2036
16.238	66.213
16.256	66.2149
16.274	66.2112
16.292	66.2032
16.31	66.192
16.328	66.1792
16.346	66.1656
16.364	66.1518
16.382	66.1384
16.4	66.1253
16.418	66.1125
16.436	66.0995
16.454	66.086
16.472	66.0717
16.49	66.0561
16.508	66.0395
16.526	66.0219
16.544	66.0039
16.562	65.9864
16.58	65.9701
16.598	65.956
16.616	65.9449
16.634	65.9372
16.652	65.9334
16.67	65.9335
16.688	65.9377
16.706	65.9455
16.724	65.9568
16.742	65.9709
16.76	65.9874
16.778	66.0058
16.796	66.0254
16.814	66.0454
16.832	66.0652
16.85	66.0837
16.868	66.0998
16.886	66.1127
16.904	66.1209
16.922	66.1239
16.94	66.1213
16.958	66.1127
16.976	66.0983
16.994	66.0786
17.012	66.0542
17.03	66.0256
17.048	65.9939
17.066	65.9596
17.084	65.9234
17.102	65.8859
17.12	65.8472
17.138	65.8079
17.156	65.7683
17.174	65.7286
17.192	65.6898
17.21	65.6526
17.228	65.6182
17.246	65.5882
17.264	65.5633
17.282	65.5456
17.3	65.5357
17.318	65.535
17.336	65.5439
17.354	65.5628
17.372	65.5913
17.39	65.6286
17.408	65.6736
17.426	65.7242
17.444	65.7794
17.462	65.8357
17.48	65.8922
17.498	65.9458
17.516	65.9951
17.534	66.0384
17.552	66.0742
17.57	66.1021
17.588	66.1215
17.606	66.1325
17.624	66.1356
17.642	66.1316
17.66	66.121
17.678	66.1056
17.696	66.0858
17.714	66.0633
17.732	66.039
17.75	66.0137
17.768	65.9886
17.786	65.9639
17.804	65.9407
17.822	65.9192
17.84	65.9001
17.858	65.8835
17.876	65.8698
17.894	65.8595
17.912	65.8528
17.93	65.8501
17.948	65.8514
17.966	65.8575
17.984	65.8684
18.002	65.8843
18.02	65.9054
18.038	65.9316
18.056	65.9628
18.074	65.9989
18.092	66.039
18.11	66.0828
18.128	66.129
18.146	66.1771
18.164	66.2255
18.182	66.2733
18.2	66.3193
18.218	66.3622
18.236	66.4013
18.254	66.4353
18.272	66.4639
18.29	66.4864
18.308	66.5026
18.326	66.5126
18.344	66.5165
18.362	66.5152
18.38	66.5091
18.398	66.4994
18.416	66.4869
18.434	66.4726
18.452	66.4576
18.47	66.4425
18.488	66.4286
18.506	66.4162
18.524	66.4062
18.542	66.3988
18.56	66.3943
18.578	66.3927
18.596	66.3936
18.614	66.3971
18.632	66.4025
18.65	66.4096
18.668	66.4175
18.686	66.4261
18.704	66.4344
18.722	66.4424
18.74	66.4491
18.758	66.4546
18.776	66.4582
18.794	66.4602
18.812	66.46
18.83	66.4581
18.848	66.4542
18.866	66.4487
18.884	66.4417
18.902	66.4335
18.92	66.4242
18.938	66.4141
18.956	66.4035
18.974	66.3925
18.992	66.3816
19.01	66.3708
19.028	66.3605
19.046	66.3507
19.064	66.3417
19.082	66.3335
19.1	66.3263
19.118	66.32
19.136	66.3147
19.154	66.31
19.172	66.3055
19.19	66.3011
19.208	66.2959
19.226	66.2896
19.244	66.281
19.262	66.27
19.28	66.2553
19.298	66.237
19.316	66.2145
19.334	66.1877
19.352	66.1571
19.37	66.1226
19.388	66.0856
19.406	66.0461
19.424	66.0062
19.442	65.9659
19.46	65.9274
19.478	65.8909
19.496	65.8582
19.514	65.83
19.532	65.8067
19.55	65.789
19.568	65.7767
19.586	65.7702
19.604	65.7689
19.622	65.7724
19.64	65.7803
19.658	65.7914
19.676	65.8057
19.694	65.8214
19.712	65.8387
19.73	65.8559
19.748	65.8733
19.766	65.8895
19.784	65.9045
19.802	65.9178
19.82	65.9293
19.838	65.939
19.856	65.9467
19.874	65.9527
19.892	65.9576
19.91	65.9615
19.928	65.9656
19.946	65.9699
19.964	65.9759
19.982	65.9836
20	65.9942
20.018	66.0081
20.036	66.0256
20.054	66.0475
20.072	66.0736
20.09	66.1039
20.108	66.1384
20.126	66.1762
20.144	66.2173
20.162	66.2601
20.18	66.3043
20.198	66.3487
20.216	66.3915
20.234	66.4329
20.252	66.4701
20.27	66.5037
20.288	66.5319
20.306	66.5544
20.324	66.5709
20.342	66.5807
20.36	66.5842
20.378	66.5814
20.396	66.5724
20.414	66.5582
20.432	66.5385
20.45	66.515
20.468	66.4882
20.486	66.4586
20.504	66.4279
20.522	66.3956
20.54	66.3634
20.558	66.3311
20.576	66.2992
20.594	66.2679
20.612	66.2373
20.63	66.2074
20.648	66.1782
20.666	66.1494
20.684	66.121
20.702	66.0926
20.72	66.064
20.738	66.0353
20.756	66.0061
20.774	65.9763
20.792	65.9464
20.81	65.9164
20.828	65.8865
20.846	65.8572
20.864	65.8286
20.882	65.8016
20.9	65.7761
20.918	65.7526
20.936	65.7317
20.954	65.7131
20.972	65.6971
20.99	65.6837
21.008	65.6722
21.026	65.6628
21.044	65.6549
21.062	65.6474
21.08	65.6405
21.098	65.6327
21.116	65.6236
21.134	65.6128
21.152	65.5988
21.17	65.582
21.188	65.5614
21.206	65.5366
21.224	65.5079
21.242	65.4753
21.26	65.4386
21.278	65.3991
21.296	65.3565
21.314	65.3119
21.332	65.2673
21.35	65.2218
21.368	65.1783
21.386	65.137
21.404	65.0988
21.422	65.0664
21.44	65.039
21.458	65.0185
21.476	65.0059
21.494	65.0008
21.512	65.0047
21.53	65.0175
21.548	65.0392
21.566	65.0701
21.584	65.11
21.602	65.1582
21.62	65.2151
21.638	65.2797
21.656	65.3508
21.674	65.4288
21.692	65.5117
21.71	65.5991
21.728	65.6908
21.746	65.7846
21.764	65.8813
21.782	65.9792
21.8	66.077
21.818	66.1752
21.836	66.2719
21.854	66.3671
21.872	66.4602
21.89	66.5493
21.908	66.6353
21.926	66.7164
21.944	66.7914
21.962	66.8608
21.98	66.9226
21.998	66.9768
22.016	67.023
22.034	67.06
22.052	67.0881
22.07	67.1069
22.088	67.1158
22.106	67.1152
22.124	67.1054
22.142	67.0859
22.16	67.0575
22.178	67.0216
22.196	66.9773
22.214	66.9266
22.232	66.8716
22.25	66.8109
22.268	66.748
22.286	66.6843
22.304	66.619
22.322	66.5565
22.34	66.4969
22.358	66.4407
22.376	66.3912
22.394	66.3479
22.412	66.3116
22.43	66.2843
22.448	66.2654
22.466	66.2553
22.484	66.2548
22.502	66.2637
22.52	66.2813
22.538	66.3079
22.556	66.3431
22.574	66.3851
22.592	66.4342
22.61	66.4896
22.628	66.5483
22.646	66.6113
22.664	66.6769
22.682	66.7424
22.7	66.8089
22.718	66.8744
22.736	66.9364
22.754	66.9964
22.772	67.0518
22.79	67.1008
22.808	67.1444
22.826	67.1806
22.844	67.2081
22.862	67.2276
22.88	67.238
22.898	67.2386
22.916	67.2297
22.934	67.2114
22.952	67.1836
22.97	67.1464
22.988	67.1003
23.006	67.0449
23.024	66.9807
23.042	66.9096
23.06	66.8312
23.078	66.7462
23.096	66.6573
23.114	66.5639
23.132	66.4668
23.15	66.3705
23.168	66.274
23.186	66.1783
23.204	66.0883
23.222	66.0029
23.24	65.9234
23.258	65.8546
23.276	65.7959
23.294	65.7478
23.312	65.7149
23.33	65.6968
23.348	65.6935
23.366	65.7076
23.384	65.7392
23.402	65.788
23.42	65.855
23.438	65.9414
23.456	66.0457
23.474	66.1652
23.492	66.3012
23.51	66.4524
23.528	66.6125
23.546	66.7814
23.564	66.9596
23.582	67.1381
23.6	67.3146
23.618	67.4917
23.636	67.6603
23.654	67.8164
23.672	67.9642
23.69	68.0948
23.708	68.2025
23.726	68.2921
23.744	68.3571
23.762	68.3915
23.78	68.3987
23.798	68.3766
23.816	68.3223
23.834	68.2359
23.852	68.1192
23.87	67.9743
23.888	67.7986
23.906	67.5954
23.924	67.3712
23.942	67.124
23.96	66.8551
23.978	66.5736
23.996	66.2814
24.014	65.9755
24.032	65.6662
24.05	65.3594
24.068	65.0496
24.086	64.7446
24.104	64.4517
24.122	64.1666
24.14	63.8926
24.158	63.6358
24.176	63.3952
24.194	63.1703
24.212	62.9626
24.23	62.7736
24.248	62.602
24.266	62.445
24.284	62.3019
24.302	62.1745
24.32	62.0575
24.338	61.9461
24.356	61.8441
24.374	61.7475
24.392	61.6497
24.41	61.552
24.428	61.4544
24.446	61.352
24.464	61.2428
24.482	61.1292
24.5	61.0077
24.518	60.8749
24.536	60.7318
24.554	60.5794
24.572	60.4185
24.59	60.2469
24.608	60.0665
24.626	59.8828
24.644	59.6965
24.662	59.5044
24.68	59.3154
24.698	59.1371
24.716	58.9646
24.734	58.8012
24.752	58.6535
24.77	58.5205
24.788	58.401
24.806	58.3029
24.824	58.2314
24.842	58.1811
24.86	58.1573
24.878	58.1668
24.896	58.2071
24.914	58.2787
24.932	58.3869
24.95	58.5353
24.968	58.721
24.986	58.9443
25.004	59.2058
25.022	59.5057
25.04	59.8432
25.058	60.2176
25.076	60.6291
25.094	61.0783
25.112	61.562
25.13	62.0773
25.148	62.6261
25.166	63.2069
25.184	63.8162
25.202	64.4525
25.22	65.1181
25.238	65.8093
25.256	66.5227
25.274	67.2613
25.292	68.0229
25.31	68.8016
25.328	69.595
25.346	70.408
25.364	71.2329
25.382	72.0614
25.4	72.8976
25.418	73.7409
25.436	74.5798
25.454	75.4064
25.472	76.2308
25.49	77.0434
25.508	77.8309
25.526	78.5921
25.544	79.3332
25.562	80.0425
25.58	80.7088
25.598	81.3391
25.616	81.9311
25.634	82.4754
25.652	82.966
25.67	83.4091
25.688	83.8017
25.706	84.1396
25.724	84.4215
25.742	84.6499
25.76	84.825
25.778	84.9471
25.796	85.015
25.814	85.0304
25.832	84.9967
25.85	84.9156
25.868	84.7845
25.886	84.6066
25.904	84.3865
25.922	84.1229
25.94	83.8137
25.958	83.4677
25.976	83.0935
25.994	82.6876
26.012	82.2497
26.03	81.7877
26.048	81.3082
26.066	80.8049
26.084	80.2815
26.102	79.7455
26.12	79.2023
26.138	78.6483
26.156	78.0831
26.174	77.5073
26.192	76.9203
26.21	76.3213
26.228	75.7135
26.246	75.1003
26.264	74.4853
26.282	73.866
26.3	73.2366
26.318	72.5914
26.336	71.9389
26.354	71.2753
26.372	70.5855
26.39	69.856
26.408	69.1018
26.426	68.3155
26.444	67.4775
26.462	66.572
26.48	65.6183
26.498	64.6053
26.516	63.5119
26.534	62.3222
26.552	61.0511
26.57	59.6946
26.588	58.2436
26.606	56.6909
26.624	55.0399
26.642	53.2956
26.66	51.4631
26.678	49.5393
26.696	47.5117
26.714	45.406
26.732	43.2512
26.75	41.0538
26.768	38.7813
26.786	36.4773
26.804	34.1911
26.822	31.9378
26.84	29.6697
26.858	27.4395
26.876	25.307
26.894	23.2948
26.912	21.3487
26.93	19.5175
26.948	17.8577
26.966	16.3856
26.984	15.0371
27.002	13.8837
27.02	13.0074
27.028	12.7582