File: Bakgrunnsmateriale/MATLAB/FTIR/ftir_data/subCa/Mapping_25/BZ12041010-4_t20_cm-1.asc
PE IR       SPECTRUM    SPECTRUM    ASCII       PEDS        1.60
  -1
BZACF4~1.ASC
17/04/10
10:32:24.00
17/04/10
10:32:24.00
tln
$BZ12041010-4_t0020$<tbV0>[-5.2,-4.6,9.0,0.0,22,1,0]
370
64

2002,4.07
MIRTGS : RIGHTBACK : INTERNAL 2
MIR : ON : INTERNAL 2
OPTKBR

0.200000
8
8.000000
FILLER
RATIO
SPECTRUM
UNLOCKED 256

DOUBLE
64
COMBINED
1
0
0

1.000000
RATIO

1
0
TRUE
51149
0
LEFT NOT FITTED RIGHT NOT FITTED 0
NONE
NONE
15600
12
4.427000
51148
TRUE
1 0 8 72 0 0 0 0

15798

#HDR
-1
-1
#GR
CM-1
%T
2.38419e-05
0.0
5000
-1.000000
4631
8
99.7819
-7.064604
#DATA
5000	65.0423
4996	64.6818
4992	64.6652
4988	64.6927
4984	64.4214
4980	64.2084
4976	64.2962
4972	64.6219
4968	64.707
4964	64.3148
4960	64.074
4956	64.429
4952	64.883
4948	64.7842
4944	64.3479
4940	64.0544
4936	64.068
4932	64.2954
4928	64.5217
4924	64.7855
4920	64.9177
4916	64.8077
4912	64.7884
4908	64.9431
4904	65.1112
4900	65.0618
4896	64.8072
4892	64.8053
4888	65.0573
4884	65.4003
4880	65.9494
4876	66.432
4872	66.1662
4868	65.0454
4864	64.3229
4860	65.154
4856	66.6222
4852	66.6102
4848	65.649
4844	65.1896
4840	64.7511
4836	64.7118
4832	65.4165
4828	66.2548
4824	66.7886
4820	66.391
4816	65.0087
4812	64.2053
4808	65.2762
4804	65.9431
4800	64.6509
4796	63.6029
4792	64.1232
4788	65.4048
4784	66.2325
4780	66.3383
4776	65.9657
4772	65.6869
4768	66.0332
4764	66.1788
4760	66.0147
4756	66.2567
4752	66.2185
4748	65.7246
4744	65.5282
4740	65.6814
4736	65.8384
4732	65.828
4728	65.8247
4724	65.8903
4720	65.7855
4716	65.5323
4712	65.3866
4708	65.313
4704	65.392
4700	65.6426
4696	65.7445
4692	65.5906
4688	65.4487
4684	65.4835
4680	65.4591
4676	65.4237
4672	65.4166
4668	65.2033
4664	64.9
4660	64.7083
4656	64.6274
4652	64.7914
4648	65.106
4644	65.1204
4640	64.799
4636	64.4334
4632	64.357
4628	64.6214
4624	64.8943
4620	64.9955
4616	64.8809
4612	64.7829
4608	64.8349
4604	64.8193
4600	64.7744
4596	64.6955
4592	64.5705
4588	64.4166
4584	64.2745
4580	64.2913
4576	64.2594
4572	64.0131
4568	63.8157
4564	63.8295
4560	63.9171
4556	63.8728
4552	63.6366
4548	63.569
4544	63.9111
4540	64.2343
4536	64.2466
4532	64.0983
4528	64.0153
4524	64.2329
4520	64.4801
4516	64.5454
4512	64.5245
4508	64.5126
4504	64.4167
4500	64.191
4496	64.0768
4492	63.5628
4488	62.5822
4484	62.356
4480	61.9696
4476	61.5315
4472	66.7811
4468	81.6885
4464	96.9388
4460	98.3868
4456	86.6941
4452	72.8926
4448	65.1402
4444	63.8863
4440	64.4613
4436	64.5073
4432	63.961
4428	63.2472
4424	63.0746
4420	63.3416
4416	63.3655
4412	63.5634
4408	64.0611
4404	64.079
4400	63.9141
4396	64.0735
4392	64.2186
4388	64.0677
4384	63.8114
4380	63.7333
4376	63.7819
4372	63.9718
4368	64.2802
4364	64.2748
4360	64.0584
4356	64.1537
4352	64.5351
4348	64.6064
4344	64.4128
4340	64.5777
4336	64.8032
4332	64.6241
4328	64.3746
4324	64.3999
4320	64.5182
4316	64.5579
4312	64.5279
4308	64.4567
4304	64.4897
4300	64.674
4296	64.7895
4292	64.6957
4288	64.6081
4284	64.661
4280	64.8232
4276	64.9894
4272	65.1022
4268	65.254
4264	65.3571
4260	65.3379
4256	65.2017
4252	65.0251
4248	64.9775
4244	64.9599
4240	64.932
4236	65.1019
4232	65.3415
4228	65.3445
4224	65.2633
4220	65.2738
4216	65.346
4212	65.5124
4208	65.5089
4204	65.2861
4200	65.2881
4196	65.3927
4192	65.2469
4188	65.0814
4184	65.1893
4180	65.4048
4176	65.5103
4172	65.5434
4168	65.5629
4164	65.6187
4160	65.6137
4156	65.5024
4152	65.5583
4148	65.7541
4144	65.8153
4140	65.7657
4136	65.6834
4132	65.6421
4128	65.6174
4124	65.5882
4120	65.5666
4116	65.5446
4112	65.6522
4108	65.8206
4104	65.8556
4100	65.728
4096	65.543
4092	65.3412
4088	65.2027
4084	65.2852
4080	65.3898
4076	65.4602
4072	65.6288
4068	65.6013
4064	65.4147
4060	65.3716
4056	65.3881
4052	65.4005
4048	65.3261
4044	65.2022
4040	65.2438
4036	65.3679
4032	65.3708
4028	65.217
4024	65.0814
4020	65.1851
4016	65.4364
4012	65.4054
4008	65.1066
4004	65.0388
4000	65.1869
3996	65.1713
3992	65.1217
3988	65.2987
3984	65.448
3980	65.3192
3976	65.1058
3972	65.1602
3968	65.3611
3964	65.3049
3960	65.0688
3956	65.0116
3952	65.1022
3948	65.0449
3944	64.8747
3940	64.8716
3936	65.0469
3932	65.1477
3928	65.1267
3924	65.1248
3920	65.087
3916	65.0226
3912	65.1299
3908	65.319
3904	65.4078
3900	65.3391
3896	65.1751
3892	65.0853
3888	65.0969
3884	65.1426
3880	65.1409
3876	65.1642
3872	65.2824
3868	65.2896
3864	65.1495
3860	65.1138
3856	65.2722
3852	65.4288
3848	65.3791
3844	65.1459
3840	64.9753
3836	64.9926
3832	65.0521
3828	65.0935
3824	65.1469
3820	65.2036
3816	65.1984
3812	65.1824
3808	65.2534
3804	65.2383
3800	65.1267
3796	65.1205
3792	65.1523
3788	65.1651
3784	65.2016
3780	65.2199
3776	65.2466
3772	65.2997
3768	65.3822
3764	65.5073
3760	65.5034
3756	65.3574
3752	65.3659
3748	65.4876
3744	65.5189
3740	65.493
3736	65.4585
3732	65.4581
3728	65.4624
3724	65.4671
3720	65.5272
3716	65.5886
3712	65.5479
3708	65.4472
3704	65.4042
3700	65.3265
3696	65.1841
3692	65.1861
3688	65.3221
3684	65.3685
3680	65.3177
3676	65.3064
3672	65.3437
3668	65.3643
3664	65.3532
3660	65.3446
3656	65.3653
3652	65.3459
3648	65.3187
3644	65.3833
3640	65.4633
3636	65.4938
3632	65.5004
3628	65.4582
3624	65.4054
3620	65.4072
3616	65.4124
3612	65.3663
3608	65.3445
3604	65.4374
3600	65.5538
3596	65.5859
3592	65.5251
3588	65.4015
3584	65.2949
3580	65.3034
3576	65.3719
3572	65.3837
3568	65.4061
3564	65.4005
3560	65.3024
3556	65.2495
3552	65.219
3548	65.1951
3544	65.2942
3540	65.3862
3536	65.3865
3532	65.3752
3528	65.2827
3524	65.1893
3520	65.2476
3516	65.2928
3512	65.2315
3508	65.1473
3504	65.1215
3500	65.1949
3496	65.2395
3492	65.213
3488	65.1759
3484	65.1795
3480	65.2341
3476	65.2048
3472	65.0867
3468	65.0186
3464	65.0758
3460	65.2141
3456	65.2871
3452	65.2696
3448	65.2784
3444	65.3297
3440	65.3647
3436	65.3166
3432	65.1855
3428	65.1121
3424	65.1022
3420	65.105
3416	65.1263
3412	65.1008
3408	65.114
3404	65.2011
3400	65.2481
3396	65.2597
3392	65.2211
3388	65.1513
3384	65.174
3380	65.2616
3376	65.2699
3372	65.2628
3368	65.3527
3364	65.3908
3360	65.2889
3356	65.2483
3352	65.3689
3348	65.5223
3344	65.5922
3340	65.5272
3336	65.3949
3332	65.3133
3328	65.2633
3324	65.1895
3320	65.1659
3316	65.2835
3312	65.4138
3308	65.4252
3304	65.3372
3300	65.2138
3296	65.2274
3292	65.3375
3288	65.3653
3284	65.3372
3280	65.2736
3276	65.1988
3272	65.2184
3268	65.3087
3264	65.3441
3260	65.3948
3256	65.4897
3252	65.5002
3248	65.4589
3244	65.3989
3240	65.3511
3236	65.3683
3232	65.3667
3228	65.3707
3224	65.3792
3220	65.3245
3216	65.2986
3212	65.2903
3208	65.2718
3204	65.2741
3200	65.3076
3196	65.3661
3192	65.3843
3188	65.36
3184	65.312
3180	65.2838
3176	65.3277
3172	65.396
3168	65.4167
3164	65.3846
3160	65.3437
3156	65.2917
3152	65.2349
3148	65.2946
3144	65.4079
3140	65.3913
3136	65.3225
3132	65.3203
3128	65.3226
3124	65.2744
3120	65.3075
3116	65.4206
3112	65.461
3108	65.4461
3104	65.3911
3100	65.3461
3096	65.3123
3092	65.2308
3088	65.2001
3084	65.1836
3080	65.1266
3076	65.163
3072	65.2261
3068	65.1846
3064	65.1801
3060	65.268
3056	65.2935
3052	65.2265
3048	65.1658
3044	65.221
3040	65.3321
3036	65.3265
3032	65.2992
3028	65.3332
3024	65.3231
3020	65.2826
3016	65.2622
3012	65.2411
3008	65.1947
3004	65.1767
3000	65.2472
2996	65.3336
2992	65.3614
2988	65.367
2984	65.3909
2980	65.4344
2976	65.4507
2972	65.4096
2968	65.3416
2964	65.2647
2960	65.2192
2956	65.1931
2952	65.1326
2948	65.1011
2944	65.1317
2940	65.1963
2936	65.2278
2932	65.1366
2928	65.0356
2924	65.0666
2920	65.1886
2916	65.3103
2912	65.3885
2908	65.4307
2904	65.3757
2900	65.2477
2896	65.2107
2892	65.243
2888	65.2533
2884	65.265
2880	65.2788
2876	65.2788
2872	65.3286
2868	65.3503
2864	65.2592
2860	65.1968
2856	65.2061
2852	65.2452
2848	65.3355
2844	65.401
2840	65.3951
2836	65.4062
2832	65.4299
2828	65.4212
2824	65.4328
2820	65.4529
2816	65.4285
2812	65.402
2808	65.3924
2804	65.3428
2800	65.2957
2796	65.3377
2792	65.4075
2788	65.4423
2784	65.4647
2780	65.455
2776	65.3544
2772	65.276
2768	65.3034
2764	65.3075
2760	65.2716
2756	65.2615
2752	65.2674
2748	65.2723
2744	65.2639
2740	65.2659
2736	65.3113
2732	65.3698
2728	65.3978
2724	65.4205
2720	65.4314
2716	65.3759
2712	65.2949
2708	65.234
2704	65.1941
2700	65.2077
2696	65.2708
2692	65.3258
2688	65.3365
2684	65.3298
2680	65.3289
2676	65.3623
2672	65.4254
2668	65.4206
2664	65.3486
2660	65.2986
2656	65.2575
2652	65.2366
2648	65.2675
2644	65.2966
2640	65.3256
2636	65.3275
2632	65.2924
2628	65.2761
2624	65.2612
2620	65.2767
2616	65.3279
2612	65.3705
2608	65.3808
2604	65.3454
2600	65.3205
2596	65.3287
2592	65.3497
2588	65.3573
2584	65.32
2580	65.2786
2576	65.3104
2572	65.3701
2568	65.3589
2564	65.3338
2560	65.319
2556	65.2665
2552	65.2445
2548	65.2811
2544	65.3071
2540	65.292
2536	65.2778
2532	65.3179
2528	65.3809
2524	65.3692
2520	65.343
2516	65.3815
2512	65.3797
2508	65.3366
2504	65.3515
2500	65.4016
2496	65.4062
2492	65.356
2488	65.3251
2484	65.3262
2480	65.3306
2476	65.3523
2472	65.3559
2468	65.3239
2464	65.2912
2460	65.2951
2456	65.3506
2452	65.377
2448	65.3612
2444	65.3652
2440	65.3863
2436	65.3981
2432	65.3798
2428	65.3591
2424	65.4085
2420	65.4812
2416	65.477
2412	65.47
2408	65.4922
2404	65.4322
2400	65.3591
2396	65.3777
2392	65.3973
2388	65.3623
2384	65.3141
2380	65.3189
2376	65.3715
2372	65.3981
2368	65.3626
2364	65.3073
2360	65.3296
2356	65.3849
2352	65.3768
2348	65.3498
2344	65.3643
2340	65.3594
2336	65.3389
2332	65.3866
2328	65.4256
2324	65.3908
2320	65.3296
2316	65.3086
2312	65.3583
2308	65.4011
2304	65.398
2300	65.3736
2296	65.3194
2292	65.2887
2288	65.2971
2284	65.2673
2280	65.222
2276	65.2213
2272	65.2724
2268	65.3159
2264	65.284
2260	65.2357
2256	65.2193
2252	65.2158
2248	65.2432
2244	65.2883
2240	65.31
2236	65.2784
2232	65.2584
2228	65.3178
2224	65.3348
2220	65.3207
2216	65.3435
2212	65.309
2208	65.2636
2204	65.2584
2200	65.2456
2196	65.2434
2192	65.2571
2188	65.2486
2184	65.196
2180	65.1593
2176	65.1995
2172	65.2735
2168	65.3163
2164	65.2823
2160	65.2441
2156	65.2559
2152	65.2674
2148	65.2709
2144	65.2638
2140	65.2453
2136	65.2269
2132	65.2225
2128	65.2625
2124	65.3253
2120	65.2889
2116	65.1913
2112	65.2136
2108	65.3143
2104	65.3176
2100	65.2293
2096	65.2138
2092	65.2679
2088	65.2809
2084	65.2686
2080	65.2799
2076	65.3112
2072	65.3243
2068	65.3193
2064	65.3229
2060	65.3237
2056	65.3288
2052	65.3392
2048	65.3067
2044	65.2309
2040	65.1956
2036	65.2525
2032	65.2961
2028	65.2958
2024	65.3561
2020	65.4109
2016	65.3639
2012	65.2877
2008	65.3079
2004	65.3699
2000	65.3544
1996	65.3073
1992	65.3116
1988	65.3877
1984	65.4261
1980	65.393
1976	65.3829
1972	65.3697
1968	65.3603
1964	65.3681
1960	65.3595
1956	65.3576
1952	65.3541
1948	65.31
1944	65.2591
1940	65.2743
1936	65.3154
1932	65.3046
1928	65.2599
1924	65.225
1920	65.2242
1916	65.2489
1912	65.2927
1908	65.3565
1904	65.3754
1900	65.3596
1896	65.3773
1892	65.399
1888	65.406
1884	65.3757
1880	65.3539
1876	65.3972
1872	65.4207
1868	65.3891
1864	65.3251
1860	65.27
1856	65.2527
1852	65.2505
1848	65.2663
1844	65.2678
1840	65.2387
1836	65.2338
1832	65.253
1828	65.2866
1824	65.3192
1820	65.3138
1816	65.3015
1812	65.2897
1808	65.2757
1804	65.2881
1800	65.2974
1796	65.2668
1792	65.2482
1788	65.2842
1784	65.299
1780	65.2715
1776	65.2961
1772	65.3593
1768	65.3593
1764	65.29
1760	65.2143
1756	65.1742
1752	65.16
1748	65.1317
1744	65.1014
1740	65.1042
1736	65.1225
1732	65.1285
1728	65.1279
1724	65.126
1720	65.1355
1716	65.1561
1712	65.1532
1708	65.1523
1704	65.1942
1700	65.231
1696	65.2102
1692	65.179
1688	65.1906
1684	65.2032
1680	65.1819
1676	65.2035
1672	65.2533
1668	65.2091
1664	65.115
1660	65.0796
1656	65.12
1652	65.1676
1648	65.1525
1644	65.1307
1640	65.1809
1636	65.2564
1632	65.223
1628	65.1308
1624	65.144
1620	65.2365
1616	65.2797
1612	65.235
1608	65.2067
1604	65.2091
1600	65.1984
1596	65.2278
1592	65.2572
1588	65.2431
1584	65.2445
1580	65.2608
1576	65.2531
1572	65.2542
1568	65.2744
1564	65.2845
1560	65.3479
1556	65.4056
1552	65.3198
1548	65.1571
1544	65.061
1540	65.0737
1536	65.1177
1532	65.1243
1528	65.1114
1524	65.1539
1520	65.2554
1516	65.3021
1512	65.2545
1508	65.1901
1504	65.1812
1500	65.232
1496	65.2835
1492	65.2768
1488	65.2763
1484	65.2764
1480	65.2603
1476	65.2996
1472	65.3051
1468	65.2624
1464	65.2578
1460	65.2454
1456	65.2222
1452	65.2038
1448	65.169
1444	65.1634
1440	65.2161
1436	65.2462
1432	65.2337
1428	65.2405
1424	65.2236
1420	65.1553
1416	65.0983
1412	65.0932
1408	65.1121
1404	65.1503
1400	65.2393
1396	65.2852
1392	65.2266
1388	65.1659
1384	65.1862
1380	65.2298
1376	65.2266
1372	65.1916
1368	65.2018
1364	65.2577
1360	65.221
1356	65.1252
1352	65.121
1348	65.1688
1344	65.1916
1340	65.193
1336	65.2035
1332	65.2452
1328	65.2426
1324	65.1759
1320	65.1371
1316	65.154
1312	65.1571
1308	65.1327
1304	65.1337
1300	65.1527
1296	65.1851
1292	65.1705
1288	65.0913
1284	65.0677
1280	65.1076
1276	65.1489
1272	65.1933
1268	65.2357
1264	65.2106
1260	65.1182
1256	65.0479
1252	65.0452
1248	65.104
1244	65.1436
1240	65.1429
1236	65.1278
1232	65.1091
1228	65.1196
1224	65.1282
1220	65.1285
1216	65.1326
1212	65.1105
1208	65.1085
1204	65.1447
1200	65.1137
1196	65.0568
1192	65.1152
1188	65.2319
1184	65.3032
1180	65.3162
1176	65.2839
1172	65.235
1168	65.1829
1164	65.1489
1160	65.1845
1156	65.1948
1152	65.1577
1148	65.1944
1144	65.226
1140	65.1617
1136	65.0765
1132	65.1102
1128	65.2278
1124	65.2252
1120	65.1195
1116	65.0996
1112	65.1608
1108	65.1776
1104	65.1649
1100	65.1184
1096	65.0986
1092	65.1977
1088	65.2342
1084	65.1083
1080	64.939
1076	64.8565
1072	64.9217
1068	65.0599
1064	65.1654
1060	65.2044
1056	65.2177
1052	65.1701
1048	65.0985
1044	65.1616
1040	65.2488
1036	65.2531
1032	65.2174
1028	65.1603
1024	65.1175
1020	65.0764
1016	65.0699
1012	65.1397
1008	65.1859
1004	65.1606
1000	65.1646
996	 65.2227
992	 65.2183
988	 65.1884
984	 65.2998
980	 65.46
976	 65.4553
972	 65.3518
968	 65.283
964	 65.2282
960	 65.2165
956	 65.2841
952	 65.4053
948	 65.4757
944	 65.4437
940	 65.3962
936	 65.302
932	 65.1824
928	 65.1674
924	 65.2197
920	 65.2276
916	 65.22
912	 65.2254
908	 65.2163
904	 65.2771
900	 65.3614
896	 65.4056
892	 65.4514
888	 65.3952
884	 65.3172
880	 65.3871
876	 65.4943
872	 65.5248
868	 65.5314
864	 65.5187
860	 65.4219
856	 65.3216
852	 65.3147
848	 65.4186
844	 65.4998
840	 65.4365
836	 65.4394
832	 65.5953
828	 65.6438
824	 65.5268
820	 65.4433
816	 65.4243
812	 65.4372
808	 65.4533
804	 65.4765
800	 65.4754
796	 65.3211
792	 65.2019
788	 65.3209
784	 65.4785
780	 65.597
776	 65.6847
772	 65.6696
768	 65.6815
764	 65.7344
760	 65.6756
756	 65.5707
752	 65.5499
748	 65.5823
744	 65.5624
740	 65.543
736	 65.5595
732	 65.5504
728	 65.5423
724	 65.5371
720	 65.5318
716	 65.5327
712	 65.4793
708	 65.3858
704	 65.3445
700	 65.4115
696	 65.4948
692	 65.4691
688	 65.4461
684	 65.4196
680	 65.2822
676	 65.2139
672	 65.2205
668	 65.2762
664	 65.4268
660	 65.5004
656	 65.5189
652	 65.5061
648	 65.409
644	 65.2853
640	 65.286
636	 65.4342
632	 65.4725
628	 65.4684
624	 65.6188
620	 65.741
616	 65.7503
612	 65.7738
608	 65.8401
604	 65.9817
600	 66.0365
596	 65.8379
592	 65.728
588	 65.7063
584	 65.4091
580	 65.1438
576	 65.2347
572	 65.3496
568	 65.2928
564	 65.3841
560	 65.6223
556	 65.592
552	 65.4851
548	 65.7944
544	 66.1005
540	 65.9494
536	 65.7539
532	 65.8424
528	 65.8742
524	 65.7299
520	 65.7528
516	 66.1136
512	 66.4476
508	 66.5394
504	 66.3403
500	 65.874
496	 65.5894
492	 65.748
488	 65.9279
484	 65.606
480	 65.1899
476	 65.2674
472	 65.656
468	 65.5752
464	 65.3742
460	 65.768
456	 66.2158
452	 67.1077
448	 67.999
444	 67.0236
440	 66.1691
436	 66.2462
432	 64.9241
428	 64.4249
424	 67.0622
420	 71.2435
416	 75.7027
412	 75.1152
408	 67.3258
404	 61.4419
400	 59.1066
396	 58.3556
392	 57.5643
388	 49.3535
384	 38.8878
380	 14.3104
376	 11.1271
372	 -7.064604
370	 16.0314