File: Bakgrunnsmateriale/MATLAB/FTIR/ftir_data/subCa/Mapping_25/BZ12041010-4_t09.asc
PE IR       SPECTRUM    SPECTRUM    ASCII       PEDS        1.60
  -1
BZ46B2~1.ASC
17/04/10
09:33:37.00
17/04/10
09:34:03.00
tln
$BZ12041010-4_t0009$<tbV0>[-2.6,-9.8,9.0,0.0,22,1,0]
27.028
64

2002,4.07
MIRTGS : RIGHTBACK : INTERNAL 2
MIR : ON : INTERNAL 2
OPTKBR

0.200000
8
8.000000
FILLER
RATIO
SPECTRUM
UNLOCKED 256

DOUBLE
64
COMBINED
1
0
0

0.002000
RATIO

1
0
TRUE
51149
0
LEFT NOT FITTED RIGHT NOT FITTED 0
NONE
NONE
15600
12
4.427000
51148
TRUE
1 0 8 72 0 0 0 0

15798

#HDR
-1
-1
#GR
µM
%T
2.38419e-05
0.0
2.000000
0.002000
12515
8
86.8975
25.92
#DATA
2.000000	 64.6502
2.018000	 65.289
2.036000	 65.2831
2.054000	 64.5016
2.072000	 64.5661
2.090000	 64.5509
2.108000	 64.9545
2.126000	 65.0999
2.144000	 65.0163
2.162000	 64.9869
2.180000	 64.5997
2.198000	 65.4663
2.216000	 66.0908
2.234000	 63.0813
2.252000	 65.128
2.270000	 65.6159
2.288000	 65.3132
2.306000	 65.1541
2.324000	 65.0704
2.342000	 64.8682
2.360000	 65.32
2.378000	 64.9166
2.396000	 65.2536
2.414000	 65.3633
2.432000	 65.3712
2.450000	 64.8303
2.468000	 65.2055
2.486000	 65.2597
2.504000	 65.1206
2.522000	 64.951
2.540000	 65.1014
2.558000	 65.0739
2.576000	 65.3756
2.594000	 65.5612
2.612000	 65.146
2.630000	 65.2394
2.648000	 65.1511
2.666000	 65.48
2.684000	 65.2616
2.702000	 65.2551
2.720000	 65.2879
2.738000	 65.2858
2.756000	 65.5336
2.774000	 65.254
2.792000	 65.2529
2.810000	 65.3188
2.828000	 65.0627
2.846000	 65.1568
2.864000	 65.3029
2.882000	 65.3644
2.900000	 65.1858
2.918000	 65.2729
2.936000	 65.2619
2.954000	 65.11
2.972000	 65.0832
2.990000	 65.2822
3.008000	 65.223
3.026000	 65.138
3.044000	 65.2991
3.062000	 65.2967
3.080000	 65.2954
3.098000	 65.069
3.116000	 65.21
3.134000	 65.3883
3.152000	 65.2146
3.170000	 65.2815
3.188000	 65.2271
3.206000	 65.2597
3.224000	 65.1668
3.242000	 65.1143
3.260000	 65.1484
3.278000	 65.1955
3.296000	 65.2223
3.314000	 65.2775
3.332000	 65.1302
3.350000	 65.1973
3.368000	 65.2633
3.386000	 65.234
3.404000	 65.1392
3.422000	 65.2478
3.440000	 65.2794
3.458000	 65.1378
3.476000	 65.1831
3.494000	 65.1834
3.512000	 65.0842
3.530000	 65.2148
3.548000	 65.1738
3.566000	 65.2014
3.584000	 65.2493
3.602000	 65.1278
3.620000	 65.1957
3.638000	 65.2473
3.656000	 65.3838
3.674000	 65.2195
3.692000	 65.0912
3.710000	 65.2545
3.728000	 65.2053
3.746000	 65.3526
3.764000	 65.3105
3.782000	 65.1951
3.800000	 65.3716
3.818000	 65.2725
3.836000	 65.1817
3.854000	 65.2581
3.872000	 65.2375
3.890000	 65.2796
3.908000	 65.3355
3.926000	 65.3088
3.944000	 65.3016
3.962000	 65.278
3.980000	 65.18
3.998000	 65.3225
4.016000	 65.3254
4.034000	 65.3048
4.052000	 65.2637
4.070000	 65.3478
4.088000	 65.1827
4.106000	 65.2495
4.124000	 65.2938
4.141999	 65.2607
4.160000	 65.2669
4.178000	 65.2419
4.196000	 65.1754
4.214000	 65.3325
4.232000	 65.2566
4.250000	 65.3044
4.268000	 65.2498
4.286000	 65.3114
4.304000	 65.3334
4.322000	 65.2873
4.340000	 65.2435
4.358000	 65.1972
4.375999	 65.2128
4.394000	 65.3762
4.412000	 65.1918
4.430000	 65.3249
4.448000	 65.2934
4.466000	 65.1321
4.484000	 65.2659
4.502000	 65.362
4.520000	 65.4532
4.538000	 65.1762
4.556000	 65.2175
4.574000	 65.1758
4.592000	 65.1645
4.609999	 65.2392
4.628000	 65.3137
4.646000	 65.275
4.664000	 65.2725
4.682000	 65.2834
4.700000	 65.2678
4.718000	 65.2609
4.736000	 65.2012
4.754000	 65.3827
4.772000	 65.3077
4.790000	 65.3452
4.808000	 65.3516
4.826000	 65.3472
4.843999	 65.4413
4.862000	 65.3825
4.880000	 65.2854
4.898000	 65.2348
4.916000	 65.3273
4.934000	 65.3792
4.952000	 65.3989
4.970000	 65.2587
4.988000	 65.2682
5.006000	 65.2588
5.024000	 65.1597
5.042000	 65.2639
5.060000	 65.3294
5.077999	 65.3558
5.096000	 65.3417
5.114000	 65.2403
5.132000	 65.1892
5.150000	 65.1876
5.168000	 65.1761
5.186000	 65.2321
5.204000	 65.3549
5.222000	 65.2601
5.240000	 65.2839
5.258000	 65.2903
5.276000	 65.2865
5.294000	 65.3246
5.312000	 65.3282
5.330000	 65.3095
5.348000	 65.3147
5.366000	 65.3412
5.384000	 65.2805
5.402000	 65.3279
5.420000	 65.3162
5.438000	 65.2319
5.456000	 65.2831
5.474000	 65.3536
5.492000	 65.3313
5.510000	 65.3027
5.528000	 65.2991
5.546000	 65.3369
5.564000	 65.3309
5.582000	 65.3267
5.600000	 65.3189
5.618000	 65.2522
5.636000	 65.4273
5.654000	 65.4945
5.672000	 65.4357
5.690000	 65.3446
5.708000	 65.2331
5.726000	 65.1915
5.744000	 65.3002
5.762000	 65.4144
5.780000	 65.2913
5.798000	 65.1926
5.816000	 65.3765
5.834000	 65.3621
5.852000	 65.2291
5.870000	 65.4426
5.888000	 65.7065
5.906000	 65.5337
5.923999	 65.518
5.942000	 65.6358
5.960000	 65.53
5.978000	 65.5859
5.996000	 65.4675
6.014000	 65.3801
6.032000	 65.4457
6.050000	 65.5382
6.068000	 65.3775
6.086000	 65.2721
6.104000	 65.276
6.122000	 65.2557
6.140000	 65.2267
6.158000	 65.2132
6.176000	 65.3251
6.194000	 65.3412
6.212000	 65.1882
6.230000	 65.2197
6.248000	 65.2983
6.266000	 65.1925
6.284000	 65.1027
6.302000	 65.1476
6.320000	 65.204
6.338000	 65.2437
6.356000	 65.2618
6.374000	 65.2466
6.392000	 65.2888
6.410000	 65.4635
6.428000	 65.4788
6.446000	 65.3508
6.464000	 65.3707
6.482000	 65.5232
6.500000	 65.5217
6.518000	 65.38
6.536000	 65.2827
6.554000	 65.2971
6.572000	 65.4061
6.590000	 65.3666
6.608000	 65.3411
6.626000	 65.4712
6.644000	 65.4539
6.662000	 65.3229
6.680000	 65.2917
6.698000	 65.3322
6.716000	 65.3241
6.734000	 65.2257
6.752000	 65.1932
6.770000	 65.306
6.788000	 65.3824
6.806000	 65.3579
6.824000	 65.3443
6.842000	 65.3717
6.860000	 65.355
6.878000	 65.2449
6.896000	 65.1479
6.914000	 65.1215
6.932000	 65.1377
6.950000	 65.195
6.968000	 65.2619
6.986000	 65.3097
7.004000	 65.3265
7.022000	 65.3032
7.040000	 65.2396
7.058000	 65.1574
7.076000	 65.1333
7.094000	 65.1926
7.112000	 65.2117
7.130000	 65.1622
7.148000	 65.1764
7.166000	 65.2275
7.184000	 65.1876
7.202000	 65.0921
7.220000	 65.0362
7.238000	 65.0507
7.256000	 65.1085
7.274000	 65.1601
7.292000	 65.1854
7.310000	 65.1871
7.328000	 65.1691
7.346000	 65.1454
7.364000	 65.1427
7.382000	 65.1803
7.400000	 65.2161
7.418000	 65.1908
7.436000	 65.1545
7.454000	 65.1842
7.472000	 65.2247
7.490000	 65.194
7.508000	 65.1347
7.526000	 65.1299
7.544000	 65.1828
7.562000	 65.2342
7.580000	 65.2409
7.598000	 65.2092
7.616000	 65.1662
7.634000	 65.1257
7.652000	 65.0938
7.670000	 65.0799
7.688000	 65.0898
7.706000	 65.1196
7.724000	 65.1539
7.742000	 65.1732
7.760000	 65.1708
7.778000	 65.1554
7.796000	 65.139
7.814000	 65.128
7.832000	 65.1239
7.850000	 65.1231
7.868000	 65.1237
7.886000	 65.1293
7.904000	 65.1332
7.922000	 65.1242
7.940000	 65.1112
7.958000	 65.108
7.976000	 65.1102
7.994000	 65.1185
8.012000	 65.1463
8.030000	 65.1791
8.048000	 65.1825
8.065999	 65.1576
8.084000	 65.1371
8.102000	 65.1326
8.120000	 65.1272
8.138000	 65.1149
8.155999	 65.1108
8.173999	 65.1261
8.192000	 65.1516
8.210000	 65.1692
8.228000	 65.174
8.246000	 65.1808
8.263999	 65.2072
8.282000	 65.2521
8.300000	 65.2889
8.318000	 65.2933
8.336000	 65.2723
8.353999	 65.2477
8.372000	 65.2188
8.390000	 65.1674
8.408000	 65.0983
8.426000	 65.0409
8.443999	 65.0112
8.462000	 64.9995
8.480000	 65.003
8.498000	 65.0379
8.516000	 65.1108
8.533999	 65.1949
8.552000	 65.2509
8.570000	 65.2614
8.588000	 65.2382
8.606000	 65.1977
8.624000	 65.1493
8.641999	 65.1041
8.660000	 65.0774
8.678000	 65.0745
8.696000	 65.0849
8.714000	 65.097
8.731999	 65.1097
8.750000	 65.1255
8.768000	 65.144
8.786000	 65.1659
8.804000	 65.1917
8.821999	 65.2123
8.840000	 65.2146
8.858000	 65.1958
8.876000	 65.166
8.894000	 65.1339
8.911999	 65.1023
8.930000	 65.0802
8.948000	 65.0866
8.966000	 65.1263
8.984000	 65.1741
9.001999	 65.1943
9.020000	 65.1708
9.038000	 65.115
9.056000	 65.0491
9.074000	 64.9912
9.092000	 64.9554
9.109999	 64.9553
9.128000	 64.9962
9.146000	 65.0659
9.164000	 65.1393
9.182000	 65.1944
9.199999	 65.2226
9.218000	 65.2259
9.236000	 65.208
9.254000	 65.1719
9.272000	 65.1255
9.289999	 65.0828
9.308000	 65.0554
9.326000	 65.0438
9.344000	 65.0401
9.362000	 65.0388
9.379999	 65.0428
9.398000	 65.0594
9.416000	 65.0914
9.434000	 65.1346
9.452000	 65.1799
9.469999	 65.2158
9.488000	 65.2298
9.506000	 65.2114
9.524000	 65.1592
9.542000	 65.087
9.560000	 65.0213
9.577999	 64.9898
9.596000	 65.0066
9.614000	 65.0617
9.632000	 65.1249
9.650000	 65.1641
9.667999	 65.165
9.686000	 65.1377
9.704000	 65.1061
9.722000	 65.0875
9.740000	 65.0819
9.757999	 65.0763
9.776000	 65.0588
9.794000	 65.0281
9.812000	 64.9942
9.830000	 64.9727
9.847999	 64.9765
9.866000	 65.0098
9.884000	 65.0631
9.902000	 65.1178
9.920000	 65.156
9.937999	 65.172
9.956000	 65.1755
9.974000	 65.1819
9.992000	 65.1987
10.01	65.2205
10.028	65.2339
10.046	65.2311
10.064	65.2152
10.082	65.1956
10.1	65.1783
10.118	65.1612
10.136	65.1365
10.154	65.1
10.172	65.0557
10.19	65.0155
10.208	64.9919
10.226	64.9932
10.244	65.0208
10.262	65.07
10.28	65.1314
10.298	65.1934
10.316	65.2449
10.334	65.2773
10.352	65.2878
10.37	65.2814
10.388	65.2696
10.406	65.2655
10.424	65.2762
10.442	65.2993
10.46	65.3265
10.478	65.3492
10.496	65.3639
10.514	65.3702
10.532	65.367
10.55	65.3502
10.568	65.3158
10.586	65.2653
10.604	65.2094
10.622	65.1656
10.64	65.1505
10.658	65.1708
10.676	65.221
10.694	65.2874
10.712	65.3531
10.73	65.4054
10.748	65.4378
10.766	65.4504
10.784	65.4478
10.802	65.4363
10.82	65.4203
10.838	65.4016
10.856	65.3799
10.874	65.3547
10.892	65.3275
10.91	65.3024
10.928	65.2856
10.946	65.282
10.964	65.293
10.982	65.3155
11	65.3422
11.018	65.3654
11.036	65.3793
11.054	65.3807
11.072	65.3687
11.09	65.3433
11.108	65.3049
11.126	65.2544
11.144	65.1948
11.162	65.1328
11.18	65.0773
11.198	65.0387
11.216	65.0251
11.234	65.0399
11.252	65.08
11.27	65.1381
11.288	65.2036
11.306	65.2667
11.324	65.3204
11.342	65.3614
11.36	65.3895
11.378	65.4062
11.396	65.4136
11.414	65.414
11.432	65.4103
11.45	65.4064
11.468	65.407
11.486	65.4163
11.504	65.437
11.522	65.4682
11.54	65.5062
11.558	65.5444
11.576	65.5752
11.594	65.5923
11.612	65.5913
11.63	65.5704
11.648	65.5309
11.666	65.4768
11.684	65.4145
11.702	65.3517
11.72	65.2972
11.738	65.2594
11.756	65.2441
11.774	65.2527
11.792	65.282
11.81	65.3246
11.828	65.3709
11.846	65.4112
11.864	65.4385
11.882	65.4498
11.9	65.4455
11.918	65.4277
11.936	65.399
11.954	65.361
11.972	65.3154
11.99	65.2646
12.008	65.2132
12.026	65.1678
12.044	65.1364
12.062	65.125
12.08	65.1352
12.098	65.1637
12.116	65.203
12.134	65.2445
12.152	65.2821
12.17	65.3134
12.188	65.3404
12.206	65.3678
12.224	65.4
12.242	65.4393
12.26	65.4837
12.278	65.5276
12.296	65.5635
12.314	65.5847
12.332	65.5878
12.35	65.5735
12.368	65.5468
12.386	65.5153
12.404	65.4873
12.422	65.4686
12.44	65.462
12.458	65.4661
12.476	65.4764
12.494	65.4871
12.512	65.4928
12.53	65.491
12.548	65.4822
12.566	65.4691
12.584	65.4553
12.602	65.4433
12.62	65.4338
12.638	65.4254
12.656	65.4157
12.674	65.4029
12.692	65.3874
12.71	65.3717
12.728	65.3608
12.746	65.3597
12.764	65.3726
12.782	65.4007
12.8	65.4419
12.818	65.4907
12.836	65.5404
12.854	65.5843
12.872	65.6174
12.89	65.6369
12.908	65.642
12.926	65.6337
12.944	65.6144
12.962	65.5873
12.98	65.5563
12.998	65.5258
13.016	65.5002
13.034	65.4834
13.052	65.4782
13.07	65.4851
13.088	65.503
13.106	65.528
13.124	65.5551
13.142	65.5785
13.16	65.5929
13.178	65.5947
13.196	65.5824
13.214	65.557
13.232	65.5212
13.25	65.4788
13.268	65.4343
13.286	65.3918
13.304	65.3544
13.322	65.3241
13.34	65.3021
13.358	65.2882
13.376	65.2815
13.394	65.2803
13.412	65.2827
13.43	65.2869
13.448	65.2914
13.466	65.2954
13.484	65.2986
13.502	65.3011
13.52	65.3032
13.538	65.305
13.556	65.3062
13.574	65.3059
13.592	65.3029
13.61	65.2959
13.628	65.2844
13.646	65.2687
13.664	65.2508
13.682	65.2335
13.7	65.2204
13.718	65.2151
13.736	65.22
13.754	65.2359
13.772	65.2618
13.79	65.2946
13.808	65.3303
13.826	65.3646
13.844	65.394
13.862	65.416
13.88	65.4299
13.898	65.4366
13.916	65.4386
13.934	65.4385
13.952	65.4386
13.97	65.4408
13.988	65.4454
14.006	65.4517
14.024	65.4579
14.042	65.4619
14.06	65.4616
14.078	65.4556
14.096	65.4435
14.114	65.4256
14.132	65.403
14.15	65.3775
14.168	65.3512
14.186	65.3261
14.204	65.3041
14.222	65.2865
14.24	65.2742
14.258	65.2678
14.276	65.2676
14.294	65.2734
14.312	65.2852
14.33	65.3026
14.348	65.325
14.366	65.3516
14.384	65.3813
14.402	65.4128
14.42	65.4443
14.438	65.4744
14.456	65.5014
14.474	65.524
14.492	65.5413
14.51	65.553
14.528	65.5593
14.546	65.5613
14.564	65.5602
14.582	65.5575
14.6	65.5548
14.618	65.553
14.636	65.5523
14.654	65.5519
14.672	65.55
14.69	65.5448
14.708	65.5343
14.726	65.517
14.744	65.4922
14.762	65.4606
14.78	65.4242
14.798	65.3855
14.816	65.3477
14.834	65.3143
14.852	65.2882
14.87	65.2713
14.888	65.2646
14.906	65.268
14.924	65.2808
14.942	65.3012
14.96	65.3272
14.978	65.3573
14.996	65.3898
15.014	65.4236
15.032	65.4572
15.05	65.4897
15.068	65.52
15.086	65.5472
15.104	65.5699
15.122	65.5869
15.14	65.5972
15.158	65.6006
15.176	65.5975
15.194	65.5891
15.212	65.5777
15.23	65.5659
15.248	65.5564
15.266	65.5517
15.284	65.5545
15.302	65.5656
15.32	65.5845
15.338	65.6101
15.356	65.6399
15.374	65.6704
15.392	65.6987
15.41	65.7219
15.428	65.7376
15.446	65.7444
15.464	65.7429
15.482	65.7337
15.5	65.7188
15.518	65.7005
15.536	65.6807
15.554	65.6611
15.572	65.6431
15.59	65.627
15.608	65.6124
15.626	65.5988
15.644	65.5849
15.662	65.5696
15.68	65.5522
15.698	65.5321
15.716	65.5091
15.734	65.4835
15.752	65.4555
15.77	65.4257
15.788	65.3947
15.806	65.363
15.824	65.3313
15.842	65.3001
15.86	65.2699
15.878	65.2413
15.896	65.2152
15.914	65.1926
15.932	65.1748
15.95	65.163
15.968	65.1583
15.986	65.1616
16.004	65.173
16.022	65.1928
16.04	65.2198
16.058	65.2526
16.076	65.2899
16.094	65.3291
16.112	65.3681
16.13	65.4055
16.148	65.4396
16.166	65.4695
16.184	65.4956
16.202	65.5181
16.22	65.5385
16.238	65.558
16.256	65.578
16.274	65.5997
16.292	65.6235
16.31	65.6494
16.328	65.6763
16.346	65.7026
16.364	65.727
16.382	65.7467
16.4	65.7602
16.418	65.7662
16.436	65.7636
16.454	65.7529
16.472	65.7346
16.49	65.7103
16.508	65.6821
16.526	65.6514
16.544	65.6212
16.562	65.5932
16.58	65.5689
16.598	65.55
16.616	65.537
16.634	65.5304
16.652	65.5303
16.67	65.5366
16.688	65.5492
16.706	65.5673
16.724	65.5906
16.742	65.6184
16.76	65.6497
16.778	65.684
16.796	65.7201
16.814	65.7566
16.832	65.7924
16.85	65.8258
16.868	65.8554
16.886	65.8801
16.904	65.8984
16.922	65.9101
16.94	65.9145
16.958	65.9122
16.976	65.9035
16.994	65.8898
17.012	65.8723
17.03	65.8518
17.048	65.8302
17.066	65.808
17.084	65.7859
17.102	65.7642
17.12	65.7429
17.138	65.7217
17.156	65.7006
17.174	65.6794
17.192	65.6584
17.21	65.6379
17.228	65.6187
17.246	65.6022
17.264	65.5891
17.282	65.5818
17.3	65.5808
17.318	65.5877
17.336	65.6028
17.354	65.6265
17.372	65.6581
17.39	65.6967
17.408	65.7406
17.426	65.7876
17.444	65.8362
17.462	65.883
17.48	65.927
17.498	65.9651
17.516	65.9967
17.534	66.0205
17.552	66.0367
17.57	66.0453
17.588	66.0475
17.606	66.0446
17.624	66.0378
17.642	66.0292
17.66	66.0197
17.678	66.0112
17.696	66.0041
17.714	65.9994
17.732	65.9971
17.75	65.9976
17.768	66.0004
17.786	66.0052
17.804	66.0112
17.822	66.0182
17.84	66.0253
17.858	66.0324
17.876	66.039
17.894	66.0451
17.912	66.0504
17.93	66.0553
17.948	66.0597
17.966	66.0636
17.984	66.0671
18.002	66.07
18.02	66.0721
18.038	66.0733
18.056	66.0731
18.074	66.0713
18.092	66.0673
18.11	66.0609
18.128	66.0516
18.146	66.0393
18.164	66.0238
18.182	66.0054
18.2	65.9842
18.218	65.9611
18.236	65.9363
18.254	65.9114
18.272	65.8867
18.29	65.8643
18.308	65.8442
18.326	65.8285
18.344	65.8174
18.362	65.8125
18.38	65.8138
18.398	65.822
18.416	65.837
18.434	65.859
18.452	65.8868
18.47	65.9202
18.488	65.9573
18.506	65.9977
18.524	66.0386
18.542	66.0797
18.56	66.1177
18.578	66.1523
18.596	66.1806
18.614	66.2025
18.632	66.2154
18.65	66.2195
18.668	66.2139
18.686	66.1989
18.704	66.1748
18.722	66.1425
18.74	66.104
18.758	66.0602
18.776	66.0143
18.794	65.9673
18.812	65.9231
18.83	65.8827
18.848	65.8496
18.866	65.8243
18.884	65.8096
18.902	65.8053
18.92	65.8126
18.938	65.8306
18.956	65.8587
18.974	65.8953
18.992	65.9384
19.01	65.9861
19.028	66.0354
19.046	66.0846
19.064	66.1303
19.082	66.1714
19.1	66.2048
19.118	66.2305
19.136	66.2465
19.154	66.2532
19.172	66.2501
19.19	66.2381
19.208	66.2182
19.226	66.1913
19.244	66.1596
19.262	66.1237
19.28	66.087
19.298	66.0493
19.316	66.0142
19.334	65.9814
19.352	65.9536
19.37	65.9305
19.388	65.9138
19.406	65.9035
19.424	65.8998
19.442	65.9027
19.46	65.9115
19.478	65.9262
19.496	65.9452
19.514	65.9685
19.532	65.9946
19.55	66.0228
19.568	66.0522
19.586	66.0819
19.604	66.1117
19.622	66.1407
19.64	66.169
19.658	66.1961
19.676	66.2223
19.694	66.2473
19.712	66.2714
19.73	66.2946
19.748	66.3171
19.766	66.3388
19.784	66.3599
19.802	66.38
19.82	66.3993
19.838	66.4171
19.856	66.4328
19.874	66.4465
19.892	66.4569
19.91	66.4642
19.928	66.4675
19.946	66.4667
19.964	66.4617
19.982	66.452
20	66.4385
20.018	66.421
20.036	66.4004
20.054	66.3776
20.072	66.3528
20.09	66.3284
20.108	66.304
20.126	66.2822
20.144	66.263
20.162	66.2483
20.18	66.2387
20.198	66.2347
20.216	66.2374
20.234	66.2467
20.252	66.2628
20.27	66.2857
20.288	66.3142
20.306	66.3487
20.324	66.3873
20.342	66.4293
20.36	66.4741
20.378	66.5198
20.396	66.5665
20.414	66.6122
20.432	66.6568
20.45	66.6993
20.468	66.7391
20.486	66.7763
20.504	66.81
20.522	66.8406
20.54	66.8679
20.558	66.8918
20.576	66.9125
20.594	66.9301
20.612	66.9446
20.63	66.9562
20.648	66.9649
20.666	66.9706
20.684	66.9735
20.702	66.9732
20.72	66.9697
20.738	66.963
20.756	66.9525
20.774	66.9383
20.792	66.9201
20.81	66.8979
20.828	66.8716
20.846	66.8412
20.864	66.8067
20.882	66.7685
20.9	66.7266
20.918	66.6816
20.936	66.6339
20.954	66.5837
20.972	66.5323
20.99	66.4792
21.008	66.4261
21.026	66.3731
21.044	66.3206
21.062	66.2702
21.08	66.2213
21.098	66.1755
21.116	66.1328
21.134	66.0936
21.152	66.0589
21.17	66.0282
21.188	66.0024
21.206	65.9816
21.224	65.9656
21.242	65.9547
21.26	65.9488
21.278	65.9474
21.296	65.9507
21.314	65.9581
21.332	65.9686
21.35	65.9826
21.368	65.9984
21.386	66.0159
21.404	66.0344
21.422	66.0523
21.44	66.0702
21.458	66.0862
21.476	66.0994
21.494	66.1101
21.512	66.1167
21.53	66.1194
21.548	66.1179
21.566	66.1118
21.584	66.1013
21.602	66.0872
21.62	66.0691
21.638	66.0483
21.656	66.0262
21.674	66.0021
21.692	65.9789
21.71	65.9568
21.728	65.9363
21.746	65.9202
21.764	65.9077
21.782	65.9
21.8	65.8986
21.818	65.9028
21.836	65.9129
21.854	65.9295
21.872	65.9516
21.89	65.9781
21.908	66.0097
21.926	66.0441
21.944	66.0803
21.962	66.1186
21.98	66.1556
21.998	66.1915
22.016	66.2252
22.034	66.2537
22.052	66.2778
22.07	66.2962
22.088	66.3074
22.106	66.3119
22.124	66.3095
22.142	66.2996
22.16	66.283
22.178	66.2613
22.196	66.2335
22.214	66.2017
22.232	66.1684
22.25	66.1323
22.268	66.0966
22.286	66.0631
22.304	66.0309
22.322	66.0031
22.34	65.9802
22.358	65.9621
22.376	65.9506
22.394	65.9458
22.412	65.9472
22.43	65.9552
22.448	65.9702
22.466	65.9902
22.484	66.0145
22.502	66.0437
22.52	66.0744
22.538	66.1057
22.556	66.1381
22.574	66.1674
22.592	66.1934
22.61	66.2159
22.628	66.2315
22.646	66.2405
22.664	66.2424
22.682	66.2355
22.7	66.2197
22.718	66.1958
22.736	66.1637
22.754	66.123
22.772	66.0756
22.79	66.0228
22.808	65.9634
22.826	65.9009
22.844	65.8372
22.862	65.7709
22.88	65.7067
22.898	65.6465
22.916	65.5891
22.934	65.5387
22.952	65.497
22.97	65.4629
22.988	65.4389
23.006	65.4262
23.024	65.4236
23.042	65.4314
23.06	65.4499
23.078	65.4785
23.096	65.5158
23.114	65.5628
23.132	65.6181
23.15	65.6777
23.168	65.743
23.186	65.8123
23.204	65.8796
23.222	65.9461
23.24	66.0104
23.258	66.0662
23.276	66.1143
23.294	66.154
23.312	66.1806
23.33	66.194
23.348	66.1946
23.366	66.18
23.384	66.1499
23.402	66.1049
23.42	66.0449
23.438	65.9685
23.456	65.8773
23.474	65.7752
23.492	65.6612
23.51	65.5361
23.528	65.4065
23.546	65.2728
23.564	65.1341
23.582	64.9993
23.6	64.8706
23.618	64.7453
23.636	64.6322
23.654	64.5356
23.672	64.4517
23.69	64.3864
23.708	64.3443
23.726	64.3224
23.744	64.3225
23.762	64.3465
23.78	64.3941
23.798	64.4636
23.816	64.5538
23.834	64.6668
23.852	64.7989
23.87	64.9457
23.888	65.1104
23.906	65.2893
23.924	65.4738
23.942	65.6655
23.96	65.8639
23.978	66.0584
23.996	66.246
24.014	66.4305
24.032	66.604
24.05	66.7613
24.068	66.9066
24.086	67.0358
24.104	67.1445
24.122	67.2348
24.14	67.306
24.158	67.3563
24.176	67.3855
24.194	67.3945
24.212	67.3837
24.23	67.3523
24.248	67.3008
24.266	67.2325
24.284	67.149
24.302	67.0488
24.32	66.9342
24.338	66.8077
24.356	66.6678
24.374	66.5157
24.392	66.3538
24.41	66.1826
24.428	66.0012
24.446	65.8086
24.464	65.6053
24.482	65.3917
24.5	65.165
24.518	64.9229
24.536	64.6685
24.554	64.398
24.572	64.1061
24.59	63.7941
24.608	63.4621
24.626	63.107
24.644	62.7273
24.662	62.3246
24.68	61.8977
24.698	61.4449
24.716	60.9664
24.734	60.4632
24.752	59.9362
24.77	59.3839
24.788	58.8072
24.806	58.2109
24.824	57.5973
24.842	56.9619
24.86	56.3123
24.878	55.6575
24.896	54.9924
24.914	54.3196
24.932	53.651
24.95	52.9925
24.968	52.337
24.986	51.6925
25.004	51.0674
25.022	50.4555
25.04	49.8609
25.058	49.2945
25.076	48.7601
25.094	48.2506
25.112	47.7771
25.13	47.3505
25.148	46.9643
25.166	46.6212
25.184	46.3315
25.202	46.1003
25.22	45.9218
25.238	45.7993
25.256	45.7366
25.274	45.731
25.292	45.7834
25.31	45.8979
25.328	46.0768
25.346	46.3167
25.364	46.6205
25.382	46.9919
25.4	47.4312
25.418	47.9365
25.436	48.5075
25.454	49.1445
25.472	49.8497
25.49	50.6181
25.508	51.4436
25.526	52.3262
25.544	53.2683
25.562	54.262
25.58	55.3004
25.598	56.3897
25.616	57.5257
25.634	58.6978
25.652	59.901
25.67	61.1446
25.688	62.4167
25.706	63.7033
25.724	65.0072
25.742	66.3325
25.76	67.6621
25.778	68.9806
25.796	70.301
25.814	71.6165
25.832	72.9085
25.85	74.1662
25.868	75.4058
25.886	76.612
25.904	77.7648
25.922	78.86
25.94	79.9087
25.958	80.8987
25.976	81.8176
25.994	82.6703
26.012	83.4582
26.03	84.1721
26.048	84.8046
26.066	85.3649
26.084	85.8474
26.102	86.2412
26.12	86.5397
26.138	86.7526
26.156	86.873
26.174	86.892
26.192	86.8031
26.21	86.6108
26.228	86.322
26.246	85.9432
26.264	85.4721
26.282	84.907
26.3	84.2586
26.318	83.537
26.336	82.7345
26.354	81.8534
26.372	80.9079
26.39	79.9111
26.408	78.8537
26.426	77.7386
26.444	76.5774
26.462	75.3791
26.48	74.1327
26.498	72.8453
26.516	71.5304
26.534	70.1978
26.552	68.8389
26.57	67.4565
26.588	66.0561
26.606	64.6416
26.624	63.2088
26.642	61.7597
26.66	60.2975
26.678	58.8253
26.696	57.3434
26.714	55.8472
26.732	54.332
26.75	52.7947
26.768	51.2379
26.786	49.6625
26.804	48.0688
26.822	46.4597
26.84	44.8382
26.858	43.1952
26.876	41.5208
26.894	39.8121
26.912	38.0793
26.93	36.3113
26.948	34.4953
26.966	32.5261
26.984	30.2683
27.002	28.0863
27.02	26.3753
27.028	25.92