File: Bakgrunnsmateriale/MATLAB/FTIR/ftir_data/subCa/Mapping_25/BZ12041010-4_t17.asc
PE IR       SPECTRUM    SPECTRUM    ASCII       PEDS        1.60
  -1
BZ4ABA~1.ASC
17/04/10
10:18:33.00
17/04/10
10:18:59.00
tln
$BZ12041010-4_t0017$<tbV0>[2.6,-4.6,9.0,0.0,22,1,0]
27.028
64

2002,4.07
MIRTGS : RIGHTBACK : INTERNAL 2
MIR : ON : INTERNAL 2
OPTKBR

0.200000
8
8.000000
FILLER
RATIO
SPECTRUM
UNLOCKED 256

DOUBLE
64
COMBINED
1
0
0

0.002000
RATIO

1
0
TRUE
51149
0
LEFT NOT FITTED RIGHT NOT FITTED 0
NONE
NONE
15600
12
4.427000
51148
TRUE
1 0 8 72 0 0 0 0

15798

#HDR
-1
-1
#GR
µM
%T
2.38419e-05
0.0
2.000000
0.002000
12515
8
109.022
32.4323
#DATA
2.000000	 64.9986
2.018000	 64.7305
2.036000	 64.6953
2.054000	 64.8802
2.072000	 66.5695
2.090000	 65.6075
2.108000	 65.045
2.126000	 65.2334
2.144000	 64.7417
2.162000	 64.8332
2.180000	 64.1843
2.198000	 64.015
2.216000	 63.9544
2.234000	 63.8674
2.252000	 63.7346
2.270000	 63.625
2.288000	 63.7091
2.306000	 64.2182
2.324000	 64.8748
2.342000	 64.7975
2.360000	 65.3314
2.378000	 65.4076
2.396000	 65.6541
2.414000	 65.7191
2.432000	 65.6295
2.450000	 65.4833
2.468000	 65.4847
2.486000	 65.001
2.504000	 65.0247
2.522000	 64.8876
2.540000	 65.0767
2.558000	 65.1979
2.576000	 65.2099
2.594000	 65.2486
2.612000	 65.1382
2.630000	 65.3511
2.648000	 65.3172
2.666000	 65.357
2.684000	 65.3706
2.702000	 65.4536
2.720000	 65.5463
2.738000	 65.4433
2.756000	 65.4631
2.774000	 65.5625
2.792000	 65.4958
2.810000	 65.2495
2.828000	 65.2412
2.846000	 65.2119
2.864000	 65.2483
2.882000	 65.1067
2.900000	 65.2336
2.918000	 65.2805
2.936000	 65.3351
2.954000	 65.14
2.972000	 65.4943
2.990000	 65.2762
3.008000	 65.269
3.026000	 65.3057
3.044000	 65.5326
3.062000	 65.2281
3.080000	 65.2605
3.098000	 65.3404
3.116000	 65.3016
3.134000	 65.3606
3.152000	 65.3718
3.170000	 65.2263
3.188000	 65.3652
3.206000	 65.2185
3.224000	 65.2503
3.242000	 65.2927
3.260000	 65.2735
3.278000	 65.3357
3.296000	 65.2842
3.314000	 65.2057
3.332000	 65.2335
3.350000	 65.4153
3.368000	 65.2775
3.386000	 65.2304
3.404000	 65.1969
3.422000	 65.1827
3.440000	 65.4354
3.458000	 65.4091
3.476000	 65.3007
3.494000	 65.1443
3.512000	 65.3356
3.530000	 65.2445
3.548000	 65.4247
3.566000	 65.3489
3.584000	 65.3399
3.602000	 65.4611
3.620000	 65.3983
3.638000	 65.3687
3.656000	 65.284
3.674000	 65.4112
3.692000	 65.2518
3.710000	 65.3619
3.728000	 65.278
3.746000	 65.4506
3.764000	 65.2906
3.782000	 65.3434
3.800000	 65.2436
3.818000	 65.304
3.836000	 65.321
3.854000	 65.3128
3.872000	 65.2353
3.890000	 65.3479
3.908000	 65.2702
3.926000	 65.1926
3.944000	 65.2659
3.962000	 65.3471
3.980000	 65.409
3.998000	 65.3234
4.016000	 65.384
4.034000	 65.289
4.052000	 65.3194
4.070000	 65.3817
4.088000	 65.4044
4.106000	 65.359
4.124000	 65.3904
4.141999	 65.3469
4.160000	 65.4008
4.178000	 65.3199
4.196000	 65.2632
4.214000	 65.3197
4.232000	 65.3098
4.250000	 65.2684
4.268000	 65.3126
4.286000	 65.3284
4.304000	 65.3251
4.322000	 65.3789
4.340000	 65.3568
4.358000	 65.321
4.375999	 65.2003
4.394000	 65.3348
4.412000	 65.3834
4.430000	 65.2463
4.448000	 65.2905
4.466000	 65.2994
4.484000	 65.3479
4.502000	 65.3327
4.520000	 65.253
4.538000	 65.2806
4.556000	 65.1871
4.574000	 65.2576
4.592000	 65.3293
4.609999	 65.3552
4.628000	 65.3281
4.646000	 65.3023
4.664000	 65.2465
4.682000	 65.2627
4.700000	 65.2997
4.718000	 65.2659
4.736000	 65.2697
4.754000	 65.3049
4.772000	 65.205
4.790000	 65.3309
4.808000	 65.2867
4.826000	 65.4234
4.843999	 65.3247
4.862000	 65.2685
4.880000	 65.2666
4.898000	 65.2419
4.916000	 65.4083
4.934000	 65.4212
4.952000	 65.3197
4.970000	 65.2862
4.988000	 65.3845
5.006000	 65.3942
5.024000	 65.3555
5.042000	 65.3511
5.060000	 65.4084
5.077999	 65.4069
5.096000	 65.4015
5.114000	 65.3882
5.132000	 65.37
5.150000	 65.3003
5.168000	 65.3664
5.186000	 65.4606
5.204000	 65.422
5.222000	 65.3636
5.240000	 65.4253
5.258000	 65.4945
5.276000	 65.3608
5.294000	 65.2962
5.312000	 65.352
5.330000	 65.3525
5.348000	 65.3606
5.366000	 65.2749
5.384000	 65.2695
5.402000	 65.3228
5.420000	 65.4419
5.438000	 65.4394
5.456000	 65.3044
5.474000	 65.2239
5.492000	 65.2549
5.510000	 65.277
5.528000	 65.2903
5.546000	 65.2927
5.564000	 65.2996
5.582000	 65.2372
5.600000	 65.1719
5.618000	 65.2459
5.636000	 65.2518
5.654000	 65.2235
5.672000	 65.2573
5.690000	 65.2039
5.708000	 65.1878
5.726000	 65.1911
5.744000	 65.1584
5.762000	 65.1456
5.780000	 65.158
5.798000	 65.1088
5.816000	 64.9583
5.834000	 64.9865
5.852000	 65.0645
5.870000	 65.0082
5.888000	 64.9964
5.906000	 65.0611
5.923999	 65.1421
5.942000	 65.1424
5.960000	 65.1313
5.978000	 65.1079
5.996000	 65.1016
6.014000	 65.1755
6.032000	 65.3167
6.050000	 65.4293
6.068000	 65.3445
6.086000	 65.2124
6.104000	 65.2627
6.122000	 65.2619
6.140000	 65.2008
6.158000	 65.2668
6.176000	 65.2787
6.194000	 65.2471
6.212000	 65.2637
6.230000	 65.2814
6.248000	 65.2467
6.266000	 65.2454
6.284000	 65.2493
6.302000	 65.2329
6.320000	 65.2861
6.338000	 65.3741
6.356000	 65.3329
6.374000	 65.2961
6.392000	 65.3655
6.410000	 65.4505
6.428000	 65.4792
6.446000	 65.4278
6.464000	 65.2994
6.482000	 65.2
6.500000	 65.1858
6.518000	 65.208
6.536000	 65.2494
6.554000	 65.3017
6.572000	 65.3063
6.590000	 65.2759
6.608000	 65.3157
6.626000	 65.3548
6.644000	 65.3224
6.662000	 65.3262
6.680000	 65.4787
6.698000	 65.5358
6.716000	 65.3436
6.734000	 65.202
6.752000	 65.1843
6.770000	 65.2187
6.788000	 65.2987
6.806000	 65.3598
6.824000	 65.3516
6.842000	 65.3548
6.860000	 65.4059
6.878000	 65.418
6.896000	 65.3868
6.914000	 65.3382
6.932000	 65.2757
6.950000	 65.2662
6.968000	 65.2774
6.986000	 65.2497
7.004000	 65.2164
7.022000	 65.197
7.040000	 65.2057
7.058000	 65.219
7.076000	 65.192
7.094000	 65.1583
7.112000	 65.1795
7.130000	 65.2467
7.148000	 65.2728
7.166000	 65.2366
7.184000	 65.2237
7.202000	 65.2523
7.220000	 65.2623
7.238000	 65.2388
7.256000	 65.2231
7.274000	 65.2421
7.292000	 65.2691
7.310000	 65.275
7.328000	 65.2585
7.346000	 65.2083
7.364000	 65.1434
7.382000	 65.1252
7.400000	 65.1517
7.418000	 65.1794
7.436000	 65.2135
7.454000	 65.2524
7.472000	 65.2563
7.490000	 65.2244
7.508000	 65.1878
7.526000	 65.1515
7.544000	 65.1161
7.562000	 65.0883
7.580000	 65.0779
7.598000	 65.0979
7.616000	 65.1252
7.634000	 65.13
7.652000	 65.1376
7.670000	 65.1693
7.688000	 65.192
7.706000	 65.1924
7.724000	 65.1966
7.742000	 65.214
7.760000	 65.2363
7.778000	 65.2523
7.796000	 65.2406
7.814000	 65.1982
7.832000	 65.1468
7.850000	 65.0999
7.868000	 65.076
7.886000	 65.0999
7.904000	 65.1465
7.922000	 65.151
7.940000	 65.1051
7.958000	 65.0585
7.976000	 65.0342
7.994000	 65.0189
8.012000	 65.0185
8.030000	 65.0512
8.048000	 65.1026
8.065999	 65.1429
8.084000	 65.1693
8.102000	 65.1915
8.120000	 65.199
8.138000	 65.1822
8.155999	 65.1622
8.173999	 65.1648
8.192000	 65.187
8.210000	 65.2118
8.228000	 65.2336
8.246000	 65.2561
8.263999	 65.2759
8.282000	 65.2788
8.300000	 65.2471
8.318000	 65.1756
8.336000	 65.0877
8.353999	 65.021
8.372000	 64.9965
8.390000	 65.011
8.408000	 65.0543
8.426000	 65.1186
8.443999	 65.1911
8.462000	 65.2505
8.480000	 65.2785
8.498000	 65.2725
8.516000	 65.2397
8.533999	 65.1913
8.552000	 65.1444
8.570000	 65.1218
8.588000	 65.1388
8.606000	 65.1936
8.624000	 65.269
8.641999	 65.3364
8.660000	 65.3643
8.678000	 65.3379
8.696000	 65.2739
8.714000	 65.2084
8.731999	 65.1629
8.750000	 65.1323
8.768000	 65.109
8.786000	 65.1067
8.804000	 65.1434
8.821999	 65.2092
8.840000	 65.2666
8.858000	 65.287
8.876000	 65.2762
8.894000	 65.2589
8.911999	 65.2492
8.930000	 65.2443
8.948000	 65.234
8.966000	 65.2071
8.984000	 65.1611
9.001999	 65.1132
9.020000	 65.0918
9.038000	 65.1121
9.056000	 65.1592
9.074000	 65.2008
9.092000	 65.2142
9.109999	 65.201
9.128000	 65.1773
9.146000	 65.1534
9.164000	 65.1271
9.182000	 65.0934
9.199999	 65.0586
9.218000	 65.0405
9.236000	 65.0552
9.254000	 65.1019
9.272000	 65.16
9.289999	 65.2039
9.308000	 65.2234
9.326000	 65.2297
9.344000	 65.2415
9.362000	 65.2647
9.379999	 65.287
9.398000	 65.2927
9.416000	 65.2786
9.434000	 65.254
9.452000	 65.2271
9.469999	 65.1961
9.488000	 65.1569
9.506000	 65.1153
9.524000	 65.0869
9.542000	 65.0839
9.560000	 65.1023
9.577999	 65.1262
9.596000	 65.1415
9.614000	 65.1443
9.632000	 65.137
9.650000	 65.1233
9.667999	 65.1063
9.686000	 65.0908
9.704000	 65.0827
9.722000	 65.0857
9.740000	 65.0984
9.757999	 65.1159
9.776000	 65.1327
9.794000	 65.1466
9.812000	 65.1587
9.830000	 65.1697
9.847999	 65.178
9.866000	 65.1809
9.884000	 65.175
9.902000	 65.157
9.920000	 65.125
9.937999	 65.0825
9.956000	 65.0423
9.974000	 65.0215
9.992000	 65.0322
10.01	65.0708
10.028	65.119
10.046	65.156
10.064	65.1735
10.082	65.1792
10.1	65.1874
10.118	65.206
10.136	65.2308
10.154	65.2527
10.172	65.2656
10.19	65.2696
10.208	65.2681
10.226	65.2629
10.244	65.2547
10.262	65.2456
10.28	65.2407
10.298	65.2453
10.316	65.2599
10.334	65.2791
10.352	65.2952
10.37	65.303
10.388	65.304
10.406	65.3037
10.424	65.3086
10.442	65.3224
10.46	65.3446
10.478	65.3712
10.496	65.3969
10.514	65.4167
10.532	65.4264
10.55	65.423
10.568	65.4053
10.586	65.3736
10.604	65.3293
10.622	65.2751
10.64	65.2157
10.658	65.1576
10.676	65.11
10.694	65.0815
10.712	65.0786
10.73	65.1017
10.748	65.1442
10.766	65.1932
10.784	65.2344
10.802	65.2562
10.82	65.2555
10.838	65.238
10.856	65.2142
10.874	65.1952
10.892	65.1865
10.91	65.1866
10.928	65.189
10.946	65.1869
10.964	65.1787
10.982	65.1686
11	65.1646
11.018	65.1742
11.036	65.1993
11.054	65.2346
11.072	65.2712
11.09	65.3006
11.108	65.3195
11.126	65.3303
11.144	65.3384
11.162	65.349
11.18	65.3629
11.198	65.3764
11.216	65.3831
11.234	65.3765
11.252	65.3533
11.27	65.3146
11.288	65.2658
11.306	65.2148
11.324	65.1708
11.342	65.141
11.36	65.129
11.378	65.1326
11.396	65.1457
11.414	65.1603
11.432	65.1717
11.45	65.1797
11.468	65.1889
11.486	65.2042
11.504	65.2272
11.522	65.2546
11.54	65.2797
11.558	65.2956
11.576	65.2982
11.594	65.2878
11.612	65.2692
11.63	65.2483
11.648	65.2294
11.666	65.2148
11.684	65.2047
11.702	65.1989
11.72	65.1983
11.738	65.2047
11.756	65.2192
11.774	65.242
11.792	65.2711
11.81	65.3026
11.828	65.3318
11.846	65.3537
11.864	65.3642
11.882	65.3617
11.9	65.3475
11.918	65.326
11.936	65.3042
11.954	65.2891
11.972	65.2868
11.99	65.3003
12.008	65.3278
12.026	65.3639
12.044	65.4011
12.062	65.433
12.08	65.4568
12.098	65.4733
12.116	65.4856
12.134	65.497
12.152	65.5091
12.17	65.5209
12.188	65.5304
12.206	65.535
12.224	65.5329
12.242	65.5238
12.26	65.508
12.278	65.4867
12.296	65.4624
12.314	65.4379
12.332	65.4169
12.35	65.403
12.368	65.3994
12.386	65.4074
12.404	65.4252
12.422	65.4475
12.44	65.4668
12.458	65.4748
12.476	65.4647
12.494	65.4335
12.512	65.3836
12.53	65.3225
12.548	65.2608
12.566	65.2093
12.584	65.1774
12.602	65.17
12.62	65.1871
12.638	65.2235
12.656	65.2711
12.674	65.3203
12.692	65.363
12.71	65.3938
12.728	65.4115
12.746	65.4181
12.764	65.4181
12.782	65.4167
12.8	65.418
12.818	65.4249
12.836	65.4376
12.854	65.4546
12.872	65.4738
12.89	65.4928
12.908	65.5102
12.926	65.5252
12.944	65.5382
12.962	65.5499
12.98	65.5609
12.998	65.5715
13.016	65.5809
13.034	65.5876
13.052	65.59
13.07	65.5866
13.088	65.5764
13.106	65.5592
13.124	65.5359
13.142	65.5081
13.16	65.4785
13.178	65.4497
13.196	65.4244
13.214	65.405
13.232	65.3933
13.25	65.3902
13.268	65.3955
13.286	65.4083
13.304	65.4267
13.322	65.4483
13.34	65.4703
13.358	65.4902
13.376	65.5057
13.394	65.5153
13.412	65.5183
13.43	65.5155
13.448	65.5081
13.466	65.4984
13.484	65.4883
13.502	65.4799
13.52	65.4745
13.538	65.4724
13.556	65.4735
13.574	65.4767
13.592	65.4811
13.61	65.4856
13.628	65.4895
13.646	65.4926
13.664	65.4953
13.682	65.4982
13.7	65.5021
13.718	65.5074
13.736	65.5144
13.754	65.5227
13.772	65.5318
13.79	65.5407
13.808	65.5482
13.826	65.5535
13.844	65.5556
13.862	65.5535
13.88	65.5466
13.898	65.5344
13.916	65.5166
13.934	65.4936
13.952	65.4661
13.97	65.4356
13.988	65.4038
14.006	65.3727
14.024	65.3444
14.042	65.3205
14.06	65.302
14.078	65.2896
14.096	65.2828
14.114	65.2808
14.132	65.2825
14.15	65.2864
14.168	65.2914
14.186	65.2966
14.204	65.3014
14.222	65.3059
14.24	65.3105
14.258	65.3158
14.276	65.3226
14.294	65.3314
14.312	65.3423
14.33	65.3554
14.348	65.3698
14.366	65.3847
14.384	65.3985
14.402	65.41
14.42	65.4176
14.438	65.4205
14.456	65.4182
14.474	65.4111
14.492	65.4005
14.51	65.3885
14.528	65.3778
14.546	65.3707
14.564	65.369
14.582	65.3738
14.6	65.3851
14.618	65.4019
14.636	65.4223
14.654	65.444
14.672	65.4647
14.69	65.4824
14.708	65.4957
14.726	65.5038
14.744	65.507
14.762	65.5063
14.78	65.5027
14.798	65.4978
14.816	65.493
14.834	65.4894
14.852	65.488
14.87	65.489
14.888	65.4924
14.906	65.4977
14.924	65.5045
14.942	65.5118
14.96	65.5191
14.978	65.5258
14.996	65.5313
15.014	65.5356
15.032	65.5387
15.05	65.5412
15.068	65.544
15.086	65.5484
15.104	65.5554
15.122	65.5664
15.14	65.5818
15.158	65.6011
15.176	65.6236
15.194	65.6473
15.212	65.6691
15.23	65.6862
15.248	65.6958
15.266	65.6953
15.284	65.6831
15.302	65.659
15.32	65.6241
15.338	65.5803
15.356	65.5305
15.374	65.479
15.392	65.4291
15.41	65.3841
15.428	65.3471
15.446	65.3201
15.464	65.3037
15.482	65.2977
15.5	65.3013
15.518	65.3127
15.536	65.3299
15.554	65.3511
15.572	65.3742
15.59	65.3976
15.608	65.4199
15.626	65.4403
15.644	65.458
15.662	65.4726
15.68	65.4838
15.698	65.4914
15.716	65.4952
15.734	65.4951
15.752	65.4911
15.77	65.4835
15.788	65.4726
15.806	65.459
15.824	65.4433
15.842	65.4264
15.86	65.4094
15.878	65.3931
15.896	65.3786
15.914	65.367
15.932	65.3591
15.95	65.3555
15.968	65.3563
15.986	65.3617
16.004	65.3712
16.022	65.3844
16.04	65.4003
16.058	65.418
16.076	65.4367
16.094	65.4549
16.112	65.4718
16.13	65.4866
16.148	65.4985
16.166	65.5073
16.184	65.5127
16.202	65.5145
16.22	65.5129
16.238	65.5084
16.256	65.5011
16.274	65.4922
16.292	65.4827
16.31	65.4736
16.328	65.4667
16.346	65.4634
16.364	65.4646
16.382	65.472
16.4	65.4861
16.418	65.5073
16.436	65.5356
16.454	65.5696
16.472	65.6087
16.49	65.6503
16.508	65.692
16.526	65.7319
16.544	65.7666
16.562	65.794
16.58	65.8125
16.598	65.8198
16.616	65.8157
16.634	65.7996
16.652	65.7725
16.67	65.7361
16.688	65.6918
16.706	65.6438
16.724	65.5944
16.742	65.547
16.76	65.5061
16.778	65.4737
16.796	65.453
16.814	65.4458
16.832	65.4526
16.85	65.4736
16.868	65.507
16.886	65.5518
16.904	65.6037
16.922	65.6601
16.94	65.7174
16.958	65.7707
16.976	65.8179
16.994	65.8546
17.012	65.879
17.03	65.8898
17.048	65.8862
17.066	65.8691
17.084	65.8395
17.102	65.8003
17.12	65.753
17.138	65.7021
17.156	65.6502
17.174	65.5998
17.192	65.5549
17.21	65.5166
17.228	65.4875
17.246	65.4681
17.264	65.459
17.282	65.4597
17.3	65.4697
17.318	65.4876
17.336	65.5116
17.354	65.5406
17.372	65.5719
17.39	65.6044
17.408	65.6361
17.426	65.6656
17.444	65.6917
17.462	65.7135
17.48	65.7307
17.498	65.7431
17.516	65.7512
17.534	65.7552
17.552	65.7567
17.57	65.7559
17.588	65.7544
17.606	65.7525
17.624	65.7513
17.642	65.7509
17.66	65.7516
17.678	65.7533
17.696	65.7556
17.714	65.7577
17.732	65.7591
17.75	65.7588
17.768	65.7558
17.786	65.7497
17.804	65.7397
17.822	65.7257
17.84	65.7078
17.858	65.6864
17.876	65.6618
17.894	65.6355
17.912	65.6079
17.93	65.5808
17.948	65.5545
17.966	65.5312
17.984	65.5112
18.002	65.4963
18.02	65.4869
18.038	65.4838
18.056	65.4874
18.074	65.4978
18.092	65.5148
18.11	65.5383
18.128	65.5671
18.146	65.601
18.164	65.6385
18.182	65.6787
18.2	65.7206
18.218	65.7625
18.236	65.8036
18.254	65.8419
18.272	65.8768
18.29	65.9066
18.308	65.931
18.326	65.9486
18.344	65.9595
18.362	65.963
18.38	65.9593
18.398	65.9485
18.416	65.9313
18.434	65.9084
18.452	65.8811
18.47	65.8503
18.488	65.818
18.506	65.785
18.524	65.7535
18.542	65.724
18.56	65.699
18.578	65.6787
18.596	65.6647
18.614	65.6571
18.632	65.6562
18.65	65.6621
18.668	65.6737
18.686	65.6908
18.704	65.7115
18.722	65.7353
18.74	65.7597
18.758	65.7843
18.776	65.8065
18.794	65.826
18.812	65.8407
18.83	65.8504
18.848	65.8537
18.866	65.8508
18.884	65.841
18.902	65.825
18.92	65.8029
18.938	65.7757
18.956	65.7443
18.974	65.7096
18.992	65.6728
19.01	65.6351
19.028	65.598
19.046	65.5623
19.064	65.5296
19.082	65.5006
19.1	65.4767
19.118	65.4583
19.136	65.4466
19.154	65.4415
19.172	65.4437
19.19	65.4531
19.208	65.4698
19.226	65.4933
19.244	65.5231
19.262	65.5588
19.28	65.5993
19.298	65.6445
19.316	65.6928
19.334	65.7443
19.352	65.7975
19.37	65.8524
19.388	65.9076
19.406	65.9632
19.424	66.0183
19.442	66.0727
19.46	66.1262
19.478	66.1787
19.496	66.2299
19.514	66.2797
19.532	66.3283
19.55	66.3757
19.568	66.4214
19.586	66.4654
19.604	66.5072
19.622	66.5464
19.64	66.5825
19.658	66.614
19.676	66.6409
19.694	66.6615
19.712	66.676
19.73	66.6824
19.748	66.6807
19.766	66.6699
19.784	66.6497
19.802	66.6201
19.82	66.5807
19.838	66.5325
19.856	66.4759
19.874	66.4115
19.892	66.3414
19.91	66.2655
19.928	66.1871
19.946	66.1058
19.964	66.0251
19.982	65.9452
20	65.8685
20.018	65.7963
20.036	65.7296
20.054	65.6708
20.072	65.6198
20.09	65.5788
20.108	65.5474
20.126	65.527
20.144	65.5178
20.162	65.5192
20.18	65.5317
20.198	65.5541
20.216	65.5856
20.234	65.6257
20.252	65.6715
20.27	65.7237
20.288	65.7779
20.306	65.8342
20.324	65.8896
20.342	65.9421
20.36	65.9911
20.378	66.033
20.396	66.0685
20.414	66.0951
20.432	66.1128
20.45	66.1214
20.468	66.1203
20.486	66.1104
20.504	66.0926
20.522	66.0669
20.54	66.0362
20.558	66
20.576	65.9613
20.594	65.921
20.612	65.88
20.63	65.8414
20.648	65.8044
20.666	65.7717
20.684	65.7433
20.702	65.7197
20.72	65.7018
20.738	65.6891
20.756	65.6813
20.774	65.6785
20.792	65.6796
20.81	65.6847
20.828	65.6927
20.846	65.7022
20.864	65.7136
20.882	65.7246
20.9	65.7357
20.918	65.7456
20.936	65.7534
20.954	65.7592
20.972	65.7623
20.99	65.7625
21.008	65.7599
21.026	65.7542
21.044	65.7455
21.062	65.7341
21.08	65.7199
21.098	65.7034
21.116	65.6845
21.134	65.6634
21.152	65.6404
21.17	65.6155
21.188	65.5886
21.206	65.5599
21.224	65.5291
21.242	65.496
21.26	65.4608
21.278	65.4232
21.296	65.383
21.314	65.3405
21.332	65.2957
21.35	65.2485
21.368	65.1994
21.386	65.1485
21.404	65.096
21.422	65.0431
21.44	64.9893
21.458	64.9359
21.476	64.8834
21.494	64.8319
21.512	64.7832
21.53	64.7367
21.548	64.694
21.566	64.6558
21.584	64.622
21.602	64.5942
21.62	64.5727
21.638	64.5574
21.656	64.5488
21.674	64.5468
21.692	64.5515
21.71	64.5632
21.728	64.5816
21.746	64.6065
21.764	64.638
21.782	64.676
21.8	64.7204
21.818	64.7713
21.836	64.8281
21.854	64.8907
21.872	64.9592
21.89	65.0332
21.908	65.1129
21.926	65.1979
21.944	65.2881
21.962	65.3834
21.98	65.4831
21.998	65.5874
22.016	65.6957
22.034	65.8072
22.052	65.9225
22.07	66.0398
22.088	66.158
22.106	66.2777
22.124	66.3952
22.142	66.5106
22.16	66.623
22.178	66.7285
22.196	66.8282
22.214	66.92
22.232	67.001
22.25	67.0726
22.268	67.1324
22.286	67.1789
22.304	67.2131
22.322	67.2338
22.34	67.24
22.358	67.233
22.376	67.2143
22.394	67.1826
22.412	67.1407
22.43	67.0921
22.448	67.0348
22.466	66.9733
22.484	66.911
22.502	66.8458
22.52	66.7829
22.538	66.7241
22.556	66.6684
22.574	66.6206
22.592	66.5814
22.61	66.5505
22.628	66.5304
22.646	66.5217
22.664	66.5232
22.682	66.5343
22.7	66.5562
22.718	66.5858
22.736	66.6196
22.754	66.66
22.772	66.7021
22.79	66.7422
22.808	66.783
22.826	66.8185
22.844	66.8455
22.862	66.8664
22.88	66.8751
22.898	66.8689
22.916	66.8498
22.934	66.8139
22.952	66.7596
22.97	66.6881
22.988	66.5989
23.006	66.4905
23.024	66.3644
23.042	66.224
23.06	66.0682
23.078	65.8983
23.096	65.7205
23.114	65.5331
23.132	65.3381
23.15	65.1442
23.168	64.9497
23.186	64.7565
23.204	64.5729
23.222	64.3972
23.24	64.2311
23.258	64.0826
23.276	63.9505
23.294	63.8356
23.312	63.744
23.33	63.6752
23.348	63.629
23.366	63.6087
23.384	63.6153
23.402	63.6472
23.42	63.7031
23.438	63.7837
23.456	63.8881
23.474	64.0132
23.492	64.1591
23.51	64.3257
23.528	64.5091
23.546	64.7088
23.564	64.9254
23.582	65.1544
23.6	65.3947
23.618	65.6475
23.636	65.9075
23.654	66.1718
23.672	66.4426
23.69	66.7168
23.708	66.992
23.726	67.2696
23.744	67.5487
23.762	67.8285
23.78	68.1093
23.798	68.391
23.816	68.6734
23.834	68.9567
23.852	69.2408
23.87	69.5253
23.888	69.8096
23.906	70.0947
23.924	70.382
23.942	70.6711
23.96	70.9623
23.978	71.2578
23.996	71.5587
24.014	71.8638
24.032	72.1747
24.05	72.4926
24.068	72.8167
24.086	73.1472
24.104	73.4842
24.122	73.828
24.14	74.178
24.158	74.5339
24.176	74.8965
24.194	75.2648
24.212	75.6371
24.23	76.0137
24.248	76.3947
24.266	76.7776
24.284	77.1614
24.302	77.5477
24.32	77.9331
24.338	78.3147
24.356	78.6949
24.374	79.0713
24.392	79.4399
24.41	79.8022
24.428	80.1576
24.446	80.5014
24.464	80.8313
24.482	81.1496
24.5	81.4544
24.518	81.7444
24.536	82.0211
24.554	82.2828
24.572	82.5267
24.59	82.7535
24.608	82.9634
24.626	83.1539
24.644	83.3249
24.662	83.4777
24.68	83.6086
24.698	83.714
24.716	83.796
24.734	83.8536
24.752	83.8844
24.77	83.8893
24.788	83.8687
24.806	83.8179
24.824	83.7342
24.842	83.6205
24.86	83.4743
24.878	83.2927
24.896	83.0773
24.914	82.8276
24.932	82.5398
24.95	82.2111
24.968	81.8435
24.986	81.4378
25.004	80.9946
25.022	80.5141
25.04	79.9963
25.058	79.4413
25.076	78.8493
25.094	78.2205
25.112	77.5547
25.13	76.8517
25.148	76.1105
25.166	75.3329
25.184	74.5214
25.202	73.6756
25.22	72.793
25.238	71.8824
25.256	70.9526
25.274	69.9996
25.292	69.0247
25.31	68.0356
25.328	67.0369
25.346	66.0235
25.364	65
25.382	63.972
25.4	62.9376
25.418	61.8968
25.436	60.8549
25.454	59.8163
25.472	58.7776
25.49	57.7405
25.508	56.708
25.526	55.6769
25.544	54.6462
25.562	53.6281
25.58	52.6334
25.598	51.6497
25.616	50.6858
25.634	49.762
25.652	48.895
25.67	48.078
25.688	47.3004
25.706	46.5524
25.724	45.8396
25.742	45.1635
25.76	44.5035
25.778	43.8408
25.796	43.1915
25.814	42.547
25.832	41.884
25.85	41.1871
25.868	40.4721
25.886	39.73
25.904	38.948
25.922	38.0948
25.94	37.1748
25.958	36.261
25.976	35.4254
25.994	34.623
26.012	33.8608
26.03	33.2279
26.048	32.8023
26.066	32.5341
26.084	32.4323
26.102	32.5379
26.12	32.882
26.138	33.4441
26.156	34.2169
26.174	35.1972
26.192	36.4328
26.21	37.9491
26.228	39.5879
26.246	41.1864
26.264	42.7701
26.282	44.4
26.3	45.9231
26.318	47.189
26.336	48.2197
26.354	49.0603
26.372	49.6769
26.39	50.0356
26.408	50.1168
26.426	49.9604
26.444	49.6164
26.462	49.1043
26.48	48.2516
26.498	47.255
26.516	46.4
26.534	45.8914
26.552	45.493
26.57	45.3321
26.588	45.6169
26.606	46.5093
26.624	47.912
26.642	49.7712
26.66	52.0512
26.678	54.7694
26.696	58.0146
26.714	61.6135
26.732	65.3725
26.75	69.2992
26.768	73.6831
26.786	78.038
26.804	81.826
26.822	84.786
26.84	87.3282
26.858	89.2159
26.876	90.1616
26.894	89.9481
26.912	88.7041
26.93	86.5843
26.948	83.7349
26.966	79.9051
26.984	74.4998
27.002	68.8156
27.02	64.2712
27.028	63.1111