File: Bakgrunnsmateriale/MATLAB/FTIR/ftir_data/subCa/Mapping_25/BZ12041010-4_t16_cm-1.asc
PE IR       SPECTRUM    SPECTRUM    ASCII       PEDS        1.60
  -1
BZ2CFF~1.ASC
17/04/10
10:13:56.00
17/04/10
10:13:56.00
tln
$BZ12041010-4_t0016$<tbV0>[5.2,-4.6,9.0,0.0,22,1,0]
370
64

2002,4.07
MIRTGS : RIGHTBACK : INTERNAL 2
MIR : ON : INTERNAL 2
OPTKBR

0.200000
8
8.000000
FILLER
RATIO
SPECTRUM
UNLOCKED 256

DOUBLE
64
COMBINED
1
0
0

1.000000
RATIO

1
0
TRUE
51149
0
LEFT NOT FITTED RIGHT NOT FITTED 0
NONE
NONE
15600
12
4.427000
51148
TRUE
1 0 8 72 0 0 0 0

15798

#HDR
-1
-1
#GR
CM-1
%T
2.38419e-05
0.0
5000
-1.000000
4631
8
80.6662
3.688955
#DATA
5000	64.9091
4996	64.7562
4992	64.8749
4988	64.9537
4984	64.8169
4980	64.6241
4976	64.7954
4972	65.2763
4968	65.4427
4964	65.365
4960	65.1742
4956	64.8674
4952	64.6737
4948	64.5241
4944	64.3936
4940	64.2923
4936	64.2779
4932	64.4933
4928	64.8245
4924	65.0782
4920	65.1986
4916	65.2009
4912	65.0409
4908	64.8358
4904	64.6121
4900	64.4107
4896	64.2508
4892	64.3046
4888	64.8559
4884	65.5009
4880	65.8758
4876	65.6742
4872	64.6634
4868	63.542
4864	63.7114
4860	65.5164
4856	66.6527
4852	65.9515
4848	65.3126
4844	65.0284
4840	64.9386
4836	65.7849
4832	66.2585
4828	65.5073
4824	64.7376
4820	64.7134
4816	64.959
4812	64.4961
4808	64.3227
4804	65.1944
4800	65.1556
4796	64.3318
4792	64.3973
4788	64.6528
4784	64.6858
4780	64.9782
4776	64.9661
4772	64.821
4768	64.9524
4764	64.7693
4760	64.5405
4756	64.6219
4752	64.7336
4748	65.0354
4744	65.3851
4740	65.2453
4736	64.9438
4732	64.9514
4728	65.157
4724	65.3403
4720	65.3337
4716	65.2668
4712	65.3509
4708	65.2954
4704	64.9866
4700	64.8022
4696	64.7341
4692	64.5679
4688	64.5375
4684	64.7113
4680	64.7097
4676	64.7577
4672	64.9153
4668	64.933
4664	65
4660	64.9695
4656	64.7669
4652	64.6431
4648	64.4698
4644	64.203
4640	64.1833
4636	64.3664
4632	64.6329
4628	64.8659
4624	64.8093
4620	64.6286
4616	64.51
4612	64.505
4608	64.5772
4604	64.5254
4600	64.3883
4596	64.4098
4592	64.6029
4588	64.6146
4584	64.5389
4580	64.5944
4576	64.4918
4572	64.2979
4568	64.2073
4564	64.2471
4560	64.3949
4556	64.6322
4552	64.8391
4548	64.6744
4544	64.3606
4540	64.1446
4536	63.8439
4532	63.6679
4528	63.8998
4524	64.4685
4520	64.8903
4516	64.8056
4512	64.6085
4508	64.5571
4504	64.3824
4500	64.3467
4496	64.7876
4492	64.7831
4488	64.498
4484	64.3522
4480	64.3729
4476	65.1081
4472	67.032
4468	70.0538
4464	72.3698
4460	78.2064
4456	79.9569
4452	71.6236
4448	64.9984
4444	63.2678
4440	63.3611
4436	64.1187
4432	64.4154
4428	63.9216
4424	63.4061
4420	63.3721
4416	63.6033
4412	63.6894
4408	63.5429
4404	63.63
4400	63.8983
4396	64.1997
4392	64.5965
4388	64.7037
4384	64.5242
4380	64.435
4376	64.3856
4372	64.352
4368	64.309
4364	64.1842
4360	64.111
4356	64.1793
4352	64.329
4348	64.447
4344	64.5098
4340	64.5987
4336	64.7562
4332	64.8363
4328	64.7568
4324	64.7389
4320	64.7413
4316	64.6155
4312	64.566
4308	64.7726
4304	64.9643
4300	64.8221
4296	64.7125
4292	64.8366
4288	64.8974
4284	64.9508
4280	65.1132
4276	65.202
4272	65.0043
4268	64.7107
4264	64.6889
4260	64.8111
4256	64.9494
4252	65.129
4248	65.1519
4244	65.0399
4240	65.0079
4236	65.0559
4232	65.0961
4228	65.0873
4224	65.0831
4220	65.1536
4216	65.1238
4212	64.9613
4208	64.8759
4204	64.9229
4200	65.017
4196	65.0883
4192	65.1663
4188	65.1974
4184	65.2043
4180	65.2458
4176	65.2551
4172	65.3291
4168	65.4363
4164	65.4323
4160	65.3354
4156	65.1608
4152	65.0858
4148	65.1758
4144	65.2788
4140	65.281
4136	65.192
4132	65.2232
4128	65.2904
4124	65.1997
4120	65.1193
4116	65.1169
4112	65.019
4108	64.9128
4104	65.0671
4100	65.3367
4096	65.3803
4092	65.2231
4088	65.2058
4084	65.3632
4080	65.3245
4076	65.3095
4072	65.5506
4068	65.4838
4064	65.0868
4060	64.9602
4056	65.1855
4052	65.3399
4048	65.2022
4044	65.0946
4040	65.1702
4036	65.2371
4032	65.209
4028	65.0633
4024	64.8582
4020	64.8042
4016	65.0077
4012	65.2172
4008	65.2259
4004	65.0964
4000	64.9622
3996	64.9808
3992	65.2034
3988	65.3923
3984	65.3424
3980	65.2153
3976	65.0879
3972	64.9206
3968	64.8444
3964	64.8864
3960	64.9068
3956	64.9644
3952	65.0894
3948	65.084
3944	64.9763
3940	64.9749
3936	65.1012
3932	65.1735
3928	65.1344
3924	65.1448
3920	65.195
3916	65.1366
3912	65.0988
3908	65.2072
3904	65.3178
3900	65.3018
3896	65.1901
3892	65.1603
3888	65.2559
3884	65.3193
3880	65.2573
3876	65.142
3872	65.0711
3868	65.026
3864	65.0599
3860	65.1754
3856	65.1978
3852	65.127
3848	65.0041
3844	64.891
3840	64.9453
3836	65.0696
3832	65.0977
3828	65.0735
3824	65.0969
3820	65.1285
3816	65.0991
3812	65.0861
3808	65.1038
3804	65.0835
3800	65.0798
3796	65.1763
3792	65.2349
3788	65.2192
3784	65.2669
3780	65.2907
3776	65.2506
3772	65.1947
3768	65.1864
3764	65.2978
3760	65.3508
3756	65.2654
3752	65.2418
3748	65.33
3744	65.3473
3740	65.2339
3736	65.1343
3732	65.1031
3728	65.1327
3724	65.2271
3720	65.2861
3716	65.2582
3712	65.1803
3708	65.1268
3704	65.1642
3700	65.2048
3696	65.1868
3692	65.2185
3688	65.317
3684	65.4068
3680	65.3738
3676	65.2858
3672	65.2565
3668	65.2013
3664	65.1586
3660	65.1368
3656	65.1183
3652	65.1576
3648	65.2364
3644	65.292
3640	65.2875
3636	65.3047
3632	65.3256
3628	65.252
3624	65.2083
3620	65.1912
3616	65.0956
3612	65.0458
3608	65.0801
3604	65.119
3600	65.1788
3596	65.2598
3592	65.2957
3588	65.3109
3584	65.3002
3580	65.235
3576	65.1493
3572	65.0737
3568	65.0583
3564	65.0984
3560	65.1534
3556	65.1519
3552	65.0878
3548	65.0289
3544	65.0436
3540	65.0589
3536	64.9831
3532	64.9891
3528	65.0799
3524	65.0822
3520	65.0516
3516	65.047
3512	65.053
3508	65.081
3504	65.0862
3500	65.0784
3496	65.0681
3492	65.0414
3488	65.0538
3484	65.0796
3480	65.0428
3476	65.0252
3472	65.0204
3468	64.931
3464	64.9195
3460	64.9673
3456	64.964
3452	65.0118
3448	65.0711
3444	65.099
3440	65.1315
3436	65.1388
3432	65.1406
3428	65.1837
3424	65.1921
3420	65.1372
3416	65.106
3412	65.156
3408	65.231
3404	65.2001
3400	65.1223
3396	65.1811
3392	65.3104
3388	65.3169
3384	65.2329
3380	65.1752
3376	65.1341
3372	65.0735
3368	65.0734
3364	65.1376
3360	65.1853
3356	65.2753
3352	65.3912
3348	65.4261
3344	65.3667
3340	65.2731
3336	65.1794
3332	65.0985
3328	65.0853
3324	65.1263
3320	65.1704
3316	65.1941
3312	65.2034
3308	65.2133
3304	65.1882
3300	65.2031
3296	65.2694
3292	65.2579
3288	65.2122
3284	65.1685
3280	65.1001
3276	65.0707
3272	65.0684
3268	65.0468
3264	65.0337
3260	65.1152
3256	65.2495
3252	65.3054
3248	65.3416
3244	65.3863
3240	65.3301
3236	65.2506
3232	65.2382
3228	65.2707
3224	65.289
3220	65.2797
3216	65.2954
3212	65.2396
3208	65.1292
3204	65.1089
3200	65.1539
3196	65.2253
3192	65.2783
3188	65.174
3184	65.007
3180	65.0163
3176	65.1208
3172	65.1366
3168	65.0859
3164	65.0025
3160	64.9117
3156	64.9214
3152	65.0213
3148	65.0811
3144	65.0833
3140	65.0984
3136	65.0869
3132	65.0686
3128	65.1111
3124	65.1146
3120	65.0682
3116	65.0774
3112	65.13
3108	65.1756
3104	65.1697
3100	65.1062
3096	65.0788
3092	65.1071
3088	65.1102
3084	65.078
3080	65.0779
3076	65.1495
3072	65.2133
3068	65.1871
3064	65.1313
3060	65.1425
3056	65.2054
3052	65.2253
3048	65.1965
3044	65.1638
3040	65.1582
3036	65.2426
3032	65.3321
3028	65.2812
3024	65.1479
3020	65.0687
3016	65.0744
3012	65.0832
3008	65.0472
3004	65.0026
3000	65.0127
2996	65.0732
2992	65.1504
2988	65.2276
2984	65.2045
2980	65.142
2976	65.1974
2972	65.2639
2968	65.1568
2964	64.9919
2960	64.9966
2956	65.1173
2952	65.2046
2948	65.2128
2944	65.1302
2940	65.0172
2936	65.0277
2932	65.1255
2928	65.1161
2924	65.0091
2920	64.9562
2916	65.0357
2912	65.1656
2908	65.222
2904	65.1872
2900	65.106
2896	65.0767
2892	65.1375
2888	65.1832
2884	65.1503
2880	65.0542
2876	65.0074
2872	65.0664
2868	65.1331
2864	65.1825
2860	65.2187
2856	65.2126
2852	65.1434
2848	65.0535
2844	65.024
2840	65.0448
2836	65.0655
2832	65.1017
2828	65.1411
2824	65.1165
2820	65.0973
2816	65.1707
2812	65.2728
2808	65.2722
2804	65.1455
2800	65.0709
2796	65.1537
2792	65.241
2788	65.2276
2784	65.2179
2780	65.281
2776	65.3302
2772	65.2904
2768	65.2162
2764	65.2057
2760	65.2481
2756	65.271
2752	65.269
2748	65.2863
2744	65.3056
2740	65.2992
2736	65.2714
2732	65.2387
2728	65.2372
2724	65.2763
2720	65.3489
2716	65.365
2712	65.2765
2708	65.1653
2704	65.1158
2700	65.1438
2696	65.1576
2692	65.1432
2688	65.1571
2684	65.152
2680	65.1009
2676	65.1079
2672	65.2117
2668	65.2793
2664	65.236
2660	65.1647
2656	65.1245
2652	65.0886
2648	65.0556
2644	65.0425
2640	65.0562
2636	65.1105
2632	65.1662
2628	65.1588
2624	65.0961
2620	65.1068
2616	65.2034
2612	65.2354
2608	65.2221
2604	65.2208
2600	65.1917
2596	65.1497
2592	65.1174
2588	65.0793
2584	65.0843
2580	65.1613
2576	65.2285
2572	65.2279
2568	65.1992
2564	65.1793
2560	65.1685
2556	65.1774
2552	65.1835
2548	65.2216
2544	65.2907
2540	65.3096
2536	65.2956
2532	65.304
2528	65.3028
2524	65.2189
2520	65.126
2516	65.1211
2512	65.1677
2508	65.2032
2504	65.2209
2500	65.272
2496	65.3397
2492	65.3505
2488	65.3378
2484	65.3475
2480	65.3381
2476	65.2466
2472	65.1276
2468	65.099
2464	65.1499
2460	65.2469
2456	65.3187
2452	65.2774
2448	65.2272
2444	65.2553
2440	65.293
2436	65.281
2432	65.2236
2428	65.1918
2424	65.23
2420	65.2804
2416	65.3013
2412	65.3085
2408	65.3108
2404	65.2742
2400	65.2321
2396	65.2631
2392	65.2997
2388	65.2516
2384	65.1549
2380	65.075
2376	65.0792
2372	65.1687
2368	65.2279
2364	65.2308
2360	65.2471
2356	65.2342
2352	65.1762
2348	65.1791
2344	65.2396
2340	65.2482
2336	65.2253
2332	65.2529
2328	65.257
2324	65.1991
2320	65.1644
2316	65.1969
2312	65.2557
2308	65.2842
2304	65.257
2300	65.1871
2296	65.1545
2292	65.1706
2288	65.194
2284	65.1715
2280	65.1291
2276	65.1991
2272	65.3137
2268	65.3333
2264	65.2749
2260	65.2018
2256	65.1869
2252	65.2285
2248	65.2311
2244	65.2361
2240	65.2908
2236	65.2817
2232	65.2308
2228	65.2409
2224	65.2406
2220	65.2088
2216	65.2108
2212	65.1997
2208	65.162
2204	65.1712
2200	65.1877
2196	65.1541
2192	65.1197
2188	65.0851
2184	65.0514
2180	65.062
2176	65.1012
2172	65.164
2168	65.2373
2164	65.2423
2160	65.1914
2156	65.1661
2152	65.1606
2148	65.1542
2144	65.181
2140	65.2047
2136	65.1768
2132	65.1404
2128	65.1505
2124	65.1887
2120	65.2105
2116	65.2321
2112	65.2493
2108	65.2381
2104	65.2169
2100	65.2052
2096	65.2068
2092	65.1995
2088	65.1582
2084	65.0934
2080	65.0634
2076	65.1288
2072	65.1959
2068	65.1833
2064	65.2032
2060	65.2482
2056	65.2273
2052	65.1854
2048	65.177
2044	65.2005
2040	65.2144
2036	65.2182
2032	65.2233
2028	65.1985
2024	65.1731
2020	65.177
2016	65.1548
2012	65.1223
2008	65.1507
2004	65.1764
2000	65.1414
1996	65.1204
1992	65.1654
1988	65.2565
1984	65.3255
1980	65.3482
1976	65.3587
1972	65.3347
1968	65.2688
1964	65.1999
1960	65.1708
1956	65.2091
1952	65.279
1948	65.2859
1944	65.2143
1940	65.1742
1936	65.2133
1932	65.2494
1928	65.2293
1924	65.2278
1920	65.2679
1916	65.2725
1912	65.258
1908	65.2554
1904	65.235
1900	65.1968
1896	65.1734
1892	65.2103
1888	65.2788
1884	65.2717
1880	65.2257
1876	65.2078
1872	65.1889
1868	65.192
1864	65.2233
1860	65.2153
1856	65.1953
1852	65.2349
1848	65.2607
1844	65.2418
1840	65.2133
1836	65.1842
1832	65.2147
1828	65.273
1824	65.2647
1820	65.2322
1816	65.2265
1812	65.2352
1808	65.2457
1804	65.241
1800	65.2605
1796	65.3035
1792	65.2854
1788	65.2277
1784	65.2239
1780	65.264
1776	65.2854
1772	65.2878
1768	65.3185
1764	65.3265
1760	65.2645
1756	65.2308
1752	65.202
1748	65.0905
1744	65.0131
1740	65.0438
1736	65.0913
1732	65.0858
1728	65.0481
1724	65.0539
1720	65.0779
1716	65.0803
1712	65.1083
1708	65.1435
1704	65.1945
1700	65.2402
1696	65.1841
1692	65.1352
1688	65.1464
1684	65.1304
1680	65.1236
1676	65.161
1672	65.2137
1668	65.1951
1664	65.1165
1660	65.0712
1656	65.0694
1652	65.1005
1648	65.0838
1644	65.0308
1640	65.0648
1636	65.1498
1632	65.1868
1628	65.1707
1624	65.1697
1620	65.2125
1616	65.2142
1612	65.1845
1608	65.2114
1604	65.2106
1600	65.1409
1596	65.0972
1592	65.0972
1588	65.1047
1584	65.121
1580	65.0927
1576	65.0367
1572	65.0573
1568	65.0902
1564	65.0899
1560	65.1159
1556	65.1632
1552	65.22
1548	65.2059
1544	65.1101
1540	65.0753
1536	65.1241
1532	65.1366
1528	65.0799
1524	65.0738
1520	65.1395
1516	65.1472
1512	65.1214
1508	65.1438
1504	65.1586
1500	65.1728
1496	65.2501
1492	65.3055
1488	65.2525
1484	65.1408
1480	65.0532
1476	65.0801
1472	65.1874
1468	65.2533
1464	65.2319
1460	65.1375
1456	65.0436
1452	65.0272
1448	65.0837
1444	65.1476
1440	65.1949
1436	65.2234
1432	65.2017
1428	65.136
1424	65.0453
1420	65.0065
1416	65.0467
1412	65.0684
1408	65.0784
1404	65.143
1400	65.1729
1396	65.1382
1392	65.1458
1388	65.1389
1384	65.1056
1380	65.1418
1376	65.1483
1372	65.0674
1368	65.0213
1364	65.0679
1360	65.1192
1356	65.0968
1352	65.0539
1348	65.0527
1344	65.0973
1340	65.1252
1336	65.0991
1332	65.0884
1328	65.1089
1324	65.1039
1320	65.0561
1316	65.0347
1312	65.0685
1308	65.0765
1304	65.0574
1300	65.056
1296	65.0597
1292	65.0906
1288	65.1345
1284	65.1222
1280	65.0854
1276	65.0872
1272	65.0884
1268	65.1017
1264	65.1366
1260	65.0924
1256	65.0196
1252	65.0223
1248	65.0589
1244	65.0658
1240	65.0535
1236	65.0849
1232	65.1537
1228	65.1798
1224	65.1165
1220	65.0512
1216	65.0552
1212	65.0842
1208	65.0963
1204	65.0701
1200	65.0405
1196	65.0241
1192	64.9872
1188	64.9868
1184	65.0364
1180	65.0707
1176	65.1008
1172	65.1031
1168	65.0711
1164	65.058
1160	65.0658
1156	65.0563
1152	65.0035
1148	64.982
1144	65.0285
1140	65.0866
1136	65.127
1132	65.1506
1128	65.1235
1124	65.0454
1120	64.9797
1116	64.977
1112	65.0534
1108	65.1463
1104	65.1287
1100	65.0255
1096	64.9392
1092	64.8956
1088	64.9126
1084	64.9659
1080	64.9261
1076	64.7958
1072	64.7977
1068	64.9592
1064	65.0715
1060	65.082
1056	65.0314
1052	64.9488
1048	64.9336
1044	65.0291
1040	65.1169
1036	65.1077
1032	65.0569
1028	65.0265
1024	65.0131
1020	64.9774
1016	65.0111
1012	65.1802
1008	65.3142
1004	65.2812
1000	65.1279
996	 65.0161
992	 65.015
988	 65.0161
984	 64.9568
980	 64.9425
976	 65.0449
972	 65.1475
968	 65.1407
964	 65.0872
960	 65.1274
956	 65.2505
952	 65.3443
948	 65.3481
944	 65.2832
940	 65.2052
936	 65.0977
932	 65.0441
928	 65.1406
924	 65.2164
920	 65.2024
916	 65.1807
912	 65.1275
908	 65.084
904	 65.1303
900	 65.1823
896	 65.1369
892	 65.1271
888	 65.1429
884	 65.0887
880	 65.1302
876	 65.2873
872	 65.3591
868	 65.3146
864	 65.2498
860	 65.175
856	 65.0995
852	 65.1212
848	 65.2522
844	 65.3132
840	 65.2469
836	 65.236
832	 65.4027
828	 65.5963
824	 65.5494
820	 65.3458
816	 65.2959
812	 65.3926
808	 65.4688
804	 65.5126
800	 65.4469
796	 65.2105
792	 65.0931
788	 65.2487
784	 65.4111
780	 65.4637
776	 65.4794
772	 65.4964
768	 65.4855
764	 65.4067
760	 65.3185
756	 65.3043
752	 65.4502
748	 65.5657
744	 65.4763
740	 65.3367
736	 65.2545
732	 65.3162
728	 65.3802
724	 65.3252
720	 65.3615
716	 65.3948
712	 65.3276
708	 65.3444
704	 65.4064
700	 65.3803
696	 65.2904
692	 65.2547
688	 65.3208
684	 65.4851
680	 65.6101
676	 65.5739
672	 65.4663
668	 65.3679
664	 65.3529
660	 65.476
656	 65.605
652	 65.4381
648	 65.1997
644	 65.3456
640	 65.5496
636	 65.5676
632	 65.6428
628	 65.7159
624	 65.7325
620	 65.7951
616	 65.7343
612	 65.5455
608	 65.516
604	 65.491
600	 65.2425
596	 64.9746
592	 64.9627
588	 65.1582
584	 65.2345
580	 65.14
576	 65.0224
572	 65.0918
568	 65.2735
564	 65.3496
560	 65.3533
556	 65.2903
552	 65.2189
548	 65.3836
544	 65.6795
540	 65.6292
536	 65.5877
532	 65.8965
528	 65.8063
524	 65.3063
520	 65.3167
516	 65.8839
512	 66.3293
508	 66.5826
504	 66.474
500	 65.8503
496	 65.4992
492	 65.6911
488	 65.8665
484	 65.8251
480	 65.9106
476	 66.1255
472	 66.1207
468	 65.8154
464	 65.5205
460	 65.6433
456	 66.0673
452	 66.2283
448	 66.1306
444	 65.8604
440	 65.293
436	 64.9755
432	 64.7782
428	 64.6985
424	 65.0678
420	 64.8892
416	 67.4066
412	 73.8744
408	 75.0861
404	 70.7596
400	 64.2163
396	 54.6781
392	 47.0003
388	 37.1506
384	 34.9159
380	 36.1091
376	 5.121016
372	 29.9285
370	 38.8155