File: Bakgrunnsmateriale/MATLAB/FTIR/ftir_data/subCa/Mapping_25/BZ12041010-4_t25_cm-1.asc
PE IR       SPECTRUM    SPECTRUM    ASCII       PEDS        1.60
  -1
BZAC7E~1.ASC
17/04/10
11:03:01.00
17/04/10
11:03:01.00
tln
$BZ12041010-4_t0025$<tbV0>[-5.2,-2.0,9.0,0.0,22,1,0]
370
64

2002,4.07
MIRTGS : RIGHTBACK : INTERNAL 2
MIR : ON : INTERNAL 2
OPTKBR

0.200000
8
8.000000
FILLER
RATIO
SPECTRUM
UNLOCKED 256

DOUBLE
64
COMBINED
1
0
0

1.000000
RATIO

1
0
TRUE
51149
0
LEFT NOT FITTED RIGHT NOT FITTED 0
NONE
NONE
15600
12
4.427000
51148
TRUE
1 0 8 72 0 0 0 0

15798

#HDR
-1
-1
#GR
CM-1
%T
2.38419e-05
0.0
5000
-1.000000
4631
8
85.1379
28.6169
#DATA
5000	60.4513
4996	60.4175
4992	60.3109
4988	60.2271
4984	60.2384
4980	60.2697
4976	60.1838
4972	59.9957
4968	59.7153
4964	59.2326
4960	58.8631
4956	59.0409
4952	59.353
4948	59.696
4944	60.2521
4940	60.5658
4936	60.525
4932	60.2379
4928	59.9603
4924	60.0775
4920	60.233
4916	60.4457
4912	60.6144
4908	59.9968
4904	59.591
4900	60.4752
4896	61.4866
4892	60.9432
4888	59.6936
4884	59.4779
4880	59.3242
4876	58.513
4872	58.4151
4868	59.5759
4864	60.9885
4860	61.8528
4856	62.2183
4852	61.8226
4848	60.8438
4844	60.5673
4840	61.224
4836	62.0122
4832	62.0126
4828	61.3124
4824	60.9671
4820	60.9314
4816	60.9777
4812	61.2096
4808	60.9915
4804	60.4575
4800	60.4652
4796	60.9888
4792	61.3869
4788	61.1703
4784	60.53
4780	60.1337
4776	60.1855
4772	60.5777
4768	61.0274
4764	60.8044
4760	60.1629
4756	60.0205
4752	60.3491
4748	60.5726
4744	60.4939
4740	60.4633
4736	60.8029
4732	61.0424
4728	60.8771
4724	60.7244
4720	60.6071
4716	60.6373
4712	60.7184
4708	60.4906
4704	60.3529
4700	60.434
4696	60.5709
4692	60.7394
4688	60.7079
4684	60.6436
4680	60.7401
4676	60.8091
4672	60.7832
4668	60.4848
4664	60.0055
4660	59.8725
4656	60.008
4652	60.0757
4648	60.2095
4644	60.337
4640	60.2538
4636	59.9932
4632	59.6654
4628	59.551
4624	59.7613
4620	60.028
4616	60.2046
4612	60.2442
4608	60.0471
4604	59.9139
4600	60.0391
4596	60.242
4592	60.4071
4588	60.467
4584	60.4614
4580	60.2874
4576	60.0343
4572	59.9341
4568	59.8911
4564	59.9535
4560	60.0396
4556	60.0152
4552	59.9948
4548	59.892
4544	59.521
4540	59.0873
4536	58.9207
4532	58.9432
4528	59.2386
4524	59.631
4520	59.6546
4516	59.7693
4512	60.2242
4508	60.3834
4504	60.2482
4500	60.2215
4496	60.3021
4492	60.136
4488	59.8666
4484	59.5307
4480	58.9094
4476	58.5934
4472	59.1674
4468	56.6736
4464	50.0868
4460	49.3151
4456	65.9427
4452	84.2534
4448	78.5092
4444	66.2432
4440	61.6972
4436	59.4723
4432	59.0203
4428	59.6229
4424	59.8188
4420	59.7198
4416	59.6887
4412	59.6917
4408	59.8332
4404	60.0563
4400	60.0698
4396	60.2243
4392	60.3284
4388	60.131
4384	60.0785
4380	60.2383
4376	60.2986
4372	60.1832
4368	60.0947
4364	60.2234
4360	60.3503
4356	60.25
4352	60.1584
4348	60.1612
4344	60.1439
4340	60.1911
4336	60.1901
4332	60.1727
4328	60.2026
4324	60.1216
4320	60.0011
4316	59.9535
4312	60.1315
4308	60.3367
4304	60.2453
4300	60.2339
4296	60.4607
4292	60.5585
4288	60.4382
4284	60.2985
4280	60.3228
4276	60.4402
4272	60.4832
4268	60.4258
4264	60.4573
4260	60.5702
4256	60.5601
4252	60.52
4248	60.4357
4244	60.3619
4240	60.4464
4236	60.5001
4232	60.4239
4228	60.3688
4224	60.4078
4220	60.4234
4216	60.3565
4212	60.2627
4208	60.2073
4204	60.2483
4200	60.2938
4196	60.272
4192	60.3279
4188	60.5196
4184	60.6439
4180	60.5682
4176	60.4579
4172	60.4418
4168	60.3319
4164	60.183
4160	60.2421
4156	60.3277
4152	60.3535
4148	60.4136
4144	60.3529
4140	60.1184
4136	60.0339
4132	60.2504
4128	60.5335
4124	60.7015
4120	60.7182
4116	60.7098
4112	60.7756
4108	60.7881
4104	60.7289
4100	60.6866
4096	60.6814
4092	60.7512
4088	60.8328
4084	60.7357
4080	60.4622
4076	60.423
4072	60.6991
4068	60.8161
4064	60.7933
4060	60.8427
4056	60.8201
4052	60.7142
4048	60.6385
4044	60.6323
4040	60.6449
4036	60.6392
4032	60.7117
4028	60.779
4024	60.6433
4020	60.4629
4016	60.3571
4012	60.226
4008	60.0635
4004	59.9879
4000	60.1089
3996	60.2969
3992	60.4333
3988	60.4853
3984	60.3989
3980	60.3738
3976	60.4944
3972	60.476
3968	60.3155
3964	60.3106
3960	60.4062
3956	60.3973
3952	60.3647
3948	60.4162
3944	60.4878
3940	60.5137
3936	60.5025
3932	60.4691
3928	60.4972
3924	60.5743
3920	60.572
3916	60.5099
3912	60.4536
3908	60.4388
3904	60.4692
3900	60.4393
3896	60.3989
3892	60.4577
3888	60.5077
3884	60.5224
3880	60.5385
3876	60.5167
3872	60.4497
3868	60.411
3864	60.46
3860	60.5328
3856	60.5907
3852	60.5888
3848	60.5061
3844	60.4798
3840	60.56
3836	60.5885
3832	60.5375
3828	60.5298
3824	60.5107
3820	60.4082
3816	60.3359
3812	60.3798
3808	60.4075
3804	60.4081
3800	60.559
3796	60.7585
3792	60.8162
3788	60.7868
3784	60.7394
3780	60.6587
3776	60.6092
3772	60.6572
3768	60.7182
3764	60.7411
3760	60.6743
3756	60.4962
3752	60.4352
3748	60.5851
3744	60.6968
3740	60.6599
3736	60.6
3732	60.5795
3728	60.4882
3724	60.3083
3720	60.3405
3716	60.5351
3712	60.5372
3708	60.44
3704	60.4215
3700	60.4682
3696	60.5486
3692	60.609
3688	60.5826
3684	60.5397
3680	60.5319
3676	60.4664
3672	60.4113
3668	60.488
3664	60.5625
3660	60.5427
3656	60.5723
3652	60.6544
3648	60.6554
3644	60.5977
3640	60.5768
3636	60.5766
3632	60.5294
3628	60.5277
3624	60.5859
3620	60.5584
3616	60.5143
3612	60.5641
3608	60.6414
3604	60.646
3600	60.6339
3596	60.7016
3592	60.7614
3588	60.7522
3584	60.7038
3580	60.6491
3576	60.6292
3572	60.6851
3568	60.7629
3564	60.7342
3560	60.6431
3556	60.659
3552	60.7621
3548	60.7316
3544	60.5621
3540	60.4329
3536	60.3886
3532	60.4142
3528	60.4729
3524	60.4872
3520	60.4753
3516	60.5029
3512	60.4919
3508	60.4564
3504	60.4847
3500	60.5051
3496	60.4738
3492	60.4138
3488	60.3391
3484	60.3164
3480	60.3427
3476	60.3989
3472	60.4687
3468	60.4454
3464	60.3711
3460	60.3648
3456	60.3756
3452	60.3867
3448	60.4538
3444	60.5257
3440	60.5371
3436	60.482
3432	60.4318
3428	60.4555
3424	60.4945
3420	60.512
3416	60.5117
3412	60.4612
3408	60.4248
3404	60.479
3400	60.5335
3396	60.5136
3392	60.5072
3388	60.5822
3384	60.6453
3380	60.6267
3376	60.5929
3372	60.5929
3368	60.5892
3364	60.5351
3360	60.4995
3356	60.5368
3352	60.6061
3348	60.645
3344	60.6199
3340	60.595
3336	60.6126
3332	60.6293
3328	60.6585
3324	60.6894
3320	60.7093
3316	60.7405
3312	60.6628
3308	60.5709
3304	60.6606
3300	60.7208
3296	60.6013
3292	60.5082
3288	60.5427
3284	60.6178
3280	60.6809
3276	60.7069
3272	60.6926
3268	60.6127
3264	60.5399
3260	60.5985
3256	60.6038
3252	60.4913
3248	60.432
3244	60.4522
3240	60.5471
3236	60.6016
3232	60.58
3228	60.5668
3224	60.5234
3220	60.4806
3216	60.4975
3212	60.5329
3208	60.5336
3204	60.4908
3200	60.4436
3196	60.4227
3192	60.4247
3188	60.4229
3184	60.4396
3180	60.4973
3176	60.5048
3172	60.449
3168	60.4369
3164	60.4626
3160	60.4647
3156	60.4885
3152	60.5867
3148	60.6821
3144	60.6519
3140	60.542
3136	60.4832
3132	60.4915
3128	60.5459
3124	60.6304
3120	60.6463
3116	60.5701
3112	60.5465
3108	60.5773
3104	60.564
3100	60.5233
3096	60.5208
3092	60.5624
3088	60.6076
3084	60.6917
3080	60.768
3076	60.7516
3072	60.6508
3068	60.5361
3064	60.5525
3060	60.6349
3056	60.6229
3052	60.5929
3048	60.6178
3044	60.6614
3040	60.6375
3036	60.5351
3032	60.5279
3028	60.6024
3024	60.5782
3020	60.5347
3016	60.5846
3012	60.623
3008	60.5912
3004	60.5606
3000	60.562
2996	60.5451
2992	60.5095
2988	60.4919
2984	60.4485
2980	60.3873
2976	60.3932
2972	60.4208
2968	60.3828
2964	60.3345
2960	60.344
2956	60.4115
2952	60.4955
2948	60.4655
2944	60.3135
2940	60.2379
2936	60.3123
2932	60.4076
2928	60.3989
2924	60.374
2920	60.4313
2916	60.4756
2912	60.5035
2908	60.5653
2904	60.6063
2900	60.5738
2896	60.533
2892	60.5929
2888	60.6868
2884	60.678
2880	60.6081
2876	60.6115
2872	60.6641
2868	60.6603
2864	60.6648
2860	60.7304
2856	60.7378
2852	60.6496
2848	60.5257
2844	60.4979
2840	60.6338
2836	60.732
2832	60.7007
2828	60.6777
2824	60.729
2820	60.7789
2816	60.7458
2812	60.6588
2808	60.6112
2804	60.6353
2800	60.6243
2796	60.5749
2792	60.6132
2788	60.696
2784	60.7056
2780	60.6288
2776	60.5738
2772	60.6024
2768	60.609
2764	60.5929
2760	60.5901
2756	60.5858
2752	60.6462
2748	60.6729
2744	60.601
2740	60.5932
2736	60.655
2732	60.6481
2728	60.5957
2724	60.5971
2720	60.5726
2716	60.4871
2712	60.4341
2708	60.4312
2704	60.4703
2700	60.4873
2696	60.4837
2692	60.5267
2688	60.5525
2684	60.5759
2680	60.6614
2676	60.6902
2672	60.5782
2668	60.4531
2664	60.4177
2660	60.4377
2656	60.4858
2652	60.5705
2648	60.6295
2644	60.6045
2640	60.5807
2636	60.6076
2632	60.6276
2628	60.6446
2624	60.6812
2620	60.6752
2616	60.6209
2612	60.6164
2608	60.6622
2604	60.6689
2600	60.6474
2596	60.659
2592	60.6822
2588	60.7001
2584	60.7168
2580	60.6998
2576	60.6856
2572	60.6581
2568	60.6107
2564	60.6073
2560	60.6199
2556	60.6215
2552	60.6552
2548	60.7262
2544	60.7671
2540	60.7382
2536	60.6928
2532	60.7078
2528	60.7079
2524	60.6375
2520	60.6088
2516	60.6555
2512	60.6775
2508	60.6392
2504	60.6308
2500	60.6816
2496	60.6699
2492	60.5851
2488	60.5651
2484	60.6052
2480	60.6024
2476	60.575
2472	60.5848
2468	60.628
2464	60.6755
2460	60.6577
2456	60.6093
2452	60.656
2448	60.7368
2444	60.7041
2440	60.6182
2436	60.6235
2432	60.6573
2428	60.6255
2424	60.6339
2420	60.7617
2416	60.8492
2412	60.7805
2408	60.6896
2404	60.6492
2400	60.6235
2396	60.6588
2392	60.706
2388	60.6903
2384	60.7161
2380	60.7844
2376	60.7952
2372	60.751
2368	60.6992
2364	60.6867
2360	60.6961
2356	60.7295
2352	60.7503
2348	60.6979
2344	60.6977
2340	60.7627
2336	60.7678
2332	60.7465
2328	60.7349
2324	60.7223
2320	60.7248
2316	60.7332
2312	60.7222
2308	60.726
2304	60.7956
2300	60.8624
2296	60.8492
2292	60.7719
2288	60.7073
2284	60.7114
2280	60.7261
2276	60.722
2272	60.7243
2268	60.702
2264	60.6814
2260	60.6861
2256	60.6892
2252	60.6994
2248	60.7117
2244	60.7027
2240	60.6749
2236	60.6559
2232	60.6468
2228	60.6417
2224	60.6493
2220	60.6817
2216	60.701
2212	60.6571
2208	60.6066
2204	60.594
2200	60.6096
2196	60.6262
2192	60.5939
2188	60.561
2184	60.6115
2180	60.6582
2176	60.6171
2172	60.6333
2168	60.7224
2164	60.7666
2160	60.7588
2156	60.7163
2152	60.684
2148	60.6733
2144	60.665
2140	60.6798
2136	60.7264
2132	60.7853
2128	60.8181
2124	60.8398
2120	60.838
2116	60.7487
2112	60.6638
2108	60.6594
2104	60.6869
2100	60.6944
2096	60.6875
2092	60.7056
2088	60.7342
2084	60.7601
2080	60.7772
2076	60.8105
2072	60.8507
2068	60.8275
2064	60.7515
2060	60.6723
2056	60.6532
2052	60.6794
2048	60.6824
2044	60.6922
2040	60.7258
2036	60.7598
2032	60.7589
2028	60.704
2024	60.6687
2020	60.6828
2016	60.6753
2012	60.6391
2008	60.6185
2004	60.6255
2000	60.6115
1996	60.5629
1992	60.5567
1988	60.594
1984	60.6321
1980	60.6737
1976	60.7091
1972	60.7116
1968	60.6826
1964	60.6758
1960	60.6614
1956	60.6117
1952	60.6086
1948	60.6062
1944	60.5696
1940	60.5529
1936	60.5489
1932	60.5712
1928	60.6277
1924	60.6498
1920	60.6106
1916	60.5457
1912	60.514
1908	60.5658
1904	60.6326
1900	60.6719
1896	60.6727
1892	60.6375
1888	60.6259
1884	60.6517
1880	60.7044
1876	60.71
1872	60.6587
1868	60.6437
1864	60.6499
1860	60.6719
1856	60.728
1852	60.7467
1848	60.6874
1844	60.6138
1840	60.5891
1836	60.5943
1832	60.6298
1828	60.6905
1824	60.7209
1820	60.6957
1816	60.6485
1812	60.6488
1808	60.6741
1804	60.6575
1800	60.6428
1796	60.6732
1792	60.6921
1788	60.6542
1784	60.6254
1780	60.6355
1776	60.6411
1772	60.6203
1768	60.5785
1764	60.5479
1760	60.5002
1756	60.4524
1752	60.442
1748	60.4126
1744	60.3625
1740	60.3598
1736	60.4117
1732	60.439
1728	60.4063
1724	60.3703
1720	60.3978
1716	60.4559
1712	60.4607
1708	60.4287
1704	60.4016
1700	60.3696
1696	60.3626
1692	60.4249
1688	60.5109
1684	60.5473
1680	60.5329
1676	60.4979
1672	60.4698
1668	60.5071
1664	60.5969
1660	60.638
1656	60.6209
1652	60.5933
1648	60.568
1644	60.5406
1640	60.5462
1636	60.6087
1632	60.6814
1628	60.7151
1624	60.6842
1620	60.6142
1616	60.5862
1612	60.6589
1608	60.7203
1604	60.6713
1600	60.6051
1596	60.6094
1592	60.678
1588	60.7294
1584	60.7516
1580	60.7894
1576	60.8005
1572	60.7525
1568	60.6923
1564	60.6868
1560	60.7078
1556	60.6749
1552	60.6121
1548	60.5608
1544	60.5579
1540	60.6027
1536	60.6238
1532	60.6103
1528	60.6033
1524	60.6329
1520	60.6499
1516	60.6196
1512	60.5896
1508	60.5739
1504	60.5826
1500	60.672
1496	60.8103
1492	60.7892
1488	60.6462
1484	60.5966
1480	60.6071
1476	60.6225
1472	60.6348
1468	60.6323
1464	60.6483
1460	60.6595
1456	60.6187
1452	60.5797
1448	60.5757
1444	60.5865
1440	60.6065
1436	60.6323
1432	60.655
1428	60.6307
1424	60.583
1420	60.6106
1416	60.6468
1412	60.5874
1408	60.5572
1404	60.5778
1400	60.5419
1396	60.521
1392	60.5121
1388	60.5194
1384	60.5626
1380	60.5567
1376	60.5444
1372	60.5836
1368	60.6225
1364	60.6675
1360	60.7709
1356	60.8638
1352	60.8521
1348	60.7514
1344	60.6494
1340	60.6039
1336	60.5676
1332	60.5247
1328	60.5164
1324	60.4974
1320	60.4785
1316	60.5286
1312	60.5736
1308	60.535
1304	60.5101
1300	60.5385
1296	60.5263
1292	60.4958
1288	60.482
1284	60.4861
1280	60.5152
1276	60.5718
1272	60.6571
1268	60.6448
1264	60.5142
1260	60.4011
1256	60.3273
1252	60.3065
1248	60.3323
1244	60.3556
1240	60.3945
1236	60.4422
1232	60.4357
1228	60.4273
1224	60.4769
1220	60.4901
1216	60.4171
1212	60.3308
1208	60.3338
1204	60.443
1200	60.568
1196	60.62
1192	60.5751
1188	60.5249
1184	60.5168
1180	60.4708
1176	60.4073
1172	60.4068
1168	60.4166
1164	60.3903
1160	60.3984
1156	60.4823
1152	60.5483
1148	60.5428
1144	60.5316
1140	60.5187
1136	60.5117
1132	60.5713
1128	60.6688
1124	60.7025
1120	60.6797
1116	60.648
1112	60.6148
1108	60.6281
1104	60.7199
1100	60.7889
1096	60.7605
1092	60.6862
1088	60.6159
1084	60.5714
1080	60.5291
1076	60.5213
1072	60.5593
1068	60.5422
1064	60.5008
1060	60.551
1056	60.6146
1052	60.5429
1048	60.4152
1044	60.35
1040	60.4045
1036	60.5532
1032	60.6337
1028	60.6425
1024	60.5997
1020	60.5754
1016	60.6099
1012	60.6354
1008	60.7103
1004	60.8093
1000	60.8959
996	 60.9237
992	 60.8128
988	 60.6773
984	 60.665
980	 60.7557
976	 60.7836
972	 60.7139
968	 60.7044
964	 60.78
960	 60.8186
956	 60.815
952	 60.8255
948	 60.801
944	 60.7821
940	 60.7677
936	 60.6763
932	 60.6431
928	 60.7494
924	 60.8301
920	 60.8304
916	 60.8135
912	 60.7373
908	 60.614
904	 60.5486
900	 60.5467
896	 60.5934
892	 60.6404
888	 60.5969
884	 60.5242
880	 60.5995
876	 60.7855
872	 60.8354
868	 60.8031
864	 60.7872
860	 60.6957
856	 60.5601
852	 60.5246
848	 60.5676
844	 60.5707
840	 60.5716
836	 60.5717
832	 60.5512
828	 60.5949
824	 60.8011
820	 61.0167
816	 60.9936
812	 60.9388
808	 60.9592
804	 60.8399
800	 60.6488
796	 60.5883
792	 60.6708
788	 60.7615
784	 60.764
780	 60.794
776	 60.8784
772	 60.7979
768	 60.6022
764	 60.6226
760	 60.8024
756	 60.778
752	 60.6188
748	 60.5959
744	 60.7182
740	 60.8658
736	 60.8706
732	 60.7909
728	 60.8277
724	 60.8996
720	 60.8794
716	 60.8632
712	 60.8709
708	 60.7468
704	 60.5342
700	 60.5901
696	 60.8109
692	 60.8343
688	 60.8447
684	 60.9483
680	 60.8432
676	 60.5601
672	 60.53
668	 60.6959
664	 60.775
660	 60.8439
656	 60.9557
652	 61.0459
648	 61.1258
644	 61.137
640	 60.9021
636	 60.6163
632	 60.5742
628	 60.6652
624	 60.7589
620	 60.8464
616	 60.7779
612	 60.7302
608	 60.9596
604	 61.1297
600	 61.0398
596	 60.8489
592	 60.7527
588	 60.7174
584	 60.7897
580	 61.1659
576	 61.4403
572	 61.3689
568	 61.2047
564	 61.0476
560	 60.7768
556	 60.4714
552	 60.5228
548	 60.8177
544	 60.8831
540	 60.7458
536	 60.8358
532	 61.1197
528	 61.2006
524	 61.2307
520	 61.4039
516	 61.2958
512	 60.8356
508	 60.3373
504	 59.9902
500	 59.4274
496	 59.2323
492	 60.0372
488	 60.5717
484	 60.4936
480	 60.8662
476	 61.3169
472	 60.6529
468	 60.225
464	 60.3937
460	 60.5591
456	 61.5445
452	 60.1925
448	 57.2639
444	 57.2247
440	 58.1745
436	 59.8908
432	 61.2693
428	 59.4142
424	 57.4652
420	 56.887
416	 55.1692
412	 52.6464
408	 52.8021
404	 59.5207
400	 72.2705
396	 80.5353
392	 73.2977
388	 59.9196
384	 47.2514
380	 34.8282
376	 31.1458
372	 30.9213
370	 28.6169