File: Bakgrunnsmateriale/MATLAB/FTIR/ftir_data/subCa/Mapping_25/BZ12041010-4_t24_cm-1.asc
PE IR       SPECTRUM    SPECTRUM    ASCII       PEDS        1.60
  -1
BZACFE~1.ASC
17/04/10
10:58:24.00
17/04/10
10:58:24.00
tln
$BZ12041010-4_t0024$<tbV0>[-2.6,-2.0,9.0,0.0,22,1,0]
370
64

2002,4.07
MIRTGS : RIGHTBACK : INTERNAL 2
MIR : ON : INTERNAL 2
OPTKBR

0.200000
8
8.000000
FILLER
RATIO
SPECTRUM
UNLOCKED 256

DOUBLE
64
COMBINED
1
0
0

1.000000
RATIO

1
0
TRUE
51149
0
LEFT NOT FITTED RIGHT NOT FITTED 0
NONE
NONE
15600
12
4.427000
51148
TRUE
1 0 8 72 0 0 0 0

15798

#HDR
-1
-1
#GR
CM-1
%T
2.38419e-05
0.0
5000
-1.000000
4631
8
82.1369
26.5305
#DATA
5000	57.5375
4996	57.4744
4992	57.7665
4988	57.9717
4984	57.9526
4980	57.8696
4976	58.0863
4972	58.3865
4968	58.3122
4964	57.9785
4960	57.5277
4956	57.2439
4952	57.4432
4948	57.9472
4944	58.4587
4940	58.5499
4936	57.9066
4932	57.3781
4928	57.631
4924	58.1117
4920	58.3347
4916	58.3614
4912	58.3077
4908	57.9608
4904	57.5735
4900	57.1134
4896	56.8482
4892	57.9838
4888	59.3135
4884	59.2731
4880	58.3705
4876	57.1077
4872	56.0866
4868	56.019
4864	56.9212
4860	57.9737
4856	58.5115
4852	58.3279
4848	57.5621
4844	57.4114
4840	58.3397
4836	59.3407
4832	59.3138
4828	58.9055
4824	58.9881
4820	59.0103
4816	58.83
4812	58.5901
4808	58.2349
4804	57.827
4800	57.8869
4796	58.4331
4792	58.6217
4788	58.3212
4784	57.9689
4780	57.8607
4776	58.02
4772	58.2256
4768	58.2067
4764	58.0301
4760	57.9833
4756	58.0496
4752	58.1663
4748	58.3408
4744	58.4651
4740	58.5783
4736	58.7783
4732	58.8732
4728	58.7876
4724	58.7208
4720	58.5584
4716	58.3054
4712	58.2055
4708	58.1718
4704	58.1391
4700	58.1499
4696	58.3096
4692	58.4392
4688	58.3347
4684	58.4343
4680	58.6402
4676	58.5732
4672	58.4918
4668	58.3142
4664	58.0719
4660	58.0846
4656	58.115
4652	58.0182
4648	58.2157
4644	58.665
4640	58.6742
4636	58.2632
4632	58.003
4628	58.0181
4624	58.1264
4620	58.214
4616	58.2226
4612	58.1122
4608	58.0012
4604	58.04
4600	58.1228
4596	58.245
4592	58.3748
4588	58.2596
4584	58.2098
4580	58.2904
4576	58.1207
4572	57.9058
4568	57.8402
4564	57.9517
4560	58.1763
4556	58.2658
4552	58.2871
4548	58.3142
4544	58.1364
4540	57.8439
4536	57.6312
4532	57.4255
4528	57.4003
4524	57.8504
4520	58.41
4516	58.601
4512	58.4761
4508	58.3789
4504	58.3972
4500	58.1815
4496	57.829
4492	57.4901
4488	56.9729
4484	56.6297
4480	56.5439
4476	56.2775
4472	56.2405
4468	52.7378
4464	45.4243
4460	43.9778
4456	60.5212
4452	80.8854
4448	75.0847
4444	60.9676
4440	57.4803
4436	57.6239
4432	58.1126
4428	58.2764
4424	58.286
4420	58.5658
4416	58.4531
4412	58.2206
4408	58.0478
4404	57.9413
4400	57.8841
4396	57.9483
4392	57.9602
4388	57.7903
4384	57.7914
4380	57.9398
4376	57.9909
4372	58.1846
4368	58.5176
4364	58.3907
4360	57.9893
4356	57.9391
4352	58.1457
4348	58.3406
4344	58.3264
4340	58.1114
4336	58.0528
4332	58.2623
4328	58.4541
4324	58.474
4320	58.4275
4316	58.4738
4312	58.541
4308	58.4112
4304	58.1998
4300	58.1827
4296	58.3715
4292	58.5075
4288	58.451
4284	58.3641
4280	58.2489
4276	58.1104
4272	58.1773
4268	58.362
4264	58.4693
4260	58.4305
4256	58.3007
4252	58.3165
4248	58.3709
4244	58.3145
4240	58.2559
4236	58.2347
4232	58.1485
4228	57.9767
4224	57.9793
4220	58.2074
4216	58.3887
4212	58.3376
4208	58.0571
4204	57.9396
4200	58.1302
4196	58.2612
4192	58.2898
4188	58.3492
4184	58.4377
4180	58.4731
4176	58.4651
4172	58.5017
4168	58.4096
4164	58.1449
4160	57.9862
4156	57.9957
4152	58.0453
4148	58.105
4144	58.1514
4140	58.1835
4136	58.3169
4132	58.4901
4128	58.5021
4124	58.4372
4120	58.4785
4116	58.5423
4112	58.4347
4108	58.2813
4104	58.3565
4100	58.4903
4096	58.453
4092	58.4988
4088	58.6883
4084	58.7406
4080	58.6286
4076	58.5399
4072	58.5899
4068	58.6488
4064	58.614
4060	58.5602
4056	58.4938
4052	58.4759
4048	58.5331
4044	58.5607
4040	58.5518
4036	58.4727
4032	58.3587
4028	58.4051
4024	58.4986
4020	58.4588
4016	58.418
4012	58.427
4008	58.4352
4004	58.4557
4000	58.495
3996	58.494
3992	58.3464
3988	58.2026
3984	58.2293
3980	58.293
3976	58.3366
3972	58.4093
3968	58.4123
3964	58.3015
3960	58.2226
3956	58.2167
3952	58.1974
3948	58.2182
3944	58.3217
3940	58.2694
3936	58.0419
3932	58.0063
3928	58.2042
3924	58.3077
3920	58.2315
3916	58.1989
3912	58.3013
3908	58.3641
3904	58.3376
3900	58.3255
3896	58.3632
3892	58.4575
3888	58.5085
3884	58.4518
3880	58.337
3876	58.2649
3872	58.3102
3868	58.3927
3864	58.4234
3860	58.4803
3856	58.6292
3852	58.7047
3848	58.5757
3844	58.4021
3840	58.363
3836	58.4299
3832	58.4858
3828	58.5188
3824	58.5132
3820	58.4875
3816	58.5186
3812	58.5686
3808	58.5748
3804	58.4934
3800	58.4052
3796	58.4357
3792	58.5198
3788	58.5576
3784	58.5958
3780	58.6127
3776	58.4878
3772	58.3585
3768	58.3638
3764	58.4144
3760	58.4674
3756	58.4781
3752	58.4325
3748	58.3986
3744	58.4396
3740	58.4841
3736	58.413
3732	58.3596
3728	58.3483
3724	58.2482
3720	58.2086
3716	58.3271
3712	58.3756
3708	58.2772
3704	58.2272
3700	58.3494
3696	58.5163
3692	58.5237
3688	58.3993
3684	58.3657
3680	58.4838
3676	58.565
3672	58.5129
3668	58.4006
3664	58.3559
3660	58.3733
3656	58.3841
3652	58.4371
3648	58.4522
3644	58.3427
3640	58.2587
3636	58.3539
3632	58.5039
3628	58.5806
3624	58.6191
3620	58.5889
3616	58.5292
3612	58.5305
3608	58.5587
3604	58.5511
3600	58.508
3596	58.5162
3592	58.5934
3588	58.6728
3584	58.7147
3580	58.6817
3576	58.5597
3572	58.4276
3568	58.3763
3564	58.3825
3560	58.3938
3556	58.3818
3552	58.3739
3548	58.373
3544	58.3051
3540	58.2467
3536	58.3409
3532	58.4773
3528	58.5124
3524	58.4887
3520	58.4584
3516	58.4372
3512	58.3702
3508	58.3342
3504	58.3802
3500	58.384
3496	58.3709
3492	58.3925
3488	58.3528
3484	58.2781
3480	58.2662
3476	58.2794
3472	58.3153
3468	58.3192
3464	58.2964
3460	58.3213
3456	58.3088
3452	58.2936
3448	58.2742
3444	58.1755
3440	58.1763
3436	58.3337
3432	58.4338
3428	58.4438
3424	58.4527
3420	58.4766
3416	58.5361
3412	58.5191
3408	58.3784
3404	58.3464
3400	58.4432
3396	58.4977
3392	58.4996
3388	58.4674
3384	58.5144
3380	58.6199
3376	58.6225
3372	58.5862
3368	58.5674
3364	58.5398
3360	58.5258
3356	58.5333
3352	58.5319
3348	58.5467
3344	58.5405
3340	58.5069
3336	58.5372
3332	58.5741
3328	58.6195
3324	58.6704
3320	58.6475
3316	58.6072
3312	58.5342
3308	58.4053
3304	58.3679
3300	58.4394
3296	58.4638
3292	58.4641
3288	58.5097
3284	58.5445
3280	58.5814
3276	58.5599
3272	58.4362
3268	58.3478
3264	58.3651
3260	58.441
3256	58.5192
3252	58.5204
3248	58.399
3244	58.2964
3240	58.3007
3236	58.3483
3232	58.4283
3228	58.4709
3224	58.4388
3220	58.4587
3216	58.47
3212	58.3502
3208	58.2337
3204	58.2042
3200	58.2328
3196	58.2657
3192	58.2645
3188	58.2714
3184	58.3034
3180	58.3595
3176	58.3544
3172	58.2709
3168	58.2469
3164	58.2989
3160	58.3356
3156	58.3293
3152	58.3709
3148	58.4348
3144	58.3783
3140	58.3073
3136	58.3867
3132	58.5212
3128	58.5874
3124	58.5997
3120	58.5535
3116	58.5147
3112	58.5257
3108	58.4776
3104	58.3925
3100	58.3613
3096	58.4253
3092	58.5406
3088	58.6093
3084	58.6449
3080	58.6468
3076	58.6362
3072	58.6522
3068	58.613
3064	58.5081
3060	58.4759
3056	58.5197
3052	58.5268
3048	58.5357
3044	58.5468
3040	58.5093
3036	58.4898
3032	58.5527
3028	58.6097
3024	58.5068
3020	58.3781
3016	58.41
3012	58.4749
3008	58.4532
3004	58.4599
3000	58.4764
2996	58.399
2992	58.3423
2988	58.3272
2984	58.27
2980	58.2102
2976	58.1932
2972	58.1646
2968	58.1219
2964	58.1291
2960	58.186
2956	58.2861
2952	58.3405
2948	58.3228
2944	58.3378
2940	58.3557
2936	58.2876
2932	58.2267
2928	58.2551
2924	58.2787
2920	58.2628
2916	58.194
2912	58.1161
2908	58.1392
2904	58.1953
2900	58.186
2896	58.2025
2892	58.332
2888	58.4601
2884	58.4743
2880	58.4021
2876	58.3673
2872	58.4041
2868	58.4307
2864	58.4567
2860	58.5017
2856	58.5438
2852	58.5543
2848	58.4823
2844	58.4202
2840	58.4557
2836	58.4708
2832	58.462
2828	58.5315
2824	58.6237
2820	58.6517
2816	58.6318
2812	58.557
2808	58.4756
2804	58.4918
2800	58.513
2796	58.4704
2792	58.4468
2788	58.4515
2784	58.4894
2780	58.5501
2776	58.5718
2772	58.5533
2768	58.4897
2764	58.4267
2760	58.382
2756	58.3045
2752	58.2972
2748	58.3837
2744	58.444
2740	58.475
2736	58.5289
2732	58.5062
2728	58.3893
2724	58.3662
2720	58.4081
2716	58.3927
2712	58.3854
2708	58.4068
2704	58.4471
2700	58.479
2696	58.4428
2692	58.4132
2688	58.3901
2684	58.4042
2680	58.5232
2676	58.5805
2672	58.4941
2668	58.4022
2664	58.3732
2660	58.3733
2656	58.3966
2652	58.4694
2648	58.5375
2644	58.5144
2640	58.5332
2636	58.6385
2632	58.6535
2628	58.5748
2624	58.5089
2620	58.5225
2616	58.5893
2612	58.6042
2608	58.5796
2604	58.5944
2600	58.5956
2596	58.5649
2592	58.6135
2588	58.6658
2584	58.6426
2580	58.653
2576	58.7
2572	58.684
2568	58.6346
2564	58.6629
2560	58.6617
2556	58.543
2552	58.4994
2548	58.5689
2544	58.6085
2540	58.6
2536	58.5929
2532	58.5863
2528	58.5443
2524	58.5133
2520	58.5274
2516	58.565
2512	58.5876
2508	58.5459
2504	58.5135
2500	58.5489
2496	58.5804
2492	58.5365
2488	58.4795
2484	58.5075
2480	58.5654
2476	58.5665
2472	58.5138
2468	58.5004
2464	58.5285
2460	58.485
2456	58.4238
2452	58.4507
2448	58.5135
2444	58.514
2440	58.4763
2436	58.4587
2432	58.438
2428	58.3835
2424	58.3408
2420	58.4016
2416	58.5087
2412	58.5578
2408	58.5684
2404	58.5593
2400	58.5472
2396	58.5659
2392	58.5807
2388	58.551
2384	58.5327
2380	58.5605
2376	58.585
2372	58.5865
2368	58.6176
2364	58.6588
2360	58.6265
2356	58.587
2352	58.5788
2348	58.5777
2344	58.6315
2340	58.6624
2336	58.61
2332	58.5611
2328	58.5448
2324	58.5645
2320	58.6142
2316	58.6362
2312	58.6407
2308	58.6875
2304	58.7297
2300	58.6975
2296	58.6095
2292	58.4969
2288	58.4548
2284	58.5314
2280	58.6179
2276	58.6112
2272	58.5514
2268	58.5345
2264	58.5503
2260	58.5747
2256	58.6063
2252	58.6246
2248	58.6112
2244	58.5515
2240	58.5006
2236	58.5268
2232	58.5601
2228	58.5088
2224	58.4852
2220	58.5677
2216	58.6225
2212	58.5965
2208	58.5478
2204	58.5092
2200	58.4811
2196	58.4681
2192	58.4625
2188	58.4534
2184	58.5003
2180	58.5678
2176	58.5406
2172	58.4867
2168	58.4862
2164	58.4753
2160	58.4764
2156	58.5494
2152	58.626
2148	58.6591
2144	58.6434
2140	58.5707
2136	58.5429
2132	58.5766
2128	58.575
2124	58.5762
2120	58.6423
2116	58.6951
2112	58.6395
2108	58.5758
2104	58.5846
2100	58.5862
2096	58.5878
2092	58.5693
2088	58.522
2084	58.5339
2080	58.54
2076	58.4946
2072	58.4689
2068	58.5377
2064	58.6843
2060	58.7241
2056	58.6467
2052	58.5957
2048	58.5862
2044	58.5963
2040	58.6045
2036	58.6024
2032	58.6107
2028	58.586
2024	58.5493
2020	58.5799
2016	58.6247
2012	58.6281
2008	58.5806
2004	58.5006
2000	58.4242
1996	58.4018
1992	58.4859
1988	58.5489
1984	58.518
1980	58.4875
1976	58.4966
1972	58.5273
1968	58.5291
1964	58.5018
1960	58.4784
1956	58.4725
1952	58.4437
1948	58.3868
1944	58.3841
1940	58.4227
1936	58.4793
1932	58.525
1928	58.5015
1924	58.4827
1920	58.5124
1916	58.5088
1912	58.489
1908	58.5154
1904	58.5159
1900	58.4878
1896	58.4972
1892	58.5004
1888	58.4944
1884	58.5318
1880	58.6005
1876	58.6321
1872	58.6037
1868	58.5508
1864	58.4996
1860	58.4728
1856	58.475
1852	58.4898
1848	58.5207
1844	58.5495
1840	58.52
1836	58.4811
1832	58.4917
1828	58.4977
1824	58.4874
1820	58.5121
1816	58.5763
1812	58.6018
1808	58.5893
1804	58.581
1800	58.5217
1796	58.4776
1792	58.5158
1788	58.5495
1784	58.5322
1780	58.5135
1776	58.5351
1772	58.5357
1768	58.4983
1764	58.4426
1760	58.3684
1756	58.3017
1752	58.241
1748	58.2113
1744	58.2161
1740	58.2012
1736	58.1668
1732	58.1694
1728	58.195
1724	58.2021
1720	58.2297
1716	58.277
1712	58.2886
1708	58.262
1704	58.2321
1700	58.2323
1696	58.2529
1692	58.3025
1688	58.3762
1684	58.3802
1680	58.3336
1676	58.3221
1672	58.3316
1668	58.3453
1664	58.3713
1660	58.4034
1656	58.41
1652	58.3829
1648	58.3621
1644	58.3587
1640	58.3968
1636	58.4646
1632	58.4851
1628	58.4469
1624	58.3857
1620	58.3672
1616	58.3999
1612	58.421
1608	58.3938
1604	58.3496
1600	58.3497
1596	58.3757
1592	58.4189
1588	58.4511
1584	58.4044
1580	58.3616
1576	58.3897
1572	58.3956
1568	58.3743
1564	58.3934
1560	58.4045
1556	58.3619
1552	58.3636
1548	58.4497
1544	58.5085
1540	58.5005
1536	58.5023
1532	58.5254
1528	58.5017
1524	58.4492
1520	58.4281
1516	58.402
1512	58.3568
1508	58.3294
1504	58.3066
1500	58.3083
1496	58.3615
1492	58.3701
1488	58.3191
1484	58.3081
1480	58.3262
1476	58.3055
1472	58.2377
1468	58.203
1464	58.204
1460	58.2093
1456	58.2575
1452	58.319
1448	58.3305
1444	58.3032
1440	58.3053
1436	58.3691
1432	58.4209
1428	58.4171
1424	58.3959
1420	58.3791
1416	58.3498
1412	58.3028
1408	58.3094
1404	58.3574
1400	58.3439
1396	58.2869
1392	58.2294
1388	58.1976
1384	58.2448
1380	58.3311
1376	58.3644
1372	58.3881
1368	58.4225
1364	58.4336
1360	58.4591
1356	58.4665
1352	58.4179
1348	58.3845
1344	58.446
1340	58.5024
1336	58.4451
1332	58.3491
1328	58.2573
1324	58.1876
1320	58.1965
1316	58.2916
1312	58.4091
1308	58.408
1304	58.2664
1300	58.116
1296	58.0753
1292	58.1877
1288	58.2954
1284	58.2825
1280	58.2522
1276	58.2743
1272	58.2901
1268	58.2515
1264	58.186
1260	58.1295
1256	58.1094
1252	58.137
1248	58.1797
1244	58.2757
1240	58.3977
1236	58.3588
1232	58.2261
1228	58.2031
1224	58.2388
1220	58.2171
1216	58.1749
1212	58.1848
1208	58.2275
1204	58.2726
1200	58.2757
1196	58.2349
1192	58.2178
1188	58.235
1184	58.2559
1180	58.2633
1176	58.2669
1172	58.2648
1168	58.2614
1164	58.2672
1160	58.2776
1156	58.3336
1152	58.3737
1148	58.3354
1144	58.3488
1140	58.439
1136	58.4797
1132	58.4796
1128	58.5369
1124	58.5794
1120	58.5585
1116	58.5209
1112	58.483
1108	58.4732
1104	58.4841
1100	58.4468
1096	58.3548
1092	58.3317
1088	58.4317
1084	58.4999
1080	58.4658
1076	58.4462
1072	58.356
1068	58.2136
1064	58.2575
1060	58.3932
1056	58.419
1052	58.3921
1048	58.401
1044	58.4064
1040	58.4342
1036	58.5004
1032	58.502
1028	58.4528
1024	58.4363
1020	58.4386
1016	58.4184
1012	58.3996
1008	58.4234
1004	58.4234
1000	58.3688
996	 58.3225
992	 58.3193
988	 58.3802
984	 58.4798
980	 58.5703
976	 58.5893
972	 58.5143
968	 58.4747
964	 58.491
960	 58.4843
956	 58.492
952	 58.5285
948	 58.5872
944	 58.6691
940	 58.6997
936	 58.6358
932	 58.5548
928	 58.4892
924	 58.4046
920	 58.3279
916	 58.3559
912	 58.4975
908	 58.5448
904	 58.4354
900	 58.412
896	 58.5024
892	 58.5346
888	 58.5068
884	 58.4432
880	 58.4104
876	 58.4689
872	 58.5048
868	 58.5309
864	 58.5362
860	 58.4885
856	 58.488
852	 58.4471
848	 58.3253
844	 58.2949
840	 58.4011
836	 58.4448
832	 58.3995
828	 58.423
824	 58.419
820	 58.3481
816	 58.3192
812	 58.4067
808	 58.6123
804	 58.6709
800	 58.5335
796	 58.5789
792	 58.8337
788	 58.8212
784	 58.448
780	 58.2427
776	 58.365
772	 58.4051
768	 58.3135
764	 58.3004
760	 58.3361
756	 58.3453
752	 58.3579
748	 58.3882
744	 58.3492
740	 58.251
736	 58.1949
732	 58.2692
728	 58.47
724	 58.5773
720	 58.5402
716	 58.4465
712	 58.2571
708	 58.0961
704	 58.054
700	 58.005
696	 58.0328
692	 58.2649
688	 58.4627
684	 58.4573
680	 58.3213
676	 58.2563
672	 58.4597
668	 58.7276
664	 58.669
660	 58.4068
656	 58.3794
652	 58.5683
648	 58.6498
644	 58.5681
640	 58.5044
636	 58.5046
632	 58.5273
628	 58.5598
624	 58.5924
620	 58.6106
616	 58.4902
612	 58.3799
608	 58.5233
604	 58.5376
600	 58.3463
596	 58.4196
592	 58.7041
588	 58.9097
584	 58.9554
580	 58.9847
576	 59.0562
572	 59.1186
568	 59.2575
564	 59.2944
560	 58.9776
556	 58.6378
552	 58.5678
548	 58.7959
544	 59.23
540	 59.4781
536	 59.3867
532	 59.2577
528	 59.3368
524	 59.3962
520	 59.3643
516	 59.234
512	 58.749
508	 57.8987
504	 57.4858
500	 57.857
496	 58.2045
492	 58.3315
488	 58.514
484	 58.8869
480	 59.5881
476	 59.7604
472	 58.8304
468	 57.8315
464	 57.7609
460	 59.3531
456	 60.9012
452	 60.1463
448	 60.7897
444	 61.9702
440	 59.3772
436	 57.4395
432	 59.2136
428	 62.0041
424	 61.8522
420	 58.1679
416	 56.775
412	 59.2302
408	 61.5477
404	 60.982
400	 58.5007
396	 54.0332
392	 43.58
388	 36.1568
384	 34.376
380	 29.1558
376	 26.8833
372	 34.9759
370	 41.494