File: Bakgrunnsmateriale/MATLAB/FTIR/ftir_data/subCa/Mapping_25/BZ12041010-4_t24.asc
PE IR       SPECTRUM    SPECTRUM    ASCII       PEDS        1.60
  -1
BZ3EBE~1.ASC
17/04/10
10:58:24.00
17/04/10
10:58:50.00
tln
$BZ12041010-4_t0024$<tbV0>[-2.6,-2.0,9.0,0.0,22,1,0]
27.028
64

2002,4.07
MIRTGS : RIGHTBACK : INTERNAL 2
MIR : ON : INTERNAL 2
OPTKBR

0.200000
8
8.000000
FILLER
RATIO
SPECTRUM
UNLOCKED 256

DOUBLE
64
COMBINED
1
0
0

0.002000
RATIO

1
0
TRUE
51149
0
LEFT NOT FITTED RIGHT NOT FITTED 0
NONE
NONE
15600
12
4.427000
51148
TRUE
1 0 8 72 0 0 0 0

15798

#HDR
-1
-1
#GR
µM
%T
2.38419e-05
0.0
2.000000
0.002000
12515
8
79.9245
26.5306
#DATA
2.000000	 57.5375
2.018000	 57.2417
2.036000	 58.2868
2.054000	 55.9612
2.072000	 58.8998
2.090000	 58.0175
2.108000	 58.469
2.126000	 58.1373
2.144000	 58.078
2.162000	 58.089
2.180000	 58.2268
2.198000	 58.3163
2.216000	 58.5043
2.234000	 56.2811
2.252000	 57.5558
2.270000	 57.9702
2.288000	 58.311
2.306000	 58.0422
2.324000	 58.1694
2.342000	 58.2791
2.360000	 58.2418
2.378000	 57.9337
2.396000	 58.4872
2.414000	 58.1598
2.432000	 58.4273
2.450000	 58.6834
2.468000	 58.4771
2.486000	 58.4967
2.504000	 58.4211
2.522000	 58.3361
2.540000	 58.0957
2.558000	 58.357
2.576000	 58.396
2.594000	 58.6631
2.612000	 58.516
2.630000	 58.4461
2.648000	 58.5063
2.666000	 58.4192
2.684000	 58.3009
2.702000	 58.3073
2.720000	 58.5625
2.738000	 58.4324
2.756000	 58.5744
2.774000	 58.5576
2.792000	 58.707
2.810000	 58.3926
2.828000	 58.3383
2.846000	 58.4042
2.864000	 58.3927
2.882000	 58.3263
2.900000	 58.2784
2.918000	 58.445
2.936000	 58.3369
2.954000	 58.4857
2.972000	 58.5451
2.990000	 58.5445
3.008000	 58.6679
3.026000	 58.363
3.044000	 58.5359
3.062000	 58.3459
3.080000	 58.3563
3.098000	 58.4706
3.116000	 58.2604
3.134000	 58.2642
3.152000	 58.2826
3.170000	 58.3343
3.188000	 58.3614
3.206000	 58.5403
3.224000	 58.3649
3.242000	 58.6415
3.260000	 58.6009
3.278000	 58.526
3.296000	 58.5119
3.314000	 58.3816
3.332000	 58.4807
3.350000	 58.2892
3.368000	 58.1305
3.386000	 58.3337
3.404000	 58.3258
3.422000	 58.2762
3.440000	 58.1566
3.458000	 58.3381
3.476000	 58.3668
3.494000	 58.4778
3.512000	 58.4676
3.530000	 58.4591
3.548000	 58.6488
3.566000	 58.4888
3.584000	 58.4467
3.602000	 58.5718
3.620000	 58.4115
3.638000	 58.3661
3.656000	 58.5352
3.674000	 58.3931
3.692000	 58.4031
3.710000	 58.4362
3.728000	 58.4442
3.746000	 58.4294
3.764000	 58.3891
3.782000	 58.5153
3.800000	 58.6477
3.818000	 58.5354
3.836000	 58.5793
3.854000	 58.5703
3.872000	 58.6378
3.890000	 58.6647
3.908000	 58.6344
3.926000	 58.5834
3.944000	 58.5929
3.962000	 58.5133
3.980000	 58.5881
3.998000	 58.5333
4.016000	 58.5015
4.034000	 58.573
4.052000	 58.501
4.070000	 58.4328
4.088000	 58.5234
4.106000	 58.4571
4.124000	 58.3431
4.141999	 58.5375
4.160000	 58.5586
4.178000	 58.5801
4.196000	 58.5353
4.214000	 58.5857
4.232000	 58.6577
4.250000	 58.5808
4.268000	 58.6467
4.286000	 58.5715
4.304000	 58.571
4.322000	 58.636
4.340000	 58.7293
4.358000	 58.5708
4.375999	 58.5008
4.394000	 58.609
4.412000	 58.5389
4.430000	 58.5962
4.448000	 58.613
4.466000	 58.4995
4.484000	 58.5448
4.502000	 58.5376
4.520000	 58.6009
4.538000	 58.5061
4.556000	 58.4672
4.574000	 58.4641
4.592000	 58.5641
4.609999	 58.484
4.628000	 58.4708
4.646000	 58.6206
4.664000	 58.6444
4.682000	 58.5437
4.700000	 58.5735
4.718000	 58.6517
4.736000	 58.628
4.754000	 58.5864
4.772000	 58.5882
4.790000	 58.5204
4.808000	 58.5391
4.826000	 58.4686
4.843999	 58.671
4.862000	 58.6627
4.880000	 58.5866
4.898000	 58.6033
4.916000	 58.6062
4.934000	 58.5706
4.952000	 58.5883
4.970000	 58.6285
4.988000	 58.5173
5.006000	 58.3983
5.024000	 58.5227
5.042000	 58.5108
5.060000	 58.4948
5.077999	 58.5332
5.096000	 58.4901
5.114000	 58.4712
5.132000	 58.3929
5.150000	 58.4039
5.168000	 58.4952
5.186000	 58.5043
5.204000	 58.4995
5.222000	 58.5011
5.240000	 58.5123
5.258000	 58.4981
5.276000	 58.4996
5.294000	 58.4934
5.312000	 58.5566
5.330000	 58.6322
5.348000	 58.5764
5.366000	 58.4953
5.384000	 58.4721
5.402000	 58.4944
5.420000	 58.5463
5.438000	 58.5058
5.456000	 58.4875
5.474000	 58.4944
5.492000	 58.5023
5.510000	 58.5904
5.528000	 58.5915
5.546000	 58.573
5.564000	 58.4818
5.582000	 58.5226
5.600000	 58.5443
5.618000	 58.5135
5.636000	 58.5417
5.654000	 58.5055
5.672000	 58.4257
5.690000	 58.325
5.708000	 58.2401
5.726000	 58.2119
5.744000	 58.2082
5.762000	 58.1644
5.780000	 58.1828
5.798000	 58.201
5.816000	 58.237
5.834000	 58.2887
5.852000	 58.2692
5.870000	 58.2305
5.888000	 58.2393
5.906000	 58.2826
5.923999	 58.3756
5.942000	 58.3681
5.960000	 58.3222
5.978000	 58.3295
5.996000	 58.3464
6.014000	 58.3814
6.032000	 58.4123
6.050000	 58.3897
6.068000	 58.362
6.086000	 58.3623
6.104000	 58.4271
6.122000	 58.4856
6.140000	 58.4562
6.158000	 58.3845
6.176000	 58.3716
6.194000	 58.4125
6.212000	 58.4119
6.230000	 58.3591
6.248000	 58.3474
6.266000	 58.3764
6.284000	 58.4273
6.302000	 58.4451
6.320000	 58.3771
6.338000	 58.3731
6.356000	 58.4002
6.374000	 58.3767
6.392000	 58.3898
6.410000	 58.4048
6.428000	 58.3588
6.446000	 58.3739
6.464000	 58.4708
6.482000	 58.5104
6.500000	 58.4963
6.518000	 58.5142
6.536000	 58.5214
6.554000	 58.4707
6.572000	 58.4335
6.590000	 58.4153
6.608000	 58.3709
6.626000	 58.3358
6.644000	 58.313
6.662000	 58.3019
6.680000	 58.3474
6.698000	 58.3768
6.716000	 58.3308
6.734000	 58.3056
6.752000	 58.3227
6.770000	 58.3178
6.788000	 58.2582
6.806000	 58.2076
6.824000	 58.2035
6.842000	 58.2043
6.860000	 58.2307
6.878000	 58.2932
6.896000	 58.3319
6.914000	 58.3206
6.932000	 58.2968
6.950000	 58.319
6.968000	 58.3846
6.986000	 58.4233
7.004000	 58.4159
7.022000	 58.3963
7.040000	 58.381
7.058000	 58.3583
7.076000	 58.3154
7.094000	 58.2966
7.112000	 58.3349
7.130000	 58.3616
7.148000	 58.331
7.166000	 58.2792
7.184000	 58.2292
7.202000	 58.1982
7.220000	 58.2243
7.238000	 58.2998
7.256000	 58.3534
7.274000	 58.3688
7.292000	 58.3944
7.310000	 58.4225
7.328000	 58.4317
7.346000	 58.4493
7.364000	 58.4698
7.382000	 58.4549
7.400000	 58.4083
7.418000	 58.3843
7.436000	 58.4279
7.454000	 58.4925
7.472000	 58.4904
7.490000	 58.4237
7.508000	 58.3471
7.526000	 58.2738
7.544000	 58.208
7.562000	 58.1799
7.580000	 58.2083
7.598000	 58.2874
7.616000	 58.3846
7.634000	 58.4302
7.652000	 58.3768
7.670000	 58.2572
7.688000	 58.1384
7.706000	 58.0726
7.724000	 58.0996
7.742000	 58.2003
7.760000	 58.2862
7.778000	 58.2987
7.796000	 58.2681
7.814000	 58.2522
7.832000	 58.2675
7.850000	 58.2884
7.868000	 58.2852
7.886000	 58.2525
7.904000	 58.2055
7.922000	 58.1597
7.940000	 58.1238
7.958000	 58.1089
7.976000	 58.1211
7.994000	 58.1473
8.012000	 58.1779
8.030000	 58.2343
8.048000	 58.3269
8.065999	 58.401
8.084000	 58.387
8.102000	 58.2971
8.120000	 58.2161
8.138000	 58.1979
8.155999	 58.2227
8.173999	 58.2401
8.192000	 58.2253
8.210000	 58.1924
8.228000	 58.1725
8.246000	 58.1793
8.263999	 58.2036
8.282000	 58.2343
8.300000	 58.2649
8.318000	 58.2819
8.336000	 58.2728
8.353999	 58.2456
8.372000	 58.223
8.390000	 58.218
8.408000	 58.2273
8.426000	 58.242
8.443999	 58.2548
8.462000	 58.2615
8.480000	 58.264
8.498000	 58.2663
8.516000	 58.2673
8.533999	 58.2644
8.552000	 58.2611
8.570000	 58.2629
8.588000	 58.2667
8.606000	 58.2694
8.624000	 58.2812
8.641999	 58.3135
8.660000	 58.3545
8.678000	 58.3739
8.696000	 58.3583
8.714000	 58.3318
8.731999	 58.3324
8.750000	 58.3721
8.768000	 58.428
8.786000	 58.4681
8.804000	 58.4797
8.821999	 58.4765
8.840000	 58.4854
8.858000	 58.5195
8.876000	 58.5598
8.894000	 58.579
8.911999	 58.5733
8.930000	 58.557
8.948000	 58.5369
8.966000	 58.5137
8.984000	 58.4916
9.001999	 58.4764
9.020000	 58.4723
9.038000	 58.478
9.056000	 58.4841
9.074000	 58.4759
9.092000	 58.4442
9.109999	 58.3942
9.128000	 58.3457
9.146000	 58.3239
9.164000	 58.3439
9.182000	 58.3988
9.199999	 58.4606
9.218000	 58.4966
9.236000	 58.4945
9.254000	 58.472
9.272000	 58.4557
9.289999	 58.4486
9.308000	 58.4259
9.326000	 58.3663
9.344000	 58.282
9.362000	 58.2164
9.379999	 58.207
9.398000	 58.2557
9.416000	 58.3307
9.434000	 58.3933
9.452000	 58.4218
9.469999	 58.4188
9.488000	 58.4027
9.506000	 58.392
9.524000	 58.3935
9.542000	 58.401
9.560000	 58.4056
9.577999	 58.4064
9.596000	 58.4122
9.614000	 58.4321
9.632000	 58.4649
9.650000	 58.497
9.667999	 58.5126
9.686000	 58.5059
9.704000	 58.4836
9.722000	 58.4591
9.740000	 58.4426
9.757999	 58.4365
9.776000	 58.4373
9.794000	 58.4392
9.812000	 58.4368
9.830000	 58.4277
9.847999	 58.4141
9.866000	 58.4024
9.884000	 58.3999
9.902000	 58.4088
9.920000	 58.423
9.937999	 58.4317
9.956000	 58.4267
9.974000	 58.4077
9.992000	 58.381
10.01	58.3544
10.028	58.3329
10.046	58.3188
10.064	58.3138
10.082	58.3203
10.1	58.3403
10.118	58.3729
10.136	58.4139
10.154	58.4584
10.172	58.5027
10.19	58.5435
10.208	58.5764
10.226	58.5943
10.244	58.5909
10.262	58.5665
10.28	58.5305
10.298	58.497
10.316	58.4778
10.334	58.4753
10.352	58.4828
10.37	58.4902
10.388	58.4914
10.406	58.4872
10.424	58.4831
10.442	58.4841
10.46	58.4918
10.478	58.5046
10.496	58.5204
10.514	58.539
10.532	58.5617
10.55	58.5898
10.568	58.6228
10.586	58.6567
10.604	58.6849
10.622	58.7004
10.64	58.6988
10.658	58.6805
10.676	58.6506
10.694	58.616
10.712	58.583
10.73	58.5543
10.748	58.529
10.766	58.5039
10.784	58.4761
10.802	58.4444
10.82	58.4096
10.838	58.3745
10.856	58.344
10.874	58.3245
10.892	58.3223
10.91	58.3421
10.928	58.3833
10.946	58.4385
10.964	58.4949
10.982	58.5369
11	58.5526
11.018	58.5383
11.036	58.5004
11.054	58.4541
11.072	58.4162
11.09	58.3997
11.108	58.4083
11.126	58.4362
11.144	58.4722
11.162	58.5044
11.18	58.5257
11.198	58.5345
11.216	58.5335
11.234	58.5262
11.252	58.5145
11.27	58.4983
11.288	58.477
11.306	58.4519
11.324	58.4279
11.342	58.4119
11.36	58.4092
11.378	58.4209
11.396	58.443
11.414	58.4671
11.432	58.4863
11.45	58.4981
11.468	58.5048
11.486	58.5111
11.504	58.5203
11.522	58.5316
11.54	58.541
11.558	58.543
11.576	58.5349
11.594	58.5188
11.612	58.5007
11.63	58.4874
11.648	58.4823
11.666	58.4845
11.684	58.4881
11.702	58.486
11.72	58.4724
11.738	58.4455
11.756	58.4078
11.774	58.3653
11.792	58.3261
11.81	58.2978
11.828	58.2859
11.846	58.2927
11.864	58.3167
11.882	58.3525
11.9	58.3915
11.918	58.4243
11.936	58.4439
11.954	58.4477
11.972	58.4377
11.99	58.4208
12.008	58.4054
12.026	58.398
12.044	58.401
12.062	58.412
12.08	58.4248
12.098	58.4332
12.116	58.4323
12.134	58.4207
12.152	58.4013
12.17	58.3782
12.188	58.356
12.206	58.3375
12.224	58.3246
12.242	58.3185
12.26	58.3208
12.278	58.334
12.296	58.361
12.314	58.4032
12.332	58.4587
12.35	58.5225
12.368	58.586
12.386	58.6393
12.404	58.6735
12.422	58.6832
12.44	58.6678
12.458	58.6327
12.476	58.5875
12.494	58.5449
12.512	58.5171
12.53	58.5134
12.548	58.5381
12.566	58.5896
12.584	58.6607
12.602	58.7397
12.62	58.8125
12.638	58.8651
12.656	58.8863
12.674	58.8696
12.692	58.8147
12.71	58.7274
12.728	58.6188
12.746	58.5037
12.764	58.3976
12.782	58.314
12.8	58.2615
12.818	58.2428
12.836	58.2544
12.854	58.2876
12.872	58.3308
12.89	58.372
12.908	58.4022
12.926	58.4161
12.944	58.4127
12.962	58.3953
12.98	58.3697
12.998	58.3424
13.016	58.3187
13.034	58.3023
13.052	58.2943
13.07	58.2942
13.088	58.3
13.106	58.3093
13.124	58.3197
13.142	58.3293
13.16	58.3368
13.178	58.3418
13.196	58.3443
13.214	58.3452
13.232	58.3454
13.25	58.3459
13.268	58.3483
13.286	58.3532
13.304	58.3606
13.322	58.3695
13.34	58.3786
13.358	58.3857
13.376	58.3887
13.394	58.3861
13.412	58.3768
13.43	58.3612
13.448	58.3405
13.466	58.3165
13.484	58.291
13.502	58.266
13.52	58.2431
13.538	58.2234
13.556	58.208
13.574	58.198
13.592	58.1948
13.61	58.1999
13.628	58.2146
13.646	58.2398
13.664	58.2754
13.682	58.3194
13.7	58.3692
13.718	58.4206
13.736	58.4694
13.754	58.5116
13.772	58.5442
13.79	58.5657
13.808	58.5763
13.826	58.5774
13.844	58.5716
13.862	58.561
13.88	58.5476
13.898	58.5323
13.916	58.5151
13.934	58.4949
13.952	58.4704
13.97	58.4401
13.988	58.4034
14.006	58.3609
14.024	58.3138
14.042	58.265
14.06	58.2174
14.078	58.1741
14.096	58.1375
14.114	58.1088
14.132	58.0883
14.15	58.0748
14.168	58.0662
14.186	58.0602
14.204	58.0542
14.222	58.0467
14.24	58.0365
14.258	58.0242
14.276	58.0114
14.294	58.0003
14.312	57.9939
14.33	57.9952
14.348	58.0067
14.366	58.0298
14.384	58.0649
14.402	58.1106
14.42	58.1644
14.438	58.2226
14.456	58.2813
14.474	58.3366
14.492	58.3853
14.51	58.4247
14.528	58.4541
14.546	58.4733
14.564	58.4825
14.582	58.4826
14.6	58.4745
14.618	58.4593
14.636	58.4379
14.654	58.4113
14.672	58.3811
14.69	58.3492
14.708	58.3178
14.726	58.2895
14.744	58.2673
14.762	58.2536
14.78	58.2508
14.798	58.2604
14.816	58.2831
14.834	58.3187
14.852	58.366
14.87	58.4223
14.888	58.4844
14.906	58.5486
14.924	58.6104
14.942	58.6652
14.96	58.709
14.978	58.7387
14.996	58.7523
15.014	58.7487
15.032	58.7286
15.05	58.694
15.068	58.648
15.086	58.5945
15.104	58.5377
15.122	58.4827
15.14	58.4336
15.158	58.3939
15.176	58.3659
15.194	58.3515
15.212	58.3507
15.23	58.3626
15.248	58.3854
15.266	58.417
15.284	58.4541
15.302	58.4937
15.32	58.5329
15.338	58.5694
15.356	58.6006
15.374	58.6249
15.392	58.6415
15.41	58.65
15.428	58.6507
15.446	58.6444
15.464	58.6325
15.482	58.6165
15.5	58.5978
15.518	58.5786
15.536	58.56
15.554	58.5431
15.572	58.529
15.59	58.5178
15.608	58.5096
15.626	58.5042
15.644	58.5012
15.662	58.5001
15.68	58.5004
15.698	58.5017
15.716	58.5036
15.734	58.5062
15.752	58.5094
15.77	58.5131
15.788	58.5174
15.806	58.5223
15.824	58.5277
15.842	58.5336
15.86	58.5396
15.878	58.5456
15.896	58.5515
15.914	58.557
15.932	58.5623
15.95	58.5674
15.968	58.5727
15.986	58.5783
16.004	58.5845
16.022	58.591
16.04	58.5979
16.058	58.6044
16.076	58.6101
16.094	58.6136
16.112	58.614
16.13	58.6102
16.148	58.6013
16.166	58.5869
16.184	58.5671
16.202	58.542
16.22	58.5135
16.238	58.483
16.256	58.4524
16.274	58.4247
16.292	58.4021
16.31	58.3863
16.328	58.3794
16.346	58.3819
16.364	58.3941
16.382	58.4147
16.4	58.4416
16.418	58.4729
16.436	58.5045
16.454	58.5332
16.472	58.5566
16.49	58.5713
16.508	58.5761
16.526	58.5702
16.544	58.5538
16.562	58.5289
16.58	58.4968
16.598	58.4614
16.616	58.4255
16.634	58.3918
16.652	58.3638
16.67	58.3432
16.688	58.3318
16.706	58.3305
16.724	58.3392
16.742	58.3576
16.76	58.3843
16.778	58.4185
16.796	58.4584
16.814	58.5021
16.832	58.5487
16.85	58.5962
16.868	58.6435
16.886	58.6895
16.904	58.7331
16.922	58.7737
16.94	58.8105
16.958	58.8433
16.976	58.8717
16.994	58.8955
17.012	58.9148
17.03	58.9295
17.048	58.9402
17.066	58.9474
17.084	58.9517
17.102	58.9541
17.12	58.9552
17.138	58.9561
17.156	58.9575
17.174	58.96
17.192	58.9641
17.21	58.9701
17.228	58.9779
17.246	58.9872
17.264	58.998
17.282	59.0093
17.3	59.0208
17.318	59.0321
17.336	59.0427
17.354	59.0525
17.372	59.0615
17.39	59.0698
17.408	59.0778
17.426	59.0859
17.444	59.0946
17.462	59.1048
17.48	59.1167
17.498	59.1311
17.516	59.1479
17.534	59.1671
17.552	59.1883
17.57	59.2113
17.588	59.2348
17.606	59.2579
17.624	59.2794
17.642	59.2973
17.66	59.3109
17.678	59.318
17.696	59.3181
17.714	59.3096
17.732	59.2927
17.75	59.2667
17.768	59.2326
17.786	59.1906
17.804	59.1426
17.822	59.0893
17.84	59.0329
17.858	58.9748
17.876	58.9168
17.894	58.8605
17.912	58.807
17.93	58.7578
17.948	58.7131
17.966	58.6741
17.984	58.6405
18.002	58.6129
18.02	58.591
18.038	58.5749
18.056	58.5643
18.074	58.5591
18.092	58.5593
18.11	58.5648
18.128	58.5759
18.146	58.5926
18.164	58.6151
18.182	58.6433
18.2	58.6775
18.218	58.7172
18.236	58.7625
18.254	58.8125
18.272	58.8672
18.29	58.9248
18.308	58.9851
18.326	59.0459
18.344	59.1069
18.362	59.166
18.38	59.2229
18.398	59.2757
18.416	59.3239
18.434	59.3665
18.452	59.4029
18.47	59.4324
18.488	59.4552
18.506	59.471
18.524	59.4803
18.542	59.4831
18.56	59.48
18.578	59.4711
18.596	59.4576
18.614	59.4396
18.632	59.4188
18.65	59.3955
18.668	59.3716
18.686	59.3473
18.704	59.3247
18.722	59.304
18.74	59.2866
18.758	59.2726
18.776	59.2632
18.794	59.2581
18.812	59.2576
18.83	59.2612
18.848	59.2685
18.866	59.2791
18.884	59.2918
18.902	59.3061
18.92	59.3209
18.938	59.3357
18.956	59.3494
18.974	59.3619
18.992	59.3725
19.01	59.3813
19.028	59.388
19.046	59.3926
19.064	59.3953
19.082	59.3962
19.1	59.3957
19.118	59.3939
19.136	59.3911
19.154	59.3873
19.172	59.3831
19.19	59.3782
19.208	59.3726
19.226	59.3662
19.244	59.3589
19.262	59.3505
19.28	59.3404
19.298	59.3285
19.316	59.3139
19.334	59.2967
19.352	59.2753
19.37	59.25
19.388	59.2195
19.406	59.1839
19.424	59.1419
19.442	59.0936
19.46	59.0383
19.478	58.9758
19.496	58.9061
19.514	58.829
19.532	58.7454
19.55	58.6551
19.568	58.5595
19.586	58.4597
19.604	58.3566
19.622	58.2523
19.64	58.1474
19.658	58.0453
19.676	57.946
19.694	57.8534
19.712	57.7672
19.73	57.6911
19.748	57.6249
19.766	57.5709
19.784	57.5296
19.802	57.5012
19.82	57.4867
19.838	57.4849
19.856	57.4954
19.874	57.5174
19.892	57.5488
19.91	57.5895
19.928	57.6359
19.946	57.6885
19.964	57.7434
19.982	57.8004
20	57.857
20.018	57.9117
20.036	57.964
20.054	58.0119
20.072	58.0558
20.09	58.0947
20.108	58.1289
20.126	58.1587
20.144	58.1837
20.162	58.2053
20.18	58.2236
20.198	58.2392
20.216	58.2533
20.234	58.2658
20.252	58.2782
20.27	58.2902
20.288	58.3028
20.306	58.3162
20.324	58.3305
20.342	58.3463
20.36	58.3632
20.378	58.381
20.396	58.3999
20.414	58.4195
20.432	58.4397
20.45	58.4609
20.468	58.4829
20.486	58.5061
20.504	58.5311
20.522	58.5578
20.54	58.5875
20.558	58.6198
20.576	58.6558
20.594	58.6959
20.612	58.7402
20.63	58.7897
20.648	58.8441
20.666	58.9034
20.684	58.9678
20.702	59.0365
20.72	59.1092
20.738	59.1853
20.756	59.2625
20.774	59.3415
20.792	59.419
20.81	59.4951
20.828	59.568
20.846	59.6344
20.864	59.6953
20.882	59.7461
20.9	59.7875
20.918	59.8172
20.936	59.8333
20.954	59.8364
20.972	59.8254
20.99	59.8001
21.008	59.7614
21.026	59.7089
21.044	59.6435
21.062	59.5673
21.08	59.4797
21.098	59.3838
21.116	59.2801
21.134	59.1698
21.152	59.0562
21.17	58.9385
21.188	58.8202
21.206	58.7018
21.224	58.5844
21.242	58.4711
21.26	58.361
21.278	58.2562
21.296	58.157
21.314	58.0639
21.332	57.9784
21.35	57.8998
21.368	57.8297
21.386	57.7682
21.404	57.7159
21.422	57.6747
21.44	57.6438
21.458	57.6255
21.476	57.6204
21.494	57.6285
21.512	57.6524
21.53	57.6914
21.548	57.7471
21.566	57.8209
21.584	57.9121
21.602	58.0211
21.62	58.1485
21.638	58.2927
21.656	58.4528
21.674	58.6293
21.692	58.817
21.71	59.0163
21.728	59.2244
21.746	59.4326
21.764	59.644
21.782	59.8507
21.8	60.0468
21.818	60.2347
21.836	60.4032
21.854	60.5515
21.872	60.6785
21.89	60.7775
21.908	60.85
21.926	60.8953
21.944	60.9111
21.962	60.8989
21.98	60.8642
21.998	60.8047
22.016	60.7258
22.034	60.6374
22.052	60.5347
22.07	60.429
22.088	60.3287
22.106	60.2295
22.124	60.1459
22.142	60.0808
22.16	60.0335
22.178	60.0137
22.196	60.0208
22.214	60.0546
22.232	60.1177
22.25	60.2105
22.268	60.3267
22.286	60.4648
22.304	60.6254
22.322	60.7951
22.34	60.9747
22.358	61.1607
22.376	61.3362
22.394	61.506
22.412	61.6619
22.43	61.7903
22.448	61.8968
22.466	61.973
22.484	62.0105
22.502	62.0135
22.52	61.9784
22.538	61.9019
22.556	61.7865
22.574	61.6363
22.592	61.449
22.61	61.2286
22.628	60.9862
22.646	60.7179
22.664	60.4307
22.682	60.1383
22.7	59.8346
22.718	59.5295
22.736	59.2361
22.754	58.9479
22.772	58.6747
22.79	58.4259
22.808	58.1963
22.826	57.9933
22.844	57.8224
22.862	57.6803
22.88	57.5701
22.898	57.4942
22.916	57.451
22.934	57.439
22.952	57.4589
22.97	57.5101
22.988	57.5881
23.006	57.6932
23.024	57.8249
23.042	57.9767
23.06	58.1488
23.078	58.3406
23.096	58.546
23.114	58.7658
23.132	58.9987
23.15	59.2384
23.168	59.486
23.186	59.7401
23.204	59.9941
23.222	60.2495
23.24	60.5045
23.258	60.7522
23.276	60.9942
23.294	61.2288
23.312	61.4486
23.33	61.6553
23.348	61.8474
23.366	62.0175
23.384	62.1669
23.402	62.2946
23.42	62.3936
23.438	62.4638
23.456	62.5058
23.474	62.5151
23.492	62.4905
23.51	62.4336
23.528	62.3445
23.546	62.222
23.564	62.0672
23.582	61.8841
23.6	61.673
23.618	61.4331
23.636	61.172
23.654	60.8921
23.672	60.5902
23.69	60.2767
23.708	59.958
23.726	59.6278
23.744	59.2976
23.762	58.9771
23.78	58.6593
23.798	58.3527
23.816	58.068
23.834	57.7997
23.852	57.5524
23.87	57.3345
23.888	57.144
23.906	56.9813
23.924	56.8511
23.942	56.7543
23.96	56.6891
23.978	56.6557
23.996	56.6553
24.014	56.6873
24.032	56.7474
24.05	56.8336
24.068	56.9487
24.086	57.0862
24.104	57.2402
24.122	57.415
24.14	57.6059
24.158	57.8058
24.176	58.0174
24.194	58.239
24.212	58.4641
24.23	58.6921
24.248	58.9247
24.266	59.1562
24.284	59.3837
24.302	59.6102
24.32	59.8318
24.338	60.0451
24.356	60.2525
24.374	60.4519
24.392	60.6393
24.41	60.8158
24.428	60.9812
24.446	61.1325
24.464	61.2688
24.482	61.3916
24.5	61.4979
24.518	61.5851
24.536	61.655
24.554	61.7063
24.572	61.7371
24.59	61.7471
24.608	61.7371
24.626	61.7076
24.644	61.6583
24.662	61.5891
24.68	61.5018
24.698	61.3977
24.716	61.274
24.734	61.1347
24.752	60.986
24.77	60.8278
24.788	60.6589
24.806	60.4841
24.824	60.3066
24.842	60.1233
24.86	59.9373
24.878	59.7525
24.896	59.5694
24.914	59.3865
24.932	59.203
24.95	59.019
24.968	58.8357
24.986	58.6497
25.004	58.4575
25.022	58.2635
25.04	58.064
25.058	57.8507
25.076	57.6213
25.094	57.3812
25.112	57.1208
25.13	56.8309
25.148	56.5167
25.166	56.176
25.184	55.8007
25.202	55.3865
25.22	54.9378
25.238	54.4528
25.256	53.9289
25.274	53.3646
25.292	52.7629
25.31	52.1274
25.328	51.4591
25.346	50.7537
25.364	50.0201
25.382	49.2681
25.4	48.4915
25.418	47.6922
25.436	46.8859
25.454	46.0834
25.472	45.2712
25.49	44.4621
25.508	43.6741
25.526	42.9097
25.544	42.1602
25.562	41.4398
25.58	40.7619
25.598	40.1203
25.616	39.5153
25.634	38.9544
25.652	38.4429
25.67	37.9772
25.688	37.5562
25.706	37.1791
25.724	36.8489
25.742	36.5646
25.76	36.3181
25.778	36.1024
25.796	35.9257
25.814	35.782
25.832	35.6579
25.85	35.5455
25.868	35.4565
25.886	35.3795
25.904	35.2999
25.922	35.2156
25.94	35.1346
25.958	35.0449
25.976	34.9345
25.994	34.8064
26.012	34.6628
26.03	34.4976
26.048	34.3051
26.066	34.0877
26.084	33.8465
26.102	33.5809
26.12	33.2896
26.138	32.9703
26.156	32.629
26.174	32.2728
26.192	31.9026
26.21	31.5129
26.228	31.1132
26.246	30.7131
26.264	30.3095
26.282	29.899
26.3	29.4949
26.318	29.1097
26.336	28.7373
26.354	28.377
26.372	28.0396
26.39	27.7349
26.408	27.455
26.426	27.2022
26.444	26.9861
26.462	26.8144
26.48	26.6805
26.498	26.5862
26.516	26.5368
26.534	26.5361
26.552	26.5806
26.57	26.6708
26.588	26.8088
26.606	26.9964
26.624	27.2334
26.642	27.5172
26.66	27.8451
26.678	28.2163
26.696	28.6334
26.714	29.0926
26.732	29.5894
26.75	30.1223
26.768	30.6963
26.786	31.3047
26.804	31.9405
26.822	32.6004
26.84	33.2904
26.858	34.0054
26.876	34.7395
26.894	35.4904
26.912	36.2631
26.93	37.053
26.948	37.8545
26.966	38.7037
26.984	39.6621
27.002	40.5817
27.02	41.3017
27.028	41.494