File: Bakgrunnsmateriale/MATLAB/FTIR/ftir_data/subCa/Mapping_25/BZ12041010-4_t05_cm-1.asc
PE IR       SPECTRUM    SPECTRUM    ASCII       PEDS        1.60
  -1
BZAB7E~1.ASC
17/04/10
09:14:49.00
17/04/10
09:14:49.00
tln
$BZ12041010-4_t0005$<tbV0>[-5.2,-12.4,9.0,0.0,22,1,0]
370
64

2002,4.07
MIRTGS : RIGHTBACK : INTERNAL 2
MIR : ON : INTERNAL 2
OPTKBR

0.200000
8
8.000000
FILLER
RATIO
SPECTRUM
UNLOCKED 256

DOUBLE
64
COMBINED
1
0
0

1.000000
RATIO

1
0
TRUE
51149
0
LEFT NOT FITTED RIGHT NOT FITTED 0
NONE
NONE
15600
12
4.427000
51148
TRUE
1 0 8 72 0 0 0 0

15798

#HDR
-1
-1
#GR
CM-1
%T
2.38419e-05
0.0
5000
-1.000000
4631
8
99.5719
51.5866
#DATA
5000	64.9431
4996	64.5358
4992	64.3545
4988	64.1817
4984	64.0644
4980	64.2623
4976	64.5117
4972	64.6844
4968	64.6193
4964	64.295
4960	64.4217
4956	64.961
4952	65.2236
4948	65.0468
4944	64.6625
4940	64.4231
4936	64.5504
4932	64.8595
4928	64.9292
4924	64.7832
4920	64.8258
4916	65.0677
4912	65.1847
4908	64.983
4904	64.5832
4900	64.3515
4896	64.4341
4892	64.5959
4888	64.6064
4884	64.7058
4880	64.8783
4876	64.7813
4872	64.614
4868	64.5442
4864	64.7052
4860	64.8237
4856	64.6044
4852	64.9135
4848	65.609
4844	65.8191
4840	65.3646
4836	64.2931
4832	64.1287
4828	65.0043
4824	65.1477
4820	64.2575
4816	63.2477
4812	62.952
4808	63.1812
4804	63.9367
4800	64.9751
4796	65.2953
4792	65.4683
4788	66.0837
4784	65.651
4780	64.3819
4776	64.1947
4772	64.7108
4768	65.0056
4764	65.2658
4760	65.6008
4756	65.9476
4752	66.0732
4748	65.5428
4744	64.9158
4740	65.1262
4736	65.3678
4732	64.7577
4728	64.2707
4724	64.4302
4720	64.9836
4716	65.7642
4712	66.068
4708	65.7557
4704	64.9894
4700	64.1751
4696	64.0524
4692	64.2438
4688	64.4906
4684	64.7019
4680	64.3563
4676	64.0149
4672	64.349
4668	64.7521
4664	64.8205
4660	64.7258
4656	64.7077
4652	65.2285
4648	65.9406
4644	66.0739
4640	65.6109
4636	65.1919
4632	65.1715
4628	65.1664
4624	64.9453
4620	64.8172
4616	65.0698
4612	65.3316
4608	65.256
4604	65.1242
4600	65.06
4596	64.7644
4592	64.3897
4588	64.4187
4584	64.7954
4580	65.1722
4576	65.448
4572	65.6011
4568	65.3537
4564	65.0881
4560	65.1896
4556	65.2738
4552	65.3726
4548	65.346
4544	65.1973
4540	65.1775
4536	64.9825
4532	64.9701
4528	65.3278
4524	65.4998
4520	65.5775
4516	65.7223
4512	65.7647
4508	66.0251
4504	66.136
4500	65.5115
4496	63.6791
4492	60.9444
4488	60.6637
4484	61.749
4480	61.9688
4476	65.8919
4472	67.3766
4468	57.8399
4464	51.5866
4460	57.9432
4456	65.4628
4452	67.1116
4448	66.5959
4444	66.4209
4440	65.8667
4436	65.6146
4432	65.9801
4428	66.2103
4424	66.2466
4420	66.1087
4416	66.0169
4412	66.0319
4408	65.7712
4404	65.5253
4400	65.5348
4396	65.4934
4392	65.457
4388	65.4257
4384	65.3477
4380	65.4168
4376	65.641
4372	65.7124
4368	65.4987
4364	65.2819
4360	65.1268
4356	65.0314
4352	65.2032
4348	65.4823
4344	65.6379
4340	65.6654
4336	65.4521
4332	65.1758
4328	65.1251
4324	65.1148
4320	65.061
4316	65.08
4312	65.0104
4308	64.7926
4304	64.68
4300	64.7083
4296	64.8838
4292	65.0908
4288	65.0529
4284	64.9882
4280	65.0191
4276	64.9799
4272	64.9745
4268	64.9764
4264	65.034
4260	65.1847
4256	65.1533
4252	64.9836
4248	64.9257
4244	65.0842
4240	65.2735
4236	65.2788
4232	65.1729
4228	64.994
4224	64.8531
4220	64.9143
4216	64.9596
4212	64.9554
4208	65.0551
4204	65.1432
4200	65.1635
4196	65.1153
4192	65.0791
4188	65.1596
4184	65.2616
4180	65.2234
4176	65.1077
4172	65.0801
4168	65.1243
4164	65.1408
4160	65.0934
4156	65.0601
4152	65.1051
4148	65.0526
4144	64.859
4140	64.8209
4136	64.8693
4132	64.8396
4128	64.8587
4124	64.8485
4120	64.7934
4116	64.7756
4112	64.9359
4108	65.2019
4104	65.1748
4100	65.0419
4096	65.12
4092	65.2191
4088	65.1667
4084	65.1092
4080	65.1144
4076	65.062
4072	65.1079
4068	65.2904
4064	65.3835
4060	65.3219
4056	65.1979
4052	65.1536
4048	65.2603
4044	65.3258
4040	65.2015
4036	65.0754
4032	65.0341
4028	65.0596
4024	65.1401
4020	65.2168
4016	65.2244
4012	65.1217
4008	64.9978
4004	64.9595
4000	65.0158
3996	65.0477
3992	65.1426
3988	65.2709
3984	65.1248
3980	64.991
3976	65.1072
3972	65.2561
3968	65.2916
3964	65.1661
3960	64.9782
3956	64.9296
3952	65.1073
3948	65.2803
3944	65.2626
3940	65.073
3936	64.9176
3932	65.0588
3928	65.3007
3924	65.3875
3920	65.4004
3916	65.3731
3912	65.3404
3908	65.3834
3904	65.4701
3900	65.4935
3896	65.4235
3892	65.3344
3888	65.31
3884	65.3499
3880	65.4006
3876	65.3978
3872	65.292
3868	65.1514
3864	65.0535
3860	65.1744
3856	65.4876
3852	65.5185
3848	65.3526
3844	65.4296
3840	65.6428
3836	65.704
3832	65.5567
3828	65.3915
3824	65.3644
3820	65.3955
3816	65.3371
3812	65.2526
3808	65.2813
3804	65.3497
3800	65.3115
3796	65.2149
3792	65.1911
3788	65.1728
3784	65.0715
3780	64.9899
3776	65.0007
3772	65.0867
3768	65.1737
3764	65.2457
3760	65.2982
3756	65.2995
3752	65.3608
3748	65.4655
3744	65.4575
3740	65.4119
3736	65.3932
3732	65.3299
3728	65.2814
3724	65.2494
3720	65.2387
3716	65.3141
3712	65.3695
3708	65.3556
3704	65.3379
3700	65.2921
3696	65.2535
3692	65.2655
3688	65.2107
3684	65.1276
3680	65.2619
3676	65.5695
3672	65.6595
3668	65.488
3664	65.3594
3660	65.3617
3656	65.4093
3652	65.4774
3648	65.526
3644	65.5504
3640	65.5714
3636	65.5447
3632	65.5425
3628	65.515
3624	65.3769
3620	65.298
3616	65.348
3612	65.4044
3608	65.4044
3604	65.3798
3600	65.331
3596	65.2646
3592	65.2321
3588	65.2401
3584	65.2225
3580	65.1998
3576	65.1658
3572	65.122
3568	65.2546
3564	65.426
3560	65.4504
3556	65.4935
3552	65.5145
3548	65.425
3544	65.3267
3540	65.2664
3536	65.2531
3532	65.2826
3528	65.2762
3524	65.2513
3520	65.3096
3516	65.3435
3512	65.2932
3508	65.237
3504	65.2305
3500	65.2973
3496	65.3523
3492	65.3585
3488	65.2686
3484	65.1637
3480	65.2242
3476	65.2866
3472	65.2898
3468	65.3727
3464	65.4295
3460	65.3723
3456	65.281
3452	65.2514
3448	65.313
3444	65.3568
3440	65.314
3436	65.2645
3432	65.2365
3428	65.1894
3424	65.1067
3420	65.0674
3416	65.1474
3412	65.252
3408	65.2784
3404	65.2719
3400	65.3039
3396	65.3661
3392	65.3709
3388	65.3159
3384	65.2991
3380	65.2645
3376	65.2175
3372	65.2929
3368	65.4293
3364	65.456
3360	65.3309
3356	65.2077
3352	65.1524
3348	65.132
3344	65.2386
3340	65.345
3336	65.2807
3332	65.2257
3328	65.2685
3324	65.3055
3320	65.2873
3316	65.2842
3312	65.3205
3308	65.2809
3304	65.206
3300	65.181
3296	65.1948
3292	65.2293
3288	65.2302
3284	65.2151
3280	65.2063
3276	65.1702
3272	65.122
3268	65.1264
3264	65.2441
3260	65.3848
3256	65.4248
3252	65.4253
3248	65.4135
3244	65.3317
3240	65.3083
3236	65.4103
3232	65.4196
3228	65.2915
3224	65.1499
3220	65.0746
3216	65.1518
3212	65.2273
3208	65.1832
3204	65.1901
3200	65.3104
3196	65.431
3192	65.3851
3188	65.2322
3184	65.2198
3180	65.2686
3176	65.252
3172	65.2633
3168	65.2876
3164	65.2623
3160	65.2309
3156	65.2303
3152	65.212
3148	65.2199
3144	65.2982
3140	65.3105
3136	65.2688
3132	65.2549
3128	65.2111
3124	65.142
3120	65.1291
3116	65.2153
3112	65.2935
3108	65.2902
3104	65.2864
3100	65.3045
3096	65.3243
3092	65.3906
3088	65.4224
3084	65.3529
3080	65.2271
3076	65.0999
3072	65.1062
3068	65.1785
3064	65.1998
3060	65.2659
3056	65.3397
3052	65.3548
3048	65.3455
3044	65.3055
3040	65.2069
3036	65.0873
3032	65.092
3028	65.1885
3024	65.2358
3020	65.2861
3016	65.3012
3012	65.2187
3008	65.1306
3004	65.0548
3000	65.0274
2996	65.0811
2992	65.1547
2988	65.1936
2984	65.1591
2980	65.1219
2976	65.1639
2972	65.2218
2968	65.2343
2964	65.2294
2960	65.2496
2956	65.2422
2952	65.1772
2948	65.173
2944	65.2074
2940	65.1629
2936	65.1422
2932	65.1448
2928	65.1294
2924	65.1289
2920	65.1147
2916	65.1529
2912	65.2251
2908	65.238
2904	65.1903
2900	65.1689
2896	65.1919
2892	65.1842
2888	65.1659
2884	65.1917
2880	65.2183
2876	65.1847
2872	65.1367
2868	65.1653
2864	65.2546
2860	65.2903
2856	65.2298
2852	65.1784
2848	65.2052
2844	65.2615
2840	65.2789
2836	65.2192
2832	65.162
2828	65.2053
2824	65.2426
2820	65.2009
2816	65.2123
2812	65.2782
2808	65.262
2804	65.2403
2800	65.2619
2796	65.2055
2792	65.1416
2788	65.1676
2784	65.2247
2780	65.2455
2776	65.2403
2772	65.2453
2768	65.258
2764	65.2519
2760	65.2098
2756	65.1826
2752	65.2352
2748	65.3265
2744	65.3642
2740	65.3817
2736	65.4227
2732	65.4044
2728	65.3051
2724	65.2374
2720	65.2602
2716	65.2904
2712	65.2764
2708	65.2551
2704	65.257
2700	65.2697
2696	65.2546
2692	65.2289
2688	65.1966
2684	65.1204
2680	65.1225
2676	65.2771
2672	65.3652
2668	65.3179
2664	65.296
2660	65.2942
2656	65.2738
2652	65.2627
2648	65.254
2644	65.2267
2640	65.2297
2636	65.297
2632	65.3176
2628	65.2632
2624	65.2535
2620	65.2992
2616	65.3049
2612	65.3024
2608	65.3425
2604	65.3631
2600	65.3485
2596	65.3295
2592	65.3103
2588	65.3039
2584	65.3131
2580	65.3492
2576	65.3749
2572	65.3168
2568	65.2512
2564	65.2563
2560	65.2888
2556	65.3011
2552	65.305
2548	65.3162
2544	65.3056
2540	65.2874
2536	65.2831
2532	65.293
2528	65.3199
2524	65.3037
2520	65.2682
2516	65.2657
2512	65.2877
2508	65.3351
2504	65.3355
2500	65.2959
2496	65.3163
2492	65.3707
2488	65.3814
2484	65.3144
2480	65.1996
2476	65.1725
2472	65.2498
2468	65.2932
2464	65.3108
2460	65.3394
2456	65.3543
2452	65.3356
2448	65.2485
2444	65.19
2440	65.2343
2436	65.2621
2432	65.2465
2428	65.266
2424	65.3013
2420	65.3073
2416	65.2884
2412	65.2966
2408	65.3219
2404	65.3171
2400	65.3021
2396	65.2803
2392	65.2747
2388	65.2949
2384	65.2581
2380	65.1942
2376	65.2021
2372	65.2519
2368	65.2691
2364	65.2456
2360	65.269
2356	65.3343
2352	65.3463
2348	65.3048
2344	65.2575
2340	65.2709
2336	65.3095
2332	65.2659
2328	65.2108
2324	65.2422
2320	65.299
2316	65.331
2312	65.3443
2308	65.3352
2304	65.3085
2300	65.2725
2296	65.2639
2292	65.2867
2288	65.294
2284	65.2955
2280	65.3033
2276	65.3088
2272	65.2978
2268	65.2686
2264	65.2501
2260	65.2494
2256	65.2761
2252	65.3209
2248	65.3737
2244	65.3982
2240	65.3629
2236	65.341
2232	65.3508
2228	65.3507
2224	65.3677
2220	65.4005
2216	65.4109
2212	65.3782
2208	65.3228
2204	65.2985
2200	65.283
2196	65.278
2192	65.3329
2188	65.3807
2184	65.3403
2180	65.2912
2176	65.3128
2172	65.3339
2168	65.3502
2164	65.3904
2160	65.3914
2156	65.3834
2152	65.4006
2148	65.3493
2144	65.2504
2140	65.2277
2136	65.2683
2132	65.2869
2128	65.2864
2124	65.3008
2120	65.2974
2116	65.2977
2112	65.3386
2108	65.3759
2104	65.3865
2100	65.3511
2096	65.2829
2092	65.2145
2088	65.1699
2084	65.2345
2080	65.3638
2076	65.417
2072	65.4023
2068	65.3806
2064	65.3705
2060	65.3742
2056	65.3957
2052	65.4293
2048	65.4325
2044	65.3777
2040	65.3406
2036	65.3615
2032	65.3672
2028	65.3642
2024	65.3791
2020	65.3813
2016	65.3615
2012	65.3311
2008	65.3415
2004	65.3728
2000	65.3624
1996	65.3456
1992	65.3516
1988	65.3619
1984	65.3625
1980	65.3354
1976	65.2949
1972	65.2864
1968	65.2682
1964	65.2298
1960	65.2715
1956	65.3365
1952	65.3141
1948	65.2911
1944	65.324
1940	65.3704
1936	65.3891
1932	65.3421
1928	65.3191
1924	65.3357
1920	65.3196
1916	65.327
1912	65.3661
1908	65.3902
1904	65.3828
1900	65.3487
1896	65.3359
1892	65.3316
1888	65.3135
1884	65.3224
1880	65.3314
1876	65.3342
1872	65.3417
1868	65.3485
1864	65.395
1860	65.4232
1856	65.3981
1852	65.3769
1848	65.3787
1844	65.3615
1840	65.2866
1836	65.2482
1832	65.2763
1828	65.2969
1824	65.332
1820	65.3601
1816	65.3254
1812	65.2982
1808	65.3321
1804	65.3841
1800	65.3979
1796	65.4003
1792	65.4389
1788	65.4577
1784	65.3961
1780	65.3326
1776	65.3713
1772	65.4416
1768	65.4481
1764	65.4187
1760	65.4098
1756	65.4114
1752	65.3752
1748	65.3239
1744	65.2762
1740	65.2391
1736	65.2491
1732	65.2062
1728	65.0955
1724	65.1317
1720	65.3392
1716	65.4258
1712	65.3378
1708	65.3261
1704	65.3984
1700	65.4572
1696	65.4214
1692	65.3205
1688	65.3641
1684	65.4646
1680	65.4519
1676	65.4571
1672	65.4765
1668	65.4207
1664	65.3774
1660	65.4095
1656	65.5419
1652	65.6132
1648	65.4763
1644	65.3353
1640	65.3626
1636	65.4313
1632	65.3875
1628	65.3273
1624	65.292
1620	65.2842
1616	65.3063
1612	65.2535
1608	65.2195
1604	65.2613
1600	65.2827
1596	65.2574
1592	65.208
1588	65.2284
1584	65.3362
1580	65.4575
1576	65.5225
1572	65.48
1568	65.3761
1564	65.4175
1560	65.6355
1556	65.6767
1552	65.5209
1548	65.4486
1544	65.5132
1540	65.5876
1536	65.545
1532	65.4579
1528	65.4635
1524	65.5555
1520	65.5811
1516	65.5368
1512	65.5709
1508	65.6077
1504	65.5131
1500	65.4316
1496	65.4256
1492	65.3929
1488	65.3502
1484	65.2897
1480	65.2549
1476	65.3164
1472	65.3784
1468	65.3657
1464	65.3368
1460	65.3664
1456	65.3837
1452	65.3197
1448	65.2895
1444	65.2965
1440	65.2897
1436	65.3311
1432	65.3993
1428	65.4383
1424	65.4587
1420	65.4265
1416	65.3194
1412	65.2502
1408	65.265
1404	65.2704
1400	65.2799
1396	65.3256
1392	65.356
1388	65.3507
1384	65.3162
1380	65.3031
1376	65.322
1372	65.317
1368	65.2777
1364	65.2466
1360	65.237
1356	65.2075
1352	65.1843
1348	65.2202
1344	65.2495
1340	65.2521
1336	65.2719
1332	65.2657
1328	65.2447
1324	65.2744
1320	65.3122
1316	65.3126
1312	65.3133
1308	65.3369
1304	65.3666
1300	65.34
1296	65.2461
1292	65.215
1288	65.266
1284	65.2771
1280	65.2479
1276	65.2507
1272	65.2096
1268	65.0983
1264	65.0937
1260	65.1907
1256	65.211
1252	65.2154
1248	65.2874
1244	65.3035
1240	65.2603
1236	65.2402
1232	65.2341
1228	65.2469
1224	65.2766
1220	65.2966
1216	65.2871
1212	65.2839
1208	65.3176
1204	65.3454
1200	65.3271
1196	65.2984
1192	65.2632
1188	65.1632
1184	65.0615
1180	65.0311
1176	65.0373
1172	65.0476
1168	65.0892
1164	65.197
1160	65.3002
1156	65.2838
1152	65.1918
1148	65.1572
1144	65.168
1140	65.1632
1136	65.1693
1132	65.2048
1128	65.2173
1124	65.2283
1120	65.2416
1116	65.2593
1112	65.262
1108	65.1986
1104	65.1389
1100	65.1358
1096	65.1832
1092	65.2816
1088	65.3725
1084	65.3457
1080	65.2305
1076	65.1381
1072	65.0984
1068	65.124
1064	65.1764
1060	65.1942
1056	65.2317
1052	65.3263
1048	65.3011
1044	65.1271
1040	65.0664
1036	65.1395
1032	65.2053
1028	65.2567
1024	65.3156
1020	65.3345
1016	65.215
1012	65.0741
1008	65.1176
1004	65.2289
1000	65.3139
996	 65.3631
992	 65.3281
988	 65.2725
984	 65.2641
980	 65.2883
976	 65.2977
972	 65.3506
968	 65.3787
964	 65.2714
960	 65.2131
956	 65.267
952	 65.2902
948	 65.2924
944	 65.2793
940	 65.2432
936	 65.295
932	 65.4348
928	 65.4654
924	 65.3415
920	 65.2282
916	 65.1956
912	 65.2367
908	 65.3032
904	 65.3528
900	 65.3377
896	 65.2633
892	 65.2491
888	 65.3456
884	 65.4153
880	 65.3646
876	 65.4116
872	 65.5632
868	 65.576
864	 65.4681
860	 65.4173
856	 65.4965
852	 65.5485
848	 65.4783
844	 65.3731
840	 65.3437
836	 65.4254
832	 65.5604
828	 65.6511
824	 65.5588
820	 65.4275
816	 65.4912
812	 65.5952
808	 65.5469
804	 65.4567
800	 65.4835
796	 65.5388
792	 65.5614
788	 65.583
784	 65.6602
780	 65.8169
776	 65.8178
772	 65.6616
768	 65.6219
764	 65.6638
760	 65.6413
756	 65.5738
752	 65.5154
748	 65.4004
744	 65.2486
740	 65.2381
736	 65.3494
732	 65.4473
728	 65.4813
724	 65.4412
720	 65.4696
716	 65.6783
712	 65.7949
708	 65.7564
704	 65.7395
700	 65.6191
696	 65.4646
692	 65.4936
688	 65.5924
684	 65.6186
680	 65.5935
676	 65.6292
672	 65.7987
668	 65.7937
664	 65.4998
660	 65.3434
656	 65.5005
652	 65.6561
648	 65.5294
644	 65.4252
640	 65.6468
636	 65.7866
632	 65.61
628	 65.4894
624	 65.6193
620	 65.8116
616	 65.9574
612	 66.1109
608	 66.067
604	 65.6471
600	 65.3771
596	 65.5555
592	 65.7794
588	 65.6774
584	 65.4442
580	 65.4683
576	 65.7392
572	 66.0378
568	 66.1607
564	 66.1205
560	 66.0765
556	 66.1143
552	 66.1375
548	 66.2274
544	 66.4979
540	 66.7111
536	 66.6237
532	 66.3446
528	 66.2941
524	 66.5004
520	 66.6585
516	 66.6754
512	 66.7356
508	 66.9227
504	 66.6893
500	 66.2396
496	 66.3257
492	 66.691
488	 66.8035
484	 66.6339
480	 66.1579
476	 65.7272
472	 65.7891
468	 65.7473
464	 65.2737
460	 65.4012
456	 66.4193
452	 67.1953
448	 67.2942
444	 67.2371
440	 67.3783
436	 67.2042
432	 66.1509
428	 65.3894
424	 65.8908
420	 66.8812
416	 66.2808
412	 66.1499
408	 71.8733
404	 75.5126
400	 70.1911
396	 70.2225
392	 79.0917
388	 85.4012
384	 87.9106
380	 88.4995
376	 89.9242
372	 98.0972
370	 99.5719