File: Bakgrunnsmateriale/MATLAB/FTIR/ftir_data/subCa/Mapping_25/BZ12041010-4_t03.asc
PE IR       SPECTRUM    SPECTRUM    ASCII       PEDS        1.60
  -1
BZ36BA~1.ASC
17/04/10
09:05:35.00
17/04/10
09:06:01.00
tln
$BZ12041010-4_t0003$<tbV0>[0.0,-12.4,9.0,0.0,22,1,0]
27.028
64

2002,4.07
MIRTGS : RIGHTBACK : INTERNAL 2
MIR : ON : INTERNAL 2
OPTKBR

0.200000
8
8.000000
FILLER
RATIO
SPECTRUM
UNLOCKED 256

DOUBLE
64
COMBINED
1
0
0

0.002000
RATIO

1
0
TRUE
51149
0
LEFT NOT FITTED RIGHT NOT FITTED 0
NONE
NONE
15600
12
4.427000
51148
TRUE
1 0 8 72 0 0 0 0

15798

#HDR
-1
-1
#GR
µM
%T
2.38419e-05
0.0
2.000000
0.002000
12515
8
68.9355
43.2019
#DATA
2.000000	 65.318
2.018000	 65.0668
2.036000	 65.1295
2.054000	 64.578
2.072000	 64.3242
2.090000	 62.9691
2.108000	 64.5277
2.126000	 65.0286
2.144000	 64.8439
2.162000	 65.5623
2.180000	 65.7851
2.198000	 66.3022
2.216000	 67.4692
2.234000	 48.4243
2.252000	 66.0682
2.270000	 66.6167
2.288000	 66.3305
2.306000	 65.7229
2.324000	 65.0291
2.342000	 65.2398
2.360000	 65.2239
2.378000	 64.7416
2.396000	 64.6177
2.414000	 64.9567
2.432000	 64.8438
2.450000	 65.0835
2.468000	 65.2135
2.486000	 65.2998
2.504000	 65.187
2.522000	 65.4079
2.540000	 65.2758
2.558000	 65.2565
2.576000	 65.3781
2.594000	 65.4065
2.612000	 65.3033
2.630000	 65.2884
2.648000	 65.1789
2.666000	 65.3004
2.684000	 65.141
2.702000	 65.1708
2.720000	 65.2365
2.738000	 65.4806
2.756000	 65.3988
2.774000	 65.3086
2.792000	 65.392
2.810000	 65.3574
2.828000	 65.2963
2.846000	 65.3072
2.864000	 65.2917
2.882000	 65.2622
2.900000	 65.3287
2.918000	 65.255
2.936000	 65.3708
2.954000	 65.2465
2.972000	 65.2452
2.990000	 65.1885
3.008000	 65.1909
3.026000	 65.0716
3.044000	 65.1735
3.062000	 65.2281
3.080000	 65.1729
3.098000	 65.0532
3.116000	 65.2785
3.134000	 65.1919
3.152000	 65.1412
3.170000	 65.36
3.188000	 65.3191
3.206000	 65.2587
3.224000	 65.1795
3.242000	 65.1687
3.260000	 65.0393
3.278000	 65.3679
3.296000	 65.2329
3.314000	 65.1274
3.332000	 65.1752
3.350000	 65.0858
3.368000	 65.1907
3.386000	 65.2004
3.404000	 65.1579
3.422000	 65.2395
3.440000	 65.2778
3.458000	 65.1746
3.476000	 65.213
3.494000	 65.0381
3.512000	 65.1324
3.530000	 65.2255
3.548000	 65.1963
3.566000	 65.2701
3.584000	 65.1949
3.602000	 65.209
3.620000	 65.2855
3.638000	 65.2575
3.656000	 65.3886
3.674000	 65.2143
3.692000	 65.2714
3.710000	 65.3537
3.728000	 65.1912
3.746000	 65.2021
3.764000	 65.3855
3.782000	 65.2483
3.800000	 65.3514
3.818000	 65.3031
3.836000	 65.2719
3.854000	 65.2354
3.872000	 65.3348
3.890000	 65.2907
3.908000	 65.3221
3.926000	 65.3401
3.944000	 65.2974
3.962000	 65.303
3.980000	 65.3573
3.998000	 65.2528
4.016000	 65.2477
4.034000	 65.2507
4.052000	 65.2949
4.070000	 65.3231
4.088000	 65.1542
4.106000	 65.3107
4.124000	 65.3375
4.141999	 65.2392
4.160000	 65.229
4.178000	 65.2594
4.196000	 65.2667
4.214000	 65.3199
4.232000	 65.2234
4.250000	 65.343
4.268000	 65.3382
4.286000	 65.4213
4.304000	 65.3129
4.322000	 65.3055
4.340000	 65.3473
4.358000	 65.3928
4.375999	 65.284
4.394000	 65.4582
4.412000	 65.258
4.430000	 65.2969
4.448000	 65.2374
4.466000	 65.3066
4.484000	 65.2339
4.502000	 65.392
4.520000	 65.3723
4.538000	 65.3312
4.556000	 65.1857
4.574000	 65.3133
4.592000	 65.3456
4.609999	 65.3067
4.628000	 65.341
4.646000	 65.4567
4.664000	 65.4383
4.682000	 65.2973
4.700000	 65.2828
4.718000	 65.2596
4.736000	 65.2974
4.754000	 65.3329
4.772000	 65.3683
4.790000	 65.4328
4.808000	 65.4512
4.826000	 65.354
4.843999	 65.3304
4.862000	 65.2992
4.880000	 65.3446
4.898000	 65.3677
4.916000	 65.4068
4.934000	 65.3937
4.952000	 65.2869
4.970000	 65.3551
4.988000	 65.4051
5.006000	 65.2787
5.024000	 65.3134
5.042000	 65.3611
5.060000	 65.346
5.077999	 65.3315
5.096000	 65.2998
5.114000	 65.2925
5.132000	 65.3333
5.150000	 65.4185
5.168000	 65.3212
5.186000	 65.267
5.204000	 65.3353
5.222000	 65.3268
5.240000	 65.2849
5.258000	 65.2658
5.276000	 65.2714
5.294000	 65.3537
5.312000	 65.317
5.330000	 65.2762
5.348000	 65.3465
5.366000	 65.3947
5.384000	 65.3888
5.402000	 65.4347
5.420000	 65.3878
5.438000	 65.3258
5.456000	 65.4165
5.474000	 65.4095
5.492000	 65.3663
5.510000	 65.394
5.528000	 65.4528
5.546000	 65.4508
5.564000	 65.4845
5.582000	 65.5017
5.600000	 65.3811
5.618000	 65.3329
5.636000	 65.4919
5.654000	 65.5286
5.672000	 65.4329
5.690000	 65.3763
5.708000	 65.3874
5.726000	 65.3769
5.744000	 65.3942
5.762000	 65.4557
5.780000	 65.3665
5.798000	 65.2703
5.816000	 65.3963
5.834000	 65.3912
5.852000	 65.3085
5.870000	 65.4772
5.888000	 65.6445
5.906000	 65.5138
5.923999	 65.5025
5.942000	 65.5633
5.960000	 65.4062
5.978000	 65.4136
5.996000	 65.3991
6.014000	 65.4023
6.032000	 65.4384
6.050000	 65.5803
6.068000	 65.6104
6.086000	 65.4308
6.104000	 65.2776
6.122000	 65.2608
6.140000	 65.2569
6.158000	 65.2622
6.176000	 65.3897
6.194000	 65.4013
6.212000	 65.1824
6.230000	 65.152
6.248000	 65.1919
6.266000	 65.1396
6.284000	 65.1098
6.302000	 65.1366
6.320000	 65.1914
6.338000	 65.2429
6.356000	 65.2523
6.374000	 65.284
6.392000	 65.4288
6.410000	 65.5496
6.428000	 65.4381
6.446000	 65.3241
6.464000	 65.3862
6.482000	 65.4413
6.500000	 65.3713
6.518000	 65.3451
6.536000	 65.3449
6.554000	 65.2945
6.572000	 65.3131
6.590000	 65.3499
6.608000	 65.4128
6.626000	 65.5313
6.644000	 65.4906
6.662000	 65.3765
6.680000	 65.4283
6.698000	 65.4442
6.716000	 65.3409
6.734000	 65.2848
6.752000	 65.2974
6.770000	 65.3799
6.788000	 65.4624
6.806000	 65.4723
6.824000	 65.4704
6.842000	 65.4864
6.860000	 65.4466
6.878000	 65.3272
6.896000	 65.2432
6.914000	 65.2385
6.932000	 65.2779
6.950000	 65.3786
6.968000	 65.4597
6.986000	 65.4515
7.004000	 65.4378
7.022000	 65.4773
7.040000	 65.4908
7.058000	 65.3999
7.076000	 65.2935
7.094000	 65.2656
7.112000	 65.2621
7.130000	 65.2714
7.148000	 65.3213
7.166000	 65.3353
7.184000	 65.2733
7.202000	 65.2091
7.220000	 65.1985
7.238000	 65.232
7.256000	 65.275
7.274000	 65.2954
7.292000	 65.2955
7.310000	 65.3198
7.328000	 65.3717
7.346000	 65.3855
7.364000	 65.3514
7.382000	 65.3366
7.400000	 65.3417
7.418000	 65.3116
7.436000	 65.2615
7.454000	 65.2526
7.472000	 65.2892
7.490000	 65.3141
7.508000	 65.2881
7.526000	 65.2462
7.544000	 65.2482
7.562000	 65.2861
7.580000	 65.3069
7.598000	 65.3036
7.616000	 65.3053
7.634000	 65.307
7.652000	 65.2791
7.670000	 65.235
7.688000	 65.219
7.706000	 65.2378
7.724000	 65.2722
7.742000	 65.3113
7.760000	 65.3401
7.778000	 65.3449
7.796000	 65.338
7.814000	 65.3326
7.832000	 65.311
7.850000	 65.2535
7.868000	 65.1789
7.886000	 65.1336
7.904000	 65.142
7.922000	 65.1739
7.940000	 65.1823
7.958000	 65.1665
7.976000	 65.159
7.994000	 65.1757
8.012000	 65.2126
8.030000	 65.2543
8.048000	 65.275
8.065999	 65.2602
8.084000	 65.2299
8.102000	 65.2155
8.120000	 65.222
8.138000	 65.2353
8.155999	 65.2479
8.173999	 65.2545
8.192000	 65.2423
8.210000	 65.2111
8.228000	 65.189
8.246000	 65.2037
8.263999	 65.2468
8.282000	 65.2853
8.300000	 65.3031
8.318000	 65.3118
8.336000	 65.3193
8.353999	 65.3132
8.372000	 65.2805
8.390000	 65.2277
8.408000	 65.1724
8.426000	 65.1279
8.443999	 65.1025
8.462000	 65.1036
8.480000	 65.1355
8.498000	 65.1914
8.516000	 65.2469
8.533999	 65.2696
8.552000	 65.2503
8.570000	 65.2155
8.588000	 65.1993
8.606000	 65.2098
8.624000	 65.2253
8.641999	 65.2245
8.660000	 65.212
8.678000	 65.2058
8.696000	 65.2026
8.714000	 65.1781
8.731999	 65.1213
8.750000	 65.0507
8.768000	 64.9934
8.786000	 64.9614
8.804000	 64.9567
8.821999	 64.9831
8.840000	 65.0368
8.858000	 65.0981
8.876000	 65.1453
8.894000	 65.1689
8.911999	 65.1755
8.930000	 65.1866
8.948000	 65.2232
8.966000	 65.2773
8.984000	 65.3027
9.001999	 65.2544
9.020000	 65.1369
9.038000	 65.0067
9.056000	 64.9163
9.074000	 64.8741
9.092000	 64.8602
9.109999	 64.8636
9.128000	 64.8906
9.146000	 64.9438
9.164000	 65.0083
9.182000	 65.065
9.199999	 65.1062
9.218000	 65.1361
9.236000	 65.1647
9.254000	 65.2018
9.272000	 65.2463
9.289999	 65.2795
9.308000	 65.2757
9.326000	 65.2285
9.344000	 65.1621
9.362000	 65.1142
9.379999	 65.1064
9.398000	 65.1324
9.416000	 65.1731
9.434000	 65.2153
9.452000	 65.2541
9.469999	 65.2824
9.488000	 65.2893
9.506000	 65.2676
9.524000	 65.222
9.542000	 65.1665
9.560000	 65.1146
9.577999	 65.0738
9.596000	 65.0481
9.614000	 65.0385
9.632000	 65.0415
9.650000	 65.0482
9.667999	 65.0499
9.686000	 65.045
9.704000	 65.0396
9.722000	 65.0409
9.740000	 65.0485
9.757999	 65.0547
9.776000	 65.0512
9.794000	 65.0354
9.812000	 65.0129
9.830000	 64.9942
9.847999	 64.9904
9.866000	 65.0101
9.884000	 65.0552
9.902000	 65.119
9.920000	 65.1886
9.937999	 65.2511
9.956000	 65.2991
9.974000	 65.3287
9.992000	 65.3332
10.01	65.3033
10.028	65.2351
10.046	65.1411
10.064	65.05
10.082	64.9923
10.1	64.9829
10.118	65.0122
10.136	65.0561
10.154	65.0936
10.172	65.118
10.19	65.1348
10.208	65.1503
10.226	65.1655
10.244	65.1771
10.262	65.1841
10.28	65.19
10.298	65.199
10.316	65.2102
10.334	65.2156
10.352	65.2072
10.37	65.185
10.388	65.1597
10.406	65.1454
10.424	65.1489
10.442	65.164
10.46	65.1791
10.478	65.187
10.496	65.1916
10.514	65.203
10.532	65.2278
10.55	65.2623
10.568	65.2953
10.586	65.3162
10.604	65.3235
10.622	65.3254
10.64	65.3325
10.658	65.3497
10.676	65.3738
10.694	65.3963
10.712	65.409
10.73	65.4085
10.748	65.3967
10.766	65.3791
10.784	65.3615
10.802	65.3475
10.82	65.3357
10.838	65.3211
10.856	65.2989
10.874	65.2681
10.892	65.2342
10.91	65.2079
10.928	65.1995
10.946	65.2147
10.964	65.2508
10.982	65.2982
11	65.3456
11.018	65.3847
11.036	65.4134
11.054	65.4345
11.072	65.4528
11.09	65.4719
11.108	65.4931
11.126	65.5142
11.144	65.5306
11.162	65.5373
11.18	65.5312
11.198	65.5134
11.216	65.4889
11.234	65.4651
11.252	65.4491
11.27	65.4436
11.288	65.4461
11.306	65.4497
11.324	65.4472
11.342	65.4349
11.36	65.4147
11.378	65.3938
11.396	65.381
11.414	65.3829
11.432	65.4026
11.45	65.4384
11.468	65.4854
11.486	65.5375
11.504	65.5891
11.522	65.635
11.54	65.6716
11.558	65.6965
11.576	65.7085
11.594	65.7074
11.612	65.6953
11.63	65.6744
11.648	65.6464
11.666	65.6133
11.684	65.5761
11.702	65.5361
11.72	65.4953
11.738	65.4568
11.756	65.4236
11.774	65.3982
11.792	65.3815
11.81	65.3727
11.828	65.3699
11.846	65.3709
11.864	65.3739
11.882	65.3783
11.9	65.3843
11.918	65.3926
11.936	65.4028
11.954	65.4139
11.972	65.4251
11.99	65.4348
12.008	65.4432
12.026	65.4511
12.044	65.4601
12.062	65.4708
12.08	65.4822
12.098	65.4919
12.116	65.497
12.134	65.4956
12.152	65.489
12.17	65.4812
12.188	65.4779
12.206	65.4847
12.224	65.5045
12.242	65.5353
12.26	65.5709
12.278	65.6021
12.296	65.619
12.314	65.615
12.332	65.5885
12.35	65.5437
12.368	65.4893
12.386	65.4361
12.404	65.3934
12.422	65.366
12.44	65.3538
12.458	65.3521
12.476	65.3538
12.494	65.3523
12.512	65.3433
12.53	65.3263
12.548	65.304
12.566	65.281
12.584	65.2624
12.602	65.2521
12.62	65.252
12.638	65.2615
12.656	65.2785
12.674	65.2994
12.692	65.3216
12.71	65.3433
12.728	65.3644
12.746	65.3858
12.764	65.4094
12.782	65.4372
12.8	65.4702
12.818	65.5082
12.836	65.5495
12.854	65.5914
12.872	65.6308
12.89	65.6649
12.908	65.6915
12.926	65.7092
12.944	65.7178
12.962	65.717
12.98	65.7063
12.998	65.6858
13.016	65.6561
13.034	65.619
13.052	65.5779
13.07	65.5371
13.088	65.5012
13.106	65.4736
13.124	65.4558
13.142	65.4466
13.16	65.4426
13.178	65.4387
13.196	65.43
13.214	65.413
13.232	65.3865
13.25	65.352
13.268	65.3128
13.286	65.2734
13.304	65.2381
13.322	65.2096
13.34	65.1892
13.358	65.1767
13.376	65.171
13.394	65.1711
13.412	65.1764
13.43	65.1867
13.448	65.2023
13.466	65.2233
13.484	65.2491
13.502	65.2787
13.52	65.3106
13.538	65.3432
13.556	65.3749
13.574	65.4045
13.592	65.4312
13.61	65.4552
13.628	65.4765
13.646	65.4951
13.664	65.5104
13.682	65.5214
13.7	65.5268
13.718	65.5249
13.736	65.514
13.754	65.4936
13.772	65.4639
13.79	65.4264
13.808	65.3834
13.826	65.3382
13.844	65.2942
13.862	65.2548
13.88	65.2226
13.898	65.1995
13.916	65.1862
13.934	65.1825
13.952	65.1873
13.97	65.1988
13.988	65.215
14.006	65.234
14.024	65.2544
14.042	65.2752
14.06	65.2958
14.078	65.3158
14.096	65.3349
14.114	65.3526
14.132	65.3684
14.15	65.3813
14.168	65.3904
14.186	65.3949
14.204	65.3945
14.222	65.3892
14.24	65.3797
14.258	65.3671
14.276	65.3528
14.294	65.3385
14.312	65.3258
14.33	65.3162
14.348	65.3105
14.366	65.3092
14.384	65.3119
14.402	65.3175
14.42	65.3245
14.438	65.3312
14.456	65.3362
14.474	65.3382
14.492	65.3365
14.51	65.3314
14.528	65.324
14.546	65.3159
14.564	65.309
14.582	65.3055
14.6	65.3072
14.618	65.3155
14.636	65.3311
14.654	65.3538
14.672	65.3831
14.69	65.418
14.708	65.4569
14.726	65.4987
14.744	65.5418
14.762	65.5851
14.78	65.6274
14.798	65.6675
14.816	65.7041
14.834	65.7356
14.852	65.7603
14.87	65.7767
14.888	65.7837
14.906	65.7811
14.924	65.7691
14.942	65.7493
14.96	65.7246
14.978	65.6981
14.996	65.6734
15.014	65.6539
15.032	65.6426
15.05	65.6409
15.068	65.6491
15.086	65.6659
15.104	65.6891
15.122	65.7148
15.14	65.7393
15.158	65.7594
15.176	65.7728
15.194	65.7778
15.212	65.7745
15.23	65.7642
15.248	65.7489
15.266	65.7309
15.284	65.7134
15.302	65.6985
15.32	65.6872
15.338	65.6801
15.356	65.6763
15.374	65.6741
15.392	65.6716
15.41	65.6667
15.428	65.6574
15.446	65.6423
15.464	65.621
15.482	65.5939
15.5	65.5619
15.518	65.5274
15.536	65.4927
15.554	65.4599
15.572	65.4313
15.59	65.4087
15.608	65.393
15.626	65.3845
15.644	65.3824
15.662	65.3854
15.68	65.3914
15.698	65.3982
15.716	65.403
15.734	65.4031
15.752	65.3969
15.77	65.3829
15.788	65.3603
15.806	65.3299
15.824	65.2929
15.842	65.2515
15.86	65.2093
15.878	65.1695
15.896	65.1354
15.914	65.1112
15.932	65.0994
15.95	65.1018
15.968	65.1196
15.986	65.1525
16.004	65.199
16.022	65.2576
16.04	65.3242
16.058	65.3956
16.076	65.4688
16.094	65.5396
16.112	65.6053
16.13	65.6639
16.148	65.7136
16.166	65.7537
16.184	65.7844
16.202	65.8059
16.22	65.8195
16.238	65.8259
16.256	65.8263
16.274	65.822
16.292	65.8135
16.31	65.8014
16.328	65.7862
16.346	65.7684
16.364	65.7484
16.382	65.7269
16.4	65.7045
16.418	65.6821
16.436	65.6608
16.454	65.6422
16.472	65.6271
16.49	65.617
16.508	65.6128
16.526	65.6148
16.544	65.6235
16.562	65.6382
16.58	65.6584
16.598	65.6825
16.616	65.7088
16.634	65.7358
16.652	65.7608
16.67	65.7824
16.688	65.7992
16.706	65.8093
16.724	65.8125
16.742	65.8081
16.76	65.7965
16.778	65.7783
16.796	65.7544
16.814	65.7265
16.832	65.6957
16.85	65.664
16.868	65.6328
16.886	65.6032
16.904	65.5769
16.922	65.5547
16.94	65.5377
16.958	65.5266
16.976	65.5215
16.994	65.5227
17.012	65.5297
17.03	65.5423
17.048	65.5596
17.066	65.5808
17.084	65.6049
17.102	65.6302
17.12	65.6562
17.138	65.6811
17.156	65.7043
17.174	65.725
17.192	65.7428
17.21	65.7577
17.228	65.7698
17.246	65.7802
17.264	65.7891
17.282	65.7982
17.3	65.808
17.318	65.8201
17.336	65.8353
17.354	65.8542
17.372	65.8774
17.39	65.9048
17.408	65.9361
17.426	65.9704
17.444	66.0071
17.462	66.0441
17.48	66.0809
17.498	66.1152
17.516	66.1459
17.534	66.1717
17.552	66.1914
17.57	66.2044
17.588	66.2101
17.606	66.2086
17.624	66.2002
17.642	66.1857
17.66	66.1656
17.678	66.1418
17.696	66.1149
17.714	66.0868
17.732	66.0586
17.75	66.0315
17.768	66.007
17.786	65.9855
17.804	65.9681
17.822	65.955
17.84	65.9464
17.858	65.9418
17.876	65.941
17.894	65.9431
17.912	65.9476
17.93	65.9532
17.948	65.9594
17.966	65.9652
17.984	65.9703
18.002	65.9739
18.02	65.9763
18.038	65.9773
18.056	65.9774
18.074	65.9769
18.092	65.977
18.11	65.9779
18.128	65.981
18.146	65.9863
18.164	65.9949
18.182	66.0067
18.2	66.0218
18.218	66.0397
18.236	66.0603
18.254	66.0821
18.272	66.1048
18.29	66.1264
18.308	66.1468
18.326	66.1639
18.344	66.1777
18.362	66.1866
18.38	66.1908
18.398	66.1895
18.416	66.1834
18.434	66.1726
18.452	66.1579
18.47	66.14
18.488	66.1203
18.506	66.0994
18.524	66.0788
18.542	66.0589
18.56	66.0409
18.578	66.0251
18.596	66.0119
18.614	66.0015
18.632	65.9935
18.65	65.9879
18.668	65.9839
18.686	65.9814
18.704	65.9794
18.722	65.9778
18.74	65.976
18.758	65.9741
18.776	65.9721
18.794	65.9702
18.812	65.969
18.83	65.9688
18.848	65.9706
18.866	65.9744
18.884	65.9812
18.902	65.9908
18.92	66.0038
18.938	66.0194
18.956	66.0375
18.974	66.0572
18.992	66.0774
19.01	66.0973
19.028	66.1155
19.046	66.1314
19.064	66.1436
19.082	66.152
19.1	66.1558
19.118	66.1553
19.136	66.1504
19.154	66.1417
19.172	66.1302
19.19	66.1165
19.208	66.1024
19.226	66.0882
19.244	66.0761
19.262	66.0661
19.28	66.0601
19.298	66.0581
19.316	66.0613
19.334	66.0697
19.352	66.0834
19.37	66.1024
19.388	66.1262
19.406	66.1548
19.424	66.1867
19.442	66.2221
19.46	66.2588
19.478	66.2971
19.496	66.3349
19.514	66.3718
19.532	66.4065
19.55	66.4381
19.568	66.466
19.586	66.4891
19.604	66.5075
19.622	66.5203
19.64	66.5278
19.658	66.5297
19.676	66.5262
19.694	66.5181
19.712	66.5051
19.73	66.4885
19.748	66.4682
19.766	66.4453
19.784	66.4201
19.802	66.3934
19.82	66.3656
19.838	66.337
19.856	66.3085
19.874	66.2798
19.892	66.2517
19.91	66.224
19.928	66.1971
19.946	66.171
19.964	66.1459
19.982	66.1216
20	66.0982
20.018	66.0756
20.036	66.0537
20.054	66.0323
20.072	66.0114
20.09	65.9908
20.108	65.9705
20.126	65.9502
20.144	65.9298
20.162	65.9094
20.18	65.8888
20.198	65.8681
20.216	65.8474
20.234	65.8268
20.252	65.8068
20.27	65.7873
20.288	65.7693
20.306	65.7527
20.324	65.7383
20.342	65.7266
20.36	65.7178
20.378	65.713
20.396	65.7119
20.414	65.7153
20.432	65.7232
20.45	65.7358
20.468	65.7532
20.486	65.7751
20.504	65.8011
20.522	65.8312
20.54	65.864
20.558	65.8997
20.576	65.9366
20.594	65.9741
20.612	66.0117
20.63	66.0472
20.648	66.0812
20.666	66.1115
20.684	66.1381
20.702	66.1602
20.72	66.177
20.738	66.1886
20.756	66.1944
20.774	66.1944
20.792	66.1891
20.81	66.1783
20.828	66.1626
20.846	66.1427
20.864	66.1185
20.882	66.0916
20.9	66.0616
20.918	66.0298
20.936	65.9967
20.954	65.9623
20.972	65.9278
20.99	65.893
21.008	65.8584
21.026	65.8243
21.044	65.7904
21.062	65.757
21.08	65.724
21.098	65.6913
21.116	65.6588
21.134	65.6265
21.152	65.5944
21.17	65.5625
21.188	65.5306
21.206	65.4989
21.224	65.4674
21.242	65.4363
21.26	65.4056
21.278	65.3758
21.296	65.3469
21.314	65.3191
21.332	65.2934
21.35	65.2694
21.368	65.248
21.386	65.2293
21.404	65.2136
21.422	65.2019
21.44	65.1937
21.458	65.1898
21.476	65.1902
21.494	65.1951
21.512	65.2047
21.53	65.219
21.548	65.2379
21.566	65.2614
21.584	65.2895
21.602	65.3216
21.62	65.3578
21.638	65.3977
21.656	65.4404
21.674	65.4863
21.692	65.5341
21.71	65.5836
21.728	65.6345
21.746	65.6854
21.764	65.7369
21.782	65.7878
21.8	65.8371
21.818	65.8852
21.836	65.9307
21.854	65.9736
21.872	66.0134
21.89	66.0491
21.908	66.0809
21.926	66.1081
21.944	66.13
21.962	66.147
21.98	66.1582
21.998	66.1637
22.016	66.1635
22.034	66.1572
22.052	66.1447
22.07	66.1267
22.088	66.1033
22.106	66.0743
22.124	66.0415
22.142	66.0046
22.16	65.9643
22.178	65.923
22.196	65.8798
22.214	65.8363
22.232	65.795
22.25	65.7545
22.268	65.7175
22.286	65.6853
22.304	65.6571
22.322	65.6353
22.34	65.6202
22.358	65.6117
22.376	65.611
22.394	65.6182
22.412	65.633
22.43	65.6555
22.448	65.6859
22.466	65.723
22.484	65.7664
22.502	65.8164
22.52	65.8709
22.538	65.9293
22.556	65.9918
22.574	66.0558
22.592	66.1213
22.61	66.1879
22.628	66.2531
22.646	66.3175
22.664	66.3801
22.682	66.4388
22.7	66.4943
22.718	66.5456
22.736	66.5911
22.754	66.6317
22.772	66.6665
22.79	66.6949
22.808	66.7171
22.826	66.7331
22.844	66.7429
22.862	66.7463
22.88	66.7441
22.898	66.7362
22.916	66.7227
22.934	66.7048
22.952	66.6825
22.97	66.6559
22.988	66.6266
23.006	66.5948
23.024	66.5605
23.042	66.5255
23.06	66.4897
23.078	66.4533
23.096	66.4184
23.114	66.385
23.132	66.3531
23.15	66.3241
23.168	66.2979
23.186	66.2746
23.204	66.2551
23.222	66.2394
23.24	66.2274
23.258	66.2184
23.276	66.213
23.294	66.2106
23.312	66.2099
23.33	66.2114
23.348	66.2145
23.366	66.217
23.384	66.2194
23.402	66.2212
23.42	66.2202
23.438	66.2164
23.456	66.2098
23.474	66.1985
23.492	66.1822
23.51	66.1613
23.528	66.1347
23.546	66.1019
23.564	66.0633
23.582	66.0192
23.6	65.9695
23.618	65.9141
23.636	65.8545
23.654	65.7913
23.672	65.7236
23.69	65.6541
23.708	65.5841
23.726	65.5121
23.744	65.4409
23.762	65.3726
23.78	65.3055
23.798	65.2417
23.816	65.1837
23.834	65.1303
23.852	65.0825
23.87	65.0423
23.888	65.0093
23.906	64.9836
23.924	64.966
23.942	64.9568
23.96	64.9555
23.978	64.962
23.996	64.9761
24.014	64.9981
24.032	65.0268
24.05	65.0619
24.068	65.1038
24.086	65.1514
24.104	65.2037
24.122	65.2612
24.14	65.3234
24.158	65.3896
24.176	65.4601
24.194	65.5347
24.212	65.6128
24.23	65.6945
24.248	65.7798
24.266	65.8683
24.284	65.9598
24.302	66.0546
24.32	66.1518
24.338	66.2504
24.356	66.3515
24.374	66.4537
24.392	66.5549
24.41	66.6561
24.428	66.7569
24.446	66.8539
24.464	66.9466
24.482	67.0365
24.5	67.1197
24.518	67.1929
24.536	67.2588
24.554	67.3151
24.572	67.3581
24.59	67.3886
24.608	67.4067
24.626	67.41
24.644	67.3968
24.662	67.3685
24.68	67.3252
24.698	67.2667
24.716	67.1918
24.734	67.1028
24.752	67.003
24.77	66.8911
24.788	66.7673
24.806	66.6372
24.824	66.5042
24.842	66.3638
24.86	66.222
24.878	66.086
24.896	65.9528
24.914	65.8234
24.932	65.7044
24.95	65.5995
24.968	65.5045
24.986	65.4235
25.004	65.3611
25.022	65.3163
25.04	65.2884
25.058	65.2788
25.076	65.2888
25.094	65.3181
25.112	65.3642
25.13	65.4249
25.148	65.5029
25.166	65.5957
25.184	65.6982
25.202	65.8087
25.22	65.9308
25.238	66.0583
25.256	66.1849
25.274	66.3136
25.292	66.4436
25.31	66.5694
25.328	66.6879
25.346	66.8022
25.364	66.9103
25.382	67.0097
25.4	67.1001
25.418	67.1824
25.436	67.257
25.454	67.3238
25.472	67.3818
25.49	67.4328
25.508	67.4793
25.526	67.5206
25.544	67.5559
25.562	67.5892
25.58	67.6246
25.598	67.6593
25.616	67.6945
25.634	67.7345
25.652	67.7824
25.67	67.8359
25.688	67.8951
25.706	67.9607
25.724	68.0342
25.742	68.1148
25.76	68.1992
25.778	68.2844
25.796	68.374
25.814	68.4655
25.832	68.5531
25.85	68.6337
25.868	68.7122
25.886	68.7838
25.904	68.8417
25.922	68.8853
25.94	68.918
25.958	68.9345
25.976	68.9294
25.994	68.9039
26.012	68.8592
26.03	68.7931
26.048	68.7033
26.066	68.5895
26.084	68.4538
26.102	68.2983
26.12	68.1235
26.138	67.926
26.156	67.7114
26.174	67.486
26.192	67.2504
26.21	66.9996
26.228	66.7429
26.246	66.4899
26.264	66.2386
26.282	65.9855
26.3	65.7407
26.318	65.5139
26.336	65.2999
26.354	65.0985
26.372	64.9187
26.39	64.7687
26.408	64.6438
26.426	64.5441
26.444	64.4738
26.462	64.437
26.48	64.4341
26.498	64.4612
26.516	64.5143
26.534	64.5914
26.552	64.698
26.57	64.8281
26.588	64.9736
26.606	65.1303
26.624	65.3059
26.642	65.4936
26.66	65.6843
26.678	65.8735
26.696	66.0691
26.714	66.2648
26.732	66.4526
26.75	66.6283
26.768	66.7975
26.786	66.9577
26.804	67.1061
26.822	67.2409
26.84	67.3641
26.858	67.4753
26.876	67.5742
26.894	67.6602
26.912	67.7332
26.93	67.7944
26.948	67.8449
26.966	67.8844
26.984	67.9108
27.002	67.9278
27.02	67.9396
27.028	67.9436