File: Bakgrunnsmateriale/MATLAB/FTIR/ftir_data/subCa/Mapping_25/BZ12041010-4_t01_cm-1.asc
PE IR       SPECTRUM    SPECTRUM    ASCII       PEDS        1.60
  -1
BZ1204~3.ASC
17/04/10
08:56:20.00
17/04/10
08:56:20.00
tln
$BZ12041010-4_t0001$<tbV0>[5.2,-12.4,9.0,0.0,22,1,0]
370
64

2002,4.07
MIRTGS : RIGHTBACK : INTERNAL 2
MIR : ON : INTERNAL 2
OPTKBR

0.200000
8
8.000000
FILLER
RATIO
SPECTRUM
UNLOCKED 256

DOUBLE
64
COMBINED
1
0
0

1.000000
RATIO

1
0
TRUE
51149
0
LEFT NOT FITTED RIGHT NOT FITTED 0
NONE
NONE
15600
12
4.427000
51148
TRUE
1 0 8 72 0 0 0 0

15798

#HDR
-1
-1
#GR
CM-1
%T
2.38419e-05
0.0
5000
-1.000000
4631
8
78.0667
58.9072
#DATA
5000	64.8946
4996	64.7855
4992	64.6573
4988	64.6161
4984	64.5728
4980	64.7653
4976	64.9112
4972	65.0037
4968	65.1153
4964	64.9455
4960	64.85
4956	64.8975
4952	64.8967
4948	64.8657
4944	64.7683
4940	64.6273
4936	64.6597
4932	64.9106
4928	65.0512
4924	65.0919
4920	65.1053
4916	65.0484
4912	65.0172
4908	65.1499
4904	65.3178
4900	65.0867
4896	64.649
4892	64.6075
4888	64.9276
4884	65.2688
4880	65.4755
4876	65.4202
4872	65.2085
4868	65.0177
4864	64.8712
4860	64.7355
4856	64.6488
4852	64.6601
4848	64.7032
4844	64.7224
4840	64.8066
4836	65.1212
4832	65.3703
4828	65.3293
4824	65.2128
4820	65.2326
4816	65.3954
4812	65.3279
4808	65.0652
4804	65.1979
4800	65.5534
4796	65.1788
4792	64.7339
4788	65.5731
4784	66.2194
4780	65.2234
4776	64.2054
4772	64.2668
4768	64.5338
4764	64.4766
4760	64.8782
4756	66.2112
4752	66.6075
4748	65.3556
4744	64.9485
4740	66.1256
4736	66.8419
4732	66.1501
4728	65.2157
4724	64.9699
4720	65.4341
4716	65.924
4712	65.6704
4708	65.3204
4704	64.9656
4700	64.2947
4696	63.8806
4692	63.7047
4688	63.9601
4684	64.4402
4680	64.4343
4676	64.3204
4672	64.6991
4668	65.1347
4664	65.2193
4660	65.1084
4656	64.9944
4652	65.4594
4648	66.016
4644	65.9902
4640	65.5935
4636	65.2247
4632	65.39
4628	65.4665
4624	64.9134
4620	64.7019
4616	64.9716
4612	64.9164
4608	64.7654
4604	64.8676
4600	65.0649
4596	65.1553
4592	65.0165
4588	64.801
4584	64.7788
4580	64.8977
4576	65.019
4572	65.2663
4568	65.4124
4564	65.2897
4560	65.2768
4556	65.2249
4552	65.0297
4548	64.8876
4544	64.7232
4540	64.5559
4536	64.6659
4532	64.8489
4528	64.8587
4524	65.1664
4520	65.6211
4516	66.0694
4512	66.5028
4508	66.5123
4504	66.1508
4500	65.3834
4496	62.9412
4492	59.5999
4488	59.7198
4484	67.1642
4480	76.6991
4476	76.0899
4472	66.6416
4468	60.1601
4464	59.4615
4460	62.29
4456	65.0722
4452	65.3862
4448	64.9806
4444	64.7544
4440	64.5293
4436	64.5488
4432	64.9128
4428	65.1089
4424	65.1412
4420	65.3041
4416	65.3603
4412	65.4314
4408	65.421
4404	65.1406
4400	65.0414
4396	65.0727
4392	65.0417
4388	64.9728
4384	64.8269
4380	64.7732
4376	64.9699
4372	65.2447
4368	65.3475
4364	65.3437
4360	65.193
4356	64.9477
4352	64.9344
4348	65.0126
4344	65.1119
4340	65.1561
4336	64.9877
4332	65.0004
4328	65.0818
4324	64.9441
4320	64.8313
4316	64.8163
4312	64.8062
4308	64.7782
4304	64.8574
4300	64.9855
4296	64.9411
4292	64.8077
4288	64.7351
4284	64.7821
4280	64.9028
4276	64.834
4272	64.6432
4268	64.6292
4264	64.6875
4260	64.7037
4256	64.8012
4252	64.7959
4248	64.6159
4244	64.6802
4240	64.895
4236	64.8639
4232	64.8301
4228	65.0421
4224	65.2344
4220	65.1479
4216	64.9218
4212	64.8298
4208	64.8542
4204	64.9055
4200	64.9872
4196	65.0537
4192	65.1024
4188	65.1553
4184	65.1499
4180	65.0205
4176	64.9128
4172	64.9453
4168	65.0467
4164	65.2473
4160	65.3365
4156	65.2099
4152	65.1851
4148	65.1937
4144	65.0739
4140	64.94
4136	64.9541
4132	65.1703
4128	65.3277
4124	65.2145
4120	64.9914
4116	64.9359
4112	65.0437
4108	65.0728
4104	65.0837
4100	65.1458
4096	65.1736
4092	65.2076
4088	65.1566
4084	65.093
4080	65.1059
4076	65.0895
4072	65.1369
4068	65.1445
4064	64.9964
4060	64.9204
4056	65.0438
4052	65.2211
4048	65.2579
4044	65.0898
4040	64.8093
4036	64.7573
4032	64.9328
4028	64.9774
4024	65.0091
4020	65.1189
4016	65.1317
4012	65.123
4008	65.0922
4004	65.0244
4000	65.0783
3996	65.1299
3992	65.08
3988	65.0916
3984	65.19
3980	65.2605
3976	65.1246
3972	64.9515
3968	64.9823
3964	65.0448
3960	65.0554
3956	65.0306
3952	65.0548
3948	65.1556
3944	65.1694
3940	65.0829
3936	64.9937
3932	65.0027
3928	65.1142
3924	65.1506
3920	65.114
3916	65.1146
3912	65.1114
3908	65.1657
3904	65.3173
3900	65.3838
3896	65.3251
3892	65.2836
3888	65.2931
3884	65.2912
3880	65.2269
3876	65.1489
3872	65.1679
3868	65.2346
3864	65.2223
3860	65.2443
3856	65.3642
3852	65.3419
3848	65.1978
3844	65.1555
3840	65.2419
3836	65.3018
3832	65.1986
3828	65.0814
3824	65.1272
3820	65.2589
3816	65.3395
3812	65.3872
3808	65.3883
3804	65.3343
3800	65.2976
3796	65.2911
3792	65.2888
3788	65.2966
3784	65.2987
3780	65.281
3776	65.2732
3772	65.2335
3768	65.1916
3764	65.1667
3760	65.1395
3756	65.1985
3752	65.3344
3748	65.4821
3744	65.523
3740	65.4493
3736	65.4537
3732	65.4998
3728	65.4021
3724	65.2569
3720	65.2843
3716	65.3881
3712	65.3755
3708	65.3362
3704	65.3525
3700	65.3181
3696	65.2549
3692	65.2482
3688	65.2382
3684	65.2017
3680	65.1835
3676	65.2519
3672	65.3073
3668	65.1964
3664	65.1039
3660	65.1982
3656	65.3019
3652	65.3108
3648	65.3242
3644	65.336
3640	65.3414
3636	65.4027
3632	65.4876
3628	65.4633
3624	65.3787
3620	65.3796
3616	65.4006
3612	65.3836
3608	65.354
3604	65.3322
3600	65.2852
3596	65.1951
3592	65.1683
3588	65.2456
3584	65.3316
3580	65.3686
3576	65.3484
3572	65.3343
3568	65.4013
3564	65.4255
3560	65.419
3556	65.485
3552	65.5134
3548	65.4432
3544	65.2395
3540	65.0958
3536	65.1721
3532	65.2351
3528	65.2246
3524	65.2454
3520	65.2516
3516	65.275
3512	65.2964
3508	65.209
3504	65.1455
3500	65.2255
3496	65.3248
3492	65.3813
3488	65.3523
3484	65.1567
3480	64.9683
3476	64.966
3472	65.1299
3468	65.341
3464	65.4335
3460	65.4067
3456	65.3646
3452	65.3202
3448	65.2573
3444	65.1717
3440	65.1338
3436	65.1864
3432	65.2991
3428	65.3393
3424	65.2061
3420	65.1334
3416	65.2097
3412	65.231
3408	65.1942
3404	65.1864
3400	65.2119
3396	65.2909
3392	65.3249
3388	65.2632
3384	65.2425
3380	65.2562
3376	65.2444
3372	65.2448
3368	65.2241
3364	65.1471
3360	65.1214
3356	65.1941
3352	65.205
3348	65.242
3344	65.4561
3340	65.5722
3336	65.4685
3332	65.3496
3328	65.2865
3324	65.2585
3320	65.2355
3316	65.1655
3312	65.1195
3308	65.1567
3304	65.2108
3300	65.2035
3296	65.1459
3292	65.1375
3288	65.2111
3284	65.3094
3280	65.3282
3276	65.2432
3272	65.2002
3268	65.2823
3264	65.4419
3260	65.5102
3256	65.4159
3252	65.3487
3248	65.313
3244	65.2837
3240	65.3224
3236	65.3265
3232	65.24
3228	65.1122
3224	65.1093
3220	65.2443
3216	65.3321
3212	65.2929
3208	65.1463
3204	65.0681
3200	65.1793
3196	65.3464
3192	65.3745
3188	65.2908
3184	65.2157
3180	65.1112
3176	65.0147
3172	65.0124
3168	65.0688
3164	65.1664
3160	65.2623
3156	65.3211
3152	65.3134
3148	65.2085
3144	65.136
3140	65.1772
3136	65.2029
3132	65.1163
3128	65.025
3124	65.0471
3120	65.1452
3116	65.2244
3112	65.246
3108	65.2387
3104	65.2054
3100	65.1435
3096	65.1039
3092	65.1053
3088	65.0824
3084	65.0895
3080	65.1353
3076	65.1148
3072	65.0902
3068	65.1304
3064	65.1571
3060	65.1384
3056	65.1032
3052	65.1167
3048	65.17
3044	65.1572
3040	65.1414
3036	65.1891
3032	65.1995
3028	65.1706
3024	65.198
3020	65.2428
3016	65.1968
3012	65.1255
3008	65.0899
3004	65.005
3000	64.9867
2996	65.0819
2992	65.1004
2988	65.0988
2984	65.1963
2980	65.2697
2976	65.2267
2972	65.1274
2968	65.0602
2964	65.0795
2960	65.1332
2956	65.146
2952	65.1456
2948	65.1627
2944	65.1621
2940	65.0907
2936	64.9764
2932	64.9443
2928	65.0243
2924	65.1036
2920	65.1292
2916	65.1556
2912	65.1853
2908	65.1826
2904	65.1914
2900	65.2195
2896	65.2075
2892	65.1846
2888	65.1845
2884	65.2074
2880	65.2261
2876	65.2024
2872	65.123
2868	65.0211
2864	65.0632
2860	65.1968
2856	65.1985
2852	65.1982
2848	65.2769
2844	65.2727
2840	65.2272
2836	65.2769
2832	65.33
2828	65.2631
2824	65.1707
2820	65.1539
2816	65.1777
2812	65.2082
2808	65.2188
2804	65.2115
2800	65.2453
2796	65.283
2792	65.2834
2788	65.27
2784	65.2546
2780	65.2413
2776	65.2432
2772	65.2559
2768	65.2675
2764	65.2925
2760	65.2929
2756	65.2619
2752	65.2776
2748	65.3227
2744	65.3545
2740	65.4164
2736	65.4492
2732	65.363
2728	65.2132
2724	65.1274
2720	65.1865
2716	65.2939
2712	65.2879
2708	65.2153
2704	65.2124
2700	65.2584
2696	65.2825
2692	65.2825
2688	65.2403
2684	65.1525
2680	65.1313
2676	65.2629
2672	65.3924
2668	65.3656
2664	65.3028
2660	65.3063
2656	65.2787
2652	65.2179
2648	65.2668
2644	65.3437
2640	65.3309
2636	65.3487
2632	65.3861
2628	65.309
2624	65.2264
2620	65.3158
2616	65.4203
2612	65.3276
2608	65.1764
2604	65.1554
2600	65.2057
2596	65.224
2592	65.2032
2588	65.1804
2584	65.2028
2580	65.272
2576	65.2594
2572	65.1279
2568	65.1122
2564	65.2262
2560	65.2704
2556	65.2544
2552	65.2625
2548	65.3167
2544	65.3367
2540	65.3021
2536	65.3026
2532	65.2959
2528	65.2436
2524	65.1994
2520	65.1961
2516	65.2582
2512	65.327
2508	65.302
2504	65.242
2500	65.2892
2496	65.4117
2492	65.4545
2488	65.3851
2484	65.3047
2480	65.288
2476	65.3287
2472	65.3302
2468	65.2222
2464	65.1648
2460	65.2919
2456	65.39
2452	65.3188
2448	65.2683
2444	65.3462
2440	65.3878
2436	65.273
2432	65.2012
2428	65.2721
2424	65.342
2420	65.3664
2416	65.3214
2412	65.2591
2408	65.2377
2404	65.2335
2400	65.286
2396	65.3463
2392	65.3131
2388	65.2627
2384	65.287
2380	65.3424
2376	65.3858
2372	65.3966
2368	65.3393
2364	65.2567
2360	65.256
2356	65.3272
2352	65.3658
2348	65.3367
2344	65.3191
2340	65.3591
2336	65.3645
2332	65.302
2328	65.2516
2324	65.2252
2320	65.2325
2316	65.2848
2312	65.3192
2308	65.3348
2304	65.3432
2300	65.3358
2296	65.3387
2292	65.3326
2288	65.3185
2284	65.3302
2280	65.3528
2276	65.351
2272	65.2995
2268	65.2611
2264	65.2737
2260	65.2949
2256	65.3116
2252	65.3088
2248	65.3121
2244	65.3594
2240	65.4449
2236	65.4914
2232	65.4318
2228	65.366
2224	65.3643
2220	65.372
2216	65.3742
2212	65.3508
2208	65.2978
2204	65.28
2200	65.319
2196	65.3736
2192	65.3672
2188	65.3271
2184	65.3267
2180	65.319
2176	65.272
2172	65.2413
2168	65.292
2164	65.3547
2160	65.337
2156	65.3
2152	65.3073
2148	65.3104
2144	65.2514
2140	65.1791
2136	65.1763
2132	65.2484
2128	65.3092
2124	65.305
2120	65.2945
2116	65.3127
2112	65.2881
2108	65.2365
2104	65.2537
2100	65.2881
2096	65.2746
2092	65.2732
2088	65.3074
2084	65.3211
2080	65.3352
2076	65.3961
2072	65.4078
2068	65.3393
2064	65.2944
2060	65.2805
2056	65.2755
2052	65.2856
2048	65.2987
2044	65.2953
2040	65.2913
2036	65.3031
2032	65.331
2028	65.3681
2024	65.3864
2020	65.3713
2016	65.336
2012	65.3213
2008	65.3363
2004	65.3446
2000	65.3415
1996	65.3528
1992	65.3233
1988	65.2663
1984	65.2916
1980	65.3721
1976	65.4187
1972	65.4069
1968	65.3803
1964	65.3745
1960	65.3629
1956	65.3204
1952	65.2915
1948	65.3255
1944	65.3685
1940	65.3575
1936	65.3304
1932	65.3319
1928	65.3561
1924	65.3653
1920	65.3118
1916	65.2437
1912	65.2714
1908	65.3324
1904	65.3287
1900	65.3363
1896	65.3886
1892	65.3944
1888	65.3278
1884	65.304
1880	65.357
1876	65.3802
1872	65.354
1868	65.3251
1864	65.3124
1860	65.3249
1856	65.3356
1852	65.3316
1848	65.3518
1844	65.3734
1840	65.3344
1836	65.3109
1832	65.3727
1828	65.4121
1824	65.334
1820	65.2364
1816	65.242
1812	65.3197
1808	65.4234
1804	65.4989
1800	65.4474
1796	65.3573
1792	65.3638
1788	65.3847
1784	65.3486
1780	65.302
1776	65.3125
1772	65.3366
1768	65.3013
1764	65.3152
1760	65.3761
1756	65.3815
1752	65.3532
1748	65.3017
1744	65.2402
1740	65.1978
1736	65.2
1732	65.1694
1728	65.0921
1724	65.1047
1720	65.2183
1716	65.3314
1712	65.3566
1708	65.3383
1704	65.34
1700	65.3651
1696	65.3588
1692	65.2995
1688	65.3151
1684	65.3912
1680	65.4392
1676	65.47
1672	65.4436
1668	65.3746
1664	65.3486
1660	65.3484
1656	65.3175
1652	65.2779
1648	65.2472
1644	65.2279
1640	65.2477
1636	65.2428
1632	65.1953
1628	65.2122
1624	65.281
1620	65.3389
1616	65.3433
1612	65.263
1608	65.1711
1604	65.1244
1600	65.1113
1596	65.1118
1592	65.0954
1588	65.1173
1584	65.2258
1580	65.3018
1576	65.2502
1572	65.1446
1568	65.1111
1564	65.1852
1560	65.3129
1556	65.3874
1552	65.3741
1548	65.3287
1544	65.2878
1540	65.2832
1536	65.3009
1532	65.3027
1528	65.2881
1524	65.3218
1520	65.3803
1516	65.3622
1512	65.3553
1508	65.4055
1504	65.3767
1500	65.3205
1496	65.3637
1492	65.3633
1488	65.2696
1484	65.2214
1480	65.2393
1476	65.2818
1472	65.3034
1468	65.3109
1464	65.3281
1460	65.3364
1456	65.2524
1452	65.1382
1448	65.155
1444	65.1983
1440	65.1604
1436	65.1465
1432	65.1958
1428	65.2645
1424	65.2987
1420	65.2516
1416	65.2148
1412	65.253
1408	65.3129
1404	65.3183
1400	65.2636
1396	65.2416
1392	65.232
1388	65.1842
1384	65.1315
1380	65.1051
1376	65.1421
1372	65.1971
1368	65.1932
1364	65.1876
1360	65.1861
1356	65.1663
1352	65.1945
1348	65.2376
1344	65.2557
1340	65.2952
1336	65.3183
1332	65.2647
1328	65.1911
1324	65.1993
1320	65.2419
1316	65.2311
1312	65.1804
1308	65.1261
1304	65.1493
1300	65.2222
1296	65.2325
1292	65.206
1288	65.2087
1284	65.2414
1280	65.2681
1276	65.2704
1272	65.2254
1268	65.1569
1264	65.16
1260	65.2064
1256	65.1914
1252	65.1149
1248	65.0938
1244	65.1486
1240	65.1623
1236	65.1394
1232	65.1538
1228	65.1736
1224	65.1603
1220	65.1662
1216	65.2209
1212	65.2724
1208	65.2786
1204	65.2677
1200	65.2687
1196	65.2804
1192	65.2664
1188	65.1837
1184	65.1028
1180	65.0839
1176	65.0977
1172	65.13
1168	65.1337
1164	65.1288
1160	65.1372
1156	65.0778
1152	65.023
1148	65.0455
1144	65.0822
1140	65.0986
1136	65.0936
1132	65.1086
1128	65.1293
1124	65.1516
1120	65.1777
1116	65.1801
1112	65.1084
1108	65.0017
1104	64.9972
1100	65.0634
1096	65.1192
1092	65.1392
1088	65.1161
1084	65.1229
1080	65.1562
1076	65.1139
1072	65.0785
1068	65.1161
1064	65.1366
1060	65.1802
1056	65.2252
1052	65.2072
1048	65.1849
1044	65.1758
1040	65.1675
1036	65.1571
1032	65.1501
1028	65.1617
1024	65.1912
1020	65.1669
1016	65.0968
1012	65.0978
1008	65.1378
1004	65.1506
1000	65.1882
996	 65.2416
992	 65.2235
988	 65.1825
984	 65.1902
980	 65.1781
976	 65.124
972	 65.1273
968	 65.2269
964	 65.2699
960	 65.2475
956	 65.2276
952	 65.1602
948	 65.1657
944	 65.2094
940	 65.2034
936	 65.2929
932	 65.3728
928	 65.2649
924	 65.1365
920	 65.1028
916	 65.1469
912	 65.2676
908	 65.3403
904	 65.3303
900	 65.3058
896	 65.2682
892	 65.246
888	 65.3364
884	 65.444
880	 65.3486
876	 65.255
872	 65.3461
868	 65.4294
864	 65.4958
860	 65.5354
856	 65.4889
852	 65.4398
848	 65.3942
844	 65.3259
840	 65.253
836	 65.2412
832	 65.3249
828	 65.4319
824	 65.4243
820	 65.3184
816	 65.3498
812	 65.4659
808	 65.4552
804	 65.3537
800	 65.2189
796	 65.1215
792	 65.1878
788	 65.315
784	 65.3836
780	 65.4606
776	 65.5628
772	 65.6487
768	 65.6727
764	 65.5998
760	 65.5121
756	 65.4833
752	 65.5007
748	 65.4369
744	 65.2981
740	 65.3455
736	 65.483
732	 65.4149
728	 65.2611
724	 65.2445
720	 65.2665
716	 65.2084
712	 65.1764
708	 65.2154
704	 65.2027
700	 65.1199
696	 65.1409
692	 65.2117
688	 65.2644
684	 65.3451
680	 65.3415
676	 65.3564
672	 65.447
668	 65.3971
664	 65.2634
660	 65.2788
656	 65.3904
652	 65.446
648	 65.445
644	 65.494
640	 65.6394
636	 65.6029
632	 65.3324
628	 65.2901
624	 65.5912
620	 65.8469
616	 65.8681
612	 65.7736
608	 65.6192
604	 65.4951
600	 65.5564
596	 65.731
592	 65.8016
588	 65.6539
584	 65.4614
580	 65.4553
576	 65.5774
572	 65.7893
568	 65.95
564	 65.8569
560	 65.7836
556	 65.8818
552	 65.9611
548	 66.0662
544	 66.1
540	 66.1178
536	 66.1948
532	 66.091
528	 65.8594
524	 65.8351
520	 65.8794
516	 65.7415
512	 65.6975
508	 65.8873
504	 65.8087
500	 65.6882
496	 65.9929
492	 66.3908
488	 66.4601
484	 66.3967
480	 66.5236
476	 66.7535
472	 66.8681
468	 66.1781
464	 64.9983
460	 64.9314
456	 65.8915
452	 66.1859
448	 65.4212
444	 65.0413
440	 65.6956
436	 66.0402
432	 65.502
428	 65.3686
424	 65.6767
420	 64.6953
416	 63.5258
412	 64.305
408	 65.9747
404	 66.4314
400	 65.3923
396	 65.4349
392	 68.4409
388	 71.2907
384	 67.242
380	 61.2773
376	 62.9398
372	 66.2807
370	 65.5787