File: Bakgrunnsmateriale/MATLAB/FTIR/ftir_data/subCa/Mapping_25/BZ12041010-4_t13.asc
PE IR       SPECTRUM    SPECTRUM    ASCII       PEDS        1.60
  -1
BZ3ABA~1.ASC
17/04/10
09:59:47.00
17/04/10
10:00:13.00
tln
$BZ12041010-4_t0013$<tbV0>[0.0,-7.2,9.0,0.0,22,1,0]
27.028
64

2002,4.07
MIRTGS : RIGHTBACK : INTERNAL 2
MIR : ON : INTERNAL 2
OPTKBR

0.200000
8
8.000000
FILLER
RATIO
SPECTRUM
UNLOCKED 256

DOUBLE
64
COMBINED
1
0
0

0.002000
RATIO

1
0
TRUE
51149
0
LEFT NOT FITTED RIGHT NOT FITTED 0
NONE
NONE
15600
12
4.427000
51148
TRUE
1 0 8 72 0 0 0 0

15798

#HDR
-1
-1
#GR
µM
%T
2.38419e-05
0.0
2.000000
0.002000
12515
8
91.5641
13.1424
#DATA
2.000000	 64.9
2.018000	 64.8853
2.036000	 65.1812
2.054000	 65.2184
2.072000	 65.0911
2.090000	 65.3907
2.108000	 65.3695
2.126000	 65.3486
2.144000	 65.0468
2.162000	 64.2663
2.180000	 64.0902
2.198000	 63.388
2.216000	 63.7545
2.234000	 65.0481
2.252000	 62.5042
2.270000	 63.545
2.288000	 63.9267
2.306000	 64.174
2.324000	 64.8909
2.342000	 65.1401
2.360000	 65.2647
2.378000	 65.2594
2.396000	 65.4638
2.414000	 65.4149
2.432000	 65.2543
2.450000	 65.3488
2.468000	 65.1051
2.486000	 65.1011
2.504000	 64.9239
2.522000	 64.9205
2.540000	 65.0227
2.558000	 65.031
2.576000	 65.0519
2.594000	 65.2204
2.612000	 65.1525
2.630000	 65.1225
2.648000	 65.2826
2.666000	 65.3088
2.684000	 65.4211
2.702000	 65.3936
2.720000	 65.3775
2.738000	 65.3797
2.756000	 65.3321
2.774000	 65.3592
2.792000	 65.3606
2.810000	 65.3498
2.828000	 65.1626
2.846000	 65.1251
2.864000	 65.3307
2.882000	 65.1269
2.900000	 65.2308
2.918000	 65.1885
2.936000	 65.3463
2.954000	 65.1956
2.972000	 65.3027
2.990000	 65.3421
3.008000	 65.2399
3.026000	 65.3393
3.044000	 65.3483
3.062000	 65.1727
3.080000	 65.2532
3.098000	 65.13
3.116000	 65.3133
3.134000	 65.4381
3.152000	 65.2607
3.170000	 65.1567
3.188000	 65.2197
3.206000	 65.3452
3.224000	 65.2934
3.242000	 65.0848
3.260000	 65.1285
3.278000	 65.2201
3.296000	 65.2701
3.314000	 65.1547
3.332000	 65.2468
3.350000	 65.1932
3.368000	 65.2102
3.386000	 65.198
3.404000	 65.0087
3.422000	 65.1713
3.440000	 65.3379
3.458000	 65.3535
3.476000	 65.3354
3.494000	 65.2917
3.512000	 65.335
3.530000	 65.2871
3.548000	 65.3206
3.566000	 65.3329
3.584000	 65.4077
3.602000	 65.2944
3.620000	 65.3626
3.638000	 65.3494
3.656000	 65.3306
3.674000	 65.3699
3.692000	 65.2927
3.710000	 65.2999
3.728000	 65.1942
3.746000	 65.3174
3.764000	 65.2603
3.782000	 65.3236
3.800000	 65.2573
3.818000	 65.1585
3.836000	 65.2158
3.854000	 65.2201
3.872000	 65.2136
3.890000	 65.2664
3.908000	 65.1972
3.926000	 65.211
3.944000	 65.1715
3.962000	 65.3315
3.980000	 65.2345
3.998000	 65.2698
4.016000	 65.3598
4.034000	 65.3125
4.052000	 65.2329
4.070000	 65.3653
4.088000	 65.3422
4.106000	 65.3929
4.124000	 65.3279
4.141999	 65.3861
4.160000	 65.3882
4.178000	 65.3336
4.196000	 65.2548
4.214000	 65.3355
4.232000	 65.269
4.250000	 65.3392
4.268000	 65.2853
4.286000	 65.2568
4.304000	 65.3879
4.322000	 65.3456
4.340000	 65.2817
4.358000	 65.2533
4.375999	 65.2074
4.394000	 65.2001
4.412000	 65.3636
4.430000	 65.2746
4.448000	 65.3413
4.466000	 65.2875
4.484000	 65.3007
4.502000	 65.3096
4.520000	 65.2814
4.538000	 65.2542
4.556000	 65.3475
4.574000	 65.2686
4.592000	 65.3032
4.609999	 65.36
4.628000	 65.2504
4.646000	 65.1508
4.664000	 65.1794
4.682000	 65.1914
4.700000	 65.2078
4.718000	 65.279
4.736000	 65.2802
4.754000	 65.2777
4.772000	 65.2447
4.790000	 65.2281
4.808000	 65.0923
4.826000	 65.2073
4.843999	 65.2339
4.862000	 65.2769
4.880000	 65.2075
4.898000	 65.1598
4.916000	 65.2333
4.934000	 65.2381
4.952000	 65.2721
4.970000	 65.2683
4.988000	 65.4016
5.006000	 65.3338
5.024000	 65.3477
5.042000	 65.3649
5.060000	 65.3249
5.077999	 65.3719
5.096000	 65.3487
5.114000	 65.3484
5.132000	 65.3105
5.150000	 65.2914
5.168000	 65.3377
5.186000	 65.314
5.204000	 65.254
5.222000	 65.2728
5.240000	 65.3525
5.258000	 65.3388
5.276000	 65.2341
5.294000	 65.2952
5.312000	 65.3396
5.330000	 65.3221
5.348000	 65.2848
5.366000	 65.2636
5.384000	 65.2323
5.402000	 65.2968
5.420000	 65.4331
5.438000	 65.3926
5.456000	 65.344
5.474000	 65.3229
5.492000	 65.334
5.510000	 65.2816
5.528000	 65.3059
5.546000	 65.3243
5.564000	 65.3486
5.582000	 65.3581
5.600000	 65.2454
5.618000	 65.2758
5.636000	 65.3673
5.654000	 65.3975
5.672000	 65.3567
5.690000	 65.2441
5.708000	 65.1563
5.726000	 65.1086
5.744000	 65.1403
5.762000	 65.179
5.780000	 65.1203
5.798000	 65.1335
5.816000	 65.0763
5.834000	 65.0833
5.852000	 65.2375
5.870000	 65.2806
5.888000	 65.2981
5.906000	 65.268
5.923999	 65.2551
5.942000	 65.2283
5.960000	 65.1785
5.978000	 65.2134
5.996000	 65.1857
6.014000	 65.1507
6.032000	 65.1878
6.050000	 65.2327
6.068000	 65.1324
6.086000	 65.0691
6.104000	 65.1903
6.122000	 65.2549
6.140000	 65.2416
6.158000	 65.2954
6.176000	 65.3428
6.194000	 65.2337
6.212000	 65.184
6.230000	 65.2503
6.248000	 65.2249
6.266000	 65.1798
6.284000	 65.1907
6.302000	 65.2447
6.320000	 65.273
6.338000	 65.2757
6.356000	 65.21
6.374000	 65.1697
6.392000	 65.1384
6.410000	 65.1299
6.428000	 65.2228
6.446000	 65.2084
6.464000	 65.1474
6.482000	 65.1635
6.500000	 65.1798
6.518000	 65.2216
6.536000	 65.2446
6.554000	 65.21
6.572000	 65.2594
6.590000	 65.2716
6.608000	 65.1752
6.626000	 65.1452
6.644000	 65.1856
6.662000	 65.2063
6.680000	 65.1823
6.698000	 65.1588
6.716000	 65.1278
6.734000	 65.0959
6.752000	 65.1174
6.770000	 65.1798
6.788000	 65.2361
6.806000	 65.2624
6.824000	 65.2564
6.842000	 65.2075
6.860000	 65.142
6.878000	 65.117
6.896000	 65.1721
6.914000	 65.2561
6.932000	 65.3058
6.950000	 65.3341
6.968000	 65.3035
6.986000	 65.2424
7.004000	 65.2325
7.022000	 65.2025
7.040000	 65.1279
7.058000	 65.0917
7.076000	 65.1064
7.094000	 65.1434
7.112000	 65.1685
7.130000	 65.1687
7.148000	 65.1649
7.166000	 65.1792
7.184000	 65.237
7.202000	 65.2916
7.220000	 65.2637
7.238000	 65.2009
7.256000	 65.1918
7.274000	 65.2173
7.292000	 65.2239
7.310000	 65.2238
7.328000	 65.2506
7.346000	 65.2649
7.364000	 65.2103
7.382000	 65.1355
7.400000	 65.1116
7.418000	 65.1214
7.436000	 65.1271
7.454000	 65.1121
7.472000	 65.0735
7.490000	 65.0548
7.508000	 65.092
7.526000	 65.1472
7.544000	 65.1691
7.562000	 65.1409
7.580000	 65.0857
7.598000	 65.0681
7.616000	 65.1218
7.634000	 65.1929
7.652000	 65.2031
7.670000	 65.1427
7.688000	 65.0726
7.706000	 65.0545
7.724000	 65.0943
7.742000	 65.1502
7.760000	 65.1793
7.778000	 65.1742
7.796000	 65.1584
7.814000	 65.1489
7.832000	 65.1376
7.850000	 65.1187
7.868000	 65.1073
7.886000	 65.1023
7.904000	 65.0671
7.922000	 64.999
7.940000	 64.9693
7.958000	 65.0285
7.976000	 65.1246
7.994000	 65.1646
8.012000	 65.1241
8.030000	 65.0672
8.048000	 65.0701
8.065999	 65.1465
8.084000	 65.2417
8.102000	 65.2918
8.120000	 65.2863
8.138000	 65.2602
8.155999	 65.2348
8.173999	 65.1914
8.192000	 65.1203
8.210000	 65.0577
8.228000	 65.0406
8.246000	 65.0597
8.263999	 65.0837
8.282000	 65.0991
8.300000	 65.1067
8.318000	 65.1025
8.336000	 65.0813
8.353999	 65.053
8.372000	 65.0421
8.390000	 65.0648
8.408000	 65.1078
8.426000	 65.1349
8.443999	 65.1248
8.462000	 65.0962
8.480000	 65.0885
8.498000	 65.12
8.516000	 65.1651
8.533999	 65.1786
8.552000	 65.1445
8.570000	 65.0919
8.588000	 65.0652
8.606000	 65.0843
8.624000	 65.1383
8.641999	 65.2047
8.660000	 65.2637
8.678000	 65.299
8.696000	 65.3025
8.714000	 65.2793
8.731999	 65.24
8.750000	 65.1867
8.768000	 65.1195
8.786000	 65.0557
8.804000	 65.0255
8.821999	 65.0436
8.840000	 65.0894
8.858000	 65.1257
8.876000	 65.1266
8.894000	 65.0869
8.911999	 65.0188
8.930000	 64.9521
8.948000	 64.9224
8.966000	 64.9399
8.984000	 64.9763
9.001999	 64.9973
9.020000	 65.0035
9.038000	 65.0273
9.056000	 65.089
9.074000	 65.1664
9.092000	 65.2184
9.109999	 65.2278
9.128000	 65.2112
9.146000	 65.1894
9.164000	 65.1637
9.182000	 65.1273
9.199999	 65.0885
9.218000	 65.0652
9.236000	 65.0614
9.254000	 65.0575
9.272000	 65.0347
9.289999	 65.0019
9.308000	 64.9917
9.326000	 65.0279
9.344000	 65.0996
9.362000	 65.1706
9.379999	 65.2106
9.398000	 65.2158
9.416000	 65.2014
9.434000	 65.1822
9.452000	 65.1624
9.469999	 65.1414
9.488000	 65.1243
9.506000	 65.1239
9.524000	 65.1513
9.542000	 65.2069
9.560000	 65.2772
9.577999	 65.3401
9.596000	 65.3765
9.614000	 65.3799
9.632000	 65.3573
9.650000	 65.3199
9.667999	 65.2724
9.686000	 65.2132
9.704000	 65.1446
9.722000	 65.0811
9.740000	 65.0443
9.757999	 65.0454
9.776000	 65.0738
9.794000	 65.105
9.812000	 65.1205
9.830000	 65.1215
9.847999	 65.1221
9.866000	 65.1327
9.884000	 65.1494
9.902000	 65.1583
9.920000	 65.148
9.937999	 65.1203
9.956000	 65.0896
9.974000	 65.072
9.992000	 65.0759
10.01	65.0985
10.028	65.1284
10.046	65.1516
10.064	65.1572
10.082	65.142
10.1	65.1132
10.118	65.0878
10.136	65.0845
10.154	65.1133
10.172	65.1684
10.19	65.2286
10.208	65.2703
10.226	65.2812
10.244	65.2661
10.262	65.243
10.28	65.2291
10.298	65.2321
10.316	65.2472
10.334	65.2622
10.352	65.2648
10.37	65.2484
10.388	65.2155
10.406	65.1758
10.424	65.1428
10.442	65.1294
10.46	65.1427
10.478	65.181
10.496	65.2336
10.514	65.2864
10.532	65.3263
10.55	65.348
10.568	65.3544
10.586	65.3531
10.604	65.3506
10.622	65.3487
10.64	65.3437
10.658	65.3306
10.676	65.3086
10.694	65.2832
10.712	65.2647
10.73	65.2609
10.748	65.2735
10.766	65.2947
10.784	65.3136
10.802	65.3214
10.82	65.3175
10.838	65.3091
10.856	65.3059
10.874	65.314
10.892	65.3312
10.91	65.349
10.928	65.3577
10.946	65.3518
10.964	65.3334
10.982	65.3103
11	65.2913
11.018	65.2826
11.036	65.2855
11.054	65.2983
11.072	65.3184
11.09	65.3432
11.108	65.3697
11.126	65.3934
11.144	65.4078
11.162	65.4059
11.18	65.384
11.198	65.3436
11.216	65.292
11.234	65.2398
11.252	65.1969
11.27	65.1689
11.288	65.1558
11.306	65.1534
11.324	65.1561
11.342	65.1602
11.36	65.1647
11.378	65.1711
11.396	65.1812
11.414	65.1965
11.432	65.2162
11.45	65.2386
11.468	65.2611
11.486	65.2809
11.504	65.2956
11.522	65.3036
11.54	65.3043
11.558	65.2992
11.576	65.2908
11.594	65.2821
11.612	65.2764
11.63	65.2749
11.648	65.2774
11.666	65.2822
11.684	65.2876
11.702	65.2932
11.72	65.3001
11.738	65.3113
11.756	65.3293
11.774	65.3549
11.792	65.3853
11.81	65.4147
11.828	65.4359
11.846	65.4423
11.864	65.4308
11.882	65.4035
11.9	65.3673
11.918	65.3324
11.936	65.3088
11.954	65.3036
11.972	65.3191
11.99	65.3515
12.008	65.3923
12.026	65.4307
12.044	65.4565
12.062	65.4634
12.08	65.4512
12.098	65.4243
12.116	65.3905
12.134	65.3576
12.152	65.3309
12.17	65.3121
12.188	65.2993
12.206	65.2892
12.224	65.2785
12.242	65.2655
12.26	65.2501
12.278	65.2345
12.296	65.2217
12.314	65.2145
12.332	65.2143
12.35	65.2207
12.368	65.2322
12.386	65.2468
12.404	65.2624
12.422	65.2775
12.44	65.2916
12.458	65.3043
12.476	65.3154
12.494	65.3244
12.512	65.3311
12.53	65.3361
12.548	65.3415
12.566	65.3503
12.584	65.3661
12.602	65.3918
12.62	65.4288
12.638	65.4749
12.656	65.5248
12.674	65.5711
12.692	65.6058
12.71	65.6226
12.728	65.6187
12.746	65.5954
12.764	65.5583
12.782	65.5149
12.8	65.4735
12.818	65.441
12.836	65.4218
12.854	65.4169
12.872	65.4247
12.89	65.4411
12.908	65.461
12.926	65.4789
12.944	65.49
12.962	65.491
12.98	65.4806
12.998	65.4596
13.016	65.4306
13.034	65.3978
13.052	65.3659
13.07	65.3397
13.088	65.3227
13.106	65.3172
13.124	65.3232
13.142	65.3396
13.16	65.3645
13.178	65.3957
13.196	65.431
13.214	65.4682
13.232	65.5054
13.25	65.5403
13.268	65.5703
13.286	65.5927
13.304	65.6051
13.322	65.6058
13.34	65.5951
13.358	65.574
13.376	65.545
13.394	65.5113
13.412	65.4762
13.43	65.4422
13.448	65.4112
13.466	65.3839
13.484	65.3604
13.502	65.3407
13.52	65.3251
13.538	65.314
13.556	65.3077
13.574	65.3058
13.592	65.3072
13.61	65.3097
13.628	65.3102
13.646	65.3059
13.664	65.295
13.682	65.277
13.7	65.2538
13.718	65.2292
13.736	65.2085
13.754	65.1969
13.772	65.199
13.79	65.2169
13.808	65.2504
13.826	65.2964
13.844	65.3498
13.862	65.4043
13.88	65.4537
13.898	65.4927
13.916	65.5182
13.934	65.5288
13.952	65.5251
13.97	65.5093
13.988	65.4845
14.006	65.4542
14.024	65.4213
14.042	65.3885
14.06	65.3577
14.078	65.3303
14.096	65.3061
14.114	65.285
14.132	65.266
14.15	65.2482
14.168	65.23
14.186	65.2105
14.204	65.1888
14.222	65.1648
14.24	65.139
14.258	65.1133
14.276	65.0899
14.294	65.0712
14.312	65.0601
14.33	65.0584
14.348	65.0672
14.366	65.0866
14.384	65.1149
14.402	65.1494
14.42	65.1866
14.438	65.2231
14.456	65.2555
14.474	65.2817
14.492	65.3004
14.51	65.3123
14.528	65.3191
14.546	65.3235
14.564	65.3287
14.582	65.3377
14.6	65.3527
14.618	65.3752
14.636	65.405
14.654	65.4406
14.672	65.4792
14.69	65.5176
14.708	65.5525
14.726	65.5804
14.744	65.5985
14.762	65.6053
14.78	65.6009
14.798	65.5863
14.816	65.564
14.834	65.5373
14.852	65.5101
14.87	65.486
14.888	65.4674
14.906	65.4564
14.924	65.4534
14.942	65.4579
14.96	65.468
14.978	65.4815
14.996	65.4963
15.014	65.5104
15.032	65.5224
15.05	65.5319
15.068	65.5395
15.086	65.546
15.104	65.5528
15.122	65.5612
15.14	65.5722
15.158	65.5857
15.176	65.6013
15.194	65.6176
15.212	65.6324
15.23	65.6439
15.248	65.6501
15.266	65.6493
15.284	65.6407
15.302	65.6243
15.32	65.6006
15.338	65.5706
15.356	65.5356
15.374	65.4972
15.392	65.4569
15.41	65.4158
15.428	65.3753
15.446	65.3364
15.464	65.3001
15.482	65.2671
15.5	65.2379
15.518	65.2132
15.536	65.1932
15.554	65.178
15.572	65.1676
15.59	65.1615
15.608	65.159
15.626	65.1595
15.644	65.1622
15.662	65.1663
15.68	65.1716
15.698	65.1779
15.716	65.185
15.734	65.1934
15.752	65.2034
15.77	65.2154
15.788	65.2301
15.806	65.2474
15.824	65.2673
15.842	65.2894
15.86	65.3128
15.878	65.3367
15.896	65.3603
15.914	65.3825
15.932	65.4028
15.95	65.4207
15.968	65.436
15.986	65.4489
16.004	65.4598
16.022	65.469
16.04	65.477
16.058	65.4841
16.076	65.4905
16.094	65.4961
16.112	65.5011
16.13	65.5053
16.148	65.5086
16.166	65.5111
16.184	65.513
16.202	65.5145
16.22	65.5161
16.238	65.5186
16.256	65.5225
16.274	65.5294
16.292	65.5401
16.31	65.5553
16.328	65.5764
16.346	65.6036
16.364	65.6374
16.382	65.6775
16.4	65.7234
16.418	65.7744
16.436	65.829
16.454	65.8852
16.472	65.9418
16.49	65.9961
16.508	66.0463
16.526	66.0908
16.544	66.1275
16.562	66.1553
16.58	66.1732
16.598	66.1805
16.616	66.1769
16.634	66.1623
16.652	66.1372
16.67	66.1023
16.688	66.0584
16.706	66.0073
16.724	65.9503
16.742	65.8888
16.76	65.8254
16.778	65.7614
16.796	65.6991
16.814	65.6405
16.832	65.5866
16.85	65.5395
16.868	65.5
16.886	65.4689
16.904	65.4469
16.922	65.4337
16.94	65.4293
16.958	65.4325
16.976	65.4425
16.994	65.4578
17.012	65.4763
17.03	65.4967
17.048	65.5159
17.066	65.5324
17.084	65.5439
17.102	65.5481
17.12	65.544
17.138	65.53
17.156	65.5061
17.174	65.4719
17.192	65.4289
17.21	65.3781
17.228	65.322
17.246	65.2636
17.264	65.205
17.282	65.1507
17.3	65.1023
17.318	65.0635
17.336	65.0359
17.354	65.021
17.372	65.0194
17.39	65.0306
17.408	65.0537
17.426	65.0862
17.444	65.1265
17.462	65.1703
17.48	65.2163
17.498	65.2605
17.516	65.3014
17.534	65.3372
17.552	65.3668
17.57	65.39
17.588	65.4077
17.606	65.4207
17.624	65.4304
17.642	65.4394
17.66	65.4486
17.678	65.4607
17.696	65.4762
17.714	65.4968
17.732	65.5221
17.75	65.5525
17.768	65.5866
17.786	65.624
17.804	65.6623
17.822	65.701
17.84	65.7376
17.858	65.7713
17.876	65.8008
17.894	65.8256
17.912	65.8451
17.93	65.86
17.948	65.8703
17.966	65.8776
17.984	65.8827
18.002	65.8872
18.02	65.8923
18.038	65.8993
18.056	65.9093
18.074	65.9226
18.092	65.9398
18.11	65.9607
18.128	65.9846
18.146	66.011
18.164	66.0386
18.182	66.0665
18.2	66.0933
18.218	66.118
18.236	66.1396
18.254	66.157
18.272	66.17
18.29	66.1783
18.308	66.1819
18.326	66.1814
18.344	66.1769
18.362	66.1692
18.38	66.1586
18.398	66.1457
18.416	66.1307
18.434	66.1142
18.452	66.0962
18.47	66.0769
18.488	66.0568
18.506	66.0358
18.524	66.0144
18.542	65.9925
18.56	65.9709
18.578	65.9498
18.596	65.9298
18.614	65.9111
18.632	65.8943
18.65	65.8795
18.668	65.867
18.686	65.8568
18.704	65.8484
18.722	65.8419
18.74	65.8366
18.758	65.8322
18.776	65.828
18.794	65.8239
18.812	65.8192
18.83	65.8135
18.848	65.8065
18.866	65.7979
18.884	65.7876
18.902	65.7756
18.92	65.7618
18.938	65.7463
18.956	65.7294
18.974	65.7112
18.992	65.6918
19.01	65.6716
19.028	65.6511
19.046	65.6308
19.064	65.6115
19.082	65.5938
19.1	65.5786
19.118	65.5665
19.136	65.5588
19.154	65.5557
19.172	65.5587
19.19	65.5677
19.208	65.5839
19.226	65.6072
19.244	65.638
19.262	65.676
19.28	65.7208
19.298	65.772
19.316	65.8279
19.334	65.8884
19.352	65.9509
19.37	66.0155
19.388	66.079
19.406	66.1415
19.424	66.2002
19.442	66.255
19.46	66.3042
19.478	66.3474
19.496	66.384
19.514	66.4136
19.532	66.4367
19.55	66.4533
19.568	66.4641
19.586	66.4697
19.604	66.4703
19.622	66.4671
19.64	66.46
19.658	66.4498
19.676	66.4365
19.694	66.4202
19.712	66.4011
19.73	66.3787
19.748	66.3531
19.766	66.3241
19.784	66.2917
19.802	66.2558
19.82	66.2164
19.838	66.174
19.856	66.129
19.874	66.0818
19.892	66.0333
19.91	65.9836
19.928	65.9342
19.946	65.8852
19.964	65.8376
19.982	65.7916
20	65.7478
20.018	65.7065
20.036	65.6676
20.054	65.6314
20.072	65.5977
20.09	65.5664
20.108	65.5374
20.126	65.5104
20.144	65.4854
20.162	65.4621
20.18	65.4403
20.198	65.4203
20.216	65.4019
20.234	65.3852
20.252	65.3708
20.27	65.3587
20.288	65.3494
20.306	65.3431
20.324	65.3402
20.342	65.3413
20.36	65.3464
20.378	65.356
20.396	65.37
20.414	65.3886
20.432	65.4118
20.45	65.4392
20.468	65.4709
20.486	65.5062
20.504	65.5441
20.522	65.5848
20.54	65.6261
20.558	65.6685
20.576	65.7097
20.594	65.7489
20.612	65.7857
20.63	65.8178
20.648	65.8458
20.666	65.8676
20.684	65.8832
20.702	65.8919
20.72	65.8929
20.738	65.8866
20.756	65.8726
20.774	65.8507
20.792	65.8223
20.81	65.7872
20.828	65.7462
20.846	65.7007
20.864	65.6503
20.882	65.5971
20.9	65.5408
20.918	65.4828
20.936	65.4241
20.954	65.3646
20.972	65.3061
20.99	65.2482
21.008	65.1921
21.026	65.1381
21.044	65.0863
21.062	65.0376
21.08	64.9918
21.098	64.9493
21.116	64.9102
21.134	64.8745
21.152	64.8425
21.17	64.814
21.188	64.789
21.206	64.7675
21.224	64.7492
21.242	64.7339
21.26	64.7218
21.278	64.712
21.296	64.7044
21.314	64.6987
21.332	64.6941
21.35	64.6909
21.368	64.6883
21.386	64.6859
21.404	64.6837
21.422	64.6816
21.44	64.6795
21.458	64.6773
21.476	64.6749
21.494	64.6723
21.512	64.6703
21.53	64.6686
21.548	64.6681
21.566	64.669
21.584	64.6713
21.602	64.6769
21.62	64.6854
21.638	64.6977
21.656	64.7151
21.674	64.7371
21.692	64.7651
21.71	64.7999
21.728	64.8411
21.746	64.8894
21.764	64.9446
21.782	65.0067
21.8	65.0758
21.818	65.1519
21.836	65.2344
21.854	65.3233
21.872	65.4184
21.89	65.5185
21.908	65.6243
21.926	65.7343
21.944	65.8477
21.962	65.9647
21.98	66.0834
21.998	66.2038
22.016	66.3255
22.034	66.4469
22.052	66.5687
22.07	66.6894
22.088	66.808
22.106	66.925
22.124	67.0383
22.142	67.1479
22.16	67.2535
22.178	67.3528
22.196	67.4466
22.214	67.5334
22.232	67.6115
22.25	67.6819
22.268	67.7429
22.286	67.7935
22.304	67.8343
22.322	67.8645
22.34	67.8835
22.358	67.8919
22.376	67.8896
22.394	67.8764
22.412	67.8532
22.43	67.8209
22.448	67.779
22.466	67.729
22.484	67.6717
22.502	67.6066
22.52	67.5354
22.538	67.4589
22.556	67.3766
22.574	67.29
22.592	67.1991
22.61	67.1039
22.628	67.0052
22.646	66.9028
22.664	66.7972
22.682	66.6892
22.7	66.5783
22.718	66.4658
22.736	66.3529
22.754	66.2393
22.772	66.1255
22.79	66.0118
22.808	65.8979
22.826	65.7854
22.844	65.6748
22.862	65.5654
22.88	65.4606
22.898	65.3614
22.916	65.2668
22.934	65.1823
22.952	65.109
22.97	65.0459
22.988	64.9976
23.006	64.9645
23.024	64.9461
23.042	64.9474
23.06	64.9683
23.078	65.0087
23.096	65.0717
23.114	65.1575
23.132	65.2656
23.15	65.3975
23.168	65.5537
23.186	65.7333
23.204	65.935
23.222	66.16
23.24	66.4065
23.258	66.6705
23.276	66.9537
23.294	67.2538
23.312	67.5644
23.33	67.8876
23.348	68.2208
23.366	68.5551
23.384	68.8923
23.402	69.2306
23.42	69.5605
23.438	69.883
23.456	70.1975
23.474	70.4937
23.492	70.7714
23.51	71.0315
23.528	71.2647
23.546	71.4689
23.564	71.6464
23.582	71.7914
23.6	71.901
23.618	71.9778
23.636	72.02
23.654	72.0255
23.672	71.9952
23.69	71.9329
23.708	71.84
23.726	71.7138
23.744	71.5625
23.762	71.392
23.78	71.1965
23.798	70.9857
23.816	70.7705
23.834	70.5439
23.852	70.3136
23.87	70.092
23.888	69.8747
23.906	69.6649
23.924	69.4728
23.942	69.2994
23.96	69.1426
23.978	69.0066
23.996	68.8948
24.014	68.8049
24.032	68.7327
24.05	68.6775
24.068	68.6428
24.086	68.6172
24.104	68.5905
24.122	68.5728
24.14	68.5509
24.158	68.5065
24.176	68.4482
24.194	68.3698
24.212	68.2509
24.23	68.09
24.248	67.892
24.266	67.6394
24.284	67.3218
24.302	66.948
24.32	66.5115
24.338	66.0048
24.356	65.4282
24.374	64.7869
24.392	64.086
24.41	63.3182
24.428	62.4903
24.446	61.6211
24.464	60.7145
24.482	59.7613
24.5	58.7876
24.518	57.8138
24.536	56.8201
24.554	55.8287
24.572	54.871
24.59	53.9373
24.608	53.03
24.626	52.1787
24.644	51.3958
24.662	50.6657
24.68	50.0082
24.698	49.4425
24.716	48.9601
24.734	48.5621
24.752	48.2556
24.77	48.0442
24.788	47.9233
24.806	47.8884
24.824	47.9379
24.842	48.0777
24.86	48.2947
24.878	48.5737
24.896	48.9228
24.914	49.3376
24.932	49.7977
24.95	50.2936
24.968	50.8378
24.986	51.4136
25.004	52.0031
25.022	52.6154
25.04	53.2464
25.058	53.8795
25.076	54.5087
25.094	55.1437
25.112	55.7706
25.13	56.3752
25.148	56.963
25.166	57.5335
25.184	58.0793
25.202	58.5957
25.22	59.086
25.238	59.552
25.256	59.9951
25.274	60.4156
25.292	60.8128
25.31	61.1862
25.328	61.5365
25.346	61.8656
25.364	62.1684
25.382	62.4393
25.4	62.6816
25.418	62.8948
25.436	63.0705
25.454	63.2034
25.472	63.302
25.49	63.3575
25.508	63.3578
25.526	63.2971
25.544	63.1819
25.562	63.0145
25.58	62.7968
25.598	62.5202
25.616	62.194
25.634	61.8345
25.652	61.4536
25.67	61.0443
25.688	60.6044
25.706	60.133
25.724	59.6326
25.742	59.1029
25.76	58.5377
25.778	57.9319
25.796	57.2922
25.814	56.6142
25.832	55.8873
25.85	55.1051
25.868	54.2762
25.886	53.394
25.904	52.45
25.922	51.4174
25.94	50.2989
25.958	49.1599
25.976	48.0652
25.994	46.9786
26.012	45.9036
26.03	44.9119
26.048	44.067
26.066	43.3325
26.084	42.7109
26.102	42.2283
26.12	41.9068
26.138	41.7388
26.156	41.7076
26.174	41.7976
26.192	42.0484
26.21	42.492
26.228	42.9763
26.246	43.3447
26.264	43.6184
26.282	43.8578
26.3	43.9233
26.318	43.6779
26.336	43.1375
26.354	42.3469
26.372	41.2835
26.39	39.9231
26.408	38.2343
26.426	36.2639
26.444	34.0797
26.462	31.716
26.48	28.9912
26.498	26.1025
26.516	23.3406
26.534	20.9119
26.552	18.5676
26.57	16.4513
26.588	14.7922
26.606	13.7604
26.624	13.2297
26.642	13.1801
26.66	13.6175
26.678	14.5761
26.696	16.1016
26.714	18.0647
26.732	20.3244
26.75	22.9068
26.768	26.0499
26.786	29.3203
26.804	32.2413
26.822	34.5799
26.84	36.6977
26.858	38.3878
26.876	39.3981
26.894	39.5347
26.912	38.9052
26.93	37.6566
26.948	35.9288
26.966	33.5942
26.984	30.2478
27.002	26.7081
27.02	23.8746
27.028	23.1533