File: Bakgrunnsmateriale/MATLAB/FTIR/ftir_data/subCa/Mapping_25/BZ12041010-4_t20.asc
PE IR       SPECTRUM    SPECTRUM    ASCII       PEDS        1.60
  -1
BZ2EBE~1.ASC
17/04/10
10:32:24.00
17/04/10
10:32:50.00
tln
$BZ12041010-4_t0020$<tbV0>[-5.2,-4.6,9.0,0.0,22,1,0]
27.028
64

2002,4.07
MIRTGS : RIGHTBACK : INTERNAL 2
MIR : ON : INTERNAL 2
OPTKBR

0.200000
8
8.000000
FILLER
RATIO
SPECTRUM
UNLOCKED 256

DOUBLE
64
COMBINED
1
0
0

0.002000
RATIO

1
0
TRUE
51149
0
LEFT NOT FITTED RIGHT NOT FITTED 0
NONE
NONE
15600
12
4.427000
51148
TRUE
1 0 8 72 0 0 0 0

15798

#HDR
-1
-1
#GR
µM
%T
2.38419e-05
0.0
2.000000
0.002000
12515
8
98.8485
-7.298028
#DATA
2.000000	 65.0423
2.018000	 64.5122
2.036000	 64.7985
2.054000	 65.2137
2.072000	 66.5588
2.090000	 66.1476
2.108000	 65.5298
2.126000	 65.4097
2.144000	 64.9116
2.162000	 64.8174
2.180000	 64.379
2.198000	 63.545
2.216000	 64.5285
2.234000	 61.4637
2.252000	 64.4094
2.270000	 64.1337
2.288000	 64.0838
2.306000	 64.7954
2.324000	 64.5291
2.342000	 65.1794
2.360000	 65.0226
2.378000	 65.3481
2.396000	 65.5347
2.414000	 65.8041
2.432000	 65.6591
2.450000	 65.3609
2.468000	 65.4001
2.486000	 65.086
2.504000	 65.119
2.522000	 65.3531
2.540000	 64.9999
2.558000	 65.2629
2.576000	 65.1487
2.594000	 65.3197
2.612000	 65.0882
2.630000	 65.1876
2.648000	 65.242
2.666000	 65.3991
2.684000	 65.4602
2.702000	 65.3557
2.720000	 65.3039
2.738000	 65.3492
2.756000	 65.4652
2.774000	 65.4087
2.792000	 65.2843
2.810000	 65.2761
2.828000	 65.3866
2.846000	 65.2654
2.864000	 65.2094
2.882000	 65.0363
2.900000	 65.2758
2.918000	 65.1077
2.936000	 65.1568
2.954000	 65.1537
2.972000	 65.3965
2.990000	 65.5906
3.008000	 65.1982
3.026000	 65.3583
3.044000	 65.348
3.062000	 65.3353
3.080000	 65.4432
3.098000	 65.3714
3.116000	 65.276
3.134000	 65.3801
3.152000	 65.3877
3.170000	 65.2666
3.188000	 65.3317
3.206000	 65.3311
3.224000	 65.3598
3.242000	 65.1895
3.260000	 65.1777
3.278000	 65.1989
3.296000	 65.3033
3.314000	 65.2678
3.332000	 65.2188
3.350000	 65.3819
3.368000	 65.3622
3.386000	 65.1544
3.404000	 65.2266
3.422000	 65.1141
3.440000	 65.4291
3.458000	 65.244
3.476000	 65.2765
3.494000	 65.2168
3.512000	 65.3504
3.530000	 65.4277
3.548000	 65.4485
3.566000	 65.3473
3.584000	 65.4274
3.602000	 65.3616
3.620000	 65.2931
3.638000	 65.2722
3.656000	 65.3235
3.674000	 65.4324
3.692000	 65.2416
3.710000	 65.2809
3.728000	 65.3278
3.746000	 65.4345
3.764000	 65.2656
3.782000	 65.296
3.800000	 65.2896
3.818000	 65.2862
3.836000	 65.3742
3.854000	 65.3349
3.872000	 65.3019
3.890000	 65.3746
3.908000	 65.3067
3.926000	 65.2902
3.944000	 65.2793
3.962000	 65.3689
3.980000	 65.3849
3.998000	 65.3875
4.016000	 65.3348
4.034000	 65.3349
4.052000	 65.3231
4.070000	 65.3356
4.088000	 65.3592
4.106000	 65.3976
4.124000	 65.392
4.141999	 65.4672
4.160000	 65.4286
4.178000	 65.3965
4.196000	 65.3094
4.214000	 65.3966
4.232000	 65.3039
4.250000	 65.3841
4.268000	 65.368
4.286000	 65.3674
4.304000	 65.3821
4.322000	 65.3312
4.340000	 65.3985
4.358000	 65.3023
4.375999	 65.2813
4.394000	 65.2226
4.412000	 65.3126
4.430000	 65.2229
4.448000	 65.2411
4.466000	 65.3078
4.484000	 65.281
4.502000	 65.3197
4.520000	 65.3148
4.538000	 65.2578
4.556000	 65.2468
4.574000	 65.23
4.592000	 65.1743
4.609999	 65.3109
4.628000	 65.2469
4.646000	 65.2668
4.664000	 65.2641
4.682000	 65.2263
4.700000	 65.2683
4.718000	 65.2771
4.736000	 65.226
4.754000	 65.3083
4.772000	 65.2187
4.790000	 65.28
4.808000	 65.2808
4.826000	 65.3243
4.843999	 65.3224
4.862000	 65.3264
4.880000	 65.3226
4.898000	 65.1987
4.916000	 65.2818
4.934000	 65.3068
4.952000	 65.4105
4.970000	 65.2884
4.988000	 65.362
5.006000	 65.324
5.024000	 65.3361
5.042000	 65.4228
5.060000	 65.383
5.077999	 65.3598
5.096000	 65.366
5.114000	 65.3583
5.132000	 65.3185
5.150000	 65.2588
5.168000	 65.3185
5.186000	 65.263
5.204000	 65.2202
5.222000	 65.2576
5.240000	 65.351
5.258000	 65.3651
5.276000	 65.3814
5.294000	 65.4066
5.312000	 65.3607
5.330000	 65.395
5.348000	 65.4091
5.366000	 65.318
5.384000	 65.2558
5.402000	 65.2523
5.420000	 65.2717
5.438000	 65.2334
5.456000	 65.2481
5.474000	 65.2987
5.492000	 65.3171
5.510000	 65.2992
5.528000	 65.2773
5.546000	 65.2927
5.564000	 65.2793
5.582000	 65.2504
5.600000	 65.3007
5.618000	 65.2715
5.636000	 65.3246
5.654000	 65.3654
5.672000	 65.2703
5.690000	 65.1841
5.708000	 65.1597
5.726000	 65.1173
5.744000	 65.1006
5.762000	 65.124
5.780000	 65.1284
5.798000	 65.1262
5.816000	 65.1387
5.834000	 65.1581
5.852000	 65.1494
5.870000	 65.1998
5.888000	 65.2289
5.906000	 65.1846
5.923999	 65.1903
5.942000	 65.1991
5.960000	 65.1838
5.978000	 65.2481
5.996000	 65.204
6.014000	 65.0956
6.032000	 65.0946
6.050000	 65.1616
6.068000	 65.1524
6.086000	 65.1347
6.104000	 65.219
6.122000	 65.2507
6.140000	 65.1417
6.158000	 65.1458
6.176000	 65.2533
6.194000	 65.2687
6.212000	 65.2118
6.230000	 65.2101
6.248000	 65.1986
6.266000	 65.2288
6.284000	 65.2567
6.302000	 65.2399
6.320000	 65.2527
6.338000	 65.2593
6.356000	 65.2496
6.374000	 65.2714
6.392000	 65.2819
6.410000	 65.3466
6.428000	 65.4047
6.446000	 65.2943
6.464000	 65.1237
6.482000	 65.0552
6.500000	 65.0925
6.518000	 65.1261
6.536000	 65.116
6.554000	 65.1241
6.572000	 65.214
6.590000	 65.2973
6.608000	 65.277
6.626000	 65.2056
6.644000	 65.1769
6.662000	 65.2149
6.680000	 65.2758
6.698000	 65.2813
6.716000	 65.2733
6.734000	 65.2803
6.752000	 65.2604
6.770000	 65.2859
6.788000	 65.3129
6.806000	 65.2737
6.824000	 65.2565
6.842000	 65.2539
6.860000	 65.2308
6.878000	 65.2141
6.896000	 65.1884
6.914000	 65.159
6.932000	 65.178
6.950000	 65.2311
6.968000	 65.2446
6.986000	 65.2331
7.004000	 65.241
7.022000	 65.2247
7.040000	 65.1638
7.058000	 65.1061
7.076000	 65.09
7.094000	 65.1041
7.112000	 65.1246
7.130000	 65.1793
7.148000	 65.2602
7.166000	 65.2825
7.184000	 65.2262
7.202000	 65.1693
7.220000	 65.1745
7.238000	 65.2159
7.256000	 65.235
7.274000	 65.2164
7.292000	 65.188
7.310000	 65.2019
7.328000	 65.2518
7.346000	 65.2468
7.364000	 65.1674
7.382000	 65.1111
7.400000	 65.1284
7.418000	 65.1681
7.436000	 65.1893
7.454000	 65.1937
7.472000	 65.1935
7.490000	 65.2113
7.508000	 65.2459
7.526000	 65.2495
7.544000	 65.204
7.562000	 65.1526
7.580000	 65.1373
7.598000	 65.1532
7.616000	 65.1607
7.634000	 65.1438
7.652000	 65.1296
7.670000	 65.1344
7.688000	 65.148
7.706000	 65.1714
7.724000	 65.19
7.742000	 65.1649
7.760000	 65.1036
7.778000	 65.0661
7.796000	 65.0775
7.814000	 65.1103
7.832000	 65.141
7.850000	 65.1709
7.868000	 65.2063
7.886000	 65.2353
7.904000	 65.2281
7.922000	 65.1745
7.940000	 65.1055
7.958000	 65.0547
7.976000	 65.0366
7.994000	 65.0573
8.012000	 65.102
8.030000	 65.1364
8.048000	 65.1458
8.065999	 65.1424
8.084000	 65.1331
8.102000	 65.1176
8.120000	 65.1087
8.138000	 65.1159
8.155999	 65.1266
8.173999	 65.1279
8.192000	 65.1276
8.210000	 65.1323
8.228000	 65.1309
8.246000	 65.1154
8.263999	 65.1021
8.282000	 65.1132
8.300000	 65.1394
8.318000	 65.143
8.336000	 65.1066
8.353999	 65.0637
8.372000	 65.064
8.390000	 65.1182
8.408000	 65.1948
8.426000	 65.2599
8.443999	 65.3003
8.462000	 65.3169
8.480000	 65.3129
8.498000	 65.2923
8.516000	 65.2628
8.533999	 65.2323
8.552000	 65.2007
8.570000	 65.1684
8.588000	 65.1494
8.606000	 65.1601
8.624000	 65.1897
8.641999	 65.2015
8.660000	 65.1811
8.678000	 65.1587
8.696000	 65.1675
8.714000	 65.2006
8.731999	 65.2255
8.750000	 65.2172
8.768000	 65.1742
8.786000	 65.1159
8.804000	 65.075
8.821999	 65.0793
8.840000	 65.1325
8.858000	 65.2045
8.876000	 65.2474
8.894000	 65.2323
8.911999	 65.1744
8.930000	 65.1158
8.948000	 65.0915
8.966000	 65.1082
8.984000	 65.1449
9.001999	 65.172
9.020000	 65.1784
9.038000	 65.1739
9.056000	 65.1662
9.074000	 65.1478
9.092000	 65.1164
9.109999	 65.0926
9.128000	 65.1053
9.146000	 65.1577
9.164000	 65.2171
9.182000	 65.2419
9.199999	 65.2139
9.218000	 65.1431
9.236000	 65.0522
9.254000	 64.9623
9.272000	 64.8924
9.289999	 64.8582
9.308000	 64.8672
9.326000	 64.9136
9.344000	 64.982
9.362000	 65.0549
9.379999	 65.1187
9.398000	 65.1645
9.416000	 65.1909
9.434000	 65.2044
9.452000	 65.2136
9.469999	 65.2177
9.488000	 65.2053
9.506000	 65.1693
9.524000	 65.1239
9.542000	 65.0985
9.560000	 65.113
9.577999	 65.16
9.596000	 65.2124
9.614000	 65.2471
9.632000	 65.2586
9.650000	 65.2544
9.667999	 65.2419
9.686000	 65.2225
9.704000	 65.1967
9.722000	 65.1685
9.740000	 65.1441
9.757999	 65.125
9.776000	 65.1071
9.794000	 65.0872
9.812000	 65.0691
9.830000	 65.0628
9.847999	 65.0762
9.866000	 65.1073
9.884000	 65.1449
9.902000	 65.1743
9.920000	 65.1858
9.937999	 65.1793
9.956000	 65.1639
9.974000	 65.1531
9.992000	 65.1572
10.01	65.1778
10.028	65.2063
10.046	65.2281
10.064	65.2318
10.082	65.2167
10.1	65.195
10.118	65.1868
10.136	65.2087
10.154	65.2642
10.172	65.3416
10.19	65.4173
10.208	65.4681
10.226	65.4813
10.244	65.4591
10.262	65.4163
10.28	65.3702
10.298	65.332
10.316	65.303
10.334	65.2784
10.352	65.2544
10.37	65.2319
10.388	65.2163
10.406	65.2123
10.424	65.2225
10.442	65.2467
10.46	65.2835
10.478	65.3305
10.496	65.3823
10.514	65.4302
10.532	65.4635
10.55	65.4759
10.568	65.4691
10.586	65.4517
10.604	65.4322
10.622	65.4142
10.64	65.394
10.658	65.3649
10.676	65.3233
10.694	65.2722
10.712	65.2214
10.73	65.1818
10.748	65.1611
10.766	65.1606
10.784	65.1757
10.802	65.1975
10.82	65.2175
10.838	65.2291
10.856	65.2308
10.874	65.2261
10.892	65.2207
10.91	65.2193
10.928	65.2221
10.946	65.2255
10.964	65.2255
10.982	65.221
11	65.2159
11.018	65.2179
11.036	65.2331
11.054	65.2616
11.072	65.2975
11.09	65.3316
11.108	65.3578
11.126	65.3759
11.144	65.3904
11.162	65.4069
11.18	65.4267
11.198	65.4447
11.216	65.4519
11.234	65.442
11.252	65.4143
11.27	65.3762
11.288	65.3407
11.306	65.3197
11.324	65.32
11.342	65.3416
11.36	65.3786
11.378	65.4214
11.396	65.4613
11.414	65.4922
11.432	65.5118
11.45	65.5215
11.468	65.5248
11.486	65.526
11.504	65.5282
11.522	65.5317
11.54	65.5337
11.558	65.5302
11.576	65.5167
11.594	65.4916
11.612	65.4568
11.63	65.4172
11.648	65.3781
11.666	65.3444
11.684	65.3197
11.702	65.3058
11.72	65.3042
11.738	65.3156
11.756	65.3401
11.774	65.3758
11.792	65.4176
11.81	65.4577
11.828	65.4873
11.846	65.4996
11.864	65.4929
11.882	65.4711
11.9	65.4433
11.918	65.4211
11.936	65.4139
11.954	65.4273
11.972	65.4612
11.99	65.51
12.008	65.564
12.026	65.6118
12.044	65.6434
12.062	65.6531
12.08	65.6407
12.098	65.6109
12.116	65.5716
12.134	65.5309
12.152	65.4954
12.17	65.4679
12.188	65.4488
12.206	65.4366
12.224	65.4293
12.242	65.4254
12.26	65.4244
12.278	65.4264
12.296	65.4308
12.314	65.4368
12.332	65.443
12.35	65.448
12.368	65.4517
12.386	65.4553
12.404	65.4604
12.422	65.468
12.44	65.4776
12.458	65.4864
12.476	65.4894
12.494	65.4813
12.512	65.4581
12.53	65.419
12.548	65.3677
12.566	65.3112
12.584	65.259
12.602	65.2206
12.62	65.2027
12.638	65.208
12.656	65.2345
12.674	65.2762
12.692	65.3254
12.71	65.3752
12.728	65.4208
12.746	65.4604
12.764	65.4952
12.782	65.5276
12.8	65.5598
12.818	65.5924
12.836	65.6244
12.854	65.6526
12.872	65.6741
12.89	65.6863
12.908	65.6889
12.926	65.6836
12.944	65.6745
12.962	65.666
12.98	65.6624
12.998	65.6661
13.016	65.6774
13.034	65.694
13.052	65.7119
13.07	65.7266
13.088	65.7343
13.106	65.7323
13.124	65.7202
13.142	65.6993
13.16	65.6723
13.178	65.6425
13.196	65.613
13.214	65.5868
13.232	65.5662
13.25	65.5525
13.268	65.5461
13.286	65.5465
13.304	65.5524
13.322	65.5617
13.34	65.5715
13.358	65.5793
13.376	65.5832
13.394	65.5824
13.412	65.5769
13.43	65.5683
13.448	65.5586
13.466	65.5501
13.484	65.5444
13.502	65.5424
13.52	65.544
13.538	65.5481
13.556	65.5531
13.574	65.5574
13.592	65.5599
13.61	65.5599
13.628	65.5576
13.646	65.5539
13.664	65.5498
13.682	65.5463
13.7	65.5439
13.718	65.5428
13.736	65.5423
13.754	65.542
13.772	65.5413
13.79	65.5399
13.808	65.5377
13.826	65.5351
13.844	65.5329
13.862	65.5316
13.88	65.5315
13.898	65.5325
13.916	65.5341
13.934	65.5353
13.952	65.5349
13.97	65.5318
13.988	65.5252
14.006	65.5147
14.024	65.5003
14.042	65.4825
14.06	65.4621
14.078	65.4403
14.096	65.4182
14.114	65.397
14.132	65.3781
14.15	65.3623
14.168	65.351
14.186	65.3448
14.204	65.3444
14.222	65.35
14.24	65.3616
14.258	65.3784
14.276	65.3992
14.294	65.4223
14.312	65.4456
14.33	65.4666
14.348	65.4834
14.366	65.4941
14.384	65.4981
14.402	65.4956
14.42	65.488
14.438	65.4774
14.456	65.4659
14.474	65.456
14.492	65.449
14.51	65.4458
14.528	65.4457
14.546	65.4471
14.564	65.4476
14.582	65.4449
14.6	65.4367
14.618	65.4216
14.636	65.3996
14.654	65.3718
14.672	65.3406
14.69	65.3087
14.708	65.2789
14.726	65.2537
14.744	65.2348
14.762	65.2224
14.78	65.2158
14.798	65.2135
14.816	65.2141
14.834	65.2158
14.852	65.2175
14.87	65.2192
14.888	65.2215
14.906	65.2256
14.924	65.2331
14.942	65.2455
14.96	65.2636
14.978	65.2873
14.996	65.3158
15.014	65.3475
15.032	65.3799
15.05	65.4107
15.068	65.4379
15.086	65.4603
15.104	65.4772
15.122	65.489
15.14	65.4969
15.158	65.5021
15.176	65.5057
15.194	65.509
15.212	65.5124
15.23	65.5161
15.248	65.5195
15.266	65.5218
15.284	65.5223
15.302	65.52
15.32	65.5146
15.338	65.5057
15.356	65.4933
15.374	65.4775
15.392	65.4588
15.41	65.4376
15.428	65.4144
15.446	65.39
15.464	65.365
15.482	65.3401
15.5	65.3165
15.518	65.2954
15.536	65.2782
15.554	65.266
15.572	65.2602
15.59	65.2617
15.608	65.2707
15.626	65.2871
15.644	65.3099
15.662	65.3372
15.68	65.3669
15.698	65.3968
15.716	65.4243
15.734	65.4472
15.752	65.4643
15.77	65.4747
15.788	65.4787
15.806	65.4774
15.824	65.4721
15.842	65.4651
15.86	65.4587
15.878	65.455
15.896	65.4557
15.914	65.4623
15.932	65.4754
15.95	65.4947
15.968	65.5196
15.986	65.5486
16.004	65.5801
16.022	65.6125
16.04	65.6435
16.058	65.6718
16.076	65.6963
16.094	65.7161
16.112	65.7311
16.13	65.7414
16.148	65.7475
16.166	65.7506
16.184	65.7514
16.202	65.7509
16.22	65.7504
16.238	65.7504
16.256	65.7514
16.274	65.7538
16.292	65.7576
16.31	65.7627
16.328	65.7691
16.346	65.7765
16.364	65.7847
16.382	65.7939
16.4	65.8044
16.418	65.8162
16.436	65.8301
16.454	65.8465
16.472	65.8655
16.49	65.8873
16.508	65.9114
16.526	65.9374
16.544	65.964
16.562	65.9895
16.58	66.0128
16.598	66.0314
16.616	66.0438
16.634	66.049
16.652	66.0456
16.67	66.0337
16.688	66.0131
16.706	65.9854
16.724	65.9519
16.742	65.9145
16.76	65.8763
16.778	65.8389
16.796	65.805
16.814	65.7765
16.832	65.7543
16.85	65.7392
16.868	65.7305
16.886	65.728
16.904	65.7293
16.922	65.7326
16.94	65.736
16.958	65.736
16.976	65.7315
16.994	65.7196
17.012	65.6996
17.03	65.6706
17.048	65.6329
17.066	65.5873
17.084	65.535
17.102	65.4788
17.12	65.4197
17.138	65.3617
17.156	65.3065
17.174	65.2562
17.192	65.2136
17.21	65.1795
17.228	65.1553
17.246	65.1411
17.264	65.137
17.282	65.1418
17.3	65.1546
17.318	65.1738
17.336	65.1973
17.354	65.2241
17.372	65.251
17.39	65.2774
17.408	65.3011
17.426	65.3209
17.444	65.3358
17.462	65.3454
17.48	65.3495
17.498	65.3482
17.516	65.3427
17.534	65.3336
17.552	65.3228
17.57	65.311
17.588	65.3007
17.606	65.2927
17.624	65.2888
17.642	65.29
17.66	65.2969
17.678	65.3103
17.696	65.3301
17.714	65.356
17.732	65.3868
17.75	65.4219
17.768	65.4589
17.786	65.4973
17.804	65.5341
17.822	65.5688
17.84	65.5988
17.858	65.6233
17.876	65.6409
17.894	65.651
17.912	65.6533
17.93	65.648
17.948	65.6353
17.966	65.617
17.984	65.5941
18.002	65.5688
18.02	65.5431
18.038	65.5189
18.056	65.4993
18.074	65.4851
18.092	65.4792
18.11	65.482
18.128	65.4949
18.146	65.5177
18.164	65.5503
18.182	65.5917
18.2	65.6409
18.218	65.6953
18.236	65.7541
18.254	65.8135
18.272	65.8727
18.29	65.9278
18.308	65.9785
18.326	66.0217
18.344	66.0571
18.362	66.0829
18.38	66.0991
18.398	66.1053
18.416	66.102
18.434	66.0896
18.452	66.0695
18.47	66.0424
18.488	66.0107
18.506	65.975
18.524	65.9382
18.542	65.9006
18.56	65.8654
18.578	65.8328
18.596	65.8051
18.614	65.7824
18.632	65.7661
18.65	65.7561
18.668	65.7523
18.686	65.7544
18.704	65.7615
18.722	65.7733
18.74	65.7878
18.758	65.8047
18.776	65.8221
18.794	65.8397
18.812	65.8556
18.83	65.8695
18.848	65.8801
18.866	65.8873
18.884	65.8902
18.902	65.8892
18.92	65.884
18.938	65.8751
18.956	65.8626
18.974	65.8472
18.992	65.8294
19.01	65.8098
19.028	65.7894
19.046	65.7689
19.064	65.7495
19.082	65.7316
19.1	65.7167
19.118	65.7052
19.136	65.6982
19.154	65.696
19.172	65.6995
19.19	65.7088
19.208	65.7244
19.226	65.7461
19.244	65.7737
19.262	65.807
19.28	65.8452
19.298	65.8881
19.316	65.9341
19.334	65.9833
19.352	66.0338
19.37	66.0856
19.388	66.1366
19.406	66.1868
19.424	66.2344
19.442	66.2793
19.46	66.3208
19.478	66.3586
19.496	66.3926
19.514	66.4224
19.532	66.4486
19.55	66.4711
19.568	66.4902
19.586	66.5061
19.604	66.5188
19.622	66.5288
19.64	66.5358
19.658	66.5397
19.676	66.5405
19.694	66.5375
19.712	66.5308
19.73	66.5197
19.748	66.5039
19.766	66.4831
19.784	66.4572
19.802	66.426
19.82	66.3895
19.838	66.3482
19.856	66.3028
19.874	66.2534
19.892	66.2015
19.91	66.1469
19.928	66.0916
19.946	66.0355
19.964	65.9803
19.982	65.9261
20	65.874
20.018	65.8245
20.036	65.7782
20.054	65.7361
20.072	65.698
20.09	65.6651
20.108	65.6373
20.126	65.6153
20.144	65.5991
20.162	65.5892
20.18	65.5856
20.198	65.5882
20.216	65.5968
20.234	65.6113
20.252	65.6306
20.27	65.6551
20.288	65.6826
20.306	65.7135
20.324	65.7459
20.342	65.7787
20.36	65.8114
20.378	65.8415
20.396	65.8694
20.414	65.8926
20.432	65.9112
20.45	65.9239
20.468	65.93
20.486	65.9296
20.504	65.9219
20.522	65.9073
20.54	65.886
20.558	65.8578
20.576	65.8241
20.594	65.7849
20.612	65.741
20.63	65.694
20.648	65.6435
20.666	65.5921
20.684	65.5394
20.702	65.4871
20.72	65.4361
20.738	65.3866
20.756	65.3404
20.774	65.2973
20.792	65.2588
20.81	65.2252
20.828	65.197
20.846	65.1751
20.864	65.1593
20.882	65.1503
20.9	65.148
20.918	65.1524
20.936	65.1634
20.954	65.1809
20.972	65.2041
20.99	65.2332
21.008	65.2666
21.026	65.3042
21.044	65.3453
21.062	65.3877
21.08	65.4323
21.098	65.4763
21.116	65.5193
21.134	65.5605
21.152	65.5974
21.17	65.6306
21.188	65.6581
21.206	65.6793
21.224	65.6941
21.242	65.7015
21.26	65.7015
21.278	65.6948
21.296	65.6809
21.314	65.6609
21.332	65.6363
21.35	65.6064
21.368	65.5743
21.386	65.5405
21.404	65.5057
21.422	65.4734
21.44	65.4425
21.458	65.4158
21.476	65.3944
21.494	65.3782
21.512	65.3692
21.53	65.3671
21.548	65.3722
21.566	65.385
21.584	65.4051
21.602	65.4315
21.62	65.4649
21.638	65.5036
21.656	65.5457
21.674	65.5919
21.692	65.6397
21.71	65.6885
21.728	65.7381
21.746	65.7861
21.764	65.833
21.782	65.8783
21.8	65.9215
21.818	65.9627
21.836	66.003
21.854	66.0417
21.872	66.0802
21.89	66.1204
21.908	66.1614
21.926	66.2057
21.944	66.2548
21.962	66.308
21.98	66.3679
21.998	66.4345
22.016	66.5081
22.034	66.5901
22.052	66.6807
22.07	66.7784
22.088	66.8829
22.106	66.9944
22.124	67.1083
22.142	67.225
22.16	67.343
22.178	67.4558
22.196	67.5654
22.214	67.6681
22.232	67.7586
22.25	67.8393
22.268	67.9055
22.286	67.9539
22.304	67.9863
22.322	67.9991
22.34	67.9911
22.358	67.9636
22.376	67.9172
22.394	67.8504
22.412	67.7667
22.43	67.6699
22.448	67.5575
22.466	67.4357
22.484	67.3092
22.502	67.1752
22.52	67.0417
22.538	66.9119
22.556	66.784
22.574	66.6657
22.592	66.5578
22.61	66.46
22.628	66.3764
22.646	66.3071
22.664	66.2515
22.682	66.2105
22.7	66.1849
22.718	66.1719
22.736	66.1694
22.754	66.1795
22.772	66.1965
22.79	66.2163
22.808	66.2418
22.826	66.2658
22.844	66.2839
22.862	66.2992
22.88	66.3051
22.898	66.2984
22.916	66.2812
22.934	66.2502
22.952	66.2037
22.97	66.1429
22.988	66.0674
23.006	65.9758
23.024	65.8694
23.042	65.7526
23.06	65.6241
23.078	65.4855
23.096	65.3442
23.114	65.1985
23.132	65.0506
23.15	64.9102
23.168	64.7759
23.186	64.6492
23.204	64.538
23.222	64.4411
23.24	64.3596
23.258	64.3003
23.276	64.2627
23.294	64.2468
23.312	64.2559
23.33	64.2903
23.348	64.3491
23.366	64.4329
23.384	64.5429
23.402	64.6772
23.42	64.8328
23.438	65.0102
23.456	65.2087
23.474	65.4239
23.492	65.656
23.51	65.905
23.528	66.1659
23.546	66.4379
23.564	66.7218
23.582	67.0144
23.6	67.3144
23.618	67.623
23.636	67.9377
23.654	68.2572
23.672	68.5823
23.69	68.9127
23.708	69.2482
23.726	69.5887
23.744	69.9347
23.762	70.2867
23.78	70.6449
23.798	71.0084
23.816	71.3765
23.834	71.751
23.852	72.1288
23.87	72.5063
23.888	72.8865
23.906	73.266
23.924	73.6376
23.942	74.0034
23.96	74.3623
23.978	74.7038
23.996	75.0262
24.014	75.3331
24.032	75.6118
24.05	75.8556
24.068	76.0717
24.086	76.2492
24.104	76.3775
24.122	76.4629
24.14	76.501
24.158	76.4838
24.176	76.4126
24.194	76.2883
24.212	76.1087
24.23	75.8719
24.248	75.5799
24.266	75.2369
24.284	74.844
24.302	74.3983
24.32	73.909
24.338	73.3839
24.356	72.8143
24.374	72.2118
24.392	71.5929
24.41	70.9524
24.428	70.2925
24.446	69.6315
24.464	68.9756
24.482	68.3162
24.5	67.6683
24.518	67.0444
24.536	66.436
24.554	65.849
24.572	65.2934
24.59	64.7685
24.608	64.2724
24.626	63.8086
24.644	63.3798
24.662	62.9844
24.68	62.6197
24.698	62.2839
24.716	61.9805
24.734	61.7045
24.752	61.4485
24.77	61.2132
24.788	60.9998
24.806	60.8005
24.824	60.6098
24.842	60.4324
24.86	60.2644
24.878	60.1007
24.896	59.9415
24.914	59.788
24.932	59.6386
24.95	59.4919
24.968	59.348
24.986	59.2093
25.004	59.078
25.022	58.9521
25.04	58.8331
25.058	58.7247
25.076	58.6288
25.094	58.5431
25.112	58.4696
25.13	58.4107
25.148	58.3664
25.166	58.3356
25.184	58.3172
25.202	58.3116
25.22	58.3204
25.238	58.3382
25.256	58.3602
25.274	58.3915
25.292	58.4284
25.31	58.4609
25.328	58.4843
25.346	58.5071
25.364	58.5177
25.382	58.503
25.4	58.4669
25.418	58.4105
25.436	58.3227
25.454	58.1947
25.472	58.0333
25.49	57.8357
25.508	57.5966
25.526	57.3148
25.544	56.993
25.562	56.6289
25.58	56.22
25.598	55.7672
25.616	55.2711
25.634	54.7317
25.652	54.1461
25.67	53.5101
25.688	52.837
25.706	52.1415
25.724	51.4211
25.742	50.6713
25.76	49.9096
25.778	49.1516
25.796	48.3864
25.814	47.6184
25.832	46.863
25.85	46.1307
25.868	45.4121
25.886	44.7108
25.904	44.0329
25.922	43.3957
25.94	42.7974
25.958	42.1962
25.976	41.5509
25.994	40.8854
26.012	40.1971
26.03	39.4388
26.048	38.5697
26.066	37.62
26.084	36.5799
26.102	35.4207
26.12	34.1204
26.138	32.6933
26.156	31.1443
26.174	29.4756
26.192	27.6535
26.21	25.6602
26.228	23.6062
26.246	21.605
26.264	19.6358
26.282	17.6565
26.3	15.781
26.318	14.1206
26.336	12.648
26.354	11.3375
26.372	10.2339
26.39	9.379749
26.408	8.771596
26.426	8.388072
26.444	8.215234
26.462	8.256907
26.48	8.617227
26.498	9.164817
26.516	9.714770
26.534	10.1358
26.552	10.5855
26.57	10.9724
26.588	11.1507
26.606	11.0129
26.624	10.6414
26.642	10.0436
26.66	9.209923
26.678	8.112151
26.696	6.720008
26.714	5.125553
26.732	3.429125
26.75	1.614871
26.768	-0.483244
26.786	-2.568430
26.804	-4.313876
26.822	-5.567325
26.84	-6.585949
26.858	-7.202628
26.876	-7.217805
26.894	-6.493980
26.912	-5.137058
26.93	-3.206109
26.948	-0.750850
26.966	2.465395
26.984	6.867596
27.002	11.4445
27.02	15.0946
27.028	16.0314