File: Bakgrunnsmateriale/MATLAB/FTIR/ftir_data/subCa/Mapping_25/BZ12041010-4_t23.asc
PE IR       SPECTRUM    SPECTRUM    ASCII       PEDS        1.60
  -1
BZ3EBA~1.ASC
17/04/10
10:53:47.00
17/04/10
10:54:13.00
tln
$BZ12041010-4_t0023$<tbV0>[0.0,-2.0,9.0,0.0,22,1,0]
27.028
64

2002,4.07
MIRTGS : RIGHTBACK : INTERNAL 2
MIR : ON : INTERNAL 2
OPTKBR

0.200000
8
8.000000
FILLER
RATIO
SPECTRUM
UNLOCKED 256

DOUBLE
64
COMBINED
1
0
0

0.002000
RATIO

1
0
TRUE
51149
0
LEFT NOT FITTED RIGHT NOT FITTED 0
NONE
NONE
15600
12
4.427000
51148
TRUE
1 0 8 72 0 0 0 0

15798

#HDR
-1
-1
#GR
µM
%T
2.38419e-05
0.0
2.000000
0.002000
12515
8
72.852
31.8282
#DATA
2.000000	 56.2025
2.018000	 55.6191
2.036000	 56.3902
2.054000	 57.1468
2.072000	 56.7476
2.090000	 56.2591
2.108000	 56.4058
2.126000	 56.1553
2.144000	 56.6894
2.162000	 56.5539
2.180000	 56.8694
2.198000	 56.6065
2.216000	 56.8264
2.234000	 54.7557
2.252000	 56.5459
2.270000	 56.2195
2.288000	 57.1342
2.306000	 56.7905
2.324000	 56.6314
2.342000	 56.8542
2.360000	 56.5175
2.378000	 56.5243
2.396000	 56.3008
2.414000	 56.2182
2.432000	 56.7601
2.450000	 56.8252
2.468000	 56.9418
2.486000	 56.6486
2.504000	 56.6521
2.522000	 56.5198
2.540000	 56.5453
2.558000	 56.7854
2.576000	 56.6735
2.594000	 56.8424
2.612000	 56.799
2.630000	 56.818
2.648000	 56.8725
2.666000	 56.7519
2.684000	 56.747
2.702000	 56.5418
2.720000	 56.7821
2.738000	 56.7138
2.756000	 56.9062
2.774000	 56.7977
2.792000	 56.8571
2.810000	 56.8588
2.828000	 56.637
2.846000	 56.4001
2.864000	 56.3467
2.882000	 56.4387
2.900000	 56.5066
2.918000	 56.4485
2.936000	 56.5388
2.954000	 56.5632
2.972000	 56.4239
2.990000	 56.6893
3.008000	 56.4502
3.026000	 56.7239
3.044000	 56.4854
3.062000	 56.6603
3.080000	 56.4872
3.098000	 56.7015
3.116000	 56.4515
3.134000	 56.5393
3.152000	 56.665
3.170000	 56.5601
3.188000	 56.6175
3.206000	 56.8117
3.224000	 56.74
3.242000	 56.8868
3.260000	 56.9166
3.278000	 56.7138
3.296000	 56.6763
3.314000	 56.7614
3.332000	 56.6807
3.350000	 56.7329
3.368000	 56.5694
3.386000	 56.5331
3.404000	 56.3797
3.422000	 56.6129
3.440000	 56.4722
3.458000	 56.4827
3.476000	 56.4753
3.494000	 56.6675
3.512000	 56.6264
3.530000	 56.8517
3.548000	 56.9372
3.566000	 56.8528
3.584000	 56.8835
3.602000	 56.8598
3.620000	 56.8225
3.638000	 56.811
3.656000	 56.7254
3.674000	 56.6792
3.692000	 56.5886
3.710000	 56.708
3.728000	 56.6847
3.746000	 56.6143
3.764000	 56.6849
3.782000	 56.7022
3.800000	 56.7758
3.818000	 56.8674
3.836000	 56.9242
3.854000	 56.8562
3.872000	 56.8816
3.890000	 56.8272
3.908000	 56.8484
3.926000	 56.9532
3.944000	 56.9521
3.962000	 56.807
3.980000	 56.8746
3.998000	 56.7262
4.016000	 56.74
4.034000	 56.8373
4.052000	 56.8646
4.070000	 56.7692
4.088000	 56.8268
4.106000	 56.8121
4.124000	 56.852
4.141999	 56.8986
4.160000	 56.7553
4.178000	 56.7979
4.196000	 56.8109
4.214000	 56.7557
4.232000	 56.8624
4.250000	 56.8437
4.268000	 56.8897
4.286000	 56.7254
4.304000	 56.8256
4.322000	 56.8844
4.340000	 56.8817
4.358000	 56.8521
4.375999	 56.7472
4.394000	 56.7592
4.412000	 56.7896
4.430000	 56.7784
4.448000	 56.8056
4.466000	 56.7777
4.484000	 56.808
4.502000	 56.6912
4.520000	 56.6736
4.538000	 56.6891
4.556000	 56.6442
4.574000	 56.6315
4.592000	 56.7448
4.609999	 56.686
4.628000	 56.6532
4.646000	 56.7378
4.664000	 56.8527
4.682000	 56.7312
4.700000	 56.7615
4.718000	 56.7996
4.736000	 56.7581
4.754000	 56.8269
4.772000	 56.8191
4.790000	 56.8419
4.808000	 56.8454
4.826000	 56.7545
4.843999	 56.7245
4.862000	 56.7593
4.880000	 56.8579
4.898000	 56.8311
4.916000	 56.7431
4.934000	 56.7625
4.952000	 56.707
4.970000	 56.7296
4.988000	 56.6689
5.006000	 56.6645
5.024000	 56.6796
5.042000	 56.5968
5.060000	 56.5668
5.077999	 56.662
5.096000	 56.6066
5.114000	 56.5634
5.132000	 56.6252
5.150000	 56.636
5.168000	 56.5888
5.186000	 56.5669
5.204000	 56.6451
5.222000	 56.5524
5.240000	 56.6304
5.258000	 56.6362
5.276000	 56.5857
5.294000	 56.6717
5.312000	 56.6918
5.330000	 56.6931
5.348000	 56.6156
5.366000	 56.5789
5.384000	 56.5845
5.402000	 56.5835
5.420000	 56.586
5.438000	 56.6699
5.456000	 56.6771
5.474000	 56.6779
5.492000	 56.7385
5.510000	 56.781
5.528000	 56.7096
5.546000	 56.7176
5.564000	 56.6919
5.582000	 56.6499
5.600000	 56.6408
5.618000	 56.6465
5.636000	 56.6091
5.654000	 56.5222
5.672000	 56.5592
5.690000	 56.5002
5.708000	 56.4166
5.726000	 56.3513
5.744000	 56.3529
5.762000	 56.3606
5.780000	 56.3203
5.798000	 56.3612
5.816000	 56.3526
5.834000	 56.3195
5.852000	 56.2774
5.870000	 56.3569
5.888000	 56.4355
5.906000	 56.4296
5.923999	 56.4079
5.942000	 56.3768
5.960000	 56.3307
5.978000	 56.2712
5.996000	 56.3022
6.014000	 56.3587
6.032000	 56.4281
6.050000	 56.465
6.068000	 56.4604
6.086000	 56.4544
6.104000	 56.5112
6.122000	 56.6013
6.140000	 56.609
6.158000	 56.5626
6.176000	 56.5611
6.194000	 56.5692
6.212000	 56.5774
6.230000	 56.5387
6.248000	 56.4908
6.266000	 56.461
6.284000	 56.5053
6.302000	 56.6114
6.320000	 56.5821
6.338000	 56.5208
6.356000	 56.532
6.374000	 56.4893
6.392000	 56.5097
6.410000	 56.5889
6.428000	 56.5341
6.446000	 56.4683
6.464000	 56.5615
6.482000	 56.651
6.500000	 56.6145
6.518000	 56.5733
6.536000	 56.5978
6.554000	 56.6093
6.572000	 56.582
6.590000	 56.5368
6.608000	 56.518
6.626000	 56.5403
6.644000	 56.5024
6.662000	 56.4082
6.680000	 56.3581
6.698000	 56.3617
6.716000	 56.4448
6.734000	 56.5274
6.752000	 56.5328
6.770000	 56.5072
6.788000	 56.4727
6.806000	 56.4705
6.824000	 56.4812
6.842000	 56.4915
6.860000	 56.5277
6.878000	 56.5234
6.896000	 56.4534
6.914000	 56.3879
6.932000	 56.3666
6.950000	 56.3999
6.968000	 56.4418
6.986000	 56.4086
7.004000	 56.3359
7.022000	 56.3086
7.040000	 56.3283
7.058000	 56.3718
7.076000	 56.3925
7.094000	 56.3506
7.112000	 56.3173
7.130000	 56.3599
7.148000	 56.4042
7.166000	 56.3773
7.184000	 56.3461
7.202000	 56.3775
7.220000	 56.4121
7.238000	 56.3901
7.256000	 56.3579
7.274000	 56.3477
7.292000	 56.3382
7.310000	 56.3342
7.328000	 56.3493
7.346000	 56.3623
7.364000	 56.3639
7.382000	 56.3897
7.400000	 56.4552
7.418000	 56.5102
7.436000	 56.5034
7.454000	 56.4386
7.472000	 56.3609
7.490000	 56.3218
7.508000	 56.3199
7.526000	 56.2969
7.544000	 56.2412
7.562000	 56.2074
7.580000	 56.2233
7.598000	 56.2623
7.616000	 56.2799
7.634000	 56.2557
7.652000	 56.2379
7.670000	 56.2812
7.688000	 56.3375
7.706000	 56.3273
7.724000	 56.2777
7.742000	 56.2587
7.760000	 56.2727
7.778000	 56.2904
7.796000	 56.301
7.814000	 56.3052
7.832000	 56.3119
7.850000	 56.3361
7.868000	 56.3702
7.886000	 56.3786
7.904000	 56.3437
7.922000	 56.2845
7.940000	 56.2276
7.958000	 56.1871
7.976000	 56.1683
7.994000	 56.1731
8.012000	 56.2035
8.030000	 56.2604
8.048000	 56.3326
8.065999	 56.3971
8.084000	 56.4374
8.102000	 56.4471
8.120000	 56.4286
8.138000	 56.4061
8.155999	 56.4138
8.173999	 56.4494
8.192000	 56.4598
8.210000	 56.4097
8.228000	 56.3439
8.246000	 56.3329
8.263999	 56.3769
8.282000	 56.4214
8.300000	 56.4422
8.318000	 56.4573
8.336000	 56.4753
8.353999	 56.485
8.372000	 56.4853
8.390000	 56.4834
8.408000	 56.4763
8.426000	 56.4607
8.443999	 56.4478
8.462000	 56.4444
8.480000	 56.4373
8.498000	 56.4166
8.516000	 56.394
8.533999	 56.3802
8.552000	 56.362
8.570000	 56.3194
8.588000	 56.2553
8.606000	 56.1943
8.624000	 56.1593
8.641999	 56.1527
8.660000	 56.1577
8.678000	 56.1569
8.696000	 56.1528
8.714000	 56.1605
8.731999	 56.1832
8.750000	 56.2106
8.768000	 56.2441
8.786000	 56.3083
8.804000	 56.415
8.821999	 56.5352
8.840000	 56.6274
8.858000	 56.6763
8.876000	 56.6869
8.894000	 56.6645
8.911999	 56.6126
8.930000	 56.5357
8.948000	 56.4432
8.966000	 56.3544
8.984000	 56.2946
9.001999	 56.2787
9.020000	 56.3036
9.038000	 56.3483
9.056000	 56.3879
9.074000	 56.4065
9.092000	 56.4048
9.109999	 56.3952
9.128000	 56.3905
9.146000	 56.3971
9.164000	 56.4127
9.182000	 56.4293
9.199999	 56.4365
9.218000	 56.4259
9.236000	 56.3966
9.254000	 56.3553
9.272000	 56.3139
9.289999	 56.2804
9.308000	 56.2528
9.326000	 56.2187
9.344000	 56.1653
9.362000	 56.0917
9.379999	 56.016
9.398000	 55.966
9.416000	 55.9607
9.434000	 55.9951
9.452000	 56.044
9.469999	 56.0789
9.488000	 56.0852
9.506000	 56.0658
9.524000	 56.0331
9.542000	 55.999
9.560000	 55.9712
9.577999	 55.9531
9.596000	 55.9461
9.614000	 55.9511
9.632000	 55.9702
9.650000	 56.003
9.667999	 56.0441
9.686000	 56.0795
9.704000	 56.0918
9.722000	 56.0696
9.740000	 56.0165
9.757999	 55.9497
9.776000	 55.8898
9.794000	 55.8504
9.812000	 55.8339
9.830000	 55.8344
9.847999	 55.844
9.866000	 55.8582
9.884000	 55.8767
9.902000	 55.9008
9.920000	 55.9312
9.937999	 55.9675
9.956000	 56.0078
9.974000	 56.0487
9.992000	 56.0831
10.01	56.1021
10.028	56.0979
10.046	56.0711
10.064	56.0315
10.082	55.9944
10.1	55.9709
10.118	55.9604
10.136	55.9525
10.154	55.9354
10.172	55.9058
10.19	55.8729
10.208	55.853
10.226	55.8586
10.244	55.8922
10.262	55.9445
10.28	56.0008
10.298	56.0477
10.316	56.0776
10.334	56.09
10.352	56.0883
10.37	56.0752
10.388	56.0496
10.406	56.0083
10.424	55.9532
10.442	55.897
10.46	55.8604
10.478	55.864
10.496	55.9151
10.514	56.0039
10.532	56.1067
10.55	56.1995
10.568	56.2689
10.586	56.3151
10.604	56.3459
10.622	56.368
10.64	56.3807
10.658	56.3786
10.676	56.3579
10.694	56.322
10.712	56.282
10.73	56.2512
10.748	56.2385
10.766	56.2429
10.784	56.2553
10.802	56.2638
10.82	56.2613
10.838	56.2479
10.856	56.2299
10.874	56.2155
10.892	56.2106
10.91	56.2182
10.928	56.2371
10.946	56.2629
10.964	56.2888
10.982	56.3063
11	56.3079
11.018	56.2898
11.036	56.2546
11.054	56.2109
11.072	56.1704
11.09	56.144
11.108	56.1377
11.126	56.1509
11.144	56.1778
11.162	56.2097
11.18	56.2385
11.198	56.2579
11.216	56.265
11.234	56.2602
11.252	56.2478
11.27	56.2346
11.288	56.2297
11.306	56.2409
11.324	56.273
11.342	56.3254
11.36	56.3911
11.378	56.4576
11.396	56.5116
11.414	56.5424
11.432	56.5462
11.45	56.5273
11.468	56.4968
11.486	56.4666
11.504	56.4458
11.522	56.4379
11.54	56.4402
11.558	56.4458
11.576	56.4479
11.594	56.4425
11.612	56.4292
11.63	56.4109
11.648	56.3917
11.666	56.375
11.684	56.3629
11.702	56.3557
11.72	56.3529
11.738	56.3541
11.756	56.3586
11.774	56.3658
11.792	56.3741
11.81	56.3813
11.828	56.3848
11.846	56.3825
11.864	56.3735
11.882	56.3586
11.9	56.3401
11.918	56.3208
11.936	56.304
11.954	56.2923
11.972	56.2875
11.99	56.2901
12.008	56.2995
12.026	56.3136
12.044	56.3292
12.062	56.3427
12.08	56.3514
12.098	56.3542
12.116	56.3525
12.134	56.3499
12.152	56.3514
12.17	56.3608
12.188	56.3804
12.206	56.4088
12.224	56.442
12.242	56.4746
12.26	56.5018
12.278	56.5203
12.296	56.5301
12.314	56.5333
12.332	56.5331
12.35	56.5323
12.368	56.5325
12.386	56.5336
12.404	56.5342
12.422	56.5329
12.44	56.5292
12.458	56.5238
12.476	56.5188
12.494	56.5166
12.512	56.5189
12.53	56.5258
12.548	56.5359
12.566	56.5465
12.584	56.5545
12.602	56.5579
12.62	56.5558
12.638	56.5482
12.656	56.5359
12.674	56.5195
12.692	56.4986
12.71	56.4732
12.728	56.443
12.746	56.4089
12.764	56.3729
12.782	56.3385
12.8	56.3091
12.818	56.288
12.836	56.277
12.854	56.2759
12.872	56.2828
12.89	56.2947
12.908	56.3081
12.926	56.3204
12.944	56.3301
12.962	56.337
12.98	56.3418
12.998	56.3455
13.016	56.349
13.034	56.3522
13.052	56.3547
13.07	56.3556
13.088	56.3546
13.106	56.3521
13.124	56.3495
13.142	56.3489
13.16	56.3522
13.178	56.3604
13.196	56.3736
13.214	56.3903
13.232	56.4085
13.25	56.4255
13.268	56.4391
13.286	56.4477
13.304	56.451
13.322	56.4497
13.34	56.4454
13.358	56.44
13.376	56.4353
13.394	56.4328
13.412	56.4336
13.43	56.4383
13.448	56.4468
13.466	56.4587
13.484	56.4729
13.502	56.4885
13.52	56.5043
13.538	56.5188
13.556	56.5316
13.574	56.5427
13.592	56.5529
13.61	56.5638
13.628	56.576
13.646	56.59
13.664	56.6042
13.682	56.6163
13.7	56.6229
13.718	56.6208
13.736	56.6081
13.754	56.5845
13.772	56.5527
13.79	56.517
13.808	56.4838
13.826	56.4594
13.844	56.4495
13.862	56.4575
13.88	56.4841
13.898	56.5275
13.916	56.5832
13.934	56.645
13.952	56.7062
13.97	56.7602
13.988	56.8016
14.006	56.8265
14.024	56.8326
14.042	56.8196
14.06	56.7887
14.078	56.7431
14.096	56.6871
14.114	56.6261
14.132	56.5659
14.15	56.5119
14.168	56.4687
14.186	56.4392
14.204	56.4241
14.222	56.4222
14.24	56.4303
14.258	56.4445
14.276	56.4608
14.294	56.4755
14.312	56.4866
14.33	56.4934
14.348	56.4971
14.366	56.4997
14.384	56.5043
14.402	56.5133
14.42	56.5282
14.438	56.5493
14.456	56.5757
14.474	56.6052
14.492	56.6353
14.51	56.6631
14.528	56.6864
14.546	56.7043
14.564	56.7167
14.582	56.7242
14.6	56.728
14.618	56.7295
14.636	56.7301
14.654	56.7303
14.672	56.7305
14.69	56.7304
14.708	56.7291
14.726	56.7256
14.744	56.7187
14.762	56.7077
14.78	56.6927
14.798	56.6737
14.816	56.6513
14.834	56.6262
14.852	56.5997
14.87	56.5727
14.888	56.5462
14.906	56.5209
14.924	56.4975
14.942	56.4764
14.96	56.458
14.978	56.4427
14.996	56.431
15.014	56.4233
15.032	56.4198
15.05	56.4206
15.068	56.4253
15.086	56.4336
15.104	56.4444
15.122	56.4563
15.14	56.4675
15.158	56.4764
15.176	56.4815
15.194	56.4814
15.212	56.4753
15.23	56.4632
15.248	56.4457
15.266	56.4241
15.284	56.4003
15.302	56.3767
15.32	56.3554
15.338	56.3386
15.356	56.3282
15.374	56.3253
15.392	56.3302
15.41	56.3426
15.428	56.3618
15.446	56.386
15.464	56.413
15.482	56.4409
15.5	56.4674
15.518	56.4903
15.536	56.5081
15.554	56.5194
15.572	56.5235
15.59	56.5197
15.608	56.5081
15.626	56.4889
15.644	56.4626
15.662	56.4305
15.68	56.3936
15.698	56.3535
15.716	56.3123
15.734	56.2723
15.752	56.2358
15.77	56.205
15.788	56.183
15.806	56.1717
15.824	56.1726
15.842	56.187
15.86	56.215
15.878	56.2557
15.896	56.3082
15.914	56.3699
15.932	56.4378
15.95	56.5092
15.968	56.5807
15.986	56.6487
16.004	56.7109
16.022	56.7648
16.04	56.8087
16.058	56.8417
16.076	56.8631
16.094	56.8728
16.112	56.8711
16.13	56.8584
16.148	56.8354
16.166	56.8033
16.184	56.7629
16.202	56.7152
16.22	56.6618
16.238	56.6042
16.256	56.5438
16.274	56.4829
16.292	56.4231
16.31	56.3662
16.328	56.3144
16.346	56.2689
16.364	56.2309
16.382	56.2012
16.4	56.18
16.418	56.1672
16.436	56.1619
16.454	56.1627
16.472	56.1688
16.49	56.178
16.508	56.189
16.526	56.2005
16.544	56.2109
16.562	56.2195
16.58	56.2255
16.598	56.2285
16.616	56.2287
16.634	56.2264
16.652	56.2224
16.67	56.2173
16.688	56.2121
16.706	56.2082
16.724	56.2063
16.742	56.2074
16.76	56.2127
16.778	56.2226
16.796	56.2378
16.814	56.2583
16.832	56.2841
16.85	56.3146
16.868	56.3487
16.886	56.3859
16.904	56.4241
16.922	56.4624
16.94	56.4993
16.958	56.5331
16.976	56.5633
16.994	56.5883
17.012	56.6082
17.03	56.6226
17.048	56.632
17.066	56.637
17.084	56.6385
17.102	56.6377
17.12	56.6354
17.138	56.6328
17.156	56.6301
17.174	56.6277
17.192	56.625
17.21	56.6219
17.228	56.6172
17.246	56.61
17.264	56.5996
17.282	56.5846
17.3	56.565
17.318	56.5404
17.336	56.5116
17.354	56.4791
17.372	56.4451
17.39	56.4107
17.408	56.3789
17.426	56.352
17.444	56.3315
17.462	56.3206
17.48	56.3201
17.498	56.3322
17.516	56.3568
17.534	56.3947
17.552	56.4446
17.57	56.5059
17.588	56.5761
17.606	56.6531
17.624	56.7345
17.642	56.8162
17.66	56.8966
17.678	56.9707
17.696	57.0375
17.714	57.0929
17.732	57.136
17.75	57.1648
17.768	57.1787
17.786	57.1773
17.804	57.1616
17.822	57.132
17.84	57.0907
17.858	57.0395
17.876	56.9805
17.894	56.917
17.912	56.8503
17.93	56.7844
17.948	56.7201
17.966	56.6605
17.984	56.606
18.002	56.5586
18.02	56.518
18.038	56.4848
18.056	56.4585
18.074	56.4389
18.092	56.4247
18.11	56.4158
18.128	56.4106
18.146	56.4088
18.164	56.4094
18.182	56.4122
18.2	56.4166
18.218	56.4228
18.236	56.4305
18.254	56.44
18.272	56.4514
18.29	56.4648
18.308	56.4801
18.326	56.4975
18.344	56.5167
18.362	56.5377
18.38	56.5602
18.398	56.5837
18.416	56.6078
18.434	56.632
18.452	56.6554
18.47	56.6777
18.488	56.6979
18.506	56.7158
18.524	56.7308
18.542	56.7425
18.56	56.7505
18.578	56.7547
18.596	56.7549
18.614	56.7513
18.632	56.7443
18.65	56.734
18.668	56.7215
18.686	56.7071
18.704	56.6921
18.722	56.6769
18.74	56.663
18.758	56.6507
18.776	56.6417
18.794	56.6361
18.812	56.6352
18.83	56.6392
18.848	56.6487
18.866	56.6635
18.884	56.6839
18.902	56.7093
18.92	56.7393
18.938	56.7732
18.956	56.8101
18.974	56.8491
18.992	56.889
19.01	56.9289
19.028	56.9677
19.046	57.0047
19.064	57.0386
19.082	57.0691
19.1	57.0955
19.118	57.1176
19.136	57.135
19.154	57.1475
19.172	57.1552
19.19	57.158
19.208	57.1556
19.226	57.1482
19.244	57.1358
19.262	57.1182
19.28	57.0953
19.298	57.0671
19.316	57.0331
19.334	56.9935
19.352	56.948
19.37	56.8965
19.388	56.8393
19.406	56.7763
19.424	56.7084
19.442	56.6356
19.46	56.5594
19.478	56.4798
19.496	56.399
19.514	56.3175
19.532	56.2373
19.55	56.1595
19.568	56.0858
19.586	56.0181
19.604	55.9572
19.622	55.9052
19.64	55.8621
19.658	55.83
19.676	55.8085
19.694	55.7987
19.712	55.8004
19.73	55.8128
19.748	55.8362
19.766	55.8682
19.784	55.9089
19.802	55.9554
19.82	56.0067
19.838	56.0608
19.856	56.1147
19.874	56.1683
19.892	56.2173
19.91	56.2623
19.928	56.2997
19.946	56.3298
19.964	56.3506
19.982	56.3617
20	56.3631
20.018	56.3541
20.036	56.3358
20.054	56.3089
20.072	56.2739
20.09	56.2333
20.108	56.1869
20.126	56.1387
20.144	56.0882
20.162	56.0388
20.18	55.9916
20.198	55.9481
20.216	55.9109
20.234	55.8796
20.252	55.8569
20.27	55.8423
20.288	55.8367
20.306	55.8404
20.324	55.8525
20.342	55.8731
20.36	55.9014
20.378	55.9355
20.396	55.9757
20.414	56.019
20.432	56.0659
20.45	56.1136
20.468	56.1608
20.486	56.2071
20.504	56.2503
20.522	56.2907
20.54	56.3268
20.558	56.3583
20.576	56.3857
20.594	56.4089
20.612	56.4284
20.63	56.4453
20.648	56.4593
20.666	56.4734
20.684	56.487
20.702	56.5025
20.72	56.5215
20.738	56.5439
20.756	56.5727
20.774	56.607
20.792	56.6487
20.81	56.6982
20.828	56.7549
20.846	56.8189
20.864	56.89
20.882	56.9657
20.9	57.0468
20.918	57.13
20.936	57.2135
20.954	57.2971
20.972	57.3757
20.99	57.4508
21.008	57.5181
21.026	57.576
21.044	57.6243
21.062	57.6597
21.08	57.6828
21.098	57.6928
21.116	57.6888
21.134	57.672
21.152	57.6434
21.17	57.6024
21.188	57.553
21.206	57.4949
21.224	57.4304
21.242	57.3637
21.26	57.2934
21.278	57.225
21.296	57.1589
21.314	57.0963
21.332	57.041
21.35	56.9919
21.368	56.9512
21.386	56.9198
21.404	56.8971
21.422	56.8832
21.44	56.8783
21.458	56.8803
21.476	56.8888
21.494	56.903
21.512	56.9189
21.53	56.9375
21.548	56.956
21.566	56.9723
21.584	56.9869
21.602	56.9965
21.62	57.0014
21.638	57.0003
21.656	56.9913
21.674	56.9749
21.692	56.9504
21.71	56.917
21.728	56.8754
21.746	56.8266
21.764	56.7699
21.782	56.7072
21.8	56.6394
21.818	56.5663
21.836	56.4899
21.854	56.4099
21.872	56.3273
21.89	56.2437
21.908	56.1588
21.926	56.0734
21.944	55.9885
21.962	55.9037
21.98	55.8204
21.998	55.7385
22.016	55.6586
22.034	55.5817
22.052	55.5073
22.07	55.4368
22.088	55.371
22.106	55.3095
22.124	55.2543
22.142	55.2056
22.16	55.1636
22.178	55.1304
22.196	55.1056
22.214	55.0899
22.232	55.0846
22.25	55.0893
22.268	55.1046
22.286	55.131
22.304	55.1682
22.322	55.2157
22.34	55.274
22.358	55.3422
22.376	55.4184
22.394	55.5035
22.412	55.5953
22.43	55.6908
22.448	55.7918
22.466	55.8944
22.484	55.996
22.502	56.0982
22.52	56.196
22.538	56.2876
22.556	56.374
22.574	56.4514
22.592	56.5197
22.61	56.5787
22.628	56.6259
22.646	56.6617
22.664	56.6855
22.682	56.6958
22.7	56.6935
22.718	56.6773
22.736	56.6453
22.754	56.5986
22.772	56.5362
22.79	56.4576
22.808	56.3636
22.826	56.2524
22.844	56.1234
22.862	55.9775
22.88	55.8119
22.898	55.6255
22.916	55.4192
22.934	55.1903
22.952	54.9378
22.97	54.6627
22.988	54.3641
23.006	54.041
23.024	53.6947
23.042	53.328
23.06	52.9399
23.078	52.5319
23.096	52.1098
23.114	51.671
23.132	51.2188
23.15	50.7639
23.168	50.3029
23.186	49.8399
23.204	49.3893
23.222	48.9474
23.24	48.5184
23.258	48.1184
23.276	47.7441
23.294	47.3986
23.312	47.0962
23.33	46.8358
23.348	46.6177
23.366	46.4512
23.384	46.3373
23.402	46.2738
23.42	46.2628
23.438	46.3072
23.456	46.4033
23.474	46.5437
23.492	46.7312
23.51	46.963
23.528	47.2237
23.546	47.5129
23.564	47.8318
23.582	48.1595
23.6	48.491
23.618	48.8323
23.636	49.1611
23.654	49.4665
23.672	49.758
23.69	50.02
23.708	50.2411
23.726	50.4288
23.744	50.577
23.762	50.6787
23.78	50.7353
23.798	50.7511
23.816	50.7292
23.834	50.6636
23.852	50.5645
23.87	50.4454
23.888	50.2979
23.906	50.1308
23.924	49.965
23.942	49.7975
23.96	49.6288
23.978	49.4813
23.996	49.3616
24.014	49.2615
24.032	49.1973
24.05	49.1796
24.068	49.2004
24.086	49.2656
24.104	49.3822
24.122	49.5481
24.14	49.7616
24.158	50.0218
24.176	50.3321
24.194	50.6879
24.212	51.0807
24.23	51.512
24.248	51.9822
24.266	52.4776
24.284	52.9915
24.302	53.5317
24.32	54.0853
24.338	54.6403
24.356	55.2044
24.374	55.7711
24.392	56.3286
24.41	56.8781
24.428	57.4208
24.446	57.9507
24.464	58.4648
24.482	58.9659
24.5	59.4526
24.518	59.9227
24.536	60.3758
24.554	60.8149
24.572	61.2436
24.59	61.6589
24.608	62.0631
24.626	62.4638
24.644	62.8638
24.662	63.2591
24.68	63.656
24.698	64.0606
24.716	64.4686
24.734	64.883
24.752	65.3095
24.77	65.7506
24.788	66.2033
24.806	66.6657
24.824	67.1377
24.842	67.6227
24.86	68.1129
24.878	68.5996
24.896	69.0898
24.914	69.5789
24.932	70.0507
24.95	70.4984
24.968	70.9326
24.986	71.3379
25.004	71.6978
25.022	72.0218
25.04	72.3054
25.058	72.5326
25.076	72.696
25.094	72.8052
25.112	72.8512
25.13	72.8247
25.148	72.727
25.166	72.561
25.184	72.3276
25.202	72.0239
25.22	71.6479
25.238	71.2126
25.256	70.7304
25.274	70.1909
25.292	69.6011
25.31	68.9811
25.328	68.3407
25.346	67.6648
25.364	66.9727
25.382	66.2868
25.4	65.6003
25.418	64.9118
25.436	64.2408
25.454	63.6021
25.472	62.983
25.49	62.3909
25.508	61.8379
25.526	61.3285
25.544	60.8566
25.562	60.4231
25.58	60.0294
25.598	59.6801
25.616	59.369
25.634	59.0867
25.652	58.8297
25.67	58.6075
25.688	58.4056
25.706	58.2075
25.724	58.0158
25.742	57.8358
25.76	57.6484
25.778	57.4358
25.796	57.2097
25.814	56.966
25.832	56.6901
25.85	56.3716
25.868	56.0205
25.886	55.6321
25.904	55.1997
25.922	54.72
25.94	54.1971
25.958	53.6313
25.976	53.0231
25.994	52.3681
26.012	51.6698
26.03	50.9366
26.048	50.175
26.066	49.3751
26.084	48.5453
26.102	47.6999
26.12	46.8468
26.138	45.9724
26.156	45.0903
26.174	44.2176
26.192	43.3597
26.21	42.5052
26.228	41.6653
26.246	40.8519
26.264	40.0641
26.282	39.2969
26.3	38.5591
26.318	37.8592
26.336	37.1948
26.354	36.5639
26.372	35.9703
26.39	35.4177
26.408	34.9038
26.426	34.4285
26.444	33.9937
26.462	33.6012
26.48	33.251
26.498	32.9413
26.516	32.6703
26.534	32.4364
26.552	32.2399
26.57	32.0813
26.588	31.9614
26.606	31.8801
26.624	31.8361
26.642	31.8309
26.66	31.8661
26.678	31.9418
26.696	32.0545
26.714	32.2091
26.732	32.411
26.75	32.6624
26.768	32.9581
26.786	33.3025
26.804	33.7003
26.822	34.1535
26.84	34.657
26.858	35.2152
26.876	35.8328
26.894	36.513
26.912	37.2525
26.93	38.0506
26.948	38.9071
26.966	39.878
26.984	41.0469
27.002	42.2015
27.02	43.1116
27.028	43.3511