File: Bakgrunnsmateriale/MATLAB/FTIR/ftir_data/subCa/Mapping_25/BZ12041010-4_t06.asc
PE IR       SPECTRUM    SPECTRUM    ASCII       PEDS        1.60
  -1
BZ36B6~1.ASC
17/04/10
09:19:46.00
17/04/10
09:20:12.00
tln
$BZ12041010-4_t0006$<tbV0>[5.2,-9.8,9.0,0.0,22,1,0]
27.028
64

2002,4.07
MIRTGS : RIGHTBACK : INTERNAL 2
MIR : ON : INTERNAL 2
OPTKBR

0.200000
8
8.000000
FILLER
RATIO
SPECTRUM
UNLOCKED 256

DOUBLE
64
COMBINED
1
0
0

0.002000
RATIO

1
0
TRUE
51149
0
LEFT NOT FITTED RIGHT NOT FITTED 0
NONE
NONE
15600
12
4.427000
51148
TRUE
1 0 8 72 0 0 0 0

15798

#HDR
-1
-1
#GR
µM
%T
2.38419e-05
0.0
2.000000
0.002000
12515
8
105.804
41.2644
#DATA
2.000000	 65.3397
2.018000	 64.8841
2.036000	 65.1457
2.054000	 63.7046
2.072000	 65.022
2.090000	 65.1026
2.108000	 64.6803
2.126000	 64.9555
2.144000	 65.2611
2.162000	 65.1457
2.180000	 64.7606
2.198000	 65.377
2.216000	 65.5071
2.234000	 59.3275
2.252000	 65.3607
2.270000	 65.1907
2.288000	 65.0934
2.306000	 65.122
2.324000	 64.8284
2.342000	 64.9434
2.360000	 64.981
2.378000	 64.7351
2.396000	 65.1651
2.414000	 65.3187
2.432000	 65.2479
2.450000	 64.9277
2.468000	 65.0707
2.486000	 65.1528
2.504000	 64.8783
2.522000	 64.9866
2.540000	 65.2328
2.558000	 65.1727
2.576000	 65.0671
2.594000	 65.2598
2.612000	 65.1471
2.630000	 65.2048
2.648000	 65.3131
2.666000	 65.4851
2.684000	 65.272
2.702000	 65.2264
2.720000	 65.2972
2.738000	 65.3733
2.756000	 65.2714
2.774000	 65.1484
2.792000	 65.2373
2.810000	 65.4811
2.828000	 65.3122
2.846000	 65.0723
2.864000	 65.2258
2.882000	 65.2088
2.900000	 65.2331
2.918000	 65.2667
2.936000	 65.1359
2.954000	 64.9726
2.972000	 65.2678
2.990000	 65.1057
3.008000	 65.1473
3.026000	 65.1003
3.044000	 65.2773
3.062000	 65.3508
3.080000	 65.2321
3.098000	 65.1397
3.116000	 65.1677
3.134000	 65.1955
3.152000	 65.1141
3.170000	 65.155
3.188000	 65.1522
3.206000	 64.922
3.224000	 65.1546
3.242000	 65.2034
3.260000	 65.0353
3.278000	 65.1376
3.296000	 65.0679
3.314000	 65.1292
3.332000	 65.1962
3.350000	 65.0564
3.368000	 65.261
3.386000	 65.0729
3.404000	 65.1048
3.422000	 65.0621
3.440000	 65.1688
3.458000	 65.0436
3.476000	 65.1634
3.494000	 65.0836
3.512000	 65.2544
3.530000	 65.1286
3.548000	 65.0983
3.566000	 65.2226
3.584000	 65.2382
3.602000	 65.176
3.620000	 65.2727
3.638000	 65.2216
3.656000	 65.342
3.674000	 65.187
3.692000	 65.2043
3.710000	 65.2836
3.728000	 65.209
3.746000	 65.2528
3.764000	 65.2649
3.782000	 65.1851
3.800000	 65.2297
3.818000	 65.1595
3.836000	 65.1342
3.854000	 65.1802
3.872000	 65.1259
3.890000	 65.2023
3.908000	 65.2184
3.926000	 65.2426
3.944000	 65.2161
3.962000	 65.1491
3.980000	 65.2215
3.998000	 65.1825
4.016000	 65.2452
4.034000	 65.2062
4.052000	 65.1807
4.070000	 65.3231
4.088000	 65.2595
4.106000	 65.2322
4.124000	 65.3267
4.141999	 65.2444
4.160000	 65.109
4.178000	 65.2324
4.196000	 65.2333
4.214000	 65.3181
4.232000	 65.2624
4.250000	 65.3623
4.268000	 65.2894
4.286000	 65.291
4.304000	 65.2969
4.322000	 65.2898
4.340000	 65.3698
4.358000	 65.2588
4.375999	 65.2541
4.394000	 65.3882
4.412000	 65.2621
4.430000	 65.3561
4.448000	 65.2575
4.466000	 65.1816
4.484000	 65.2744
4.502000	 65.3348
4.520000	 65.3322
4.538000	 65.2054
4.556000	 65.1894
4.574000	 65.2137
4.592000	 65.2324
4.609999	 65.2528
4.628000	 65.2026
4.646000	 65.2504
4.664000	 65.2868
4.682000	 65.1493
4.700000	 65.095
4.718000	 65.2328
4.736000	 65.1964
4.754000	 65.1559
4.772000	 65.2925
4.790000	 65.2448
4.808000	 65.3257
4.826000	 65.267
4.843999	 65.3124
4.862000	 65.2944
4.880000	 65.2479
4.898000	 65.1212
4.916000	 65.2158
4.934000	 65.303
4.952000	 65.336
4.970000	 65.2847
4.988000	 65.3404
5.006000	 65.2507
5.024000	 65.2665
5.042000	 65.3003
5.060000	 65.3203
5.077999	 65.2852
5.096000	 65.2174
5.114000	 65.2346
5.132000	 65.1863
5.150000	 65.2615
5.168000	 65.26
5.186000	 65.2509
5.204000	 65.3189
5.222000	 65.2028
5.240000	 65.1336
5.258000	 65.1927
5.276000	 65.2365
5.294000	 65.2424
5.312000	 65.211
5.330000	 65.2192
5.348000	 65.2267
5.366000	 65.2765
5.384000	 65.3053
5.402000	 65.3351
5.420000	 65.415
5.438000	 65.3164
5.456000	 65.3481
5.474000	 65.3707
5.492000	 65.3489
5.510000	 65.2822
5.528000	 65.2934
5.546000	 65.4058
5.564000	 65.381
5.582000	 65.3851
5.600000	 65.3262
5.618000	 65.2133
5.636000	 65.3007
5.654000	 65.3721
5.672000	 65.3719
5.690000	 65.3227
5.708000	 65.2651
5.726000	 65.2452
5.744000	 65.204
5.762000	 65.2365
5.780000	 65.1442
5.798000	 65.0913
5.816000	 65.2011
5.834000	 65.2886
5.852000	 65.243
5.870000	 65.3704
5.888000	 65.4478
5.906000	 65.3028
5.923999	 65.299
5.942000	 65.3882
5.960000	 65.3855
5.978000	 65.3275
5.996000	 65.2322
6.014000	 65.2632
6.032000	 65.4017
6.050000	 65.5896
6.068000	 65.5123
6.086000	 65.3357
6.104000	 65.3648
6.122000	 65.3503
6.140000	 65.2251
6.158000	 65.1711
6.176000	 65.1902
6.194000	 65.2043
6.212000	 65.1892
6.230000	 65.1735
6.248000	 65.1679
6.266000	 65.1065
6.284000	 65.0512
6.302000	 65.1296
6.320000	 65.2869
6.338000	 65.4432
6.356000	 65.4321
6.374000	 65.3695
6.392000	 65.5145
6.410000	 65.7524
6.428000	 65.6509
6.446000	 65.4242
6.464000	 65.4123
6.482000	 65.4811
6.500000	 65.4596
6.518000	 65.3669
6.536000	 65.3321
6.554000	 65.4336
6.572000	 65.5488
6.590000	 65.477
6.608000	 65.3914
6.626000	 65.431
6.644000	 65.4245
6.662000	 65.3826
6.680000	 65.4073
6.698000	 65.4074
6.716000	 65.3222
6.734000	 65.2016
6.752000	 65.1342
6.770000	 65.1746
6.788000	 65.2287
6.806000	 65.1966
6.824000	 65.2062
6.842000	 65.3762
6.860000	 65.4681
6.878000	 65.2883
6.896000	 65.0842
6.914000	 65.0517
6.932000	 65.0927
6.950000	 65.1484
6.968000	 65.2167
6.986000	 65.2799
7.004000	 65.3434
7.022000	 65.3996
7.040000	 65.3805
7.058000	 65.256
7.076000	 65.1414
7.094000	 65.1307
7.112000	 65.1539
7.130000	 65.1444
7.148000	 65.1364
7.166000	 65.1643
7.184000	 65.1928
7.202000	 65.1742
7.220000	 65.1266
7.238000	 65.0903
7.256000	 65.0821
7.274000	 65.1125
7.292000	 65.1347
7.310000	 65.1043
7.328000	 65.0755
7.346000	 65.0815
7.364000	 65.0807
7.382000	 65.0807
7.400000	 65.1125
7.418000	 65.1355
7.436000	 65.1063
7.454000	 65.0673
7.472000	 65.0696
7.490000	 65.0907
7.508000	 65.0982
7.526000	 65.108
7.544000	 65.1403
7.562000	 65.1804
7.580000	 65.1914
7.598000	 65.1442
7.616000	 65.0698
7.634000	 65.0553
7.652000	 65.1231
7.670000	 65.203
7.688000	 65.238
7.706000	 65.2217
7.724000	 65.173
7.742000	 65.1285
7.760000	 65.106
7.778000	 65.0875
7.796000	 65.0724
7.814000	 65.0827
7.832000	 65.1074
7.850000	 65.1086
7.868000	 65.0835
7.886000	 65.0735
7.904000	 65.1107
7.922000	 65.1722
7.940000	 65.2011
7.958000	 65.1728
7.976000	 65.1168
7.994000	 65.0781
8.012000	 65.0813
8.030000	 65.1166
8.048000	 65.1438
8.065999	 65.129
8.084000	 65.0882
8.102000	 65.0709
8.120000	 65.096
8.138000	 65.1365
8.155999	 65.1633
8.173999	 65.1633
8.192000	 65.1322
8.210000	 65.0868
8.228000	 65.0641
8.246000	 65.0841
8.263999	 65.1303
8.282000	 65.1753
8.300000	 65.2031
8.318000	 65.2049
8.336000	 65.1805
8.353999	 65.1395
8.372000	 65.0873
8.390000	 65.0227
8.408000	 64.9587
8.426000	 64.9284
8.443999	 64.9515
8.462000	 65.0047
8.480000	 65.0445
8.498000	 65.053
8.516000	 65.0456
8.533999	 65.0404
8.552000	 65.0415
8.570000	 65.0496
8.588000	 65.0667
8.606000	 65.0849
8.624000	 65.0833
8.641999	 65.0471
8.660000	 64.9934
8.678000	 64.9641
8.696000	 64.9848
8.714000	 65.0361
8.731999	 65.072
8.750000	 65.0637
8.768000	 65.0239
8.786000	 64.992
8.804000	 65.0035
8.821999	 65.0677
8.840000	 65.1625
8.858000	 65.2462
8.876000	 65.2833
8.894000	 65.2617
8.911999	 65.1974
8.930000	 65.1262
8.948000	 65.0787
8.966000	 65.054
8.984000	 65.023
9.001999	 64.9641
9.020000	 64.8886
9.038000	 64.8295
9.056000	 64.808
9.074000	 64.8163
9.092000	 64.8315
9.109999	 64.8384
9.128000	 64.8359
9.146000	 64.8321
9.164000	 64.8372
9.182000	 64.8602
9.199999	 64.9041
9.218000	 64.959
9.236000	 65.004
9.254000	 65.0194
9.272000	 65.0013
9.289999	 64.964
9.308000	 64.9298
9.326000	 64.9156
9.344000	 64.9266
9.362000	 64.958
9.379999	 65.0007
9.398000	 65.0442
9.416000	 65.0808
9.434000	 65.1101
9.452000	 65.1405
9.469999	 65.1821
9.488000	 65.2351
9.506000	 65.2815
9.524000	 65.2939
9.542000	 65.2578
9.560000	 65.1877
9.577999	 65.1168
9.596000	 65.0706
9.614000	 65.0498
9.632000	 65.0366
9.650000	 65.0158
9.667999	 64.9875
9.686000	 64.9676
9.704000	 64.9749
9.722000	 65.0187
9.740000	 65.0917
9.757999	 65.1723
9.776000	 65.2339
9.794000	 65.2553
9.812000	 65.2315
9.830000	 65.1759
9.847999	 65.1141
9.866000	 65.07
9.884000	 65.0561
9.902000	 65.0712
9.920000	 65.1052
9.937999	 65.1466
9.956000	 65.1849
9.974000	 65.209
9.992000	 65.2084
10.01	65.1785
10.028	65.1272
10.046	65.0742
10.064	65.0396
10.082	65.0317
10.1	65.0443
10.118	65.0636
10.136	65.0811
10.154	65.0977
10.172	65.1165
10.19	65.1333
10.208	65.1366
10.226	65.118
10.244	65.0818
10.262	65.0461
10.28	65.0289
10.298	65.0385
10.316	65.0694
10.334	65.1094
10.352	65.1492
10.37	65.1863
10.388	65.2222
10.406	65.2568
10.424	65.2872
10.442	65.3112
10.46	65.3319
10.478	65.3566
10.496	65.3899
10.514	65.4283
10.532	65.4577
10.55	65.4624
10.568	65.4348
10.586	65.3821
10.604	65.3223
10.622	65.2763
10.64	65.2557
10.658	65.26
10.676	65.2788
10.694	65.3013
10.712	65.3206
10.73	65.3348
10.748	65.3437
10.766	65.3449
10.784	65.3333
10.802	65.3034
10.82	65.254
10.838	65.1908
10.856	65.1253
10.874	65.0723
10.892	65.0429
10.91	65.0418
10.928	65.0644
10.946	65.0993
10.964	65.1342
10.982	65.1606
11	65.1783
11.018	65.1944
11.036	65.2173
11.054	65.25
11.072	65.2874
11.09	65.3179
11.108	65.3315
11.126	65.3238
11.144	65.2993
11.162	65.2692
11.18	65.2442
11.198	65.2296
11.216	65.2242
11.234	65.2223
11.252	65.2176
11.27	65.2071
11.288	65.192
11.306	65.1756
11.324	65.1637
11.342	65.1617
11.36	65.1732
11.378	65.1996
11.396	65.2387
11.414	65.2849
11.432	65.3321
11.45	65.3755
11.468	65.4131
11.486	65.4462
11.504	65.4775
11.522	65.5081
11.54	65.5354
11.558	65.5535
11.576	65.556
11.594	65.539
11.612	65.5045
11.63	65.4595
11.648	65.4123
11.666	65.371
11.684	65.3387
11.702	65.3143
11.72	65.2942
11.738	65.2744
11.756	65.2533
11.774	65.2323
11.792	65.2145
11.81	65.2029
11.828	65.198
11.846	65.1978
11.864	65.1981
11.882	65.1943
11.9	65.1832
11.918	65.1641
11.936	65.1386
11.954	65.1107
11.972	65.0856
11.99	65.069
12.008	65.0665
12.026	65.0828
12.044	65.1207
12.062	65.1785
12.08	65.2501
12.098	65.3261
12.116	65.3949
12.134	65.4468
12.152	65.4767
12.17	65.4859
12.188	65.4806
12.206	65.4703
12.224	65.4645
12.242	65.4688
12.26	65.4849
12.278	65.5097
12.296	65.5371
12.314	65.5602
12.332	65.5736
12.35	65.5741
12.368	65.5607
12.386	65.5352
12.404	65.5012
12.422	65.4632
12.44	65.4265
12.458	65.3966
12.476	65.3785
12.494	65.376
12.512	65.3902
12.53	65.4201
12.548	65.4614
12.566	65.508
12.584	65.5525
12.602	65.5885
12.62	65.6115
12.638	65.6198
12.656	65.6149
12.674	65.601
12.692	65.5837
12.71	65.5692
12.728	65.5628
12.746	65.5684
12.764	65.5877
12.782	65.62
12.8	65.6622
12.818	65.7096
12.836	65.756
12.854	65.7952
12.872	65.8212
12.89	65.8292
12.908	65.8165
12.926	65.7827
12.944	65.7301
12.962	65.6637
12.98	65.5901
12.998	65.5174
13.016	65.4533
13.034	65.404
13.052	65.374
13.07	65.3645
13.088	65.3742
13.106	65.3998
13.124	65.4359
13.142	65.4765
13.16	65.5157
13.178	65.5484
13.196	65.5709
13.214	65.5812
13.232	65.5787
13.25	65.5645
13.268	65.5411
13.286	65.5116
13.304	65.4795
13.322	65.4482
13.34	65.42
13.358	65.3966
13.376	65.3779
13.394	65.3634
13.412	65.3514
13.43	65.3409
13.448	65.3311
13.466	65.3226
13.484	65.3166
13.502	65.315
13.52	65.3194
13.538	65.3309
13.556	65.3495
13.574	65.3741
13.592	65.4021
13.61	65.4306
13.628	65.4566
13.646	65.4777
13.664	65.4921
13.682	65.499
13.7	65.4986
13.718	65.4915
13.736	65.479
13.754	65.4624
13.772	65.443
13.79	65.4221
13.808	65.4008
13.826	65.3804
13.844	65.3622
13.862	65.347
13.88	65.3354
13.898	65.3274
13.916	65.3227
13.934	65.3203
13.952	65.3191
13.97	65.3181
13.988	65.3165
14.006	65.3142
14.024	65.3116
14.042	65.3095
14.06	65.309
14.078	65.3106
14.096	65.3141
14.114	65.3185
14.132	65.3222
14.15	65.323
14.168	65.3186
14.186	65.3073
14.204	65.2889
14.222	65.2643
14.24	65.2363
14.258	65.2084
14.276	65.1848
14.294	65.1694
14.312	65.1652
14.33	65.1734
14.348	65.1938
14.366	65.2241
14.384	65.2604
14.402	65.2981
14.42	65.3325
14.438	65.3599
14.456	65.3776
14.474	65.3845
14.492	65.381
14.51	65.3692
14.528	65.352
14.546	65.3327
14.564	65.3143
14.582	65.2994
14.6	65.2895
14.618	65.2857
14.636	65.2878
14.654	65.2955
14.672	65.3081
14.69	65.3249
14.708	65.3459
14.726	65.371
14.744	65.4007
14.762	65.4356
14.78	65.4758
14.798	65.5211
14.816	65.5705
14.834	65.6224
14.852	65.6742
14.87	65.723
14.888	65.7661
14.906	65.8008
14.924	65.8247
14.942	65.8369
14.96	65.8375
14.978	65.8277
14.996	65.8093
15.014	65.7847
15.032	65.7572
15.05	65.7295
15.068	65.704
15.086	65.6826
15.104	65.6664
15.122	65.6558
15.14	65.65
15.158	65.6482
15.176	65.649
15.194	65.6508
15.212	65.6517
15.23	65.6504
15.248	65.6458
15.266	65.6372
15.284	65.6238
15.302	65.606
15.32	65.5841
15.338	65.5586
15.356	65.5308
15.374	65.5018
15.392	65.4734
15.41	65.4471
15.428	65.4248
15.446	65.4089
15.464	65.401
15.482	65.4025
15.5	65.4145
15.518	65.437
15.536	65.469
15.554	65.5089
15.572	65.5543
15.59	65.6011
15.608	65.6458
15.626	65.6852
15.644	65.7152
15.662	65.7327
15.68	65.7362
15.698	65.7248
15.716	65.6984
15.734	65.659
15.752	65.6087
15.77	65.5502
15.788	65.4874
15.806	65.4239
15.824	65.3623
15.842	65.3057
15.86	65.2567
15.878	65.2164
15.896	65.1857
15.914	65.1647
15.932	65.1529
15.95	65.1495
15.968	65.1538
15.986	65.1641
16.004	65.1797
16.022	65.1998
16.04	65.2232
16.058	65.2497
16.076	65.2791
16.094	65.3111
16.112	65.3459
16.13	65.3837
16.148	65.4245
16.166	65.4681
16.184	65.5139
16.202	65.5615
16.22	65.6091
16.238	65.6554
16.256	65.6991
16.274	65.7375
16.292	65.7691
16.31	65.7925
16.328	65.8057
16.346	65.8086
16.364	65.8007
16.382	65.7826
16.4	65.7559
16.418	65.7217
16.436	65.6829
16.454	65.6419
16.472	65.6006
16.49	65.5621
16.508	65.5284
16.526	65.5008
16.544	65.481
16.562	65.4693
16.58	65.466
16.598	65.4704
16.616	65.4815
16.634	65.4983
16.652	65.5192
16.67	65.543
16.688	65.5686
16.706	65.5948
16.724	65.6211
16.742	65.647
16.76	65.6722
16.778	65.6967
16.796	65.7204
16.814	65.7431
16.832	65.7646
16.85	65.7844
16.868	65.8018
16.886	65.8162
16.904	65.8268
16.922	65.8333
16.94	65.8357
16.958	65.8342
16.976	65.8294
16.994	65.8226
17.012	65.8149
17.03	65.8073
17.048	65.8014
17.066	65.7978
17.084	65.7971
17.102	65.799
17.12	65.8032
17.138	65.8087
17.156	65.8143
17.174	65.8191
17.192	65.8215
17.21	65.8211
17.228	65.817
17.246	65.8094
17.264	65.7982
17.282	65.7848
17.3	65.7698
17.318	65.7551
17.336	65.7424
17.354	65.7327
17.372	65.7283
17.39	65.7293
17.408	65.7369
17.426	65.751
17.444	65.7716
17.462	65.7974
17.48	65.8279
17.498	65.8611
17.516	65.8954
17.534	65.9295
17.552	65.961
17.57	65.9891
17.588	66.0117
17.606	66.0283
17.624	66.0382
17.642	66.0413
17.66	66.0375
17.678	66.0272
17.696	66.0108
17.714	65.9892
17.732	65.9635
17.75	65.9345
17.768	65.9036
17.786	65.8712
17.804	65.839
17.822	65.807
17.84	65.7762
17.858	65.7468
17.876	65.7191
17.894	65.693
17.912	65.6686
17.93	65.6457
17.948	65.6241
17.966	65.6036
17.984	65.5843
18.002	65.5661
18.02	65.5494
18.038	65.5343
18.056	65.5219
18.074	65.5123
18.092	65.5068
18.11	65.5057
18.128	65.5103
18.146	65.5209
18.164	65.5383
18.182	65.5623
18.2	65.5932
18.218	65.6303
18.236	65.6734
18.254	65.7207
18.272	65.7719
18.29	65.8246
18.308	65.8783
18.326	65.9299
18.344	65.9793
18.362	66.0234
18.38	66.0619
18.398	66.0925
18.416	66.1148
18.434	66.1278
18.452	66.1315
18.47	66.1254
18.488	66.1099
18.506	66.0851
18.524	66.052
18.542	66.0107
18.56	65.963
18.578	65.9091
18.596	65.8511
18.614	65.789
18.632	65.7253
18.65	65.66
18.668	65.5952
18.686	65.5313
18.704	65.4702
18.722	65.4122
18.74	65.3591
18.758	65.3111
18.776	65.2699
18.794	65.2357
18.812	65.2098
18.83	65.192
18.848	65.1831
18.866	65.1827
18.884	65.1907
18.902	65.2065
18.92	65.2291
18.938	65.2577
18.956	65.2906
18.974	65.3268
18.992	65.3641
19.01	65.4015
19.028	65.437
19.046	65.4697
19.064	65.498
19.082	65.5217
19.1	65.5396
19.118	65.552
19.136	65.5591
19.154	65.5613
19.172	65.5595
19.19	65.5544
19.208	65.548
19.226	65.5407
19.244	65.5348
19.262	65.5304
19.28	65.5299
19.298	65.5335
19.316	65.5432
19.334	65.5588
19.352	65.5819
19.37	65.6122
19.388	65.6504
19.406	65.6966
19.424	65.7499
19.442	65.8106
19.46	65.8771
19.478	65.9496
19.496	66.0258
19.514	66.1052
19.532	66.1858
19.55	66.2665
19.568	66.3455
19.586	66.4208
19.604	66.4914
19.622	66.5548
19.64	66.6109
19.658	66.6569
19.676	66.693
19.694	66.7175
19.712	66.7305
19.73	66.7313
19.748	66.7198
19.766	66.6966
19.784	66.6614
19.802	66.6158
19.82	66.5601
19.838	66.4958
19.856	66.4246
19.874	66.3472
19.892	66.267
19.91	66.1838
19.928	66.1022
19.946	66.0215
19.964	65.9459
19.982	65.8758
20	65.8136
20.018	65.7608
20.036	65.7179
20.054	65.6869
20.072	65.6672
20.09	65.6598
20.108	65.6646
20.126	65.6799
20.144	65.7063
20.162	65.7409
20.18	65.7831
20.198	65.831
20.216	65.8817
20.234	65.9353
20.252	65.9874
20.27	66.0388
20.288	66.0859
20.306	66.1283
20.324	66.1647
20.342	66.1937
20.36	66.2158
20.378	66.23
20.396	66.2365
20.414	66.2366
20.432	66.2297
20.45	66.2179
20.468	66.2016
20.486	66.1817
20.504	66.1606
20.522	66.1377
20.54	66.1157
20.558	66.0943
20.576	66.0747
20.594	66.0576
20.612	66.043
20.63	66.0316
20.648	66.0233
20.666	66.0177
20.684	66.0149
20.702	66.0143
20.72	66.0155
20.738	66.0185
20.756	66.0218
20.774	66.0259
20.792	66.0298
20.81	66.0334
20.828	66.0364
20.846	66.0383
20.864	66.0391
20.882	66.0387
20.9	66.0371
20.918	66.0341
20.936	66.0297
20.954	66.0238
20.972	66.0162
20.99	66.007
21.008	65.9956
21.026	65.9818
21.044	65.9653
21.062	65.945
21.08	65.9213
21.098	65.8927
21.116	65.8591
21.134	65.8203
21.152	65.7754
21.17	65.7245
21.188	65.6673
21.206	65.6034
21.224	65.5333
21.242	65.457
21.26	65.3745
21.278	65.2875
21.296	65.1957
21.314	65.1004
21.332	65.0042
21.35	64.906
21.368	64.8094
21.386	64.7147
21.404	64.6228
21.422	64.5373
21.44	64.4571
21.458	64.3847
21.476	64.3213
21.494	64.2665
21.512	64.2226
21.53	64.1892
21.548	64.1667
21.566	64.1557
21.584	64.156
21.602	64.1672
21.62	64.1897
21.638	64.2225
21.656	64.2642
21.674	64.3155
21.692	64.3739
21.71	64.4393
21.728	64.511
21.746	64.5867
21.764	64.667
21.782	64.7501
21.8	64.8346
21.818	64.921
21.836	65.0066
21.854	65.0915
21.872	65.1749
21.89	65.255
21.908	65.3324
21.926	65.4056
21.944	65.4735
21.962	65.5367
21.98	65.5937
21.998	65.6446
22.016	65.6893
22.034	65.727
22.052	65.7579
22.07	65.782
22.088	65.7994
22.106	65.8101
22.124	65.8146
22.142	65.8127
22.16	65.805
22.178	65.7929
22.196	65.7759
22.214	65.7555
22.232	65.7337
22.25	65.7093
22.268	65.6855
22.286	65.6636
22.304	65.6428
22.322	65.627
22.34	65.6163
22.358	65.6111
22.376	65.6146
22.394	65.6262
22.412	65.6469
22.43	65.6785
22.448	65.7206
22.466	65.7732
22.484	65.8372
22.502	65.9122
22.52	65.9969
22.538	66.091
22.556	66.1945
22.574	66.3037
22.592	66.4192
22.61	66.5399
22.628	66.6606
22.646	66.7829
22.664	66.9043
22.682	67.0189
22.7	67.1294
22.718	67.2319
22.736	67.3213
22.754	67.4
22.772	67.465
22.79	67.5133
22.808	67.5465
22.826	67.5629
22.844	67.5611
22.862	67.542
22.88	67.5058
22.898	67.4522
22.916	67.3816
22.934	67.2962
22.952	67.1963
22.97	67.0818
22.988	66.9566
23.006	66.8208
23.024	66.6746
23.042	66.5225
23.06	66.3642
23.078	66.2003
23.096	66.0361
23.114	65.871
23.132	65.7058
23.15	65.545
23.168	65.3887
23.186	65.2367
23.204	65.0917
23.222	64.9534
23.24	64.8221
23.258	64.6999
23.276	64.5864
23.294	64.4819
23.312	64.3885
23.33	64.3055
23.348	64.2334
23.366	64.1741
23.384	64.1273
23.402	64.0931
23.42	64.0738
23.438	64.0692
23.456	64.0792
23.474	64.1051
23.492	64.1476
23.51	64.2058
23.528	64.2795
23.546	64.3689
23.564	64.4737
23.582	64.592
23.6	64.7235
23.618	64.8688
23.636	65.0249
23.654	65.1914
23.672	65.3695
23.69	65.5534
23.708	65.74
23.726	65.9331
23.744	66.1244
23.762	66.3071
23.78	66.4863
23.798	66.6557
23.816	66.8079
23.834	66.9465
23.852	67.0687
23.87	67.169
23.888	67.2487
23.906	67.3076
23.924	67.3427
23.942	67.3529
23.96	67.3398
23.978	67.3047
23.996	67.2467
24.014	67.1658
24.032	67.0679
24.05	66.9558
24.068	66.8255
24.086	66.6857
24.104	66.5439
24.122	66.3926
24.14	66.2417
24.158	66.1053
24.176	65.9775
24.194	65.8622
24.212	65.7735
24.23	65.7129
24.248	65.6767
24.266	65.6751
24.284	65.7148
24.302	65.7913
24.32	65.905
24.338	66.0571
24.356	66.2499
24.374	66.4779
24.392	66.734
24.41	67.0246
24.428	67.3445
24.446	67.6764
24.464	68.0171
24.482	68.3749
24.5	68.7259
24.518	69.051
24.536	69.3675
24.554	69.6574
24.572	69.8951
24.59	70.0869
24.608	70.2327
24.626	70.3124
24.644	70.3161
24.662	70.2541
24.68	70.1188
24.698	69.9021
24.716	69.6045
24.734	69.2311
24.752	68.7868
24.77	68.2659
24.788	67.6711
24.806	67.0215
24.824	66.3285
24.842	65.5768
24.86	64.7876
24.878	63.9859
24.896	63.1578
24.914	62.3104
24.932	61.4771
24.95	60.6733
24.968	59.878
24.986	59.1181
25.004	58.4221
25.022	57.7734
25.04	57.1802
25.058	56.6709
25.076	56.2574
25.094	55.9231
25.112	55.6863
25.13	55.5663
25.148	55.554
25.166	55.651
25.184	55.8699
25.202	56.2178
25.22	56.6879
25.238	57.2801
25.256	57.9951
25.274	58.8354
25.292	59.7969
25.31	60.8729
25.328	62.0611
25.346	63.3672
25.364	64.7794
25.382	66.2847
25.4	67.8927
25.418	69.5992
25.436	71.3794
25.454	73.2169
25.472	75.1352
25.49	77.1087
25.508	79.102
25.526	81.1152
25.544	83.1642
25.562	85.2071
25.58	87.2053
25.598	89.1891
25.616	91.1426
25.634	93.0207
25.652	94.7983
25.67	96.5109
25.688	98.1248
25.706	99.5986
25.724	100.933
25.742	102.146
25.76	103.202
25.778	104.074
25.796	104.778
25.814	105.311
25.832	105.656
25.85	105.798
25.868	105.75
25.886	105.51
25.904	105.077
25.922	104.443
25.94	103.61
25.958	102.598
25.976	101.427
25.994	100.079
26.012	98.5623
26.03	96.9102
26.048	95.1512
26.066	93.2543
26.084	91.2407
26.102	89.1513
26.12	87.0094
26.138	84.7796
26.156	82.4942
26.174	80.1945
26.192	77.8916
26.21	75.5575
26.228	73.2253
26.246	70.9301
26.264	68.668
26.282	66.4252
26.3	64.2307
26.318	62.1131
26.336	60.0589
26.354	58.0659
26.372	56.1571
26.39	54.3533
26.408	52.6383
26.426	51.0163
26.444	49.5053
26.462	48.12
26.48	46.8461
26.498	45.6888
26.516	44.6608
26.534	43.7709
26.552	43.0084
26.57	42.3779
26.588	41.8872
26.606	41.5412
26.624	41.3324
26.642	41.2644
26.66	41.3423
26.678	41.5711
26.696	41.9495
26.714	42.4703
26.732	43.1264
26.75	43.917
26.768	44.8509
26.786	45.9126
26.804	47.0852
26.822	48.368
26.84	49.7829
26.858	51.2935
26.876	52.8601
26.894	54.4729
26.912	56.1743
26.93	57.9115
26.948	59.6251
26.966	61.3445
26.984	63.2052
27.002	64.9562
27.02	66.3204
27.028	66.6885