File: Bakgrunnsmateriale/MATLAB/FTIR/ftir_data/subCa/Mapping_25/BZ12041010-4_t12_cm-1.asc
PE IR       SPECTRUM    SPECTRUM    ASCII       PEDS        1.60
  -1
BZ2CF1~1.ASC
17/04/10
09:55:10.00
17/04/10
09:55:10.00
tln
$BZ12041010-4_t0012$<tbV0>[2.6,-7.2,9.0,0.0,22,1,0]
370
64

2002,4.07
MIRTGS : RIGHTBACK : INTERNAL 2
MIR : ON : INTERNAL 2
OPTKBR

0.200000
8
8.000000
FILLER
RATIO
SPECTRUM
UNLOCKED 256

DOUBLE
64
COMBINED
1
0
0

1.000000
RATIO

1
0
TRUE
51149
0
LEFT NOT FITTED RIGHT NOT FITTED 0
NONE
NONE
15600
12
4.427000
51148
TRUE
1 0 8 72 0 0 0 0

15798

#HDR
-1
-1
#GR
CM-1
%T
2.38419e-05
0.0
5000
-1.000000
4631
8
153.093
37.1085
#DATA
5000	64.8086
4996	64.6841
4992	64.7479
4988	64.6701
4984	64.5729
4980	64.6814
4976	64.9762
4972	65.2187
4968	65.1134
4964	64.9381
4960	65.1292
4956	65.456
4952	65.3092
4948	64.7524
4944	64.3518
4940	64.3108
4936	64.577
4932	64.7501
4928	64.7418
4924	65.1131
4920	65.538
4916	65.281
4912	64.7576
4908	64.4772
4904	64.0296
4900	63.5848
4896	63.7247
4892	64.144
4888	64.5824
4884	64.8735
4880	64.582
4876	63.7953
4872	62.7432
4868	61.9281
4864	61.8779
4860	62.1927
4856	62.8054
4852	63.9904
4848	65.122
4844	64.9662
4840	64.007
4836	64.5645
4832	66.2054
4828	66.684
4824	66.0924
4820	65.2387
4816	64.4421
4812	64.5673
4808	65.4053
4804	65.7257
4800	65.0856
4796	64.3301
4792	64.2598
4788	64.344
4784	64.4423
4780	64.9336
4776	65.3689
4772	65.4077
4768	65.2229
4764	64.907
4760	64.7794
4756	65.0805
4752	65.2169
4748	65.2325
4744	65.4609
4740	65.5521
4736	65.6047
4732	65.6438
4728	65.6745
4724	65.7788
4720	65.6635
4716	65.3224
4712	65.0455
4708	64.9573
4704	64.9931
4700	65.0434
4696	64.9407
4692	64.7497
4688	64.8379
4684	65.0878
4680	65.1744
4676	65.2441
4672	65.1745
4668	65.0014
4664	65.0669
4660	65.1319
4656	65.0781
4652	65.0703
4648	64.9292
4644	64.7166
4640	64.8045
4636	64.9622
4632	64.9297
4628	64.922
4624	64.9539
4620	64.9227
4616	64.8981
4612	64.8573
4608	64.7455
4604	64.6163
4600	64.4863
4596	64.5621
4592	64.8991
4588	65.0592
4584	65.0384
4580	64.9906
4576	64.7848
4572	64.6568
4568	64.7162
4564	64.794
4560	64.8882
4556	64.7655
4552	64.4415
4548	64.2383
4544	64.3028
4540	64.4676
4536	64.5423
4532	64.5604
4528	64.5324
4524	64.5077
4520	64.5655
4516	64.851
4512	65.1298
4508	64.9832
4504	64.7187
4500	64.7691
4496	64.9702
4492	65.0083
4488	65.0689
4484	65.0607
4480	64.8714
4476	64.9686
4472	65.4628
4468	67.5786
4464	73.0742
4460	79.9277
4456	80.225
4452	73.7339
4448	67.787
4444	65.1382
4440	64.4544
4436	64.5646
4432	64.6804
4428	64.3078
4424	64.0567
4420	64.1087
4416	64.3524
4412	64.5618
4408	64.3953
4404	63.9873
4400	63.8315
4396	64.1277
4392	64.5429
4388	64.7586
4384	64.6809
4380	64.4787
4376	64.3803
4372	64.3358
4368	64.3635
4364	64.5667
4360	64.7884
4356	64.8546
4352	64.856
4348	64.7331
4344	64.5972
4340	64.7278
4336	64.996
4332	65.0739
4328	64.8674
4324	64.7168
4320	64.7983
4316	64.8286
4312	64.7614
4308	64.8354
4304	64.8891
4300	64.836
4296	64.9078
4292	65.0142
4288	64.9859
4284	64.8948
4280	64.9388
4276	65.0238
4272	64.9538
4268	64.9618
4264	65.0569
4260	64.9342
4256	64.7888
4252	64.8416
4248	64.9187
4244	64.9694
4240	64.969
4236	64.8924
4232	64.8627
4228	64.8474
4224	64.8211
4220	64.9292
4216	65.0674
4212	65.1059
4208	65.0681
4204	64.9919
4200	64.9877
4196	64.9304
4192	64.8723
4188	65.0356
4184	65.2458
4180	65.2201
4176	64.9695
4172	64.9895
4168	65.4173
4164	65.6478
4160	65.4199
4156	65.1433
4152	65.0794
4148	65.108
4144	65.2204
4140	65.3224
4136	65.1835
4132	65.0853
4128	65.3131
4124	65.4083
4120	65.1551
4116	65.0368
4112	65.187
4108	65.3241
4104	65.3413
4100	65.3454
4096	65.4658
4092	65.5557
4088	65.4567
4084	65.3303
4080	65.2921
4076	65.3639
4072	65.4268
4068	65.2322
4064	64.9531
4060	64.9804
4056	65.2132
4052	65.2688
4048	65.1203
4044	65.0324
4040	65.1312
4036	65.2756
4032	65.2447
4028	65.0357
4024	64.9321
4020	65.0525
4016	65.197
4012	65.2029
4008	65.1455
4004	65.0463
4000	64.8939
3996	64.8823
3992	65.0308
3988	65.219
3984	65.2204
3980	64.9365
3976	64.7373
3972	64.8029
3968	64.9764
3964	65.111
3960	65.1295
3956	65.1687
3952	65.2242
3948	65.1561
3944	65.1086
3940	65.1835
3936	65.3148
3932	65.3942
3928	65.3651
3924	65.2739
3920	65.1269
3916	65.047
3912	65.0666
3908	65.044
3904	65.0153
3900	64.9977
3896	64.9875
3892	65.0041
3888	65.0682
3884	65.141
3880	65.1139
3876	65.0991
3872	65.2062
3868	65.3314
3864	65.348
3860	65.3142
3856	65.3101
3852	65.2855
3848	65.1815
3844	65.0172
3840	64.9417
3836	64.9672
3832	65.0056
3828	65.0777
3824	65.1705
3820	65.2286
3816	65.2003
3812	65.1651
3808	65.2192
3804	65.2253
3800	65.1499
3796	65.1233
3792	65.1293
3788	65.1807
3784	65.2465
3780	65.2109
3776	65.1573
3772	65.1304
3768	65.1536
3764	65.2719
3760	65.2742
3756	65.1302
3752	65.1139
3748	65.2272
3744	65.2584
3740	65.1611
3736	65.1065
3732	65.1795
3728	65.2444
3724	65.2768
3720	65.3366
3716	65.3869
3712	65.3669
3708	65.3322
3704	65.3872
3700	65.4603
3696	65.4865
3692	65.5374
3688	65.5636
3684	65.459
3680	65.3101
3676	65.2537
3672	65.2851
3668	65.2945
3664	65.2336
3660	65.1523
3656	65.1196
3652	65.1948
3648	65.2646
3644	65.2199
3640	65.1721
3636	65.1951
3632	65.2629
3628	65.2502
3624	65.1604
3620	65.1662
3616	65.2282
3612	65.2482
3608	65.2714
3604	65.3666
3600	65.4392
3596	65.39
3592	65.3646
3588	65.4282
3584	65.4469
3580	65.4049
3576	65.3336
3572	65.273
3568	65.2581
3564	65.222
3560	65.2162
3556	65.2824
3552	65.3106
3548	65.2499
3544	65.161
3540	65.1345
3536	65.2043
3532	65.2665
3528	65.2302
3524	65.1961
3520	65.2033
3516	65.1726
3512	65.1419
3508	65.1398
3504	65.1736
3500	65.2778
3496	65.3489
3492	65.2968
3488	65.2067
3484	65.1587
3480	65.1
3476	65.0829
3472	65.1371
3468	65.0882
3464	65.0311
3460	65.1018
3456	65.1344
3452	65.0926
3448	65.0784
3444	65.1392
3440	65.2489
3436	65.3069
3432	65.2867
3428	65.2379
3424	65.1756
3420	65.1278
3416	65.1617
3412	65.2254
3408	65.2511
3404	65.2632
3400	65.2289
3396	65.1905
3392	65.1924
3388	65.1709
3384	65.1334
3380	65.2033
3376	65.3549
3372	65.3945
3368	65.3504
3364	65.2739
3360	65.1933
3356	65.23
3352	65.2763
3348	65.2323
3344	65.2231
3340	65.3002
3336	65.371
3332	65.3475
3328	65.2414
3324	65.1831
3320	65.1748
3316	65.118
3312	65.0964
3308	65.1821
3304	65.2461
3300	65.2544
3296	65.2733
3292	65.2742
3288	65.2574
3284	65.2184
3280	65.1737
3276	65.167
3272	65.1742
3268	65.2162
3264	65.3016
3260	65.4062
3256	65.4257
3252	65.348
3248	65.3071
3244	65.2533
3240	65.1957
3236	65.2504
3232	65.3236
3228	65.3646
3224	65.3926
3220	65.4037
3216	65.4279
3212	65.3326
3208	65.2089
3204	65.2046
3200	65.1827
3196	65.1624
3192	65.1859
3188	65.2148
3184	65.2546
3180	65.299
3176	65.3716
3172	65.4347
3168	65.4047
3164	65.3794
3160	65.4296
3156	65.4082
3152	65.3069
3148	65.2518
3144	65.245
3140	65.2437
3136	65.259
3132	65.3045
3128	65.299
3124	65.2375
3120	65.2551
3116	65.3405
3112	65.3671
3108	65.3254
3104	65.2859
3100	65.3034
3096	65.3268
3092	65.2626
3088	65.1967
3084	65.2016
3080	65.2098
3076	65.2524
3072	65.3075
3068	65.2666
3064	65.1971
3060	65.1927
3056	65.2776
3052	65.3617
3048	65.3192
3044	65.2486
3040	65.2113
3036	65.1746
3032	65.2071
3028	65.2697
3024	65.2694
3020	65.2488
3016	65.2128
3012	65.1485
3008	65.1095
3004	65.1107
3000	65.1738
2996	65.2763
2992	65.2956
2988	65.2469
2984	65.2717
2980	65.3274
2976	65.3347
2972	65.3485
2968	65.3438
2964	65.3029
2960	65.283
2956	65.2623
2952	65.2397
2948	65.26
2944	65.2499
2940	65.203
2936	65.2144
2932	65.2425
2928	65.2353
2924	65.1362
2920	65.0282
2916	65.0911
2912	65.1987
2908	65.2395
2904	65.2913
2900	65.3415
2896	65.349
2892	65.2965
2888	65.1934
2884	65.1471
2880	65.1864
2876	65.2324
2872	65.2809
2868	65.2944
2864	65.2355
2860	65.1579
2856	65.0963
2852	65.0935
2848	65.1658
2844	65.2318
2840	65.253
2836	65.2606
2832	65.2791
2828	65.3047
2824	65.3174
2820	65.3443
2816	65.3781
2812	65.3931
2808	65.3868
2804	65.319
2800	65.2072
2796	65.158
2792	65.2003
2788	65.2711
2784	65.3271
2780	65.3266
2776	65.2807
2772	65.2739
2768	65.2569
2764	65.1926
2760	65.1789
2756	65.2486
2752	65.3179
2748	65.2853
2744	65.2197
2740	65.2361
2736	65.2879
2732	65.3392
2728	65.3774
2724	65.3752
2720	65.3831
2716	65.3643
2712	65.3137
2708	65.3245
2704	65.3278
2700	65.3016
2696	65.3163
2692	65.3237
2688	65.3056
2684	65.2786
2680	65.2446
2676	65.2507
2672	65.3103
2668	65.3849
2664	65.3914
2660	65.3375
2656	65.3226
2652	65.3277
2648	65.3046
2644	65.2799
2640	65.2798
2636	65.2953
2632	65.3121
2628	65.3253
2624	65.3407
2620	65.362
2616	65.3654
2612	65.3389
2608	65.3027
2604	65.274
2600	65.3
2596	65.3552
2592	65.3112
2588	65.2111
2584	65.1788
2580	65.216
2576	65.3111
2572	65.3918
2568	65.3593
2564	65.2726
2560	65.2339
2556	65.2504
2552	65.282
2548	65.2791
2544	65.2673
2540	65.2919
2536	65.3095
2532	65.3156
2528	65.3289
2524	65.2769
2520	65.2049
2516	65.2435
2512	65.3018
2508	65.2932
2504	65.2838
2500	65.3014
2496	65.3234
2492	65.3319
2488	65.3483
2484	65.3576
2480	65.3194
2476	65.2743
2472	65.2594
2468	65.2413
2464	65.2105
2460	65.2315
2456	65.3024
2452	65.3675
2448	65.408
2444	65.4029
2440	65.3951
2436	65.442
2432	65.4508
2428	65.3855
2424	65.3493
2420	65.3569
2416	65.3542
2412	65.345
2408	65.3605
2404	65.3468
2400	65.3231
2396	65.3479
2392	65.3634
2388	65.316
2384	65.2692
2380	65.2714
2376	65.2697
2372	65.2855
2368	65.3494
2364	65.4079
2360	65.3997
2356	65.3582
2352	65.3332
2348	65.2955
2344	65.2397
2340	65.1908
2336	65.2129
2332	65.2975
2328	65.353
2324	65.387
2320	65.4001
2316	65.3653
2312	65.3394
2308	65.3441
2304	65.3453
2300	65.3548
2296	65.3533
2292	65.2868
2288	65.2217
2284	65.2152
2280	65.2114
2276	65.2071
2272	65.2248
2268	65.2504
2264	65.2794
2260	65.28
2256	65.2287
2252	65.2129
2248	65.2224
2244	65.199
2240	65.2434
2236	65.3011
2232	65.2853
2228	65.2863
2224	65.2847
2220	65.2364
2216	65.2247
2212	65.2402
2208	65.2164
2204	65.2058
2200	65.231
2196	65.252
2192	65.2654
2188	65.3048
2184	65.374
2180	65.3907
2176	65.3521
2172	65.3629
2168	65.388
2164	65.3332
2160	65.2633
2156	65.2338
2152	65.2222
2148	65.2368
2144	65.2427
2140	65.2209
2136	65.2185
2132	65.2276
2128	65.2518
2124	65.3038
2120	65.3158
2116	65.2922
2112	65.3148
2108	65.3758
2104	65.4169
2100	65.3809
2096	65.2871
2092	65.2293
2088	65.2118
2084	65.2096
2080	65.2672
2076	65.3794
2072	65.4138
2068	65.3522
2064	65.3181
2060	65.3052
2056	65.2779
2052	65.2556
2048	65.2407
2044	65.2534
2040	65.2906
2036	65.3392
2032	65.3538
2028	65.316
2024	65.2996
2020	65.3269
2016	65.3235
2012	65.274
2008	65.2691
2004	65.3019
2000	65.2872
1996	65.2324
1992	65.227
1988	65.2946
1984	65.2987
1980	65.2386
1976	65.2652
1972	65.3128
1968	65.3093
1964	65.3157
1960	65.3082
1956	65.2972
1952	65.3483
1948	65.3859
1944	65.3281
1940	65.2823
1936	65.3244
1932	65.3694
1928	65.3473
1924	65.3008
1920	65.2754
1916	65.265
1912	65.2673
1908	65.2786
1904	65.312
1900	65.3424
1896	65.3356
1892	65.3273
1888	65.3498
1884	65.3489
1880	65.3141
1876	65.3211
1872	65.3362
1868	65.2811
1864	65.2121
1860	65.2316
1856	65.31
1852	65.3289
1848	65.2809
1844	65.276
1840	65.2924
1836	65.2632
1832	65.254
1828	65.2689
1824	65.2632
1820	65.2827
1816	65.3044
1812	65.2793
1808	65.2777
1804	65.2985
1800	65.2977
1796	65.3012
1792	65.2789
1788	65.2201
1784	65.1807
1780	65.1985
1776	65.275
1772	65.3292
1768	65.2989
1764	65.2201
1760	65.1636
1756	65.1632
1752	65.1514
1748	65.1057
1744	65.1004
1740	65.1275
1736	65.1422
1732	65.1522
1728	65.1448
1724	65.1189
1720	65.1175
1716	65.1423
1712	65.1629
1708	65.2105
1704	65.2975
1700	65.3402
1696	65.3085
1692	65.2904
1688	65.3361
1684	65.3307
1680	65.2037
1676	65.1246
1672	65.1683
1668	65.2153
1664	65.2279
1660	65.2157
1656	65.1894
1652	65.1763
1648	65.1317
1644	65.0868
1640	65.1355
1636	65.2154
1632	65.2272
1628	65.1897
1624	65.213
1620	65.3418
1616	65.4135
1612	65.3174
1608	65.2207
1604	65.2275
1600	65.2477
1596	65.2328
1592	65.2071
1588	65.2293
1584	65.2886
1580	65.2399
1576	65.127
1572	65.141
1568	65.2336
1564	65.2099
1560	65.1108
1556	65.0974
1552	65.1156
1548	65.1062
1544	65.1063
1540	65.1586
1536	65.273
1532	65.3134
1528	65.1984
1524	65.1233
1520	65.1672
1516	65.1711
1512	65.166
1508	65.1851
1504	65.1745
1500	65.2271
1496	65.3075
1492	65.2736
1488	65.2026
1484	65.1552
1480	65.1669
1476	65.2739
1472	65.3499
1468	65.3148
1464	65.2258
1460	65.197
1456	65.2503
1452	65.2364
1448	65.1429
1444	65.069
1440	65.0873
1436	65.1526
1432	65.1652
1428	65.1962
1424	65.2364
1420	65.2287
1416	65.1761
1412	65.0961
1408	65.0673
1404	65.1418
1400	65.2655
1396	65.2831
1392	65.2216
1388	65.204
1384	65.2059
1380	65.2188
1376	65.2605
1372	65.3185
1368	65.3615
1364	65.3372
1360	65.2443
1356	65.1797
1352	65.1898
1348	65.1967
1344	65.1856
1340	65.1996
1336	65.2368
1332	65.2515
1328	65.2426
1324	65.25
1320	65.2229
1316	65.182
1312	65.2153
1308	65.2425
1304	65.1849
1300	65.1254
1296	65.1292
1292	65.1717
1288	65.2131
1284	65.2194
1280	65.1906
1276	65.1772
1272	65.2045
1268	65.2309
1264	65.1998
1260	65.122
1256	65.102
1252	65.1467
1248	65.1468
1244	65.1217
1240	65.1132
1236	65.1338
1232	65.187
1228	65.2032
1224	65.1658
1220	65.1236
1216	65.1348
1212	65.1656
1208	65.1486
1204	65.1193
1200	65.1017
1196	65.104
1192	65.1568
1188	65.166
1184	65.1144
1180	65.111
1176	65.141
1172	65.1536
1168	65.1629
1164	65.2033
1160	65.2458
1156	65.2398
1152	65.212
1148	65.1803
1144	65.1481
1140	65.1315
1136	65.0861
1132	65.045
1128	65.0768
1124	65.1087
1120	65.0943
1116	65.0828
1112	65.0523
1108	65.0383
1104	65.0611
1100	65.0885
1096	65.1403
1092	65.1798
1088	65.1801
1084	65.1359
1080	65.0354
1076	64.9367
1072	64.929
1068	65.0226
1064	65.1072
1060	65.0835
1056	65.0167
1052	65.0087
1048	65.0661
1044	65.1869
1040	65.2679
1036	65.2344
1032	65.1322
1028	65.0433
1024	65.0285
1020	64.9904
1016	64.9804
1012	65.0823
1008	65.1664
1004	65.1773
1000	65.1666
996	 65.1725
992	 65.185
988	 65.2308
984	 65.3093
980	 65.3322
976	 65.3226
972	 65.3509
968	 65.3444
964	 65.2819
960	 65.219
956	 65.2184
952	 65.3785
948	 65.541
944	 65.5129
940	 65.3811
936	 65.217
932	 65.1194
928	 65.1557
924	 65.1996
920	 65.1672
916	 65.126
912	 65.1548
908	 65.2052
904	 65.2507
900	 65.3193
896	 65.3946
892	 65.4275
888	 65.4386
884	 65.4953
880	 65.4589
876	 65.3267
872	 65.3109
868	 65.3607
864	 65.3794
860	 65.3953
856	 65.4316
852	 65.4391
848	 65.3693
844	 65.3231
840	 65.3208
836	 65.2762
832	 65.2987
828	 65.4576
824	 65.5182
820	 65.411
816	 65.3524
812	 65.3733
808	 65.4114
804	 65.4287
800	 65.3417
796	 65.1498
792	 65.041
788	 65.1331
784	 65.2654
780	 65.373
776	 65.4536
772	 65.4188
768	 65.4115
764	 65.423
760	 65.4002
756	 65.4545
752	 65.495
748	 65.4756
744	 65.4508
740	 65.4257
736	 65.3716
732	 65.322
728	 65.3329
724	 65.3784
720	 65.4268
716	 65.3804
712	 65.1981
708	 65.1186
704	 65.2768
700	 65.4201
696	 65.4502
692	 65.4206
688	 65.2818
684	 65.2961
680	 65.4647
676	 65.4398
672	 65.369
668	 65.4624
664	 65.6067
660	 65.6803
656	 65.6418
652	 65.4952
648	 65.3484
644	 65.2967
640	 65.2987
636	 65.3552
632	 65.4066
628	 65.4348
624	 65.5229
620	 65.6014
616	 65.6379
612	 65.6594
608	 65.6827
604	 65.6863
600	 65.4891
596	 65.2206
592	 65.2672
588	 65.4323
584	 65.3042
580	 64.9892
576	 64.8591
572	 65.0381
568	 65.3827
564	 65.7506
560	 65.9026
556	 65.8674
552	 66.0147
548	 66.2283
544	 66.1261
540	 65.7846
536	 65.6281
532	 65.8022
528	 65.8563
524	 65.759
520	 65.8579
516	 66.0013
512	 65.94
508	 65.7648
504	 65.6362
500	 65.3917
496	 65.0965
492	 65.1496
488	 65.4202
484	 65.4514
480	 65.2454
476	 65.4983
472	 66.1372
468	 66.0814
464	 65.5763
460	 65.5218
456	 66.1908
452	 67.4656
448	 68.0744
444	 67.3187
440	 67.6123
436	 68.2621
432	 65.5785
428	 63.2566
424	 66.7813
420	 72.4157
416	 75.4436
412	 78.0676
408	 77.5083
404	 72.2342
400	 70.9002
396	 72.6473
392	 65.6941
388	 50.3255
384	 37.4804
380	 51.2961
376	 73.7093
372	 147.148
370	 150.538