File: Bakgrunnsmateriale/MATLAB/FTIR/ftir_data/subCa/Mapping_25/BZ12041010-4_t03_cm-1.asc
PE IR       SPECTRUM    SPECTRUM    ASCII       PEDS        1.60
  -1
BZAB7F~1.ASC
17/04/10
09:05:35.00
17/04/10
09:05:35.00
tln
$BZ12041010-4_t0003$<tbV0>[0.0,-12.4,9.0,0.0,22,1,0]
370
64

2002,4.07
MIRTGS : RIGHTBACK : INTERNAL 2
MIR : ON : INTERNAL 2
OPTKBR

0.200000
8
8.000000
FILLER
RATIO
SPECTRUM
UNLOCKED 256

DOUBLE
64
COMBINED
1
0
0

1.000000
RATIO

1
0
TRUE
51149
0
LEFT NOT FITTED RIGHT NOT FITTED 0
NONE
NONE
15600
12
4.427000
51148
TRUE
1 0 8 72 0 0 0 0

15798

#HDR
-1
-1
#GR
CM-1
%T
2.38419e-05
0.0
5000
-1.000000
4631
8
68.9312
43.1155
#DATA
5000	65.318
4996	65.2076
4992	64.9517
4988	64.6718
4984	64.697
4980	64.8484
4976	64.9318
4972	65.0367
4968	64.9531
4964	64.7972
4960	64.8994
4956	65.0618
4952	64.9903
4948	64.8553
4944	64.857
4940	64.8375
4936	64.8008
4932	64.9162
4928	64.8843
4924	64.79
4920	64.9916
4916	65.1703
4912	65.1395
4908	64.9987
4904	64.7266
4900	64.3532
4896	64.1725
4892	64.309
4888	64.367
4884	64.4526
4880	64.6106
4876	64.5045
4872	64.4928
4868	64.5878
4864	64.6853
4860	64.8543
4856	64.8328
4852	64.5827
4848	64.2355
4844	64.057
4840	64.1671
4836	64.2049
4832	63.959
4828	64.0616
4824	64.7499
4820	65.113
4816	64.3342
4812	63.6473
4808	64.7085
4804	66.2138
4800	66.6699
4796	66.0459
4792	64.2444
4788	62.7835
4784	63.1092
4780	63.6855
4776	63.5085
4772	63.85
4768	65.4715
4764	66.8686
4760	66.581
4756	65.5992
4752	64.742
4748	64.2052
4744	64.5044
4740	64.9004
4736	64.8235
4732	64.8357
4728	64.7908
4724	64.6345
4720	64.8808
4716	65.2518
4712	65.3286
4708	65.4232
4704	65.0955
4700	64.1277
4696	63.5434
4692	63.4701
4688	63.8186
4684	64.2487
4680	64.1119
4676	64.2277
4672	64.8621
4668	64.9792
4664	64.8446
4660	64.9594
4656	65.0453
4652	65.5953
4648	66.361
4644	66.4768
4640	66.0359
4636	65.5805
4632	65.6453
4628	65.7814
4624	65.4098
4620	65.3055
4616	65.7381
4612	65.8367
4608	65.5811
4604	65.3787
4600	65.2647
4596	65.2577
4592	65.355
4588	65.6865
4584	66.1265
4580	66.2826
4576	66.3558
4572	66.5135
4568	66.3229
4564	66.2744
4560	66.6264
4556	66.5731
4552	66.3717
4548	66.2215
4544	65.9149
4540	65.8666
4536	66.0028
4532	65.9926
4528	66.1926
4524	66.5327
4520	66.5711
4516	66.9695
4512	67.5202
4508	67.4968
4504	67.3853
4500	66.9892
4496	64.6667
4492	61.011
4488	59.7359
4484	59.6929
4480	55.7761
4476	47.8854
4472	43.1155
4468	45.9108
4464	53.8705
4460	62.4963
4456	66.2901
4452	66.4437
4448	66.5046
4444	66.1905
4440	66.0877
4436	66.25
4432	66.2265
4428	66.5669
4424	66.99
4420	66.8893
4416	66.6545
4412	66.4658
4408	66.4958
4404	66.6412
4400	66.5052
4396	66.3974
4392	66.4029
4388	66.2042
4384	66.0414
4380	66.1413
4376	66.3343
4372	66.376
4368	66.1891
4364	65.9809
4360	65.8829
4356	65.9153
4352	65.9463
4348	65.826
4344	65.7588
4340	65.7851
4336	65.7079
4332	65.6096
4328	65.5269
4324	65.3621
4320	65.2444
4316	65.3251
4312	65.4778
4308	65.3404
4304	65.0561
4300	65.0954
4296	65.2571
4292	65.2371
4288	65.2018
4284	65.324
4280	65.426
4276	65.3442
4272	65.2679
4268	65.1926
4264	65.0043
4260	64.8065
4256	64.7471
4252	64.9438
4248	65.2628
4244	65.4037
4240	65.3364
4236	65.1537
4232	64.9189
4228	64.8373
4224	64.944
4220	65.054
4216	65.0434
4212	64.9723
4208	64.8555
4204	64.7082
4200	64.7532
4196	64.855
4192	64.7444
4188	64.5036
4184	64.2834
4180	64.2182
4176	64.3961
4172	64.7801
4168	64.9727
4164	64.8436
4160	64.8551
4156	64.9312
4152	64.8397
4148	64.8391
4144	64.9466
4140	64.9058
4136	64.7493
4132	64.742
4128	64.8474
4124	64.848
4120	64.8643
4116	64.9188
4112	64.8475
4108	64.8233
4104	64.9565
4100	65.0949
4096	65.1768
4092	65.184
4088	65.1239
4084	65.0902
4080	65.0792
4076	65.0771
4072	65.0198
4068	64.8353
4064	64.7249
4060	64.816
4056	65.0127
4052	65.2078
4048	65.3238
4044	65.2793
4040	65.1646
4036	65.1352
4032	65.1066
4028	65.0642
4024	65.204
4020	65.4315
4016	65.3717
4012	65.1341
4008	64.9777
4004	64.916
4000	65.0198
3996	65.1514
3992	65.204
3988	65.2461
3984	65.2731
3980	65.3381
3976	65.4411
3972	65.5328
3968	65.5186
3964	65.3594
3960	65.2573
3956	65.2603
3952	65.2751
3948	65.3223
3944	65.3564
3940	65.3073
3936	65.2822
3932	65.3818
3928	65.4107
3924	65.33
3920	65.3123
3916	65.2612
3912	65.1993
3908	65.3104
3904	65.4462
3900	65.4062
3896	65.3948
3892	65.5086
3888	65.5053
3884	65.4112
3880	65.3583
3876	65.386
3872	65.4881
3868	65.4176
3864	65.2265
3860	65.2416
3856	65.3849
3852	65.4141
3848	65.3428
3844	65.3431
3840	65.4443
3836	65.4474
3832	65.3505
3828	65.2997
3824	65.2816
3820	65.2956
3816	65.2769
3812	65.1976
3808	65.1921
3804	65.2729
3800	65.2619
3796	65.1476
3792	65.1638
3788	65.3279
3784	65.3932
3780	65.2967
3776	65.1653
3772	65.0525
3768	65.0226
3764	65.1277
3760	65.1938
3756	65.1723
3752	65.2563
3748	65.4282
3744	65.5199
3740	65.4727
3736	65.4104
3732	65.384
3728	65.2487
3724	65.0798
3720	65.1253
3716	65.3232
3712	65.363
3708	65.2098
3704	65.1269
3700	65.1921
3696	65.2495
3692	65.2447
3688	65.2232
3684	65.1723
3680	65.1472
3676	65.2527
3672	65.335
3668	65.2863
3664	65.2313
3660	65.2269
3656	65.3248
3652	65.491
3648	65.5321
3644	65.4371
3640	65.3246
3636	65.2486
3632	65.3159
3628	65.4016
3624	65.3569
3620	65.2848
3616	65.2369
3612	65.2593
3608	65.3083
3604	65.3049
3600	65.3008
3596	65.326
3592	65.3436
3588	65.3552
3584	65.3901
3580	65.3677
3576	65.229
3572	65.1187
3568	65.1644
3564	65.2708
3560	65.3406
3556	65.3774
3552	65.3243
3548	65.1972
3544	65.1056
3540	65.141
3536	65.2991
3532	65.4049
3528	65.3657
3524	65.2891
3520	65.2584
3516	65.2801
3512	65.325
3508	65.3239
3504	65.2669
3500	65.2098
3496	65.2088
3492	65.2843
3488	65.3078
3484	65.1956
3480	65.1232
3476	65.1963
3472	65.263
3468	65.2504
3464	65.2237
3460	65.2159
3456	65.2318
3452	65.2672
3448	65.3338
3444	65.3901
3440	65.3837
3436	65.3135
3432	65.2251
3428	65.2367
3424	65.2985
3420	65.2719
3416	65.2615
3412	65.3283
3408	65.3683
3404	65.3685
3400	65.3701
3396	65.3857
3392	65.3218
3388	65.2277
3384	65.2741
3380	65.3553
3376	65.3684
3372	65.3158
3368	65.2519
3364	65.2444
3360	65.1897
3356	65.0896
3352	65.0577
3348	65.1055
3344	65.1996
3340	65.2463
3336	65.2457
3332	65.2965
3328	65.2843
3324	65.1796
3320	65.127
3316	65.0882
3312	65.0288
3308	65.0244
3304	65.0839
3300	65.1404
3296	65.1366
3292	65.0902
3288	65.0981
3284	65.2115
3280	65.2911
3276	65.2464
3272	65.196
3268	65.2045
3264	65.2566
3260	65.3198
3256	65.3295
3252	65.2799
3248	65.1966
3244	65.1449
3240	65.17
3236	65.2042
3232	65.1602
3228	65.0555
3224	65.0282
3220	65.0881
3216	65.1654
3212	65.2582
3208	65.2643
3204	65.1592
3200	65.1133
3196	65.1839
3192	65.2141
3188	65.0962
3184	64.9989
3180	65.0629
3176	65.1328
3172	65.1436
3168	65.1887
3164	65.2334
3160	65.2622
3156	65.3298
3152	65.4066
3148	65.4351
3144	65.4155
3140	65.3705
3136	65.3062
3132	65.2453
3128	65.2107
3124	65.2419
3120	65.2702
3116	65.1794
3112	65.1631
3108	65.2408
3104	65.2105
3100	65.1695
3096	65.1711
3092	65.1829
3088	65.2081
3084	65.1568
3080	65.073
3076	65.0844
3072	65.1016
3068	65.0461
3064	65.0396
3060	65.1496
3056	65.2902
3052	65.3695
3048	65.3154
3044	65.1996
3040	65.2092
3036	65.2479
3032	65.2099
3028	65.1855
3024	65.1626
3020	65.1384
3016	65.1185
3012	65.1027
3008	65.1441
3004	65.1827
3000	65.1695
2996	65.1555
2992	65.1091
2988	65.068
2984	65.098
2980	65.1464
2976	65.1955
2972	65.1971
2968	65.201
2964	65.2876
2960	65.3061
2956	65.228
2952	65.1988
2948	65.2107
2944	65.2369
2940	65.2267
2936	65.0862
2932	64.9855
2928	65.0563
2924	65.1882
2920	65.2844
2916	65.2756
2912	65.2517
2908	65.2804
2904	65.2232
2900	65.1338
2896	65.1446
2892	65.1742
2888	65.1778
2884	65.2106
2880	65.2488
2876	65.1872
2872	65.0088
2868	64.8886
2864	64.9637
2860	65.1095
2856	65.1937
2852	65.2032
2848	65.1445
2844	65.0789
2840	65.0889
2836	65.1685
2832	65.2367
2828	65.2615
2824	65.2354
2820	65.1982
2816	65.2121
2812	65.2539
2808	65.2657
2804	65.2707
2800	65.2653
2796	65.2145
2792	65.1894
2788	65.2031
2784	65.1932
2780	65.1792
2776	65.2115
2772	65.2369
2768	65.2417
2764	65.2759
2760	65.2802
2756	65.2462
2752	65.2471
2748	65.2605
2744	65.3105
2740	65.3978
2736	65.4008
2732	65.3181
2728	65.2367
2724	65.2029
2720	65.2376
2716	65.2875
2712	65.2768
2708	65.2768
2704	65.3651
2700	65.4261
2696	65.3669
2692	65.2911
2688	65.2452
2684	65.1986
2680	65.2001
2676	65.2363
2672	65.2303
2668	65.1881
2664	65.2215
2660	65.3419
2656	65.3813
2652	65.3089
2648	65.2601
2644	65.248
2640	65.2445
2636	65.2914
2632	65.3496
2628	65.3209
2624	65.2635
2620	65.2906
2616	65.337
2612	65.3182
2608	65.2765
2604	65.281
2600	65.3044
2596	65.2617
2592	65.188
2588	65.1891
2584	65.2882
2580	65.4152
2576	65.4259
2572	65.3206
2568	65.2644
2564	65.2998
2560	65.3256
2556	65.3143
2552	65.3455
2548	65.349
2544	65.3117
2540	65.3252
2536	65.3058
2532	65.2386
2528	65.2528
2524	65.3028
2520	65.2986
2516	65.3141
2512	65.3629
2508	65.3635
2504	65.2979
2500	65.2403
2496	65.2308
2492	65.2404
2488	65.2524
2484	65.2383
2480	65.238
2476	65.3071
2472	65.3544
2468	65.2967
2464	65.2282
2460	65.262
2456	65.3359
2452	65.3004
2448	65.184
2444	65.1582
2440	65.2395
2436	65.3061
2432	65.324
2428	65.331
2424	65.3378
2420	65.3143
2416	65.2571
2412	65.2286
2408	65.2281
2404	65.2292
2400	65.2158
2396	65.2218
2392	65.2814
2388	65.2777
2384	65.2583
2380	65.3291
2376	65.3591
2372	65.3009
2368	65.2363
2364	65.2172
2360	65.264
2356	65.3302
2352	65.3396
2348	65.322
2344	65.3335
2340	65.3561
2336	65.4015
2332	65.4167
2328	65.3568
2324	65.3149
2320	65.3061
2316	65.3002
2312	65.3127
2308	65.3266
2304	65.3486
2300	65.3944
2296	65.4088
2292	65.3362
2288	65.265
2284	65.309
2280	65.4153
2276	65.459
2272	65.3833
2268	65.2765
2264	65.2596
2260	65.2961
2256	65.287
2252	65.2463
2248	65.2379
2244	65.2581
2240	65.2972
2236	65.3193
2232	65.2601
2228	65.2385
2224	65.3363
2220	65.4013
2216	65.3916
2212	65.3704
2208	65.3569
2204	65.3363
2200	65.2546
2196	65.1859
2192	65.2223
2188	65.2949
2184	65.3241
2180	65.3364
2176	65.3464
2172	65.3201
2168	65.3074
2164	65.3235
2160	65.3476
2156	65.4065
2152	65.4594
2148	65.4577
2144	65.4377
2140	65.383
2136	65.2996
2132	65.2796
2128	65.2839
2124	65.263
2120	65.2582
2116	65.2778
2112	65.2959
2108	65.3062
2104	65.3286
2100	65.361
2096	65.3687
2092	65.3784
2088	65.4287
2084	65.461
2080	65.4521
2076	65.4021
2072	65.3535
2068	65.3544
2064	65.3253
2060	65.2889
2056	65.3047
2052	65.3319
2048	65.3477
2044	65.3551
2040	65.3819
2036	65.4078
2032	65.4005
2028	65.3968
2024	65.3661
2020	65.2945
2016	65.2881
2012	65.3565
2008	65.4105
2004	65.3957
2000	65.3197
1996	65.2663
1992	65.2923
1988	65.3413
1984	65.3601
1980	65.3606
1976	65.3446
1972	65.3333
1968	65.3283
1964	65.3071
1960	65.2962
1956	65.2935
1952	65.2946
1948	65.3429
1944	65.407
1940	65.4094
1936	65.3423
1932	65.2719
1928	65.2691
1924	65.3154
1920	65.3403
1916	65.3316
1912	65.3099
1908	65.2823
1904	65.2679
1900	65.2626
1896	65.2663
1892	65.3186
1888	65.3563
1884	65.3321
1880	65.2926
1876	65.2765
1872	65.3139
1868	65.3705
1864	65.394
1860	65.3927
1856	65.3908
1852	65.4256
1848	65.4404
1844	65.364
1840	65.318
1836	65.3726
1832	65.422
1828	65.4166
1824	65.3891
1820	65.3624
1816	65.3787
1812	65.4362
1808	65.4514
1804	65.4475
1800	65.4681
1796	65.4929
1792	65.5049
1788	65.4415
1784	65.3431
1780	65.3328
1776	65.4387
1772	65.5386
1768	65.5184
1764	65.4471
1760	65.3962
1756	65.3727
1752	65.3871
1748	65.3841
1744	65.3738
1740	65.4054
1736	65.4531
1732	65.4218
1728	65.3025
1724	65.2787
1720	65.381
1716	65.4242
1712	65.3392
1708	65.3187
1704	65.4579
1700	65.6187
1696	65.6147
1692	65.4784
1688	65.5038
1684	65.5785
1680	65.4651
1676	65.3932
1672	65.4166
1668	65.4002
1664	65.3987
1660	65.4127
1656	65.4823
1652	65.6032
1648	65.6106
1644	65.4701
1640	65.3138
1636	65.2605
1632	65.2617
1628	65.2548
1624	65.2611
1620	65.362
1616	65.4363
1612	65.285
1608	65.1404
1604	65.1685
1600	65.1895
1596	65.1408
1592	65.1098
1588	65.1261
1584	65.168
1580	65.2218
1576	65.2507
1572	65.2541
1568	65.3029
1564	65.4476
1560	65.5497
1556	65.4504
1552	65.3291
1548	65.3634
1544	65.4396
1540	65.4022
1536	65.3433
1532	65.3533
1528	65.3199
1524	65.2922
1520	65.3306
1516	65.362
1512	65.4527
1508	65.543
1504	65.4513
1500	65.3752
1496	65.447
1492	65.4232
1488	65.3194
1484	65.2821
1480	65.3128
1476	65.4086
1472	65.4721
1468	65.469
1464	65.4767
1460	65.4818
1456	65.3973
1452	65.2735
1448	65.2346
1444	65.2565
1440	65.3433
1436	65.449
1432	65.4561
1428	65.4369
1424	65.4785
1420	65.4851
1416	65.371
1412	65.2758
1408	65.2648
1404	65.2622
1400	65.306
1396	65.3388
1392	65.2737
1388	65.2039
1384	65.2054
1380	65.2532
1376	65.2916
1372	65.2951
1368	65.3196
1364	65.3792
1360	65.3746
1356	65.3377
1352	65.3422
1348	65.3105
1344	65.2538
1340	65.2674
1336	65.3118
1332	65.2894
1328	65.2416
1324	65.2659
1320	65.305
1316	65.3034
1312	65.3075
1308	65.2935
1304	65.2376
1300	65.221
1296	65.256
1292	65.3069
1288	65.3433
1284	65.3409
1280	65.3333
1276	65.2987
1272	65.2044
1268	65.1332
1264	65.1554
1260	65.1834
1256	65.1633
1252	65.1666
1248	65.2145
1244	65.2683
1240	65.2624
1236	65.2218
1232	65.2199
1228	65.2392
1224	65.2542
1220	65.2353
1216	65.1915
1212	65.2137
1208	65.2788
1204	65.306
1200	65.3186
1196	65.3034
1192	65.2301
1188	65.1469
1184	65.1012
1180	65.1227
1176	65.2097
1172	65.2694
1168	65.2311
1164	65.1995
1160	65.2233
1156	65.2188
1152	65.2056
1148	65.1849
1144	65.0848
1140	64.9842
1136	64.9561
1132	65.0166
1128	65.1197
1124	65.1707
1120	65.1849
1116	65.2613
1112	65.2895
1108	65.0971
1104	64.9095
1100	64.8605
1096	64.8823
1092	64.9851
1088	65.0879
1084	65.1469
1080	65.2146
1076	65.2824
1072	65.2202
1068	65.1122
1064	65.1334
1060	65.2152
1056	65.2821
1052	65.2681
1048	65.1666
1044	65.0728
1040	65.0383
1036	65.0489
1032	65.0435
1028	65.0429
1024	65.0548
1020	65.0233
1016	64.9894
1012	65.0473
1008	65.191
1004	65.3077
1000	65.3247
996	 65.1729
992	 64.995
988	 65.0202
984	 65.1068
980	 65.1469
976	 65.1781
972	 65.1935
968	 65.2155
964	 65.18
960	 65.1454
956	 65.1793
952	 65.1954
948	 65.2594
944	 65.3205
940	 65.3314
936	 65.3842
932	 65.4086
928	 65.3691
924	 65.334
920	 65.2763
916	 65.202
912	 65.253
908	 65.3753
904	 65.4426
900	 65.4969
896	 65.5372
892	 65.4963
888	 65.4449
884	 65.4498
880	 65.4103
876	 65.3839
872	 65.4851
868	 65.632
864	 65.7078
860	 65.6772
856	 65.5799
852	 65.4587
848	 65.3812
844	 65.3712
840	 65.3863
836	 65.4188
832	 65.4481
828	 65.4805
824	 65.4952
820	 65.4791
816	 65.5609
812	 65.6138
808	 65.4641
804	 65.3546
800	 65.3502
796	 65.2848
792	 65.2543
788	 65.3196
784	 65.3974
780	 65.5138
776	 65.659
772	 65.7186
768	 65.6469
764	 65.4994
760	 65.443
756	 65.3939
752	 65.2493
748	 65.1724
744	 65.1955
740	 65.299
736	 65.424
732	 65.5082
728	 65.5137
724	 65.3731
720	 65.2099
716	 65.1962
712	 65.2786
708	 65.362
704	 65.3944
700	 65.345
696	 65.3093
692	 65.3351
688	 65.3209
684	 65.3168
680	 65.4522
676	 65.6565
672	 65.7822
668	 65.7098
664	 65.6443
660	 65.753
656	 65.7526
652	 65.6803
648	 65.6545
644	 65.5081
640	 65.3848
636	 65.4037
632	 65.2956
628	 65.1031
624	 65.2703
620	 65.661
616	 65.8249
612	 65.7747
608	 65.6487
604	 65.6329
600	 65.7788
596	 65.7777
592	 65.5942
588	 65.5271
584	 65.6608
580	 65.7776
576	 65.8628
572	 66.0858
568	 66.2087
564	 66.0609
560	 65.9419
556	 65.9707
552	 65.9787
548	 66.0749
544	 66.1909
540	 66.0849
536	 65.9862
532	 65.97
528	 66.0207
524	 66.1527
520	 66.0849
516	 66.1148
512	 66.4051
508	 66.5227
504	 66.3319
500	 66.0982
496	 65.9102
492	 65.7374
488	 65.783
484	 66.1038
480	 66.1572
476	 65.8576
472	 65.5334
468	 65.2485
464	 65.2424
460	 65.666
456	 66.1132
452	 66.0417
448	 65.6358
444	 65.8788
440	 66.5697
436	 66.7028
432	 66.3269
428	 66.2169
424	 66.0116
420	 65.2039
416	 65.0386
412	 65.8976
408	 67.1607
404	 67.0002
400	 65.3733
396	 66.1606
392	 67.4848
388	 68.2615
384	 68.7377
380	 65.5406
376	 65.039
372	 67.603
370	 67.9436