File: Bakgrunnsmateriale/MATLAB/FTIR/ftir_data/subCa/Mapping_25/BZ12041010-4_t18_cm-1.asc
PE IR       SPECTRUM    SPECTRUM    ASCII       PEDS        1.60
  -1
BZ2CF0~1.ASC
17/04/10
10:23:10.00
17/04/10
10:23:10.00
tln
$BZ12041010-4_t0018$<tbV0>[0.0,-4.6,9.0,0.0,22,1,0]
370
64

2002,4.07
MIRTGS : RIGHTBACK : INTERNAL 2
MIR : ON : INTERNAL 2
OPTKBR

0.200000
8
8.000000
FILLER
RATIO
SPECTRUM
UNLOCKED 256

DOUBLE
64
COMBINED
1
0
0

1.000000
RATIO

1
0
TRUE
51149
0
LEFT NOT FITTED RIGHT NOT FITTED 0
NONE
NONE
15600
12
4.427000
51148
TRUE
1 0 8 72 0 0 0 0

15798

#HDR
-1
-1
#GR
CM-1
%T
2.38419e-05
0.0
5000
-1.000000
4631
8
78.748
3.834056
#DATA
5000	64.9023
4996	64.9484
4992	65.255
4988	65.4323
4984	65.2642
4980	65.0871
4976	65.064
4972	65.235
4968	65.5082
4964	65.6811
4960	65.5956
4956	65.2839
4952	65.041
4948	64.8626
4944	64.6131
4940	64.3314
4936	64.2867
4932	64.5709
4928	64.8256
4924	65.0093
4920	65.23
4916	65.3421
4912	65.5144
4908	65.917
4904	65.9041
4900	65.1426
4896	64.3085
4892	64.1891
4888	64.7287
4884	64.9709
4880	64.7968
4876	64.922
4872	65.1762
4868	64.9323
4864	64.4242
4860	64.5323
4856	65.2115
4852	65.5389
4848	66.3794
4844	67.4713
4840	66.5622
4836	65.8549
4832	66.3703
4828	65.784
4824	65.7973
4820	67.1237
4816	67.5619
4812	67.234
4808	66.9572
4804	66.4059
4800	65.6254
4796	65.0861
4792	64.8015
4788	64.5657
4784	64.4165
4780	64.6547
4776	64.7963
4772	64.7676
4768	64.9552
4764	64.922
4760	64.8878
4756	65.2674
4752	65.3347
4748	65.2027
4744	65.5048
4740	65.6366
4736	65.3046
4732	64.9821
4728	65.1611
4724	65.4321
4720	65.1789
4716	64.8428
4712	65.0067
4708	65.3013
4704	65.2656
4700	65.2362
4696	65.2604
4692	65.1524
4688	65.2386
4684	65.4077
4680	65.2595
4676	65.2627
4672	65.5312
4668	65.5818
4664	65.3705
4660	65.2234
4656	65.232
4652	65.2817
4648	65.2657
4644	65.0743
4640	64.9312
4636	64.9419
4632	65.0474
4628	65.2193
4624	65.3881
4620	65.4907
4616	65.4186
4612	65.2977
4608	65.3034
4604	65.283
4600	65.2291
4596	65.2533
4592	65.2712
4588	65.2118
4584	65.1507
4580	65.1187
4576	65.1866
4572	65.3203
4568	65.3623
4564	65.5218
4560	65.63
4556	65.3217
4552	64.9447
4548	64.9214
4544	65.092
4540	65.1224
4536	65.1178
4532	65.1467
4528	65.1852
4524	65.361
4520	65.5651
4516	65.6755
4512	65.6399
4508	65.6129
4504	65.7557
4500	65.7333
4496	65.671
4492	65.9305
4488	66.4639
4484	66.7327
4480	65.237
4476	62.0339
4472	60.5102
4468	58.9316
4464	58.1729
4460	69.8568
4456	78.748
4452	73.1129
4448	67.0798
4444	65.2858
4440	64.7112
4436	64.3353
4432	64.4645
4428	64.6644
4424	64.697
4420	64.8508
4416	65.0603
4412	65.1314
4408	65.0814
4404	64.8691
4400	64.9216
4396	65.3568
4392	65.6933
4388	65.9156
4384	65.9333
4380	65.6627
4376	65.3891
4372	65.3796
4368	65.559
4364	65.5736
4360	65.4093
4356	65.3218
4352	65.2553
4348	65.1656
4344	65.2469
4340	65.3752
4336	65.4207
4332	65.427
4328	65.3888
4324	65.3789
4320	65.3987
4316	65.4755
4312	65.5691
4308	65.448
4304	65.183
4300	65.0311
4296	64.9989
4292	65.1191
4288	65.3177
4284	65.3492
4280	65.3589
4276	65.4825
4272	65.5323
4268	65.4118
4264	65.192
4260	65.0018
4256	64.929
4252	64.9526
4248	65.0156
4244	65.0934
4240	65.143
4236	65.1761
4232	65.1874
4228	65.0776
4224	64.9844
4220	65.068
4216	65.1669
4212	65.219
4208	65.1759
4204	65.0218
4200	65.0228
4196	65.205
4192	65.1674
4188	64.9402
4184	65.0158
4180	65.1474
4176	65.1486
4172	65.3452
4168	65.3749
4164	65.0969
4160	64.961
4156	65.0624
4152	65.1471
4148	65.1204
4144	65.0804
4140	65.0069
4136	64.9412
4132	65.0105
4128	65.2094
4124	65.2638
4120	65.0492
4116	64.8944
4112	65.0256
4108	65.219
4104	65.3233
4100	65.4129
4096	65.375
4092	65.2368
4088	65.1989
4084	65.2114
4080	65.1168
4076	65.0861
4072	65.2985
4068	65.3828
4064	65.2262
4060	65.1136
4056	65.1272
4052	65.3021
4048	65.3661
4044	65.2888
4040	65.3517
4036	65.3503
4032	65.1894
4028	65.0917
4024	65.0881
4020	65.1977
4016	65.3265
4012	65.2984
4008	65.3104
4004	65.4231
4000	65.3342
3996	65.0828
3992	65.0594
3988	65.2879
3984	65.3597
3980	65.1281
3976	64.9462
3972	64.9711
3968	64.9266
3964	64.8727
3960	65.1214
3956	65.5147
3952	65.6223
3948	65.4177
3944	65.2528
3940	65.2785
3936	65.4028
3932	65.497
3928	65.5145
3924	65.5504
3920	65.5393
3916	65.4184
3912	65.3741
3908	65.3847
3904	65.3211
3900	65.2002
3896	65.169
3892	65.3208
3888	65.4608
3884	65.4461
3880	65.3354
3876	65.2912
3872	65.3509
3868	65.347
3864	65.2579
3860	65.2511
3856	65.3599
3852	65.3754
3848	65.2642
3844	65.2032
3840	65.1663
3836	65.1708
3832	65.2865
3828	65.4197
3824	65.4732
3820	65.3922
3816	65.2709
3812	65.233
3808	65.281
3804	65.3565
3800	65.3752
3796	65.416
3792	65.459
3788	65.4099
3784	65.3298
3780	65.2227
3776	65.1292
3772	65.1011
3768	65.1513
3764	65.2339
3760	65.2725
3756	65.2389
3752	65.1894
3748	65.2447
3744	65.3174
3740	65.3262
3736	65.3378
3732	65.3403
3728	65.3318
3724	65.3114
3720	65.2948
3716	65.3119
3712	65.3063
3708	65.3355
3704	65.417
3700	65.3499
3696	65.1924
3692	65.1841
3688	65.326
3684	65.4824
3680	65.4825
3676	65.3736
3672	65.3809
3668	65.4455
3664	65.4341
3660	65.4034
3656	65.3791
3652	65.3069
3648	65.3049
3644	65.3975
3640	65.3927
3636	65.3519
3632	65.3502
3628	65.3298
3624	65.3384
3620	65.3482
3616	65.3966
3612	65.4989
3608	65.4775
3604	65.3521
3600	65.2934
3596	65.3537
3592	65.3844
3588	65.3462
3584	65.3376
3580	65.3694
3576	65.4275
3572	65.4392
3568	65.4208
3564	65.3863
3560	65.3342
3556	65.359
3552	65.3974
3548	65.351
3544	65.3127
3540	65.3681
3536	65.5126
3532	65.6385
3528	65.5933
3524	65.4494
3520	65.3649
3516	65.3245
3512	65.3036
3508	65.325
3504	65.3414
3500	65.3399
3496	65.3375
3492	65.3331
3488	65.3426
3484	65.3041
3480	65.1947
3476	65.1021
3472	65.0664
3468	65.0517
3464	65.0746
3460	65.183
3456	65.2959
3452	65.347
3448	65.3808
3444	65.4047
3440	65.3788
3436	65.3301
3432	65.3085
3428	65.3224
3424	65.3397
3420	65.2952
3416	65.2422
3412	65.2646
3408	65.3519
3404	65.3884
3400	65.2625
3396	65.1024
3392	65.0602
3388	65.1409
3384	65.2943
3380	65.3636
3376	65.3018
3372	65.279
3368	65.2828
3364	65.2359
3360	65.2677
3356	65.381
3352	65.412
3348	65.3531
3344	65.3868
3340	65.538
3336	65.5394
3332	65.3354
3328	65.1976
3324	65.2373
3320	65.3278
3316	65.3094
3312	65.1805
3308	65.1262
3304	65.1381
3300	65.1519
3296	65.2583
3292	65.3566
3288	65.3397
3284	65.2706
3280	65.2183
3276	65.2189
3272	65.2249
3268	65.2193
3264	65.2697
3260	65.3625
3256	65.3774
3252	65.3044
3248	65.2558
3244	65.2651
3240	65.3203
3236	65.4126
3232	65.4331
3228	65.4034
3224	65.4617
3220	65.5685
3216	65.6077
3212	65.5063
3208	65.3815
3204	65.339
3200	65.3104
3196	65.2802
3192	65.2608
3188	65.2369
3184	65.1996
3180	65.2041
3176	65.276
3172	65.3551
3168	65.391
3164	65.3867
3160	65.3738
3156	65.3246
3152	65.2646
3148	65.2617
3144	65.3051
3140	65.3352
3136	65.2813
3132	65.1525
3128	65.0707
3124	65.1335
3120	65.2702
3116	65.3476
3112	65.3258
3108	65.3035
3104	65.3563
3100	65.3681
3096	65.3229
3092	65.334
3088	65.289
3084	65.1897
3080	65.2308
3076	65.3688
3072	65.4459
3068	65.3969
3064	65.3549
3060	65.3757
3056	65.35
3052	65.2975
3048	65.2689
3044	65.2318
3040	65.1828
3036	65.1901
3032	65.2755
3028	65.3517
3024	65.3538
3020	65.3535
3016	65.3689
3012	65.3184
3008	65.2447
3004	65.2506
3000	65.3261
2996	65.4175
2992	65.4667
2988	65.4289
2984	65.3488
2980	65.3026
2976	65.3232
2972	65.3598
2968	65.3446
2964	65.2978
2960	65.2606
2956	65.2249
2952	65.1597
2948	65.1167
2944	65.1144
2940	65.1097
2936	65.1788
2932	65.297
2928	65.3471
2924	65.2741
2920	65.1347
2916	65.1136
2912	65.2144
2908	65.2691
2904	65.26
2900	65.28
2896	65.3239
2892	65.334
2888	65.2902
2884	65.2421
2880	65.2618
2876	65.2805
2872	65.2693
2868	65.2894
2864	65.2868
2860	65.2298
2856	65.1811
2852	65.1838
2848	65.2421
2844	65.307
2840	65.3202
2836	65.3257
2832	65.38
2828	65.4366
2824	65.422
2820	65.3589
2816	65.3319
2812	65.3213
2808	65.2909
2804	65.2866
2800	65.3016
2796	65.2879
2792	65.2812
2788	65.2953
2784	65.276
2780	65.2735
2776	65.2914
2772	65.2939
2768	65.3668
2764	65.4587
2760	65.4501
2756	65.4115
2752	65.4147
2748	65.429
2744	65.3923
2740	65.3149
2736	65.3148
2732	65.3739
2728	65.3864
2724	65.3671
2720	65.3777
2716	65.3957
2712	65.3468
2708	65.2475
2704	65.1833
2700	65.1796
2696	65.2201
2692	65.2637
2688	65.2755
2684	65.2706
2680	65.2459
2676	65.253
2672	65.2996
2668	65.3106
2664	65.3337
2660	65.4199
2656	65.4404
2652	65.3911
2648	65.3883
2644	65.4037
2640	65.3682
2636	65.2852
2632	65.2638
2628	65.3116
2624	65.3093
2620	65.2902
2616	65.3319
2612	65.368
2608	65.347
2604	65.3139
2600	65.3294
2596	65.3788
2592	65.3806
2588	65.3527
2584	65.3621
2580	65.3673
2576	65.3291
2572	65.275
2568	65.2532
2564	65.2854
2560	65.2929
2556	65.2724
2552	65.3117
2548	65.3587
2544	65.3532
2540	65.3265
2536	65.2979
2532	65.2937
2528	65.3232
2524	65.3321
2520	65.3278
2516	65.3817
2512	65.4325
2508	65.3814
2504	65.3099
2500	65.3187
2496	65.3565
2492	65.3469
2488	65.3209
2484	65.3066
2480	65.2594
2476	65.2093
2472	65.2332
2468	65.2832
2464	65.3104
2460	65.3627
2456	65.4062
2452	65.3891
2448	65.3618
2444	65.3581
2440	65.3812
2436	65.4238
2432	65.4042
2428	65.3193
2424	65.3378
2420	65.4207
2416	65.4138
2412	65.4165
2408	65.4435
2404	65.3832
2400	65.3318
2396	65.3496
2392	65.3384
2388	65.2676
2384	65.1769
2380	65.1503
2376	65.2146
2372	65.3028
2368	65.363
2364	65.3376
2360	65.2827
2356	65.3148
2352	65.3588
2348	65.3207
2344	65.2644
2340	65.2335
2336	65.2326
2332	65.2825
2328	65.3074
2324	65.2757
2320	65.2627
2316	65.2955
2312	65.3286
2308	65.3052
2304	65.282
2300	65.329
2296	65.3587
2292	65.3243
2288	65.3216
2284	65.3141
2280	65.264
2276	65.2813
2272	65.3533
2268	65.3826
2264	65.3677
2260	65.3402
2256	65.2896
2252	65.2666
2248	65.297
2244	65.3229
2240	65.36
2236	65.3686
2232	65.3159
2228	65.3002
2224	65.3282
2220	65.3433
2216	65.3041
2212	65.261
2208	65.295
2204	65.3635
2200	65.4305
2196	65.4489
2192	65.4107
2188	65.4075
2184	65.4264
2180	65.3954
2176	65.3398
2172	65.3123
2168	65.3332
2164	65.3255
2160	65.2305
2156	65.1459
2152	65.1409
2148	65.1821
2144	65.2579
2140	65.338
2136	65.3457
2132	65.3051
2128	65.3057
2124	65.351
2120	65.4009
2116	65.4292
2112	65.4196
2108	65.3954
2104	65.3849
2100	65.3456
2096	65.2607
2092	65.233
2088	65.2903
2084	65.3107
2080	65.2912
2076	65.3262
2072	65.3987
2068	65.4429
2064	65.442
2060	65.4322
2056	65.4275
2052	65.3894
2048	65.3309
2044	65.2894
2040	65.2819
2036	65.3134
2032	65.3276
2028	65.3297
2024	65.3614
2020	65.3712
2016	65.3363
2012	65.3097
2008	65.3337
2004	65.3699
2000	65.322
1996	65.2295
1992	65.2732
1988	65.4087
1984	65.4355
1980	65.3948
1976	65.3923
1972	65.386
1968	65.3287
1964	65.2812
1960	65.3184
1956	65.3862
1952	65.3895
1948	65.3398
1944	65.3016
1940	65.308
1936	65.3485
1932	65.376
1928	65.3473
1924	65.3083
1920	65.3383
1916	65.3737
1912	65.3439
1908	65.3226
1904	65.3267
1900	65.2694
1896	65.2136
1892	65.2738
1888	65.3608
1884	65.3636
1880	65.3285
1876	65.2887
1872	65.2334
1868	65.2305
1864	65.2646
1860	65.2812
1856	65.3003
1852	65.2876
1848	65.2685
1844	65.3203
1840	65.3606
1836	65.3146
1832	65.2441
1828	65.2085
1824	65.2487
1820	65.3366
1816	65.3532
1812	65.2765
1808	65.2005
1804	65.181
1800	65.1996
1796	65.2204
1792	65.2507
1788	65.2949
1784	65.321
1780	65.3127
1776	65.2724
1772	65.2375
1768	65.2368
1764	65.2239
1760	65.1995
1756	65.2585
1752	65.338
1748	65.2687
1744	65.1479
1740	65.1174
1736	65.114
1732	65.0989
1728	65.1237
1724	65.159
1720	65.107
1716	65.078
1712	65.1771
1708	65.2488
1704	65.2757
1700	65.2841
1696	65.2124
1692	65.1648
1688	65.1826
1684	65.1953
1680	65.1624
1676	65.1205
1672	65.1594
1668	65.2244
1664	65.2114
1660	65.1944
1656	65.3028
1652	65.4251
1648	65.3781
1644	65.2442
1640	65.1988
1636	65.2674
1632	65.3194
1628	65.2924
1624	65.2613
1620	65.2669
1616	65.3057
1612	65.3118
1608	65.2793
1604	65.2916
1600	65.3174
1596	65.3161
1592	65.339
1588	65.3761
1584	65.3795
1580	65.3662
1576	65.3036
1572	65.2149
1568	65.2549
1564	65.4144
1560	65.5309
1556	65.4925
1552	65.3671
1548	65.2479
1544	65.1519
1540	65.1321
1536	65.2075
1532	65.2579
1528	65.2399
1524	65.2905
1520	65.356
1516	65.3438
1512	65.3513
1508	65.359
1504	65.3076
1500	65.2867
1496	65.3127
1492	65.2734
1488	65.204
1484	65.1972
1480	65.2188
1476	65.2567
1472	65.3304
1468	65.3329
1464	65.2804
1460	65.3123
1456	65.3224
1452	65.2278
1448	65.1953
1444	65.2294
1440	65.2452
1436	65.2392
1432	65.2059
1428	65.2178
1424	65.2434
1420	65.2147
1416	65.1682
1412	65.1267
1408	65.1406
1404	65.2522
1400	65.3573
1396	65.3384
1392	65.2857
1388	65.2534
1384	65.194
1380	65.1812
1376	65.2385
1372	65.2692
1368	65.2345
1364	65.2003
1360	65.2095
1356	65.1967
1352	65.1618
1348	65.1548
1344	65.1652
1340	65.1831
1336	65.2007
1332	65.1982
1328	65.1794
1324	65.166
1320	65.1649
1316	65.1978
1312	65.215
1308	65.1851
1304	65.1814
1300	65.2009
1296	65.2097
1292	65.2178
1288	65.21
1284	65.1891
1280	65.1622
1276	65.0966
1272	65.039
1268	65.0605
1264	65.1166
1260	65.1501
1256	65.1732
1252	65.2036
1248	65.2114
1244	65.1997
1240	65.217
1236	65.2739
1232	65.3146
1228	65.2834
1224	65.2167
1220	65.1656
1216	65.1784
1212	65.2603
1208	65.2853
1204	65.1896
1200	65.0764
1196	65.043
1192	65.0999
1188	65.1524
1184	65.137
1180	65.1222
1176	65.1377
1172	65.15
1168	65.142
1164	65.1508
1160	65.1737
1156	65.1339
1152	65.1049
1148	65.1312
1144	65.1323
1140	65.1048
1136	65.0352
1132	64.9975
1128	65.0662
1124	65.1426
1120	65.1376
1116	65.0434
1112	64.9312
1108	64.9272
1104	64.9947
1100	65.0451
1096	65.0814
1092	65.1031
1088	65.1263
1084	65.1282
1080	64.9723
1076	64.8076
1072	64.9279
1068	65.1194
1064	65.1131
1060	65.0698
1056	65.107
1052	65.1007
1048	65.0553
1044	65.1084
1040	65.2177
1036	65.2077
1032	65.0577
1028	64.9903
1024	65.0636
1020	65.0924
1016	65.0641
1012	65.0806
1008	65.1185
1004	65.1343
1000	65.14
996	 65.1383
992	 65.1553
988	 65.2026
984	 65.2866
980	 65.3852
976	 65.3739
972	 65.295
968	 65.238
964	 65.1841
960	 65.1506
956	 65.0982
952	 65.0094
948	 65.0038
944	 65.1084
940	 65.1594
936	 65.1147
932	 65.1081
928	 65.1784
924	 65.2155
920	 65.1946
916	 65.1963
912	 65.2152
908	 65.2381
904	 65.2749
900	 65.3038
896	 65.37
892	 65.4284
888	 65.3191
884	 65.2104
880	 65.2253
876	 65.2353
872	 65.272
868	 65.3093
864	 65.3388
860	 65.3596
856	 65.3054
852	 65.2667
848	 65.3303
844	 65.4233
840	 65.4856
836	 65.5508
832	 65.6443
828	 65.672
824	 65.5743
820	 65.4682
816	 65.4051
812	 65.3665
808	 65.337
804	 65.3184
800	 65.3262
796	 65.2924
792	 65.3349
788	 65.5054
784	 65.4879
780	 65.4008
776	 65.5585
772	 65.6795
768	 65.5928
764	 65.5307
760	 65.5328
756	 65.5108
752	 65.4274
748	 65.2879
744	 65.3271
740	 65.5587
736	 65.6087
732	 65.5066
728	 65.425
724	 65.3884
720	 65.5001
716	 65.5789
712	 65.4697
708	 65.4265
704	 65.4102
700	 65.2915
696	 65.3005
692	 65.4454
688	 65.5216
684	 65.5327
680	 65.5845
676	 65.597
672	 65.4613
668	 65.3591
664	 65.4117
660	 65.4857
656	 65.4972
652	 65.4424
648	 65.4351
644	 65.4053
640	 65.2834
636	 65.3042
632	 65.3603
628	 65.3183
624	 65.3715
620	 65.5658
616	 65.7369
612	 65.6813
608	 65.5651
604	 65.6062
600	 65.4984
596	 65.3096
592	 65.4718
588	 65.5743
584	 65.2864
580	 65.188
576	 65.4608
572	 65.5831
568	 65.4095
564	 65.329
560	 65.3824
556	 65.4709
552	 65.6529
548	 65.7514
544	 65.6317
540	 65.3503
536	 65.2807
532	 65.4814
528	 65.5773
524	 65.6832
520	 65.9745
516	 66.2183
512	 66.3246
508	 66.4128
504	 66.2426
500	 65.8758
496	 65.8759
492	 65.987
488	 65.9241
484	 65.7123
480	 65.37
476	 65.3213
472	 65.6067
468	 65.5644
464	 65.2282
460	 65.1457
456	 65.274
452	 65.7817
448	 66.7282
444	 66.6145
440	 66.1662
436	 66.6419
432	 66.5558
428	 66.7418
424	 70.0019
420	 74.4699
416	 75.2825
412	 71.6695
408	 68.1729
404	 69.3506
400	 72.965
396	 73.8167
392	 70.7062
388	 64.2103
384	 44.5231
380	 38.5561
376	 3.834056
372	 46.0555
370	 5.106735