File: Bakgrunnsmateriale/MATLAB/FTIR/ftir_data/subCa/Mapping_25/BZ12041010-4_t23_cm-1.asc
PE IR       SPECTRUM    SPECTRUM    ASCII       PEDS        1.60
  -1
BZAC7F~1.ASC
17/04/10
10:53:47.00
17/04/10
10:53:47.00
tln
$BZ12041010-4_t0023$<tbV0>[0.0,-2.0,9.0,0.0,22,1,0]
370
64

2002,4.07
MIRTGS : RIGHTBACK : INTERNAL 2
MIR : ON : INTERNAL 2
OPTKBR

0.200000
8
8.000000
FILLER
RATIO
SPECTRUM
UNLOCKED 256

DOUBLE
64
COMBINED
1
0
0

1.000000
RATIO

1
0
TRUE
51149
0
LEFT NOT FITTED RIGHT NOT FITTED 0
NONE
NONE
15600
12
4.427000
51148
TRUE
1 0 8 72 0 0 0 0

15798

#HDR
-1
-1
#GR
CM-1
%T
2.38419e-05
0.0
5000
-1.000000
4631
8
72.8381
31.8898
#DATA
5000	56.2025
4996	56.3342
4992	56.5345
4988	56.4939
4984	56.3647
4980	56.3878
4976	56.5008
4972	56.5647
4968	56.3985
4964	56.104
4960	55.8629
4956	55.6427
4952	55.5952
4948	55.8031
4944	56.0699
4940	56.1801
4936	56.087
4932	55.9949
4928	56.1567
4924	56.3076
4920	56.3025
4916	56.4407
4912	56.42
4908	55.9118
4904	55.3689
4900	55.7494
4896	56.5651
4892	55.9793
4888	53.9048
4884	52.6144
4880	54.2114
4876	56.8015
4872	57.4169
4868	57.1534
4864	57.7748
4860	58.285
4856	57.6563
4852	56.7867
4848	56.4914
4844	56.3575
4840	56.6111
4836	57.3356
4832	57.327
4828	56.8227
4824	56.7541
4820	56.6796
4816	56.6863
4812	56.9634
4808	56.8238
4804	56.4003
4800	56.5111
4796	57.1939
4792	57.5704
4788	57.0302
4784	56.1254
4780	55.7959
4776	56.0125
4772	56.2988
4768	56.4604
4764	56.3567
4760	56.3879
4756	56.5397
4752	56.5079
4748	56.4373
4744	56.4061
4740	56.4239
4736	56.5059
4732	56.6007
4728	56.5728
4724	56.5258
4720	56.5598
4716	56.6277
4712	56.5342
4708	56.2133
4704	56.1411
4700	56.4082
4696	56.6368
4692	56.7128
4688	56.5909
4684	56.5104
4680	56.6365
4676	56.7418
4672	56.8085
4668	56.8085
4664	56.6836
4660	56.6371
4656	56.7345
4652	56.7448
4648	56.6786
4644	56.6553
4640	56.6227
4636	56.5428
4632	56.4509
4628	56.4561
4624	56.6264
4620	56.8413
4616	56.9435
4612	56.8989
4608	56.6328
4604	56.3483
4600	56.4513
4596	56.8341
4592	57.0243
4588	56.8992
4584	56.8374
4580	56.8333
4576	56.5769
4572	56.214
4568	56.1372
4564	56.4916
4560	56.8039
4556	56.7313
4552	56.6092
4548	56.6262
4544	56.6987
4540	56.6701
4536	56.5353
4532	56.6288
4528	56.901
4524	56.8548
4520	56.6483
4516	56.6838
4512	56.8482
4508	56.8744
4504	56.7594
4500	56.5745
4496	56.468
4492	56.5035
4488	56.5881
4484	56.4881
4480	55.6993
4476	54.7199
4472	54.4241
4468	50.775
4464	43.9725
4460	43.5845
4456	56.327
4452	68.8372
4448	64.9878
4444	57.8205
4440	56.538
4436	56.5912
4432	56.7499
4428	56.9332
4424	56.9597
4420	56.7702
4416	56.4888
4412	56.4947
4408	56.3815
4404	56.1723
4400	56.2841
4396	56.7378
4392	57.1838
4388	57.1952
4384	56.9184
4380	56.8192
4376	56.9158
4372	57.0845
4368	57.1611
4364	56.996
4360	56.8281
4356	56.7943
4352	56.8461
4348	56.9147
4344	56.7884
4340	56.6832
4336	56.8141
4332	56.9533
4328	56.9269
4324	56.841
4320	56.8758
4316	56.927
4312	56.9111
4308	56.8542
4304	56.6885
4300	56.4958
4296	56.4666
4292	56.6458
4288	56.8066
4284	56.8486
4280	56.8501
4276	56.7986
4272	56.8148
4268	56.8871
4264	56.9748
4260	57.0952
4256	57.0902
4252	56.883
4248	56.6548
4244	56.5755
4240	56.5436
4236	56.5172
4232	56.5886
4228	56.6739
4224	56.6873
4220	56.6555
4216	56.6149
4212	56.5677
4208	56.5207
4204	56.5224
4200	56.4245
4196	56.3235
4192	56.4335
4188	56.5721
4184	56.5724
4180	56.4801
4176	56.3688
4172	56.2676
4168	56.3034
4164	56.4467
4160	56.4692
4156	56.4451
4152	56.4845
4148	56.3674
4144	56.219
4140	56.2714
4136	56.394
4132	56.5024
4128	56.5256
4124	56.5427
4120	56.6993
4116	56.7967
4112	56.7608
4108	56.8178
4104	56.9245
4100	56.8099
4096	56.5493
4092	56.4786
4088	56.6465
4084	56.8069
4080	56.8182
4076	56.8913
4072	57.1368
4068	57.196
4064	56.995
4060	56.8093
4056	56.8125
4052	56.9386
4048	56.9805
4044	57.0254
4040	57.0844
4036	57.0534
4032	56.9892
4028	56.8408
4024	56.6698
4020	56.6724
4016	56.7178
4012	56.6255
4008	56.5873
4004	56.709
4000	56.7456
3996	56.6659
3992	56.6653
3988	56.7141
3984	56.7282
3980	56.7431
3976	56.7293
3972	56.6121
3968	56.5134
3964	56.5368
3960	56.6266
3956	56.6288
3952	56.4751
3948	56.4195
3944	56.5265
3940	56.5969
3936	56.5087
3932	56.3791
3928	56.4464
3924	56.5541
3920	56.5223
3916	56.5409
3912	56.6998
3908	56.7994
3904	56.7485
3900	56.6657
3896	56.6416
3892	56.7189
3888	56.7584
3884	56.6946
3880	56.6779
3876	56.7368
3872	56.7632
3868	56.6931
3864	56.645
3860	56.7173
3856	56.8249
3852	56.87
3848	56.8733
3844	56.8383
3840	56.7549
3836	56.7328
3832	56.7674
3828	56.8055
3824	56.8839
3820	56.91
3816	56.8079
3812	56.7188
3808	56.7056
3804	56.7616
3800	56.9107
3796	57.0334
3792	57.042
3788	56.9995
3784	56.9824
3780	56.9518
3776	56.8624
3772	56.7983
3768	56.7735
3764	56.7838
3760	56.8282
3756	56.8248
3752	56.7665
3748	56.7309
3744	56.7664
3740	56.828
3736	56.829
3732	56.8167
3728	56.7831
3724	56.7367
3720	56.8335
3716	56.9078
3712	56.7812
3708	56.6094
3704	56.5103
3700	56.5722
3696	56.717
3692	56.7736
3688	56.8008
3684	56.851
3680	56.8522
3676	56.7715
3672	56.7133
3668	56.6918
3664	56.6746
3660	56.6985
3656	56.7128
3652	56.7137
3648	56.6937
3644	56.6312
3640	56.606
3636	56.6706
3632	56.7777
3628	56.9234
3624	57.03
3620	57.0125
3616	56.9674
3612	56.9371
3608	56.8639
3604	56.7859
3600	56.7837
3596	56.7701
3592	56.7328
3588	56.7889
3584	56.8614
3580	56.8383
3576	56.8016
3572	56.7895
3568	56.7863
3564	56.854
3560	56.8802
3556	56.794
3552	56.7619
3548	56.7864
3544	56.7221
3540	56.6244
3536	56.6381
3532	56.6986
3528	56.6812
3524	56.6242
3520	56.5711
3516	56.4636
3512	56.3783
3508	56.4413
3504	56.5743
3500	56.6208
3496	56.4994
3492	56.354
3488	56.3378
3484	56.3819
3480	56.4047
3476	56.4084
3472	56.426
3468	56.4512
3464	56.5021
3460	56.5434
3456	56.5083
3452	56.4819
3448	56.5081
3444	56.4821
3440	56.3887
3436	56.3425
3432	56.3597
3428	56.4281
3424	56.4889
3420	56.487
3416	56.4982
3412	56.5195
3408	56.5316
3404	56.5398
3400	56.5009
3396	56.446
3392	56.4836
3388	56.5644
3384	56.5461
3380	56.4785
3376	56.4602
3372	56.49
3368	56.4813
3364	56.4138
3360	56.4561
3356	56.6261
3352	56.7244
3348	56.7213
3344	56.6838
3340	56.6397
3336	56.6099
3332	56.5495
3328	56.4671
3324	56.4553
3320	56.5649
3316	56.6837
3312	56.6954
3308	56.6995
3304	56.7229
3300	56.6386
3296	56.5007
3292	56.4422
3288	56.4572
3284	56.4987
3280	56.5524
3276	56.6125
3272	56.6562
3268	56.6695
3264	56.6471
3260	56.6383
3256	56.6605
3252	56.6174
3248	56.5107
3244	56.4784
3240	56.5466
3236	56.6115
3232	56.6568
3228	56.7011
3224	56.6571
3220	56.5538
3216	56.5048
3212	56.4714
3208	56.4508
3204	56.4855
3200	56.5295
3196	56.5505
3192	56.5484
3188	56.5037
3184	56.4894
3180	56.5802
3176	56.6561
3172	56.6647
3168	56.655
3164	56.5892
3160	56.4982
3156	56.5202
3152	56.6393
3148	56.6829
3144	56.6264
3140	56.5977
3136	56.6242
3132	56.665
3128	56.7403
3124	56.8245
3120	56.8232
3116	56.7639
3112	56.7261
3108	56.7221
3104	56.7508
3100	56.7105
3096	56.6779
3092	56.8049
3088	56.9064
3084	56.8787
3080	56.7984
3076	56.7584
3072	56.8336
3068	56.9141
3064	56.8754
3060	56.7566
3056	56.6856
3052	56.7042
3048	56.7199
3044	56.7326
3040	56.7782
3036	56.7321
3032	56.6419
3028	56.6959
3024	56.7852
3020	56.785
3016	56.7422
3012	56.6781
3008	56.6566
3004	56.6848
3000	56.6715
2996	56.6527
2992	56.6826
2988	56.7204
2984	56.7309
2980	56.6849
2976	56.6222
2972	56.5938
2968	56.5552
2964	56.5046
2960	56.4992
2956	56.5236
2952	56.5358
2948	56.5356
2944	56.4818
2940	56.396
2936	56.3924
2932	56.4788
2928	56.576
2924	56.6206
2920	56.5747
2916	56.4612
2912	56.4032
2908	56.4538
2904	56.5106
2900	56.5118
2896	56.4858
2892	56.4823
2888	56.4987
2884	56.5205
2880	56.513
2876	56.4661
2872	56.4736
2868	56.5596
2864	56.6472
2860	56.6684
2856	56.636
2852	56.6224
2848	56.6266
2844	56.6371
2840	56.7225
2836	56.828
2832	56.8511
2828	56.8572
2824	56.9041
2820	56.9385
2816	56.9155
2812	56.8568
2808	56.8367
2804	56.8538
2800	56.8676
2796	56.8942
2792	56.897
2788	56.8701
2784	56.8927
2780	56.9158
2776	56.8551
2772	56.7979
2768	56.7964
2764	56.8172
2760	56.8143
2756	56.768
2752	56.771
2748	56.8177
2744	56.8063
2740	56.7552
2736	56.7298
2732	56.6887
2728	56.6307
2724	56.6494
2720	56.6954
2716	56.6869
2712	56.643
2708	56.5814
2704	56.5889
2700	56.6838
2696	56.7134
2692	56.6558
2688	56.6216
2684	56.6572
2680	56.7226
2676	56.7247
2672	56.6528
2668	56.6033
2664	56.6134
2660	56.6472
2656	56.6949
2652	56.7487
2648	56.7681
2644	56.6996
2640	56.628
2636	56.6939
2632	56.773
2628	56.7876
2624	56.847
2620	56.8749
2616	56.824
2612	56.8282
2608	56.9063
2604	56.9387
2600	56.8957
2596	56.8545
2592	56.8866
2588	56.9375
2584	56.9051
2580	56.8464
2576	56.8408
2572	56.8351
2568	56.8149
2564	56.8309
2560	56.8495
2556	56.8438
2552	56.8762
2548	56.9418
2544	56.9763
2540	56.9753
2536	56.9554
2532	56.9216
2528	56.8607
2524	56.8071
2520	56.8291
2516	56.8828
2512	56.8665
2508	56.7791
2504	56.7231
2500	56.7309
2496	56.7313
2492	56.7322
2488	56.7493
2484	56.7755
2480	56.8247
2476	56.8598
2472	56.8652
2468	56.8646
2464	56.8457
2460	56.7966
2456	56.7654
2452	56.7724
2448	56.8072
2444	56.8424
2440	56.8314
2436	56.8121
2432	56.8229
2428	56.8399
2424	56.8552
2420	56.875
2416	56.8988
2412	56.8798
2408	56.8152
2404	56.7569
2400	56.744
2396	56.7837
2392	56.7949
2388	56.778
2384	56.8033
2380	56.8271
2376	56.7918
2372	56.7507
2368	56.7909
2364	56.8568
2360	56.8498
2356	56.8295
2352	56.8507
2348	56.8835
2344	56.8972
2340	56.8328
2336	56.744
2332	56.7275
2328	56.7525
2324	56.8134
2320	56.8909
2316	56.9021
2312	56.873
2308	56.875
2304	56.8816
2300	56.8771
2296	56.8662
2292	56.8078
2288	56.749
2284	56.7539
2280	56.7721
2276	56.7599
2272	56.7602
2268	56.7842
2264	56.7908
2260	56.7834
2256	56.7764
2252	56.7808
2248	56.8068
2244	56.8107
2240	56.7815
2236	56.7816
2232	56.8043
2228	56.7998
2224	56.7417
2220	56.6756
2216	56.6655
2212	56.6741
2208	56.683
2204	56.6904
2200	56.6574
2196	56.6392
2192	56.6588
2188	56.6392
2184	56.6448
2180	56.7153
2176	56.752
2172	56.7255
2168	56.6706
2164	56.6489
2160	56.6546
2156	56.6763
2152	56.7463
2148	56.8267
2144	56.8524
2140	56.795
2136	56.7321
2132	56.7478
2128	56.7622
2124	56.7609
2120	56.7968
2116	56.7878
2112	56.7571
2108	56.7944
2104	56.8265
2100	56.8215
2096	56.8193
2092	56.8192
2088	56.839
2084	56.873
2080	56.8475
2076	56.7806
2072	56.7542
2068	56.7368
2064	56.7249
2060	56.7422
2056	56.765
2052	56.8169
2048	56.8684
2044	56.8605
2040	56.8051
2036	56.7513
2032	56.7494
2028	56.767
2024	56.7344
2020	56.7058
2016	56.7285
2012	56.7291
2008	56.6916
2004	56.6657
2000	56.6616
1996	56.6683
1992	56.6799
1988	56.6654
1984	56.6078
1980	56.5548
1976	56.5706
1972	56.6382
1968	56.6603
1964	56.6239
1960	56.5859
1956	56.5635
1952	56.5861
1948	56.6298
1944	56.6402
1940	56.6302
1936	56.6004
1932	56.5578
1928	56.5703
1924	56.6354
1920	56.6281
1916	56.5595
1912	56.5734
1908	56.635
1904	56.6488
1900	56.618
1896	56.5856
1892	56.6206
1888	56.6825
1884	56.6936
1880	56.6933
1876	56.6924
1872	56.6484
1868	56.5935
1864	56.5788
1860	56.581
1856	56.5875
1852	56.5869
1848	56.5716
1844	56.5984
1840	56.6576
1836	56.6846
1832	56.6739
1828	56.6721
1824	56.7014
1820	56.749
1816	56.7827
1812	56.7506
1808	56.7026
1804	56.7128
1800	56.716
1796	56.6792
1792	56.652
1788	56.6415
1784	56.6426
1780	56.6465
1776	56.6296
1772	56.5692
1768	56.5196
1764	56.5504
1760	56.5497
1756	56.4687
1752	56.4173
1748	56.3736
1744	56.3328
1740	56.3632
1736	56.3658
1732	56.3222
1728	56.3353
1724	56.3637
1720	56.3555
1716	56.3343
1712	56.298
1708	56.2801
1704	56.3472
1700	56.423
1696	56.4377
1692	56.4251
1688	56.4077
1684	56.3836
1680	56.3549
1676	56.3046
1672	56.2694
1668	56.2995
1664	56.3449
1660	56.3965
1656	56.4488
1652	56.4661
1648	56.4604
1644	56.4525
1640	56.4822
1636	56.5565
1632	56.6161
1628	56.6023
1624	56.5631
1620	56.5597
1616	56.5657
1612	56.5765
1608	56.5685
1604	56.5252
1600	56.4867
1596	56.4612
1592	56.4912
1588	56.5902
1584	56.6114
1580	56.539
1576	56.5251
1572	56.5247
1568	56.4829
1564	56.5187
1560	56.5893
1556	56.5418
1552	56.4681
1548	56.5318
1544	56.6378
1540	56.6373
1536	56.5818
1532	56.5819
1528	56.609
1524	56.6011
1520	56.5655
1516	56.5238
1512	56.5243
1508	56.5395
1504	56.477
1500	56.3895
1496	56.3534
1492	56.3748
1488	56.4709
1484	56.5349
1480	56.5277
1476	56.497
1472	56.4674
1468	56.4753
1464	56.4826
1460	56.505
1456	56.5357
1452	56.4924
1448	56.4124
1444	56.3684
1440	56.3847
1436	56.4367
1432	56.4188
1428	56.3398
1424	56.3087
1420	56.333
1416	56.3812
1412	56.384
1408	56.3273
1404	56.3349
1400	56.3981
1396	56.3843
1392	56.3461
1388	56.3848
1384	56.4108
1380	56.3724
1376	56.3502
1372	56.3403
1368	56.3341
1364	56.3528
1360	56.3631
1356	56.3736
1352	56.4409
1348	56.5108
1344	56.4914
1340	56.3992
1336	56.3273
1332	56.32
1328	56.2856
1324	56.2185
1320	56.2159
1316	56.2638
1312	56.2757
1308	56.2388
1304	56.2766
1300	56.3422
1296	56.299
1292	56.2586
1288	56.2771
1284	56.2972
1280	56.305
1276	56.3164
1272	56.3591
1268	56.3782
1264	56.3206
1260	56.2376
1256	56.1813
1252	56.1685
1248	56.2055
1244	56.2943
1240	56.3925
1236	56.4446
1232	56.4331
1228	56.4042
1224	56.4413
1220	56.4522
1216	56.3567
1212	56.3413
1208	56.414
1204	56.4466
1200	56.4729
1196	56.4857
1192	56.4836
1188	56.4687
1184	56.447
1180	56.4409
1176	56.4091
1172	56.3812
1168	56.3427
1164	56.2439
1160	56.1633
1156	56.1551
1152	56.1563
1148	56.1578
1144	56.1973
1140	56.2545
1136	56.4071
1132	56.601
1128	56.6848
1124	56.6583
1120	56.5425
1116	56.3793
1112	56.281
1108	56.3158
1104	56.391
1100	56.4053
1096	56.3907
1092	56.4064
1088	56.4348
1084	56.4164
1080	56.3427
1076	56.2746
1072	56.213
1068	56.0861
1064	55.9653
1060	55.995
1056	56.0786
1052	56.0663
1048	55.999
1044	55.9527
1040	55.9521
1036	56.0084
1032	56.0847
1028	56.0558
1024	55.9224
1020	55.8387
1016	55.8404
1012	55.8738
1008	55.9324
1004	56.0174
1000	56.094
996	 56.0819
992	 55.9967
988	 55.9591
984	 55.9225
980	 55.8554
976	 55.8971
972	 56.0236
968	 56.0889
964	 56.0714
960	 55.9769
956	 55.8602
952	 55.9521
948	 56.1928
944	 56.3288
940	 56.38
936	 56.3438
932	 56.2516
928	 56.2495
924	 56.26
920	 56.2183
916	 56.2245
912	 56.2899
908	 56.2965
904	 56.1919
900	 56.1386
896	 56.2075
892	 56.2643
888	 56.2406
884	 56.2495
880	 56.4049
876	 56.5438
872	 56.497
868	 56.4381
864	 56.448
860	 56.4131
856	 56.3638
852	 56.3539
848	 56.3743
844	 56.3817
840	 56.3349
836	 56.2893
832	 56.3079
828	 56.3504
824	 56.3498
820	 56.3907
816	 56.4949
812	 56.5333
808	 56.5329
804	 56.5298
800	 56.5168
796	 56.5448
792	 56.5537
788	 56.5007
784	 56.3908
780	 56.2859
776	 56.2922
772	 56.334
768	 56.3499
764	 56.3545
760	 56.3515
756	 56.404
752	 56.4505
748	 56.4369
744	 56.443
740	 56.4987
736	 56.55
732	 56.6021
728	 56.6078
724	 56.4773
720	 56.5036
716	 56.7506
712	 56.8158
708	 56.5911
704	 56.4239
700	 56.4692
696	 56.5001
692	 56.5677
688	 56.694
684	 56.7296
680	 56.7293
676	 56.6795
672	 56.5564
668	 56.449
664	 56.4228
660	 56.4736
656	 56.4501
652	 56.3391
648	 56.3669
644	 56.5009
640	 56.4901
636	 56.2959
632	 56.1721
628	 56.4054
624	 56.7745
620	 56.8593
616	 56.618
612	 56.2835
608	 56.1618
604	 56.2171
600	 56.2182
596	 56.2229
592	 56.3982
588	 56.603
584	 56.635
580	 56.6122
576	 56.4658
572	 56.321
568	 56.6515
564	 57.133
560	 57.0421
556	 56.6015
552	 56.4136
548	 56.4367
544	 56.5632
540	 56.7266
536	 56.7296
532	 56.6356
528	 56.776
524	 57.0722
520	 57.1454
516	 56.866
512	 56.2406
508	 55.8021
504	 56.0704
500	 56.3631
496	 56.0406
492	 55.8536
488	 56.2213
484	 56.4696
480	 56.7731
476	 57.5194
472	 57.5575
468	 56.9521
464	 56.9594
460	 56.8461
456	 56.0554
452	 55.2546
448	 55.214
444	 56.2091
440	 56.6628
436	 55.1664
432	 50.8106
428	 46.463
424	 48.2119
420	 50.7418
416	 49.1862
412	 52.6416
408	 59.7108
404	 65.321
400	 71.622
396	 70.8271
392	 61.7734
388	 57.4951
384	 50.4466
380	 37.943
376	 31.9218
372	 36.0424
370	 43.3511