File: Bakgrunnsmateriale/MATLAB/FTIR/ftir_data/subCa/Mapping_25/BZ12041010-4_t22_cm-1.asc
PE IR       SPECTRUM    SPECTRUM    ASCII       PEDS        1.60
  -1
BZACF1~1.ASC
17/04/10
10:49:10.00
17/04/10
10:49:10.00
tln
$BZ12041010-4_t0022$<tbV0>[2.6,-2.0,9.0,0.0,22,1,0]
370
64

2002,4.07
MIRTGS : RIGHTBACK : INTERNAL 2
MIR : ON : INTERNAL 2
OPTKBR

0.200000
8
8.000000
FILLER
RATIO
SPECTRUM
UNLOCKED 256

DOUBLE
64
COMBINED
1
0
0

1.000000
RATIO

1
0
TRUE
51149
0
LEFT NOT FITTED RIGHT NOT FITTED 0
NONE
NONE
15600
12
4.427000
51148
TRUE
1 0 8 72 0 0 0 0

15798

#HDR
-1
-1
#GR
CM-1
%T
2.38419e-05
0.0
5000
-1.000000
4631
8
71.926
22.5837
#DATA
5000	54.9497
4996	54.6414
4992	54.4861
4988	54.5337
4984	54.713
4980	54.9906
4976	55.0709
4972	54.9602
4968	54.9979
4964	55.1042
4960	54.9927
4956	55.0039
4952	55.3034
4948	55.4502
4944	55.2747
4940	54.9112
4936	54.9037
4932	55.5349
4928	56.1471
4924	56.3018
4920	56.0336
4916	55.3317
4912	54.9737
4908	55.2113
4904	54.8994
4900	54.5304
4896	54.9244
4892	54.8745
4888	53.7942
4884	53.1743
4880	53.6586
4876	54.58
4872	55.8543
4868	56.4509
4864	56.0341
4860	55.5928
4856	55.7621
4852	55.91
4848	55.3042
4844	55.3565
4840	56.295
4836	56.7175
4832	56.2713
4828	55.763
4824	55.5945
4820	55.457
4816	55.4849
4812	55.4652
4808	55.2053
4804	55.171
4800	55.3067
4796	55.5249
4792	55.5997
4788	55.1527
4784	54.6921
4780	54.6979
4776	54.9607
4772	55.2906
4768	55.3732
4764	54.9264
4760	54.4959
4756	54.386
4752	54.5015
4748	54.8593
4744	55.1317
4740	55.1749
4736	55.3543
4732	55.4054
4728	55.0755
4724	54.9653
4720	55.0916
4716	55.1245
4712	55.0154
4708	54.928
4704	54.9301
4700	54.8254
4696	54.8281
4692	54.9986
4688	54.9576
4684	54.866
4680	54.924
4676	54.9184
4672	54.8604
4668	54.7855
4664	54.802
4660	54.9531
4656	54.9879
4652	54.9997
4648	55.2897
4644	55.7022
4640	55.8765
4636	55.7706
4632	55.6137
4628	55.5509
4624	55.5149
4620	55.4917
4616	55.4714
4612	55.3346
4608	55.1032
4604	54.9712
4600	55.0632
4596	55.3684
4592	55.716
4588	55.8357
4584	55.7248
4580	55.5505
4576	55.4143
4572	55.3942
4568	55.4949
4564	55.5675
4560	55.5794
4556	55.7324
4552	55.8156
4548	55.6155
4544	55.5619
4540	55.6344
4536	55.4453
4532	55.1077
4528	54.8947
4524	55.0709
4520	55.4487
4516	55.534
4512	55.3665
4508	55.2111
4504	55.1372
4500	55.3391
4496	55.7195
4492	55.8833
4488	55.873
4484	56.086
4480	56.0684
4476	55.8867
4472	55.5556
4468	51.4766
4464	42.0097
4460	33.1565
4456	38.0009
4452	55.7841
4448	61.0455
4444	57.141
4440	56.438
4436	56.5351
4432	56.4508
4428	56.0288
4424	55.4522
4420	55.2336
4416	55.6025
4412	55.9486
4408	55.874
4404	55.7532
4400	55.4796
4396	55.3156
4392	55.5478
4388	55.9234
4384	56.0535
4380	55.8382
4376	55.7025
4372	55.7947
4368	55.8021
4364	55.6648
4360	55.5194
4356	55.5248
4352	55.6405
4348	55.572
4344	55.478
4340	55.6553
4336	55.7734
4332	55.7361
4328	55.7057
4324	55.5691
4320	55.4297
4316	55.4197
4312	55.5118
4308	55.5443
4304	55.4268
4300	55.3885
4296	55.4652
4292	55.4706
4288	55.5459
4284	55.7555
4280	55.7566
4276	55.601
4272	55.6365
4268	55.69
4264	55.5367
4260	55.4114
4256	55.3726
4252	55.2117
4248	55.0247
4244	55.0158
4240	55.0143
4236	54.9458
4232	54.9586
4228	55.0353
4224	55.1284
4220	55.1393
4216	55.118
4212	55.1069
4208	54.9953
4204	54.9742
4200	55.0262
4196	54.9605
4192	54.9582
4188	55.0349
4184	55.0212
4180	54.9824
4176	55.0651
4172	55.2006
4168	55.1139
4164	54.8515
4160	54.7652
4156	54.9103
4152	55.0849
4148	55.1354
4144	55.0255
4140	54.808
4136	54.7278
4132	54.8334
4128	54.9538
4124	55.09
4120	55.1897
4116	55.1656
4112	55.0351
4108	54.9686
4104	55.0383
4100	55.0585
4096	55.014
4092	55.0285
4088	55.0708
4084	55.1362
4080	55.2214
4076	55.3113
4072	55.448
4068	55.5652
4064	55.5192
4060	55.3632
4056	55.371
4052	55.4347
4048	55.2792
4044	55.1232
4040	55.1914
4036	55.4041
4032	55.6075
4028	55.5951
4024	55.2939
4020	55.062
4016	55.1245
4012	55.2088
4008	55.173
4004	55.1026
4000	55.0918
3996	55.1462
3992	55.1528
3988	55.1021
3984	55.0484
3980	55.0556
3976	55.1032
3972	55.0789
3968	55.0062
3964	54.9251
3960	54.8975
3956	54.9443
3952	54.9959
3948	55.094
3944	55.148
3940	55.0552
3936	55.0096
3932	55.1239
3928	55.2713
3924	55.3316
3920	55.2315
3916	55.0594
3912	55.0341
3908	55.1317
3904	55.143
3900	55.032
3896	54.98
3892	55.0428
3888	55.1083
3884	55.1644
3880	55.2241
3876	55.2759
3872	55.2921
3868	55.311
3864	55.3552
3860	55.3004
3856	55.2042
3852	55.2094
3848	55.2715
3844	55.2882
3840	55.265
3836	55.2936
3832	55.3394
3828	55.3132
3824	55.2335
3820	55.237
3816	55.3695
3812	55.4842
3808	55.4447
3804	55.3017
3800	55.2092
3796	55.217
3792	55.3111
3788	55.3955
3784	55.4287
3780	55.4418
3776	55.3865
3772	55.3003
3768	55.2853
3764	55.3603
3760	55.4054
3756	55.3012
3752	55.134
3748	55.0689
3744	55.1065
3740	55.1389
3736	55.1919
3732	55.2818
3728	55.2493
3724	55.0995
3720	55.0808
3716	55.1821
3712	55.2003
3708	55.197
3704	55.2303
3700	55.2222
3696	55.1386
3692	55.0537
3688	55.0859
3684	55.1384
3680	55.1556
3676	55.1836
3672	55.1428
3668	55.1102
3664	55.1897
3660	55.2504
3656	55.2492
3652	55.2895
3648	55.2874
3644	55.1797
3640	55.0869
3636	55.0819
3632	55.1816
3628	55.3051
3624	55.3102
3620	55.2076
3616	55.1039
3612	55.0668
3608	55.0784
3604	55.1141
3600	55.2286
3596	55.3243
3592	55.2905
3588	55.2556
3584	55.2931
3580	55.3312
3576	55.3011
3572	55.2642
3568	55.3405
3564	55.4575
3560	55.4575
3556	55.3648
3552	55.3561
3548	55.3797
3544	55.2874
3540	55.2258
3536	55.2806
3532	55.2871
3528	55.2106
3524	55.1494
3520	55.129
3516	55.1064
3512	55.0684
3508	55.0835
3504	55.1589
3500	55.2336
3496	55.2421
3492	55.2203
3488	55.1765
3484	55.0716
3480	55.0112
3476	55.0514
3472	55.1094
3468	55.0906
3464	55.1441
3460	55.3237
3456	55.3899
3452	55.316
3448	55.2
3444	55.1041
3440	55.103
3436	55.2187
3432	55.3557
3428	55.3293
3424	55.1475
3420	55.0709
3416	55.216
3412	55.3817
3408	55.4191
3404	55.4
3400	55.3354
3396	55.234
3392	55.1702
3388	55.1553
3384	55.2188
3380	55.3012
3376	55.3203
3372	55.3173
3368	55.246
3364	55.1544
3360	55.2325
3356	55.3746
3352	55.39
3348	55.3417
3344	55.3163
3340	55.283
3336	55.2228
3332	55.1698
3328	55.1471
3324	55.1949
3320	55.3138
3316	55.3678
3312	55.2996
3308	55.2581
3304	55.3111
3300	55.3112
3296	55.2146
3292	55.1709
3288	55.2392
3284	55.3275
3280	55.3264
3276	55.2677
3272	55.2154
3268	55.1266
3264	55.0506
3260	55.0553
3256	55.0975
3252	55.1327
3248	55.1366
3244	55.1191
3240	55.0962
3236	55.0477
3232	55.039
3228	55.0926
3224	55.1367
3220	55.1784
3216	55.1651
3212	55.0764
3208	55.0613
3204	55.1273
3200	55.1542
3196	55.1667
3192	55.1787
3188	55.1357
3184	55.1078
3180	55.1634
3176	55.203
3172	55.1624
3168	55.1038
3164	55.0589
3160	55.0271
3156	55.0465
3152	55.1548
3148	55.263
3144	55.2602
3140	55.243
3136	55.3327
3132	55.4497
3128	55.4657
3124	55.3527
3120	55.218
3116	55.193
3112	55.2587
3108	55.319
3104	55.2832
3100	55.1644
3096	55.1651
3092	55.316
3088	55.3998
3084	55.3847
3080	55.3519
3076	55.3205
3072	55.3406
3068	55.3816
3064	55.3519
3060	55.2651
3056	55.233
3052	55.3304
3048	55.4267
3044	55.4011
3040	55.3514
3036	55.3286
3032	55.2878
3028	55.2443
3024	55.214
3020	55.2082
3016	55.2319
3012	55.2476
3008	55.2217
3004	55.1175
3000	55.0313
2996	55.0519
2992	55.1173
2988	55.1924
2984	55.1911
2980	55.1079
2976	55.0913
2972	55.1454
2968	55.1303
2964	55.0293
2960	54.9983
2956	55.0546
2952	55.1106
2948	55.1554
2944	55.1472
2940	55.1419
2936	55.1567
2932	55.123
2928	55.0707
2924	54.9993
2920	54.9157
2916	54.9017
2912	55.0474
2908	55.2093
2904	55.1931
2900	55.0909
2896	55.0567
2892	55.0844
2888	55.1097
2884	55.1572
2880	55.2286
2876	55.2464
2872	55.1964
2868	55.1662
2864	55.2316
2860	55.3388
2856	55.3803
2852	55.3198
2848	55.2266
2844	55.2016
2840	55.2348
2836	55.2634
2832	55.3179
2828	55.3678
2824	55.3652
2820	55.3718
2816	55.3875
2812	55.3617
2808	55.3115
2804	55.2913
2800	55.2816
2796	55.2648
2792	55.2816
2788	55.3349
2784	55.3843
2780	55.3468
2776	55.2391
2772	55.186
2768	55.1762
2764	55.1882
2760	55.2277
2756	55.2403
2752	55.2632
2748	55.2885
2744	55.2753
2740	55.278
2736	55.3006
2732	55.2517
2728	55.1434
2724	55.1069
2720	55.1343
2716	55.1572
2712	55.1439
2708	55.1111
2704	55.1045
2700	55.0716
2696	55.0238
2692	55.0216
2688	55.0311
2684	55.053
2680	55.106
2676	55.1445
2672	55.1195
2668	55.0877
2664	55.0582
2660	55.0135
2656	55.0544
2652	55.1707
2648	55.2375
2644	55.1986
2640	55.1354
2636	55.1365
2632	55.1714
2628	55.2034
2624	55.246
2620	55.2892
2616	55.2903
2612	55.2609
2608	55.274
2604	55.2977
2600	55.2818
2596	55.2815
2592	55.3235
2588	55.3673
2584	55.3492
2580	55.3138
2576	55.3574
2572	55.4059
2568	55.3737
2564	55.3177
2560	55.2956
2556	55.2966
2552	55.2898
2548	55.2882
2544	55.3238
2540	55.3421
2536	55.3212
2532	55.321
2528	55.2968
2524	55.2236
2520	55.1953
2516	55.2449
2512	55.2875
2508	55.297
2504	55.3021
2500	55.279
2496	55.2258
2492	55.1761
2488	55.157
2484	55.1724
2480	55.1831
2476	55.1766
2472	55.1506
2468	55.1028
2464	55.1117
2460	55.1563
2456	55.1773
2452	55.2277
2448	55.2823
2444	55.2797
2440	55.2307
2436	55.1494
2432	55.1027
2428	55.1501
2424	55.2114
2420	55.1923
2416	55.1527
2412	55.1991
2408	55.2675
2404	55.2346
2400	55.1302
2396	55.0711
2392	55.0752
2388	55.1021
2384	55.1584
2380	55.2309
2376	55.264
2372	55.2391
2368	55.2219
2364	55.2422
2360	55.2528
2356	55.2896
2352	55.3229
2348	55.3277
2344	55.3551
2340	55.3173
2336	55.2679
2332	55.3123
2328	55.3175
2324	55.2719
2320	55.2839
2316	55.2805
2312	55.2163
2308	55.2032
2304	55.2469
2300	55.2757
2296	55.2798
2292	55.2377
2288	55.2281
2284	55.2848
2280	55.2971
2276	55.2838
2272	55.2404
2268	55.1629
2264	55.1467
2260	55.1579
2256	55.1399
2252	55.1342
2248	55.1733
2244	55.2105
2240	55.253
2236	55.3301
2232	55.3523
2228	55.2693
2224	55.1713
2220	55.1558
2216	55.1902
2212	55.2335
2208	55.2574
2204	55.2114
2200	55.1344
2196	55.0746
2192	55.0607
2188	55.0941
2184	55.1595
2180	55.2361
2176	55.2838
2172	55.278
2168	55.1988
2164	55.1095
2160	55.1051
2156	55.1513
2152	55.1696
2148	55.1699
2144	55.216
2140	55.2806
2136	55.3241
2132	55.322
2128	55.2597
2124	55.252
2120	55.3269
2116	55.3477
2112	55.3032
2108	55.2743
2104	55.2798
2100	55.267
2096	55.2524
2092	55.2845
2088	55.3104
2084	55.3319
2080	55.3184
2076	55.255
2072	55.2505
2068	55.2887
2064	55.2938
2060	55.2611
2056	55.2254
2052	55.2341
2048	55.2636
2044	55.2845
2040	55.3102
2036	55.3181
2032	55.2894
2028	55.2188
2024	55.1449
2020	55.1552
2016	55.2138
2012	55.225
2008	55.2004
2004	55.1855
2000	55.168
1996	55.1859
1992	55.2838
1988	55.3089
1984	55.2242
1980	55.1926
1976	55.21
1972	55.228
1968	55.2149
1964	55.1515
1960	55.1228
1956	55.1682
1952	55.2327
1948	55.2261
1944	55.1833
1940	55.1779
1936	55.1834
1932	55.1634
1928	55.1558
1924	55.1989
1920	55.2163
1916	55.1801
1912	55.1665
1908	55.1994
1904	55.1987
1900	55.1598
1896	55.1685
1892	55.2137
1888	55.2343
1884	55.2578
1880	55.3219
1876	55.3663
1872	55.3463
1868	55.297
1864	55.2557
1860	55.2423
1856	55.2665
1852	55.2912
1848	55.2959
1844	55.325
1840	55.3467
1836	55.3415
1832	55.3573
1828	55.353
1824	55.3068
1820	55.293
1816	55.3212
1812	55.3506
1808	55.3816
1804	55.3758
1800	55.32
1796	55.2659
1792	55.2272
1788	55.2157
1784	55.1817
1780	55.1222
1776	55.1164
1772	55.104
1768	55.0718
1764	55.091
1760	55.1354
1756	55.1499
1752	55.0796
1748	54.9656
1744	54.9192
1740	54.9194
1736	54.8994
1732	54.8881
1728	54.9035
1724	54.9124
1720	54.9233
1716	54.925
1712	54.8902
1708	54.859
1704	54.8638
1700	54.8793
1696	54.8861
1692	54.9333
1688	54.9997
1684	54.9699
1680	54.9184
1676	54.9662
1672	55.0476
1668	55.1076
1664	55.1534
1660	55.163
1656	55.1598
1652	55.1724
1648	55.1719
1644	55.178
1640	55.2132
1636	55.2476
1632	55.268
1628	55.2762
1624	55.2498
1620	55.1844
1616	55.1451
1612	55.1799
1608	55.2212
1604	55.2349
1600	55.2374
1596	55.1948
1592	55.1762
1588	55.2061
1584	55.2134
1580	55.2274
1576	55.2697
1572	55.2834
1568	55.2431
1564	55.2518
1560	55.3348
1556	55.3547
1552	55.2991
1548	55.2513
1544	55.2178
1540	55.1862
1536	55.1451
1532	55.1303
1528	55.1597
1524	55.1564
1520	55.1137
1516	55.0757
1512	55.0569
1508	55.0575
1504	55.0843
1500	55.1701
1496	55.2309
1492	55.1503
1488	55.0396
1484	54.9764
1480	54.9303
1476	54.9244
1472	54.9403
1468	54.9456
1464	54.9277
1460	54.864
1456	54.8479
1452	54.9396
1448	54.986
1444	54.9301
1440	54.8867
1436	54.894
1432	54.883
1428	54.855
1424	54.8606
1420	54.8897
1416	54.9541
1412	55.0208
1408	55.0333
1404	55.0416
1400	55.0546
1396	55.0362
1392	54.9955
1388	54.9434
1384	54.9024
1380	54.8871
1376	54.8998
1372	54.9234
1368	54.9291
1364	54.9233
1360	54.9485
1356	55.0243
1352	55.1031
1348	55.1343
1344	55.1375
1340	55.1317
1336	55.1123
1332	55.0689
1328	54.9888
1324	54.9317
1320	54.9447
1316	55.0091
1312	55.0634
1308	55.0518
1304	55.0176
1300	54.9938
1296	54.9885
1292	55.0246
1288	55.0591
1284	55.0473
1280	55.0444
1276	55.1126
1272	55.2047
1268	55.2243
1264	55.1797
1260	55.1288
1256	55.0387
1252	54.9838
1248	55.0174
1244	55.038
1240	55.0463
1236	55.0769
1232	55.0976
1228	55.1174
1224	55.117
1220	55.0685
1216	55.0282
1212	55.0088
1208	55.0116
1204	55.0623
1200	55.1206
1196	55.1873
1192	55.175
1188	55.0238
1184	54.9311
1180	54.963
1176	54.9988
1172	55.0027
1168	54.9759
1164	54.8847
1160	54.7778
1156	54.7926
1152	54.9105
1148	55.0019
1144	55.0658
1140	55.1097
1136	55.0732
1132	55.0115
1128	55.0961
1124	55.2621
1120	55.2419
1116	55.0657
1112	54.9701
1108	55.033
1104	55.1207
1100	55.1093
1096	55.0692
1092	54.997
1088	54.9454
1084	54.9721
1080	54.9243
1076	54.8539
1072	54.8545
1068	54.8383
1064	54.8574
1060	54.9881
1056	55.1179
1052	55.108
1048	55.0061
1044	54.9742
1040	55.0363
1036	55.1259
1032	55.1386
1028	55.007
1024	54.8682
1020	54.8993
1016	55.0052
1012	55.0611
1008	55.1336
1004	55.1855
1000	55.1401
996	 55.0998
992	 55.0758
988	 55.0007
984	 54.953
980	 54.9438
976	 54.9493
972	 54.9761
968	 55.0282
964	 55.121
960	 55.1593
956	 55.1321
952	 55.1135
948	 55.0531
944	 54.9717
940	 54.9793
936	 55.0542
932	 55.0922
928	 55.0855
924	 55.0768
920	 55.0025
916	 54.8778
912	 54.8499
908	 54.8456
904	 54.7885
900	 54.8707
896	 55.0848
892	 55.1555
888	 55.0499
884	 55.0024
880	 55.1326
876	 55.2365
872	 55.1361
868	 55.0295
864	 55.0769
860	 55.1526
856	 55.0894
852	 55.0047
848	 55.0338
844	 55.07
840	 55.0844
836	 55.1018
832	 55.1001
828	 55.0695
824	 54.9614
820	 54.8715
816	 54.997
812	 55.2109
808	 55.2413
804	 55.0655
800	 54.8951
796	 54.8957
792	 54.9443
788	 54.8806
784	 54.803
780	 54.8154
776	 54.9049
772	 54.9488
768	 54.8261
764	 54.72
760	 54.8281
756	 55.0094
752	 55.0877
748	 55.0909
744	 55.1067
740	 55.1693
736	 55.1947
732	 55.1681
728	 55.1264
724	 55.0524
720	 55.0749
716	 55.0726
712	 54.8726
708	 54.7114
704	 54.7455
700	 54.963
696	 55.1679
692	 55.1851
688	 55.1355
684	 55.1356
680	 55.1062
676	 54.9864
672	 54.9031
668	 54.8948
664	 54.9009
660	 54.9621
656	 55.0876
652	 55.1341
648	 55.095
644	 55.0385
640	 54.9965
636	 55.0214
632	 54.957
628	 54.8623
624	 54.964
620	 55.1216
616	 55.086
612	 54.7755
608	 54.5927
604	 54.8313
600	 54.9974
596	 54.9295
592	 55.0875
588	 55.4764
584	 55.6367
580	 55.501
576	 55.2519
572	 55.0502
568	 55.1913
564	 55.5174
560	 55.5327
556	 55.2366
552	 55.1412
548	 55.4272
544	 55.786
540	 55.8865
536	 55.7647
532	 55.6646
528	 55.592
524	 55.5953
520	 55.7986
516	 55.7674
512	 55.46
508	 55.2879
504	 55.3445
500	 55.2095
496	 55.1142
492	 55.7022
488	 56.1124
484	 55.7204
480	 55.0136
476	 54.5563
472	 54.4344
468	 54.3241
464	 54.0635
460	 54.63
456	 56.4394
452	 58.2508
448	 59.1134
444	 57.4889
440	 53.87
436	 51.7327
432	 53.2998
428	 55.9743
424	 56.7123
420	 57.2256
416	 54.637
412	 52.1366
408	 59.2864
404	 68.369
400	 71.7985
396	 69.1602
392	 59.3996
388	 56.1148
384	 58.4295
380	 56.5278
376	 51.5084
372	 34.9148
370	 22.5837