File: Bakgrunnsmateriale/MATLAB/FTIR/ftir_data/subCa/Mapping_25/BZ12041010-4_e27_cm-1.asc
PE IR       SPECTRUM    SPECTRUM    ASCII       PEDS        1.60
  -1
BZAC31~1.ASC
17/04/10
09:44:36.00
17/04/10
09:44:36.00
tln
$BZ12041010-4_e0027$<ebV0>[-23.0,28.0,5.5,0.0,22,1,0]
370
64

2002,4.07
MIRTGS : RIGHTBACK : INTERNAL 2
MIR : ON : INTERNAL 2
OPTKBR

0.200000
8
8.000000
FILLER
SINGLE
SPECTRUM
UNLOCKED 256

DOUBLE

COMBINED
1
0
0

1.000000
BACKG

1
0
TRUE
51149
0
LEFT NOT FITTED RIGHT NOT FITTED 0
NONE
NONE
15600
12
4.427000
51148
TRUE
1 0 8 72 0 0 0 0

15798

#HDR
-1
-1
#GR
CM-1
EGY
2.38419e-05
0.0
5000
-1.000000
4631
8
2.461099
0.010108
#DATA
5000	0.777316
4996	0.781965
4992	0.784969
4988	0.786685
4984	0.789189
4980	0.790977
4976	0.790596
4972	0.789833
4968	0.792145
4964	0.796461
4960	0.798916
4956	0.798940
4952	0.799679
4948	0.802469
4944	0.805783
4940	0.809073
4936	0.810003
4932	0.809407
4928	0.809454
4924	0.808691
4920	0.809431
4916	0.812196
4912	0.812888
4908	0.812602
4904	0.814890
4900	0.818943
4896	0.822925
4892	0.824713
4888	0.823307
4884	0.820899
4880	0.819468
4876	0.820803
4872	0.829124
4868	0.841093
4864	0.845003
4860	0.837278
4856	0.829029
4852	0.828862
4848	0.827479
4844	0.827431
4840	0.839114
4836	0.844335
4832	0.840401
4828	0.844383
4824	0.850725
4820	0.857806
4816	0.868296
4812	0.873661
4808	0.871586
4804	0.870227
4800	0.875926
4796	0.881004
4792	0.881671
4788	0.884318
4784	0.887584
4780	0.887370
4776	0.887608
4772	0.889420
4768	0.891852
4764	0.895857
4760	0.898575
4756	0.898432
4752	0.899791
4748	0.901818
4744	0.901246
4740	0.901031
4736	0.901603
4732	0.903391
4728	0.904941
4724	0.904917
4720	0.906276
4716	0.908970
4712	0.911068
4708	0.912570
4704	0.913310
4700	0.913095
4696	0.914049
4692	0.916433
4688	0.916910
4684	0.915956
4680	0.916767
4676	0.917601
4672	0.917911
4668	0.919485
4664	0.921177
4660	0.922679
4656	0.924420
4652	0.925421
4648	0.926804
4644	0.930309
4640	0.932979
4636	0.934147
4632	0.935220
4628	0.935006
4624	0.935673
4620	0.938296
4616	0.941991
4612	0.945806
4608	0.948476
4604	0.950598
4600	0.952839
4596	0.954914
4592	0.957465
4588	0.961208
4584	0.963544
4580	0.965261
4576	0.969338
4572	0.973629
4568	0.977206
4564	0.979709
4560	0.981831
4556	0.986027
4552	0.991129
4548	0.995469
4544	0.996923
4540	0.997972
4536	1.001429
4532	1.004433
4528	1.006245
4524	1.006484
4520	1.004743
4516	1.005172
4512	1.008105
4508	1.010656
4504	1.011490
4500	1.010465
4496	1.006722
4492	1.007151
4488	1.011514
4484	1.013183
4480	1.011538
4476	1.009035
4472	0.982117
4468	0.898241
4464	0.794935
4460	0.740003
4456	0.795483
4452	0.933122
4448	1.029133
4444	1.051330
4440	1.051473
4436	1.049017
4432	1.047277
4428	1.051592
4424	1.055049
4420	1.053643
4416	1.049780
4412	1.047205
4408	1.048636
4404	1.052498
4400	1.054167
4396	1.051950
4392	1.049017
4388	1.048994
4384	1.052117
4380	1.055264
4376	1.057720
4372	1.060748
4368	1.063036
4364	1.064729
4360	1.067924
4356	1.072120
4352	1.075720
4348	1.079750
4344	1.083540
4340	1.085972
4336	1.088547
4332	1.092195
4328	1.097249
4324	1.101732
4320	1.105999
4316	1.111435
4312	1.116108
4308	1.120257
4304	1.125550
4300	1.130962
4296	1.135611
4292	1.140213
4288	1.144671
4284	1.147985
4280	1.150012
4276	1.152753
4272	1.156973
4268	1.161408
4264	1.165485
4260	1.169371
4256	1.173162
4252	1.176214
4248	1.178479
4244	1.181006
4240	1.183271
4236	1.183962
4232	1.185107
4228	1.189184
4224	1.192688
4220	1.194095
4216	1.196002
4212	1.198339
4208	1.200580
4204	1.202178
4200	1.203012
4196	1.204228
4192	1.205945
4188	1.207709
4184	1.208662
4180	1.209497
4176	1.211357
4172	1.212930
4168	1.213908
4164	1.215624
4160	1.219296
4156	1.223587
4152	1.226258
4148	1.228237
4144	1.230573
4140	1.233625
4136	1.238131
4132	1.241493
4128	1.243329
4124	1.247715
4120	1.254129
4116	1.258063
4112	1.260089
4108	1.263022
4104	1.266407
4100	1.269316
4096	1.272892
4092	1.278352
4088	1.284813
4084	1.291012
4080	1.297593
4076	1.302886
4072	1.306462
4068	1.313400
4064	1.323485
4060	1.331567
4056	1.335716
4052	1.338267
4048	1.343941
4044	1.351165
4040	1.356387
4036	1.361298
4032	1.366806
4028	1.372599
4024	1.378583
4020	1.383256
4016	1.385807
4012	1.389098
4008	1.394033
4004	1.398086
4000	1.401782
3996	1.405477
3992	1.407289
3988	1.408004
3984	1.411008
3980	1.416468
3976	1.420402
3972	1.421236
3968	1.422119
3964	1.423978
3960	1.424694
3956	1.423692
3952	1.423597
3948	1.426386
3944	1.429510
3940	1.430821
3936	1.430320
3932	1.430177
3928	1.431822
3924	1.432728
3920	1.433944
3916	1.437640
3912	1.439952
3908	1.437783
3904	1.434969
3900	1.437807
3896	1.443719
3892	1.445579
3888	1.444363
3884	1.444792
3880	1.448965
3876	1.452088
3872	1.451110
3868	1.452207
3864	1.458001
3860	1.460075
3856	1.454877
3852	1.457953
3848	1.472997
3844	1.481962
3840	1.482629
3836	1.485824
3832	1.492953
3828	1.497793
3824	1.497888
3820	1.497960
3816	1.503825
3812	1.512384
3808	1.515722
3804	1.516628
3800	1.522660
3796	1.532769
3792	1.541328
3788	1.546120
3784	1.548552
3780	1.552128
3776	1.556515
3772	1.559352
3768	1.561522
3764	1.562428
3760	1.563143
3756	1.561880
3752	1.555228
3748	1.550483
3744	1.555180
3740	1.563405
3736	1.566576
3732	1.570272
3728	1.576399
3724	1.579260
3720	1.579976
3716	1.578688
3712	1.577615
3708	1.580715
3704	1.583743
3700	1.585507
3696	1.585316
3692	1.579236
3688	1.575541
3684	1.578545
3680	1.577520
3676	1.571559
3672	1.570272
3668	1.576614
3664	1.584029
3660	1.585030
3656	1.580739
3652	1.575756
3648	1.575732
3644	1.582169
3640	1.587748
3636	1.586961
3632	1.581549
3628	1.581335
3624	1.586365
3620	1.588511
3616	1.589202
3612	1.590085
3608	1.592707
3604	1.597404
3600	1.600027
3596	1.600813
3592	1.601600
3588	1.603126
3584	1.607131
3580	1.611900
3576	1.615142
3572	1.616430
3568	1.617121
3564	1.620507
3560	1.625299
3556	1.628112
3552	1.629376
3548	1.630640
3544	1.632046
3540	1.632690
3536	1.632189
3532	1.631736
3528	1.632928
3524	1.635122
3520	1.636552
3516	1.637887
3512	1.638865
3508	1.638650
3504	1.637506
3500	1.635289
3496	1.632761
3492	1.630640
3488	1.629352
3484	1.628994
3480	1.628017
3476	1.624965
3472	1.621723
3468	1.620674
3464	1.619315
3460	1.616048
3456	1.612544
3452	1.609158
3448	1.605510
3444	1.601457
3440	1.598000
3436	1.596522
3432	1.596164
3428	1.595902
3424	1.596260
3420	1.597881
3416	1.598978
3412	1.599073
3408	1.599597
3404	1.601982
3400	1.606154
3396	1.609253
3392	1.611280
3388	1.614260
3384	1.617574
3380	1.620388
3376	1.623392
3372	1.627302
3368	1.631379
3364	1.636195
3360	1.642346
3356	1.648187
3352	1.653194
3348	1.658582
3344	1.665043
3340	1.671528
3336	1.677417
3332	1.683926
3328	1.690936
3324	1.697397
3320	1.703000
3316	1.708078
3312	1.713180
3308	1.718521
3304	1.725077
3300	1.731657
3296	1.735973
3292	1.740503
3288	1.746344
3284	1.751518
3280	1.756787
3276	1.762437
3272	1.767182
3268	1.771163
3264	1.774549
3260	1.776671
3256	1.778769
3252	1.782011
3248	1.784968
3244	1.787352
3240	1.789760
3236	1.791739
3232	1.793217
3228	1.793670
3224	1.793408
3220	1.793789
3216	1.794624
3212	1.797032
3208	1.799511
3204	1.800203
3200	1.800727
3196	1.800751
3192	1.800704
3188	1.802396
3184	1.804566
3180	1.805543
3176	1.805448
3172	1.806259
3168	1.808834
3164	1.811885
3160	1.814627
3156	1.817512
3152	1.820206
3148	1.822853
3144	1.826024
3140	1.829957
3136	1.834797
3132	1.839733
3128	1.843762
3124	1.847839
3120	1.853084
3116	1.858639
3112	1.864242
3108	1.870369
3104	1.877546
3100	1.885366
3096	1.893877
3092	1.903271
3088	1.912164
3084	1.919770
3080	1.926469
3076	1.931738
3072	1.936054
3068	1.941514
3064	1.947784
3060	1.954078
3056	1.960587
3052	1.967310
3048	1.974368
3044	1.980733
3040	1.985311
3036	1.987361
3032	1.986455
3028	1.982641
3024	1.976299
3020	1.971387
3016	1.976323
3012	1.993727
3008	2.014899
3004	2.029824
3000	2.036237
2996	2.037835
2992	2.038598
2988	2.037668
2984	2.033567
2980	2.025699
2976	2.011704
2972	1.990246
2968	1.965904
2964	1.945900
2960	1.934981
2956	1.931738
2952	1.928830
2948	1.917719
2944	1.894259
2940	1.860737
2936	1.824831
2932	1.793813
2928	1.773953
2924	1.777839
2920	1.811552
2916	1.860189
2912	1.903462
2908	1.933407
2904	1.953911
2900	1.969575
2896	1.981949
2892	1.993250
2888	2.004265
2884	2.012467
2880	2.015519
2876	2.010560
2872	1.992344
2868	1.959514
2864	1.925516
2860	1.914763
2856	1.936054
2852	1.975035
2848	2.016019
2844	2.051401
2840	2.078270
2836	2.097129
2832	2.111220
2828	2.123689
2824	2.136325
2820	2.148270
2816	2.157664
2812	2.165818
2808	2.174448
2804	2.183341
2800	2.191185
2796	2.197790
2792	2.204132
2788	2.210831
2784	2.218031
2780	2.226161
2776	2.235198
2772	2.242064
2768	2.245831
2764	2.249264
2760	2.253484
2756	2.257609
2752	2.259802
2748	2.260637
2744	2.262687
2740	2.265238
2736	2.266049
2732	2.265620
2728	2.264928
2724	2.263808
2720	2.261924
2716	2.260923
2712	2.260637
2708	2.259397
2704	2.257299
2700	2.254915
2696	2.252578
2692	2.250885
2688	2.249598
2684	2.247357
2680	2.244663
2676	2.241253
2672	2.236795
2668	2.233648
2664	2.232241
2660	2.230763
2656	2.228903
2652	2.227520
2648	2.226901
2644	2.227020
2640	2.227449
2636	2.227401
2632	2.227258
2628	2.227497
2624	2.227878
2620	2.227473
2616	2.227163
2612	2.228569
2608	2.231097
2604	2.233505
2600	2.234721
2596	2.235674
2592	2.238678
2588	2.244019
2584	2.250409
2580	2.256774
2576	2.262544
2572	2.267813
2568	2.273106
2564	2.278327
2560	2.283811
2556	2.289867
2552	2.295565
2548	2.300119
2544	2.303481
2540	2.307319
2536	2.311921
2532	2.314949
2528	2.317094
2524	2.321600
2520	2.326798
2516	2.329444
2512	2.331304
2508	2.333283
2504	2.333641
2500	2.333354
2496	2.333092
2492	2.332329
2488	2.331495
2484	2.330780
2480	2.330327
2476	2.329468
2472	2.326869
2468	2.323007
2464	2.319765
2460	2.315974
2456	2.310681
2452	2.306127
2448	2.302360
2444	2.297997
2440	2.293348
2436	2.288746
2432	2.285242
2428	2.282691
2424	2.279019
2420	2.274489
2416	2.271580
2412	2.268767
2408	2.264308
2404	2.261233
2400	2.260017
2396	2.257847
2392	2.255368
2388	2.254605
2384	2.254533
2380	2.252578
2376	2.248311
2372	2.243471
2368	2.239799
2364	2.239179
2360	2.243018
2356	2.250623
2352	2.259969
2348	2.267313
2344	2.270102
2340	2.272367
2336	2.277231
2332	2.283239
2328	2.290678
2324	2.299404
2320	2.307891
2316	2.315521
2312	2.322959
2308	2.331161
2304	2.338957
2300	2.345156
2296	2.350902
2292	2.356886
2288	2.362346
2284	2.367472
2280	2.372765
2276	2.376031
2272	2.377319
2268	2.378702
2264	2.381205
2260	2.385115
2256	2.388405
2252	2.389192
2248	2.388858
2244	2.388262
2240	2.387118
2236	2.386665
2232	2.386260
2228	2.384376
2224	2.382612
2220	2.381014
2216	2.378773
2212	2.376174
2208	2.372527
2204	2.368259
2200	2.364468
2196	2.361702
2192	2.359437
2188	2.356266
2184	2.352905
2180	2.349948
2176	2.347183
2172	2.344346
2168	2.341389
2164	2.340531
2160	2.341461
2156	2.341747
2152	2.341771
2148	2.341914
2144	2.341508
2140	2.341008
2136	2.341246
2132	2.341413
2128	2.340579
2124	2.339887
2120	2.340722
2116	2.342152
2112	2.342581
2108	2.342319
2104	2.342772
2100	2.344560
2096	2.345609
2092	2.345061
2088	2.345490
2084	2.348661
2080	2.353215
2076	2.357530
2072	2.362847
2068	2.370667
2064	2.379250
2060	2.387475
2056	2.396178
2052	2.405238
2048	2.413821
2044	2.421450
2040	2.428245
2036	2.433729
2032	2.438640
2028	2.444171
2024	2.448844
2020	2.451610
2016	2.454376
2012	2.457904
2008	2.459907
2004	2.460217
2000	2.460741
1996	2.461099
1992	2.459764
1988	2.456617
1984	2.454257
1980	2.452659
1976	2.449536
1972	2.445721
1968	2.442288
1964	2.438569
1960	2.434515
1956	2.430534
1952	2.427101
1948	2.424526
1944	2.422189
1940	2.419638
1936	2.415966
1932	2.411580
1928	2.407193
1924	2.401947
1920	2.396726
1916	2.393269
1912	2.390098
1908	2.385401
1904	2.380728
1900	2.377820
1896	2.375936
1892	2.374196
1888	2.373743
1884	2.376127
1880	2.379560
1876	2.380919
1872	2.380347
1868	2.381420
1864	2.386307
1860	2.391600
1856	2.394890
1852	2.396392
1848	2.395391
1844	2.396059
1840	2.402758
1836	2.409434
1832	2.411508
1828	2.413487
1824	2.418231
1820	2.423763
1816	2.428269
1812	2.431941
1808	2.434802
1804	2.435708
1800	2.434897
1796	2.432584
1792	2.431297
1788	2.433633
1784	2.434706
1780	2.430701
1776	2.421998
1772	2.414798
1768	2.414846
1764	2.415537
1760	2.411794
1756	2.401781
1752	2.387166
1748	2.375531
1744	2.364230
1740	2.346158
1736	2.327156
1732	2.322244
1728	2.328085
1724	2.325248
1720	2.311635
1716	2.303147
1712	2.302479
1708	2.294516
1704	2.274632
1700	2.255463
1696	2.253174
1692	2.258992
1688	2.251172
1684	2.240848
1680	2.241039
1676	2.237296
1672	2.228403
1668	2.222704
1664	2.217459
1660	2.204728
1656	2.178287
1652	2.158474
1648	2.160191
1644	2.165484
1640	2.157211
1636	2.141904
1632	2.134156
1628	2.126002
1624	2.106404
1620	2.075505
1616	2.037310
1612	1.998996
1608	1.973462
1604	1.975584
1600	1.995253
1596	2.010965
1592	2.016758
1588	2.014517
1584	2.006888
1580	1.994371
1576	1.984524
1572	1.981997
1568	1.975774
1564	1.953792
1560	1.927685
1556	1.928472
1552	1.949667
1548	1.959347
1544	1.958942
1540	1.980566
1536	2.032685
1532	2.082562
1528	2.107310
1524	2.110648
1520	2.106165
1516	2.101159
1512	2.088594
1508	2.060747
1504	1.994228
1500	1.851391
1496	1.700329
1492	1.682138
1488	1.789617
1484	1.902842
1480	1.961159
1476	1.975035
1472	1.972508
1468	1.962471
1464	1.934719
1460	1.877856
1456	1.803159
1452	1.760506
1448	1.783227
1444	1.832294
1440	1.857280
1436	1.864528
1432	1.870298
1428	1.870656
1424	1.864910
1420	1.856255
1416	1.844763
1412	1.817989
1408	1.768827
1404	1.728320
1400	1.730060
1396	1.761913
1392	1.786804
1388	1.787757
1384	1.785159
1380	1.795721
1376	1.807045
1372	1.812934
1368	1.815891
1364	1.815700
1360	1.815962
1356	1.817345
1352	1.816940
1348	1.815414
1344	1.814246
1340	1.816868
1336	1.826333
1332	1.837563
1328	1.845407
1324	1.850748
1320	1.854801
1316	1.856756
1312	1.856684
1308	1.856064
1304	1.855397
1300	1.855397
1296	1.855921
1292	1.855778
1288	1.854562
1284	1.851987
1280	1.845955
1276	1.832485
1272	1.805257
1268	1.761674
1264	1.722049
1260	1.720619
1256	1.757550
1252	1.798200
1248	1.822566
1244	1.832985
1240	1.834774
1236	1.832294
1232	1.827740
1228	1.821732
1224	1.813173
1220	1.799440
1216	1.779675
1212	1.759457
1208	1.747107
1204	1.743793
1200	1.745176
1196	1.745915
1192	1.741099
1188	1.731705
1184	1.721096
1180	1.709842
1176	1.697468
1172	1.683092
1168	1.665782
1164	1.646232
1160	1.627779
1156	1.615405
1152	1.608896
1148	1.603436
1144	1.596164
1140	1.586747
1136	1.573991
1132	1.557302
1128	1.538181
1124	1.518154
1120	1.497817
1116	1.477456
1112	1.457905
1108	1.441502
1104	1.431012
1100	1.426029
1096	1.423430
1092	1.423335
1088	1.426076
1084	1.428079
1080	1.427984
1076	1.429629
1072	1.433658
1068	1.435923
1064	1.433753
1060	1.417279
1056	1.368165
1052	1.310610
1048	1.305937
1044	1.347494
1040	1.377868
1036	1.383638
1032	1.378536
1028	1.369762
1024	1.361680
1020	1.359701
1016	1.365327
1012	1.374673
1008	1.385140
1004	1.394224
1000	1.398921
996	 1.399254
992	 1.396083
988	 1.390218
984	 1.382875
980	 1.374673
976	 1.365756
972	 1.355385
968	 1.342868
964	 1.329159
960	 1.315021
956	 1.300358
952	 1.285815
948	 1.274013
944	 1.265764
940	 1.259493
936	 1.253366
932	 1.245069
928	 1.234817
924	 1.224780
920	 1.214528
916	 1.201081
912	 1.185202
908	 1.171350
904	 1.161527
900	 1.154923
896	 1.149082
892	 1.139521
888	 1.120162
884	 1.087737
880	 1.051020
876	 1.029849
872	 1.036596
868	 1.061248
864	 1.083230
860	 1.093435
856	 1.093959
852	 1.089119
848	 1.082205
844	 1.074171
840	 1.060056
836	 1.026582
832	 0.961804
828	 0.883007
824	 0.844407
820	 0.871014
816	 0.918364
812	 0.942993
808	 0.946831
804	 0.944495
800	 0.944709
796	 0.951147
792	 0.961422
788	 0.971031
784	 0.977373
780	 0.978970
776	 0.976753
772	 0.972890
768	 0.968766
764	 0.965404
760	 0.962901
756	 0.959730
752	 0.954461
748	 0.947594
744	 0.940656
740	 0.933313
736	 0.924372
732	 0.913405
728	 0.901579
724	 0.889563
720	 0.877189
716	 0.866150
712	 0.855851
708	 0.843906
704	 0.829982
700	 0.813341
696	 0.790786
692	 0.760626
688	 0.735735
684	 0.730013
680	 0.733208
676	 0.731372
672	 0.724697
668	 0.716328
664	 0.706982
660	 0.696563
656	 0.685930
652	 0.676250
648	 0.666499
644	 0.655770
640	 0.644826
636	 0.633788
632	 0.623178
628	 0.613188
624	 0.602722
620	 0.590658
616	 0.575876
612	 0.557255
608	 0.537037
604	 0.524449
600	 0.523138
596	 0.523447
592	 0.518870
588	 0.512981
584	 0.509309
580	 0.506591
576	 0.503230
572	 0.499343
568	 0.494861
564	 0.488495
560	 0.480771
556	 0.473308
552	 0.465917
548	 0.458288
544	 0.451445
540	 0.445294
536	 0.437903
532	 0.428438
528	 0.419044
524	 0.410199
520	 0.400471
516	 0.389933
512	 0.379991
508	 0.369715
504	 0.359010
500	 0.348496
496	 0.335884
492	 0.320816
488	 0.305938
484	 0.292253
480	 0.278735
476	 0.265312
472	 0.253272
468	 0.242257
464	 0.229406
460	 0.213718
456	 0.196647
452	 0.180029
448	 0.166964
444	 0.159096
440	 0.150179
436	 0.137758
432	 0.125527
428	 0.112915
424	 0.098299
420	 0.083875
416	 0.071215
412	 0.060701
408	 0.053024
404	 0.047373
400	 0.040960
396	 0.033116
392	 0.026702
388	 0.023746
384	 0.021314
380	 0.017404
376	 0.014734
372	 0.012373
370	 0.010108