File: Bakgrunnsmateriale/MATLAB/FTIR/ftir_data/subCa/Mapping_25/BZ12041010-4_t02_cm-1.asc
PE IR       SPECTRUM    SPECTRUM    ASCII       PEDS        1.60
  -1
BZABF1~1.ASC
17/04/10
09:00:58.00
17/04/10
09:00:58.00
tln
$BZ12041010-4_t0002$<tbV0>[2.6,-12.4,9.0,0.0,22,1,0]
370
64

2002,4.07
MIRTGS : RIGHTBACK : INTERNAL 2
MIR : ON : INTERNAL 2
OPTKBR

0.200000
8
8.000000
FILLER
RATIO
SPECTRUM
UNLOCKED 256

DOUBLE
64
COMBINED
1
0
0

1.000000
RATIO

1
0
TRUE
51149
0
LEFT NOT FITTED RIGHT NOT FITTED 0
NONE
NONE
15600
12
4.427000
51148
TRUE
1 0 8 72 0 0 0 0

15798

#HDR
-1
-1
#GR
CM-1
%T
2.38419e-05
0.0
5000
-1.000000
4631
8
84.6141
53.9797
#DATA
5000	64.9079
4996	64.9173
4992	64.8206
4988	64.6502
4984	64.4065
4980	64.41
4976	64.7118
4972	64.9905
4968	64.933
4964	64.6241
4960	64.6389
4956	65.0088
4952	65.2763
4948	65.1205
4944	64.673
4940	64.4609
4936	64.5049
4932	64.481
4928	64.3923
4924	64.4439
4920	64.6838
4916	64.935
4912	65.0219
4908	64.9358
4904	64.7333
4900	64.5683
4896	64.6231
4892	64.7685
4888	64.9403
4884	65.1571
4880	65.1462
4876	64.8212
4872	64.7209
4868	64.9118
4864	64.8983
4860	64.6777
4856	64.4124
4852	64.3149
4848	64.3421
4844	64.2879
4840	64.3251
4836	64.4164
4832	64.5717
4828	65.0851
4824	65.4675
4820	65.2858
4816	64.9737
4812	64.425
4808	63.7048
4804	63.8138
4800	64.4217
4796	64.3305
4792	63.9746
4788	64.072
4784	64.3694
4780	64.7324
4776	65.4621
4772	65.7118
4768	64.8279
4764	64.2956
4760	64.4619
4756	64.6187
4752	64.8154
4748	65.3125
4744	66.2485
4740	66.9172
4736	66.3766
4732	64.7436
4728	63.6751
4724	64.1983
4720	65.211
4716	65.6108
4712	65.5809
4708	65.6395
4704	65.222
4700	64.0628
4696	63.2951
4692	63.3743
4688	63.9802
4684	64.4529
4680	64.3169
4676	64.2734
4672	64.7996
4668	65.2656
4664	65.1669
4660	64.6471
4656	64.4375
4652	65.0791
4648	65.6477
4644	65.5758
4640	65.2715
4636	65.0476
4632	65.1055
4628	65.0715
4624	64.7525
4620	64.6085
4616	64.6631
4612	64.5405
4608	64.2575
4604	64.1302
4600	64.3551
4596	64.6976
4592	64.7586
4588	64.6137
4584	64.6586
4580	64.7988
4576	64.7996
4572	64.6027
4568	64.3027
4564	64.5016
4560	65.1923
4556	65.5944
4552	65.5398
4548	65.3547
4544	65.2717
4540	65.1808
4536	64.7515
4532	64.3314
4528	64.408
4524	64.7661
4520	64.994
4516	65.1792
4512	65.3803
4508	65.4818
4504	65.7914
4500	65.3784
4496	62.8797
4492	59.6667
4488	58.1637
4484	57.1334
4480	60.2792
4476	67.6791
4472	70.8151
4468	72.9541
4464	73.4644
4460	68.2065
4456	64.1086
4452	63.8812
4448	64.5954
4444	64.762
4440	64.6239
4436	64.5965
4432	64.6687
4428	64.8328
4424	65.0868
4420	65.233
4416	65.4233
4412	65.602
4408	65.3777
4404	65.1434
4400	65.187
4396	65.1403
4392	65.0388
4388	64.9974
4384	64.9616
4380	64.9908
4376	64.9912
4372	64.8774
4368	64.7676
4364	64.7526
4360	64.7073
4356	64.677
4352	64.7247
4348	64.7976
4344	64.9596
4340	65.0573
4336	64.9651
4332	64.8361
4328	64.7312
4324	64.5927
4320	64.5303
4316	64.6765
4312	64.8893
4308	64.8788
4304	64.6808
4300	64.684
4296	64.8946
4292	64.9518
4288	64.9169
4284	65.0129
4280	65.0709
4276	64.9811
4272	64.8703
4268	64.791
4264	64.7749
4260	64.8069
4256	64.7119
4252	64.674
4248	64.8766
4244	64.972
4240	64.8949
4236	64.823
4232	64.7824
4228	64.7707
4224	64.7519
4220	64.7958
4216	64.8923
4212	64.918
4208	64.9575
4204	65.0947
4200	65.2524
4196	65.3055
4192	65.2325
4188	65.0538
4184	64.8849
4180	64.9828
4176	65.2676
4172	65.4387
4168	65.2962
4164	64.9913
4160	64.9257
4156	65.0247
4152	65.1044
4148	65.1025
4144	64.975
4140	64.9196
4136	64.9786
4132	65.1187
4128	65.2862
4124	65.281
4120	65.1917
4116	65.1421
4112	65.0317
4108	64.9514
4104	64.9604
4100	64.9873
4096	65.1064
4092	65.1669
4088	65.0191
4084	64.9168
4080	64.9044
4076	64.9073
4072	65.0734
4068	65.2485
4064	65.1905
4060	65.0465
4056	64.9968
4052	65.1478
4048	65.3527
4044	65.3014
4040	65.2069
4036	65.2337
4032	65.1897
4028	65.1375
4024	65.1882
4020	65.2399
4016	65.2125
4012	65.1566
4008	65.1212
4004	65.1278
4000	65.0952
3996	64.9787
3992	64.9438
3988	65.0304
3984	65.0817
3980	64.9838
3976	64.8858
3972	64.9981
3968	65.1442
3964	65.1628
3960	65.1569
3956	65.1647
3952	65.1433
3948	65.0723
3944	65.0504
3940	65.116
3936	65.1338
3932	65.0858
3928	65.136
3924	65.2496
3920	65.2436
3916	65.1447
3912	65.0204
3908	64.9218
3904	64.9765
3900	65.1412
3896	65.2162
3892	65.2265
3888	65.3109
3884	65.3732
3880	65.2854
3876	65.1662
3872	65.1546
3868	65.1261
3864	64.9868
3860	64.9703
3856	65.1762
3852	65.3153
3848	65.2647
3844	65.2431
3840	65.3175
3836	65.3347
3832	65.2604
3828	65.2301
3824	65.271
3820	65.2325
3816	65.1174
3812	65.0689
3808	65.0909
3804	65.1344
3800	65.1711
3796	65.1702
3792	65.1252
3788	65.0723
3784	65.0884
3780	65.1775
3776	65.1932
3772	65.1187
3768	65.1501
3764	65.3112
3760	65.416
3756	65.4109
3752	65.3574
3748	65.3246
3744	65.2781
3740	65.2178
3736	65.3133
3732	65.4345
3728	65.3909
3724	65.2995
3720	65.2331
3716	65.1764
3712	65.1488
3708	65.1769
3704	65.2529
3700	65.341
3696	65.4054
3692	65.3579
3688	65.1833
3684	65.0841
3680	65.1996
3676	65.3613
3672	65.3347
3668	65.145
3664	64.9879
3660	64.997
3656	65.0741
3652	65.1309
3648	65.2081
3644	65.2562
3640	65.268
3636	65.3067
3632	65.4047
3628	65.4486
3624	65.401
3620	65.3554
3616	65.304
3612	65.2975
3608	65.3047
3604	65.292
3600	65.2875
3596	65.2105
3592	65.1072
3588	65.1204
3584	65.2207
3580	65.2892
3576	65.272
3572	65.256
3568	65.3046
3564	65.282
3560	65.1988
3556	65.2242
3552	65.2875
3548	65.1775
3544	64.9102
3540	64.8079
3536	65.0194
3532	65.211
3528	65.2164
3524	65.16
3520	65.0732
3516	65.048
3512	65.1131
3508	65.1519
3504	65.0744
3500	64.9511
3496	64.9058
3492	64.9615
3488	65.0454
3484	65.0923
3480	65.1493
3476	65.1618
3472	65.114
3468	65.0913
3464	65.0754
3460	65.0682
3456	65.0773
3452	65.0748
3448	65.0888
3444	65.147
3440	65.2023
3436	65.2058
3432	65.1258
3428	65.0278
3424	65.0495
3420	65.1262
3416	65.1559
3412	65.1566
3408	65.0749
3404	64.9959
3400	65.1125
3396	65.3255
3392	65.3644
3388	65.242
3384	65.1877
3380	65.253
3376	65.2903
3372	65.225
3368	65.161
3364	65.1375
3360	65.0728
3356	64.9766
3352	64.8927
3348	64.854
3344	64.9119
3340	64.9685
3336	64.9558
3332	64.9579
3328	65.0172
3324	65.1288
3320	65.1585
3316	65.0544
3312	64.9988
3308	65.0383
3304	65.0426
3300	65.0049
3296	65.0089
3292	65.0501
3288	65.0731
3284	65.0502
3280	64.9781
3276	64.9226
3272	64.9742
3268	65.064
3264	65.1603
3260	65.2654
3256	65.281
3252	65.2473
3248	65.1923
3244	65.1125
3240	65.0917
3236	65.124
3232	65.1223
3228	65.067
3224	65.0308
3220	65.0639
3216	65.1686
3212	65.2436
3208	65.1856
3204	65.0715
3200	65.0716
3196	65.203
3192	65.2545
3188	65.1695
3184	65.1033
3180	65.0351
3176	64.887
3172	64.7968
3168	64.8922
3164	65.0423
3160	65.1151
3156	65.1367
3152	65.1403
3148	65.1518
3144	65.1658
3140	65.1186
3136	65.0147
3132	65.0414
3128	65.1849
3124	65.2078
3120	65.1445
3116	65.1316
3112	65.1647
3108	65.1485
3104	65.0409
3100	64.9669
3096	64.9908
3092	65.0691
3088	65.151
3084	65.2082
3080	65.1891
3076	65.0966
3072	65.0444
3068	65.0401
3064	65.0649
3060	65.1335
3056	65.1769
3052	65.2107
3048	65.2191
3044	65.1654
3040	65.1555
3036	65.1713
3032	65.137
3028	65.0837
3024	65.0181
3020	65.0046
3016	65.0837
3012	65.1174
3008	65.0198
3004	64.9277
3000	64.9701
2996	65.026
2992	65.013
2988	64.9974
2984	65.0141
2980	65.0766
2976	65.151
2972	65.1964
2968	65.195
2964	65.1511
2960	65.1255
2956	65.1088
2952	65.0378
2948	65.0114
2944	65.0891
2940	65.1231
2936	65.0862
2932	65.0532
2928	65.0475
2924	65.0615
2920	65.1309
2916	65.2036
2912	65.1486
2908	65.1219
2904	65.2327
2900	65.2733
2896	65.1992
2892	65.1462
2888	65.1257
2884	65.1538
2880	65.2006
2876	65.1769
2872	65.087
2868	64.9954
2864	65.0027
2860	65.0824
2856	65.1073
2852	65.091
2848	65.139
2844	65.215
2840	65.2003
2836	65.1559
2832	65.1356
2828	65.0992
2824	65.0512
2820	65.0482
2816	65.1369
2812	65.2275
2808	65.2153
2804	65.1444
2800	65.1035
2796	65.0921
2792	65.0833
2788	65.1238
2784	65.1868
2780	65.1838
2776	65.1828
2772	65.2025
2768	65.1739
2764	65.1719
2760	65.2051
2756	65.1503
2752	65.1
2748	65.1978
2744	65.2831
2740	65.2423
2736	65.2041
2732	65.19
2728	65.1495
2724	65.1481
2720	65.1659
2716	65.1307
2712	65.0961
2708	65.1039
2704	65.1436
2700	65.1891
2696	65.2012
2692	65.1842
2688	65.1256
2684	65.0058
2680	64.9181
2676	64.9307
2672	65.0095
2668	65.0895
2664	65.1276
2660	65.1614
2656	65.1761
2652	65.1695
2648	65.1876
2644	65.1557
2640	65.1046
2636	65.1229
2632	65.1245
2628	65.0774
2624	65.0771
2620	65.141
2616	65.1637
2612	65.1263
2608	65.1278
2604	65.1367
2600	65.1335
2596	65.1698
2592	65.1379
2588	65.0669
2584	65.1146
2580	65.1983
2576	65.1874
2572	65.1063
2568	65.0698
2564	65.1196
2560	65.1767
2556	65.1907
2552	65.2
2548	65.2137
2544	65.1668
2540	65.1026
2536	65.089
2532	65.1345
2528	65.2052
2524	65.1866
2520	65.1716
2516	65.2568
2512	65.273
2508	65.2174
2504	65.2057
2500	65.2234
2496	65.244
2492	65.2332
2488	65.1889
2484	65.1576
2480	65.1844
2476	65.2728
2472	65.3191
2468	65.2333
2464	65.1423
2460	65.1849
2456	65.2534
2452	65.232
2448	65.1937
2444	65.2282
2440	65.2606
2436	65.2153
2432	65.1647
2428	65.1758
2424	65.1823
2420	65.1175
2416	65.0897
2412	65.1662
2408	65.2041
2404	65.1247
2400	65.0578
2396	65.1036
2392	65.1992
2388	65.2269
2384	65.1935
2380	65.1744
2376	65.156
2372	65.1416
2368	65.1484
2364	65.1762
2360	65.2289
2356	65.2776
2352	65.2885
2348	65.2683
2344	65.2276
2340	65.1792
2336	65.172
2332	65.2018
2328	65.2104
2324	65.1988
2320	65.2243
2316	65.2525
2312	65.2395
2308	65.1992
2304	65.14
2300	65.1357
2296	65.1779
2292	65.1784
2288	65.1802
2284	65.2411
2280	65.2879
2276	65.2605
2272	65.1876
2268	65.129
2264	65.1453
2260	65.2102
2256	65.2614
2252	65.2599
2248	65.2377
2244	65.2392
2240	65.2245
2236	65.195
2232	65.1766
2228	65.1733
2224	65.2075
2220	65.2502
2216	65.2873
2212	65.3078
2208	65.2562
2204	65.1736
2200	65.0998
2196	65.0429
2192	65.0583
2188	65.1499
2184	65.2209
2180	65.2353
2176	65.2524
2172	65.2607
2168	65.2657
2164	65.291
2160	65.3019
2156	65.3001
2152	65.2742
2148	65.2205
2144	65.19
2140	65.1763
2136	65.1688
2132	65.1654
2128	65.1391
2124	65.1767
2120	65.2675
2116	65.2464
2112	65.1511
2108	65.1446
2104	65.223
2100	65.2442
2096	65.1831
2092	65.1392
2088	65.1744
2084	65.2272
2080	65.2015
2076	65.1323
2072	65.1228
2068	65.169
2064	65.18
2060	65.1535
2056	65.142
2052	65.1386
2048	65.1223
2044	65.1329
2040	65.1967
2036	65.2313
2032	65.2023
2028	65.1701
2024	65.1929
2020	65.2669
2016	65.3021
2012	65.2754
2008	65.2712
2004	65.2866
2000	65.2488
1996	65.1956
1992	65.1736
1988	65.1862
1984	65.252
1980	65.318
1976	65.3232
1972	65.2901
1968	65.2669
1964	65.237
1960	65.2043
1956	65.1771
1952	65.1224
1948	65.1224
1944	65.1834
1940	65.2204
1936	65.244
1932	65.2472
1928	65.2345
1924	65.2142
1920	65.2078
1916	65.2397
1912	65.2557
1908	65.2281
1904	65.1946
1900	65.2173
1896	65.2815
1892	65.301
1888	65.276
1884	65.2945
1880	65.3224
1876	65.2671
1872	65.2057
1868	65.2001
1864	65.2103
1860	65.2397
1856	65.3061
1852	65.3357
1848	65.2936
1844	65.2534
1840	65.2364
1836	65.2715
1832	65.3211
1828	65.301
1824	65.2832
1820	65.2841
1816	65.247
1812	65.238
1808	65.2885
1804	65.3106
1800	65.2873
1796	65.3061
1792	65.3848
1788	65.3991
1784	65.2969
1780	65.227
1776	65.2724
1772	65.3114
1768	65.2877
1764	65.2743
1760	65.2396
1756	65.2095
1752	65.2405
1748	65.2111
1744	65.1496
1740	65.1546
1736	65.1813
1732	65.1453
1728	65.0465
1724	65.0163
1720	65.0809
1716	65.1316
1712	65.106
1708	65.1101
1704	65.2112
1700	65.3106
1696	65.3036
1692	65.2472
1688	65.3106
1684	65.3638
1680	65.248
1676	65.1779
1672	65.2114
1668	65.2269
1664	65.2488
1660	65.2881
1656	65.3982
1652	65.5173
1648	65.4711
1644	65.3309
1640	65.2362
1636	65.1807
1632	65.1462
1628	65.1649
1624	65.1723
1620	65.2011
1616	65.2545
1612	65.1839
1608	65.0955
1604	65.0898
1600	65.0868
1596	65.0757
1592	65.0747
1588	65.0906
1584	65.1172
1580	65.1505
1576	65.1554
1572	65.1236
1568	65.144
1564	65.3172
1560	65.4857
1556	65.4225
1552	65.2978
1548	65.3055
1544	65.3696
1540	65.3368
1536	65.2668
1532	65.2219
1528	65.211
1524	65.2972
1520	65.3026
1516	65.2108
1512	65.2807
1508	65.4151
1504	65.3657
1500	65.2865
1496	65.3029
1492	65.2752
1488	65.2167
1484	65.2013
1480	65.249
1476	65.3337
1472	65.3572
1468	65.3244
1464	65.3486
1460	65.4405
1456	65.4138
1452	65.272
1448	65.1977
1444	65.1413
1440	65.1326
1436	65.2119
1432	65.2539
1428	65.2619
1424	65.307
1420	65.3243
1416	65.2351
1412	65.1612
1408	65.1667
1404	65.1837
1400	65.2026
1396	65.2155
1392	65.206
1388	65.1409
1384	65.0439
1380	64.9924
1376	65.0322
1372	65.0844
1368	65.0232
1364	64.9613
1360	65.0081
1356	65.0802
1352	65.1023
1348	65.0715
1344	65.049
1340	65.0563
1336	65.0547
1332	65.0546
1328	65.0698
1324	65.0958
1320	65.1313
1316	65.1258
1312	65.1055
1308	65.1156
1304	65.0651
1300	64.9977
1296	65.0055
1292	65.0268
1288	65.0113
1284	65.0152
1280	65.0834
1276	65.1209
1272	65.07
1268	65.0191
1264	65.0246
1260	65.0587
1256	65.083
1252	65.0737
1248	65.0574
1244	65.0515
1240	65.0498
1236	65.0435
1232	65.0243
1228	65.0568
1224	65.1446
1220	65.197
1216	65.2039
1212	65.2153
1208	65.2298
1204	65.2383
1200	65.206
1196	65.1332
1192	65.0585
1188	64.9694
1184	64.9545
1180	65.0366
1176	65.1228
1172	65.159
1168	65.1308
1164	65.0985
1160	65.1451
1156	65.2401
1152	65.2208
1148	65.1183
1144	65.0371
1140	64.9571
1136	64.9754
1132	65.1216
1128	65.2055
1124	65.1762
1120	65.1067
1116	65.0391
1112	65.067
1108	65.1092
1104	65.0317
1100	64.9565
1096	64.9861
1092	65.0573
1088	65.1228
1084	65.1686
1080	65.1926
1076	65.169
1072	65.0678
1068	64.9886
1064	65.0221
1060	65.0824
1056	65.1091
1052	65.0792
1048	64.9343
1044	64.8378
1040	64.9019
1036	64.9246
1032	64.8821
1028	64.966
1024	65.1401
1020	65.1842
1016	65.1084
1012	65.123
1008	65.1819
1004	65.1526
1000	65.1219
996	 65.1438
992	 65.1821
988	 65.1726
984	 65.026
980	 64.887
976	 64.9857
972	 65.1831
968	 65.258
964	 65.2486
960	 65.2606
956	 65.2781
952	 65.2411
948	 65.2369
944	 65.2668
940	 65.303
936	 65.4228
932	 65.5175
928	 65.4181
924	 65.2841
920	 65.3077
916	 65.3129
912	 65.2211
908	 65.1599
904	 65.1329
900	 65.1192
896	 65.153
892	 65.2477
888	 65.2788
884	 65.1788
880	 65.1149
876	 65.1982
872	 65.388
868	 65.5119
864	 65.5126
860	 65.4663
856	 65.3621
852	 65.2923
848	 65.2627
844	 65.1901
840	 65.1907
836	 65.236
832	 65.1354
828	 65.1513
824	 65.4673
820	 65.5954
816	 65.4209
812	 65.2529
808	 65.1802
804	 65.1911
800	 65.2569
796	 65.3215
792	 65.3569
788	 65.3718
784	 65.4043
780	 65.5337
776	 65.6777
772	 65.6366
768	 65.4227
764	 65.3027
760	 65.384
756	 65.4435
752	 65.338
748	 65.2451
744	 65.3246
740	 65.368
736	 65.2274
732	 65.1267
728	 65.1575
724	 65.2377
720	 65.3064
716	 65.3262
712	 65.3428
708	 65.3856
704	 65.3535
700	 65.2409
696	 65.138
692	 64.9769
688	 64.8572
684	 64.9282
680	 65.1834
676	 65.4854
672	 65.5856
668	 65.511
664	 65.5999
660	 65.7851
656	 65.6965
652	 65.5626
648	 65.525
644	 65.4485
640	 65.521
636	 65.6414
632	 65.427
628	 65.1838
624	 65.363
620	 65.6698
616	 65.8185
612	 65.8103
608	 65.614
604	 65.2845
600	 65.1175
596	 65.3635
592	 65.6978
588	 65.6179
584	 65.3642
580	 65.3695
576	 65.6246
572	 65.9912
568	 66.2052
564	 66.1905
560	 66.0897
556	 66.0441
552	 66.1694
548	 66.4077
544	 66.6132
540	 66.5061
536	 66.0954
532	 65.9209
528	 65.9355
524	 65.9111
520	 65.9941
516	 65.9741
512	 65.9253
508	 66.1338
504	 66.121
500	 66.0071
496	 66.2883
492	 66.4802
488	 66.3261
484	 66.5509
480	 66.8049
476	 66.4399
472	 66.1899
468	 65.9902
464	 65.4496
460	 65.3271
456	 65.6779
452	 65.7041
448	 65.6121
444	 66.2209
440	 67.2759
436	 68.2805
432	 68.2251
428	 67.1228
424	 66.5073
420	 65.934
416	 64.6196
412	 63.9407
408	 65.9679
404	 68.9499
400	 68.5964
396	 66.2544
392	 70.2764
388	 81.5223
384	 83.5415
380	 72.5973
376	 62.9252
372	 58.7165
370	 53.9797