File: Bakgrunnsmateriale/MATLAB/FTIR/ftir_data/subCa/Mapping_25/BZ12041010-4_t04_cm-1.asc
PE IR       SPECTRUM    SPECTRUM    ASCII       PEDS        1.60
  -1
BZABFE~1.ASC
17/04/10
09:10:12.00
17/04/10
09:10:12.00
tln
$BZ12041010-4_t0004$<tbV0>[-2.6,-12.4,9.0,0.0,22,1,0]
370
64

2002,4.07
MIRTGS : RIGHTBACK : INTERNAL 2
MIR : ON : INTERNAL 2
OPTKBR

0.200000
8
8.000000
FILLER
RATIO
SPECTRUM
UNLOCKED 256

DOUBLE
64
COMBINED
1
0
0

1.000000
RATIO

1
0
TRUE
51149
0
LEFT NOT FITTED RIGHT NOT FITTED 0
NONE
NONE
15600
12
4.427000
51148
TRUE
1 0 8 72 0 0 0 0

15798

#HDR
-1
-1
#GR
CM-1
%T
2.38419e-05
0.0
5000
-1.000000
4631
8
75.1068
35.0248
#DATA
5000	65.035
4996	64.7899
4992	64.379
4988	64.2526
4984	64.4205
4980	64.5348
4976	64.36
4972	64.3578
4968	64.6317
4964	64.7561
4960	64.9017
4956	64.9576
4952	64.8144
4948	64.7213
4944	64.6686
4940	64.6796
4936	64.8793
4932	65.152
4928	65.1896
4924	65.1016
4920	65.0564
4916	64.9351
4912	64.801
4908	64.714
4904	64.5732
4900	64.4481
4896	64.3339
4892	64.3995
4888	64.8318
4884	65.2691
4880	65.3458
4876	65.0088
4872	64.8133
4868	65.0173
4864	64.954
4860	64.7396
4856	65.173
4852	65.563
4848	65.2888
4844	65.1255
4840	64.9994
4836	64.4825
4832	64.1516
4828	64.5452
4824	64.7338
4820	64.56
4816	64.7659
4812	64.1425
4808	62.8577
4804	63.3924
4800	64.9097
4796	65.0112
4792	64.8101
4788	64.6508
4784	63.7755
4780	63.3654
4776	63.9657
4772	64.6776
4768	64.8704
4764	65.4049
4760	66.1752
4756	65.6464
4752	64.3876
4748	64.0863
4744	64.4385
4740	64.6317
4736	64.6975
4732	64.4871
4728	64.1833
4724	64.3459
4720	65.0602
4716	65.8636
4712	66.1211
4708	65.6142
4704	64.4603
4700	63.5055
4696	63.4775
4692	63.7593
4688	64.1854
4684	64.5286
4680	64.1891
4676	64.0002
4672	64.5869
4668	64.9167
4664	64.7619
4660	64.7682
4656	64.7972
4652	65.2596
4648	66.0562
4644	66.1774
4640	65.6568
4636	65.2838
4632	65.4787
4628	65.7174
4624	65.4173
4620	65.1338
4616	65.3152
4612	65.3484
4608	65.0857
4604	64.9665
4600	65.0205
4596	64.9531
4592	64.8295
4588	64.9149
4584	65.0766
4580	65.2904
4576	65.5796
4572	65.713
4568	65.5643
4564	65.4473
4560	65.6601
4556	65.8188
4552	65.8198
4548	65.7965
4544	65.6838
4540	65.5232
4536	65.4342
4532	65.4177
4528	65.5321
4524	65.7312
4520	65.8643
4516	66.2687
4512	66.5303
4508	66.2426
4504	66.0023
4500	65.7331
4496	63.9957
4492	61.2272
4488	60.6239
4484	61.2526
4480	62.3579
4476	60.2636
4472	50.594
4468	44.8126
4464	49.7166
4460	58.7989
4456	64.8662
4452	65.8676
4448	65.3597
4444	65.6101
4440	66.4424
4436	66.5002
4432	66.1954
4428	66.1074
4424	66.0172
4420	66.2114
4416	66.5163
4412	66.5088
4408	66.3541
4404	66.3396
4400	66.3286
4396	65.979
4392	65.6109
4388	65.6544
4384	65.7834
4380	65.7051
4376	65.6914
4372	65.8673
4368	65.8577
4364	65.7263
4360	65.648
4356	65.5307
4352	65.5611
4348	65.7429
4344	65.8861
4340	65.9698
4336	65.9017
4332	65.7174
4328	65.5847
4324	65.4247
4320	65.2491
4316	65.368
4312	65.6188
4308	65.5738
4304	65.4294
4300	65.3019
4296	65.1116
4292	64.9909
4288	65.0237
4284	65.308
4280	65.5778
4276	65.5231
4272	65.3883
4268	65.2997
4264	65.2646
4260	65.1859
4256	64.9679
4252	64.9011
4248	64.9603
4244	64.9476
4240	64.9552
4236	64.8911
4232	64.6949
4228	64.608
4224	64.6791
4220	64.8345
4216	64.9436
4212	64.815
4208	64.5599
4204	64.4589
4200	64.6365
4196	64.7946
4192	64.8
4188	64.8897
4184	65.0521
4180	65.1979
4176	65.2964
4172	65.2855
4168	65.1484
4164	65.0301
4160	64.9971
4156	64.8838
4152	64.6801
4148	64.5217
4144	64.5041
4140	64.6647
4136	64.9284
4132	65.1216
4128	65.1891
4124	65.2394
4120	65.1544
4116	64.9671
4112	65.0054
4108	65.0867
4104	65.0255
4100	64.9986
4096	65.0815
4092	65.2167
4088	65.2215
4084	65.1163
4080	65.0292
4076	64.9761
4072	65.0219
4068	65.1389
4064	65.2057
4060	65.1784
4056	65.112
4052	65.1418
4048	65.2902
4044	65.2563
4040	64.9994
4036	64.9378
4032	65.0427
4028	65.0341
4024	65.0616
4020	65.206
4016	65.2596
4012	65.2423
4008	65.1747
4004	65.0234
4000	65.0643
3996	65.2738
3992	65.403
3988	65.5021
3984	65.5326
3980	65.4092
3976	65.3003
3972	65.2862
3968	65.2915
3964	65.3593
3960	65.4265
3956	65.3577
3952	65.348
3948	65.4614
3944	65.3553
3940	65.1243
3936	65.1546
3932	65.3519
3928	65.4529
3924	65.352
3920	65.2069
3916	65.2294
3912	65.3131
3908	65.366
3904	65.4689
3900	65.5727
3896	65.5396
3892	65.4351
3888	65.3996
3884	65.3758
3880	65.3338
3876	65.3664
3872	65.4442
3868	65.4783
3864	65.3619
3860	65.2172
3856	65.277
3852	65.3126
3848	65.2257
3844	65.2545
3840	65.3697
3836	65.3903
3832	65.3219
3828	65.2881
3824	65.3239
3820	65.3416
3816	65.2487
3812	65.1697
3808	65.241
3804	65.3924
3800	65.4797
3796	65.4412
3792	65.3142
3788	65.2577
3784	65.263
3780	65.1947
3776	65.182
3772	65.2492
3768	65.2914
3764	65.3256
3760	65.327
3756	65.3772
3752	65.5207
3748	65.604
3744	65.5645
3740	65.5242
3736	65.594
3732	65.5758
3728	65.3472
3724	65.1125
3720	65.0757
3716	65.1938
3712	65.2635
3708	65.2977
3704	65.3402
3700	65.3335
3696	65.3309
3692	65.345
3688	65.2864
3684	65.2119
3680	65.2645
3676	65.4148
3672	65.441
3668	65.272
3664	65.1436
3660	65.2157
3656	65.3657
3652	65.4651
3648	65.4346
3644	65.3535
3640	65.4167
3636	65.54
3632	65.6163
3628	65.573
3624	65.4506
3620	65.3954
3616	65.3558
3612	65.3404
3608	65.3773
3604	65.443
3600	65.478
3596	65.3929
3592	65.314
3588	65.3578
3584	65.3617
3580	65.3063
3576	65.3162
3572	65.3045
3568	65.3221
3564	65.4194
3560	65.4375
3556	65.4406
3552	65.5111
3548	65.4486
3544	65.2401
3540	65.2371
3536	65.4238
3532	65.5028
3528	65.4776
3524	65.3948
3520	65.3167
3516	65.3123
3512	65.2794
3508	65.2106
3504	65.2287
3500	65.2989
3496	65.2869
3492	65.2528
3488	65.276
3484	65.2851
3480	65.2434
3476	65.2174
3472	65.2899
3468	65.3896
3464	65.4567
3460	65.4705
3456	65.3759
3452	65.3108
3448	65.3259
3444	65.345
3440	65.4106
3436	65.4277
3432	65.2927
3428	65.1407
3424	65.1392
3420	65.275
3416	65.4176
3412	65.4919
3408	65.4508
3404	65.3339
3400	65.2799
3396	65.308
3392	65.3096
3388	65.2636
3384	65.247
3380	65.2589
3376	65.2737
3372	65.2316
3368	65.1087
3364	65.0822
3360	65.1887
3356	65.2824
3352	65.2735
3348	65.167
3344	65.1184
3340	65.1719
3336	65.2166
3332	65.2404
3328	65.1862
3324	65.1354
3320	65.2212
3316	65.3248
3312	65.3644
3308	65.3005
3304	65.2071
3300	65.1906
3296	65.2041
3292	65.2154
3288	65.2316
3284	65.2847
3280	65.309
3276	65.232
3272	65.2061
3268	65.278
3264	65.352
3260	65.4019
3256	65.3675
3252	65.3125
3248	65.2856
3244	65.218
3240	65.1586
3236	65.1878
3232	65.2276
3228	65.1641
3224	65.1098
3220	65.1313
3216	65.1734
3212	65.2381
3208	65.248
3204	65.134
3200	65.0429
3196	65.0894
3192	65.1349
3188	65.1224
3184	65.1965
3180	65.2864
3176	65.1842
3172	65.0917
3168	65.1433
3164	65.1681
3160	65.208
3156	65.235
3152	65.1933
3148	65.2237
3144	65.3012
3140	65.3202
3136	65.3273
3132	65.3187
3128	65.2293
3124	65.1485
3120	65.1751
3116	65.2439
3112	65.2463
3108	65.2075
3104	65.2102
3100	65.2836
3096	65.3814
3092	65.4298
3088	65.3847
3084	65.2913
3080	65.2322
3076	65.2068
3072	65.1503
3068	65.111
3064	65.1712
3060	65.2834
3056	65.3312
3052	65.2969
3048	65.275
3044	65.2632
3040	65.2069
3036	65.109
3032	65.0935
3028	65.2105
3024	65.321
3020	65.356
3016	65.3005
3012	65.2005
3008	65.1572
3004	65.1729
3000	65.2129
2996	65.2297
2992	65.1867
2988	65.1364
2984	65.1289
2980	65.1517
2976	65.1624
2972	65.1413
2968	65.1143
2964	65.0969
2960	65.0632
2956	65.0255
2952	65.0304
2948	65.1033
2944	65.2036
2940	65.1806
2936	65.0584
2932	65.0222
2928	65.1074
2924	65.2145
2920	65.2386
2916	65.2232
2912	65.21
2908	65.1867
2904	65.2174
2900	65.2861
2896	65.2976
2892	65.2724
2888	65.2381
2884	65.1921
2880	65.1924
2876	65.2143
2872	65.1633
2868	65.1292
2864	65.2147
2860	65.2863
2856	65.2804
2852	65.271
2848	65.2583
2844	65.2148
2840	65.191
2836	65.2539
2832	65.3259
2828	65.3106
2824	65.2518
2820	65.2
2816	65.1755
2812	65.1829
2808	65.2015
2804	65.2585
2800	65.3244
2796	65.3553
2792	65.3594
2788	65.3218
2784	65.264
2780	65.2617
2776	65.3015
2772	65.2937
2768	65.2714
2764	65.2669
2760	65.2649
2756	65.2983
2752	65.3898
2748	65.4283
2744	65.3063
2740	65.2143
2736	65.2745
2732	65.3141
2728	65.2794
2724	65.2778
2720	65.3386
2716	65.3492
2712	65.2354
2708	65.1619
2704	65.2408
2700	65.3231
2696	65.2988
2692	65.2335
2688	65.1855
2684	65.1466
2680	65.1417
2676	65.2072
2672	65.2868
2668	65.3154
2664	65.3191
2660	65.3202
2656	65.3181
2652	65.3425
2648	65.3559
2644	65.3058
2640	65.3003
2636	65.3852
2632	65.4155
2628	65.3413
2624	65.2777
2620	65.3171
2616	65.3796
2612	65.3212
2608	65.2247
2604	65.2321
2600	65.295
2596	65.3264
2592	65.3127
2588	65.3141
2584	65.3703
2580	65.4292
2576	65.4475
2572	65.4579
2568	65.4427
2564	65.3439
2560	65.225
2556	65.1785
2552	65.2343
2548	65.2866
2544	65.26
2540	65.2638
2536	65.317
2532	65.3557
2528	65.3596
2524	65.3252
2520	65.3221
2516	65.3803
2512	65.4018
2508	65.3506
2504	65.314
2500	65.352
2496	65.3916
2492	65.3383
2488	65.2421
2484	65.1914
2480	65.2206
2476	65.2633
2472	65.2869
2468	65.2717
2464	65.215
2460	65.2874
2456	65.4254
2452	65.3995
2448	65.2784
2444	65.269
2440	65.3513
2436	65.3923
2432	65.3825
2428	65.3346
2424	65.3001
2420	65.3123
2416	65.2944
2412	65.23
2408	65.1756
2404	65.1602
2400	65.2002
2396	65.2823
2392	65.3326
2388	65.3188
2384	65.278
2380	65.2623
2376	65.3017
2372	65.3489
2368	65.3664
2364	65.3716
2360	65.3791
2356	65.3853
2352	65.3406
2348	65.2659
2344	65.2756
2340	65.3515
2336	65.3695
2332	65.3305
2328	65.3164
2324	65.3231
2320	65.3363
2316	65.3502
2312	65.3456
2308	65.3436
2304	65.3378
2300	65.329
2296	65.3442
2292	65.3531
2288	65.3446
2284	65.3781
2280	65.4449
2276	65.465
2272	65.4112
2268	65.3227
2264	65.2603
2260	65.2705
2256	65.3221
2252	65.303
2248	65.241
2244	65.2351
2240	65.2481
2236	65.2305
2232	65.2377
2228	65.3321
2224	65.4446
2220	65.4615
2216	65.3799
2212	65.3183
2208	65.3342
2204	65.3448
2200	65.3254
2196	65.3505
2192	65.384
2188	65.3607
2184	65.3441
2180	65.3502
2176	65.3325
2172	65.3078
2168	65.3038
2164	65.3373
2160	65.3792
2156	65.3777
2152	65.3814
2148	65.3777
2144	65.3342
2140	65.3367
2136	65.3762
2132	65.3595
2128	65.3027
2124	65.2752
2120	65.2763
2116	65.314
2112	65.3213
2108	65.2786
2104	65.3222
2100	65.4034
2096	65.4241
2092	65.4198
2088	65.3962
2084	65.3765
2080	65.3596
2076	65.3097
2072	65.2905
2068	65.3357
2064	65.3574
2060	65.3344
2056	65.3172
2052	65.2939
2048	65.2741
2044	65.2938
2040	65.3357
2036	65.366
2032	65.3646
2028	65.3399
2024	65.3174
2020	65.3142
2016	65.3199
2012	65.3063
2008	65.3032
2004	65.3331
2000	65.3494
1996	65.3244
1992	65.3001
1988	65.3053
1984	65.311
1980	65.325
1976	65.3268
1972	65.3185
1968	65.323
1964	65.3353
1960	65.3627
1956	65.3534
1952	65.3142
1948	65.3321
1944	65.3761
1940	65.3868
1936	65.381
1932	65.3494
1928	65.3203
1924	65.3576
1920	65.3758
1916	65.3328
1912	65.3178
1908	65.3244
1904	65.3278
1900	65.3605
1896	65.4109
1892	65.4113
1888	65.3404
1884	65.3014
1880	65.3297
1876	65.3296
1872	65.3055
1868	65.3251
1864	65.3727
1860	65.4259
1856	65.4372
1852	65.3957
1848	65.3785
1844	65.3671
1840	65.3486
1836	65.3929
1832	65.4687
1828	65.4644
1824	65.3646
1820	65.3063
1816	65.3452
1812	65.4082
1808	65.4622
1804	65.5091
1800	65.4826
1796	65.4145
1792	65.4582
1788	65.523
1784	65.4798
1780	65.4183
1776	65.46
1772	65.5494
1768	65.5527
1764	65.4726
1760	65.3666
1756	65.3032
1752	65.2777
1748	65.2213
1744	65.2041
1740	65.2637
1736	65.3154
1732	65.2661
1728	65.13
1724	65.1155
1720	65.2556
1716	65.3336
1712	65.3061
1708	65.3105
1704	65.4148
1700	65.5558
1696	65.5437
1692	65.395
1688	65.4085
1684	65.5347
1680	65.5167
1676	65.4716
1672	65.4796
1668	65.4501
1664	65.4235
1660	65.4535
1656	65.5724
1652	65.6708
1648	65.6406
1644	65.5338
1640	65.4047
1636	65.3329
1632	65.3041
1628	65.2953
1624	65.3474
1620	65.4242
1616	65.4362
1612	65.3702
1608	65.3344
1604	65.3744
1600	65.4089
1596	65.3633
1592	65.2776
1588	65.2647
1584	65.3455
1580	65.3909
1576	65.3431
1572	65.3032
1568	65.3391
1564	65.5149
1560	65.698
1556	65.5611
1552	65.3417
1548	65.4177
1544	65.583
1540	65.5806
1536	65.4883
1532	65.4343
1528	65.4287
1524	65.4498
1520	65.4361
1516	65.3727
1512	65.4201
1508	65.5448
1504	65.5311
1500	65.5323
1496	65.6053
1492	65.5494
1488	65.4544
1484	65.3584
1480	65.2919
1476	65.3481
1472	65.4376
1468	65.4197
1464	65.3473
1460	65.3781
1456	65.353
1452	65.1793
1448	65.0769
1444	65.0883
1440	65.1856
1436	65.3195
1432	65.3928
1428	65.4074
1424	65.4155
1420	65.4068
1416	65.3342
1412	65.2629
1408	65.2606
1404	65.2783
1400	65.2837
1396	65.2871
1392	65.2467
1388	65.1914
1384	65.1868
1380	65.1781
1376	65.1571
1372	65.1757
1368	65.2071
1364	65.2014
1360	65.1448
1356	65.1214
1352	65.1774
1348	65.2361
1344	65.275
1340	65.3013
1336	65.2674
1332	65.1812
1328	65.1178
1324	65.1212
1320	65.1764
1316	65.2285
1312	65.2882
1308	65.3777
1304	65.4156
1300	65.3595
1296	65.2671
1292	65.2301
1288	65.2242
1284	65.1905
1280	65.1727
1276	65.1583
1272	65.1181
1268	65.0975
1264	65.1443
1260	65.2364
1256	65.2866
1252	65.2534
1248	65.2158
1244	65.2283
1240	65.2391
1236	65.2132
1232	65.1878
1228	65.2372
1224	65.3501
1220	65.398
1216	65.3482
1212	65.3271
1208	65.3513
1204	65.3274
1200	65.2305
1196	65.1611
1192	65.161
1188	65.1667
1184	65.1413
1180	65.099
1176	65.1642
1172	65.3197
1168	65.3529
1164	65.2572
1160	65.2173
1156	65.2255
1152	65.1986
1148	65.1663
1144	65.103
1140	65.0496
1136	65.1168
1132	65.2272
1128	65.2799
1124	65.3174
1120	65.3319
1116	65.2682
1112	65.1187
1108	64.9606
1104	64.9428
1100	65.0183
1096	65.0491
1092	65.08
1088	65.1819
1084	65.2695
1080	65.3074
1076	65.3263
1072	65.2258
1068	65.1454
1064	65.2093
1060	65.2302
1056	65.1915
1052	65.2071
1048	65.2042
1044	65.0631
1040	64.9868
1036	65.0922
1032	65.1796
1028	65.2054
1024	65.216
1020	65.1125
1016	64.9436
1012	64.9523
1008	65.1042
1004	65.1949
1000	65.239
996	 65.219
992	 65.1819
988	 65.2888
984	 65.3657
980	 65.2959
976	 65.2301
972	 65.2233
968	 65.2297
964	 65.2099
960	 65.2558
956	 65.3233
952	 65.2507
948	 65.1928
944	 65.2366
940	 65.2692
936	 65.3259
932	 65.3909
928	 65.3745
924	 65.3506
920	 65.3624
916	 65.3324
912	 65.2893
908	 65.2843
904	 65.3516
900	 65.4516
896	 65.4244
892	 65.3116
888	 65.2914
884	 65.4134
880	 65.5021
876	 65.3788
872	 65.2404
868	 65.3055
864	 65.4145
860	 65.408
856	 65.3917
852	 65.4001
848	 65.4171
844	 65.4608
840	 65.4335
836	 65.3439
832	 65.2833
828	 65.302
824	 65.312
820	 65.2798
816	 65.3529
812	 65.4525
808	 65.4782
804	 65.471
800	 65.4645
796	 65.4799
792	 65.4746
788	 65.4079
784	 65.3835
780	 65.5077
776	 65.6363
772	 65.5708
768	 65.4116
764	 65.3672
760	 65.4309
756	 65.4657
752	 65.4961
748	 65.5556
744	 65.499
740	 65.4191
736	 65.4377
732	 65.4129
728	 65.3301
724	 65.3059
720	 65.3479
716	 65.3904
712	 65.4421
708	 65.4542
704	 65.381
700	 65.3759
696	 65.4864
692	 65.5612
688	 65.5607
684	 65.5416
680	 65.4954
676	 65.482
672	 65.5305
668	 65.5004
664	 65.3965
660	 65.3267
656	 65.3474
652	 65.4362
648	 65.5018
644	 65.5899
640	 65.6596
636	 65.5813
632	 65.4747
628	 65.3781
624	 65.4278
620	 65.7387
616	 65.991
612	 65.9901
608	 65.7098
604	 65.3094
600	 65.1191
596	 65.235
592	 65.541
588	 65.7205
584	 65.7215
580	 65.6222
576	 65.6625
572	 66.0428
568	 66.3073
564	 66.2883
560	 66.2572
556	 66.2313
552	 66.1815
548	 66.1243
544	 66.0352
540	 66.0651
536	 66.1543
532	 66.2872
528	 66.5163
524	 66.4838
520	 66.2319
516	 66.242
512	 66.6282
508	 66.9787
504	 66.6932
500	 66.2581
496	 66.2827
492	 66.3387
488	 66.1163
484	 66.076
480	 66.3368
476	 66.4176
472	 66.4495
468	 66.4572
464	 66.1019
460	 65.6062
456	 65.6513
452	 66.1932
448	 66.4709
444	 66.5118
440	 66.8534
436	 67.609
432	 67.9475
428	 67.3402
424	 66.0308
420	 65.0261
416	 65.9593
412	 68.3247
408	 69.8848
404	 67.693
400	 64.2232
396	 67.6556
392	 74.2665
388	 73.6487
384	 65.8101
380	 53.9268
376	 47.3681
372	 40.9156
370	 35.0248