File: Bakgrunnsmateriale/MATLAB/FTIR/ftir_data/subCa/Mapping_25/BZ12041010-4_t14_cm-1.asc
PE IR       SPECTRUM    SPECTRUM    ASCII       PEDS        1.60
  -1
BZ2CFE~1.ASC
17/04/10
10:04:24.00
17/04/10
10:04:24.00
tln
$BZ12041010-4_t0014$<tbV0>[-2.6,-7.2,9.0,0.0,22,1,0]
370
64

2002,4.07
MIRTGS : RIGHTBACK : INTERNAL 2
MIR : ON : INTERNAL 2
OPTKBR

0.200000
8
8.000000
FILLER
RATIO
SPECTRUM
UNLOCKED 256

DOUBLE
64
COMBINED
1
0
0

1.000000
RATIO

1
0
TRUE
51149
0
LEFT NOT FITTED RIGHT NOT FITTED 0
NONE
NONE
15600
12
4.427000
51148
TRUE
1 0 8 72 0 0 0 0

15798

#HDR
-1
-1
#GR
CM-1
%T
2.38419e-05
0.0
5000
-1.000000
4631
8
96.8077
48.8013
#DATA
5000	64.6823
4996	64.5195
4992	64.7312
4988	65.0123
4984	64.8966
4980	64.5722
4976	64.596
4972	64.9635
4968	65.0565
4964	64.8651
4960	64.77
4956	64.7594
4952	64.6492
4948	64.5205
4944	64.402
4940	64.3842
4936	64.8058
4932	65.1814
4928	65.0115
4924	64.9423
4920	65.0051
4916	64.7365
4912	64.5942
4908	64.7131
4904	64.7258
4900	64.6407
4896	64.6798
4892	65.0752
4888	65.5127
4884	65.4686
4880	65.1801
4876	65.2742
4872	65.671
4868	65.5706
4864	64.1428
4860	62.9535
4856	63.989
4852	65.343
4848	66.0336
4844	66.3159
4840	65.4839
4836	64.974
4832	64.9677
4828	64.7591
4824	65.4527
4820	65.7304
4816	64.6723
4812	64.167
4808	64.7706
4804	65.4856
4800	65.4694
4796	65.0224
4792	64.6128
4788	64.4391
4784	64.7987
4780	65.4109
4776	65.5524
4772	65.2775
4768	64.9965
4764	64.7717
4760	64.802
4756	64.9975
4752	65.014
4748	64.9525
4744	65.0434
4740	65.407
4736	65.7434
4732	65.7884
4728	65.8489
4724	66.1204
4720	66.2766
4716	65.8742
4712	65.3629
4708	65.2201
4704	65.221
4700	65.3151
4696	65.404
4692	65.3567
4688	65.417
4684	65.4162
4680	65.1097
4676	64.9019
4672	64.854
4668	64.7967
4664	64.8087
4660	64.8258
4656	64.8604
4652	65.0013
4648	64.8981
4644	64.5192
4640	64.5776
4636	64.8405
4632	64.8321
4628	64.8162
4624	64.7782
4620	64.7646
4616	64.6657
4612	64.4307
4608	64.4318
4604	64.5342
4600	64.3727
4596	64.1573
4592	64.2168
4588	64.3507
4584	64.4119
4580	64.3964
4576	64.3156
4572	64.2484
4568	64.2842
4564	64.6025
4560	64.7597
4556	64.3757
4552	63.9909
4548	63.9026
4544	63.9805
4540	64.0259
4536	64.0364
4532	64.1571
4528	64.1347
4524	64.2231
4520	64.6016
4516	64.698
4512	64.528
4508	64.468
4504	64.2471
4500	64.1383
4496	64.3486
4492	64.1586
4488	63.8309
4484	63.7342
4480	63.6798
4476	63.9153
4472	66.3438
4468	75.4158
4464	91.7049
4460	95.3655
4456	79.4498
4452	68.6114
4448	66.5378
4444	65.4111
4440	64.2542
4436	63.6629
4432	63.8072
4428	63.7759
4424	63.7281
4420	63.8141
4416	64.0216
4412	64.3204
4408	64.2943
4404	64.0166
4400	63.7987
4396	63.8402
4392	64.169
4388	64.5604
4384	64.6745
4380	64.505
4376	64.4398
4372	64.4244
4368	64.4821
4364	64.769
4360	64.7925
4356	64.5621
4352	64.499
4348	64.4416
4344	64.3438
4340	64.3251
4336	64.4129
4332	64.6619
4328	64.8403
4324	64.8262
4320	64.7195
4316	64.5754
4312	64.5807
4308	64.6888
4304	64.6938
4300	64.7692
4296	64.9702
4292	65.0237
4288	64.9126
4284	64.8436
4280	64.9362
4276	65.0255
4272	65.0132
4268	65.0049
4264	64.9934
4260	65.0136
4256	65.0058
4252	64.9206
4248	64.892
4244	64.9949
4240	65.2365
4236	65.4953
4232	65.5299
4228	65.3624
4224	65.2129
4220	65.1029
4216	65.1124
4212	65.2493
4208	65.2935
4204	65.3058
4200	65.3625
4196	65.3399
4192	65.3153
4188	65.3516
4184	65.4502
4180	65.6006
4176	65.6244
4172	65.5767
4168	65.6147
4164	65.6014
4160	65.4496
4156	65.2865
4152	65.2487
4148	65.2849
4144	65.2462
4140	65.1981
4136	65.265
4132	65.4161
4128	65.5811
4124	65.5321
4120	65.2834
4116	65.2253
4112	65.377
4108	65.4525
4104	65.4014
4100	65.4259
4096	65.6036
4092	65.6953
4088	65.5993
4084	65.4547
4080	65.3276
4076	65.3288
4072	65.4075
4068	65.2799
4064	65.0495
4060	65.0407
4056	65.2276
4052	65.4343
4048	65.3843
4044	65.1295
4040	65.0678
4036	65.1907
4032	65.3054
4028	65.3286
4024	65.2647
4020	65.2191
4016	65.179
4012	65.1636
4008	65.2971
4004	65.3408
4000	65.143
3996	64.989
3992	65.0377
3988	65.2364
3984	65.32
3980	65.1422
3976	64.9742
3972	64.9998
3968	65.088
3964	65.08
3960	65.0353
3956	65.1904
3952	65.4183
3948	65.3326
3944	65.1736
3940	65.2866
3936	65.4248
3932	65.3745
3928	65.2609
3924	65.2384
3920	65.308
3916	65.3364
3912	65.2434
3908	65.1564
3904	65.126
3900	64.9728
3896	64.8378
3892	64.9909
3888	65.247
3884	65.3175
3880	65.2586
3876	65.2276
3872	65.2145
3868	65.2087
3864	65.2157
3860	65.2315
3856	65.2601
3852	65.2942
3848	65.2563
3844	65.0866
3840	65.0091
3836	65.1456
3832	65.2649
3828	65.2625
3824	65.2042
3820	65.1568
3816	65.1837
3812	65.2764
3808	65.3332
3804	65.2894
3800	65.2845
3796	65.3341
3792	65.2915
3788	65.153
3784	65.0118
3780	64.9696
3776	65.0881
3772	65.2599
3768	65.3877
3764	65.4986
3760	65.4371
3756	65.1919
3752	65.1033
3748	65.2728
3744	65.4474
3740	65.4532
3736	65.4122
3732	65.4305
3728	65.4662
3724	65.486
3720	65.5151
3716	65.5808
3712	65.5665
3708	65.4711
3704	65.4576
3700	65.4577
3696	65.3659
3692	65.3062
3688	65.3306
3684	65.3592
3680	65.329
3676	65.3117
3672	65.345
3668	65.2417
3664	65.0948
3660	65.1202
3656	65.2487
3652	65.4421
3648	65.6172
3644	65.5947
3640	65.4533
3636	65.4302
3632	65.5079
3628	65.4607
3624	65.3247
3620	65.2558
3616	65.2257
3612	65.2456
3608	65.3475
3604	65.4226
3600	65.3779
3596	65.3374
3592	65.3865
3588	65.4331
3584	65.4727
3580	65.5025
3576	65.4417
3572	65.3698
3568	65.3755
3564	65.3843
3560	65.3393
3556	65.3001
3552	65.315
3548	65.2878
3544	65.2435
3540	65.2592
3536	65.3004
3532	65.3471
3528	65.3326
3524	65.2792
3520	65.2735
3516	65.2505
3512	65.1838
3508	65.1328
3504	65.1468
3500	65.2254
3496	65.2592
3492	65.256
3488	65.2647
3484	65.2174
3480	65.1505
3476	65.1999
3472	65.2961
3468	65.2727
3464	65.1951
3460	65.1337
3456	65.1209
3452	65.2096
3448	65.31
3444	65.3706
3440	65.4003
3436	65.3389
3432	65.2109
3428	65.1444
3424	65.1197
3420	65.1214
3416	65.2545
3412	65.3777
3408	65.3768
3404	65.343
3400	65.3199
3396	65.3245
3392	65.3266
3388	65.3008
3384	65.2271
3380	65.1623
3376	65.2219
3372	65.361
3368	65.4917
3364	65.5354
3360	65.4617
3356	65.4315
3352	65.4781
3348	65.487
3344	65.445
3340	65.3956
3336	65.3758
3332	65.3522
3328	65.3305
3324	65.3196
3320	65.298
3316	65.312
3312	65.3412
3308	65.3762
3304	65.3908
3300	65.3818
3296	65.4255
3292	65.4091
3288	65.3347
3284	65.3483
3280	65.3824
3276	65.3389
3272	65.2611
3268	65.2525
3264	65.3093
3260	65.4379
3256	65.56
3252	65.5148
3248	65.4669
3244	65.4924
3240	65.4302
3236	65.3884
3232	65.3964
3228	65.3704
3224	65.3565
3220	65.3507
3216	65.3725
3212	65.3543
3208	65.2954
3204	65.3181
3200	65.3531
3196	65.3054
3192	65.2351
3188	65.2705
3184	65.3432
3180	65.3509
3176	65.3994
3172	65.4359
3168	65.3636
3164	65.2891
3160	65.2529
3156	65.2795
3152	65.3811
3148	65.3838
3144	65.2687
3140	65.225
3136	65.2857
3132	65.3661
3128	65.4002
3124	65.3628
3120	65.3194
3116	65.3298
3112	65.3304
3108	65.3097
3104	65.3318
3100	65.3817
3096	65.3937
3092	65.3251
3088	65.2559
3084	65.292
3080	65.3705
3076	65.4048
3072	65.3923
3068	65.3426
3064	65.3265
3060	65.3767
3056	65.4425
3052	65.4565
3048	65.3736
3044	65.2614
3040	65.2454
3036	65.3191
3032	65.3404
3028	65.2324
3024	65.0851
3020	65.061
3016	65.1787
3012	65.2552
3008	65.2181
3004	65.1886
3000	65.2084
2996	65.2421
2992	65.284
2988	65.2873
2984	65.2425
2980	65.2454
2976	65.3077
2972	65.3619
2968	65.418
2964	65.4273
2960	65.334
2956	65.2706
2952	65.2573
2948	65.2337
2944	65.2372
2940	65.2514
2936	65.2731
2932	65.285
2928	65.2173
2924	65.0944
2920	65.0637
2916	65.1493
2912	65.2361
2908	65.2987
2904	65.3301
2900	65.3358
2896	65.37
2892	65.3652
2888	65.2918
2884	65.2833
2880	65.3397
2876	65.336
2872	65.2755
2868	65.2218
2864	65.2251
2860	65.3038
2856	65.3724
2852	65.3167
2848	65.1865
2844	65.1334
2840	65.2442
2836	65.4269
2832	65.4837
2828	65.4176
2824	65.3568
2820	65.3616
2816	65.3989
2812	65.4004
2808	65.3693
2804	65.3246
2800	65.3101
2796	65.3473
2792	65.3756
2788	65.3725
2784	65.3457
2780	65.3015
2776	65.2605
2772	65.2812
2768	65.3442
2764	65.3713
2760	65.3393
2756	65.2932
2752	65.3029
2748	65.3485
2744	65.3603
2740	65.31
2736	65.2425
2732	65.252
2728	65.3394
2724	65.4016
2720	65.4212
2716	65.4302
2712	65.3973
2708	65.3017
2704	65.2093
2700	65.1916
2696	65.2189
2692	65.2389
2688	65.2842
2684	65.3603
2680	65.3645
2676	65.3393
2672	65.3663
2668	65.3458
2664	65.2702
2660	65.2112
2656	65.1835
2652	65.2515
2648	65.3496
2644	65.3165
2640	65.2568
2636	65.2899
2632	65.3159
2628	65.3131
2624	65.34
2620	65.4039
2616	65.4145
2612	65.3192
2608	65.2367
2604	65.2386
2600	65.2864
2596	65.3018
2592	65.2662
2588	65.2264
2584	65.2125
2580	65.2579
2576	65.3117
2572	65.2882
2568	65.2397
2564	65.2427
2560	65.2723
2556	65.2967
2552	65.2866
2548	65.2721
2544	65.3034
2540	65.3232
2536	65.3181
2532	65.3564
2528	65.4186
2524	65.3999
2520	65.326
2516	65.293
2512	65.2798
2508	65.2787
2504	65.3223
2500	65.3648
2496	65.3683
2492	65.3377
2488	65.3393
2484	65.4109
2480	65.4082
2476	65.2997
2472	65.2484
2468	65.306
2464	65.3667
2460	65.3885
2456	65.4158
2452	65.4313
2448	65.4563
2444	65.5254
2440	65.571
2436	65.5397
2432	65.4576
2428	65.3983
2424	65.4099
2420	65.4232
2416	65.4068
2412	65.4378
2408	65.4761
2404	65.4526
2400	65.4245
2396	65.4159
2392	65.4114
2388	65.3804
2384	65.298
2380	65.2514
2376	65.274
2372	65.2874
2368	65.3081
2364	65.3497
2360	65.3789
2356	65.3997
2352	65.357
2348	65.289
2344	65.3092
2340	65.3316
2336	65.3105
2332	65.3171
2328	65.3273
2324	65.3394
2320	65.3411
2316	65.3286
2312	65.3395
2308	65.3527
2304	65.3516
2300	65.3367
2296	65.2946
2292	65.2433
2288	65.2442
2284	65.2805
2280	65.2787
2276	65.289
2272	65.3554
2268	65.3943
2264	65.3607
2260	65.2809
2256	65.1998
2252	65.1907
2248	65.2421
2244	65.2789
2240	65.3353
2236	65.3764
2232	65.364
2228	65.3484
2224	65.2749
2220	65.2063
2216	65.245
2212	65.2999
2208	65.306
2204	65.2961
2200	65.2811
2196	65.2564
2192	65.2369
2188	65.2454
2184	65.2893
2180	65.3358
2176	65.3507
2172	65.3513
2168	65.3635
2164	65.3312
2160	65.2527
2156	65.2332
2152	65.2485
2148	65.2253
2144	65.2143
2140	65.2215
2136	65.2347
2132	65.2935
2128	65.3665
2124	65.4186
2120	65.3933
2116	65.3168
2112	65.3249
2108	65.3906
2104	65.4124
2100	65.3668
2096	65.3203
2092	65.3229
2088	65.3254
2084	65.3095
2080	65.3109
2076	65.3425
2072	65.3323
2068	65.2848
2064	65.2939
2060	65.3121
2056	65.3101
2052	65.3392
2048	65.373
2044	65.3617
2040	65.3113
2036	65.2812
2032	65.2909
2028	65.2914
2024	65.2807
2020	65.3126
2016	65.3709
2012	65.362
2008	65.3067
2004	65.3004
2000	65.3175
1996	65.3091
1992	65.3062
1988	65.3535
1984	65.3691
1980	65.3181
1976	65.3211
1972	65.3448
1968	65.3439
1964	65.3665
1960	65.3806
1956	65.3847
1952	65.4101
1948	65.3936
1944	65.3398
1940	65.3288
1936	65.3523
1932	65.3888
1928	65.4383
1924	65.4702
1920	65.4379
1916	65.3443
1912	65.2652
1908	65.2805
1904	65.3599
1900	65.3918
1896	65.3583
1892	65.328
1888	65.3213
1884	65.2978
1880	65.2807
1876	65.3093
1872	65.3638
1868	65.3985
1864	65.3666
1860	65.3337
1856	65.3432
1852	65.3342
1848	65.288
1844	65.2451
1840	65.231
1836	65.214
1832	65.2166
1828	65.2606
1824	65.3065
1820	65.3473
1816	65.3401
1812	65.2919
1808	65.281
1804	65.3003
1800	65.3028
1796	65.3086
1792	65.3085
1788	65.2429
1784	65.1932
1780	65.2231
1776	65.2616
1772	65.2756
1768	65.2795
1764	65.276
1760	65.2515
1756	65.2367
1752	65.22
1748	65.1505
1744	65.1137
1740	65.1424
1736	65.154
1732	65.1272
1728	65.1223
1724	65.1671
1720	65.1626
1716	65.1199
1712	65.1341
1708	65.1744
1704	65.2386
1700	65.3253
1696	65.3294
1692	65.2857
1688	65.3056
1684	65.2932
1680	65.2152
1676	65.2087
1672	65.2505
1668	65.2473
1664	65.2381
1660	65.2243
1656	65.2079
1652	65.2197
1648	65.1694
1644	65.0642
1640	65.0222
1636	65.074
1632	65.1553
1628	65.1933
1624	65.2253
1620	65.32
1616	65.3684
1612	65.2914
1608	65.2875
1604	65.3537
1600	65.3241
1596	65.2822
1592	65.3008
1588	65.3647
1584	65.4189
1580	65.3245
1576	65.1379
1572	65.082
1568	65.1367
1564	65.1433
1560	65.1492
1556	65.2308
1552	65.2656
1548	65.2086
1544	65.1844
1540	65.1718
1536	65.1398
1532	65.1583
1528	65.148
1524	65.1165
1520	65.156
1516	65.1604
1512	65.1601
1508	65.1892
1504	65.163
1500	65.2358
1496	65.3722
1492	65.313
1488	65.199
1484	65.1515
1480	65.162
1476	65.2416
1472	65.2653
1468	65.2494
1464	65.3
1460	65.3102
1456	65.1945
1452	65.0878
1448	65.0968
1444	65.1194
1440	65.1295
1436	65.1435
1432	65.127
1428	65.1407
1424	65.1497
1420	65.1156
1416	65.1073
1412	65.1193
1408	65.1268
1404	65.1641
1400	65.226
1396	65.2268
1392	65.2001
1388	65.2143
1384	65.2274
1380	65.2722
1376	65.33
1372	65.2874
1368	65.212
1364	65.1987
1360	65.1661
1356	65.1266
1352	65.1475
1348	65.1553
1344	65.1455
1340	65.1544
1336	65.1623
1332	65.1591
1328	65.156
1324	65.1498
1320	65.1121
1316	65.0832
1312	65.09
1308	65.0881
1304	65.0812
1300	65.0786
1296	65.0965
1292	65.157
1288	65.1939
1284	65.1609
1280	65.102
1276	65.0912
1272	65.154
1268	65.1913
1264	65.1458
1260	65.0909
1256	65.1071
1252	65.1629
1248	65.1568
1244	65.1495
1240	65.1632
1236	65.134
1232	65.1696
1228	65.2509
1224	65.238
1220	65.1636
1216	65.106
1212	65.0967
1208	65.1524
1204	65.1947
1200	65.1529
1196	65.1047
1192	65.0968
1188	65.1203
1184	65.1608
1180	65.1633
1176	65.1137
1172	65.0691
1168	65.0807
1164	65.1195
1160	65.162
1156	65.2019
1152	65.1653
1148	65.0732
1144	65.0067
1140	64.9964
1136	65.059
1132	65.1664
1128	65.2124
1124	65.1927
1120	65.1863
1116	65.1771
1112	65.1702
1108	65.1888
1104	65.1635
1100	65.0938
1096	65.1033
1092	65.1843
1088	65.2491
1084	65.2717
1080	65.2106
1076	65.0919
1072	65.0481
1068	65.132
1064	65.2445
1060	65.3035
1056	65.3075
1052	65.2408
1048	65.2527
1044	65.4248
1040	65.4447
1036	65.2871
1032	65.1892
1028	65.1749
1024	65.1819
1020	65.1295
1016	65.1386
1012	65.3105
1008	65.3912
1004	65.3093
1000	65.2424
996	 65.2291
992	 65.2396
988	 65.2393
984	 65.2555
980	 65.2997
976	 65.2498
972	 65.1556
968	 65.175
964	 65.2472
960	 65.1936
956	 65.123
952	 65.2093
948	 65.3298
944	 65.3914
940	 65.2724
936	 65.0322
932	 64.9893
928	 65.1161
924	 65.1731
920	 65.2365
916	 65.3644
912	 65.3428
908	 65.272
904	 65.3555
900	 65.3832
896	 65.3074
892	 65.3384
888	 65.3866
884	 65.3516
880	 65.3194
876	 65.3295
872	 65.3434
868	 65.2863
864	 65.2159
860	 65.1569
856	 65.062
852	 65.0628
848	 65.2296
844	 65.3582
840	 65.3315
836	 65.3075
832	 65.3774
828	 65.4231
824	 65.4142
820	 65.4265
816	 65.4815
812	 65.5442
808	 65.4983
804	 65.3951
800	 65.2899
796	 65.143
792	 65.1325
788	 65.2812
784	 65.4038
780	 65.4681
776	 65.4738
772	 65.4682
768	 65.5034
764	 65.5414
760	 65.5646
756	 65.5564
752	 65.5182
748	 65.4928
744	 65.471
740	 65.3625
736	 65.253
732	 65.2717
728	 65.2616
724	 65.2802
720	 65.5052
716	 65.5744
712	 65.3527
708	 65.1914
704	 65.223
700	 65.3594
696	 65.3955
692	 65.2442
688	 65.1435
684	 65.3198
680	 65.5646
676	 65.6118
672	 65.4746
668	 65.3177
664	 65.3104
660	 65.4303
656	 65.5645
652	 65.6041
648	 65.5475
644	 65.5369
640	 65.6053
636	 65.6339
632	 65.676
628	 65.6981
624	 65.5961
620	 65.5686
616	 65.6033
612	 65.4851
608	 65.3523
604	 65.5592
600	 65.7744
596	 65.6548
592	 65.6107
588	 65.4912
584	 65.1414
580	 64.9817
576	 65.0742
572	 65.1476
568	 65.1305
564	 65.2905
560	 65.5764
556	 65.7733
552	 65.7959
548	 65.7975
544	 65.9622
540	 65.8877
536	 65.7411
532	 65.8059
528	 65.5913
524	 65.4006
520	 65.7621
516	 66.1807
512	 66.1657
508	 65.8041
504	 65.5235
500	 65.3709
496	 65.241
492	 65.4254
488	 65.7479
484	 65.5995
480	 65.6
476	 66.33
472	 66.3795
468	 65.6656
464	 65.7588
460	 66.0455
456	 65.7977
452	 66.1585
448	 66.0679
444	 63.9971
440	 63.3426
436	 65.1397
432	 65.7777
428	 65.4632
424	 66.7188
420	 68.6049
416	 70.026
412	 73.1246
408	 76.7094
404	 72.9162
400	 59.4321
396	 49.2002
392	 51.5845
388	 53.5679
384	 54.2328
380	 68.3085
376	 56.6786
372	 81.7691
370	 75.6622