File: Bakgrunnsmateriale/MATLAB/FTIR/ftir_data/subCa/Mapping_25/BZ12041010-4_t07.asc
PE IR       SPECTRUM    SPECTRUM    ASCII       PEDS        1.60
  -1
BZ46BA~1.ASC
17/04/10
09:24:22.00
17/04/10
09:24:49.00
tln
$BZ12041010-4_t0007$<tbV0>[2.6,-9.8,9.0,0.0,22,1,0]
27.028
64

2002,4.07
MIRTGS : RIGHTBACK : INTERNAL 2
MIR : ON : INTERNAL 2
OPTKBR

0.200000
8
8.000000
FILLER
RATIO
SPECTRUM
UNLOCKED 256

DOUBLE
64
COMBINED
1
0
0

0.002000
RATIO

1
0
TRUE
51149
0
LEFT NOT FITTED RIGHT NOT FITTED 0
NONE
NONE
15600
12
4.427000
51148
TRUE
1 0 8 72 0 0 0 0

15798

#HDR
-1
-1
#GR
µM
%T
2.38419e-05
0.0
2.000000
0.002000
12515
8
120.947
51.8071
#DATA
2.000000	 64.4613
2.018000	 65.014
2.036000	 64.431
2.054000	 64.8757
2.072000	 64.7079
2.090000	 64.9556
2.108000	 63.9386
2.126000	 64.6896
2.144000	 64.8349
2.162000	 65.1246
2.180000	 64.5222
2.198000	 65.6241
2.216000	 66.2095
2.234000	 60.1078
2.252000	 65.5363
2.270000	 65.4316
2.288000	 65.4446
2.306000	 65.5638
2.324000	 65.1141
2.342000	 64.6772
2.360000	 64.6323
2.378000	 64.5353
2.396000	 64.6961
2.414000	 64.8746
2.432000	 65.0511
2.450000	 64.8942
2.468000	 64.8708
2.486000	 65.036
2.504000	 65.1569
2.522000	 64.9261
2.540000	 64.89
2.558000	 64.9136
2.576000	 65.1829
2.594000	 65.4508
2.612000	 65.0486
2.630000	 65.0616
2.648000	 65.022
2.666000	 65.131
2.684000	 65.0344
2.702000	 64.8574
2.720000	 65.0969
2.738000	 65.1452
2.756000	 65.27
2.774000	 65.0819
2.792000	 65.0127
2.810000	 65.1207
2.828000	 65.0961
2.846000	 65.0666
2.864000	 65.1364
2.882000	 65.144
2.900000	 65.0327
2.918000	 65.203
2.936000	 64.8898
2.954000	 64.9851
2.972000	 65.2322
2.990000	 64.9592
3.008000	 64.821
3.026000	 64.9573
3.044000	 64.9221
3.062000	 64.9683
3.080000	 65.0517
3.098000	 64.9214
3.116000	 65.0263
3.134000	 65.0746
3.152000	 64.8912
3.170000	 65.0932
3.188000	 64.9641
3.206000	 65.0192
3.224000	 65.0735
3.242000	 64.9763
3.260000	 65.0077
3.278000	 65.1826
3.296000	 64.8667
3.314000	 64.9526
3.332000	 65.0353
3.350000	 65.0356
3.368000	 65.0684
3.386000	 65.1253
3.404000	 64.9298
3.422000	 64.9912
3.440000	 65.0763
3.458000	 65.1283
3.476000	 65.2338
3.494000	 64.9865
3.512000	 65.1006
3.530000	 65.0396
3.548000	 65.0634
3.566000	 65.0506
3.584000	 65.1004
3.602000	 65.0387
3.620000	 65.1271
3.638000	 65.1223
3.656000	 65.1026
3.674000	 65.0918
3.692000	 65.1049
3.710000	 65.0745
3.728000	 65.0584
3.746000	 65.0965
3.764000	 65.1948
3.782000	 65.1464
3.800000	 65.1212
3.818000	 65.0979
3.836000	 65.1148
3.854000	 65.1793
3.872000	 65.1572
3.890000	 65.0979
3.908000	 65.1014
3.926000	 65.1614
3.944000	 65.0617
3.962000	 65.104
3.980000	 65.0808
3.998000	 65.1781
4.016000	 65.1461
4.034000	 65.1522
4.052000	 65.1359
4.070000	 65.169
4.088000	 65.0966
4.106000	 65.1118
4.124000	 65.2178
4.141999	 65.1323
4.160000	 65.1768
4.178000	 65.1748
4.196000	 65.1705
4.214000	 65.2045
4.232000	 65.1923
4.250000	 65.2442
4.268000	 65.0409
4.286000	 65.146
4.304000	 65.1764
4.322000	 65.1787
4.340000	 65.1721
4.358000	 65.1928
4.375999	 65.1736
4.394000	 65.2013
4.412000	 65.1387
4.430000	 65.2011
4.448000	 65.1707
4.466000	 65.1557
4.484000	 65.216
4.502000	 65.3031
4.520000	 65.2451
4.538000	 65.1436
4.556000	 65.158
4.574000	 65.1368
4.592000	 65.1618
4.609999	 65.2118
4.628000	 65.1669
4.646000	 65.2615
4.664000	 65.1742
4.682000	 65.204
4.700000	 65.2172
4.718000	 65.1643
4.736000	 65.2275
4.754000	 65.2392
4.772000	 65.2867
4.790000	 65.2414
4.808000	 65.2066
4.826000	 65.228
4.843999	 65.2991
4.862000	 65.2543
4.880000	 65.1008
4.898000	 65.1413
4.916000	 65.2351
4.934000	 65.2808
4.952000	 65.263
4.970000	 65.2459
4.988000	 65.2501
5.006000	 65.1928
5.024000	 65.2255
5.042000	 65.1736
5.060000	 65.2027
5.077999	 65.3137
5.096000	 65.1926
5.114000	 65.21
5.132000	 65.262
5.150000	 65.2273
5.168000	 65.2821
5.186000	 65.3076
5.204000	 65.2295
5.222000	 65.0515
5.240000	 65.1519
5.258000	 65.2229
5.276000	 65.2683
5.294000	 65.3456
5.312000	 65.3153
5.330000	 65.3497
5.348000	 65.368
5.366000	 65.2794
5.384000	 65.2314
5.402000	 65.3582
5.420000	 65.3073
5.438000	 65.2373
5.456000	 65.2978
5.474000	 65.3481
5.492000	 65.3139
5.510000	 65.2722
5.528000	 65.3231
5.546000	 65.327
5.564000	 65.3108
5.582000	 65.3492
5.600000	 65.2607
5.618000	 65.2546
5.636000	 65.3877
5.654000	 65.4501
5.672000	 65.4408
5.690000	 65.3451
5.708000	 65.2171
5.726000	 65.1723
5.744000	 65.2135
5.762000	 65.3415
5.780000	 65.1964
5.798000	 65.0856
5.816000	 65.2863
5.834000	 65.2906
5.852000	 65.2094
5.870000	 65.4442
5.888000	 65.6957
5.906000	 65.5055
5.923999	 65.4409
5.942000	 65.5006
5.960000	 65.4349
5.978000	 65.4986
5.996000	 65.3866
6.014000	 65.312
6.032000	 65.3591
6.050000	 65.4437
6.068000	 65.3787
6.086000	 65.2806
6.104000	 65.2519
6.122000	 65.1935
6.140000	 65.1562
6.158000	 65.2566
6.176000	 65.4279
6.194000	 65.3995
6.212000	 65.1951
6.230000	 65.1235
6.248000	 65.1043
6.266000	 65.0633
6.284000	 65.0058
6.302000	 64.9914
6.320000	 65.1324
6.338000	 65.2467
6.356000	 65.1861
6.374000	 65.1051
6.392000	 65.1737
6.410000	 65.3907
6.428000	 65.4478
6.446000	 65.3485
6.464000	 65.3947
6.482000	 65.5282
6.500000	 65.459
6.518000	 65.2785
6.536000	 65.2405
6.554000	 65.3378
6.572000	 65.4435
6.590000	 65.3998
6.608000	 65.3535
6.626000	 65.4325
6.644000	 65.4095
6.662000	 65.3135
6.680000	 65.3079
6.698000	 65.2586
6.716000	 65.1807
6.734000	 65.1681
6.752000	 65.1832
6.770000	 65.2428
6.788000	 65.3094
6.806000	 65.302
6.824000	 65.2541
6.842000	 65.2698
6.860000	 65.3226
6.878000	 65.2484
6.896000	 65.1075
6.914000	 65.0941
6.932000	 65.1962
6.950000	 65.3175
6.968000	 65.3589
6.986000	 65.3114
7.004000	 65.2668
7.022000	 65.2813
7.040000	 65.3113
7.058000	 65.2731
7.076000	 65.2208
7.094000	 65.2542
7.112000	 65.3127
7.130000	 65.335
7.148000	 65.3697
7.166000	 65.4025
7.184000	 65.3458
7.202000	 65.2145
7.220000	 65.1299
7.238000	 65.147
7.256000	 65.1883
7.274000	 65.1818
7.292000	 65.1441
7.310000	 65.1297
7.328000	 65.1649
7.346000	 65.2178
7.364000	 65.2464
7.382000	 65.2587
7.400000	 65.2824
7.418000	 65.3168
7.436000	 65.3274
7.454000	 65.2903
7.472000	 65.2264
7.490000	 65.171
7.508000	 65.1359
7.526000	 65.1241
7.544000	 65.1388
7.562000	 65.176
7.580000	 65.2204
7.598000	 65.251
7.616000	 65.2648
7.634000	 65.2746
7.652000	 65.2705
7.670000	 65.2384
7.688000	 65.1965
7.706000	 65.1574
7.724000	 65.1131
7.742000	 65.0761
7.760000	 65.073
7.778000	 65.0989
7.796000	 65.1304
7.814000	 65.1604
7.832000	 65.1847
7.850000	 65.1902
7.868000	 65.1783
7.886000	 65.1671
7.904000	 65.1588
7.922000	 65.1406
7.940000	 65.1172
7.958000	 65.1087
7.976000	 65.124
7.994000	 65.1622
8.012000	 65.2175
8.030000	 65.2615
8.048000	 65.2589
8.065999	 65.2114
8.084000	 65.1607
8.102000	 65.1458
8.120000	 65.1706
8.138000	 65.2112
8.155999	 65.2464
8.173999	 65.2728
8.192000	 65.2919
8.210000	 65.2988
8.228000	 65.2924
8.246000	 65.2855
8.263999	 65.2959
8.282000	 65.3248
8.300000	 65.3458
8.318000	 65.3248
8.336000	 65.2554
8.353999	 65.1696
8.372000	 65.1045
8.390000	 65.07
8.408000	 65.0531
8.426000	 65.0444
8.443999	 65.0446
8.462000	 65.0479
8.480000	 65.0432
8.498000	 65.0384
8.516000	 65.0576
8.533999	 65.102
8.552000	 65.1413
8.570000	 65.1558
8.588000	 65.1641
8.606000	 65.1887
8.624000	 65.213
8.641999	 65.1999
8.660000	 65.1444
8.678000	 65.0806
8.696000	 65.0381
8.714000	 65.0129
8.731999	 64.9906
8.750000	 64.9742
8.768000	 64.9778
8.786000	 65.0018
8.804000	 65.0272
8.821999	 65.0358
8.840000	 65.0274
8.858000	 65.019
8.876000	 65.0273
8.894000	 65.0557
8.911999	 65.0958
8.930000	 65.1392
8.948000	 65.1786
8.966000	 65.2001
8.984000	 65.1911
9.001999	 65.1579
9.020000	 65.1254
9.038000	 65.1136
9.056000	 65.1172
9.074000	 65.1123
9.092000	 65.0813
9.109999	 65.0299
9.128000	 64.9813
9.146000	 64.9588
9.164000	 64.9736
9.182000	 65.0216
9.199999	 65.0854
9.218000	 65.1393
9.236000	 65.1625
9.254000	 65.1524
9.272000	 65.1263
9.289999	 65.107
9.308000	 65.1055
9.326000	 65.117
9.344000	 65.1317
9.362000	 65.1458
9.379999	 65.1597
9.398000	 65.1701
9.416000	 65.1685
9.434000	 65.1492
9.452000	 65.117
9.469999	 65.0854
9.488000	 65.067
9.506000	 65.0669
9.524000	 65.0832
9.542000	 65.1128
9.560000	 65.1521
9.577999	 65.1925
9.596000	 65.219
9.614000	 65.2168
9.632000	 65.1825
9.650000	 65.1301
9.667999	 65.0832
9.686000	 65.0606
9.704000	 65.0648
9.722000	 65.0833
9.740000	 65.0978
9.757999	 65.0959
9.776000	 65.0761
9.794000	 65.0464
9.812000	 65.0199
9.830000	 65.0103
9.847999	 65.026
9.866000	 65.0648
9.884000	 65.1121
9.902000	 65.1482
9.920000	 65.162
9.937999	 65.1595
9.956000	 65.1602
9.974000	 65.1802
9.992000	 65.2179
10.01	65.2543
10.028	65.2667
10.046	65.2469
10.064	65.2062
10.082	65.1674
10.1	65.1494
10.118	65.1577
10.136	65.1831
10.154	65.2095
10.172	65.2231
10.19	65.218
10.208	65.1962
10.226	65.1648
10.244	65.131
10.262	65.1
10.28	65.0744
10.298	65.0574
10.316	65.0541
10.334	65.0705
10.352	65.1088
10.37	65.1647
10.388	65.2262
10.406	65.2798
10.424	65.3129
10.442	65.3199
10.46	65.3026
10.478	65.2684
10.496	65.2278
10.514	65.1908
10.532	65.1655
10.55	65.1552
10.568	65.1581
10.586	65.169
10.604	65.1822
10.622	65.1938
10.64	65.2033
10.658	65.2133
10.676	65.2272
10.694	65.2476
10.712	65.2738
10.73	65.3019
10.748	65.325
10.766	65.3363
10.784	65.3323
10.802	65.3147
10.82	65.2902
10.838	65.2679
10.856	65.2544
10.874	65.2511
10.892	65.2543
10.91	65.2578
10.928	65.2576
10.946	65.2552
10.964	65.2563
10.982	65.268
11	65.294
11.018	65.3319
11.036	65.3736
11.054	65.4084
11.072	65.4281
11.09	65.429
11.108	65.4127
11.126	65.3846
11.144	65.3505
11.162	65.3173
11.18	65.2909
11.198	65.2776
11.216	65.2822
11.234	65.3065
11.252	65.3461
11.27	65.3902
11.288	65.4225
11.306	65.428
11.324	65.3985
11.342	65.3374
11.36	65.2591
11.378	65.1845
11.396	65.1315
11.414	65.1106
11.432	65.1228
11.45	65.1609
11.468	65.2141
11.486	65.2731
11.504	65.3307
11.522	65.3821
11.54	65.4239
11.558	65.4534
11.576	65.47
11.594	65.4759
11.612	65.4764
11.63	65.4778
11.648	65.4836
11.666	65.4935
11.684	65.5033
11.702	65.5072
11.72	65.5005
11.738	65.4826
11.756	65.4569
11.774	65.4292
11.792	65.4044
11.81	65.3849
11.828	65.3712
11.846	65.3624
11.864	65.3579
11.882	65.3586
11.9	65.3657
11.918	65.3788
11.936	65.3949
11.954	65.4091
11.972	65.4151
11.99	65.4078
12.008	65.3853
12.026	65.3487
12.044	65.3016
12.062	65.2482
12.08	65.1915
12.098	65.1341
12.116	65.0791
12.134	65.0309
12.152	64.9956
12.17	64.9791
12.188	64.9855
12.206	65.0145
12.224	65.0613
12.242	65.1184
12.26	65.1774
12.278	65.2316
12.296	65.2764
12.314	65.3103
12.332	65.3342
12.35	65.35
12.368	65.3601
12.386	65.367
12.404	65.3726
12.422	65.3788
12.44	65.3871
12.458	65.3982
12.476	65.4117
12.494	65.4256
12.512	65.4371
12.53	65.443
12.548	65.4408
12.566	65.4298
12.584	65.4109
12.602	65.3867
12.62	65.361
12.638	65.338
12.656	65.3214
12.674	65.314
12.692	65.3175
12.71	65.3325
12.728	65.3584
12.746	65.3929
12.764	65.4323
12.782	65.4724
12.8	65.5083
12.818	65.5354
12.836	65.5515
12.854	65.5567
12.872	65.5535
12.89	65.5459
12.908	65.5382
12.926	65.5335
12.944	65.5331
12.962	65.5362
12.98	65.5409
12.998	65.5446
13.016	65.5459
13.034	65.5444
13.052	65.5406
13.07	65.5355
13.088	65.5299
13.106	65.5232
13.124	65.5139
13.142	65.4992
13.16	65.4762
13.178	65.4431
13.196	65.4001
13.214	65.3491
13.232	65.2941
13.25	65.24
13.268	65.191
13.286	65.1504
13.304	65.1198
13.322	65.0983
13.34	65.0841
13.358	65.0751
13.376	65.07
13.394	65.069
13.412	65.0733
13.43	65.0851
13.448	65.1066
13.466	65.1384
13.484	65.1793
13.502	65.226
13.52	65.273
13.538	65.3142
13.556	65.344
13.574	65.3582
13.592	65.3554
13.61	65.337
13.628	65.3067
13.646	65.2701
13.664	65.2332
13.682	65.2012
13.7	65.1778
13.718	65.1647
13.736	65.1612
13.754	65.1654
13.772	65.1743
13.79	65.1848
13.808	65.1945
13.826	65.2017
13.844	65.2062
13.862	65.2085
13.88	65.2098
13.898	65.2116
13.916	65.2153
13.934	65.2218
13.952	65.2316
13.97	65.2446
13.988	65.2606
14.006	65.2795
14.024	65.3008
14.042	65.3247
14.06	65.3508
14.078	65.3786
14.096	65.4069
14.114	65.4338
14.132	65.4572
14.15	65.4744
14.168	65.4831
14.186	65.4813
14.204	65.4683
14.222	65.4449
14.24	65.4128
14.258	65.3748
14.276	65.3343
14.294	65.2948
14.312	65.2593
14.33	65.23
14.348	65.208
14.366	65.1936
14.384	65.1861
14.402	65.1849
14.42	65.1891
14.438	65.1981
14.456	65.2115
14.474	65.2289
14.492	65.2499
14.51	65.2737
14.528	65.2989
14.546	65.324
14.564	65.3472
14.582	65.3671
14.6	65.3825
14.618	65.3929
14.636	65.3986
14.654	65.4013
14.672	65.403
14.69	65.406
14.708	65.413
14.726	65.4265
14.744	65.4479
14.762	65.478
14.78	65.516
14.798	65.5599
14.816	65.6068
14.834	65.6525
14.852	65.6925
14.87	65.7225
14.888	65.7393
14.906	65.7406
14.924	65.7254
14.942	65.695
14.96	65.6522
14.978	65.6008
14.996	65.5455
15.014	65.4907
15.032	65.4416
15.05	65.4016
15.068	65.3726
15.086	65.3553
15.104	65.349
15.122	65.3515
15.14	65.3597
15.158	65.3712
15.176	65.3833
15.194	65.3939
15.212	65.4017
15.23	65.4063
15.248	65.4082
15.266	65.4081
15.284	65.4071
15.302	65.4063
15.32	65.4061
15.338	65.4069
15.356	65.4088
15.374	65.4113
15.392	65.4139
15.41	65.4162
15.428	65.4178
15.446	65.4187
15.464	65.419
15.482	65.4193
15.5	65.4204
15.518	65.4228
15.536	65.4273
15.554	65.4342
15.572	65.4437
15.59	65.4556
15.608	65.469
15.626	65.4834
15.644	65.4975
15.662	65.5098
15.68	65.519
15.698	65.5238
15.716	65.5229
15.734	65.5152
15.752	65.5003
15.77	65.4778
15.788	65.4482
15.806	65.4125
15.824	65.3719
15.842	65.3284
15.86	65.285
15.878	65.2438
15.896	65.2073
15.914	65.1784
15.932	65.1584
15.95	65.1484
15.968	65.1491
15.986	65.1596
16.004	65.1789
16.022	65.2056
16.04	65.237
16.058	65.2711
16.076	65.3063
16.094	65.3403
16.112	65.3724
16.13	65.4023
16.148	65.4297
16.166	65.4557
16.184	65.481
16.202	65.5067
16.22	65.5339
16.238	65.5628
16.256	65.5937
16.274	65.6256
16.292	65.6572
16.31	65.6872
16.328	65.7129
16.346	65.7325
16.364	65.7446
16.382	65.7472
16.4	65.7405
16.418	65.7244
16.436	65.7003
16.454	65.6706
16.472	65.637
16.49	65.6031
16.508	65.5714
16.526	65.5439
16.544	65.5232
16.562	65.51
16.58	65.505
16.598	65.5078
16.616	65.5174
16.634	65.5326
16.652	65.5512
16.67	65.5723
16.688	65.5942
16.706	65.6156
16.724	65.6361
16.742	65.6549
16.76	65.6723
16.778	65.6883
16.796	65.7033
16.814	65.7178
16.832	65.732
16.85	65.7459
16.868	65.7591
16.886	65.7714
16.904	65.7815
16.922	65.7886
16.94	65.792
16.958	65.7905
16.976	65.7836
16.994	65.7706
17.012	65.7519
17.03	65.7275
17.048	65.6984
17.066	65.6657
17.084	65.6306
17.102	65.5955
17.12	65.5611
17.138	65.5302
17.156	65.5041
17.174	65.4844
17.192	65.473
17.21	65.4705
17.228	65.4781
17.246	65.4962
17.264	65.5251
17.282	65.5645
17.3	65.6142
17.318	65.6734
17.336	65.741
17.354	65.8162
17.372	65.8969
17.39	65.9822
17.408	66.0695
17.426	66.1571
17.444	66.2436
17.462	66.3259
17.48	66.403
17.498	66.4721
17.516	66.5316
17.534	66.58
17.552	66.6152
17.57	66.6368
17.588	66.6433
17.606	66.6351
17.624	66.6118
17.642	66.5749
17.66	66.5246
17.678	66.4638
17.696	66.3936
17.714	66.3172
17.732	66.237
17.75	66.1558
17.768	66.077
17.786	66.0021
17.804	65.9351
17.822	65.8766
17.84	65.8291
17.858	65.7928
17.876	65.7685
17.894	65.7553
17.912	65.7531
17.93	65.7595
17.948	65.7741
17.966	65.7935
17.984	65.8169
18.002	65.8413
18.02	65.8652
18.038	65.8871
18.056	65.9056
18.074	65.92
18.092	65.9302
18.11	65.9361
18.128	65.9388
18.146	65.9387
18.164	65.9374
18.182	65.9359
18.2	65.9356
18.218	65.9377
18.236	65.9431
18.254	65.9524
18.272	65.9659
18.29	65.9833
18.308	66.0046
18.326	66.028
18.344	66.0531
18.362	66.0777
18.38	66.1008
18.398	66.12
18.416	66.1341
18.434	66.1413
18.452	66.1408
18.47	66.1313
18.488	66.1129
18.506	66.085
18.524	66.0488
18.542	66.0044
18.56	65.9541
18.578	65.8982
18.596	65.8401
18.614	65.7802
18.632	65.7222
18.65	65.6661
18.668	65.6158
18.686	65.5714
18.704	65.5353
18.722	65.5077
18.74	65.4902
18.758	65.4828
18.776	65.486
18.794	65.4995
18.812	65.5231
18.83	65.5563
18.848	65.5982
18.866	65.648
18.884	65.7043
18.902	65.766
18.92	65.8312
18.938	65.8986
18.956	65.9662
18.974	66.0327
18.992	66.096
19.01	66.155
19.028	66.2077
19.046	66.2536
19.064	66.2911
19.082	66.3202
19.1	66.34
19.118	66.3509
19.136	66.3531
19.154	66.3474
19.172	66.3348
19.19	66.3162
19.208	66.2938
19.226	66.2681
19.244	66.2419
19.262	66.2154
19.28	66.1915
19.298	66.1701
19.316	66.1541
19.334	66.1432
19.352	66.1393
19.37	66.1422
19.388	66.1528
19.406	66.171
19.424	66.1962
19.442	66.2283
19.46	66.2657
19.478	66.3085
19.496	66.3541
19.514	66.4022
19.532	66.4504
19.55	66.4976
19.568	66.5421
19.586	66.582
19.604	66.617
19.622	66.6447
19.64	66.6654
19.658	66.6777
19.676	66.6819
19.694	66.6777
19.712	66.6651
19.73	66.6455
19.748	66.6186
19.766	66.5863
19.784	66.5486
19.802	66.5076
19.82	66.4642
19.838	66.4195
19.856	66.3756
19.874	66.3324
19.892	66.2927
19.91	66.2562
19.928	66.2252
19.946	66.1995
19.964	66.1808
19.982	66.1691
20	66.1649
20.018	66.1687
20.036	66.1802
20.054	66.1992
20.072	66.2253
20.09	66.2573
20.108	66.2952
20.126	66.3363
20.144	66.3808
20.162	66.4257
20.18	66.4701
20.198	66.5124
20.216	66.5501
20.234	66.5833
20.252	66.6087
20.27	66.6269
20.288	66.6357
20.306	66.635
20.324	66.6246
20.342	66.6038
20.36	66.5734
20.378	66.5341
20.396	66.4858
20.414	66.4311
20.432	66.3696
20.45	66.304
20.468	66.2352
20.486	66.1644
20.504	66.0944
20.522	66.0247
20.54	65.9586
20.558	65.8958
20.576	65.838
20.594	65.7862
20.612	65.7402
20.63	65.7012
20.648	65.669
20.666	65.6433
20.684	65.6244
20.702	65.6114
20.72	65.6039
20.738	65.6015
20.756	65.6028
20.774	65.6082
20.792	65.6158
20.81	65.6253
20.828	65.6362
20.846	65.6474
20.864	65.6592
20.882	65.6706
20.9	65.6816
20.918	65.6923
20.936	65.7023
20.954	65.712
20.972	65.7216
20.99	65.7308
21.008	65.7404
21.026	65.7504
21.044	65.7608
21.062	65.7722
21.08	65.7844
21.098	65.7973
21.116	65.8113
21.134	65.8259
21.152	65.8408
21.17	65.8561
21.188	65.871
21.206	65.8855
21.224	65.8991
21.242	65.9111
21.26	65.9216
21.278	65.9298
21.296	65.9356
21.314	65.9389
21.332	65.9391
21.35	65.9363
21.368	65.9305
21.386	65.9214
21.404	65.9092
21.422	65.894
21.44	65.8758
21.458	65.8551
21.476	65.8319
21.494	65.8065
21.512	65.7795
21.53	65.7507
21.548	65.7209
21.566	65.6904
21.584	65.6592
21.602	65.6281
21.62	65.5968
21.638	65.5659
21.656	65.5359
21.674	65.5067
21.692	65.4786
21.71	65.4519
21.728	65.4264
21.746	65.4023
21.764	65.3795
21.782	65.3579
21.8	65.3374
21.818	65.3181
21.836	65.2998
21.854	65.2824
21.872	65.266
21.89	65.2505
21.908	65.236
21.926	65.2223
21.944	65.2094
21.962	65.1972
21.98	65.1862
21.998	65.1761
22.016	65.1672
22.034	65.1602
22.052	65.1548
22.07	65.1515
22.088	65.1508
22.106	65.1523
22.124	65.1567
22.142	65.1643
22.16	65.1746
22.178	65.1879
22.196	65.2042
22.214	65.2229
22.232	65.2434
22.25	65.2661
22.268	65.2896
22.286	65.3132
22.304	65.3372
22.322	65.3594
22.34	65.3798
22.358	65.3981
22.376	65.412
22.394	65.4221
22.412	65.4276
22.43	65.4271
22.448	65.4212
22.466	65.4091
22.484	65.3903
22.502	65.365
22.52	65.3335
22.538	65.2953
22.556	65.2508
22.574	65.2021
22.592	65.1487
22.61	65.0915
22.628	65.0338
22.646	64.9749
22.664	64.9161
22.682	64.8605
22.7	64.8069
22.718	64.7571
22.736	64.7135
22.754	64.6749
22.772	64.6429
22.79	64.6193
22.808	64.6031
22.826	64.5953
22.844	64.5968
22.862	64.607
22.88	64.6255
22.898	64.6521
22.916	64.6869
22.934	64.7283
22.952	64.7762
22.97	64.8307
22.988	64.889
23.006	64.951
23.024	65.0168
23.042	65.0841
23.06	65.1528
23.078	65.2229
23.096	65.2935
23.114	65.3641
23.132	65.4351
23.15	65.5064
23.168	65.5778
23.186	65.6496
23.204	65.7226
23.222	65.7965
23.24	65.8717
23.258	65.949
23.276	66.0283
23.294	66.1096
23.312	66.1935
23.33	66.2805
23.348	66.3699
23.366	66.4608
23.384	66.5537
23.402	66.6481
23.42	66.7417
23.438	66.8355
23.456	66.9285
23.474	67.0169
23.492	67.1011
23.51	67.1809
23.528	67.2513
23.546	67.3114
23.564	67.3623
23.582	67.3997
23.6	67.4218
23.618	67.4304
23.636	67.4233
23.654	67.399
23.672	67.3584
23.69	67.3024
23.708	67.2311
23.726	67.1436
23.744	67.0436
23.762	66.9336
23.78	66.8104
23.798	66.6803
23.816	66.5498
23.834	66.4138
23.852	66.2787
23.87	66.154
23.888	66.035
23.906	65.9259
23.924	65.8386
23.942	65.7716
23.96	65.7248
23.978	65.7091
23.996	65.7282
24.014	65.7778
24.032	65.8646
24.05	65.9932
24.068	66.1606
24.086	66.3673
24.104	66.6142
24.122	66.9022
24.14	67.2283
24.158	67.5892
24.176	67.9884
24.194	68.4219
24.212	68.8806
24.23	69.3656
24.248	69.8778
24.266	70.404
24.284	70.9382
24.302	71.4883
24.32	72.0398
24.338	72.5797
24.356	73.1182
24.374	73.6451
24.392	74.144
24.41	74.6192
24.428	75.0699
24.446	75.4815
24.464	75.8482
24.482	76.177
24.5	76.4596
24.518	76.6887
24.536	76.8682
24.554	76.9974
24.572	77.074
24.59	77.0968
24.608	77.0679
24.626	76.9898
24.644	76.8618
24.662	76.6826
24.68	76.46
24.698	76.2008
24.716	75.897
24.734	75.558
24.752	75.1988
24.77	74.8174
24.788	74.4117
24.806	73.9984
24.824	73.5884
24.842	73.1709
24.86	72.7567
24.878	72.3596
24.896	71.9747
24.914	71.6028
24.932	71.2559
24.95	70.94
24.968	70.6483
24.986	70.387
25.004	70.1634
25.022	69.9742
25.04	69.8202
25.058	69.7061
25.076	69.6341
25.094	69.6011
25.112	69.6099
25.13	69.6629
25.148	69.7595
25.166	69.8991
25.184	70.082
25.202	70.3089
25.22	70.5794
25.238	70.8921
25.256	71.2461
25.274	71.6442
25.292	72.0833
25.31	72.557
25.328	73.0629
25.346	73.607
25.364	74.1788
25.382	74.7666
25.4	75.3777
25.418	76.0099
25.436	76.6448
25.454	77.2699
25.472	77.9017
25.49	78.524
25.508	79.114
25.526	79.671
25.544	80.2058
25.562	80.6937
25.58	81.1118
25.598	81.4759
25.616	81.7795
25.634	82.0006
25.652	82.1261
25.67	82.1719
25.688	82.1264
25.706	81.975
25.724	81.7146
25.742	81.3525
25.76	80.8861
25.778	80.3127
25.796	79.6287
25.814	78.8405
25.832	77.9574
25.85	76.9824
25.868	75.9033
25.886	74.7397
25.904	73.515
25.922	72.2282
25.94	70.8661
25.958	69.4619
25.976	68.0489
25.994	66.6056
26.012	65.1361
26.03	63.6832
26.048	62.283
26.066	60.9012
26.084	59.5562
26.102	58.2878
26.12	57.1193
26.138	56.0165
26.156	55.0072
26.174	54.1277
26.192	53.3884
26.21	52.764
26.228	52.2809
26.246	51.967
26.264	51.8222
26.282	51.8336
26.3	52.0166
26.318	52.3863
26.336	52.9414
26.354	53.6753
26.372	54.5878
26.39	55.6794
26.408	56.9589
26.426	58.4155
26.444	60.0314
26.462	61.7939
26.48	63.7273
26.498	65.8097
26.516	68.0064
26.534	70.2952
26.552	72.714
26.57	75.2302
26.588	77.7975
26.606	80.3902
26.624	83.0536
26.642	85.7491
26.66	88.4267
26.678	91.0626
26.696	93.7026
26.714	96.3073
26.732	98.8288
26.75	101.247
26.768	103.603
26.786	105.862
26.804	107.983
26.822	109.947
26.84	111.787
26.858	113.482
26.876	115.007
26.894	116.348
26.912	117.522
26.93	118.527
26.948	119.358
26.966	119.996
26.984	120.421
27.002	120.694
27.02	120.883
27.028	120.947