File: Bakgrunnsmateriale/MATLAB/FTIR/ftir_data/subCa/Mapping_25/BZ12041010-4_t05.asc
PE IR       SPECTRUM    SPECTRUM    ASCII       PEDS        1.60
  -1
BZ36B2~1.ASC
17/04/10
09:14:49.00
17/04/10
09:15:16.00
tln
$BZ12041010-4_t0005$<tbV0>[-5.2,-12.4,9.0,0.0,22,1,0]
27.028
64

2002,4.07
MIRTGS : RIGHTBACK : INTERNAL 2
MIR : ON : INTERNAL 2
OPTKBR

0.200000
8
8.000000
FILLER
RATIO
SPECTRUM
UNLOCKED 256

DOUBLE
64
COMBINED
1
0
0

0.002000
RATIO

1
0
TRUE
51149
0
LEFT NOT FITTED RIGHT NOT FITTED 0
NONE
NONE
15600
12
4.427000
51148
TRUE
1 0 8 72 0 0 0 0

15798

#HDR
-1
-1
#GR
µM
%T
2.38419e-05
0.0
2.000000
0.002000
12515
8
99.6782
51.5689
#DATA
2.000000	 64.9431
2.018000	 65.0296
2.036000	 65.1796
2.054000	 64.544
2.072000	 65.2198
2.090000	 65.8388
2.108000	 64.9064
2.126000	 64.9112
2.144000	 64.822
2.162000	 65.0329
2.180000	 64.4814
2.198000	 65.3907
2.216000	 65.7541
2.234000	 65.5336
2.252000	 65.9469
2.270000	 65.569
2.288000	 65.661
2.306000	 65.4917
2.324000	 64.6764
2.342000	 64.9798
2.360000	 65.2957
2.378000	 65.124
2.396000	 65.0775
2.414000	 64.8172
2.432000	 64.9469
2.450000	 65.1155
2.468000	 65.155
2.486000	 65.1718
2.504000	 65.0854
2.522000	 65.214
2.540000	 64.9338
2.558000	 65.3604
2.576000	 65.3773
2.594000	 65.5336
2.612000	 65.4052
2.630000	 65.349
2.648000	 64.995
2.666000	 65.392
2.684000	 65.2654
2.702000	 65.3063
2.720000	 65.5375
2.738000	 65.4721
2.756000	 65.5245
2.774000	 65.3867
2.792000	 65.2066
2.810000	 65.4564
2.828000	 65.2528
2.846000	 65.3197
2.864000	 65.355
2.882000	 65.3266
2.900000	 65.3076
2.918000	 65.171
2.936000	 65.2734
2.954000	 65.3006
2.972000	 65.4643
2.990000	 65.2199
3.008000	 65.3042
3.026000	 65.2159
3.044000	 65.218
3.062000	 65.1771
3.080000	 65.3941
3.098000	 65.2873
3.116000	 65.201
3.134000	 65.338
3.152000	 65.2585
3.170000	 65.2274
3.188000	 65.2746
3.206000	 65.1406
3.224000	 65.2974
3.242000	 65.3658
3.260000	 65.1832
3.278000	 65.3536
3.296000	 65.0686
3.314000	 65.3081
3.332000	 65.0261
3.350000	 65.1739
3.368000	 65.2349
3.386000	 65.1988
3.404000	 65.1423
3.422000	 65.1223
3.440000	 65.2289
3.458000	 65.1832
3.476000	 65.1967
3.494000	 65.2854
3.512000	 65.2138
3.530000	 65.1667
3.548000	 65.1923
3.566000	 65.2394
3.584000	 65.1435
3.602000	 65.2405
3.620000	 65.2386
3.638000	 65.3114
3.656000	 65.4269
3.674000	 65.242
3.692000	 65.257
3.710000	 65.2504
3.728000	 65.101
3.746000	 65.3405
3.764000	 65.2776
3.782000	 65.2274
3.800000	 65.3138
3.818000	 65.3053
3.836000	 65.353
3.854000	 65.323
3.872000	 65.3218
3.890000	 65.2898
3.908000	 65.2948
3.926000	 65.3166
3.944000	 65.2831
3.962000	 65.3035
3.980000	 65.2826
3.998000	 65.3052
4.016000	 65.3842
4.034000	 65.1783
4.052000	 65.2936
4.070000	 65.3523
4.088000	 65.2089
4.106000	 65.2606
4.124000	 65.2955
4.141999	 65.2863
4.160000	 65.3166
4.178000	 65.2717
4.196000	 65.2438
4.214000	 65.2395
4.232000	 65.244
4.250000	 65.3498
4.268000	 65.2535
4.286000	 65.2868
4.304000	 65.2511
4.322000	 65.341
4.340000	 65.3097
4.358000	 65.2707
4.375999	 65.2941
4.394000	 65.3089
4.412000	 65.2598
4.430000	 65.2642
4.448000	 65.3711
4.466000	 65.3542
4.484000	 65.3515
4.502000	 65.3913
4.520000	 65.3833
4.538000	 65.2974
4.556000	 65.2872
4.574000	 65.3731
4.592000	 65.298
4.609999	 65.3418
4.628000	 65.3948
4.646000	 65.4004
4.664000	 65.2519
4.682000	 65.2698
4.700000	 65.2872
4.718000	 65.2959
4.736000	 65.3446
4.754000	 65.385
4.772000	 65.2753
4.790000	 65.1702
4.808000	 65.3672
4.826000	 65.4029
4.843999	 65.3709
4.862000	 65.3901
4.880000	 65.4381
4.898000	 65.3475
4.916000	 65.3687
4.934000	 65.3681
4.952000	 65.3798
4.970000	 65.3315
4.988000	 65.3691
5.006000	 65.3495
5.024000	 65.356
5.042000	 65.3604
5.060000	 65.297
5.077999	 65.2793
5.096000	 65.2351
5.114000	 65.3386
5.132000	 65.2904
5.150000	 65.3504
5.168000	 65.382
5.186000	 65.3184
5.204000	 65.3281
5.222000	 65.3363
5.240000	 65.389
5.258000	 65.3651
5.276000	 65.3362
5.294000	 65.3164
5.312000	 65.3281
5.330000	 65.3338
5.348000	 65.3423
5.366000	 65.4005
5.384000	 65.409
5.402000	 65.3758
5.420000	 65.3718
5.438000	 65.2675
5.456000	 65.2695
5.474000	 65.3039
5.492000	 65.3594
5.510000	 65.3127
5.528000	 65.3195
5.546000	 65.3913
5.564000	 65.3962
5.582000	 65.4447
5.600000	 65.4309
5.618000	 65.3326
5.636000	 65.4053
5.654000	 65.4513
5.672000	 65.4136
5.690000	 65.4134
5.708000	 65.3742
5.726000	 65.3058
5.744000	 65.2435
5.762000	 65.2496
5.780000	 65.151
5.798000	 65.1072
5.816000	 65.3674
5.834000	 65.3893
5.852000	 65.3176
5.870000	 65.4064
5.888000	 65.4587
5.906000	 65.3433
5.923999	 65.3627
5.942000	 65.4704
5.960000	 65.4449
5.978000	 65.4787
5.996000	 65.417
6.014000	 65.3773
6.032000	 65.4732
6.050000	 65.6157
6.068000	 65.4758
6.086000	 65.327
6.104000	 65.4013
6.122000	 65.4136
6.140000	 65.3343
6.158000	 65.2913
6.176000	 65.29
6.194000	 65.2951
6.212000	 65.2224
6.230000	 65.248
6.248000	 65.2825
6.266000	 65.2564
6.284000	 65.2041
6.302000	 65.2546
6.320000	 65.3909
6.338000	 65.5048
6.356000	 65.5063
6.374000	 65.3951
6.392000	 65.3999
6.410000	 65.6326
6.428000	 65.668
6.446000	 65.4987
6.464000	 65.4545
6.482000	 65.5441
6.500000	 65.5859
6.518000	 65.5017
6.536000	 65.4449
6.554000	 65.5126
6.572000	 65.5858
6.590000	 65.55
6.608000	 65.5494
6.626000	 65.6094
6.644000	 65.5477
6.662000	 65.4423
6.680000	 65.4271
6.698000	 65.4036
6.716000	 65.361
6.734000	 65.3067
6.752000	 65.2549
6.770000	 65.2932
6.788000	 65.3674
6.806000	 65.3763
6.824000	 65.3424
6.842000	 65.3486
6.860000	 65.3869
6.878000	 65.3552
6.896000	 65.2954
6.914000	 65.2939
6.932000	 65.2931
6.950000	 65.2949
6.968000	 65.3465
6.986000	 65.4068
7.004000	 65.44
7.022000	 65.4586
7.040000	 65.4348
7.058000	 65.3436
7.076000	 65.2603
7.094000	 65.2548
7.112000	 65.2718
7.130000	 65.2693
7.148000	 65.2896
7.166000	 65.3313
7.184000	 65.3561
7.202000	 65.3535
7.220000	 65.3256
7.238000	 65.3026
7.256000	 65.311
7.274000	 65.3251
7.292000	 65.3122
7.310000	 65.2776
7.328000	 65.2495
7.346000	 65.2402
7.364000	 65.2257
7.382000	 65.1946
7.400000	 65.1865
7.418000	 65.2194
7.436000	 65.2474
7.454000	 65.2501
7.472000	 65.2592
7.490000	 65.2747
7.508000	 65.2651
7.526000	 65.2456
7.544000	 65.2571
7.562000	 65.2933
7.580000	 65.3147
7.598000	 65.3128
7.616000	 65.311
7.634000	 65.3229
7.652000	 65.3467
7.670000	 65.3673
7.688000	 65.352
7.706000	 65.2869
7.724000	 65.2228
7.742000	 65.2177
7.760000	 65.2574
7.778000	 65.2819
7.796000	 65.2672
7.814000	 65.247
7.832000	 65.2491
7.850000	 65.2422
7.868000	 65.1823
7.886000	 65.0998
7.904000	 65.0771
7.922000	 65.1345
7.940000	 65.2
7.958000	 65.2134
7.976000	 65.2044
7.994000	 65.231
8.012000	 65.2853
8.030000	 65.3096
8.048000	 65.2885
8.065999	 65.2583
8.084000	 65.2431
8.102000	 65.2364
8.120000	 65.2343
8.138000	 65.2424
8.155999	 65.2604
8.173999	 65.281
8.192000	 65.2951
8.210000	 65.2949
8.228000	 65.2845
8.246000	 65.2816
8.263999	 65.2969
8.282000	 65.3234
8.300000	 65.3432
8.318000	 65.3423
8.336000	 65.3239
8.353999	 65.3043
8.372000	 65.2896
8.390000	 65.2615
8.408000	 65.203
8.426000	 65.1275
8.443999	 65.0663
8.462000	 65.0365
8.480000	 65.0312
8.498000	 65.0356
8.516000	 65.0411
8.533999	 65.0485
8.552000	 65.0686
8.570000	 65.1138
8.588000	 65.1839
8.606000	 65.2583
8.624000	 65.3055
8.641999	 65.3023
8.660000	 65.2552
8.678000	 65.1985
8.696000	 65.164
8.714000	 65.1576
8.731999	 65.1649
8.750000	 65.1688
8.768000	 65.1645
8.786000	 65.161
8.804000	 65.1704
8.821999	 65.1913
8.840000	 65.2098
8.858000	 65.2166
8.876000	 65.2191
8.894000	 65.2268
8.911999	 65.2362
8.930000	 65.2421
8.948000	 65.2504
8.966000	 65.2631
8.984000	 65.2676
9.001999	 65.2497
9.020000	 65.2114
9.038000	 65.1696
9.056000	 65.1409
9.074000	 65.1306
9.092000	 65.1365
9.109999	 65.1567
9.128000	 65.1924
9.146000	 65.2434
9.164000	 65.3035
9.182000	 65.3558
9.199999	 65.3793
9.218000	 65.3625
9.236000	 65.3122
9.254000	 65.2486
9.272000	 65.1905
9.289999	 65.1456
9.308000	 65.1147
9.326000	 65.0991
9.344000	 65.1019
9.362000	 65.1221
9.379999	 65.1509
9.398000	 65.1758
9.416000	 65.1892
9.434000	 65.1942
9.452000	 65.2042
9.469999	 65.2323
9.488000	 65.2798
9.506000	 65.3268
9.524000	 65.3409
9.542000	 65.3011
9.560000	 65.2178
9.577999	 65.1294
9.596000	 65.0738
9.614000	 65.0654
9.632000	 65.0929
9.650000	 65.1339
9.667999	 65.1711
9.686000	 65.1998
9.704000	 65.224
9.722000	 65.2485
9.740000	 65.2756
9.757999	 65.304
9.776000	 65.3291
9.794000	 65.3399
9.812000	 65.3223
9.830000	 65.2686
9.847999	 65.1897
9.866000	 65.1137
9.884000	 65.0708
9.902000	 65.075
9.920000	 65.1159
9.937999	 65.1696
9.956000	 65.2188
9.974000	 65.2602
9.992000	 65.2979
10.01	65.3323
10.028	65.3566
10.046	65.363
10.064	65.3508
10.082	65.326
10.1	65.2983
10.118	65.2758
10.136	65.2629
10.154	65.2612
10.172	65.2693
10.19	65.281
10.208	65.2897
10.226	65.2931
10.244	65.2968
10.262	65.3104
10.28	65.3366
10.298	65.367
10.316	65.3844
10.334	65.3744
10.352	65.3354
10.37	65.2815
10.388	65.235
10.406	65.2127
10.424	65.2184
10.442	65.2413
10.46	65.2667
10.478	65.2834
10.496	65.2896
10.514	65.2903
10.532	65.2908
10.55	65.2925
10.568	65.2919
10.586	65.2845
10.604	65.2698
10.622	65.2527
10.64	65.2429
10.658	65.2491
10.676	65.2767
10.694	65.3241
10.712	65.3819
10.73	65.4358
10.748	65.4703
10.766	65.4756
10.784	65.4508
10.802	65.4046
10.82	65.3492
10.838	65.2964
10.856	65.253
10.874	65.2216
10.892	65.2026
10.91	65.1953
10.928	65.1995
10.946	65.2139
10.964	65.2355
10.982	65.2605
11	65.2856
11.018	65.3093
11.036	65.3306
11.054	65.3475
11.072	65.3569
11.09	65.3552
11.108	65.3412
11.126	65.3171
11.144	65.2881
11.162	65.2616
11.18	65.2442
11.198	65.2412
11.216	65.2548
11.234	65.284
11.252	65.3237
11.27	65.3656
11.288	65.3988
11.306	65.4146
11.324	65.41
11.342	65.3904
11.36	65.368
11.378	65.3581
11.396	65.3708
11.414	65.4076
11.432	65.4609
11.45	65.5175
11.468	65.5634
11.486	65.5893
11.504	65.5921
11.522	65.5743
11.54	65.542
11.558	65.5027
11.576	65.4643
11.594	65.4337
11.612	65.4172
11.63	65.4184
11.648	65.4363
11.666	65.4661
11.684	65.4996
11.702	65.5286
11.72	65.5459
11.738	65.5483
11.756	65.5359
11.774	65.5115
11.792	65.4792
11.81	65.4431
11.828	65.4077
11.846	65.3766
11.864	65.3536
11.882	65.3412
11.9	65.3415
11.918	65.3542
11.936	65.3777
11.954	65.4097
11.972	65.4478
11.99	65.4897
12.008	65.5335
12.026	65.5761
12.044	65.6139
12.062	65.6409
12.08	65.6514
12.098	65.6413
12.116	65.6105
12.134	65.5642
12.152	65.5121
12.17	65.4654
12.188	65.4342
12.206	65.4243
12.224	65.4358
12.242	65.4643
12.26	65.5024
12.278	65.5419
12.296	65.5746
12.314	65.5944
12.332	65.5984
12.35	65.5863
12.368	65.5612
12.386	65.5289
12.404	65.4965
12.422	65.4706
12.44	65.4556
12.458	65.4528
12.476	65.4613
12.494	65.4773
12.512	65.4963
12.53	65.5144
12.548	65.5294
12.566	65.5405
12.584	65.5484
12.602	65.5543
12.62	65.5596
12.638	65.5648
12.656	65.5701
12.674	65.576
12.692	65.5838
12.71	65.5958
12.728	65.6145
12.746	65.6424
12.764	65.6799
12.782	65.7246
12.8	65.7711
12.818	65.8121
12.836	65.8403
12.854	65.8502
12.872	65.8399
12.89	65.8113
12.908	65.7701
12.926	65.724
12.944	65.6808
12.962	65.6467
12.98	65.6253
12.998	65.617
13.016	65.6198
13.034	65.6299
13.052	65.643
13.07	65.6552
13.088	65.6635
13.106	65.6662
13.124	65.6626
13.142	65.6534
13.16	65.6395
13.178	65.6225
13.196	65.6043
13.214	65.5863
13.232	65.5698
13.25	65.5549
13.268	65.541
13.286	65.5263
13.304	65.509
13.322	65.487
13.34	65.4588
13.358	65.4242
13.376	65.3845
13.394	65.3423
13.412	65.3015
13.43	65.266
13.448	65.2393
13.466	65.2237
13.484	65.2202
13.502	65.228
13.52	65.2452
13.538	65.2694
13.556	65.2978
13.574	65.3279
13.592	65.3576
13.61	65.3853
13.628	65.4101
13.646	65.4317
13.664	65.4498
13.682	65.4643
13.7	65.4746
13.718	65.4805
13.736	65.4813
13.754	65.477
13.772	65.4682
13.79	65.4563
13.808	65.4438
13.826	65.434
13.844	65.4307
13.862	65.4372
13.88	65.4557
13.898	65.4871
13.916	65.53
13.934	65.5811
13.952	65.6356
13.97	65.688
13.988	65.7331
14.006	65.7668
14.024	65.7872
14.042	65.7947
14.06	65.7919
14.078	65.7827
14.096	65.7713
14.114	65.761
14.132	65.7538
14.15	65.75
14.168	65.7483
14.186	65.7458
14.204	65.7398
14.222	65.7271
14.24	65.7063
14.258	65.6771
14.276	65.6407
14.294	65.6
14.312	65.5586
14.33	65.5202
14.348	65.4885
14.366	65.4662
14.384	65.4547
14.402	65.4538
14.42	65.4625
14.438	65.4787
14.456	65.4999
14.474	65.5234
14.492	65.5469
14.51	65.5683
14.528	65.5864
14.546	65.6006
14.564	65.6107
14.582	65.6168
14.6	65.6193
14.618	65.6188
14.636	65.6157
14.654	65.6108
14.672	65.6048
14.69	65.5984
14.708	65.5929
14.726	65.59
14.744	65.5914
14.762	65.5989
14.78	65.6137
14.798	65.6364
14.816	65.6666
14.834	65.7025
14.852	65.741
14.87	65.7783
14.888	65.8102
14.906	65.8326
14.924	65.8417
14.942	65.8353
14.96	65.8129
14.978	65.7752
14.996	65.7247
15.014	65.6646
15.032	65.5997
15.05	65.535
15.068	65.4747
15.086	65.4228
15.104	65.3824
15.122	65.3558
15.14	65.3437
15.158	65.3458
15.176	65.3614
15.194	65.3886
15.212	65.4245
15.23	65.4662
15.248	65.5106
15.266	65.5543
15.284	65.5934
15.302	65.625
15.32	65.6466
15.338	65.6562
15.356	65.6531
15.374	65.6376
15.392	65.6116
15.41	65.5773
15.428	65.5383
15.446	65.4992
15.464	65.4643
15.482	65.4373
15.5	65.4217
15.518	65.4201
15.536	65.4327
15.554	65.4592
15.572	65.498
15.59	65.5452
15.608	65.597
15.626	65.6496
15.644	65.6983
15.662	65.7388
15.68	65.7686
15.698	65.7856
15.716	65.7889
15.734	65.7792
15.752	65.7579
15.77	65.7267
15.788	65.6892
15.806	65.6484
15.824	65.6073
15.842	65.569
15.86	65.5366
15.878	65.5116
15.896	65.4955
15.914	65.4891
15.932	65.4919
15.95	65.5036
15.968	65.523
15.986	65.5484
16.004	65.5786
16.022	65.6123
16.04	65.6474
16.058	65.6829
16.076	65.718
16.094	65.7515
16.112	65.7833
16.13	65.8131
16.148	65.8408
16.166	65.8666
16.184	65.8911
16.202	65.9149
16.22	65.9388
16.238	65.9633
16.256	65.989
16.274	66.0159
16.292	66.0434
16.31	66.0709
16.328	66.0962
16.346	66.1175
16.364	66.1332
16.382	66.1401
16.4	66.1365
16.418	66.1209
16.436	66.092
16.454	66.05
16.472	65.9955
16.49	65.9304
16.508	65.8575
16.526	65.7791
16.544	65.7
16.562	65.6236
16.58	65.5527
16.598	65.4917
16.616	65.4422
16.634	65.406
16.652	65.3843
16.67	65.3767
16.688	65.383
16.706	65.4011
16.724	65.4296
16.742	65.4663
16.76	65.5084
16.778	65.5541
16.796	65.6007
16.814	65.6457
16.832	65.6876
16.85	65.724
16.868	65.7534
16.886	65.7745
16.904	65.7861
16.922	65.788
16.94	65.7798
16.958	65.7624
16.976	65.7365
16.994	65.7038
17.012	65.6663
17.03	65.6253
17.048	65.5839
17.066	65.5436
17.084	65.5065
17.102	65.4744
17.12	65.4482
17.138	65.4293
17.156	65.4179
17.174	65.4145
17.192	65.419
17.21	65.431
17.228	65.45
17.246	65.4754
17.264	65.5066
17.282	65.5426
17.3	65.5828
17.318	65.6263
17.336	65.6722
17.354	65.7201
17.372	65.7687
17.39	65.8176
17.408	65.8654
17.426	65.9115
17.444	65.9554
17.462	65.996
17.48	66.033
17.498	66.0656
17.516	66.0936
17.534	66.1165
17.552	66.1345
17.57	66.1476
17.588	66.1562
17.606	66.1607
17.624	66.1616
17.642	66.1594
17.66	66.1545
17.678	66.1476
17.696	66.1392
17.714	66.1297
17.732	66.1196
17.75	66.1097
17.768	66.1004
17.786	66.092
17.804	66.0852
17.822	66.0802
17.84	66.0773
17.858	66.0765
17.876	66.0779
17.894	66.0813
17.912	66.0864
17.93	66.0926
17.948	66.0997
17.966	66.1068
17.984	66.1137
18.002	66.1197
18.02	66.1248
18.038	66.1286
18.056	66.1314
18.074	66.1333
18.092	66.135
18.11	66.1367
18.128	66.1395
18.146	66.1436
18.164	66.1503
18.182	66.1597
18.2	66.1728
18.218	66.1897
18.236	66.2108
18.254	66.236
18.272	66.2654
18.29	66.2981
18.308	66.3342
18.326	66.3722
18.344	66.4121
18.362	66.4524
18.38	66.4928
18.398	66.5319
18.416	66.5691
18.434	66.6038
18.452	66.635
18.47	66.6622
18.488	66.6847
18.506	66.7022
18.524	66.7141
18.542	66.7203
18.56	66.7205
18.578	66.7147
18.596	66.703
18.614	66.6855
18.632	66.6627
18.65	66.635
18.668	66.6034
18.686	66.5683
18.704	66.5312
18.722	66.4925
18.74	66.4541
18.758	66.4164
18.776	66.3814
18.794	66.3494
18.812	66.3221
18.83	66.2998
18.848	66.2834
18.866	66.273
18.884	66.2691
18.902	66.2713
18.92	66.2794
18.938	66.2929
18.956	66.311
18.974	66.3331
18.992	66.3579
19.01	66.3849
19.028	66.413
19.046	66.4417
19.064	66.4699
19.082	66.4975
19.1	66.5236
19.118	66.5483
19.136	66.5712
19.154	66.5923
19.172	66.6113
19.19	66.6282
19.208	66.643
19.226	66.6555
19.244	66.6657
19.262	66.6735
19.28	66.6789
19.298	66.6819
19.316	66.6829
19.334	66.682
19.352	66.68
19.37	66.6769
19.388	66.6743
19.406	66.6721
19.424	66.6719
19.442	66.6736
19.46	66.6787
19.478	66.6873
19.496	66.6998
19.514	66.7165
19.532	66.7365
19.55	66.7599
19.568	66.7855
19.586	66.8121
19.604	66.839
19.622	66.864
19.64	66.887
19.658	66.9051
19.676	66.9186
19.694	66.9249
19.712	66.9243
19.73	66.9155
19.748	66.8984
19.766	66.8731
19.784	66.8395
19.802	66.7989
19.82	66.7516
19.838	66.6991
19.856	66.643
19.874	66.5838
19.892	66.5248
19.91	66.4657
19.928	66.4102
19.946	66.3578
19.964	66.3116
19.982	66.2717
20	66.2396
20.018	66.2161
20.036	66.2012
20.054	66.1956
20.072	66.1989
20.09	66.2105
20.108	66.2305
20.126	66.2569
20.144	66.2899
20.162	66.3272
20.18	66.3681
20.198	66.4115
20.216	66.4553
20.234	66.4998
20.252	66.5424
20.27	66.5837
20.288	66.622
20.306	66.6573
20.324	66.689
20.342	66.7168
20.36	66.7407
20.378	66.7607
20.396	66.7767
20.414	66.7891
20.432	66.7977
20.45	66.803
20.468	66.8053
20.486	66.8044
20.504	66.8007
20.522	66.7941
20.54	66.7845
20.558	66.772
20.576	66.7563
20.594	66.737
20.612	66.7144
20.63	66.688
20.648	66.6581
20.666	66.6245
20.684	66.587
20.702	66.5458
20.72	66.501
20.738	66.4528
20.756	66.4016
20.774	66.3474
20.792	66.2914
20.81	66.2337
20.828	66.1751
20.846	66.1169
20.864	66.059
20.882	66.0034
20.9	65.9499
20.918	65.9
20.936	65.8547
20.954	65.8138
20.972	65.779
20.99	65.7501
21.008	65.7276
21.026	65.7118
21.044	65.7025
21.062	65.6991
21.08	65.702
21.098	65.7093
21.116	65.7212
21.134	65.7367
21.152	65.7535
21.17	65.7725
21.188	65.7906
21.206	65.8074
21.224	65.8221
21.242	65.8323
21.26	65.8387
21.278	65.8392
21.296	65.8335
21.314	65.8216
21.332	65.803
21.35	65.7776
21.368	65.7464
21.386	65.7089
21.404	65.6663
21.422	65.6204
21.44	65.5706
21.458	65.5195
21.476	65.4679
21.494	65.4162
21.512	65.3679
21.53	65.322
21.548	65.2811
21.566	65.2473
21.584	65.2197
21.602	65.2016
21.62	65.1928
21.638	65.1937
21.656	65.2059
21.674	65.2288
21.692	65.2624
21.71	65.3071
21.728	65.3624
21.746	65.4269
21.764	65.5015
21.782	65.584
21.8	65.6732
21.818	65.7696
21.836	65.8697
21.854	65.9736
21.872	66.0803
21.89	66.1863
21.908	66.293
21.926	66.3977
21.944	66.4986
21.962	66.5965
21.98	66.6889
21.998	66.7756
22.016	66.8566
22.034	66.9304
22.052	66.9974
22.07	67.0575
22.088	67.1104
22.106	67.1563
22.124	67.1955
22.142	67.228
22.16	67.2541
22.178	67.2749
22.196	67.29
22.214	67.3002
22.232	67.3068
22.25	67.3091
22.268	67.3085
22.286	67.3058
22.304	67.3004
22.322	67.294
22.34	67.2865
22.358	67.2781
22.376	67.27
22.394	67.2619
22.412	67.2543
22.43	67.2479
22.448	67.2423
22.466	67.2381
22.484	67.2359
22.502	67.2353
22.52	67.2367
22.538	67.2402
22.556	67.2457
22.574	67.2532
22.592	67.2631
22.61	67.2749
22.628	67.2884
22.646	67.304
22.664	67.3208
22.682	67.3374
22.7	67.3547
22.718	67.3711
22.736	67.3845
22.754	67.396
22.772	67.404
22.79	67.4069
22.808	67.4056
22.826	67.3986
22.844	67.385
22.862	67.3653
22.88	67.3383
22.898	67.3031
22.916	67.2603
22.934	67.2096
22.952	67.1505
22.97	67.0835
22.988	67.0095
23.006	66.9284
23.024	66.8405
23.042	66.7483
23.06	66.6514
23.078	66.5502
23.096	66.4484
23.114	66.3452
23.132	66.2414
23.15	66.1408
23.168	66.043
23.186	65.9483
23.204	65.8594
23.222	65.776
23.24	65.6984
23.258	65.6288
23.276	65.5671
23.294	65.5132
23.312	65.4683
23.33	65.4326
23.348	65.4057
23.366	65.3883
23.384	65.3804
23.402	65.3819
23.42	65.3928
23.438	65.4134
23.456	65.4435
23.474	65.4822
23.492	65.5298
23.51	65.586
23.528	65.6491
23.546	65.7191
23.564	65.796
23.582	65.8774
23.6	65.9625
23.618	66.0522
23.636	66.1434
23.654	66.2351
23.672	66.3287
23.69	66.4203
23.708	66.5075
23.726	66.5927
23.744	66.6717
23.762	66.7409
23.78	66.803
23.798	66.855
23.816	66.8934
23.834	66.9196
23.852	66.9329
23.87	66.9312
23.888	66.9145
23.906	66.8835
23.924	66.8388
23.942	66.7791
23.96	66.7057
23.978	66.6225
23.996	66.5295
24.014	66.4255
24.032	66.3185
24.05	66.2122
24.068	66.1018
24.086	65.9968
24.104	65.906
24.122	65.822
24.14	65.7532
24.158	65.7116
24.176	65.6928
24.194	65.6992
24.212	65.7414
24.23	65.8208
24.248	65.9344
24.266	66.0894
24.284	66.2909
24.302	66.5355
24.32	66.8226
24.338	67.1526
24.356	67.5285
24.374	67.9437
24.392	68.3897
24.41	68.8725
24.428	69.3874
24.446	69.9174
24.464	70.4586
24.482	71.0191
24.5	71.5777
24.518	72.1175
24.536	72.6535
24.554	73.1703
24.572	73.6458
24.59	74.0861
24.608	74.4904
24.626	74.8399
24.644	75.1256
24.662	75.357
24.68	75.5261
24.698	75.6243
24.716	75.6531
24.734	75.6161
24.752	75.5161
24.77	75.3485
24.788	75.1158
24.806	74.8324
24.824	74.5064
24.842	74.1258
24.86	73.7083
24.878	73.2753
24.896	72.8158
24.914	72.3351
24.932	71.8588
24.95	71.3993
24.968	70.9402
24.986	70.5023
25.004	70.1074
25.022	69.7451
25.04	69.4192
25.058	69.1472
25.076	68.9373
25.094	68.7794
25.112	68.6823
25.13	68.6554
25.148	68.6976
25.166	68.8056
25.184	68.9784
25.202	69.2181
25.22	69.5265
25.238	69.8926
25.256	70.3058
25.274	70.7741
25.292	71.2924
25.31	71.8451
25.328	72.4241
25.346	73.0402
25.364	73.6812
25.382	74.3323
25.4	74.9993
25.418	75.6821
25.436	76.3651
25.454	77.0371
25.472	77.7101
25.49	78.3743
25.508	79.0155
25.526	79.6298
25.544	80.2244
25.562	80.7932
25.58	81.3303
25.598	81.836
25.616	82.3129
25.634	82.7627
25.652	83.186
25.67	83.5812
25.688	83.9509
25.706	84.2984
25.724	84.6233
25.742	84.9247
25.76	85.2059
25.778	85.47
25.796	85.7141
25.814	85.9401
25.832	86.1523
25.85	86.3536
25.868	86.5411
25.886	86.7167
25.904	86.8834
25.922	87.0419
25.94	87.1904
25.958	87.3313
25.976	87.4666
25.994	87.5961
26.012	87.7192
26.03	87.8368
26.048	87.9501
26.066	88.0607
26.084	88.1659
26.102	88.2618
26.12	88.3461
26.138	88.4221
26.156	88.4871
26.174	88.538
26.192	88.5718
26.21	88.5901
26.228	88.5961
26.246	88.5934
26.264	88.5794
26.282	88.5536
26.3	88.5235
26.318	88.4965
26.336	88.4675
26.354	88.4372
26.372	88.4149
26.39	88.4088
26.408	88.4116
26.426	88.4261
26.444	88.4617
26.462	88.526
26.48	88.6109
26.498	88.7204
26.516	88.8623
26.534	89.043
26.552	89.2575
26.57	89.5061
26.588	89.7904
26.606	90.112
26.624	90.47
26.642	90.8633
26.66	91.2907
26.678	91.7541
26.696	92.2587
26.714	92.7929
26.732	93.3437
26.75	93.9071
26.768	94.4966
26.786	95.0961
26.804	95.6874
26.822	96.2671
26.84	96.8554
26.858	97.4252
26.876	97.9465
26.894	98.4089
26.912	98.8412
26.93	99.2149
26.948	99.4978
26.966	99.6525
26.984	99.6746
27.002	99.6276
27.02	99.5778
27.028	99.5719