File: Bakgrunnsmateriale/MATLAB/FTIR/ftir_data/subCa/Mapping_25/BZ12041010-4_t06_cm-1.asc
PE IR       SPECTRUM    SPECTRUM    ASCII       PEDS        1.60
  -1
BZABFF~1.ASC
17/04/10
09:19:46.00
17/04/10
09:19:46.00
tln
$BZ12041010-4_t0006$<tbV0>[5.2,-9.8,9.0,0.0,22,1,0]
370
64

2002,4.07
MIRTGS : RIGHTBACK : INTERNAL 2
MIR : ON : INTERNAL 2
OPTKBR

0.200000
8
8.000000
FILLER
RATIO
SPECTRUM
UNLOCKED 256

DOUBLE
64
COMBINED
1
0
0

1.000000
RATIO

1
0
TRUE
51149
0
LEFT NOT FITTED RIGHT NOT FITTED 0
NONE
NONE
15600
12
4.427000
51148
TRUE
1 0 8 72 0 0 0 0

15798

#HDR
-1
-1
#GR
CM-1
%T
2.38419e-05
0.0
5000
-1.000000
4631
8
105.742
41.4093
#DATA
5000	65.3397
4996	64.9471
4992	64.503
4988	64.3759
4984	64.5117
4980	64.7804
4976	64.8308
4972	64.7177
4968	64.5139
4964	64.0578
4960	64.0935
4956	64.7907
4952	65.1331
4948	65.0713
4944	65.0934
4940	65.0223
4936	64.8151
4932	64.7021
4928	64.6271
4924	64.5546
4920	64.7511
4916	65.1114
4912	65.1643
4908	64.8282
4904	64.3257
4900	64.1191
4896	64.2494
4892	64.3194
4888	64.314
4884	64.4248
4880	64.5674
4876	64.5519
4872	64.2936
4868	63.5997
4864	63.1463
4860	63.4331
4856	64.319
4852	65.7145
4848	66.5274
4844	66.199
4840	65.7809
4836	66.0187
4832	65.9526
4828	65.2842
4824	64.6785
4820	63.8043
4816	63.3895
4812	64.1545
4808	65.1752
4804	65.8239
4800	65.6564
4796	64.7644
4792	64.564
4788	65.0848
4784	65.0438
4780	64.6602
4776	64.5954
4772	64.6481
4768	64.6485
4764	64.7806
4760	64.9716
4756	65.059
4752	64.9264
4748	64.6511
4744	64.6693
4740	65.0893
4736	65.4157
4732	65.1237
4728	64.6616
4724	64.6337
4720	64.947
4716	65.38
4712	65.5996
4708	65.5037
4704	65.0146
4700	64.3058
4696	63.9904
4692	63.8595
4688	63.7722
4684	64.04
4680	64.2089
4676	64.2598
4672	64.7367
4668	65.1962
4664	65.2582
4660	65.1008
4656	64.9465
4652	65.3111
4648	65.9946
4644	66.235
4640	65.6997
4636	65.0446
4632	65.1458
4628	65.3754
4624	64.9539
4620	64.6193
4616	64.9148
4612	65.164
4608	64.9805
4604	64.7398
4600	64.6195
4596	64.4061
4592	64.4098
4588	64.718
4584	64.772
4580	64.7259
4576	64.8858
4572	65.0475
4568	65.1199
4564	65.1361
4560	65.1256
4556	65.1064
4552	65.2588
4548	65.4154
4544	65.3613
4540	65.1472
4536	64.7622
4532	64.6205
4528	64.799
4524	64.7459
4520	64.616
4516	65.0461
4512	65.5627
4508	65.617
4504	65.3237
4500	64.9333
4496	63.2355
4492	60.0883
4488	59.0116
4484	60.1496
4480	60.1752
4476	59.2285
4472	56.1223
4468	53.5858
4464	63.3259
4460	76.179
4456	74.72
4452	67.9901
4448	65.6326
4444	65.1488
4440	65.4197
4436	65.747
4432	65.6018
4428	65.1087
4424	64.9448
4420	65.1858
4416	65.4283
4412	65.6373
4408	65.5037
4404	65.0471
4400	64.832
4396	64.8911
4392	64.9762
4388	64.9038
4384	64.764
4380	64.8145
4376	65.0228
4372	65.1244
4368	64.967
4364	64.784
4360	64.7296
4356	64.7701
4352	64.8708
4348	64.9645
4344	65.0701
4340	65.1335
4336	65.1226
4332	65.1482
4328	64.9549
4324	64.5597
4320	64.4859
4316	64.6928
4312	64.8587
4308	64.8914
4304	64.8332
4300	64.8806
4296	65.0052
4292	64.9072
4288	64.6492
4284	64.6207
4280	64.7954
4276	64.9294
4272	64.9868
4268	64.8674
4264	64.7609
4260	64.8255
4256	64.8777
4252	64.9474
4248	65.0307
4244	65.0121
4240	64.9801
4236	64.9751
4232	64.9249
4228	64.948
4224	65.0511
4220	65.0993
4216	65.016
4212	64.9105
4208	64.8119
4204	64.7219
4200	64.8057
4196	64.9723
4192	65.1778
4188	65.257
4184	65.1485
4180	65.1281
4176	65.1588
4172	65.1652
4168	65.1096
4164	64.9521
4160	64.8541
4156	64.8594
4152	64.849
4148	64.9297
4144	65.2179
4140	65.3851
4136	65.2378
4132	65.089
4128	65.0492
4124	65.0082
4120	64.9361
4116	64.9346
4112	65.2327
4108	65.4947
4104	65.3949
4100	65.3073
4096	65.2346
4092	65.013
4088	64.8401
4084	64.8469
4080	64.9979
4076	65.166
4072	65.3182
4068	65.4038
4064	65.3825
4060	65.29
4056	65.1628
4052	65.0724
4048	65.0676
4044	65.1026
4040	65.0748
4036	65.0954
4032	65.1879
4028	65.1722
4024	65.1321
4020	65.2404
4016	65.4097
4012	65.411
4008	65.2626
4004	65.1237
4000	64.9818
3996	64.8818
3992	64.8932
3988	64.9491
3984	65.0211
3980	65.0814
3976	65.0836
3972	65.0392
3968	64.9861
3964	65.0009
3960	65.0762
3956	65.0226
3952	64.8695
3948	64.9373
3944	65.1367
3940	65.2187
3936	65.237
3932	65.2622
3928	65.2765
3924	65.2483
3920	65.258
3916	65.2809
3912	65.2009
3908	65.1962
3904	65.3744
3900	65.4207
3896	65.2647
3892	65.1431
3888	65.0772
3884	65.0534
3880	65.0956
3876	65.1945
3872	65.3017
3868	65.2919
3864	65.1708
3860	65.1139
3856	65.2268
3852	65.2999
3848	65.1969
3844	65.1587
3840	65.2537
3836	65.3062
3832	65.2404
3828	65.1409
3824	65.2222
3820	65.3917
3816	65.3296
3812	65.1525
3808	65.1074
3804	65.1776
3800	65.2133
3796	65.1629
3792	65.1127
3788	65.1059
3784	65.1342
3780	65.2219
3776	65.32
3772	65.3142
3768	65.2678
3764	65.2994
3760	65.3319
3756	65.3349
3752	65.4372
3748	65.6237
3744	65.6968
3740	65.5863
3736	65.4341
3732	65.3268
3728	65.2812
3724	65.2664
3720	65.2922
3716	65.3949
3712	65.4029
3708	65.2595
3704	65.1843
3700	65.2502
3696	65.3549
3692	65.3766
3688	65.2396
3684	65.0338
3680	65.0157
3676	65.3467
3672	65.6533
3668	65.5329
3664	65.2866
3660	65.2747
3656	65.3532
3652	65.3713
3648	65.2631
3644	65.1075
3640	65.1495
3636	65.2668
3632	65.2909
3628	65.2688
3624	65.2639
3620	65.2966
3616	65.3575
3612	65.3745
3608	65.2468
3604	65.1354
3600	65.138
3596	65.171
3592	65.2489
3588	65.2787
3584	65.234
3580	65.254
3576	65.2602
3572	65.2238
3568	65.2974
3564	65.4131
3560	65.4688
3556	65.5066
3552	65.5134
3548	65.4275
3544	65.2926
3540	65.2633
3536	65.3125
3532	65.2784
3528	65.2167
3524	65.1936
3520	65.1484
3516	65.0936
3512	65.0634
3508	65.0682
3504	65.1213
3500	65.2094
3496	65.2295
3492	65.2233
3488	65.2481
3484	65.193
3480	65.1565
3476	65.2074
3472	65.2094
3468	65.2327
3464	65.3102
3460	65.2514
3456	65.1685
3452	65.1865
3448	65.2388
3444	65.3518
3440	65.4033
3436	65.3631
3432	65.3225
3428	65.2761
3424	65.2538
3420	65.2578
3416	65.2262
3412	65.1508
3408	65.1262
3404	65.1438
3400	65.1391
3396	65.1196
3392	65.051
3388	64.9679
3384	64.9974
3380	65.1287
3376	65.2256
3372	65.252
3368	65.2676
3364	65.2629
3360	65.2143
3356	65.1869
3352	65.163
3348	65.1059
3344	65.1087
3340	65.1015
3336	65.0784
3332	65.1767
3328	65.2127
3324	65.1401
3320	65.1143
3316	65.0916
3312	65.0907
3308	65.112
3304	65.0937
3300	65.0429
3296	65.0407
3292	65.1322
3288	65.2335
3284	65.2829
3280	65.2358
3276	65.1845
3272	65.2367
3268	65.3115
3264	65.3867
3260	65.4081
3256	65.2855
3252	65.2059
3248	65.2298
3244	65.2196
3240	65.2133
3236	65.2247
3232	65.1897
3228	65.1406
3224	65.1115
3220	65.0566
3216	65.0757
3212	65.1595
3208	65.1585
3204	65.1267
3200	65.1487
3196	65.2199
3192	65.2173
3188	65.1406
3184	65.1098
3180	65.1016
3176	65.0934
3172	65.1215
3168	65.193
3164	65.2447
3160	65.2219
3156	65.1675
3152	65.1461
3148	65.1525
3144	65.1727
3140	65.1794
3136	65.1456
3132	65.1455
3128	65.1392
3124	65.018
3120	64.9207
3116	65.003
3112	65.1766
3108	65.2161
3104	65.1564
3100	65.1641
3096	65.1538
3092	65.1414
3088	65.1869
3084	65.2015
3080	65.1561
3076	65.088
3072	65.0288
3068	65.0276
3064	65.1257
3060	65.2029
3056	65.1672
3052	65.1363
3048	65.1361
3044	65.1099
3040	65.1029
3036	65.0769
3032	65.0854
3028	65.1613
3024	65.1499
3020	65.1246
3016	65.126
3012	65.0943
3008	65.1106
3004	65.1719
3000	65.1979
2996	65.1808
2992	65.157
2988	65.1032
2984	65.049
2980	65.1056
2976	65.2492
2972	65.3141
2968	65.2266
2964	65.1166
2960	65.0763
2956	65.0701
2952	65.0733
2948	65.0653
2944	65.0893
2940	65.1264
2936	65.0679
2932	65.002
2928	65.036
2924	65.0646
2920	65.0625
2916	65.1009
2912	65.1567
2908	65.1731
2904	65.1537
2900	65.1594
2896	65.139
2892	65.0471
2888	65.0087
2884	65.0816
2880	65.1547
2876	65.1574
2872	65.0907
2868	65.0261
2864	65.0488
2860	65.1257
2856	65.2046
2852	65.2404
2848	65.2516
2844	65.26
2840	65.2047
2836	65.1382
2832	65.1297
2828	65.1185
2824	65.0756
2820	65.0768
2816	65.1521
2812	65.2384
2808	65.2517
2804	65.2211
2800	65.2138
2796	65.2091
2792	65.2232
2788	65.2496
2784	65.2266
2780	65.1913
2776	65.175
2772	65.1641
2768	65.2095
2764	65.2673
2760	65.2636
2756	65.2342
2752	65.2178
2748	65.2242
2744	65.2539
2740	65.3188
2736	65.3476
2732	65.2904
2728	65.2156
2724	65.181
2720	65.2005
2716	65.2211
2712	65.2108
2708	65.2066
2704	65.2683
2700	65.3424
2696	65.2977
2692	65.2158
2688	65.2055
2684	65.2093
2680	65.2169
2676	65.255
2672	65.2694
2668	65.2401
2664	65.2275
2660	65.2487
2656	65.2655
2652	65.2383
2648	65.1881
2644	65.1858
2640	65.2209
2636	65.2391
2632	65.2337
2628	65.1568
2624	65.077
2620	65.1364
2616	65.2223
2612	65.1928
2608	65.137
2604	65.1492
2600	65.1719
2596	65.1792
2592	65.1753
2588	65.142
2584	65.1179
2580	65.1703
2576	65.2421
2572	65.2197
2568	65.1851
2564	65.2185
2560	65.2299
2556	65.1772
2552	65.1639
2548	65.2278
2544	65.2715
2540	65.2604
2536	65.2222
2532	65.1759
2528	65.1579
2524	65.1492
2520	65.1262
2516	65.1472
2512	65.2342
2508	65.2697
2504	65.2092
2500	65.185
2496	65.2306
2492	65.257
2488	65.2165
2484	65.1543
2480	65.1814
2476	65.2747
2472	65.2737
2468	65.1823
2464	65.1697
2460	65.2604
2456	65.3352
2452	65.3351
2448	65.2839
2444	65.2381
2440	65.2182
2436	65.2271
2432	65.2808
2428	65.3178
2424	65.3303
2420	65.3415
2416	65.2845
2412	65.1947
2408	65.1323
2404	65.1085
2400	65.158
2396	65.2191
2392	65.236
2388	65.2419
2384	65.2318
2380	65.2752
2376	65.339
2372	65.3027
2368	65.2691
2364	65.2637
2360	65.2806
2356	65.3546
2352	65.3496
2348	65.2811
2344	65.2824
2340	65.3004
2336	65.2907
2332	65.2947
2328	65.3115
2324	65.3022
2320	65.2564
2316	65.2519
2312	65.3298
2308	65.3923
2304	65.3678
2300	65.3137
2296	65.2737
2292	65.23
2288	65.2205
2284	65.2762
2280	65.3601
2276	65.3893
2272	65.3239
2268	65.2633
2264	65.2839
2260	65.3352
2256	65.3603
2252	65.3356
2248	65.253
2244	65.1917
2240	65.1822
2236	65.1871
2232	65.2402
2228	65.3059
2224	65.3303
2220	65.3368
2216	65.3454
2212	65.3283
2208	65.2678
2204	65.2099
2200	65.1747
2196	65.1808
2192	65.211
2188	65.2163
2184	65.2114
2180	65.2178
2176	65.2473
2172	65.2677
2168	65.2421
2164	65.2153
2160	65.1986
2156	65.1925
2152	65.259
2148	65.3147
2144	65.2858
2140	65.234
2136	65.153
2132	65.0801
2128	65.0906
2124	65.1568
2120	65.2262
2116	65.2576
2112	65.2073
2108	65.1324
2104	65.1465
2100	65.2371
2096	65.2914
2092	65.2756
2088	65.2455
2084	65.2701
2080	65.3249
2076	65.3018
2072	65.267
2068	65.2991
2064	65.3109
2060	65.2883
2056	65.3001
2052	65.3087
2048	65.2077
2044	65.1072
2040	65.1534
2036	65.2102
2032	65.2257
2028	65.2826
2024	65.3336
2020	65.3383
2016	65.3124
2012	65.2846
2008	65.3113
2004	65.3402
2000	65.2879
1996	65.239
1992	65.254
1988	65.2824
1984	65.2976
1980	65.3169
1976	65.3195
1972	65.3005
1968	65.2745
1964	65.2285
1960	65.2208
1956	65.2366
1952	65.201
1948	65.1899
1944	65.2417
1940	65.2657
1936	65.2617
1932	65.2511
1928	65.2527
1924	65.3022
1920	65.3093
1916	65.2268
1912	65.152
1908	65.1341
1904	65.1648
1900	65.2136
1896	65.2346
1892	65.2475
1888	65.2362
1884	65.2114
1880	65.2169
1876	65.2191
1872	65.2217
1868	65.2338
1864	65.2712
1860	65.3094
1856	65.2995
1852	65.3207
1848	65.3969
1844	65.4058
1840	65.3317
1836	65.3127
1832	65.3573
1828	65.3729
1824	65.3628
1820	65.3428
1816	65.2962
1812	65.2642
1808	65.3123
1804	65.395
1800	65.4062
1796	65.373
1792	65.3826
1788	65.3725
1784	65.2804
1780	65.2133
1776	65.2622
1772	65.3449
1768	65.3735
1764	65.3737
1760	65.3537
1756	65.3025
1752	65.2654
1748	65.2545
1744	65.2219
1740	65.2067
1736	65.2361
1732	65.1903
1728	65.103
1724	65.0979
1720	65.1834
1716	65.2807
1712	65.268
1708	65.2487
1704	65.3557
1700	65.4536
1696	65.3917
1692	65.278
1688	65.3
1684	65.379
1680	65.3904
1676	65.3764
1672	65.309
1668	65.2338
1664	65.2467
1660	65.3234
1656	65.4828
1652	65.5999
1648	65.5128
1644	65.3546
1640	65.3378
1636	65.3834
1632	65.312
1628	65.2122
1624	65.1714
1620	65.1844
1616	65.2049
1612	65.1973
1608	65.1825
1604	65.172
1600	65.1653
1596	65.1082
1592	65.0512
1588	65.0985
1584	65.2201
1580	65.3778
1576	65.4614
1572	65.4055
1568	65.3768
1564	65.5424
1560	65.7539
1556	65.6687
1552	65.4459
1548	65.3998
1544	65.4654
1540	65.4811
1536	65.4062
1532	65.3343
1528	65.3636
1524	65.4978
1520	65.5427
1516	65.4327
1512	65.3965
1508	65.44
1504	65.4095
1500	65.3836
1496	65.4146
1492	65.3935
1488	65.2929
1484	65.1757
1480	65.1354
1476	65.1954
1472	65.2271
1468	65.184
1464	65.2549
1460	65.4434
1456	65.4132
1452	65.1673
1448	65.0485
1444	65.0754
1440	65.1294
1436	65.2007
1432	65.2706
1428	65.3389
1424	65.4005
1420	65.3697
1416	65.2228
1412	65.1269
1408	65.1438
1404	65.1515
1400	65.1353
1396	65.1586
1392	65.1928
1388	65.1679
1384	65.1135
1380	65.0818
1376	65.0984
1372	65.1346
1368	65.1044
1364	65.0749
1360	65.0836
1356	65.0774
1352	65.1046
1348	65.1354
1344	65.0946
1340	65.063
1336	65.0856
1332	65.0981
1328	65.1134
1324	65.1611
1320	65.1935
1316	65.141
1312	65.0547
1308	65.0917
1304	65.1984
1300	65.2384
1296	65.1964
1292	65.1324
1288	65.1023
1284	65.077
1280	65.0809
1276	65.1113
1272	65.0932
1268	65.0738
1264	65.1361
1260	65.2001
1256	65.1617
1252	65.0884
1248	65.0825
1244	65.1335
1240	65.1318
1236	65.0768
1232	65.0895
1228	65.1467
1224	65.166
1220	65.1203
1216	65.0657
1212	65.0952
1208	65.1668
1204	65.2067
1200	65.1854
1196	65.1201
1192	65.0255
1188	64.9364
1184	64.9565
1180	65.0358
1176	65.0513
1172	65.0406
1168	65.0448
1164	65.0702
1160	65.0861
1156	65.0215
1152	64.9639
1148	65.0268
1144	65.0734
1140	65.0148
1136	65.0011
1132	65.1295
1128	65.2681
1124	65.2538
1120	65.1312
1116	65.0605
1112	64.9979
1108	64.8681
1104	64.8078
1100	64.8308
1096	64.8369
1092	64.8337
1088	64.8803
1084	64.9793
1080	65.0173
1076	64.9561
1072	64.9156
1068	64.9608
1064	65.0453
1060	65.1101
1056	65.1813
1052	65.281
1048	65.2578
1044	65.115
1040	65.0487
1036	65.0121
1032	64.9663
1028	65.0392
1024	65.2023
1020	65.2473
1016	65.132
1012	65.0561
1008	65.1066
1004	65.1922
1000	65.1985
996	 65.0902
992	 65.0315
988	 65.0672
984	 65.1065
980	 65.1376
976	 65.0777
972	 65.0299
968	 65.1017
964	 65.1932
960	 65.2755
956	 65.3322
952	 65.4074
948	 65.4632
944	 65.3576
940	 65.2565
936	 65.2886
932	 65.3345
928	 65.3405
924	 65.2458
920	 65.0835
916	 65.0483
912	 65.1358
908	 65.1897
904	 65.2665
900	 65.3316
896	 65.2713
892	 65.2251
888	 65.213
884	 65.1707
880	 65.1774
876	 65.2889
872	 65.4129
868	 65.506
864	 65.5566
860	 65.4649
856	 65.3415
852	 65.2754
848	 65.2142
844	 65.1978
840	 65.179
836	 65.0993
832	 65.0742
828	 65.2389
824	 65.451
820	 65.4766
816	 65.4793
812	 65.5615
808	 65.5504
804	 65.4307
800	 65.3789
796	 65.4998
792	 65.6161
788	 65.5852
784	 65.5764
780	 65.7162
776	 65.8293
772	 65.6969
768	 65.4384
764	 65.3753
760	 65.5114
756	 65.5804
752	 65.4905
748	 65.3846
744	 65.3349
740	 65.317
736	 65.3941
732	 65.4903
728	 65.4788
724	 65.396
720	 65.331
716	 65.3183
712	 65.3093
708	 65.3209
704	 65.2882
700	 65.1752
696	 65.2275
692	 65.3737
688	 65.3447
684	 65.2857
680	 65.3432
676	 65.5078
672	 65.7502
668	 65.8332
664	 65.7145
660	 65.6485
656	 65.6472
652	 65.5595
648	 65.4207
644	 65.4536
640	 65.6832
636	 65.6841
632	 65.3662
628	 65.1573
624	 65.2043
620	 65.3816
616	 65.6448
612	 65.8088
608	 65.6571
604	 65.472
600	 65.5385
596	 65.6974
592	 65.8201
588	 65.8171
584	 65.8041
580	 65.8117
576	 65.7303
572	 65.8323
568	 66.0281
564	 65.9657
560	 65.7481
556	 65.5826
552	 65.5066
548	 65.705
544	 66.0663
540	 66.063
536	 65.6358
532	 65.2309
528	 65.26
524	 65.5239
520	 65.5391
516	 65.6321
512	 66.1825
508	 66.7068
504	 66.4835
500	 65.8136
496	 65.7394
492	 66.1668
488	 66.1752
484	 66.0189
480	 66.0371
476	 65.9953
472	 65.6725
468	 64.8119
464	 64.1634
460	 64.5573
456	 65.4204
452	 65.8146
448	 65.6274
444	 66.0094
440	 67.2795
436	 67.287
432	 65.5613
428	 64.1786
424	 64.6122
420	 66.7552
416	 67.0298
412	 65.6837
408	 68.9053
404	 68.7742
400	 58.5709
396	 57.8474
392	 79.3458
388	 103.86
384	 95.7833
380	 62.3685
376	 41.7211
372	 53.3633
370	 66.6885