File: Bakgrunnsmateriale/MATLAB/FTIR/ftir_data/subCa/Mapping_25/BZ12041010-4_t22.asc
PE IR       SPECTRUM    SPECTRUM    ASCII       PEDS        1.60
  -1
BZ2EB6~1.ASC
17/04/10
10:49:10.00
17/04/10
10:49:36.00
tln
$BZ12041010-4_t0022$<tbV0>[2.6,-2.0,9.0,0.0,22,1,0]
27.028
64

2002,4.07
MIRTGS : RIGHTBACK : INTERNAL 2
MIR : ON : INTERNAL 2
OPTKBR

0.200000
8
8.000000
FILLER
RATIO
SPECTRUM
UNLOCKED 256

DOUBLE
64
COMBINED
1
0
0

0.002000
RATIO

1
0
TRUE
51149
0
LEFT NOT FITTED RIGHT NOT FITTED 0
NONE
NONE
15600
12
4.427000
51148
TRUE
1 0 8 72 0 0 0 0

15798

#HDR
-1
-1
#GR
µM
%T
2.38419e-05
0.0
2.000000
0.002000
12515
8
71.9348
22.5837
#DATA
2.000000	 54.9497
2.018000	 55.0388
2.036000	 54.9865
2.054000	 56.4439
2.072000	 55.6669
2.090000	 54.7404
2.108000	 55.1362
2.126000	 54.9261
2.144000	 54.7971
2.162000	 55.5279
2.180000	 55.8254
2.198000	 55.7069
2.216000	 55.395
2.234000	 55.885
2.252000	 56.4199
2.270000	 55.8001
2.288000	 55.8181
2.306000	 55.7718
2.324000	 55.3986
2.342000	 55.6888
2.360000	 54.9639
2.378000	 54.961
2.396000	 55.157
2.414000	 54.9467
2.432000	 55.0299
2.450000	 55.1872
2.468000	 55.4332
2.486000	 55.1758
2.504000	 55.1598
2.522000	 54.9464
2.540000	 55.0047
2.558000	 55.0998
2.576000	 55.1945
2.594000	 55.195
2.612000	 55.3209
2.630000	 55.2501
2.648000	 55.3959
2.666000	 55.1026
2.684000	 55.1653
2.702000	 55.231
2.720000	 55.1825
2.738000	 55.2859
2.756000	 55.2954
2.774000	 55.1006
2.792000	 55.3212
2.810000	 55.4294
2.828000	 55.2796
2.846000	 55.0825
2.864000	 55.2183
2.882000	 55.105
2.900000	 55.2081
2.918000	 55.2906
2.936000	 55.4124
2.954000	 55.191
2.972000	 55.1622
2.990000	 55.3187
3.008000	 55.1843
3.026000	 55.3007
3.044000	 55.3079
3.062000	 55.0768
3.080000	 55.1316
3.098000	 55.0941
3.116000	 55.052
3.134000	 55.1716
3.152000	 55.1714
3.170000	 55.076
3.188000	 55.3088
3.206000	 55.2016
3.224000	 55.2152
3.242000	 55.3884
3.260000	 55.3828
3.278000	 55.3738
3.296000	 55.3107
3.314000	 55.2219
3.332000	 55.0458
3.350000	 55.2038
3.368000	 55.1472
3.386000	 55.0925
3.404000	 55.154
3.422000	 54.9617
3.440000	 55.2234
3.458000	 55.0856
3.476000	 55.2497
3.494000	 55.2859
3.512000	 55.2167
3.530000	 55.3034
3.548000	 55.38
3.566000	 55.2917
3.584000	 55.3028
3.602000	 55.2447
3.620000	 55.2039
3.638000	 55.287
3.656000	 55.2993
3.674000	 55.1195
3.692000	 55.1142
3.710000	 55.0208
3.728000	 55.0713
3.746000	 55.0965
3.764000	 55.038
3.782000	 55.2004
3.800000	 55.1749
3.818000	 55.294
3.836000	 55.2836
3.854000	 55.2913
3.872000	 55.3325
3.890000	 55.4036
3.908000	 55.2951
3.926000	 55.2931
3.944000	 55.3197
3.962000	 55.2232
3.980000	 55.2843
3.998000	 55.2907
4.016000	 55.1616
4.034000	 55.1823
4.052000	 55.1022
4.070000	 55.1716
4.088000	 55.2884
4.106000	 55.1387
4.124000	 55.2039
4.141999	 55.1611
4.160000	 55.2312
4.178000	 55.0697
4.196000	 55.1728
4.214000	 55.2486
4.232000	 55.2459
4.250000	 55.3198
4.268000	 55.355
4.286000	 55.2955
4.304000	 55.2696
4.322000	 55.2454
4.340000	 55.2454
4.358000	 55.2698
4.375999	 55.2684
4.394000	 55.283
4.412000	 55.148
4.430000	 55.1479
4.448000	 55.171
4.466000	 55.2683
4.484000	 55.3243
4.502000	 55.1518
4.520000	 55.2292
4.538000	 55.2042
4.556000	 55.0651
4.574000	 55.1188
4.592000	 55.2687
4.609999	 55.2288
4.628000	 55.0993
4.646000	 55.1697
4.664000	 55.2147
4.682000	 55.3252
4.700000	 55.2549
4.718000	 55.334
4.736000	 55.2973
4.754000	 55.2802
4.772000	 55.2541
4.790000	 55.3119
4.808000	 55.3167
4.826000	 55.2496
4.843999	 55.2952
4.862000	 55.2297
4.880000	 55.2559
4.898000	 55.2996
4.916000	 55.3098
4.934000	 55.1916
4.952000	 55.164
4.970000	 55.2253
4.988000	 55.1879
5.006000	 55.1681
5.024000	 55.312
5.042000	 55.2126
5.060000	 55.2087
5.077999	 55.226
5.096000	 55.1304
5.114000	 55.1788
5.132000	 55.2316
5.150000	 55.1756
5.168000	 55.1809
5.186000	 55.1545
5.204000	 55.2175
5.222000	 55.1712
5.240000	 55.1962
5.258000	 55.1767
5.276000	 55.1751
5.294000	 55.2318
5.312000	 55.2781
5.330000	 55.3657
5.348000	 55.3205
5.366000	 55.2527
5.384000	 55.2554
5.402000	 55.2926
5.420000	 55.3153
5.438000	 55.3457
5.456000	 55.3529
5.474000	 55.3411
5.492000	 55.291
5.510000	 55.3297
5.528000	 55.3751
5.546000	 55.3658
5.564000	 55.2816
5.582000	 55.2242
5.600000	 55.2033
5.618000	 55.1221
5.636000	 55.1172
5.654000	 55.0745
5.672000	 55.1015
5.690000	 55.152
5.708000	 55.0775
5.726000	 54.9366
5.744000	 54.9202
5.762000	 54.8964
5.780000	 54.8944
5.798000	 54.9114
5.816000	 54.9253
5.834000	 54.9118
5.852000	 54.8626
5.870000	 54.8656
5.888000	 54.8815
5.906000	 54.9126
5.923999	 54.9993
5.942000	 54.9505
5.960000	 54.9329
5.978000	 55.033
5.996000	 55.1106
6.014000	 55.1607
6.032000	 55.1592
6.050000	 55.1698
6.068000	 55.1719
6.086000	 55.184
6.104000	 55.2299
6.122000	 55.2618
6.140000	 55.2764
6.158000	 55.2486
6.176000	 55.1711
6.194000	 55.1514
6.212000	 55.2073
6.230000	 55.2314
6.248000	 55.2393
6.266000	 55.1937
6.284000	 55.18
6.302000	 55.2112
6.320000	 55.2155
6.338000	 55.2496
6.356000	 55.2864
6.374000	 55.2523
6.392000	 55.2454
6.410000	 55.3336
6.428000	 55.3519
6.446000	 55.2898
6.464000	 55.2425
6.482000	 55.2083
6.500000	 55.1711
6.518000	 55.1316
6.536000	 55.1436
6.554000	 55.1654
6.572000	 55.1321
6.590000	 55.0877
6.608000	 55.0607
6.626000	 55.0557
6.644000	 55.0719
6.662000	 55.1431
6.680000	 55.2279
6.698000	 55.1798
6.716000	 55.0618
6.734000	 54.9902
6.752000	 54.9397
6.770000	 54.9216
6.788000	 54.9362
6.806000	 54.9451
6.824000	 54.9392
6.842000	 54.8915
6.860000	 54.8399
6.878000	 54.8892
6.896000	 54.9769
6.914000	 54.9696
6.932000	 54.908
6.950000	 54.8858
6.968000	 54.8953
6.986000	 54.8785
7.004000	 54.8542
7.022000	 54.8602
7.040000	 54.8851
7.058000	 54.9378
7.076000	 55.0055
7.094000	 55.033
7.112000	 55.0343
7.130000	 55.0485
7.148000	 55.0531
7.166000	 55.0319
7.184000	 54.9952
7.202000	 54.9499
7.220000	 54.9109
7.238000	 54.8897
7.256000	 54.8898
7.274000	 54.9075
7.292000	 54.926
7.310000	 54.9291
7.328000	 54.9234
7.346000	 54.9346
7.364000	 54.9825
7.382000	 55.0542
7.400000	 55.1116
7.418000	 55.1341
7.436000	 55.1375
7.454000	 55.1355
7.472000	 55.1253
7.490000	 55.1058
7.508000	 55.0675
7.526000	 55.0042
7.544000	 54.9463
7.562000	 54.9286
7.580000	 54.9539
7.598000	 55.0066
7.616000	 55.055
7.634000	 55.0647
7.652000	 55.0413
7.670000	 55.0161
7.688000	 54.9976
7.706000	 54.9863
7.724000	 54.9963
7.742000	 55.0288
7.760000	 55.0566
7.778000	 55.0565
7.796000	 55.0408
7.814000	 55.0465
7.832000	 55.0937
7.850000	 55.1649
7.868000	 55.2192
7.886000	 55.2247
7.904000	 55.194
7.922000	 55.1603
7.940000	 55.119
7.958000	 55.0535
7.976000	 54.9951
7.994000	 54.9874
8.012000	 55.0161
8.030000	 55.0358
8.048000	 55.0387
8.065999	 55.0476
8.084000	 55.0689
8.102000	 55.0879
8.120000	 55.0996
8.138000	 55.1132
8.155999	 55.1235
8.173999	 55.112
8.192000	 55.0784
8.210000	 55.0445
8.228000	 55.0245
8.246000	 55.0117
8.263999	 55.0044
8.282000	 55.0163
8.300000	 55.05
8.318000	 55.0884
8.336000	 55.1266
8.353999	 55.1711
8.372000	 55.2009
8.390000	 55.1724
8.408000	 55.0801
8.426000	 54.9805
8.443999	 54.9325
8.462000	 54.9414
8.480000	 54.9723
8.498000	 54.995
8.516000	 55.0034
8.533999	 55.0022
8.552000	 54.9902
8.570000	 54.9574
8.588000	 54.897
8.606000	 54.8234
8.624000	 54.7716
8.641999	 54.7727
8.660000	 54.8254
8.678000	 54.9002
8.696000	 54.9642
8.714000	 55.0089
8.731999	 55.0463
8.750000	 55.0833
8.768000	 55.1078
8.786000	 55.104
8.804000	 55.0704
8.821999	 55.0269
8.840000	 55.0125
8.858000	 55.0601
8.876000	 55.1585
8.894000	 55.2521
8.911999	 55.2833
8.930000	 55.2357
8.948000	 55.1375
8.966000	 55.0385
8.984000	 54.9791
9.001999	 54.9745
9.020000	 55.0159
9.038000	 55.0753
9.056000	 55.1181
9.074000	 55.1254
9.092000	 55.108
9.109999	 55.0866
9.128000	 55.0633
9.146000	 55.0268
9.164000	 54.9805
9.182000	 54.9489
9.199999	 54.9496
9.218000	 54.9677
9.236000	 54.9695
9.254000	 54.938
9.272000	 54.8907
9.289999	 54.8574
9.308000	 54.8499
9.326000	 54.8542
9.344000	 54.8513
9.362000	 54.8391
9.379999	 54.8342
9.398000	 54.8564
9.416000	 54.9115
9.434000	 54.9883
9.452000	 55.0648
9.469999	 55.1185
9.488000	 55.1333
9.506000	 55.1073
9.524000	 55.0566
9.542000	 55.0061
9.560000	 54.9762
9.577999	 54.9739
9.596000	 54.9953
9.614000	 55.033
9.632000	 55.0783
9.650000	 55.121
9.667999	 55.1474
9.686000	 55.1441
9.704000	 55.1038
9.722000	 55.0327
9.740000	 54.9507
9.757999	 54.8851
9.776000	 54.8582
9.794000	 54.8756
9.812000	 54.9227
9.830000	 54.9753
9.847999	 55.0157
9.866000	 55.042
9.884000	 55.0646
9.902000	 55.0942
9.920000	 55.1322
9.937999	 55.1673
9.956000	 55.1849
9.974000	 55.1781
9.992000	 55.1532
10.01	55.125
10.028	55.1061
10.046	55.098
10.064	55.091
10.082	55.074
10.1	55.0436
10.118	55.0073
10.136	54.9767
10.154	54.958
10.172	54.9496
10.19	54.9458
10.208	54.9435
10.226	54.9438
10.244	54.9485
10.262	54.9578
10.28	54.97
10.298	54.9846
10.316	55.0048
10.334	55.0346
10.352	55.0734
10.37	55.114
10.388	55.1452
10.406	55.1593
10.424	55.1565
10.442	55.1445
10.46	55.1322
10.478	55.1242
10.496	55.1177
10.514	55.106
10.532	55.0833
10.55	55.0501
10.568	55.0127
10.586	54.9809
10.604	54.9632
10.622	54.9639
10.64	54.9815
10.658	55.0102
10.676	55.0416
10.694	55.0685
10.712	55.0856
10.73	55.0922
10.748	55.0912
10.766	55.0874
10.784	55.0844
10.802	55.0828
10.82	55.0781
10.838	55.0636
10.856	55.0343
10.874	54.9906
10.892	54.9395
10.91	54.8926
10.928	54.8605
10.946	54.8476
10.964	54.8496
10.982	54.8558
11	54.8548
11.018	54.8405
11.036	54.8165
11.054	54.7942
11.072	54.7877
11.09	54.8084
11.108	54.8593
11.126	54.9332
11.144	55.0158
11.162	55.0894
11.18	55.1401
11.198	55.16
11.216	55.1497
11.234	55.1166
11.252	55.0726
11.27	55.0306
11.288	55.0029
11.306	54.998
11.324	55.0191
11.342	55.063
11.36	55.1206
11.378	55.1776
11.396	55.2199
11.414	55.2364
11.432	55.2235
11.45	55.1861
11.468	55.1358
11.486	55.086
11.504	55.048
11.522	55.0288
11.54	55.0304
11.558	55.0497
11.576	55.0805
11.594	55.1142
11.612	55.1411
11.63	55.1531
11.648	55.1461
11.666	55.1214
11.684	55.0858
11.702	55.0486
11.72	55.0193
11.738	55.0043
11.756	55.0046
11.774	55.0164
11.792	55.0334
11.81	55.0495
11.828	55.0617
11.846	55.0692
11.864	55.0739
11.882	55.078
11.9	55.0829
11.918	55.0888
11.936	55.095
11.954	55.1002
11.972	55.1033
11.99	55.1038
12.008	55.1021
12.026	55.0986
12.044	55.0927
12.062	55.0828
12.08	55.0665
12.098	55.0414
12.116	55.007
12.134	54.9659
12.152	54.9245
12.17	54.8907
12.188	54.8728
12.206	54.8766
12.224	54.904
12.242	54.9524
12.26	55.0159
12.278	55.0858
12.296	55.1525
12.314	55.2076
12.332	55.2446
12.35	55.2598
12.368	55.252
12.386	55.2233
12.404	55.1776
12.422	55.1202
12.44	55.0579
12.458	54.9971
12.476	54.9443
12.494	54.9048
12.512	54.8814
12.53	54.8747
12.548	54.8822
12.566	54.899
12.584	54.9189
12.602	54.9355
12.62	54.9439
12.638	54.9412
12.656	54.9275
12.674	54.9051
12.692	54.8781
12.71	54.8509
12.728	54.8271
12.746	54.8093
12.764	54.7988
12.782	54.7961
12.8	54.8011
12.818	54.8132
12.836	54.8317
12.854	54.8554
12.872	54.8825
12.89	54.9099
12.908	54.9334
12.926	54.9487
12.944	54.9524
12.962	54.942
12.98	54.9173
12.998	54.8811
13.016	54.838
13.034	54.7943
13.052	54.7566
13.07	54.7305
13.088	54.72
13.106	54.7269
13.124	54.7504
13.142	54.7875
13.16	54.8338
13.178	54.8845
13.196	54.9346
13.214	54.98
13.232	55.0181
13.25	55.0477
13.268	55.0688
13.286	55.0822
13.304	55.0896
13.322	55.0926
13.34	55.0927
13.358	55.0916
13.376	55.0906
13.394	55.0911
13.412	55.0942
13.43	55.1008
13.448	55.1114
13.466	55.1255
13.484	55.1419
13.502	55.159
13.52	55.1746
13.538	55.1868
13.556	55.1941
13.574	55.1962
13.592	55.1937
13.61	55.1881
13.628	55.1811
13.646	55.1739
13.664	55.167
13.682	55.16
13.7	55.1517
13.718	55.1409
13.736	55.1266
13.754	55.109
13.772	55.0893
13.79	55.0702
13.808	55.055
13.826	55.0464
13.844	55.0462
13.862	55.0539
13.88	55.0673
13.898	55.0824
13.916	55.0941
13.934	55.0976
13.952	55.0892
13.97	55.0672
13.988	55.0321
14.006	54.9866
14.024	54.9347
14.042	54.8811
14.06	54.8301
14.078	54.7852
14.096	54.7487
14.114	54.722
14.132	54.7057
14.15	54.6998
14.168	54.7042
14.186	54.7193
14.204	54.7446
14.222	54.78
14.24	54.8242
14.258	54.8758
14.276	54.932
14.294	54.9893
14.312	55.0444
14.33	55.0937
14.348	55.1346
14.366	55.1653
14.384	55.1854
14.402	55.1955
14.42	55.197
14.438	55.1918
14.456	55.1821
14.474	55.1701
14.492	55.1576
14.51	55.1466
14.528	55.138
14.546	55.1326
14.564	55.1303
14.582	55.1307
14.6	55.1328
14.618	55.1354
14.636	55.1368
14.654	55.1354
14.672	55.1299
14.69	55.1196
14.708	55.1042
14.726	55.0839
14.744	55.0596
14.762	55.033
14.78	55.0056
14.798	54.9792
14.816	54.9553
14.834	54.9352
14.852	54.9195
14.87	54.9081
14.888	54.9006
14.906	54.8964
14.924	54.8946
14.942	54.8942
14.96	54.8945
14.978	54.895
14.996	54.8956
15.014	54.8962
15.032	54.8972
15.05	54.8991
15.068	54.9028
15.086	54.9089
15.104	54.9184
15.122	54.9318
15.14	54.9491
15.158	54.97
15.176	54.9939
15.194	55.0196
15.212	55.0456
15.23	55.0703
15.248	55.0923
15.266	55.1102
15.284	55.1234
15.302	55.1315
15.32	55.1349
15.338	55.134
15.356	55.1296
15.374	55.123
15.392	55.115
15.41	55.1062
15.428	55.0971
15.446	55.0878
15.464	55.0781
15.482	55.0678
15.5	55.0567
15.518	55.0451
15.536	55.0332
15.554	55.0217
15.572	55.0115
15.59	55.0034
15.608	54.9982
15.626	54.9965
15.644	54.9983
15.662	55.0028
15.68	55.009
15.698	55.0155
15.716	55.0203
15.734	55.0217
15.752	55.0187
15.77	55.0103
15.788	54.9963
15.806	54.9776
15.824	54.9554
15.842	54.9315
15.86	54.9084
15.878	54.8882
15.896	54.8727
15.914	54.864
15.932	54.8627
15.95	54.8691
15.968	54.883
15.986	54.9033
16.004	54.9288
16.022	54.9579
16.04	54.989
16.058	55.0205
16.076	55.0511
16.094	55.0791
16.112	55.1033
16.13	55.1224
16.148	55.1356
16.166	55.1416
16.184	55.1397
16.202	55.1288
16.22	55.1082
16.238	55.078
16.256	55.0383
16.274	54.9902
16.292	54.9356
16.31	54.876
16.328	54.8151
16.346	54.7559
16.364	54.701
16.382	54.6548
16.4	54.6196
16.418	54.5974
16.436	54.59
16.454	54.5971
16.472	54.6184
16.49	54.6519
16.508	54.6945
16.526	54.7442
16.544	54.7961
16.562	54.847
16.58	54.8941
16.598	54.9336
16.616	54.9644
16.634	54.9851
16.652	54.9957
16.67	54.9971
16.688	54.9905
16.706	54.9788
16.724	54.964
16.742	54.9489
16.76	54.9369
16.778	54.9296
16.796	54.9296
16.814	54.9385
16.832	54.9569
16.85	54.9854
16.868	55.0234
16.886	55.0706
16.904	55.1249
16.922	55.1849
16.94	55.2488
16.958	55.3133
16.976	55.3771
16.994	55.4371
17.012	55.4913
17.03	55.5384
17.048	55.5766
17.066	55.6057
17.084	55.6251
17.102	55.6355
17.12	55.6372
17.138	55.6314
17.156	55.6191
17.174	55.6011
17.192	55.5788
17.21	55.5527
17.228	55.524
17.246	55.4928
17.264	55.4595
17.282	55.4242
17.3	55.3872
17.318	55.3484
17.336	55.3085
17.354	55.2678
17.372	55.2275
17.39	55.188
17.408	55.1509
17.426	55.1176
17.444	55.0888
17.462	55.0666
17.48	55.0516
17.498	55.0452
17.516	55.0478
17.534	55.06
17.552	55.0812
17.57	55.1113
17.588	55.1486
17.606	55.1922
17.624	55.2405
17.642	55.2911
17.66	55.3431
17.678	55.3933
17.696	55.441
17.714	55.4836
17.732	55.5201
17.75	55.549
17.768	55.5692
17.786	55.5804
17.804	55.582
17.822	55.5739
17.84	55.5568
17.858	55.5314
17.876	55.4985
17.894	55.4602
17.912	55.4172
17.93	55.3723
17.948	55.3262
17.966	55.2818
17.984	55.2401
18.002	55.2033
18.02	55.1724
18.038	55.1486
18.056	55.1328
18.074	55.1254
18.092	55.1266
18.11	55.1363
18.128	55.154
18.146	55.1794
18.164	55.2116
18.182	55.2499
18.2	55.2934
18.218	55.3409
18.236	55.3918
18.254	55.4443
18.272	55.4982
18.29	55.5515
18.308	55.604
18.326	55.6538
18.344	55.7007
18.362	55.7433
18.38	55.7815
18.398	55.8141
18.416	55.8412
18.434	55.8623
18.452	55.8777
18.47	55.8871
18.488	55.8911
18.506	55.8899
18.524	55.8843
18.542	55.8745
18.56	55.8616
18.578	55.8459
18.596	55.8285
18.614	55.8096
18.632	55.7906
18.65	55.7716
18.668	55.7535
18.686	55.7363
18.704	55.7207
18.722	55.7067
18.74	55.6945
18.758	55.6838
18.776	55.6743
18.794	55.666
18.812	55.6581
18.83	55.6505
18.848	55.6424
18.866	55.6338
18.884	55.6243
18.902	55.6142
18.92	55.6035
18.938	55.5928
18.956	55.5828
18.974	55.5742
18.992	55.568
19.01	55.5648
19.028	55.5655
19.046	55.5702
19.064	55.5797
19.082	55.5935
19.1	55.6119
19.118	55.6341
19.136	55.6594
19.154	55.6869
19.172	55.7152
19.19	55.7435
19.208	55.7695
19.226	55.7931
19.244	55.8122
19.262	55.8266
19.28	55.8349
19.298	55.837
19.316	55.8326
19.334	55.8216
19.352	55.8047
19.37	55.7818
19.388	55.7544
19.406	55.7222
19.424	55.6872
19.442	55.6494
19.46	55.6106
19.478	55.571
19.496	55.5321
19.514	55.4943
19.532	55.4585
19.55	55.4252
19.568	55.3948
19.586	55.3676
19.604	55.3439
19.622	55.3243
19.64	55.3087
19.658	55.2973
19.676	55.2901
19.694	55.2868
19.712	55.2876
19.73	55.2913
19.748	55.2983
19.766	55.3069
19.784	55.317
19.802	55.327
19.82	55.3363
19.838	55.3436
19.856	55.3472
19.874	55.3472
19.892	55.3419
19.91	55.3315
19.928	55.3158
19.946	55.2946
19.964	55.2696
19.982	55.2403
20	55.2095
20.018	55.178
20.036	55.1474
20.054	55.1208
20.072	55.098
20.09	55.0832
20.108	55.0759
20.126	55.0786
20.144	55.0917
20.162	55.1154
20.18	55.1503
20.198	55.1955
20.216	55.2502
20.234	55.3139
20.252	55.3835
20.27	55.4594
20.288	55.5374
20.306	55.6178
20.324	55.6971
20.342	55.7733
20.36	55.8459
20.378	55.9111
20.396	55.9698
20.414	56.0187
20.432	56.058
20.45	56.0869
20.468	56.1048
20.486	56.1122
20.504	56.1091
20.522	56.0955
20.54	56.0727
20.558	56.0403
20.576	55.9998
20.594	55.9516
20.612	55.8964
20.63	55.8361
20.648	55.7704
20.666	55.7016
20.684	55.6293
20.702	55.555
20.72	55.4796
20.738	55.403
20.756	55.3267
20.774	55.2504
20.792	55.1759
20.81	55.1034
20.828	55.0336
20.846	54.9673
20.864	54.9044
20.882	54.8457
20.9	54.7912
20.918	54.7411
20.936	54.6956
20.954	54.6546
20.972	54.6178
20.99	54.5854
21.008	54.5569
21.026	54.5322
21.044	54.5111
21.062	54.4933
21.08	54.4789
21.098	54.467
21.116	54.4575
21.134	54.4502
21.152	54.4438
21.17	54.4388
21.188	54.4339
21.206	54.4291
21.224	54.4241
21.242	54.4183
21.26	54.4118
21.278	54.4034
21.296	54.393
21.314	54.3802
21.332	54.3643
21.35	54.3453
21.368	54.3235
21.386	54.2983
21.404	54.2705
21.422	54.2415
21.44	54.2105
21.458	54.18
21.476	54.1501
21.494	54.1216
21.512	54.098
21.53	54.0782
21.548	54.065
21.566	54.0604
21.584	54.0637
21.602	54.0789
21.62	54.1056
21.638	54.1447
21.656	54.1982
21.674	54.2654
21.692	54.347
21.71	54.4439
21.728	54.5549
21.746	54.6788
21.764	54.8162
21.782	54.9649
21.8	55.1234
21.818	55.2923
21.836	55.4671
21.854	55.6481
21.872	55.834
21.89	56.021
21.908	56.2104
21.926	56.3996
21.944	56.5868
21.962	56.7727
21.98	56.955
21.998	57.1332
22.016	57.3076
22.034	57.4774
22.052	57.643
22.07	57.8036
22.088	57.9587
22.106	58.1086
22.124	58.2517
22.142	58.3882
22.16	58.5176
22.178	58.6367
22.196	58.7467
22.214	58.8455
22.232	58.9302
22.25	59.0025
22.268	59.0583
22.286	59.0953
22.304	59.1149
22.322	59.113
22.34	59.0891
22.358	59.0433
22.376	58.9724
22.394	58.8768
22.412	58.7566
22.43	58.6111
22.448	58.44
22.466	58.2453
22.484	58.0278
22.502	57.7866
22.52	57.5266
22.538	57.2488
22.556	56.9529
22.574	56.6459
22.592	56.3271
22.61	55.9982
22.628	55.6675
22.646	55.333
22.664	54.9979
22.682	54.6694
22.7	54.3444
22.718	54.0275
22.736	53.7248
22.754	53.433
22.772	53.1573
22.79	52.9024
22.808	52.6654
22.826	52.4514
22.844	52.2641
22.862	52.1009
22.88	51.9657
22.898	51.8601
22.916	51.7829
22.934	51.7357
22.952	51.7194
22.97	51.7332
22.988	51.7767
23.006	51.8505
23.024	51.9536
23.042	52.0829
23.06	52.2399
23.078	52.4225
23.096	52.6229
23.114	52.8428
23.132	53.08
23.15	53.3252
23.168	53.5808
23.186	53.844
23.204	54.1034
23.222	54.3607
23.24	54.6144
23.258	54.8555
23.276	55.0849
23.294	55.302
23.312	55.5007
23.33	55.6805
23.348	55.8425
23.366	55.9856
23.384	56.1083
23.402	56.2126
23.42	56.3023
23.438	56.3761
23.456	56.4353
23.474	56.4865
23.492	56.529
23.51	56.5633
23.528	56.597
23.546	56.6323
23.564	56.6671
23.582	56.7055
23.6	56.75
23.618	56.7988
23.636	56.851
23.654	56.9074
23.672	56.9686
23.69	57.0285
23.708	57.084
23.726	57.1389
23.744	57.1849
23.762	57.2152
23.78	57.2353
23.798	57.2379
23.816	57.214
23.834	57.1678
23.852	57.0963
23.87	56.993
23.888	56.8581
23.906	56.6931
23.924	56.4977
23.942	56.269
23.96	56.0099
23.978	55.7284
23.996	55.4245
24.014	55.0961
24.032	54.7579
24.05	54.4174
24.068	54.0654
24.086	53.7196
24.104	53.396
24.122	53.082
24.14	52.7917
24.158	52.5456
24.176	52.3361
24.194	52.1674
24.212	52.0579
24.23	52.0105
24.248	52.0198
24.266	52.0958
24.284	52.2456
24.302	52.4644
24.32	52.7519
24.338	53.109
24.356	53.5394
24.374	54.0346
24.392	54.5835
24.41	55.1925
24.428	55.8568
24.446	56.5577
24.464	57.2905
24.482	58.064
24.5	58.8558
24.518	59.6477
24.536	60.4546
24.554	61.2622
24.572	62.049
24.59	62.8194
24.608	63.5739
24.626	64.2986
24.644	64.9864
24.662	65.6444
24.68	66.2669
24.698	66.8479
24.716	67.3885
24.734	67.891
24.752	68.3572
24.77	68.7858
24.788	69.1776
24.806	69.5371
24.824	69.8674
24.842	70.1646
24.86	70.4341
24.878	70.6823
24.896	70.9091
24.914	71.1129
24.932	71.2955
24.95	71.4588
24.968	71.6034
24.986	71.7243
25.004	71.8166
25.022	71.8854
25.04	71.9269
25.058	71.9318
25.076	71.8966
25.094	71.827
25.112	71.7157
25.13	71.5549
25.148	71.3482
25.166	71.0952
25.184	70.7913
25.202	70.4333
25.22	70.0229
25.238	69.5638
25.256	69.0592
25.274	68.5032
25.292	67.9013
25.31	67.2655
25.328	66.6005
25.346	65.8955
25.364	65.168
25.382	64.4376
25.4	63.6964
25.418	62.9446
25.436	62.2041
25.454	61.4909
25.472	60.7884
25.49	60.1096
25.508	59.4736
25.526	58.8842
25.544	58.332
25.562	57.8289
25.58	57.3862
25.598	57.0006
25.616	56.67
25.634	56.3969
25.652	56.1845
25.67	56.0333
25.688	55.9366
25.706	55.8872
25.724	55.8885
25.742	55.9417
25.76	56.0326
25.778	56.1482
25.796	56.3002
25.814	56.4818
25.832	56.6754
25.85	56.8704
25.868	57.0808
25.886	57.2945
25.904	57.4955
25.922	57.6802
25.94	57.8574
25.958	58.0175
25.976	58.151
25.994	58.2594
26.012	58.3452
26.03	58.4054
26.048	58.4374
26.066	58.4405
26.084	58.4176
26.102	58.3714
26.12	58.303
26.138	58.2093
26.156	58.0946
26.174	57.9641
26.192	57.8187
26.21	57.6544
26.228	57.4777
26.246	57.2949
26.264	57.107
26.282	56.911
26.3	56.7088
26.318	56.5023
26.336	56.2931
26.354	56.0795
26.372	55.8581
26.39	55.6263
26.408	55.3906
26.426	55.1461
26.444	54.8828
26.462	54.593
26.48	54.287
26.498	53.9582
26.516	53.5951
26.534	53.1897
26.552	52.7539
26.57	52.2794
26.588	51.7535
26.606	51.1683
26.624	50.5336
26.642	49.8449
26.66	49.0951
26.678	48.2798
26.696	47.4036
26.714	46.4664
26.732	45.4672
26.75	44.4037
26.768	43.2747
26.786	42.0867
26.804	40.8464
26.822	39.5546
26.84	38.2032
26.858	36.8051
26.876	35.3741
26.894	33.9144
26.912	32.4116
26.93	30.8828
26.948	29.347
26.966	27.7464
26.984	25.9651
27.002	24.2668
27.02	22.9394
27.028	22.5837