File: Bakgrunnsmateriale/MATLAB/FTIR/ftir_data/subCa/Mapping_25/BZ12041010-4_t21.asc
PE IR       SPECTRUM    SPECTRUM    ASCII       PEDS        1.60
  -1
BZ2EB2~1.ASC
17/04/10
10:44:32.00
17/04/10
10:44:59.00
tln
$BZ12041010-4_t0021$<tbV0>[5.2,-2.0,9.0,0.0,22,1,0]
27.028
64

2002,4.07
MIRTGS : RIGHTBACK : INTERNAL 2
MIR : ON : INTERNAL 2
OPTKBR

0.200000
8
8.000000
FILLER
RATIO
SPECTRUM
UNLOCKED 256

DOUBLE
64
COMBINED
1
0
0

0.002000
RATIO

1
0
TRUE
51149
0
LEFT NOT FITTED RIGHT NOT FITTED 0
NONE
NONE
15600
12
4.427000
51148
TRUE
1 0 8 72 0 0 0 0

15798

#HDR
-1
-1
#GR
µM
%T
2.38419e-05
0.0
2.000000
0.002000
12515
8
69.9232
34.6307
#DATA
2.000000	 53.7279
2.018000	 52.7207
2.036000	 54.2389
2.054000	 53.8395
2.072000	 53.1135
2.090000	 53.7947
2.108000	 53.9517
2.126000	 53.7534
2.144000	 53.2391
2.162000	 53.8104
2.180000	 53.7568
2.198000	 53.8185
2.216000	 53.8241
2.234000	 52.8251
2.252000	 53.8416
2.270000	 53.3291
2.288000	 53.4772
2.306000	 53.8614
2.324000	 53.6403
2.342000	 54.0289
2.360000	 53.7371
2.378000	 53.569
2.396000	 53.8572
2.414000	 53.4504
2.432000	 54.13
2.450000	 53.8079
2.468000	 53.9908
2.486000	 53.7497
2.504000	 53.8097
2.522000	 53.6814
2.540000	 53.5892
2.558000	 53.7003
2.576000	 53.7811
2.594000	 53.9181
2.612000	 53.7844
2.630000	 53.8875
2.648000	 53.8264
2.666000	 53.9023
2.684000	 53.733
2.702000	 53.6091
2.720000	 53.7755
2.738000	 53.8633
2.756000	 53.7085
2.774000	 53.9672
2.792000	 53.8552
2.810000	 53.8155
2.828000	 53.9543
2.846000	 53.909
2.864000	 53.741
2.882000	 53.5704
2.900000	 53.729
2.918000	 53.6844
2.936000	 53.7183
2.954000	 53.75
2.972000	 53.7729
2.990000	 53.9176
3.008000	 53.8606
3.026000	 53.7602
3.044000	 53.8282
3.062000	 53.7674
3.080000	 53.7373
3.098000	 53.8479
3.116000	 53.7109
3.134000	 53.5063
3.152000	 53.6266
3.170000	 53.6486
3.188000	 53.7014
3.206000	 53.8658
3.224000	 53.801
3.242000	 53.9377
3.260000	 53.9608
3.278000	 53.9164
3.296000	 53.9118
3.314000	 53.7811
3.332000	 53.764
3.350000	 53.6231
3.368000	 53.4324
3.386000	 53.6487
3.404000	 53.5128
3.422000	 53.4738
3.440000	 53.6167
3.458000	 53.762
3.476000	 53.7736
3.494000	 53.8266
3.512000	 53.6623
3.530000	 53.8997
3.548000	 53.9896
3.566000	 53.9139
3.584000	 53.8097
3.602000	 53.8391
3.620000	 53.7755
3.638000	 53.8559
3.656000	 53.7434
3.674000	 53.7395
3.692000	 53.7101
3.710000	 53.7209
3.728000	 53.762
3.746000	 53.8153
3.764000	 53.7013
3.782000	 53.741
3.800000	 53.7323
3.818000	 53.9307
3.836000	 53.8617
3.854000	 53.9173
3.872000	 53.9168
3.890000	 53.9482
3.908000	 53.8858
3.926000	 53.9025
3.944000	 53.7491
3.962000	 53.9022
3.980000	 53.8299
3.998000	 53.7761
4.016000	 53.7745
4.034000	 53.7323
4.052000	 53.858
4.070000	 53.7741
4.088000	 53.759
4.106000	 53.808
4.124000	 53.8256
4.141999	 53.8212
4.160000	 53.7845
4.178000	 53.7244
4.196000	 53.7564
4.214000	 53.9033
4.232000	 53.8794
4.250000	 53.906
4.268000	 53.8457
4.286000	 53.8024
4.304000	 53.8387
4.322000	 53.8513
4.340000	 53.8875
4.358000	 53.7739
4.375999	 53.7394
4.394000	 53.8629
4.412000	 53.7488
4.430000	 53.7598
4.448000	 53.8497
4.466000	 53.7341
4.484000	 53.7491
4.502000	 53.6349
4.520000	 53.7464
4.538000	 53.6959
4.556000	 53.5771
4.574000	 53.5669
4.592000	 53.7346
4.609999	 53.7832
4.628000	 53.8268
4.646000	 53.8246
4.664000	 53.7891
4.682000	 53.718
4.700000	 53.765
4.718000	 53.6933
4.736000	 53.6787
4.754000	 53.7916
4.772000	 53.8354
4.790000	 53.8953
4.808000	 53.8745
4.826000	 53.7768
4.843999	 53.7904
4.862000	 53.7878
4.880000	 53.664
4.898000	 53.7387
4.916000	 53.7658
4.934000	 53.6815
4.952000	 53.7384
4.970000	 53.7715
4.988000	 53.7452
5.006000	 53.6371
5.024000	 53.731
5.042000	 53.6712
5.060000	 53.6601
5.077999	 53.6326
5.096000	 53.5015
5.114000	 53.5351
5.132000	 53.5798
5.150000	 53.4925
5.168000	 53.5307
5.186000	 53.6492
5.204000	 53.6197
5.222000	 53.5945
5.240000	 53.5518
5.258000	 53.5495
5.276000	 53.5213
5.294000	 53.5617
5.312000	 53.5577
5.330000	 53.626
5.348000	 53.6147
5.366000	 53.6207
5.384000	 53.6191
5.402000	 53.6336
5.420000	 53.6379
5.438000	 53.6775
5.456000	 53.7159
5.474000	 53.74
5.492000	 53.7135
5.510000	 53.6699
5.528000	 53.7304
5.546000	 53.7992
5.564000	 53.6914
5.582000	 53.6411
5.600000	 53.6943
5.618000	 53.7107
5.636000	 53.6783
5.654000	 53.5931
5.672000	 53.5812
5.690000	 53.5391
5.708000	 53.5403
5.726000	 53.4479
5.744000	 53.3012
5.762000	 53.2752
5.780000	 53.3232
5.798000	 53.3982
5.816000	 53.3936
5.834000	 53.3819
5.852000	 53.3725
5.870000	 53.3447
5.888000	 53.3854
5.906000	 53.3871
5.923999	 53.4055
5.942000	 53.3557
5.960000	 53.3048
5.978000	 53.3382
5.996000	 53.3838
6.014000	 53.475
6.032000	 53.5062
6.050000	 53.4795
6.068000	 53.4456
6.086000	 53.4064
6.104000	 53.3794
6.122000	 53.3814
6.140000	 53.4742
6.158000	 53.5109
6.176000	 53.4987
6.194000	 53.4816
6.212000	 53.513
6.230000	 53.5635
6.248000	 53.5449
6.266000	 53.5521
6.284000	 53.5886
6.302000	 53.6102
6.320000	 53.5704
6.338000	 53.499
6.356000	 53.5495
6.374000	 53.5739
6.392000	 53.5409
6.410000	 53.5791
6.428000	 53.5749
6.446000	 53.5586
6.464000	 53.554
6.482000	 53.5543
6.500000	 53.5988
6.518000	 53.622
6.536000	 53.632
6.554000	 53.637
6.572000	 53.5656
6.590000	 53.4309
6.608000	 53.3741
6.626000	 53.4132
6.644000	 53.439
6.662000	 53.4199
6.680000	 53.3813
6.698000	 53.3957
6.716000	 53.4737
6.734000	 53.4888
6.752000	 53.4596
6.770000	 53.4633
6.788000	 53.448
6.806000	 53.398
6.824000	 53.3733
6.842000	 53.3663
6.860000	 53.3502
6.878000	 53.3558
6.896000	 53.3869
6.914000	 53.3899
6.932000	 53.353
6.950000	 53.33
6.968000	 53.3699
6.986000	 53.4557
7.004000	 53.5068
7.022000	 53.4778
7.040000	 53.4321
7.058000	 53.415
7.076000	 53.3868
7.094000	 53.3435
7.112000	 53.3367
7.130000	 53.3676
7.148000	 53.3831
7.166000	 53.3631
7.184000	 53.3391
7.202000	 53.3443
7.220000	 53.3697
7.238000	 53.3822
7.256000	 53.3993
7.274000	 53.4576
7.292000	 53.5158
7.310000	 53.517
7.328000	 53.4931
7.346000	 53.498
7.364000	 53.5228
7.382000	 53.5439
7.400000	 53.5689
7.418000	 53.6002
7.436000	 53.615
7.454000	 53.5974
7.472000	 53.5563
7.490000	 53.5088
7.508000	 53.4716
7.526000	 53.4612
7.544000	 53.4837
7.562000	 53.5357
7.580000	 53.6082
7.598000	 53.6792
7.616000	 53.7148
7.634000	 53.6983
7.652000	 53.6592
7.670000	 53.6267
7.688000	 53.58
7.706000	 53.5082
7.724000	 53.4608
7.742000	 53.4633
7.760000	 53.4754
7.778000	 53.4662
7.796000	 53.4395
7.814000	 53.4098
7.832000	 53.4087
7.850000	 53.4596
7.868000	 53.5208
7.886000	 53.5212
7.904000	 53.4549
7.922000	 53.3797
7.940000	 53.3359
7.958000	 53.3191
7.976000	 53.3188
7.994000	 53.3305
8.012000	 53.343
8.030000	 53.3462
8.048000	 53.3386
8.065999	 53.3195
8.084000	 53.2955
8.102000	 53.2875
8.120000	 53.3064
8.138000	 53.3308
8.155999	 53.33
8.173999	 53.3013
8.192000	 53.2634
8.210000	 53.2207
8.228000	 53.1665
8.246000	 53.1178
8.263999	 53.1126
8.282000	 53.1653
8.300000	 53.2545
8.318000	 53.3604
8.336000	 53.477
8.353999	 53.5796
8.372000	 53.6182
8.390000	 53.5702
8.408000	 53.4742
8.426000	 53.393
8.443999	 53.3528
8.462000	 53.3376
8.480000	 53.3283
8.498000	 53.3239
8.516000	 53.3284
8.533999	 53.3351
8.552000	 53.3376
8.570000	 53.3437
8.588000	 53.3692
8.606000	 53.4183
8.624000	 53.4794
8.641999	 53.5353
8.660000	 53.5684
8.678000	 53.5643
8.696000	 53.5248
8.714000	 53.4797
8.731999	 53.4655
8.750000	 53.4821
8.768000	 53.4937
8.786000	 53.4788
8.804000	 53.4582
8.821999	 53.4634
8.840000	 53.5016
8.858000	 53.5488
8.876000	 53.5751
8.894000	 53.5756
8.911999	 53.5721
8.930000	 53.5814
8.948000	 53.5924
8.966000	 53.584
8.984000	 53.5525
9.001999	 53.5141
9.020000	 53.4839
9.038000	 53.4585
9.056000	 53.4234
9.074000	 53.3727
9.092000	 53.3205
9.109999	 53.2885
9.128000	 53.2858
9.146000	 53.3029
9.164000	 53.3228
9.182000	 53.3352
9.199999	 53.3414
9.218000	 53.3469
9.236000	 53.349
9.254000	 53.3346
9.272000	 53.2929
9.289999	 53.2313
9.308000	 53.1736
9.326000	 53.1422
9.344000	 53.1434
9.362000	 53.1688
9.379999	 53.2061
9.398000	 53.2472
9.416000	 53.2849
9.434000	 53.3096
9.452000	 53.312
9.469999	 53.2923
9.488000	 53.2649
9.506000	 53.2528
9.524000	 53.2741
9.542000	 53.3278
9.560000	 53.3945
9.577999	 53.4521
9.596000	 53.4933
9.614000	 53.5263
9.632000	 53.5616
9.650000	 53.5993
9.667999	 53.629
9.686000	 53.6421
9.704000	 53.6388
9.722000	 53.6273
9.740000	 53.6161
9.757999	 53.6105
9.776000	 53.6138
9.794000	 53.6271
9.812000	 53.6459
9.830000	 53.6596
9.847999	 53.6563
9.866000	 53.6331
9.884000	 53.6005
9.902000	 53.5771
9.920000	 53.578
9.937999	 53.6046
9.956000	 53.6452
9.974000	 53.6823
9.992000	 53.7012
10.01	53.6954
10.028	53.6694
10.046	53.6355
10.064	53.6062
10.082	53.5884
10.1	53.5817
10.118	53.5815
10.136	53.5864
10.154	53.5992
10.172	53.6233
10.19	53.6573
10.208	53.6914
10.226	53.713
10.244	53.7137
10.262	53.6949
10.28	53.6666
10.298	53.6426
10.316	53.6346
10.334	53.6484
10.352	53.6826
10.37	53.7281
10.388	53.7697
10.406	53.791
10.424	53.7805
10.442	53.7375
10.46	53.672
10.478	53.6
10.496	53.537
10.514	53.4946
10.532	53.4789
10.55	53.4921
10.568	53.5319
10.586	53.5913
10.604	53.6588
10.622	53.7191
10.64	53.7582
10.658	53.768
10.676	53.75
10.694	53.7144
10.712	53.6767
10.73	53.6512
10.748	53.6464
10.766	53.66
10.784	53.6813
10.802	53.6946
10.82	53.6883
10.838	53.6591
10.856	53.6136
10.874	53.5653
10.892	53.5277
10.91	53.51
10.928	53.5128
10.946	53.5297
10.964	53.5509
10.982	53.5667
11	53.5735
11.018	53.5736
11.036	53.5741
11.054	53.5828
11.072	53.6042
11.09	53.6377
11.108	53.6783
11.126	53.7179
11.144	53.7491
11.162	53.7664
11.18	53.768
11.198	53.7545
11.216	53.7274
11.234	53.689
11.252	53.6425
11.27	53.593
11.288	53.5485
11.306	53.5181
11.324	53.51
11.342	53.5273
11.36	53.5656
11.378	53.6136
11.396	53.6581
11.414	53.6879
11.432	53.6992
11.45	53.6967
11.468	53.69
11.486	53.6878
11.504	53.6933
11.522	53.7033
11.54	53.7099
11.558	53.7058
11.576	53.6875
11.594	53.6573
11.612	53.6221
11.63	53.5906
11.648	53.5692
11.666	53.5607
11.684	53.5626
11.702	53.5693
11.72	53.5743
11.738	53.5724
11.756	53.5616
11.774	53.5432
11.792	53.5217
11.81	53.5022
11.828	53.4895
11.846	53.4859
11.864	53.4913
11.882	53.5029
11.9	53.5166
11.918	53.5283
11.936	53.5345
11.954	53.5331
11.972	53.523
11.99	53.5054
12.008	53.4837
12.026	53.4636
12.044	53.4522
12.062	53.4562
12.08	53.4802
12.098	53.5244
12.116	53.5842
12.134	53.6505
12.152	53.713
12.17	53.7638
12.188	53.7989
12.206	53.8197
12.224	53.8307
12.242	53.8371
12.26	53.8419
12.278	53.8454
12.296	53.8453
12.314	53.8389
12.332	53.824
12.35	53.7999
12.368	53.7666
12.386	53.7253
12.404	53.6773
12.422	53.6248
12.44	53.5708
12.458	53.5194
12.476	53.4754
12.494	53.4436
12.512	53.4276
12.53	53.4283
12.548	53.4439
12.566	53.47
12.584	53.5009
12.602	53.5307
12.62	53.555
12.638	53.5714
12.656	53.5794
12.674	53.5795
12.692	53.5727
12.71	53.5599
12.728	53.542
12.746	53.5198
12.764	53.4953
12.782	53.4707
12.8	53.449
12.818	53.4331
12.836	53.4249
12.854	53.4252
12.872	53.4326
12.89	53.4446
12.908	53.4579
12.926	53.4694
12.944	53.4773
12.962	53.4809
12.98	53.4809
12.998	53.4785
13.016	53.4757
13.034	53.4739
13.052	53.4742
13.07	53.4769
13.088	53.482
13.106	53.4891
13.124	53.4977
13.142	53.5073
13.16	53.5174
13.178	53.5274
13.196	53.5366
13.214	53.5444
13.232	53.5499
13.25	53.5528
13.268	53.5534
13.286	53.5527
13.304	53.5519
13.322	53.5529
13.34	53.5572
13.358	53.5659
13.376	53.5791
13.394	53.5954
13.412	53.6126
13.43	53.6275
13.448	53.6364
13.466	53.6359
13.484	53.6239
13.502	53.5995
13.52	53.5641
13.538	53.5202
13.556	53.4719
13.574	53.424
13.592	53.3809
13.61	53.3463
13.628	53.3226
13.646	53.3106
13.664	53.3099
13.682	53.319
13.7	53.3354
13.718	53.357
13.736	53.3817
13.754	53.4076
13.772	53.4336
13.79	53.4591
13.808	53.4839
13.826	53.5076
13.844	53.5302
13.862	53.5514
13.88	53.5707
13.898	53.5878
13.916	53.6024
13.934	53.6141
13.952	53.6227
13.97	53.628
13.988	53.6299
14.006	53.6281
14.024	53.622
14.042	53.6109
14.06	53.5946
14.078	53.5729
14.096	53.5461
14.114	53.5156
14.132	53.4833
14.15	53.4516
14.168	53.4232
14.186	53.4005
14.204	53.3855
14.222	53.3789
14.24	53.3802
14.258	53.388
14.276	53.4001
14.294	53.4137
14.312	53.4266
14.33	53.4373
14.348	53.4453
14.366	53.4506
14.384	53.4547
14.402	53.4597
14.42	53.4673
14.438	53.479
14.456	53.496
14.474	53.5186
14.492	53.5468
14.51	53.58
14.528	53.6174
14.546	53.6583
14.564	53.7017
14.582	53.7465
14.6	53.7915
14.618	53.8353
14.636	53.8761
14.654	53.9116
14.672	53.9396
14.69	53.9582
14.708	53.9654
14.726	53.9601
14.744	53.9417
14.762	53.9113
14.78	53.8708
14.798	53.823
14.816	53.771
14.834	53.7187
14.852	53.6698
14.87	53.6273
14.888	53.5931
14.906	53.5686
14.924	53.5538
14.942	53.5479
14.96	53.5491
14.978	53.5554
14.996	53.565
15.014	53.5761
15.032	53.5867
15.05	53.5963
15.068	53.6046
15.086	53.6121
15.104	53.6193
15.122	53.6273
15.14	53.637
15.158	53.6489
15.176	53.6633
15.194	53.6802
15.212	53.6987
15.23	53.7178
15.248	53.7364
15.266	53.7533
15.284	53.7673
15.302	53.7775
15.32	53.7837
15.338	53.7857
15.356	53.7839
15.374	53.7789
15.392	53.7716
15.41	53.7624
15.428	53.7522
15.446	53.7414
15.464	53.7299
15.482	53.7178
15.5	53.7047
15.518	53.6899
15.536	53.6728
15.554	53.6528
15.572	53.6298
15.59	53.604
15.608	53.5754
15.626	53.5448
15.644	53.5127
15.662	53.4804
15.68	53.4489
15.698	53.419
15.716	53.3919
15.734	53.368
15.752	53.3479
15.77	53.3318
15.788	53.3199
15.806	53.3124
15.824	53.3092
15.842	53.3103
15.86	53.3158
15.878	53.3255
15.896	53.3393
15.914	53.3568
15.932	53.3776
15.95	53.4009
15.968	53.426
15.986	53.4513
16.004	53.4754
16.022	53.4972
16.04	53.5148
16.058	53.5276
16.076	53.535
16.094	53.5366
16.112	53.5331
16.13	53.5254
16.148	53.5151
16.166	53.5045
16.184	53.4953
16.202	53.4896
16.22	53.4893
16.238	53.4955
16.256	53.509
16.274	53.5299
16.292	53.5575
16.31	53.591
16.328	53.6283
16.346	53.6679
16.364	53.7082
16.382	53.747
16.4	53.7827
16.418	53.8142
16.436	53.8403
16.454	53.8606
16.472	53.8749
16.49	53.8832
16.508	53.886
16.526	53.8837
16.544	53.8773
16.562	53.8678
16.58	53.856
16.598	53.8437
16.616	53.8322
16.634	53.823
16.652	53.8183
16.67	53.8194
16.688	53.828
16.706	53.8455
16.724	53.8723
16.742	53.909
16.76	53.9548
16.778	54.0091
16.796	54.07
16.814	54.135
16.832	54.2027
16.85	54.2694
16.868	54.3329
16.886	54.3912
16.904	54.4416
16.922	54.4831
16.94	54.5145
16.958	54.5358
16.976	54.5472
16.994	54.5495
17.012	54.5443
17.03	54.5324
17.048	54.5167
17.066	54.4983
17.084	54.4789
17.102	54.4604
17.12	54.4435
17.138	54.4294
17.156	54.4182
17.174	54.4104
17.192	54.4054
17.21	54.4029
17.228	54.4022
17.246	54.4023
17.264	54.4027
17.282	54.4024
17.3	54.4011
17.318	54.398
17.336	54.3931
17.354	54.3862
17.372	54.3777
17.39	54.3678
17.408	54.3572
17.426	54.3467
17.444	54.3369
17.462	54.329
17.48	54.3232
17.498	54.3206
17.516	54.3214
17.534	54.3258
17.552	54.3337
17.57	54.3451
17.588	54.359
17.606	54.3748
17.624	54.3915
17.642	54.4079
17.66	54.4231
17.678	54.4355
17.696	54.4446
17.714	54.4489
17.732	54.4481
17.75	54.4416
17.768	54.4294
17.786	54.4114
17.804	54.3881
17.822	54.3596
17.84	54.3272
17.858	54.2915
17.876	54.2537
17.894	54.2153
17.912	54.1768
17.93	54.1402
17.948	54.1058
17.966	54.075
17.984	54.0481
18.002	54.0259
18.02	54.0086
18.038	53.9964
18.056	53.9894
18.074	53.9876
18.092	53.9907
18.11	53.9988
18.128	54.0116
18.146	54.0288
18.164	54.0502
18.182	54.0756
18.2	54.1047
18.218	54.1367
18.236	54.1715
18.254	54.2078
18.272	54.2453
18.29	54.2823
18.308	54.3184
18.326	54.3519
18.344	54.3824
18.362	54.4086
18.38	54.4304
18.398	54.4471
18.416	54.4591
18.434	54.4665
18.452	54.4701
18.47	54.4702
18.488	54.4682
18.506	54.4645
18.524	54.4604
18.542	54.4561
18.56	54.4525
18.578	54.4498
18.596	54.4479
18.614	54.4468
18.632	54.446
18.65	54.4454
18.668	54.4439
18.686	54.4414
18.704	54.4372
18.722	54.4311
18.74	54.4228
18.758	54.4124
18.776	54.4001
18.794	54.3863
18.812	54.3719
18.83	54.3574
18.848	54.344
18.866	54.3324
18.884	54.3239
18.902	54.3189
18.92	54.3187
18.938	54.3234
18.956	54.3339
18.974	54.3496
18.992	54.3707
19.01	54.3965
19.028	54.4264
19.046	54.4592
19.064	54.4938
19.082	54.5292
19.1	54.5635
19.118	54.5961
19.136	54.6251
19.154	54.6502
19.172	54.6698
19.19	54.6839
19.208	54.6917
19.226	54.6933
19.244	54.6888
19.262	54.6783
19.28	54.6627
19.298	54.6422
19.316	54.6185
19.334	54.5914
19.352	54.5629
19.37	54.5329
19.388	54.5033
19.406	54.4741
19.424	54.4465
19.442	54.4206
19.46	54.3969
19.478	54.3755
19.496	54.3562
19.514	54.3391
19.532	54.324
19.55	54.3106
19.568	54.2987
19.586	54.288
19.604	54.2784
19.622	54.2697
19.64	54.262
19.658	54.255
19.676	54.2488
19.694	54.2437
19.712	54.2398
19.73	54.237
19.748	54.2354
19.766	54.2347
19.784	54.2351
19.802	54.2359
19.82	54.2368
19.838	54.2373
19.856	54.2363
19.874	54.2337
19.892	54.2283
19.91	54.2201
19.928	54.2082
19.946	54.1926
19.964	54.1731
19.982	54.1496
20	54.1227
20.018	54.0924
20.036	54.0595
20.054	54.0251
20.072	53.9893
20.09	53.954
20.108	53.919
20.126	53.886
20.144	53.8551
20.162	53.8269
20.18	53.8019
20.198	53.7799
20.216	53.7611
20.234	53.7452
20.252	53.7315
20.27	53.7202
20.288	53.71
20.306	53.7008
20.324	53.692
20.342	53.683
20.36	53.6738
20.378	53.664
20.396	53.6535
20.414	53.6432
20.432	53.6327
20.45	53.6235
20.468	53.6158
20.486	53.6106
20.504	53.61
20.522	53.6134
20.54	53.6235
20.558	53.6399
20.576	53.664
20.594	53.6966
20.612	53.7373
20.63	53.7867
20.648	53.8445
20.666	53.9094
20.684	53.9817
20.702	54.0591
20.72	54.1405
20.738	54.2251
20.756	54.3088
20.774	54.3928
20.792	54.4727
20.81	54.5482
20.828	54.6175
20.846	54.6776
20.864	54.7294
20.882	54.7701
20.9	54.7998
20.918	54.8181
20.936	54.8242
20.954	54.8186
20.972	54.8021
20.99	54.7744
21.008	54.7373
21.026	54.691
21.044	54.6362
21.062	54.5752
21.08	54.5073
21.098	54.4347
21.116	54.3578
21.134	54.2772
21.152	54.1946
21.17	54.1095
21.188	54.0233
21.206	53.9363
21.224	53.8488
21.242	53.762
21.26	53.6755
21.278	53.5909
21.296	53.5081
21.314	53.4279
21.332	53.3519
21.35	53.2795
21.368	53.2129
21.386	53.1524
21.404	53.0986
21.422	53.0538
21.44	53.0173
21.458	52.9908
21.476	52.9751
21.494	52.9699
21.512	52.9765
21.53	52.9947
21.548	53.0243
21.566	53.0654
21.584	53.1178
21.602	53.1798
21.62	53.2521
21.638	53.3327
21.656	53.4194
21.674	53.5131
21.692	53.6097
21.71	53.7087
21.728	53.8093
21.746	53.9068
21.764	54.0026
21.782	54.0935
21.8	54.177
21.818	54.2543
21.836	54.3218
21.854	54.3792
21.872	54.4265
21.89	54.4623
21.908	54.4868
21.926	54.5005
21.944	54.5035
21.962	54.4959
21.98	54.4802
21.998	54.4559
22.016	54.4246
22.034	54.3896
22.052	54.3495
22.07	54.3075
22.088	54.2659
22.106	54.2236
22.124	54.1842
22.142	54.1484
22.16	54.1161
22.178	54.0895
22.196	54.0685
22.214	54.053
22.232	54.0438
22.25	54.0408
22.268	54.043
22.286	54.05
22.304	54.0621
22.322	54.0769
22.34	54.0946
22.358	54.1146
22.376	54.1344
22.394	54.1546
22.412	54.1741
22.43	54.1912
22.448	54.2065
22.466	54.2191
22.484	54.2281
22.502	54.234
22.52	54.2365
22.538	54.2352
22.556	54.2305
22.574	54.2234
22.592	54.2138
22.61	54.2021
22.628	54.1901
22.646	54.1777
22.664	54.165
22.682	54.1527
22.7	54.1408
22.718	54.1291
22.736	54.1171
22.754	54.1052
22.772	54.0928
22.79	54.0796
22.808	54.0658
22.826	54.0508
22.844	54.0342
22.862	54.0164
22.88	53.9961
22.898	53.9727
22.916	53.9467
22.934	53.9173
22.952	53.8839
22.97	53.847
22.988	53.8076
23.006	53.7656
23.024	53.7212
23.042	53.6766
23.06	53.6314
23.078	53.586
23.096	53.543
23.114	53.5022
23.132	53.4638
23.15	53.4301
23.168	53.401
23.186	53.3765
23.204	53.3579
23.222	53.3453
23.24	53.3384
23.258	53.337
23.276	53.3418
23.294	53.3518
23.312	53.3656
23.33	53.3838
23.348	53.4057
23.366	53.4288
23.384	53.4536
23.402	53.4796
23.42	53.5042
23.438	53.5273
23.456	53.5491
23.474	53.5675
23.492	53.582
23.51	53.5931
23.528	53.6005
23.546	53.6039
23.564	53.6036
23.582	53.5997
23.6	53.5925
23.618	53.5819
23.636	53.568
23.654	53.5508
23.672	53.5301
23.69	53.5073
23.708	53.483
23.726	53.4563
23.744	53.4295
23.762	53.4045
23.78	53.3801
23.798	53.3576
23.816	53.3388
23.834	53.3228
23.852	53.3102
23.87	53.3022
23.888	53.2978
23.906	53.298
23.924	53.3051
23.942	53.3181
23.96	53.3376
23.978	53.3674
23.996	53.4079
24.014	53.4581
24.032	53.5221
24.05	53.6025
24.068	53.6964
24.086	53.8084
24.104	53.9425
24.122	54.0952
24.14	54.2704
24.158	54.4738
24.176	54.7033
24.194	54.9599
24.212	55.2481
24.23	55.5691
24.248	55.9211
24.266	56.3058
24.284	56.725
24.302	57.1781
24.32	57.6624
24.338	58.1756
24.356	58.7219
24.374	59.2948
24.392	59.8857
24.41	60.4991
24.428	61.132
24.446	61.7709
24.464	62.412
24.482	63.0617
24.5	63.7057
24.518	64.3326
24.536	64.9523
24.554	65.555
24.572	66.1266
24.59	66.671
24.608	67.1877
24.626	67.6647
24.644	68.0964
24.662	68.489
24.68	68.8368
24.698	69.1339
24.716	69.3814
24.734	69.5816
24.752	69.7361
24.77	69.8428
24.788	69.9028
24.806	69.9231
24.824	69.9071
24.842	69.8479
24.86	69.7573
24.878	69.6485
24.896	69.5172
24.914	69.3643
24.932	69.2012
24.95	69.034
24.968	68.8559
24.986	68.6741
25.004	68.4963
25.022	68.3224
25.04	68.1497
25.058	67.9772
25.076	67.8063
25.094	67.6384
25.112	67.4664
25.13	67.284
25.148	67.099
25.166	66.9048
25.184	66.6871
25.202	66.4407
25.22	66.1752
25.238	65.8766
25.256	65.5306
25.274	65.1446
25.292	64.7164
25.31	64.2334
25.328	63.6878
25.346	63.0873
25.364	62.4279
25.382	61.7041
25.4	60.9125
25.418	60.0577
25.436	59.1465
25.454	58.1823
25.472	57.1548
25.49	56.079
25.508	54.9742
25.526	53.8401
25.544	52.6683
25.562	51.4821
25.58	50.3031
25.598	49.1156
25.616	47.9272
25.634	46.7616
25.652	45.632
25.67	44.5206
25.688	43.4436
25.706	42.421
25.724	41.4532
25.742	40.5323
25.76	39.6718
25.778	38.8845
25.796	38.1666
25.814	37.5153
25.832	36.9328
25.85	36.4211
25.868	35.9804
25.886	35.6067
25.904	35.2956
25.922	35.049
25.94	34.8693
25.958	34.7448
25.976	34.6641
25.994	34.6312
26.012	34.6469
26.03	34.7022
26.048	34.7887
26.066	34.9083
26.084	35.0637
26.102	35.256
26.12	35.4845
26.138	35.7451
26.156	36.045
26.174	36.3927
26.192	36.788
26.21	37.2238
26.228	37.7138
26.246	38.2723
26.264	38.8994
26.282	39.5886
26.3	40.3474
26.318	41.183
26.336	42.0976
26.354	43.0861
26.372	44.1436
26.39	45.2667
26.408	46.4697
26.426	47.7396
26.444	49.0518
26.462	50.3887
26.48	51.7842
26.498	53.2097
26.516	54.6188
26.534	55.981
26.552	57.3446
26.57	58.6723
26.588	59.9099
26.606	61.0253
26.624	62.0674
26.642	63.0018
26.66	63.7823
26.678	64.3834
26.696	64.8427
26.714	65.1383
26.732	65.2416
26.75	65.1347
26.768	64.8353
26.786	64.3455
26.804	63.6654
26.822	62.7885
26.84	61.7078
26.858	60.4483
26.876	59.037
26.894	57.4793
26.912	55.7457
26.93	53.8771
26.948	51.9186
26.966	49.7858
26.984	47.2838
27.002	44.8384
27.02	42.9156
27.028	42.4068