File: Bakgrunnsmateriale/MATLAB/FTIR/ftir_data/subCa/Mapping_25/BZ12041010-4_t25.asc
PE IR       SPECTRUM    SPECTRUM    ASCII       PEDS        1.60
  -1
BZ3EB2~1.ASC
17/04/10
11:03:01.00
17/04/10
11:03:27.00
tln
$BZ12041010-4_t0025$<tbV0>[-5.2,-2.0,9.0,0.0,22,1,0]
27.028
64

2002,4.07
MIRTGS : RIGHTBACK : INTERNAL 2
MIR : ON : INTERNAL 2
OPTKBR

0.200000
8
8.000000
FILLER
RATIO
SPECTRUM
UNLOCKED 256

DOUBLE
64
COMBINED
1
0
0

0.002000
RATIO

1
0
TRUE
51149
0
LEFT NOT FITTED RIGHT NOT FITTED 0
NONE
NONE
15600
12
4.427000
51148
TRUE
1 0 8 72 0 0 0 0

15798

#HDR
-1
-1
#GR
µM
%T
2.38419e-05
0.0
2.000000
0.002000
12515
8
83.4708
28.6169
#DATA
2.000000	 60.4513
2.018000	 59.0932
2.036000	 60.5888
2.054000	 59.3726
2.072000	 61.0871
2.090000	 60.64
2.108000	 60.4881
2.126000	 60.3548
2.144000	 60.0225
2.162000	 59.6676
2.180000	 60.4714
2.198000	 59.9588
2.216000	 60.1566
2.234000	 58.5761
2.252000	 62.0566
2.270000	 60.0074
2.288000	 60.1344
2.306000	 60.1955
2.324000	 60.2126
2.342000	 60.4562
2.360000	 60.4995
2.378000	 60.2281
2.396000	 60.4454
2.414000	 60.2736
2.432000	 60.7781
2.450000	 60.5742
2.468000	 60.7107
2.486000	 60.5682
2.504000	 60.3845
2.522000	 60.2908
2.540000	 60.5087
2.558000	 60.4362
2.576000	 60.5322
2.594000	 60.5987
2.612000	 60.5285
2.630000	 60.4516
2.648000	 60.6096
2.666000	 60.4613
2.684000	 60.3831
2.702000	 60.4528
2.720000	 60.4772
2.738000	 60.65
2.756000	 60.5225
2.774000	 60.6516
2.792000	 60.6703
2.810000	 60.6309
2.828000	 60.3888
2.846000	 60.5058
2.864000	 60.4065
2.882000	 60.4708
2.900000	 60.448
2.918000	 60.4671
2.936000	 60.4428
2.954000	 60.6345
2.972000	 60.5471
2.990000	 60.6249
3.008000	 60.6873
3.026000	 60.6373
3.044000	 60.5962
3.062000	 60.5597
3.080000	 60.4299
3.098000	 60.5662
3.116000	 60.5388
3.134000	 60.4253
3.152000	 60.4567
3.170000	 60.5158
3.188000	 60.4882
3.206000	 60.6339
3.224000	 60.54
3.242000	 60.6787
3.260000	 60.5288
3.278000	 60.5959
3.296000	 60.5114
3.314000	 60.559
3.332000	 60.5608
3.350000	 60.465
3.368000	 60.3991
3.386000	 60.4729
3.404000	 60.2675
3.422000	 60.3923
3.440000	 60.5811
3.458000	 60.5969
3.476000	 60.6024
3.494000	 60.695
3.512000	 60.5106
3.530000	 60.7122
3.548000	 60.7771
3.566000	 60.6334
3.584000	 60.6541
3.602000	 60.5743
3.620000	 60.5928
3.638000	 60.6779
3.656000	 60.6616
3.674000	 60.5946
3.692000	 60.4286
3.710000	 60.4873
3.728000	 60.6053
3.746000	 60.4917
3.764000	 60.4739
3.782000	 60.6056
3.800000	 60.6287
3.818000	 60.6651
3.836000	 60.6703
3.854000	 60.6676
3.872000	 60.7142
3.890000	 60.6413
3.908000	 60.6204
3.926000	 60.7402
3.944000	 60.6911
3.962000	 60.6371
3.980000	 60.6789
3.998000	 60.6658
4.016000	 60.5621
4.034000	 60.5938
4.052000	 60.6291
4.070000	 60.6159
4.088000	 60.7385
4.106000	 60.63
4.124000	 60.6214
4.141999	 60.8347
4.160000	 60.6479
4.178000	 60.6959
4.196000	 60.7298
4.214000	 60.7655
4.232000	 60.6881
4.250000	 60.7525
4.268000	 60.7134
4.286000	 60.7513
4.304000	 60.7215
4.322000	 60.7293
4.340000	 60.7924
4.358000	 60.8271
4.375999	 60.705
4.394000	 60.7221
4.412000	 60.6911
4.430000	 60.6883
4.448000	 60.7115
4.466000	 60.6695
4.484000	 60.6437
4.502000	 60.6697
4.520000	 60.6632
4.538000	 60.5944
4.556000	 60.6229
4.574000	 60.573
4.592000	 60.6387
4.609999	 60.6969
4.628000	 60.7636
4.646000	 60.6857
4.664000	 60.665
4.682000	 60.7287
4.700000	 60.8197
4.718000	 60.832
4.736000	 60.6591
4.754000	 60.6896
4.772000	 60.688
4.790000	 60.7364
4.808000	 60.7778
4.826000	 60.8503
4.843999	 60.7603
4.862000	 60.6509
4.880000	 60.6835
4.898000	 60.7106
4.916000	 60.7666
4.934000	 60.6866
4.952000	 60.6845
4.970000	 60.6397
4.988000	 60.6235
5.006000	 60.5819
5.024000	 60.5693
5.042000	 60.6386
5.060000	 60.7073
5.077999	 60.6919
5.096000	 60.6757
5.114000	 60.6074
5.132000	 60.6096
5.150000	 60.557
5.168000	 60.5505
5.186000	 60.6242
5.204000	 60.6314
5.222000	 60.5308
5.240000	 60.5584
5.258000	 60.6568
5.276000	 60.6682
5.294000	 60.6251
5.312000	 60.6702
5.330000	 60.7116
5.348000	 60.6444
5.366000	 60.6506
5.384000	 60.7086
5.402000	 60.74
5.420000	 60.6288
5.438000	 60.5887
5.456000	 60.6189
5.474000	 60.7049
5.492000	 60.7049
5.510000	 60.642
5.528000	 60.6707
5.546000	 60.651
5.564000	 60.6607
5.582000	 60.6899
5.600000	 60.6317
5.618000	 60.6355
5.636000	 60.6363
5.654000	 60.585
5.672000	 60.5395
5.690000	 60.4653
5.708000	 60.4418
5.726000	 60.3916
5.744000	 60.3538
5.762000	 60.4181
5.780000	 60.429
5.798000	 60.3733
5.816000	 60.407
5.834000	 60.4665
5.852000	 60.4352
5.870000	 60.3986
5.888000	 60.36
5.906000	 60.4
5.923999	 60.51
5.942000	 60.547
5.960000	 60.5154
5.978000	 60.4722
5.996000	 60.5115
6.014000	 60.6177
6.032000	 60.6324
6.050000	 60.5991
6.068000	 60.5679
6.086000	 60.5371
6.104000	 60.568
6.122000	 60.6575
6.140000	 60.7137
6.158000	 60.6828
6.176000	 60.6015
6.194000	 60.6042
6.212000	 60.7055
6.230000	 60.6928
6.248000	 60.6106
6.266000	 60.6104
6.284000	 60.6897
6.302000	 60.7363
6.320000	 60.7666
6.338000	 60.8029
6.356000	 60.7732
6.374000	 60.7025
6.392000	 60.6843
6.410000	 60.7078
6.428000	 60.6704
6.446000	 60.6023
6.464000	 60.554
6.482000	 60.57
6.500000	 60.6163
6.518000	 60.62
6.536000	 60.6029
6.554000	 60.6163
6.572000	 60.6494
6.590000	 60.6334
6.608000	 60.5975
6.626000	 60.5774
6.644000	 60.5751
6.662000	 60.6381
6.680000	 60.7824
6.698000	 60.8147
6.716000	 60.6776
6.734000	 60.5989
6.752000	 60.6036
6.770000	 60.6177
6.788000	 60.633
6.806000	 60.6329
6.824000	 60.6397
6.842000	 60.6607
6.860000	 60.641
6.878000	 60.5937
6.896000	 60.5748
6.914000	 60.5789
6.932000	 60.5927
6.950000	 60.6134
6.968000	 60.6385
6.986000	 60.6554
7.004000	 60.6274
7.022000	 60.5835
7.040000	 60.6039
7.058000	 60.647
7.076000	 60.6111
7.094000	 60.5572
7.112000	 60.5706
7.130000	 60.5698
7.148000	 60.5323
7.166000	 60.5205
7.184000	 60.512
7.202000	 60.5153
7.220000	 60.5533
7.238000	 60.5659
7.256000	 60.5453
7.274000	 60.5524
7.292000	 60.5912
7.310000	 60.6226
7.328000	 60.6569
7.346000	 60.733
7.364000	 60.8277
7.382000	 60.8731
7.400000	 60.84
7.418000	 60.7536
7.436000	 60.6658
7.454000	 60.6163
7.472000	 60.5913
7.490000	 60.5568
7.508000	 60.5241
7.526000	 60.5166
7.544000	 60.5089
7.562000	 60.4844
7.580000	 60.4824
7.598000	 60.5262
7.616000	 60.5699
7.634000	 60.5609
7.652000	 60.5204
7.670000	 60.5111
7.688000	 60.5342
7.706000	 60.5381
7.724000	 60.5146
7.742000	 60.4941
7.760000	 60.4835
7.778000	 60.4811
7.796000	 60.4934
7.814000	 60.5176
7.832000	 60.5565
7.850000	 60.6188
7.868000	 60.6691
7.886000	 60.6464
7.904000	 60.556
7.922000	 60.4602
7.940000	 60.3888
7.958000	 60.3359
7.976000	 60.3073
7.994000	 60.3112
8.012000	 60.3314
8.030000	 60.3482
8.048000	 60.3661
8.065999	 60.3976
8.084000	 60.4335
8.102000	 60.4468
8.120000	 60.4325
8.138000	 60.4238
8.155999	 60.4473
8.173999	 60.4843
8.192000	 60.4946
8.210000	 60.462
8.228000	 60.4014
8.246000	 60.3422
8.263999	 60.3167
8.282000	 60.3442
8.300000	 60.4158
8.318000	 60.5031
8.336000	 60.5773
8.353999	 60.6168
8.372000	 60.6113
8.390000	 60.5734
8.408000	 60.5357
8.426000	 60.5207
8.443999	 60.5176
8.462000	 60.4987
8.480000	 60.4568
8.498000	 60.4153
8.516000	 60.3996
8.533999	 60.4079
8.552000	 60.4177
8.570000	 60.4114
8.588000	 60.3932
8.606000	 60.3842
8.624000	 60.4047
8.641999	 60.4546
8.660000	 60.5108
8.678000	 60.5459
8.696000	 60.551
8.714000	 60.5408
8.731999	 60.5333
8.750000	 60.5298
8.768000	 60.5213
8.786000	 60.5104
8.804000	 60.5126
8.821999	 60.5398
8.840000	 60.5903
8.858000	 60.6486
8.876000	 60.6908
8.894000	 60.703
8.911999	 60.6937
8.930000	 60.6784
8.948000	 60.6616
8.966000	 60.6417
8.984000	 60.622
9.001999	 60.6109
9.020000	 60.6201
9.038000	 60.6573
9.056000	 60.7136
9.074000	 60.765
9.092000	 60.7895
9.109999	 60.7823
9.128000	 60.7529
9.146000	 60.7133
9.164000	 60.6711
9.182000	 60.6325
9.199999	 60.6023
9.218000	 60.5797
9.236000	 60.5581
9.254000	 60.5352
9.272000	 60.5184
9.289999	 60.5188
9.308000	 60.5369
9.326000	 60.5575
9.344000	 60.5618
9.362000	 60.544
9.379999	 60.5165
9.398000	 60.5009
9.416000	 60.513
9.434000	 60.5511
9.452000	 60.5941
9.469999	 60.6147
9.488000	 60.5956
9.506000	 60.5418
9.524000	 60.4748
9.542000	 60.4152
9.560000	 60.3723
9.577999	 60.3502
9.596000	 60.3572
9.614000	 60.3999
9.632000	 60.4701
9.650000	 60.544
9.667999	 60.5994
9.686000	 60.6298
9.704000	 60.6425
9.722000	 60.6443
9.740000	 60.6338
9.757999	 60.611
9.776000	 60.5857
9.794000	 60.5736
9.812000	 60.5808
9.830000	 60.5985
9.847999	 60.6139
9.866000	 60.624
9.884000	 60.6382
9.902000	 60.6665
9.920000	 60.7087
9.937999	 60.7557
9.956000	 60.7997
9.974000	 60.8404
9.992000	 60.8797
10.01	60.9133
10.028	60.929
10.046	60.9159
10.064	60.8721
10.082	60.8077
10.1	60.7396
10.118	60.6851
10.136	60.6556
10.154	60.6553
10.172	60.6815
10.19	60.7231
10.208	60.7636
10.226	60.7873
10.244	60.7853
10.262	60.761
10.28	60.7275
10.298	60.7012
10.316	60.6941
10.334	60.7087
10.352	60.7391
10.37	60.7738
10.388	60.8016
10.406	60.8162
10.424	60.8183
10.442	60.8153
10.46	60.815
10.478	60.8196
10.496	60.8248
10.514	60.8241
10.532	60.8145
10.55	60.7998
10.568	60.7873
10.586	60.7822
10.604	60.7828
10.622	60.7804
10.64	60.7656
10.658	60.7346
10.676	60.6938
10.694	60.6563
10.712	60.6367
10.73	60.6435
10.748	60.6755
10.766	60.7223
10.784	60.7704
10.802	60.8075
10.82	60.8284
10.838	60.8351
10.856	60.8334
10.874	60.8293
10.892	60.825
10.91	60.8179
10.928	60.8035
10.946	60.7775
10.964	60.7394
10.982	60.6932
11	60.6455
11.018	60.6039
11.036	60.5731
11.054	60.5538
11.072	60.5442
11.09	60.5417
11.108	60.5454
11.126	60.5557
11.144	60.573
11.162	60.5951
11.18	60.6177
11.198	60.6347
11.216	60.6407
11.234	60.6329
11.252	60.6117
11.27	60.5816
11.288	60.5508
11.306	60.5283
11.324	60.5236
11.342	60.5431
11.36	60.588
11.378	60.6513
11.396	60.7207
11.414	60.7812
11.432	60.8214
11.45	60.8378
11.468	60.8353
11.486	60.8232
11.504	60.8106
11.522	60.8027
11.54	60.7991
11.558	60.7954
11.576	60.7856
11.594	60.7654
11.612	60.733
11.63	60.6904
11.648	60.6423
11.666	60.5957
11.684	60.5569
11.702	60.5311
11.72	60.521
11.738	60.525
11.756	60.5383
11.774	60.5544
11.792	60.5674
11.81	60.5739
11.828	60.5742
11.846	60.5712
11.864	60.5684
11.882	60.5682
11.9	60.5707
11.918	60.574
11.936	60.5756
11.954	60.5736
11.972	60.5681
11.99	60.5604
12.008	60.5536
12.026	60.5508
12.044	60.5551
12.062	60.5704
12.08	60.6006
12.098	60.6484
12.116	60.714
12.134	60.7924
12.152	60.8743
12.17	60.9479
12.188	61.0022
12.206	61.0302
12.224	61.0319
12.242	61.0135
12.26	60.9854
12.278	60.9589
12.296	60.9422
12.314	60.9386
12.332	60.9454
12.35	60.9557
12.368	60.9608
12.386	60.953
12.404	60.9282
12.422	60.8868
12.44	60.833
12.458	60.7731
12.476	60.7146
12.494	60.6634
12.512	60.6238
12.53	60.5981
12.548	60.587
12.566	60.5897
12.584	60.6045
12.602	60.629
12.62	60.6595
12.638	60.692
12.656	60.7223
12.674	60.7466
12.692	60.7625
12.71	60.7697
12.728	60.7698
12.746	60.766
12.764	60.7626
12.782	60.7639
12.8	60.7731
12.818	60.7909
12.836	60.8156
12.854	60.8426
12.872	60.8662
12.89	60.8799
12.908	60.8786
12.926	60.8592
12.944	60.8226
12.962	60.7724
12.98	60.7151
12.998	60.6588
13.016	60.6121
13.034	60.5821
13.052	60.5733
13.07	60.5869
13.088	60.6203
13.106	60.6675
13.124	60.7202
13.142	60.769
13.16	60.8058
13.178	60.8248
13.196	60.8235
13.214	60.8032
13.232	60.7683
13.25	60.7252
13.268	60.6804
13.286	60.6404
13.304	60.6096
13.322	60.5903
13.34	60.5834
13.358	60.588
13.376	60.6029
13.394	60.6266
13.412	60.6576
13.43	60.6942
13.448	60.7344
13.466	60.7757
13.484	60.8148
13.502	60.8485
13.52	60.8737
13.538	60.8879
13.556	60.8905
13.574	60.8821
13.592	60.8653
13.61	60.8435
13.628	60.8209
13.646	60.8018
13.664	60.7897
13.682	60.7865
13.7	60.7928
13.718	60.8073
13.736	60.8274
13.754	60.8497
13.772	60.8707
13.79	60.8875
13.808	60.8981
13.826	60.9019
13.844	60.8998
13.862	60.8932
13.88	60.8841
13.898	60.8749
13.916	60.8673
13.934	60.8628
13.952	60.8617
13.97	60.8638
13.988	60.8679
14.006	60.8723
14.024	60.8746
14.042	60.872
14.06	60.862
14.078	60.8426
14.096	60.813
14.114	60.7734
14.132	60.7254
14.15	60.6725
14.168	60.6193
14.186	60.5716
14.204	60.5351
14.222	60.5147
14.24	60.5132
14.258	60.531
14.276	60.5657
14.294	60.6131
14.312	60.6671
14.33	60.7213
14.348	60.7698
14.366	60.8077
14.384	60.8329
14.402	60.8451
14.42	60.8466
14.438	60.8408
14.456	60.8319
14.474	60.8241
14.492	60.8211
14.51	60.8255
14.528	60.838
14.546	60.8576
14.564	60.882
14.582	60.9078
14.6	60.9308
14.618	60.9472
14.636	60.9529
14.654	60.9452
14.672	60.923
14.69	60.8863
14.708	60.8369
14.726	60.7779
14.744	60.7142
14.762	60.6514
14.78	60.5946
14.798	60.5485
14.816	60.5165
14.834	60.5008
14.852	60.5011
14.87	60.5155
14.888	60.5411
14.906	60.5742
14.924	60.6109
14.942	60.6469
14.96	60.6796
14.978	60.7074
14.996	60.7296
15.014	60.7466
15.032	60.7594
15.05	60.7697
15.068	60.779
15.086	60.7889
15.104	60.8006
15.122	60.8149
15.14	60.8318
15.158	60.8511
15.176	60.8722
15.194	60.8945
15.212	60.917
15.23	60.9392
15.248	60.9604
15.266	60.9803
15.284	60.9987
15.302	61.0156
15.32	61.0314
15.338	61.0464
15.356	61.061
15.374	61.0758
15.392	61.0911
15.41	61.1068
15.428	61.1224
15.446	61.1365
15.464	61.1477
15.482	61.1543
15.5	61.1543
15.518	61.1458
15.536	61.1275
15.554	61.099
15.572	61.0603
15.59	61.0127
15.608	60.9582
15.626	60.8987
15.644	60.8374
15.662	60.7775
15.68	60.7215
15.698	60.6717
15.716	60.6304
15.734	60.5986
15.752	60.5767
15.77	60.5646
15.788	60.5612
15.806	60.5651
15.824	60.575
15.842	60.5889
15.86	60.6051
15.878	60.6223
15.896	60.6396
15.914	60.6565
15.932	60.6728
15.95	60.6886
15.968	60.7043
15.986	60.7205
16.004	60.7374
16.022	60.7553
16.04	60.7739
16.058	60.7926
16.076	60.8106
16.094	60.8265
16.112	60.8389
16.13	60.8467
16.148	60.8485
16.166	60.8438
16.184	60.8327
16.202	60.8158
16.22	60.7951
16.238	60.7726
16.256	60.7505
16.274	60.7323
16.292	60.7201
16.31	60.7157
16.328	60.7212
16.346	60.7367
16.364	60.7622
16.382	60.7965
16.4	60.8374
16.418	60.8831
16.436	60.9302
16.454	60.9763
16.472	61.0194
16.49	61.0569
16.508	61.0875
16.526	61.1103
16.544	61.1246
16.562	61.1309
16.58	61.1293
16.598	61.1208
16.616	61.1062
16.634	61.0862
16.652	61.0621
16.67	61.0345
16.688	61.0042
16.706	60.9725
16.724	60.9402
16.742	60.9082
16.76	60.8778
16.778	60.8496
16.796	60.8247
16.814	60.8034
16.832	60.786
16.85	60.7726
16.868	60.7624
16.886	60.7549
16.904	60.7488
16.922	60.7437
16.94	60.7384
16.958	60.7329
16.976	60.7271
16.994	60.7211
17.012	60.7162
17.03	60.7129
17.048	60.7137
17.066	60.7196
17.084	60.7324
17.102	60.7535
17.12	60.7833
17.138	60.8224
17.156	60.8699
17.174	60.9253
17.192	60.9862
17.21	61.0512
17.228	61.1174
17.246	61.1822
17.264	61.2438
17.282	61.2989
17.3	61.3469
17.318	61.3858
17.336	61.4152
17.354	61.4349
17.372	61.4455
17.39	61.4476
17.408	61.4423
17.426	61.431
17.444	61.4145
17.462	61.3947
17.48	61.3721
17.498	61.3482
17.516	61.3235
17.534	61.2984
17.552	61.2738
17.57	61.2498
17.588	61.2266
17.606	61.2042
17.624	61.1826
17.642	61.1613
17.66	61.14
17.678	61.1181
17.696	61.0956
17.714	61.0714
17.732	61.0453
17.75	61.0165
17.768	60.9845
17.786	60.9492
17.804	60.9103
17.822	60.8678
17.84	60.8223
17.858	60.7745
17.876	60.7249
17.894	60.6754
17.912	60.6266
17.93	60.581
17.948	60.5389
17.966	60.503
17.984	60.4736
18.002	60.4526
18.02	60.4402
18.038	60.4372
18.056	60.4432
18.074	60.4584
18.092	60.4813
18.11	60.5117
18.128	60.5473
18.146	60.5876
18.164	60.6301
18.182	60.6738
18.2	60.7168
18.218	60.7576
18.236	60.795
18.254	60.8277
18.272	60.8551
18.29	60.8763
18.308	60.8909
18.326	60.8988
18.344	60.9001
18.362	60.8952
18.38	60.8848
18.398	60.87
18.416	60.8517
18.434	60.8312
18.452	60.81
18.47	60.7891
18.488	60.7703
18.506	60.7543
18.524	60.7429
18.542	60.7363
18.56	60.7358
18.578	60.7413
18.596	60.7531
18.614	60.7712
18.632	60.7949
18.65	60.824
18.668	60.8569
18.686	60.8936
18.704	60.9319
18.722	60.9716
18.74	61.0105
18.758	61.0483
18.776	61.0832
18.794	61.1149
18.812	61.1421
18.83	61.1648
18.848	61.182
18.866	61.1941
18.884	61.2013
18.902	61.2042
18.92	61.2037
18.938	61.2008
18.956	61.1969
18.974	61.193
18.992	61.1908
19.01	61.1908
19.028	61.1945
19.046	61.2018
19.064	61.2134
19.082	61.2288
19.1	61.2479
19.118	61.2699
19.136	61.2937
19.154	61.3185
19.172	61.3426
19.19	61.3655
19.208	61.3848
19.226	61.4007
19.244	61.4112
19.262	61.4165
19.28	61.4155
19.298	61.4083
19.316	61.3945
19.334	61.3743
19.352	61.3481
19.37	61.3157
19.388	61.2781
19.406	61.235
19.424	61.1875
19.442	61.1355
19.46	61.0801
19.478	61.0214
19.496	60.9604
19.514	60.8972
19.532	60.8329
19.55	60.7684
19.568	60.7041
19.586	60.641
19.604	60.5793
19.622	60.5204
19.64	60.4641
19.658	60.411
19.676	60.3611
19.694	60.3146
19.712	60.2715
19.73	60.2308
19.748	60.1927
19.766	60.1554
19.784	60.1186
19.802	60.0808
19.82	60.0411
19.838	59.9985
19.856	59.9511
19.874	59.8993
19.892	59.842
19.91	59.7796
19.928	59.7133
19.946	59.6425
19.964	59.5707
19.982	59.4977
20	59.4274
20.018	59.3611
20.036	59.301
20.054	59.251
20.072	59.2109
20.09	59.1852
20.108	59.1734
20.126	59.1775
20.144	59.1981
20.162	59.234
20.18	59.2859
20.198	59.3518
20.216	59.4296
20.234	59.519
20.252	59.6148
20.27	59.7179
20.288	59.8222
20.306	59.9277
20.324	60.0306
20.342	60.1282
20.36	60.2201
20.378	60.3019
20.396	60.3746
20.414	60.436
20.432	60.4859
20.45	60.5246
20.468	60.5516
20.486	60.5681
20.504	60.576
20.522	60.5751
20.54	60.569
20.558	60.557
20.576	60.5429
20.594	60.5279
20.612	60.5131
20.63	60.5025
20.648	60.495
20.666	60.4941
20.684	60.4996
20.702	60.513
20.72	60.5359
20.738	60.5676
20.756	60.6081
20.774	60.6575
20.792	60.7138
20.81	60.7774
20.828	60.8458
20.846	60.9159
20.864	60.9884
20.882	61.0574
20.9	61.1241
20.918	61.1841
20.936	61.2347
20.954	61.2761
20.972	61.3035
20.99	61.3177
21.008	61.3171
21.026	61.3005
21.044	61.269
21.062	61.2233
21.08	61.1629
21.098	61.0922
21.116	61.0111
21.134	60.9223
21.152	60.8314
21.17	60.7367
21.188	60.6453
21.206	60.5578
21.224	60.4759
21.242	60.4049
21.26	60.3432
21.278	60.2934
21.296	60.2567
21.314	60.2318
21.332	60.2188
21.35	60.218
21.368	60.2253
21.386	60.2405
21.404	60.262
21.422	60.2847
21.44	60.3101
21.458	60.3341
21.476	60.3544
21.494	60.3719
21.512	60.3841
21.53	60.3907
21.548	60.3934
21.566	60.3925
21.584	60.388
21.602	60.3848
21.62	60.3814
21.638	60.3814
21.656	60.39
21.674	60.4052
21.692	60.4314
21.71	60.4703
21.728	60.521
21.746	60.5855
21.764	60.6647
21.782	60.7546
21.8	60.8541
21.818	60.9637
21.836	61.0734
21.854	61.185
21.872	61.2935
21.89	61.3873
21.908	61.4712
21.926	61.5349
21.944	61.5716
21.962	61.5844
21.98	61.5641
21.998	61.5093
22.016	61.4211
22.034	61.2967
22.052	61.1353
22.07	60.9421
22.088	60.7187
22.106	60.4641
22.124	60.1909
22.142	59.8991
22.16	59.5917
22.178	59.285
22.196	58.9739
22.214	58.6678
22.232	58.3796
22.25	58.1035
22.268	57.8499
22.286	57.6254
22.304	57.4265
22.322	57.2592
22.34	57.1257
22.358	57.0236
22.376	56.9516
22.394	56.9122
22.412	56.9
22.43	56.9092
22.448	56.9431
22.466	56.9939
22.484	57.0556
22.502	57.1314
22.52	57.2132
22.538	57.2975
22.556	57.3863
22.574	57.4741
22.592	57.5594
22.61	57.6435
22.628	57.7258
22.646	57.805
22.664	57.8833
22.682	57.9636
22.7	58.044
22.718	58.128
22.736	58.22
22.754	58.3179
22.772	58.4247
22.79	58.5436
22.808	58.6731
22.826	58.814
22.844	58.9675
22.862	59.1333
22.88	59.3076
22.898	59.4899
22.916	59.6809
22.934	59.8722
22.952	60.0625
22.97	60.2527
22.988	60.4334
23.006	60.6039
23.024	60.7646
23.042	60.9059
23.06	61.0275
23.078	61.1297
23.096	61.2051
23.114	61.2532
23.132	61.2749
23.15	61.267
23.168	61.2278
23.186	61.16
23.204	61.0668
23.222	60.9462
23.24	60.8011
23.258	60.639
23.276	60.4575
23.294	60.2595
23.312	60.054
23.33	59.8389
23.348	59.6165
23.366	59.3959
23.384	59.1761
23.402	58.958
23.42	58.7501
23.438	58.5528
23.456	58.3653
23.474	58.1925
23.492	58.0354
23.51	57.8927
23.528	57.7654
23.546	57.6548
23.564	57.5599
23.582	57.4775
23.6	57.4076
23.618	57.3507
23.636	57.3015
23.654	57.2578
23.672	57.222
23.69	57.1882
23.708	57.1523
23.726	57.1175
23.744	57.0796
23.762	57.0346
23.78	56.9852
23.798	56.9287
23.816	56.8616
23.834	56.7853
23.852	56.6991
23.87	56.6011
23.888	56.4912
23.906	56.3702
23.924	56.2382
23.942	56.0944
23.96	55.9396
23.978	55.7761
23.996	55.6046
24.014	55.4243
24.032	55.2374
24.05	55.0453
24.068	54.8464
24.086	54.6434
24.104	54.4385
24.122	54.2295
24.14	54.0195
24.158	53.8129
24.176	53.607
24.194	53.4041
24.212	53.2111
24.23	53.0283
24.248	52.8542
24.266	52.6944
24.284	52.5512
24.302	52.4214
24.32	52.3106
24.338	52.2241
24.356	52.158
24.374	52.1157
24.392	52.1028
24.41	52.117
24.428	52.1593
24.446	52.2362
24.464	52.3505
24.482	52.499
24.5	52.6845
24.518	52.9092
24.536	53.171
24.554	53.4717
24.572	53.814
24.59	54.1973
24.608	54.6213
24.626	55.0868
24.644	55.5946
24.662	56.1438
24.68	56.7342
24.698	57.3653
24.716	58.0386
24.734	58.7514
24.752	59.5005
24.77	60.2874
24.788	61.1117
24.806	61.9663
24.824	62.8468
24.842	63.7592
24.86	64.6951
24.878	65.6446
24.896	66.6142
24.914	67.6001
24.932	68.587
24.95	69.5687
24.968	70.5554
24.986	71.5309
25.004	72.4785
25.022	73.4095
25.04	74.3172
25.058	75.1811
25.076	75.9937
25.094	76.7673
25.112	77.4853
25.13	78.1306
25.148	78.7128
25.166	79.2283
25.184	79.6626
25.202	80.0087
25.22	80.2753
25.238	80.4563
25.256	80.545
25.274	80.5416
25.292	80.4492
25.31	80.2697
25.328	80.0024
25.346	79.6441
25.364	79.205
25.382	78.696
25.4	78.1107
25.418	77.4512
25.436	76.7354
25.454	75.9756
25.472	75.1564
25.49	74.2931
25.508	73.4068
25.526	72.5002
25.544	71.5638
25.562	70.6146
25.58	69.6687
25.598	68.7182
25.616	67.7646
25.634	66.8185
25.652	65.887
25.67	64.9638
25.688	64.0511
25.706	63.1524
25.724	62.2696
25.742	61.4009
25.76	60.5431
25.778	59.6939
25.796	58.8572
25.814	58.0297
25.832	57.2047
25.85	56.3781
25.868	55.5554
25.886	54.7318
25.904	53.9009
25.922	53.0605
25.94	52.2143
25.958	51.3599
25.976	50.4946
25.994	49.6167
26.012	48.7285
26.03	47.8335
26.048	46.9342
26.066	46.025
26.084	45.1112
26.102	44.2018
26.12	43.3013
26.138	42.4002
26.156	41.5088
26.174	40.6401
26.192	39.7972
26.21	38.9712
26.228	38.1727
26.246	37.413
26.264	36.6911
26.282	36.0022
26.3	35.355
26.318	34.7577
26.336	34.2092
26.354	33.7065
26.372	33.2513
26.39	32.8451
26.408	32.4895
26.426	32.1815
26.444	31.9171
26.462	31.6935
26.48	31.5167
26.498	31.381
26.516	31.2772
26.534	31.1993
26.552	31.1571
26.57	31.1424
26.588	31.1434
26.606	31.1534
26.624	31.1829
26.642	31.2237
26.66	31.2651
26.678	31.3017
26.696	31.3432
26.714	31.3816
26.732	31.4071
26.75	31.4153
26.768	31.4142
26.786	31.3979
26.804	31.3594
26.822	31.2958
26.84	31.2128
26.858	31.1062
26.876	30.971
26.894	30.8052
26.912	30.6131
26.93	30.3916
26.948	30.1368
26.966	29.8247
26.984	29.4253
27.002	29.0209
27.02	28.7003
27.028	28.6169