File: Bakgrunnsmateriale/MATLAB/FTIR/ftir_data/subCa/Mapping_25/BZ12041010-4_t08_cm-1.asc
PE IR       SPECTRUM    SPECTRUM    ASCII       PEDS        1.60
  -1
BZABF0~1.ASC
17/04/10
09:29:00.00
17/04/10
09:29:00.00
tln
$BZ12041010-4_t0008$<tbV0>[0.0,-9.8,9.0,0.0,22,1,0]
370
64

2002,4.07
MIRTGS : RIGHTBACK : INTERNAL 2
MIR : ON : INTERNAL 2
OPTKBR

0.200000
8
8.000000
FILLER
RATIO
SPECTRUM
UNLOCKED 256

DOUBLE
64
COMBINED
1
0
0

1.000000
RATIO

1
0
TRUE
51149
0
LEFT NOT FITTED RIGHT NOT FITTED 0
NONE
NONE
15600
12
4.427000
51148
TRUE
1 0 8 72 0 0 0 0

15798

#HDR
-1
-1
#GR
CM-1
%T
2.38419e-05
0.0
5000
-1.000000
4631
8
80.0706
-7.580685
#DATA
5000	64.3792
4996	64.7293
4992	64.8893
4988	64.7948
4984	64.6936
4980	64.6053
4976	64.7193
4972	64.9689
4968	64.8136
4964	64.2013
4960	64.0358
4956	64.5484
4952	64.8622
4948	64.6487
4944	64.3686
4940	64.5821
4936	65.0387
4932	64.9107
4928	64.483
4924	64.3871
4920	64.4814
4916	64.7533
4912	64.9163
4908	64.8228
4904	64.9159
4900	65.0508
4896	65.0465
4892	65.0536
4888	65.1481
4884	65.3464
4880	65.2754
4876	64.8669
4872	64.524
4868	64.3512
4864	64.3437
4860	64.2715
4856	64.297
4852	65.0938
4848	66.4306
4844	67.0662
4840	66.3301
4836	65.1539
4832	64.2745
4828	64.5251
4824	65.573
4820	65.6344
4816	65.6702
4812	65.1479
4808	63.5363
4804	63.6467
4800	64.9422
4796	65.427
4792	65.4496
4788	65.4669
4784	65.1543
4780	64.8744
4776	65.0997
4772	65.0301
4768	64.6655
4764	64.7482
4760	65.1041
4756	65.2648
4752	65.0205
4748	64.6706
4744	64.8163
4740	65.2468
4736	65.3435
4732	65.0006
4728	64.5123
4724	64.4788
4720	65.1972
4716	65.9299
4712	66.0606
4708	65.6899
4704	64.8313
4700	63.9424
4696	63.6927
4692	63.8665
4688	64.198
4684	64.4711
4680	64.2806
4676	64.1203
4672	64.5094
4668	64.9438
4664	65.0182
4660	64.93
4656	64.9083
4652	65.4126
4648	66.1589
4644	66.1326
4640	65.3589
4636	64.7079
4632	64.6676
4628	64.8356
4624	64.655
4620	64.3892
4616	64.5301
4612	64.7256
4608	64.572
4604	64.304
4600	64.2328
4596	64.2285
4592	64.2686
4588	64.4788
4584	64.6818
4580	64.8463
4576	65.0003
4572	65.0119
4568	64.7958
4564	64.7641
4560	64.986
4556	65.1359
4552	65.2217
4548	64.9217
4544	64.4423
4540	64.299
4536	64.3404
4532	64.4658
4528	64.5574
4524	64.5286
4520	64.5154
4516	64.7719
4512	65.0663
4508	65.2135
4504	65.2915
4500	64.9128
4496	62.8968
4492	59.6518
4488	58.4852
4484	59.4763
4480	60.3195
4476	62.9582
4472	67.1629
4468	73.5342
4464	79.6789
4460	75.1329
4456	66.5462
4452	64.3439
4448	64.5847
4444	64.8426
4440	64.8706
4436	64.2856
4432	64.1023
4428	64.4907
4424	64.8096
4420	64.8306
4416	64.9205
4412	65.1214
4408	64.7427
4404	64.1447
4400	64.2649
4396	64.5798
4392	64.578
4388	64.5458
4384	64.5367
4380	64.7053
4376	64.9502
4372	65.0063
4368	64.9188
4364	64.836
4360	64.8042
4356	64.731
4352	64.6022
4348	64.5915
4344	64.6717
4340	64.6182
4336	64.6788
4332	64.8533
4328	64.7891
4324	64.7096
4320	64.7653
4316	64.7861
4312	64.7109
4308	64.5811
4304	64.621
4300	64.8403
4296	64.8925
4292	64.7025
4288	64.5757
4284	64.6521
4280	64.731
4276	64.7628
4272	64.8284
4268	64.8614
4264	64.9266
4260	64.9621
4256	64.9102
4252	64.9931
4248	65.1218
4244	65.1649
4240	65.2751
4236	65.3042
4232	65.0906
4228	64.8597
4224	64.8003
4220	64.9063
4216	64.9761
4212	65.0229
4208	65.1147
4204	65.1415
4200	65.1796
4196	65.1842
4192	65.0931
4188	65.0612
4184	65.1852
4180	65.3549
4176	65.4213
4172	65.2988
4168	65.0661
4164	65.0431
4160	65.1827
4156	65.1468
4152	65.0674
4148	65.0433
4144	64.9726
4140	65.0762
4136	65.3234
4132	65.3588
4128	65.2217
4124	65.089
4120	65.1104
4116	65.2676
4112	65.3227
4108	65.3104
4104	65.3018
4100	65.3527
4096	65.4883
4092	65.4518
4088	65.1843
4084	65.0926
4080	65.2532
4076	65.3005
4072	65.2086
4068	65.112
4064	65.0103
4060	64.9348
4056	64.9285
4052	65.0086
4048	65.1312
4044	65.0505
4040	64.8891
4036	64.9668
4032	65.0312
4028	64.9969
4024	65.1073
4020	65.299
4016	65.3852
4012	65.3231
4008	65.0939
4004	64.8589
4000	64.9039
3996	65.0904
3992	65.1722
3988	65.2101
3984	65.2073
3980	65.1216
3976	65.0877
3972	65.122
3968	65.0829
3964	65.0318
3960	65.1138
3956	65.2441
3952	65.3022
3948	65.3008
3944	65.2084
3940	65.062
3936	65.0188
3932	65.136
3928	65.2804
3924	65.3241
3920	65.2935
3916	65.1918
3912	65.046
3908	65.0236
3904	65.2079
3900	65.3993
3896	65.3895
3892	65.2751
3888	65.2218
3884	65.2284
3880	65.2681
3876	65.2643
3872	65.2351
3868	65.2593
3864	65.1926
3860	65.1842
3856	65.4417
3852	65.5716
3848	65.4247
3844	65.3496
3840	65.3677
3836	65.2786
3832	65.1108
3828	65.0755
3824	65.1979
3820	65.239
3816	65.1336
3812	65.1005
3808	65.2445
3804	65.4192
3800	65.4421
3796	65.276
3792	65.0847
3788	65.0624
3784	65.1537
3780	65.2101
3776	65.2234
3772	65.1812
3768	65.1217
3764	65.2257
3760	65.4222
3756	65.5426
3752	65.6393
3748	65.6585
3744	65.5505
3740	65.4968
3736	65.551
3732	65.5588
3728	65.4574
3724	65.2694
3720	65.1539
3716	65.2212
3712	65.2896
3708	65.2308
3704	65.1866
3700	65.2154
3696	65.2543
3692	65.3054
3688	65.2424
3684	65.1582
3680	65.2831
3676	65.5056
3672	65.6034
3668	65.5014
3664	65.3827
3660	65.4047
3656	65.3929
3652	65.2875
3648	65.2275
3644	65.2177
3640	65.2399
3636	65.317
3632	65.4419
3628	65.4589
3624	65.3669
3620	65.3639
3616	65.4253
3612	65.4611
3608	65.4099
3604	65.3245
3600	65.3007
3596	65.2883
3592	65.2057
3588	65.1241
3584	65.1746
3580	65.2753
3576	65.3155
3572	65.29
3568	65.3118
3564	65.4185
3560	65.4852
3556	65.5355
3552	65.5268
3548	65.3471
3544	65.1246
3540	65.0389
3536	65.1344
3532	65.2276
3528	65.1271
3524	64.9655
3520	64.9625
3516	65.1049
3512	65.1975
3508	65.1996
3504	65.2236
3500	65.2869
3496	65.3458
3492	65.3904
3488	65.3244
3484	65.1289
3480	65.0551
3476	65.1011
3472	65.0779
3468	65.1289
3464	65.3014
3460	65.3278
3456	65.1993
3452	65.107
3448	65.0972
3444	65.1479
3440	65.2129
3436	65.2435
3432	65.2184
3428	65.1818
3424	65.1669
3420	65.1258
3416	65.1247
3412	65.224
3408	65.3027
3404	65.2824
3400	65.1959
3396	65.1684
3392	65.2223
3388	65.271
3384	65.3193
3380	65.343
3376	65.2878
3372	65.1829
3368	65.1239
3364	65.1536
3360	65.2133
3356	65.2286
3352	65.1867
3348	65.1701
3344	65.221
3340	65.2585
3336	65.2519
3332	65.2816
3328	65.2685
3324	65.2246
3320	65.2798
3316	65.2825
3312	65.1815
3308	65.1196
3304	65.1162
3300	65.1396
3296	65.1611
3292	65.2013
3288	65.3288
3284	65.4276
3280	65.318
3276	65.1354
3272	65.1204
3268	65.2427
3264	65.378
3260	65.4226
3256	65.2757
3252	65.1153
3248	65.1604
3244	65.2507
3240	65.25
3236	65.2422
3232	65.2036
3228	65.1337
3224	65.1273
3220	65.1584
3216	65.2281
3212	65.3352
3208	65.3354
3204	65.2097
3200	65.1745
3196	65.2575
3192	65.2281
3188	65.1046
3184	65.0819
3180	65.1283
3176	65.1259
3172	65.1644
3168	65.241
3164	65.1998
3160	65.1567
3156	65.2183
3152	65.2576
3148	65.22
3144	65.1719
3140	65.1468
3136	65.0816
3132	65.0128
3128	65.044
3124	65.1233
3120	65.1609
3116	65.1517
3112	65.1604
3108	65.1892
3104	65.1525
3100	65.133
3096	65.1692
3092	65.1954
3088	65.2125
3084	65.1999
3080	65.1397
3076	65.0827
3072	65.0565
3068	65.0201
3064	65.0386
3060	65.1394
3056	65.2184
3052	65.2848
3048	65.3096
3044	65.258
3040	65.2345
3036	65.2409
3032	65.2534
3028	65.2443
3024	65.1697
3020	65.1067
3016	65.072
3012	65.0691
3008	65.1161
3004	65.1163
3000	65.0687
2996	65.0555
2992	65.0998
2988	65.1548
2984	65.172
2980	65.1892
2976	65.1882
2972	65.1239
2968	65.0882
2964	65.1458
2960	65.214
2956	65.2209
2952	65.1166
2948	65.0121
2944	65.0831
2940	65.1833
2936	65.1779
2932	65.1493
2928	65.1525
2924	65.1568
2920	65.1363
2916	65.137
2912	65.1466
2908	65.154
2904	65.1896
2900	65.2229
2896	65.1924
2892	65.1383
2888	65.1513
2884	65.1856
2880	65.2218
2876	65.2867
2872	65.2596
2868	65.1525
2864	65.1006
2860	65.0933
2856	65.119
2852	65.1748
2848	65.2141
2844	65.2041
2840	65.1742
2836	65.1782
2832	65.1872
2828	65.1518
2824	65.087
2820	65.0963
2816	65.1984
2812	65.2721
2808	65.3026
2804	65.3301
2800	65.3139
2796	65.2467
2792	65.1943
2788	65.1793
2784	65.1764
2780	65.1805
2776	65.2131
2772	65.2623
2768	65.2521
2764	65.2036
2760	65.1678
2756	65.1304
2752	65.1843
2748	65.3046
2744	65.3462
2740	65.3404
2736	65.3387
2732	65.2949
2728	65.1998
2724	65.1614
2720	65.2302
2716	65.2817
2712	65.2332
2708	65.1622
2704	65.1836
2700	65.2719
2696	65.3298
2692	65.3371
2688	65.2802
2684	65.1735
2680	65.1231
2676	65.1802
2672	65.2429
2668	65.2578
2664	65.2735
2660	65.259
2656	65.2169
2652	65.2544
2648	65.3239
2644	65.2841
2640	65.218
2636	65.2314
2632	65.225
2628	65.1418
2624	65.1163
2620	65.2167
2616	65.318
2612	65.3277
2608	65.2978
2604	65.2915
2600	65.2779
2596	65.2366
2592	65.1851
2588	65.1655
2584	65.2007
2580	65.2585
2576	65.2908
2572	65.2607
2568	65.2367
2564	65.2857
2560	65.3169
2556	65.2567
2552	65.2341
2548	65.2805
2544	65.2399
2540	65.1613
2536	65.1563
2532	65.1701
2528	65.1942
2524	65.2133
2520	65.1917
2516	65.1767
2512	65.2113
2508	65.2652
2504	65.2659
2500	65.2546
2496	65.2809
2492	65.2721
2488	65.2247
2484	65.1809
2480	65.1689
2476	65.2123
2472	65.2672
2468	65.2363
2464	65.1651
2460	65.1996
2456	65.2592
2452	65.2431
2448	65.2184
2444	65.2211
2440	65.2226
2436	65.1804
2432	65.147
2428	65.1772
2424	65.2265
2420	65.2476
2416	65.2181
2412	65.1885
2408	65.1898
2404	65.2083
2400	65.2286
2396	65.2238
2392	65.2248
2388	65.256
2384	65.288
2380	65.297
2376	65.2689
2372	65.2199
2368	65.194
2364	65.2093
2360	65.2539
2356	65.2876
2352	65.2544
2348	65.2126
2344	65.2458
2340	65.3027
2336	65.2989
2332	65.2183
2328	65.1844
2324	65.2191
2320	65.2056
2316	65.2244
2312	65.3031
2308	65.3196
2304	65.2876
2300	65.2315
2296	65.1685
2292	65.1453
2288	65.1525
2284	65.2042
2280	65.3106
2276	65.3606
2272	65.2713
2268	65.1609
2264	65.1295
2260	65.1888
2256	65.2834
2252	65.286
2248	65.2239
2244	65.1771
2240	65.1609
2236	65.2026
2232	65.2588
2228	65.2787
2224	65.2977
2220	65.3214
2216	65.31
2212	65.2743
2208	65.2381
2204	65.1944
2200	65.1695
2196	65.1954
2192	65.2157
2188	65.1962
2184	65.1826
2180	65.1992
2176	65.2255
2172	65.221
2168	65.2024
2164	65.2555
2160	65.3359
2156	65.317
2152	65.2823
2148	65.2725
2144	65.2265
2140	65.2164
2136	65.2542
2132	65.2558
2128	65.2203
2124	65.2164
2120	65.2314
2116	65.1867
2112	65.0867
2108	65.0536
2104	65.1498
2100	65.2611
2096	65.2967
2092	65.2698
2088	65.2151
2084	65.1934
2080	65.2338
2076	65.28
2072	65.2875
2068	65.2967
2064	65.3126
2060	65.2912
2056	65.2353
2052	65.2016
2048	65.2405
2044	65.284
2040	65.2761
2036	65.2599
2032	65.2675
2028	65.2909
2024	65.2778
2020	65.2323
2016	65.2116
2012	65.2096
2008	65.2167
2004	65.2579
2000	65.3018
1996	65.2778
1992	65.2118
1988	65.1655
1984	65.1547
1980	65.1821
1976	65.2174
1972	65.259
1968	65.302
1964	65.3022
1960	65.2851
1956	65.2639
1952	65.2074
1948	65.1762
1944	65.2016
1940	65.2059
1936	65.2016
1932	65.2364
1928	65.2643
1924	65.2595
1920	65.2127
1916	65.1731
1912	65.1938
1908	65.2215
1904	65.2261
1900	65.2346
1896	65.2539
1892	65.2666
1888	65.2471
1884	65.2494
1880	65.3151
1876	65.3435
1872	65.2947
1868	65.2383
1864	65.217
1860	65.2335
1856	65.2496
1852	65.2726
1848	65.3089
1844	65.288
1840	65.2154
1836	65.2033
1832	65.2552
1828	65.262
1824	65.2326
1820	65.216
1816	65.2022
1812	65.2203
1808	65.2742
1804	65.292
1800	65.2186
1796	65.1376
1792	65.1814
1788	65.2621
1784	65.2678
1780	65.2916
1776	65.3786
1772	65.4323
1768	65.384
1764	65.2977
1760	65.237
1756	65.1654
1752	65.1276
1748	65.1667
1744	65.217
1740	65.3011
1736	65.3849
1732	65.2816
1728	65.0982
1724	65.1327
1720	65.3883
1716	65.5007
1712	65.3281
1708	65.2244
1704	65.3148
1700	65.4729
1696	65.5115
1692	65.4099
1688	65.4743
1684	65.5686
1680	65.4743
1676	65.4526
1672	65.4969
1668	65.4303
1664	65.306
1660	65.2281
1656	65.3093
1652	65.4366
1648	65.3974
1644	65.3001
1640	65.2875
1636	65.2984
1632	65.2796
1628	65.2597
1624	65.2702
1620	65.3743
1616	65.4361
1612	65.3134
1608	65.231
1604	65.2364
1600	65.1868
1596	65.1116
1592	65.0722
1588	65.113
1584	65.1988
1580	65.2664
1576	65.2888
1572	65.2826
1568	65.2689
1564	65.3231
1560	65.5161
1556	65.5852
1552	65.4574
1548	65.4523
1544	65.5964
1540	65.604
1536	65.4175
1532	65.2709
1528	65.3125
1524	65.49
1520	65.5545
1516	65.4558
1512	65.4783
1508	65.5437
1504	65.3921
1500	65.239
1496	65.2662
1492	65.3048
1488	65.3093
1484	65.2913
1480	65.2702
1476	65.3177
1472	65.3646
1468	65.3726
1464	65.3768
1460	65.3523
1456	65.2422
1452	65.136
1448	65.1252
1444	65.1329
1440	65.1657
1436	65.2246
1432	65.2715
1428	65.3035
1424	65.2872
1420	65.245
1416	65.2255
1412	65.2288
1408	65.2084
1404	65.1409
1400	65.125
1396	65.1777
1392	65.1618
1388	65.0895
1384	65.0847
1380	65.1659
1376	65.2478
1372	65.2459
1368	65.2357
1364	65.2671
1360	65.226
1356	65.1585
1352	65.1688
1348	65.2004
1344	65.1786
1340	65.1228
1336	65.0795
1332	65.0608
1328	65.0718
1324	65.1193
1320	65.1675
1316	65.1622
1312	65.1257
1308	65.1048
1304	65.1283
1300	65.1793
1296	65.1986
1292	65.1702
1288	65.1061
1284	65.0531
1280	65.0319
1276	65.0319
1272	65.0466
1268	65.0323
1264	65.0031
1260	65.004
1256	65.0047
1252	65.0106
1248	65.0609
1244	65.0869
1240	65.0634
1236	65.084
1232	65.1057
1228	65.0886
1224	65.1098
1220	65.1076
1216	65.0803
1212	65.1186
1208	65.1809
1204	65.1955
1200	65.1161
1196	65.018
1192	64.9712
1188	64.9484
1184	64.9598
1180	65.0232
1176	65.0954
1172	65.107
1168	65.0705
1164	65.0547
1160	65.0768
1156	65.0806
1152	65.0354
1148	64.9791
1144	64.8983
1140	64.8082
1136	64.8586
1132	65.0232
1128	65.1261
1124	65.1551
1120	65.1479
1116	65.1651
1112	65.1833
1108	65.1045
1104	65.0288
1100	65.0041
1096	64.9884
1092	65.0041
1088	65.0526
1084	65.1259
1080	65.1241
1076	65.035
1072	65.0068
1068	65.0744
1064	65.1614
1060	65.1863
1056	65.1754
1052	65.1685
1048	65.1111
1044	65.0261
1040	64.9975
1036	64.9997
1032	65.0034
1028	65.1125
1024	65.2419
1020	65.1533
1016	65.0002
1012	65.0593
1008	65.2121
1004	65.2446
1000	65.2207
996	 65.1843
992	 65.1086
988	 65.0907
984	 65.0808
980	 64.992
976	 64.9709
972	 65.1039
968	 65.2305
964	 65.24
960	 65.1929
956	 65.1177
952	 65.0501
948	 65.0264
944	 65.0002
940	 65.0552
936	 65.2344
932	 65.3486
928	 65.2615
924	 65.0926
920	 65.0266
916	 65.0636
912	 65.1089
908	 65.1159
904	 65.1237
900	 65.1857
896	 65.2672
892	 65.3143
888	 65.2966
884	 65.2109
880	 65.1721
876	 65.2634
872	 65.4143
868	 65.4553
864	 65.3129
860	 65.2032
856	 65.2673
852	 65.3785
848	 65.4456
844	 65.4489
840	 65.3682
836	 65.2878
832	 65.3091
828	 65.3964
824	 65.4163
820	 65.3979
816	 65.47
812	 65.4649
808	 65.2751
804	 65.1334
800	 65.1274
796	 65.133
792	 65.1973
788	 65.2968
784	 65.3382
780	 65.4036
776	 65.4584
772	 65.4289
768	 65.3337
764	 65.2537
760	 65.2748
756	 65.3398
752	 65.3373
748	 65.2828
744	 65.2211
740	 65.1614
736	 65.1545
732	 65.172
728	 65.1301
724	 65.1226
720	 65.2879
716	 65.4412
712	 65.4476
708	 65.4981
704	 65.484
700	 65.2847
696	 65.1956
692	 65.2353
688	 65.1829
684	 65.1726
680	 65.314
676	 65.42
672	 65.4997
668	 65.5499
664	 65.5014
660	 65.4859
656	 65.5323
652	 65.5615
648	 65.5063
644	 65.3975
640	 65.2628
636	 65.0731
632	 64.9256
628	 64.9116
624	 65.1729
620	 65.6723
616	 65.9078
612	 65.7156
608	 65.4265
604	 65.2293
600	 65.2249
596	 65.4289
592	 65.5845
588	 65.5605
584	 65.4739
580	 65.3473
576	 65.4025
572	 65.7503
568	 65.9625
564	 65.8967
560	 65.9095
556	 66.0581
552	 66.0278
548	 65.8959
544	 66.014
540	 66.262
536	 66.1578
532	 65.7597
528	 65.7869
524	 66.0899
520	 65.9898
516	 65.8034
512	 65.8927
508	 66.0178
504	 66.174
500	 66.4568
496	 66.3843
492	 66.2297
488	 66.2
484	 66.0432
480	 65.8751
476	 65.455
472	 64.9343
468	 64.7946
464	 65.0847
460	 65.394
456	 65.5702
452	 65.6269
448	 65.7091
444	 66.1714
440	 66.6574
436	 67.0308
432	 67.2693
428	 66.557
424	 64.9426
420	 64.3455
416	 64.8087
412	 65.0246
408	 64.8755
404	 63.9148
400	 62.2971
396	 59.1034
392	 62.0596
388	 76.7928
384	 75.6697
380	 54.9782
376	 45.2506
372	 20.7754
370	 -7.580685