File: Bakgrunnsmateriale/MATLAB/FTIR/ftir_data/subCa/Mapping_25/BZ12041010-4_t10_cm-1.asc
PE IR       SPECTRUM    SPECTRUM    ASCII       PEDS        1.60
  -1
BZ2CF4~1.ASC
17/04/10
09:38:13.00
17/04/10
09:38:13.00
tln
$BZ12041010-4_t0010$<tbV0>[-5.2,-9.8,9.0,0.0,22,1,0]
370
64

2002,4.07
MIRTGS : RIGHTBACK : INTERNAL 2
MIR : ON : INTERNAL 2
OPTKBR

0.200000
8
8.000000
FILLER
RATIO
SPECTRUM
UNLOCKED 256

DOUBLE
64
COMBINED
1
0
0

1.000000
RATIO

1
0
TRUE
51149
0
LEFT NOT FITTED RIGHT NOT FITTED 0
NONE
NONE
15600
12
4.427000
51148
TRUE
1 0 8 72 0 0 0 0

15798

#HDR
-1
-1
#GR
CM-1
%T
2.38419e-05
0.0
5000
-1.000000
4631
8
84.9677
12.7582
#DATA
5000	64.7877
4996	64.6141
4992	64.6263
4988	64.6788
4984	64.6894
4980	64.8744
4976	65.1003
4972	65.062
4968	64.8411
4964	64.8581
4960	65.1939
4956	65.3484
4952	65.198
4948	64.9583
4944	64.7918
4940	64.8244
4936	65.0103
4932	65.2094
4928	65.2282
4924	65.1738
4920	65.0717
4916	65.1686
4912	65.6542
4908	65.7916
4904	65.263
4900	64.7421
4896	64.701
4892	64.6904
4888	64.4757
4884	64.5733
4880	65.025
4876	65.3278
4872	64.865
4868	63.9653
4864	63.9296
4860	64.4426
4856	64.4886
4852	64.7495
4848	65.6295
4844	66.1023
4840	65.5928
4836	65.0682
4832	64.7063
4828	63.9519
4824	64.3586
4820	66.0549
4816	66.8072
4812	65.9592
4808	64.7503
4804	64.7682
4800	65.3455
4796	64.9244
4792	64.4099
4788	64.5803
4784	64.8226
4780	64.7262
4776	64.562
4772	64.7057
4768	64.8771
4764	65.0187
4760	65.3274
4756	65.5881
4752	65.3993
4748	64.96
4744	64.9669
4740	65.4057
4736	65.4613
4732	64.9538
4728	64.5789
4724	64.7615
4720	65.3188
4716	65.8018
4712	65.8204
4708	65.3643
4704	64.5609
4700	63.7716
4696	63.6832
4692	64.0227
4688	64.3957
4684	64.7832
4680	64.7585
4676	64.63
4672	64.8875
4668	65.1212
4664	65.0763
4660	64.8861
4656	64.8126
4652	65.2816
4648	65.8815
4644	65.9384
4640	65.6004
4636	65.3834
4632	65.4936
4628	65.4124
4624	64.95
4620	64.775
4616	64.9808
4612	65.0327
4608	64.974
4604	64.9655
4600	64.9026
4596	64.7341
4592	64.5794
4588	64.5769
4584	64.7832
4580	65.0539
4576	65.3297
4572	65.5469
4568	65.4013
4564	65.2746
4560	65.4143
4556	65.3715
4552	65.1052
4548	64.9219
4544	65.1036
4540	65.4342
4536	65.4608
4532	65.1457
4528	64.827
4524	64.8773
4520	65.1292
4516	65.5871
4512	66.0753
4508	66.134
4504	65.8854
4500	65.7539
4496	63.7533
4492	60.3891
4488	59.6741
4484	60.182
4480	59.875
4476	62.7716
4472	65.6332
4468	63.4942
4464	65.6338
4460	67.7433
4456	62.915
4452	62.1221
4448	64.9806
4444	65.4466
4440	64.9091
4436	64.7862
4432	65.3333
4428	65.3909
4424	65.1642
4420	65.28
4416	65.5992
4412	65.9825
4408	66.0831
4404	66.0064
4400	65.9156
4396	65.6739
4392	65.4597
4388	65.4083
4384	65.3481
4380	65.2736
4376	65.356
4372	65.4965
4368	65.3908
4364	65.0921
4360	64.9621
4356	65.12
4352	65.3013
4348	65.3422
4344	65.413
4340	65.5097
4336	65.5009
4332	65.5438
4328	65.4731
4324	65.1505
4320	65.0128
4316	65.1747
4312	65.3476
4308	65.3255
4304	65.3095
4300	65.4721
4296	65.556
4292	65.3464
4288	64.9716
4284	64.8431
4280	65.0205
4276	65.1567
4272	65.1088
4268	64.9894
4264	64.9832
4260	65.1536
4256	65.359
4252	65.4367
4248	65.3317
4244	65.2941
4240	65.4246
4236	65.3208
4232	64.981
4228	64.865
4224	64.9553
4220	65.0879
4216	65.1718
4212	65.0902
4208	64.9013
4204	64.7414
4200	64.7814
4196	64.7752
4192	64.7324
4188	64.9789
4184	65.2879
4180	65.3563
4176	65.2224
4172	65.1291
4168	65.1195
4164	65.0958
4160	65.0621
4156	65.047
4152	65.0285
4148	64.9502
4144	64.9856
4140	65.1136
4136	65.0988
4132	65.072
4128	65.1213
4124	65.1268
4120	65.073
4116	65.0561
4112	65.0975
4108	65.1079
4104	65.2122
4100	65.4438
4096	65.5995
4092	65.4831
4088	65.1576
4084	65.0027
4080	65.0084
4076	64.9703
4072	64.978
4068	65.1982
4064	65.5422
4060	65.6387
4056	65.4168
4052	65.2246
4048	65.3084
4044	65.4122
4040	65.3213
4036	65.2075
4032	65.1463
4028	65.119
4024	65.1872
4020	65.3063
4016	65.3973
4012	65.4006
4008	65.2219
4004	65.0881
4000	65.1965
3996	65.3148
3992	65.2809
3988	65.1506
3984	65.0715
3980	65.1566
3976	65.3158
3972	65.4423
3968	65.4589
3964	65.3089
3960	65.1587
3956	65.1307
3952	65.1805
3948	65.273
3944	65.2704
3940	65.1387
3936	65.0401
3932	65.0882
3928	65.2363
3924	65.3132
3920	65.2439
3916	65.1126
3912	65.0769
3908	65.2206
3904	65.4515
3900	65.5586
3896	65.4807
3892	65.3841
3888	65.385
3884	65.4412
3880	65.4966
3876	65.5135
3872	65.4202
3868	65.238
3864	65.135
3860	65.2269
3856	65.4221
3852	65.4438
3848	65.32
3844	65.3552
3840	65.5138
3836	65.5723
3832	65.4724
3828	65.3513
3824	65.3724
3820	65.4295
3816	65.3691
3812	65.3445
3808	65.4629
3804	65.5575
3800	65.4656
3796	65.352
3792	65.3795
3788	65.4529
3784	65.4897
3780	65.4593
3776	65.3702
3772	65.2892
3768	65.2351
3764	65.2302
3760	65.2633
3756	65.3263
3752	65.4601
3748	65.5522
3744	65.5633
3740	65.6125
3736	65.6576
3732	65.5795
3728	65.4316
3724	65.3157
3720	65.2625
3716	65.2671
3712	65.295
3708	65.2602
3704	65.1497
3700	65.11
3696	65.2294
3692	65.4152
3688	65.4968
3684	65.4308
3680	65.3352
3676	65.3321
3672	65.4401
3668	65.4484
3664	65.2997
3660	65.3002
3656	65.3786
3652	65.3387
3648	65.3056
3644	65.2878
3640	65.2699
3636	65.3585
3632	65.5049
3628	65.4994
3624	65.4229
3620	65.4049
3616	65.427
3612	65.5003
3608	65.4808
3604	65.3777
3600	65.3275
3596	65.2983
3592	65.2851
3588	65.3558
3584	65.467
3580	65.4916
3576	65.3972
3572	65.3117
3568	65.3688
3564	65.4435
3560	65.4598
3556	65.5116
3552	65.5273
3548	65.453
3544	65.3911
3540	65.3216
3536	65.2684
3532	65.3209
3528	65.3966
3524	65.4391
3520	65.403
3516	65.3024
3512	65.1789
3508	65.0802
3504	65.1391
3500	65.2603
3496	65.2975
3492	65.3498
3488	65.4012
3484	65.3183
3480	65.1901
3476	65.1606
3472	65.2061
3468	65.2484
3464	65.2842
3460	65.3121
3456	65.3188
3452	65.3595
3448	65.3931
3444	65.3329
3440	65.2769
3436	65.28
3432	65.2944
3428	65.3323
3424	65.3527
3420	65.3256
3416	65.2943
3412	65.3222
3408	65.378
3404	65.379
3400	65.4064
3396	65.4646
3392	65.4114
3388	65.314
3384	65.3368
3380	65.4044
3376	65.3799
3372	65.3157
3368	65.3313
3364	65.356
3360	65.2928
3356	65.2463
3352	65.2303
3348	65.2105
3344	65.2825
3340	65.3538
3336	65.3349
3332	65.3777
3328	65.3773
3324	65.2947
3320	65.3034
3316	65.3167
3312	65.2652
3308	65.1897
3304	65.1645
3300	65.1791
3296	65.1624
3292	65.1957
3288	65.285
3284	65.3614
3280	65.3727
3276	65.3245
3272	65.327
3268	65.3648
3264	65.4123
3260	65.4806
3256	65.4368
3252	65.3244
3248	65.2986
3244	65.3155
3240	65.3616
3236	65.3965
3232	65.3234
3228	65.2357
3224	65.2527
3220	65.3234
3216	65.3879
3212	65.4239
3208	65.4277
3204	65.4084
3200	65.3486
3196	65.3264
3192	65.2908
3188	65.1608
3184	65.0992
3180	65.1574
3176	65.2099
3172	65.2056
3168	65.1953
3164	65.1992
3160	65.2053
3156	65.2386
3152	65.2837
3148	65.3348
3144	65.3707
3140	65.3711
3136	65.3499
3132	65.2748
3128	65.1728
3124	65.1038
3120	65.1149
3116	65.2534
3112	65.3882
3108	65.3756
3104	65.2924
3100	65.2516
3096	65.2527
3092	65.2568
3088	65.2514
3084	65.2691
3080	65.2428
3076	65.1361
3072	65.1021
3068	65.1564
3064	65.2178
3060	65.3087
3056	65.3464
3052	65.2931
3048	65.2695
3044	65.267
3040	65.2643
3036	65.3039
3032	65.3398
3028	65.3054
3024	65.2628
3020	65.2622
3016	65.1852
3012	65.0965
3008	65.1093
3004	65.1287
3000	65.1544
2996	65.199
2992	65.1793
2988	65.1427
2984	65.1768
2980	65.2085
2976	65.2002
2972	65.1588
2968	65.1225
2964	65.171
2960	65.2292
2956	65.2179
2952	65.1756
2948	65.2155
2944	65.3079
2940	65.2547
2936	65.1214
2932	65.0792
2928	65.0934
2924	65.1354
2920	65.2225
2916	65.3079
2912	65.3004
2908	65.25
2904	65.2564
2900	65.2528
2896	65.2166
2892	65.2051
2888	65.2342
2884	65.2845
2880	65.2987
2876	65.2641
2872	65.16
2868	65.0702
2864	65.1435
2860	65.2339
2856	65.235
2852	65.2572
2848	65.3167
2844	65.3394
2840	65.2821
2836	65.2379
2832	65.2654
2828	65.2618
2824	65.1843
2820	65.147
2816	65.2327
2812	65.357
2808	65.376
2804	65.3363
2800	65.3405
2796	65.3453
2792	65.3574
2788	65.4313
2784	65.4896
2780	65.4475
2776	65.3637
2772	65.3055
2768	65.2937
2764	65.3341
2760	65.3502
2756	65.3248
2752	65.3611
2748	65.4046
2744	65.399
2740	65.4264
2736	65.4636
2732	65.4522
2728	65.4096
2724	65.365
2720	65.3433
2716	65.3298
2712	65.2845
2708	65.2632
2704	65.3351
2700	65.3725
2696	65.2825
2692	65.2263
2688	65.2572
2684	65.2545
2680	65.2121
2676	65.2193
2672	65.2702
2668	65.3232
2664	65.3751
2660	65.3802
2656	65.352
2652	65.3355
2648	65.3185
2644	65.2698
2640	65.234
2636	65.2905
2632	65.3331
2628	65.2693
2624	65.222
2620	65.2753
2616	65.3298
2612	65.2929
2608	65.2721
2604	65.3097
2600	65.2742
2596	65.2305
2592	65.2677
2588	65.3046
2584	65.3152
2580	65.3159
2576	65.2761
2572	65.2304
2568	65.2449
2564	65.2764
2560	65.2866
2556	65.2869
2552	65.2875
2548	65.2766
2544	65.2748
2540	65.3147
2536	65.3473
2532	65.3647
2528	65.366
2524	65.3052
2520	65.2652
2516	65.3117
2512	65.3443
2508	65.3147
2504	65.2827
2500	65.32
2496	65.4228
2492	65.4467
2488	65.3613
2484	65.2873
2480	65.2639
2476	65.3022
2472	65.3311
2468	65.2699
2464	65.2407
2460	65.3311
2456	65.4046
2452	65.3449
2448	65.2661
2444	65.28
2440	65.3335
2436	65.3637
2432	65.3618
2428	65.3979
2424	65.4483
2420	65.4264
2416	65.3725
2412	65.3198
2408	65.2499
2404	65.1597
2400	65.1313
2396	65.1765
2392	65.2072
2388	65.2319
2384	65.2786
2380	65.3492
2376	65.3836
2372	65.363
2368	65.3492
2364	65.303
2360	65.279
2356	65.3433
2352	65.3602
2348	65.2819
2344	65.2524
2340	65.338
2336	65.3831
2332	65.3518
2328	65.3654
2324	65.405
2320	65.4319
2316	65.4382
2312	65.416
2308	65.4037
2304	65.4203
2300	65.4441
2296	65.4315
2292	65.4029
2288	65.425
2284	65.4429
2280	65.4339
2276	65.4423
2272	65.4258
2268	65.4073
2264	65.4302
2260	65.4414
2256	65.4112
2252	65.3554
2248	65.3256
2244	65.3507
2240	65.3993
2236	65.4093
2232	65.3604
2228	65.3397
2224	65.3967
2220	65.4859
2216	65.5165
2212	65.4305
2208	65.3432
2204	65.3709
2200	65.4022
2196	65.3661
2192	65.3387
2188	65.3489
2184	65.3445
2180	65.3314
2176	65.3525
2172	65.3552
2168	65.3451
2164	65.3344
2160	65.3204
2156	65.3361
2152	65.3652
2148	65.3694
2144	65.3446
2140	65.3345
2136	65.3413
2132	65.3429
2128	65.3495
2124	65.3624
2120	65.3829
2116	65.4004
2112	65.3677
2108	65.311
2104	65.3167
2100	65.3636
2096	65.3798
2092	65.3935
2088	65.4373
2084	65.466
2080	65.4659
2076	65.45
2072	65.4201
2068	65.3821
2064	65.3579
2060	65.3504
2056	65.3309
2052	65.3246
2048	65.3317
2044	65.3154
2040	65.3385
2036	65.4143
2032	65.4373
2028	65.4181
2024	65.404
2020	65.3702
2016	65.3271
2012	65.2985
2008	65.2854
2004	65.2819
2000	65.3045
1996	65.3274
1992	65.339
1988	65.3709
1984	65.3843
1980	65.3677
1976	65.3476
1972	65.3474
1968	65.363
1964	65.3662
1960	65.3858
1956	65.4241
1952	65.393
1948	65.3335
1944	65.3128
1940	65.2958
1936	65.3224
1932	65.3869
1928	65.4171
1924	65.4136
1920	65.3426
1916	65.2485
1912	65.2784
1908	65.3584
1904	65.3661
1900	65.3624
1896	65.3793
1892	65.3804
1888	65.3401
1884	65.2992
1880	65.2949
1876	65.3061
1872	65.3321
1868	65.3743
1864	65.4039
1860	65.4154
1856	65.4173
1852	65.4232
1848	65.4599
1844	65.4456
1840	65.3563
1836	65.3244
1832	65.3406
1828	65.3363
1824	65.3415
1820	65.3452
1816	65.3267
1812	65.3476
1808	65.4153
1804	65.4387
1800	65.387
1796	65.3741
1792	65.4496
1788	65.4824
1784	65.4298
1780	65.379
1776	65.4145
1772	65.4623
1768	65.4363
1764	65.4107
1760	65.4121
1756	65.4242
1752	65.3928
1748	65.2634
1744	65.1713
1740	65.2158
1736	65.3298
1732	65.3245
1728	65.1908
1724	65.2007
1720	65.3623
1716	65.4376
1712	65.3597
1708	65.2854
1704	65.3433
1700	65.4632
1696	65.4761
1692	65.4026
1688	65.4401
1684	65.5222
1680	65.4902
1676	65.4675
1672	65.4667
1668	65.3994
1664	65.3454
1660	65.383
1656	65.5711
1652	65.7503
1648	65.7164
1644	65.553
1640	65.4687
1636	65.4913
1632	65.4345
1628	65.3573
1624	65.3503
1620	65.3794
1616	65.3982
1612	65.3603
1608	65.3387
1604	65.3233
1600	65.2833
1596	65.2512
1592	65.2266
1588	65.2212
1584	65.2509
1580	65.3306
1576	65.4255
1572	65.4622
1568	65.473
1564	65.6437
1560	65.887
1556	65.7975
1552	65.5108
1548	65.4345
1544	65.5714
1540	65.6728
1536	65.604
1532	65.5024
1528	65.5354
1524	65.6579
1520	65.6399
1516	65.4917
1512	65.5048
1508	65.6167
1504	65.5169
1500	65.4194
1496	65.512
1492	65.5508
1488	65.4809
1484	65.4006
1480	65.4179
1476	65.489
1472	65.479
1468	65.4453
1464	65.4684
1460	65.5318
1456	65.4894
1452	65.3127
1448	65.2206
1444	65.2669
1440	65.3619
1436	65.3984
1432	65.352
1428	65.3286
1424	65.3734
1420	65.414
1416	65.3736
1412	65.345
1408	65.3425
1404	65.3111
1400	65.3369
1396	65.3616
1392	65.2974
1388	65.2648
1384	65.3127
1380	65.3411
1376	65.3123
1372	65.2532
1368	65.2264
1364	65.2538
1360	65.229
1356	65.1922
1352	65.2243
1348	65.2169
1344	65.2021
1340	65.2656
1336	65.3055
1332	65.2697
1328	65.2229
1324	65.2489
1320	65.3287
1316	65.3628
1312	65.3322
1308	65.2431
1304	65.1599
1300	65.1444
1296	65.1646
1292	65.207
1288	65.2673
1284	65.3069
1280	65.3142
1276	65.319
1272	65.348
1268	65.3875
1264	65.3508
1260	65.2543
1256	65.2174
1252	65.2317
1248	65.2537
1244	65.259
1240	65.2029
1236	65.1334
1232	65.1444
1228	65.2152
1224	65.2675
1220	65.2603
1216	65.243
1212	65.2745
1208	65.2921
1204	65.2428
1200	65.1902
1196	65.1747
1192	65.187
1188	65.2319
1184	65.2349
1180	65.1969
1176	65.2246
1172	65.2764
1168	65.2481
1164	65.1826
1160	65.1737
1156	65.1829
1152	65.166
1148	65.1983
1144	65.2096
1140	65.1309
1136	65.1377
1132	65.2284
1128	65.2548
1124	65.2346
1120	65.177
1116	65.1826
1112	65.2395
1108	65.1707
1104	65.0616
1100	65.0682
1096	65.1708
1092	65.2373
1088	65.2479
1084	65.3074
1080	65.414
1076	65.4436
1072	65.2907
1068	65.1299
1064	65.1375
1060	65.2105
1056	65.2857
1052	65.3313
1048	65.2561
1044	65.0782
1040	64.9299
1036	64.9108
1032	65.0336
1028	65.1687
1024	65.2054
1020	65.1954
1016	65.1817
1012	65.2201
1008	65.2778
1004	65.2998
1000	65.2725
996	 65.1531
992	 65.0904
988	 65.1328
984	 65.1127
980	 65.0785
976	 65.1486
972	 65.25
968	 65.3096
964	 65.2844
960	 65.2048
956	 65.1716
952	 65.2515
948	 65.4032
944	 65.4538
940	 65.4423
936	 65.4551
932	 65.4938
928	 65.5208
924	 65.4197
920	 65.2999
916	 65.3054
912	 65.3543
908	 65.311
904	 65.2723
900	 65.3475
896	 65.4177
892	 65.4488
888	 65.4702
884	 65.4577
880	 65.4303
876	 65.4801
872	 65.5273
868	 65.4955
864	 65.5213
860	 65.5744
856	 65.5993
852	 65.6112
848	 65.6019
844	 65.5815
840	 65.514
836	 65.4413
832	 65.5004
828	 65.644
824	 65.5841
820	 65.4213
816	 65.4738
812	 65.6158
808	 65.6175
804	 65.4625
800	 65.3252
796	 65.3641
792	 65.5403
788	 65.6534
784	 65.7111
780	 65.7954
776	 65.805
772	 65.7933
768	 65.7939
764	 65.6953
760	 65.5559
756	 65.4922
752	 65.5318
748	 65.5901
744	 65.5682
740	 65.5995
736	 65.7063
732	 65.7044
728	 65.6554
724	 65.6524
720	 65.6463
716	 65.5773
712	 65.5351
708	 65.5508
704	 65.4795
700	 65.3452
696	 65.2527
692	 65.3066
688	 65.4948
684	 65.674
680	 65.7746
676	 65.7952
672	 65.7736
668	 65.6915
664	 65.6537
660	 65.7329
656	 65.8394
652	 65.8888
648	 65.7702
644	 65.6496
640	 65.6506
636	 65.5627
632	 65.3683
628	 65.3012
624	 65.5773
620	 66.0122
616	 66.2114
612	 66.1702
608	 66.0911
604	 65.9918
600	 65.9332
596	 66.0063
592	 66.1159
588	 66.0617
584	 65.8401
580	 65.5954
576	 65.5729
572	 65.8998
568	 66.1324
564	 66.041
560	 65.8842
556	 65.8696
552	 66.0977
548	 66.4249
544	 66.5081
540	 66.409
536	 66.4124
532	 66.4603
528	 66.4133
524	 66.3327
520	 66.2875
516	 66.1027
512	 65.8076
508	 65.8134
504	 65.9406
500	 65.9942
496	 66.2585
492	 66.5717
488	 66.4489
484	 66.1571
480	 65.8778
476	 65.672
472	 65.5633
468	 65.1794
464	 65.0448
460	 65.7486
456	 66.7327
452	 67.1054
448	 66.5584
444	 66.2845
440	 66.9067
436	 67.2091
432	 66.3803
428	 65.7057
424	 67.1664
420	 68.3457
416	 65.5563
412	 62.3967
408	 60.9369
404	 58.6499
400	 59.1444
396	 66.3833
392	 77.925
388	 84.9198
384	 81.4791
380	 72.6715
376	 57.5881
372	 24.6593
370	 12.7582