File: Bakgrunnsmateriale/MATLAB/FTIR/ftir_data/subCa/Mapping_25/BZ12041010-4_e26.asc
PE IR       SPECTRUM    SPECTRUM    ASCII       PEDS        1.60
  -1
BZ1204~2.ASC
17/04/10
08:50:16.00
17/04/10
08:50:43.00
tln
$BZ12041010-4_e0026$<ebV0>[-23.0,28.0,5.5,0.0,22,1,0]
27.028
64

2002,4.07
MIRTGS : RIGHTBACK : INTERNAL 2
MIR : ON : INTERNAL 2
OPTKBR

0.200000
8
8.000000
FILLER
SINGLE
SPECTRUM
UNLOCKED 256

DOUBLE

COMBINED
1
0
0

0.002000
BACKG

1
0
TRUE
51149
0
LEFT NOT FITTED RIGHT NOT FITTED 0
NONE
NONE
15600
12
4.427000
51148
TRUE
1 0 8 72 0 0 0 0

15798

#HDR
-1
-1
#GR
µM
EGY
2.38419e-05
0.0
2.000000
0.002000
12515
8
2.464744
0.007033
#DATA
2.000000	 0.778388
2.018000	 0.795388
2.036000	 0.812758
2.054000	 0.833494
2.072000	 0.858595
2.090000	 0.889335
2.108000	 0.910223
2.126000	 0.917307
2.144000	 0.921360
2.162000	 0.929769
2.180000	 0.956179
2.198000	 0.973861
2.216000	 0.988338
2.234000	 1.049548
2.252000	 1.018410
2.270000	 1.024537
2.288000	 1.044142
2.306000	 1.076699
2.324000	 1.122917
2.342000	 1.159558
2.360000	 1.184070
2.378000	 1.206247
2.396000	 1.218261
2.414000	 1.237618
2.432000	 1.262888
2.450000	 1.301371
2.468000	 1.339632
2.486000	 1.379561
2.504000	 1.404742
2.522000	 1.421388
2.540000	 1.429937
2.558000	 1.437930
2.576000	 1.444067
2.594000	 1.447797
2.612000	 1.496668
2.630000	 1.515866
2.648000	 1.556460
2.666000	 1.545877
2.684000	 1.579128
2.702000	 1.586950
2.720000	 1.569712
2.738000	 1.573440
2.756000	 1.577335
2.774000	 1.597511
2.792000	 1.611853
2.810000	 1.623293
2.828000	 1.634118
2.846000	 1.637903
2.864000	 1.629401
2.882000	 1.619360
2.900000	 1.603641
2.918000	 1.593518
2.936000	 1.602939
2.954000	 1.616957
2.972000	 1.636147
2.990000	 1.668556
3.008000	 1.698439
3.026000	 1.728615
3.044000	 1.752240
3.062000	 1.772130
3.080000	 1.788196
3.098000	 1.797869
3.116000	 1.799592
3.134000	 1.802520
3.152000	 1.812314
3.170000	 1.817931
3.188000	 1.834245
3.206000	 1.857462
3.224000	 1.884870
3.242000	 1.919208
3.260000	 1.946558
3.278000	 1.971223
3.296000	 1.990655
3.314000	 1.973752
3.332000	 2.037707
3.350000	 2.040188
3.368000	 1.977055
3.386000	 1.932117
3.404000	 1.839730
3.422000	 1.789540
3.440000	 1.941876
3.458000	 1.997792
3.476000	 2.012846
3.494000	 1.919463
3.512000	 2.023484
3.530000	 2.113733
3.548000	 2.157172
3.566000	 2.187392
3.584000	 2.210570
3.602000	 2.237944
3.620000	 2.254415
3.638000	 2.262214
3.656000	 2.264517
3.674000	 2.268499
3.692000	 2.262035
3.710000	 2.253510
3.728000	 2.251149
3.746000	 2.237367
3.764000	 2.228768
3.782000	 2.227815
3.800000	 2.226728
3.818000	 2.228936
3.836000	 2.234375
3.854000	 2.238320
3.872000	 2.252294
3.890000	 2.271787
3.908000	 2.286709
3.926000	 2.301583
3.944000	 2.314210
3.962000	 2.325202
3.980000	 2.332277
3.998000	 2.336116
4.016000	 2.334593
4.034000	 2.333349
4.052000	 2.325908
4.070000	 2.314093
4.088000	 2.306078
4.106000	 2.292854
4.124000	 2.280743
4.141999	 2.273774
4.160000	 2.268639
4.178000	 2.259913
4.196000	 2.255757
4.214000	 2.246250
4.232000	 2.241176
4.250000	 2.257721
4.268000	 2.271888
4.286000	 2.280945
4.304000	 2.302028
4.322000	 2.322069
4.340000	 2.339003
4.358000	 2.354041
4.375999	 2.366405
4.394000	 2.372797
4.412000	 2.383984
4.430000	 2.386888
4.448000	 2.389169
4.466000	 2.390314
4.484000	 2.386473
4.502000	 2.380234
4.520000	 2.374545
4.538000	 2.370746
4.556000	 2.363541
4.574000	 2.355545
4.592000	 2.349928
4.609999	 2.344500
4.628000	 2.340687
4.646000	 2.339233
4.664000	 2.341383
4.682000	 2.341860
4.700000	 2.343135
4.718000	 2.343199
4.736000	 2.345522
4.754000	 2.346397
4.772000	 2.344562
4.790000	 2.345998
4.808000	 2.350767
4.826000	 2.363405
4.843999	 2.379389
4.862000	 2.396309
4.880000	 2.414043
4.898000	 2.428400
4.916000	 2.438960
4.934000	 2.446714
4.952000	 2.451985
4.970000	 2.459614
4.988000	 2.463389
5.006000	 2.464686
5.024000	 2.462291
5.042000	 2.458003
5.060000	 2.451801
5.077999	 2.444810
5.096000	 2.439981
5.114000	 2.434987
5.132000	 2.430047
5.150000	 2.422205
5.168000	 2.417288
5.186000	 2.410148
5.204000	 2.400643
5.222000	 2.395757
5.240000	 2.389668
5.258000	 2.383480
5.276000	 2.376402
5.294000	 2.375026
5.312000	 2.379762
5.330000	 2.381384
5.348000	 2.381096
5.366000	 2.387490
5.384000	 2.394331
5.402000	 2.397003
5.420000	 2.396161
5.438000	 2.408092
5.456000	 2.410665
5.474000	 2.413082
5.492000	 2.423482
5.510000	 2.430786
5.528000	 2.433040
5.546000	 2.432315
5.564000	 2.430837
5.582000	 2.426544
5.600000	 2.429521
5.618000	 2.429356
5.636000	 2.414018
5.654000	 2.409816
5.672000	 2.410953
5.690000	 2.401916
5.708000	 2.384132
5.726000	 2.368850
5.744000	 2.346574
5.762000	 2.317577
5.780000	 2.321092
5.798000	 2.326596
5.816000	 2.301083
5.834000	 2.293820
5.852000	 2.294527
5.870000	 2.264976
5.888000	 2.239189
5.906000	 2.250012
5.923999	 2.244042
5.942000	 2.228873
5.960000	 2.231791
5.978000	 2.222199
5.996000	 2.217144
6.014000	 2.211137
6.032000	 2.183835
6.050000	 2.147961
6.068000	 2.148822
6.086000	 2.156959
6.104000	 2.144528
6.122000	 2.133166
6.140000	 2.127090
6.158000	 2.104461
6.176000	 2.065586
6.194000	 2.019577
6.212000	 1.983451
6.230000	 1.975626
6.248000	 1.994657
6.266000	 2.013957
6.284000	 2.022515
6.302000	 2.018379
6.320000	 2.003198
6.338000	 1.984316
6.356000	 1.977597
6.374000	 1.975323
6.392000	 1.951658
6.410000	 1.916279
6.428000	 1.920813
6.446000	 1.948947
6.464000	 1.952297
6.482000	 1.949235
6.500000	 1.985900
6.518000	 2.050076
6.536000	 2.093317
6.554000	 2.103555
6.572000	 2.099144
6.590000	 2.097477
6.608000	 2.089285
6.626000	 2.062295
6.644000	 2.010145
6.662000	 1.890481
6.680000	 1.727778
6.698000	 1.669489
6.716000	 1.757029
6.734000	 1.878461
6.752000	 1.950622
6.770000	 1.970634
6.788000	 1.969526
6.806000	 1.964193
6.824000	 1.945594
6.842000	 1.899672
6.860000	 1.829475
6.878000	 1.770800
6.896000	 1.765046
6.914000	 1.806389
6.932000	 1.846064
6.950000	 1.859693
6.968000	 1.863678
6.986000	 1.867956
7.004000	 1.867901
7.022000	 1.861720
7.040000	 1.852878
7.058000	 1.844635
7.076000	 1.827180
7.094000	 1.788478
7.112000	 1.743755
7.130000	 1.724055
7.148000	 1.737717
7.166000	 1.766262
7.184000	 1.786599
7.202000	 1.789208
7.220000	 1.786034
7.238000	 1.792157
7.256000	 1.803639
7.274000	 1.810961
7.292000	 1.814793
7.310000	 1.817039
7.328000	 1.817198
7.346000	 1.817027
7.364000	 1.817661
7.382000	 1.817367
7.400000	 1.815898
7.418000	 1.814484
7.436000	 1.813808
7.454000	 1.814927
7.472000	 1.820172
7.490000	 1.829839
7.508000	 1.840254
7.526000	 1.847829
7.544000	 1.851692
7.562000	 1.853452
7.580000	 1.854799
7.598000	 1.856247
7.616000	 1.857064
7.634000	 1.856862
7.652000	 1.856254
7.670000	 1.856030
7.688000	 1.856516
7.706000	 1.857032
7.724000	 1.857042
7.742000	 1.856484
7.760000	 1.855664
7.778000	 1.854310
7.796000	 1.851796
7.814000	 1.846834
7.832000	 1.837588
7.850000	 1.821665
7.868000	 1.796883
7.886000	 1.764378
7.904000	 1.732934
7.922000	 1.716814
7.940000	 1.724661
7.958000	 1.751367
7.976000	 1.782841
7.994000	 1.807821
8.012000	 1.823004
8.030000	 1.830820
8.048000	 1.834361
8.065999	 1.835487
8.084000	 1.834804
8.102000	 1.832614
8.120000	 1.829295
8.138000	 1.825039
8.155999	 1.819493
8.173999	 1.812095
8.192000	 1.802478
8.210000	 1.790557
8.228000	 1.777128
8.246000	 1.763903
8.263999	 1.753059
8.282000	 1.746106
8.300000	 1.742988
8.318000	 1.742795
8.336000	 1.744017
8.353999	 1.744841
8.372000	 1.743952
8.390000	 1.741192
8.408000	 1.736963
8.426000	 1.731658
8.443999	 1.725253
8.462000	 1.718057
8.480000	 1.710353
8.498000	 1.702222
8.516000	 1.693410
8.533999	 1.683626
8.552000	 1.672926
8.570000	 1.661342
8.588000	 1.649155
8.606000	 1.637102
8.624000	 1.626797
8.641999	 1.619384
8.660000	 1.614811
8.678000	 1.611834
8.696000	 1.608953
8.714000	 1.605402
8.731999	 1.601257
8.750000	 1.596679
8.768000	 1.591348
8.786000	 1.584666
8.804000	 1.576326
8.821999	 1.566510
8.840000	 1.555661
8.858000	 1.544305
8.876000	 1.532764
8.894000	 1.521074
8.911999	 1.509353
8.930000	 1.497622
8.948000	 1.485756
8.966000	 1.473914
8.984000	 1.462764
9.001999	 1.453103
9.020000	 1.445518
9.038000	 1.439937
9.056000	 1.435898
9.074000	 1.432722
9.092000	 1.430157
9.109999	 1.428171
9.128000	 1.426916
9.146000	 1.426463
9.164000	 1.426794
9.182000	 1.427569
9.199999	 1.428328
9.218000	 1.428438
9.236000	 1.427770
9.254000	 1.426755
9.272000	 1.426240
9.289999	 1.427064
9.308000	 1.429518
9.326000	 1.433080
9.344000	 1.436573
9.362000	 1.439006
9.379999	 1.439686
9.398000	 1.438066
9.416000	 1.432628
9.434000	 1.420654
9.452000	 1.399485
9.469999	 1.369500
9.488000	 1.336522
9.506000	 1.310241
9.524000	 1.299411
9.542000	 1.306641
9.560000	 1.326953
9.577999	 1.351098
9.596000	 1.370947
9.614000	 1.382894
9.632000	 1.387652
9.650000	 1.387662
9.667999	 1.385145
9.686000	 1.381275
9.704000	 1.376661
9.722000	 1.371674
9.740000	 1.366896
9.757999	 1.363027
9.776000	 1.360708
9.794000	 1.360355
9.812000	 1.362091
9.830000	 1.365533
9.847999	 1.369959
9.866000	 1.374813
9.884000	 1.379609
9.902000	 1.384123
9.920000	 1.388359
9.937999	 1.392188
9.956000	 1.395427
9.974000	 1.397996
9.992000	 1.399712
10.01	1.400661
10.028	1.400930
10.046	1.400563
10.064	1.399481
10.082	1.397686
10.1	1.395211
10.118	1.392287
10.136	1.389254
10.154	1.386240
10.172	1.383292
10.19	1.380289
10.208	1.377091
10.226	1.373549
10.244	1.369590
10.262	1.365093
10.28	1.360211
10.298	1.354918
10.316	1.349389
10.334	1.343684
10.352	1.337970
10.37	1.332131
10.388	1.326133
10.406	1.319920
10.424	1.313633
10.442	1.307431
10.46	1.301464
10.478	1.295848
10.496	1.290502
10.514	1.285398
10.532	1.280513
10.55	1.276053
10.568	1.272143
10.586	1.268842
10.604	1.265977
10.622	1.263194
10.64	1.260193
10.658	1.256788
10.676	1.252881
10.694	1.248710
10.712	1.244468
10.73	1.240384
10.748	1.236665
10.766	1.233349
10.784	1.230438
10.802	1.227773
10.82	1.225133
10.838	1.222364
10.856	1.219287
10.874	1.215700
10.892	1.211461
10.91	1.206475
10.928	1.200736
10.946	1.194493
10.964	1.187986
10.982	1.181647
11	1.175786
11.018	1.170656
11.036	1.166275
11.054	1.162618
11.072	1.159591
11.09	1.157094
11.108	1.155033
11.126	1.153251
11.144	1.151539
11.162	1.149598
11.18	1.147126
11.198	1.143716
11.216	1.139023
11.234	1.132749
11.252	1.124707
11.27	1.114929
11.288	1.103573
11.306	1.091033
11.324	1.077923
11.342	1.064996
11.36	1.053083
11.378	1.042983
11.396	1.035424
11.414	1.030934
11.432	1.029789
11.45	1.031881
11.468	1.036752
11.486	1.043743
11.504	1.051930
11.522	1.060428
11.54	1.068479
11.558	1.075515
11.576	1.081282
11.594	1.085723
11.612	1.088840
11.63	1.090822
11.648	1.091807
11.666	1.091949
11.684	1.091403
11.702	1.090364
11.72	1.088991
11.738	1.087415
11.756	1.085735
11.774	1.084050
11.792	1.082276
11.81	1.080349
11.828	1.078206
11.846	1.075625
11.864	1.072395
11.882	1.068235
11.9	1.062668
11.918	1.055400
11.936	1.045791
11.954	1.033514
11.972	1.018154
11.99	0.999572
12.008	0.978026
12.026	0.954127
12.044	0.929053
12.062	0.904414
12.08	0.882143
12.098	0.864118
12.116	0.851907
12.134	0.846423
12.152	0.847744
12.17	0.854990
12.188	0.866681
12.206	0.880934
12.224	0.895795
12.242	0.909686
12.26	0.921605
12.278	0.930992
12.296	0.937858
12.314	0.942473
12.332	0.945384
12.35	0.947022
12.368	0.947693
12.386	0.947809
12.404	0.947566
12.422	0.947033
12.44	0.946481
12.458	0.946006
12.476	0.945730
12.494	0.945801
12.512	0.946348
12.53	0.947402
12.548	0.948927
12.566	0.950935
12.584	0.953342
12.602	0.956093
12.62	0.959051
12.638	0.962107
12.656	0.965196
12.674	0.968151
12.692	0.970834
12.71	0.973209
12.728	0.975174
12.746	0.976608
12.764	0.977535
12.782	0.977948
12.8	0.977947
12.818	0.977607
12.836	0.977026
12.854	0.976326
12.872	0.975573
12.89	0.974820
12.908	0.974044
12.926	0.973280
12.944	0.972536
12.962	0.971807
12.98	0.971094
12.998	0.970380
13.016	0.969688
13.034	0.969005
13.052	0.968324
13.07	0.967647
13.088	0.966924
13.106	0.966150
13.124	0.965325
13.142	0.964402
13.16	0.963454
13.178	0.962462
13.196	0.961479
13.214	0.960512
13.232	0.959511
13.25	0.958568
13.268	0.957625
13.286	0.956606
13.304	0.955497
13.322	0.954293
13.34	0.953006
13.358	0.951560
13.376	0.949998
13.394	0.948337
13.412	0.946614
13.43	0.944814
13.448	0.942923
13.466	0.940944
13.484	0.938868
13.502	0.936676
13.52	0.934392
13.538	0.932031
13.556	0.929581
13.574	0.927075
13.592	0.924485
13.61	0.921905
13.628	0.919312
13.646	0.916724
13.664	0.914124
13.682	0.911551
13.7	0.908938
13.718	0.906310
13.736	0.903645
13.754	0.900989
13.772	0.898273
13.79	0.895561
13.808	0.892857
13.826	0.890163
13.844	0.887437
13.862	0.884724
13.88	0.882011
13.898	0.879310
13.916	0.876608
13.934	0.873883
13.952	0.871164
13.97	0.868425
13.988	0.865654
14.006	0.862870
14.024	0.860030
14.042	0.857158
14.06	0.854252
14.078	0.851332
14.096	0.848383
14.114	0.845427
14.132	0.842470
14.15	0.839509
14.168	0.836545
14.186	0.833528
14.204	0.830505
14.222	0.827373
14.24	0.824106
14.258	0.820655
14.276	0.816959
14.294	0.812965
14.312	0.808613
14.33	0.803834
14.348	0.798602
14.366	0.792844
14.384	0.786686
14.402	0.780108
14.42	0.773275
14.438	0.766341
14.456	0.759492
14.474	0.752988
14.492	0.747030
14.51	0.741838
14.528	0.737579
14.546	0.734321
14.564	0.732091
14.582	0.730843
14.6	0.730432
14.618	0.730657
14.636	0.731321
14.654	0.732206
14.672	0.733123
14.69	0.733905
14.708	0.734417
14.726	0.734570
14.744	0.734378
14.762	0.733845
14.78	0.732955
14.798	0.731744
14.816	0.730293
14.834	0.728638
14.852	0.726836
14.87	0.724953
14.888	0.723047
14.906	0.721152
14.924	0.719260
14.942	0.717422
14.96	0.715634
14.978	0.713909
14.996	0.712234
15.014	0.710557
15.032	0.708924
15.05	0.707258
15.068	0.705550
15.086	0.703797
15.104	0.701987
15.122	0.700100
15.14	0.698195
15.158	0.696268
15.176	0.694301
15.194	0.692313
15.212	0.690282
15.23	0.688235
15.248	0.686171
15.266	0.684065
15.284	0.681939
15.302	0.679774
15.32	0.677591
15.338	0.675417
15.356	0.673244
15.374	0.671117
15.392	0.669036
15.41	0.667003
15.428	0.665033
15.446	0.663105
15.464	0.661244
15.482	0.659443
15.5	0.657636
15.518	0.655836
15.536	0.654034
15.554	0.652213
15.572	0.650338
15.59	0.648416
15.608	0.646443
15.626	0.644428
15.644	0.642411
15.662	0.640381
15.68	0.638362
15.698	0.636379
15.716	0.634454
15.734	0.632581
15.752	0.630776
15.77	0.629070
15.788	0.627444
15.806	0.625880
15.824	0.624364
15.842	0.622892
15.86	0.621428
15.878	0.619955
15.896	0.618458
15.914	0.616906
15.932	0.615270
15.95	0.613539
15.968	0.611723
15.986	0.609767
16.004	0.607690
16.022	0.605531
16.04	0.603261
16.058	0.600937
16.076	0.598587
16.094	0.596116
16.112	0.593613
16.13	0.591093
16.148	0.588516
16.166	0.585889
16.184	0.583208
16.202	0.580467
16.22	0.577636
16.238	0.574694
16.256	0.571619
16.274	0.568442
16.292	0.565161
16.31	0.561779
16.328	0.558298
16.346	0.554757
16.364	0.551187
16.382	0.547679
16.4	0.544280
16.418	0.541025
16.436	0.537959
16.454	0.535167
16.472	0.532699
16.49	0.530574
16.508	0.528802
16.526	0.527390
16.544	0.526301
16.562	0.525525
16.58	0.525050
16.598	0.524755
16.616	0.524616
16.634	0.524612
16.652	0.524639
16.67	0.524664
16.688	0.524645
16.706	0.524530
16.724	0.524304
16.742	0.523947
16.76	0.523450
16.778	0.522823
16.796	0.522106
16.814	0.521298
16.832	0.520406
16.85	0.519469
16.868	0.518503
16.886	0.517520
16.904	0.516545
16.922	0.515598
16.94	0.514721
16.958	0.513885
16.976	0.513087
16.994	0.512339
17.012	0.511640
17.03	0.510988
17.048	0.510376
17.066	0.509798
17.084	0.509250
17.102	0.508714
17.12	0.508187
17.138	0.507682
17.156	0.507192
17.174	0.506710
17.192	0.506240
17.21	0.505777
17.228	0.505304
17.246	0.504822
17.264	0.504334
17.282	0.503831
17.3	0.503309
17.318	0.502751
17.336	0.502154
17.354	0.501516
17.372	0.500830
17.39	0.500091
17.408	0.499275
17.426	0.498418
17.444	0.497546
17.462	0.496648
17.48	0.495729
17.498	0.494807
17.516	0.493878
17.534	0.492933
17.552	0.492029
17.57	0.491172
17.588	0.490331
17.606	0.489504
17.624	0.488678
17.642	0.487887
17.66	0.487147
17.678	0.486407
17.696	0.485666
17.714	0.484942
17.732	0.484213
17.75	0.483451
17.768	0.482687
17.786	0.481929
17.804	0.481159
17.822	0.480372
17.84	0.479542
17.858	0.478678
17.876	0.477788
17.894	0.476869
17.912	0.475919
17.93	0.474956
17.948	0.473982
17.966	0.472984
17.984	0.471968
18.002	0.470950
18.02	0.469930
18.038	0.468913
18.056	0.467898
18.074	0.466886
18.092	0.465875
18.11	0.464865
18.128	0.463865
18.146	0.462876
18.164	0.461905
18.182	0.460948
18.2	0.460002
18.218	0.459055
18.236	0.458096
18.254	0.457150
18.272	0.456225
18.29	0.455303
18.308	0.454381
18.326	0.453452
18.344	0.452519
18.362	0.451591
18.38	0.450662
18.398	0.449719
18.416	0.448762
18.434	0.447784
18.452	0.446791
18.47	0.445786
18.488	0.444775
18.506	0.443759
18.524	0.442744
18.542	0.441730
18.56	0.440726
18.578	0.439732
18.596	0.438733
18.614	0.437726
18.632	0.436730
18.65	0.435743
18.668	0.434759
18.686	0.433775
18.704	0.432785
18.722	0.431791
18.74	0.430794
18.758	0.429791
18.776	0.428780
18.794	0.427753
18.812	0.426693
18.83	0.425604
18.848	0.424485
18.866	0.423340
18.884	0.422175
18.902	0.420986
18.92	0.419767
18.938	0.418521
18.956	0.417252
18.974	0.415968
18.992	0.414682
19.01	0.413398
19.028	0.412125
19.046	0.410860
19.064	0.409600
19.082	0.408354
19.1	0.407137
19.118	0.405948
19.136	0.404797
19.154	0.403670
19.172	0.402533
19.19	0.401402
19.208	0.400298
19.226	0.399210
19.244	0.398119
19.262	0.397031
19.28	0.395952
19.298	0.394880
19.316	0.393809
19.334	0.392740
19.352	0.391680
19.37	0.390630
19.388	0.389570
19.406	0.388499
19.424	0.387419
19.442	0.386331
19.46	0.385230
19.478	0.384114
19.496	0.382984
19.514	0.381836
19.532	0.380682
19.55	0.379530
19.568	0.378370
19.586	0.377191
19.604	0.376001
19.622	0.374810
19.64	0.373617
19.658	0.372430
19.676	0.371245
19.694	0.370044
19.712	0.368827
19.73	0.367607
19.748	0.366387
19.766	0.365160
19.784	0.363924
19.802	0.362680
19.82	0.361432
19.838	0.360171
19.856	0.358892
19.874	0.357595
19.892	0.356267
19.91	0.354912
19.928	0.353529
19.946	0.352120
19.964	0.350685
19.982	0.349227
20	0.347733
20.018	0.346189
20.036	0.344612
20.054	0.343020
20.072	0.341408
20.09	0.339761
20.108	0.338081
20.126	0.336389
20.144	0.334686
20.162	0.332979
20.18	0.331272
20.198	0.329565
20.216	0.327860
20.234	0.326159
20.252	0.324472
20.27	0.322798
20.288	0.321136
20.306	0.319485
20.324	0.317849
20.342	0.316230
20.36	0.314628
20.378	0.313041
20.396	0.311470
20.414	0.309921
20.432	0.308400
20.45	0.306883
20.468	0.305356
20.486	0.303830
20.504	0.302314
20.522	0.300807
20.54	0.299297
20.558	0.297786
20.576	0.296270
20.594	0.294744
20.612	0.293214
20.63	0.291689
20.648	0.290165
20.666	0.288653
20.684	0.287155
20.702	0.285665
20.72	0.284177
20.738	0.282698
20.756	0.281246
20.774	0.279819
20.792	0.278414
20.81	0.277032
20.828	0.275674
20.846	0.274346
20.864	0.273044
20.882	0.271765
20.9	0.270507
20.918	0.269272
20.936	0.268062
20.954	0.266872
20.972	0.265696
20.99	0.264534
21.008	0.263382
21.026	0.262241
21.044	0.261108
21.062	0.259981
21.08	0.258861
21.098	0.257742
21.116	0.256626
21.134	0.255511
21.152	0.254392
21.17	0.253272
21.188	0.252149
21.206	0.251022
21.224	0.249895
21.242	0.248779
21.26	0.247671
21.278	0.246556
21.296	0.245426
21.314	0.244287
21.332	0.243144
21.35	0.241995
21.368	0.240843
21.386	0.239694
21.404	0.238541
21.422	0.237373
21.44	0.236194
21.458	0.234996
21.476	0.233774
21.494	0.232533
21.512	0.231282
21.53	0.230027
21.548	0.228746
21.566	0.227423
21.584	0.226064
21.602	0.224684
21.62	0.223284
21.638	0.221861
21.656	0.220415
21.674	0.218947
21.692	0.217459
21.71	0.215956
21.728	0.214434
21.746	0.212884
21.764	0.211302
21.782	0.209706
21.8	0.208105
21.818	0.206495
21.836	0.204891
21.854	0.203297
21.872	0.201709
21.89	0.200125
21.908	0.198541
21.926	0.196975
21.944	0.195441
21.962	0.193933
21.98	0.192457
21.998	0.191014
22.016	0.189604
22.034	0.188229
22.052	0.186886
22.07	0.185584
22.088	0.184331
22.106	0.183123
22.124	0.181954
22.142	0.180820
22.16	0.179723
22.178	0.178663
22.196	0.177647
22.214	0.176660
22.232	0.175690
22.25	0.174740
22.268	0.173807
22.286	0.172886
22.304	0.171980
22.322	0.171084
22.34	0.170204
22.358	0.169332
22.376	0.168453
22.394	0.167569
22.412	0.166678
22.43	0.165774
22.448	0.164860
22.466	0.163934
22.484	0.162992
22.502	0.162037
22.52	0.161069
22.538	0.160088
22.556	0.159093
22.574	0.158083
22.592	0.157052
22.61	0.156006
22.628	0.154954
22.646	0.153895
22.664	0.152831
22.682	0.151762
22.7	0.150689
22.718	0.149613
22.736	0.148537
22.754	0.147460
22.772	0.146382
22.79	0.145301
22.808	0.144218
22.826	0.143138
22.844	0.142063
22.862	0.140992
22.88	0.139930
22.898	0.138880
22.916	0.137842
22.934	0.136810
22.952	0.135788
22.97	0.134773
22.988	0.133757
23.006	0.132736
23.024	0.131713
23.042	0.130695
23.06	0.129685
23.078	0.128680
23.096	0.127670
23.114	0.126655
23.132	0.125636
23.15	0.124610
23.168	0.123576
23.186	0.122536
23.204	0.121492
23.222	0.120447
23.24	0.119397
23.258	0.118341
23.276	0.117279
23.294	0.116210
23.312	0.115132
23.33	0.114042
23.348	0.112943
23.366	0.111845
23.384	0.110746
23.402	0.109646
23.42	0.108551
23.438	0.107462
23.456	0.106377
23.474	0.105296
23.492	0.104216
23.51	0.103140
23.528	0.102077
23.546	0.101034
23.564	0.100005
23.582	0.098987
23.6	0.097980
23.618	0.096984
23.636	0.096001
23.654	0.095032
23.672	0.094077
23.69	0.093137
23.708	0.092215
23.726	0.091312
23.744	0.090421
23.762	0.089535
23.78	0.088656
23.798	0.087787
23.816	0.086930
23.834	0.086086
23.852	0.085252
23.87	0.084422
23.888	0.083600
23.906	0.082783
23.924	0.081966
23.942	0.081148
23.96	0.080331
23.978	0.079519
23.996	0.078718
24.014	0.077925
24.032	0.077130
24.05	0.076323
24.068	0.075509
24.086	0.074691
24.104	0.073874
24.122	0.073056
24.14	0.072237
24.158	0.071417
24.176	0.070599
24.194	0.069778
24.212	0.068952
24.23	0.068116
24.248	0.067273
24.266	0.066432
24.284	0.065599
24.302	0.064770
24.32	0.063943
24.338	0.063117
24.356	0.062289
24.374	0.061464
24.392	0.060645
24.41	0.059830
24.428	0.059020
24.446	0.058224
24.464	0.057445
24.482	0.056682
24.5	0.055931
24.518	0.055191
24.536	0.054461
24.554	0.053744
24.572	0.053043
24.59	0.052361
24.608	0.051694
24.626	0.051041
24.644	0.050399
24.662	0.049767
24.68	0.049154
24.698	0.048567
24.716	0.048010
24.734	0.047470
24.752	0.046935
24.77	0.046395
24.788	0.045860
24.806	0.045335
24.824	0.044823
24.842	0.044326
24.86	0.043837
24.878	0.043351
24.896	0.042872
24.914	0.042396
24.932	0.041921
24.95	0.041442
24.968	0.040962
24.986	0.040479
25.004	0.039993
25.022	0.039503
25.04	0.039010
25.058	0.038514
25.076	0.038015
25.094	0.037513
25.112	0.037007
25.13	0.036496
25.148	0.035977
25.166	0.035453
25.184	0.034928
25.202	0.034403
25.22	0.033876
25.238	0.033349
25.256	0.032824
25.274	0.032298
25.292	0.031772
25.31	0.031251
25.328	0.030735
25.346	0.030223
25.364	0.029716
25.382	0.029218
25.4	0.028731
25.418	0.028251
25.436	0.027779
25.454	0.027311
25.472	0.026844
25.49	0.026386
25.508	0.025944
25.526	0.025524
25.544	0.025121
25.562	0.024729
25.58	0.024339
25.598	0.023950
25.616	0.023568
25.634	0.023196
25.652	0.022838
25.67	0.022494
25.688	0.022159
25.706	0.021832
25.724	0.021509
25.742	0.021193
25.76	0.020887
25.778	0.020593
25.796	0.020315
25.814	0.020048
25.832	0.019784
25.85	0.019518
25.868	0.019254
25.886	0.018991
25.904	0.018731
25.922	0.018473
25.94	0.018216
25.958	0.017962
25.976	0.017710
25.994	0.017461
26.012	0.017214
26.03	0.016968
26.048	0.016721
26.066	0.016476
26.084	0.016230
26.102	0.015984
26.12	0.015735
26.138	0.015483
26.156	0.015230
26.174	0.014980
26.192	0.014734
26.21	0.014491
26.228	0.014249
26.246	0.014004
26.264	0.013756
26.282	0.013504
26.3	0.013254
26.318	0.013012
26.336	0.012778
26.354	0.012549
26.372	0.012324
26.39	0.012099
26.408	0.011873
26.426	0.011649
26.444	0.011430
26.462	0.011220
26.48	0.011020
26.498	0.010825
26.516	0.010634
26.534	0.010445
26.552	0.010258
26.57	0.010074
26.588	0.009896
26.606	0.009727
26.624	0.009564
26.642	0.009407
26.66	0.009257
26.678	0.009114
26.696	0.008980
26.714	0.008850
26.732	0.008721
26.75	0.008588
26.768	0.008452
26.786	0.008317
26.804	0.008191
26.822	0.008077
26.84	0.007973
26.858	0.007875
26.876	0.007779
26.894	0.007681
26.912	0.007584
26.93	0.007489
26.948	0.007397
26.966	0.007306
26.984	0.007210
27.002	0.007121
27.02	0.007052
27.028	0.007033