File: Bakgrunnsmateriale/MATLAB/FTIR/ftir_data/subCa/Mapping_25/BZ12041010-4_t14.asc
PE IR       SPECTRUM    SPECTRUM    ASCII       PEDS        1.60
  -1
BZ3ABE~1.ASC
17/04/10
10:04:24.00
17/04/10
10:04:50.00
tln
$BZ12041010-4_t0014$<tbV0>[-2.6,-7.2,9.0,0.0,22,1,0]
27.028
64

2002,4.07
MIRTGS : RIGHTBACK : INTERNAL 2
MIR : ON : INTERNAL 2
OPTKBR

0.200000
8
8.000000
FILLER
RATIO
SPECTRUM
UNLOCKED 256

DOUBLE
64
COMBINED
1
0
0

0.002000
RATIO

1
0
TRUE
51149
0
LEFT NOT FITTED RIGHT NOT FITTED 0
NONE
NONE
15600
12
4.427000
51148
TRUE
1 0 8 72 0 0 0 0

15798

#HDR
-1
-1
#GR
µM
%T
2.38419e-05
0.0
2.000000
0.002000
12515
8
95.9643
48.8006
#DATA
2.000000	 64.6823
2.018000	 64.7504
2.036000	 64.601
2.054000	 65.6567
2.072000	 64.9484
2.090000	 64.6991
2.108000	 65.0533
2.126000	 65.2244
2.144000	 64.8071
2.162000	 64.7952
2.180000	 64.3685
2.198000	 63.9087
2.216000	 64.5501
2.234000	 63.8614
2.252000	 64.3948
2.270000	 64.1115
2.288000	 64.417
2.306000	 64.3917
2.324000	 64.6956
2.342000	 65.0073
2.360000	 65.4261
2.378000	 65.294
2.396000	 65.5886
2.414000	 65.2193
2.432000	 65.3828
2.450000	 65.3717
2.468000	 65.4382
2.486000	 65.2424
2.504000	 64.9932
2.522000	 65.0937
2.540000	 65.4066
2.558000	 65.174
2.576000	 65.2905
2.594000	 65.2686
2.612000	 65.2671
2.630000	 65.2741
2.648000	 65.0694
2.666000	 65.13
2.684000	 65.4795
2.702000	 65.4665
2.720000	 65.309
2.738000	 65.4259
2.756000	 65.4742
2.774000	 65.416
2.792000	 65.4979
2.810000	 65.3209
2.828000	 65.2996
2.846000	 65.2135
2.864000	 65.2569
2.882000	 65.2987
2.900000	 65.3046
2.918000	 65.1385
2.936000	 65.3599
2.954000	 65.2549
2.972000	 65.5382
2.990000	 65.4516
3.008000	 65.3219
3.026000	 65.3921
3.044000	 65.3359
3.062000	 65.2765
3.080000	 65.4759
3.098000	 65.3697
3.116000	 65.3086
3.134000	 65.2321
3.152000	 65.4378
3.170000	 65.3135
3.188000	 65.27
3.206000	 65.3178
3.224000	 65.3604
3.242000	 65.2821
3.260000	 65.3368
3.278000	 65.4387
3.296000	 65.345
3.314000	 65.1278
3.332000	 65.2
3.350000	 65.2541
3.368000	 65.402
3.386000	 65.2626
3.404000	 65.2619
3.422000	 65.0628
3.440000	 65.311
3.458000	 65.3631
3.476000	 65.3438
3.494000	 65.2565
3.512000	 65.1698
3.530000	 65.486
3.548000	 65.3764
3.566000	 65.3273
3.584000	 65.3779
3.602000	 65.2617
3.620000	 65.365
3.638000	 65.3405
3.656000	 65.236
3.674000	 65.4144
3.692000	 65.3171
3.710000	 65.2225
3.728000	 65.3736
3.746000	 65.3643
3.764000	 65.1835
3.782000	 65.3186
3.800000	 65.3159
3.818000	 65.4147
3.836000	 65.2292
3.854000	 65.2937
3.872000	 65.221
3.890000	 65.2695
3.908000	 65.2809
3.926000	 65.2758
3.944000	 65.3194
3.962000	 65.3995
3.980000	 65.282
3.998000	 65.3551
4.016000	 65.3279
4.034000	 65.384
4.052000	 65.3077
4.070000	 65.4087
4.088000	 65.4846
4.106000	 65.5303
4.124000	 65.4038
4.141999	 65.4124
4.160000	 65.4511
4.178000	 65.4134
4.196000	 65.2825
4.214000	 65.2858
4.232000	 65.3584
4.250000	 65.3743
4.268000	 65.3202
4.286000	 65.3127
4.304000	 65.3412
4.322000	 65.332
4.340000	 65.3519
4.358000	 65.2752
4.375999	 65.2718
4.394000	 65.291
4.412000	 65.3896
4.430000	 65.2225
4.448000	 65.2397
4.466000	 65.3492
4.484000	 65.359
4.502000	 65.2169
4.520000	 65.2968
4.538000	 65.295
4.556000	 65.2495
4.574000	 65.2611
4.592000	 65.3485
4.609999	 65.3607
4.628000	 65.2659
4.646000	 65.2485
4.664000	 65.2142
4.682000	 65.2361
4.700000	 65.3722
4.718000	 65.3845
4.736000	 65.3327
4.754000	 65.4098
4.772000	 65.3185
4.790000	 65.3245
4.808000	 65.3117
4.826000	 65.3335
4.843999	 65.2908
4.862000	 65.309
4.880000	 65.3663
4.898000	 65.3336
4.916000	 65.2832
4.934000	 65.2868
4.952000	 65.322
4.970000	 65.3629
4.988000	 65.2973
5.006000	 65.3154
5.024000	 65.32
5.042000	 65.3625
5.060000	 65.3188
5.077999	 65.343
5.096000	 65.3762
5.114000	 65.3877
5.132000	 65.4
5.150000	 65.3268
5.168000	 65.3602
5.186000	 65.435
5.204000	 65.4601
5.222000	 65.3187
5.240000	 65.2745
5.258000	 65.3874
5.276000	 65.3517
5.294000	 65.3231
5.312000	 65.2873
5.330000	 65.3073
5.348000	 65.3894
5.366000	 65.3614
5.384000	 65.3386
5.402000	 65.3268
5.420000	 65.2531
5.438000	 65.2276
5.456000	 65.2117
5.474000	 65.2747
5.492000	 65.3408
5.510000	 65.3272
5.528000	 65.2788
5.546000	 65.3029
5.564000	 65.3044
5.582000	 65.3036
5.600000	 65.2042
5.618000	 65.2232
5.636000	 65.2698
5.654000	 65.279
5.672000	 65.2718
5.690000	 65.239
5.708000	 65.2192
5.726000	 65.1259
5.744000	 65.1342
5.762000	 65.1521
5.780000	 65.1171
5.798000	 65.1593
5.816000	 65.1555
5.834000	 65.1192
5.852000	 65.1658
5.870000	 65.2481
5.888000	 65.3408
5.906000	 65.2939
5.923999	 65.3053
5.942000	 65.2736
5.960000	 65.1985
5.978000	 65.2447
5.996000	 65.2464
6.014000	 65.2365
6.032000	 65.2114
6.050000	 65.2184
6.068000	 65.1692
6.086000	 65.0464
6.104000	 65.0353
6.122000	 65.1283
6.140000	 65.19
6.158000	 65.2268
6.176000	 65.3405
6.194000	 65.346
6.212000	 65.2702
6.230000	 65.3412
6.248000	 65.3319
6.266000	 65.282
6.284000	 65.3084
6.302000	 65.3883
6.320000	 65.4008
6.338000	 65.217
6.356000	 65.08
6.374000	 65.1256
6.392000	 65.1452
6.410000	 65.1484
6.428000	 65.2372
6.446000	 65.2596
6.464000	 65.1968
6.482000	 65.1842
6.500000	 65.157
6.518000	 65.1429
6.536000	 65.163
6.554000	 65.1231
6.572000	 65.1366
6.590000	 65.1665
6.608000	 65.1531
6.626000	 65.1853
6.644000	 65.1704
6.662000	 65.1992
6.680000	 65.3513
6.698000	 65.3433
6.716000	 65.2203
6.734000	 65.1591
6.752000	 65.1507
6.770000	 65.219
6.788000	 65.2687
6.806000	 65.2489
6.824000	 65.2774
6.842000	 65.3216
6.860000	 65.2551
6.878000	 65.1256
6.896000	 65.0812
6.914000	 65.1107
6.932000	 65.1211
6.950000	 65.1357
6.968000	 65.1414
6.986000	 65.126
7.004000	 65.1424
7.022000	 65.1501
7.040000	 65.1193
7.058000	 65.1058
7.076000	 65.1162
7.094000	 65.1229
7.112000	 65.1385
7.130000	 65.1885
7.148000	 65.234
7.166000	 65.2223
7.184000	 65.2001
7.202000	 65.2117
7.220000	 65.2239
7.238000	 65.2473
7.256000	 65.3052
7.274000	 65.3291
7.292000	 65.2734
7.310000	 65.2119
7.328000	 65.1993
7.346000	 65.1824
7.364000	 65.1392
7.382000	 65.1289
7.400000	 65.1517
7.418000	 65.1555
7.436000	 65.146
7.454000	 65.1497
7.472000	 65.159
7.490000	 65.1624
7.508000	 65.159
7.526000	 65.1559
7.544000	 65.1549
7.562000	 65.1382
7.580000	 65.104
7.598000	 65.0834
7.616000	 65.0875
7.634000	 65.0913
7.652000	 65.0855
7.670000	 65.081
7.688000	 65.0787
7.706000	 65.0835
7.724000	 65.1135
7.742000	 65.1624
7.760000	 65.1928
7.778000	 65.1817
7.796000	 65.1414
7.814000	 65.0992
7.832000	 65.0864
7.850000	 65.1193
7.868000	 65.171
7.886000	 65.1914
7.904000	 65.1648
7.922000	 65.1179
7.940000	 65.0879
7.958000	 65.0995
7.976000	 65.1417
7.994000	 65.1683
8.012000	 65.1577
8.030000	 65.1458
8.048000	 65.1577
8.065999	 65.1625
8.084000	 65.141
8.102000	 65.1356
8.120000	 65.1802
8.138000	 65.2396
8.155999	 65.2585
8.173999	 65.228
8.192000	 65.1768
8.210000	 65.1309
8.228000	 65.1005
8.246000	 65.0934
8.263999	 65.1175
8.282000	 65.1621
8.300000	 65.193
8.318000	 65.184
8.336000	 65.1469
8.353999	 65.1132
8.372000	 65.0975
8.390000	 65.097
8.408000	 65.1088
8.426000	 65.1326
8.443999	 65.1586
8.462000	 65.1698
8.480000	 65.1569
8.498000	 65.1249
8.516000	 65.0894
8.533999	 65.0682
8.552000	 65.071
8.570000	 65.0915
8.588000	 65.1156
8.606000	 65.139
8.624000	 65.1677
8.641999	 65.1953
8.660000	 65.2008
8.678000	 65.1718
8.696000	 65.1191
8.714000	 65.0641
8.731999	 65.0217
8.750000	 64.9972
8.768000	 64.9939
8.786000	 65.0155
8.804000	 65.0628
8.821999	 65.1262
8.840000	 65.1833
8.858000	 65.2108
8.876000	 65.2079
8.894000	 65.1944
8.911999	 65.1873
8.930000	 65.1862
8.948000	 65.1827
8.966000	 65.1744
8.984000	 65.169
9.001999	 65.1744
9.020000	 65.1863
9.038000	 65.1884
9.056000	 65.1672
9.074000	 65.1274
9.092000	 65.0923
9.109999	 65.0853
9.128000	 65.1111
9.146000	 65.1552
9.164000	 65.1994
9.182000	 65.2348
9.199999	 65.2602
9.218000	 65.2723
9.236000	 65.2629
9.254000	 65.2261
9.272000	 65.167
9.289999	 65.1034
9.308000	 65.0577
9.326000	 65.0467
9.344000	 65.0737
9.362000	 65.1276
9.379999	 65.1897
9.398000	 65.2432
9.416000	 65.2808
9.434000	 65.3035
9.452000	 65.3136
9.469999	 65.3072
9.488000	 65.2793
9.506000	 65.2402
9.524000	 65.2211
9.542000	 65.2527
9.560000	 65.3336
9.577999	 65.4226
9.596000	 65.4687
9.614000	 65.4487
9.632000	 65.3791
9.650000	 65.2975
9.667999	 65.2331
9.686000	 65.1946
9.704000	 65.1769
9.722000	 65.1738
9.740000	 65.1793
9.757999	 65.1836
9.776000	 65.1741
9.794000	 65.147
9.812000	 65.1178
9.830000	 65.1146
9.847999	 65.1563
9.866000	 65.2355
9.884000	 65.3217
9.902000	 65.3797
9.920000	 65.3916
9.937999	 65.3642
9.956000	 65.3196
9.974000	 65.2785
9.992000	 65.2505
10.01	65.2354
10.028	65.2293
10.046	65.2299
10.064	65.2347
10.082	65.2399
10.1	65.2417
10.118	65.2397
10.136	65.2391
10.154	65.2473
10.172	65.2667
10.19	65.2893
10.208	65.3004
10.226	65.2889
10.244	65.2543
10.262	65.2084
10.28	65.1679
10.298	65.1474
10.316	65.1534
10.334	65.1814
10.352	65.2181
10.37	65.2447
10.388	65.2462
10.406	65.219
10.424	65.1747
10.442	65.1361
10.46	65.123
10.478	65.1424
10.496	65.1856
10.514	65.2382
10.532	65.2887
10.55	65.3331
10.568	65.369
10.586	65.3898
10.604	65.3842
10.622	65.3421
10.64	65.2638
10.658	65.1633
10.676	65.0665
10.694	64.9978
10.712	64.9727
10.73	64.99
10.748	65.036
10.766	65.0899
10.784	65.134
10.802	65.1599
10.82	65.1718
10.838	65.183
10.856	65.2066
10.874	65.2483
10.892	65.3016
10.91	65.3503
10.928	65.3777
10.946	65.3743
10.964	65.3447
10.982	65.3056
11	65.2771
11.018	65.2741
11.036	65.2982
11.054	65.3376
11.072	65.3749
11.09	65.3933
11.108	65.3866
11.126	65.3604
11.144	65.3284
11.162	65.3064
11.18	65.3038
11.198	65.3201
11.216	65.3463
11.234	65.3711
11.252	65.3849
11.27	65.3849
11.288	65.374
11.306	65.3575
11.324	65.341
11.342	65.328
11.36	65.3203
11.378	65.3181
11.396	65.3212
11.414	65.3287
11.432	65.3379
11.45	65.3444
11.468	65.3433
11.486	65.3321
11.504	65.3111
11.522	65.2844
11.54	65.2569
11.558	65.2332
11.576	65.214
11.594	65.197
11.612	65.1782
11.63	65.1537
11.648	65.1232
11.666	65.0895
11.684	65.0596
11.702	65.0414
11.72	65.0419
11.738	65.0644
11.756	65.1076
11.774	65.1653
11.792	65.228
11.81	65.2859
11.828	65.3304
11.846	65.3562
11.864	65.3629
11.882	65.3541
11.9	65.3365
11.918	65.3182
11.936	65.306
11.954	65.3045
11.972	65.3148
11.99	65.3352
12.008	65.3609
12.026	65.3866
12.044	65.4069
12.062	65.4191
12.08	65.4233
12.098	65.4217
12.116	65.4176
12.134	65.4144
12.152	65.4139
12.17	65.4167
12.188	65.423
12.206	65.433
12.224	65.4472
12.242	65.4658
12.26	65.488
12.278	65.5111
12.296	65.5312
12.314	65.5437
12.332	65.545
12.35	65.5337
12.368	65.5112
12.386	65.4817
12.404	65.45
12.422	65.4196
12.44	65.3918
12.458	65.3651
12.476	65.3365
12.494	65.3026
12.512	65.2623
12.53	65.2178
12.548	65.174
12.566	65.1375
12.584	65.1146
12.602	65.1097
12.62	65.1237
12.638	65.1537
12.656	65.1946
12.674	65.2401
12.692	65.2851
12.71	65.3259
12.728	65.3611
12.746	65.3907
12.764	65.4155
12.782	65.4365
12.8	65.4537
12.818	65.4666
12.836	65.4748
12.854	65.4779
12.872	65.4768
12.89	65.473
12.908	65.4687
12.926	65.466
12.944	65.4664
12.962	65.4707
12.98	65.4785
12.998	65.4888
13.016	65.5003
13.034	65.5117
13.052	65.5224
13.07	65.5322
13.088	65.5409
13.106	65.5488
13.124	65.5556
13.142	65.5611
13.16	65.5649
13.178	65.5664
13.196	65.5652
13.214	65.5612
13.232	65.5545
13.25	65.5457
13.268	65.5356
13.286	65.525
13.304	65.5148
13.322	65.5059
13.34	65.4991
13.358	65.4946
13.376	65.4919
13.394	65.4895
13.412	65.4857
13.43	65.4781
13.448	65.465
13.466	65.4449
13.484	65.4178
13.502	65.3851
13.52	65.3496
13.538	65.315
13.556	65.285
13.574	65.2629
13.592	65.2506
13.61	65.2481
13.628	65.2535
13.646	65.2632
13.664	65.273
13.682	65.279
13.7	65.2789
13.718	65.2724
13.736	65.2618
13.754	65.2514
13.772	65.2466
13.79	65.2527
13.808	65.2733
13.826	65.3095
13.844	65.3593
13.862	65.4177
13.88	65.4775
13.898	65.531
13.916	65.5707
13.934	65.5914
13.952	65.5905
13.97	65.5687
13.988	65.5293
14.006	65.4777
14.024	65.4199
14.042	65.3618
14.06	65.3082
14.078	65.2625
14.096	65.2265
14.114	65.2011
14.132	65.1864
14.15	65.182
14.168	65.1872
14.186	65.201
14.204	65.2222
14.222	65.2493
14.24	65.2802
14.258	65.3126
14.276	65.3439
14.294	65.3713
14.312	65.3922
14.33	65.4043
14.348	65.4061
14.366	65.397
14.384	65.3774
14.402	65.3485
14.42	65.3127
14.438	65.2731
14.456	65.233
14.474	65.1963
14.492	65.1667
14.51	65.1477
14.528	65.142
14.546	65.1508
14.564	65.1741
14.582	65.2109
14.6	65.2586
14.618	65.3139
14.636	65.3724
14.654	65.4302
14.672	65.4838
14.69	65.5306
14.708	65.5686
14.726	65.5966
14.744	65.614
14.762	65.6213
14.78	65.619
14.798	65.6078
14.816	65.5887
14.834	65.5628
14.852	65.5317
14.87	65.4969
14.888	65.4601
14.906	65.4231
14.924	65.3878
14.942	65.3562
14.96	65.3298
14.978	65.3098
14.996	65.2971
15.014	65.292
15.032	65.2941
15.05	65.3028
15.068	65.3172
15.086	65.3363
15.104	65.3591
15.122	65.3847
15.14	65.4122
15.158	65.4407
15.176	65.4694
15.194	65.4976
15.212	65.5241
15.23	65.5481
15.248	65.5689
15.266	65.5855
15.284	65.5975
15.302	65.6045
15.32	65.6066
15.338	65.6039
15.356	65.5972
15.374	65.5874
15.392	65.5755
15.41	65.5626
15.428	65.5501
15.446	65.5395
15.464	65.5318
15.482	65.5277
15.5	65.528
15.518	65.5326
15.536	65.5411
15.554	65.5527
15.572	65.5663
15.59	65.5804
15.608	65.5939
15.626	65.6059
15.644	65.6155
15.662	65.6225
15.68	65.6274
15.698	65.6305
15.716	65.6328
15.734	65.6356
15.752	65.6397
15.77	65.6459
15.788	65.6545
15.806	65.6651
15.824	65.6768
15.842	65.6884
15.86	65.698
15.878	65.7043
15.896	65.706
15.914	65.7023
15.932	65.6932
15.95	65.679
15.968	65.6608
15.986	65.6404
16.004	65.6195
16.022	65.5997
16.04	65.5831
16.058	65.5707
16.076	65.5631
16.094	65.5608
16.112	65.563
16.13	65.5689
16.148	65.5776
16.166	65.5869
16.184	65.5954
16.202	65.6019
16.22	65.6045
16.238	65.6022
16.256	65.5942
16.274	65.5802
16.292	65.5603
16.31	65.535
16.328	65.5058
16.346	65.4741
16.364	65.4414
16.382	65.4107
16.4	65.3843
16.418	65.3643
16.436	65.3536
16.454	65.3538
16.472	65.3659
16.49	65.3903
16.508	65.4257
16.526	65.4709
16.544	65.5223
16.562	65.5764
16.58	65.6304
16.598	65.679
16.616	65.7198
16.634	65.7503
16.652	65.7685
16.67	65.7747
16.688	65.7689
16.706	65.7541
16.724	65.7322
16.742	65.7061
16.76	65.68
16.778	65.6555
16.796	65.6356
16.814	65.6212
16.832	65.6126
16.85	65.609
16.868	65.6087
16.886	65.6105
16.904	65.6105
16.922	65.6072
16.94	65.5981
16.958	65.581
16.976	65.5554
16.994	65.5207
17.012	65.4782
17.03	65.4284
17.048	65.3739
17.066	65.3165
17.084	65.2585
17.102	65.2027
17.12	65.1503
17.138	65.1038
17.156	65.0641
17.174	65.0319
17.192	65.0078
17.21	64.9917
17.228	64.9833
17.246	64.9819
17.264	64.9868
17.282	64.9967
17.3	65.0109
17.318	65.028
17.336	65.0468
17.354	65.0666
17.372	65.0856
17.39	65.1035
17.408	65.119
17.426	65.1316
17.444	65.1406
17.462	65.1458
17.48	65.1476
17.498	65.1461
17.516	65.1425
17.534	65.1374
17.552	65.1326
17.57	65.1288
17.588	65.1279
17.606	65.1306
17.624	65.138
17.642	65.1507
17.66	65.1692
17.678	65.1932
17.696	65.2225
17.714	65.2563
17.732	65.2937
17.75	65.3339
17.768	65.3754
17.786	65.4178
17.804	65.4597
17.822	65.5009
17.84	65.5404
17.858	65.5782
17.876	65.6138
17.894	65.6471
17.912	65.6779
17.93	65.706
17.948	65.7313
17.966	65.7533
17.984	65.7719
18.002	65.7866
18.02	65.7975
18.038	65.8044
18.056	65.8075
18.074	65.807
18.092	65.8037
18.11	65.798
18.128	65.7913
18.146	65.7841
18.164	65.7783
18.182	65.7748
18.2	65.7748
18.218	65.7792
18.236	65.7885
18.254	65.8026
18.272	65.8214
18.29	65.8435
18.308	65.8687
18.326	65.8941
18.344	65.9194
18.362	65.9417
18.38	65.9602
18.398	65.9728
18.416	65.9791
18.434	65.9779
18.452	65.9696
18.47	65.9541
18.488	65.9332
18.506	65.9072
18.524	65.879
18.542	65.8491
18.56	65.8209
18.578	65.7947
18.596	65.7731
18.614	65.7563
18.632	65.7458
18.65	65.7413
18.668	65.7426
18.686	65.7491
18.704	65.7589
18.722	65.7715
18.74	65.7837
18.758	65.7951
18.776	65.8027
18.794	65.806
18.812	65.8027
18.83	65.7928
18.848	65.775
18.866	65.75
18.884	65.718
18.902	65.6803
18.92	65.6387
18.938	65.5946
18.956	65.5507
18.974	65.5085
18.992	65.4707
19.01	65.4386
19.028	65.4146
19.046	65.3992
19.064	65.3943
19.082	65.3994
19.1	65.4154
19.118	65.4412
19.136	65.4763
19.154	65.5197
19.172	65.5696
19.19	65.6254
19.208	65.6842
19.226	65.7458
19.244	65.8076
19.262	65.8694
19.28	65.9287
19.298	65.9855
19.316	66.0378
19.334	66.0857
19.352	66.1277
19.37	66.1639
19.388	66.193
19.406	66.2153
19.424	66.23
19.442	66.2371
19.46	66.2368
19.478	66.2289
19.496	66.2141
19.514	66.1922
19.532	66.1645
19.55	66.1314
19.568	66.0939
19.586	66.0529
19.604	66.009
19.622	65.9639
19.64	65.9176
19.658	65.8717
19.676	65.8262
19.694	65.7827
19.712	65.741
19.73	65.7021
19.748	65.666
19.766	65.6327
19.784	65.6025
19.802	65.575
19.82	65.5501
19.838	65.5274
19.856	65.5067
19.874	65.4877
19.892	65.4698
19.91	65.4529
19.928	65.4364
19.946	65.4203
19.964	65.404
19.982	65.3876
20	65.3709
20.018	65.3535
20.036	65.3359
20.054	65.3182
20.072	65.3008
20.09	65.2845
20.108	65.2692
20.126	65.2567
20.144	65.2468
20.162	65.2408
20.18	65.2395
20.198	65.243
20.216	65.2525
20.234	65.2675
20.252	65.2883
20.27	65.3151
20.288	65.3465
20.306	65.383
20.324	65.4227
20.342	65.4649
20.36	65.5088
20.378	65.5518
20.396	65.5945
20.414	65.6337
20.432	65.6697
20.45	65.7006
20.468	65.7252
20.486	65.7436
20.504	65.7545
20.522	65.7584
20.54	65.7551
20.558	65.7445
20.576	65.7281
20.594	65.7064
20.612	65.6802
20.63	65.652
20.648	65.6212
20.666	65.5919
20.684	65.5634
20.702	65.5389
20.72	65.5201
20.738	65.5072
20.756	65.5034
20.774	65.508
20.792	65.5232
20.81	65.5497
20.828	65.5869
20.846	65.635
20.864	65.6938
20.882	65.7607
20.9	65.8368
20.918	65.918
20.936	66.0024
20.954	66.0895
20.972	66.173
20.99	66.2545
21.008	66.3284
21.026	66.3929
21.044	66.4476
21.062	66.4882
21.08	66.5156
21.098	66.5283
21.116	66.5252
21.134	66.5076
21.152	66.4761
21.17	66.4303
21.188	66.3744
21.206	66.308
21.224	66.2336
21.242	66.1561
21.26	66.0738
21.278	65.993
21.296	65.9144
21.314	65.8394
21.332	65.773
21.35	65.7136
21.368	65.6645
21.386	65.6268
21.404	65.6
21.422	65.585
21.44	65.5817
21.458	65.5887
21.476	65.6061
21.494	65.6329
21.512	65.6658
21.53	65.7059
21.548	65.7498
21.566	65.7949
21.584	65.8419
21.602	65.8862
21.62	65.9283
21.638	65.9663
21.656	65.9971
21.674	66.0218
21.692	66.0388
21.71	66.0475
21.728	66.0485
21.746	66.0421
21.764	66.0276
21.782	66.0073
21.8	65.9827
21.818	65.9531
21.836	65.9231
21.854	65.8923
21.872	65.8622
21.89	65.837
21.908	65.8152
21.926	65.7998
21.944	65.7931
21.962	65.794
21.98	65.804
21.998	65.8234
22.016	65.8516
22.034	65.8881
22.052	65.934
22.07	65.9856
22.088	66.0408
22.106	66.1008
22.124	66.1588
22.142	66.2146
22.16	66.2669
22.178	66.3078
22.196	66.3394
22.214	66.358
22.232	66.3578
22.25	66.3412
22.268	66.3048
22.286	66.2458
22.304	66.1657
22.322	66.0643
22.34	65.94
22.358	65.795
22.376	65.6337
22.394	65.4534
22.412	65.2595
22.43	65.059
22.448	64.8478
22.466	64.6347
22.484	64.4266
22.502	64.2192
22.52	64.0231
22.538	63.8421
22.556	63.6741
22.574	63.5283
22.592	63.4059
22.61	63.3064
22.628	63.2352
22.646	63.1927
22.664	63.1775
22.682	63.1903
22.7	63.2323
22.718	63.2996
22.736	63.3888
22.754	63.5026
22.772	63.6345
22.79	63.7793
22.808	63.9406
22.826	64.1098
22.844	64.282
22.862	64.4606
22.88	64.6365
22.898	64.8057
22.916	64.971
22.934	65.1253
22.952	65.2666
22.97	65.3963
22.988	65.5095
23.006	65.6044
23.024	65.6827
23.042	65.7435
23.06	65.7857
23.078	65.8107
23.096	65.8218
23.114	65.8175
23.132	65.7998
23.15	65.775
23.168	65.742
23.186	65.702
23.204	65.6611
23.222	65.6178
23.24	65.5738
23.258	65.535
23.276	65.5002
23.294	65.4708
23.312	65.4524
23.33	65.4448
23.348	65.4479
23.366	65.4653
23.384	65.4974
23.402	65.5433
23.42	65.6034
23.438	65.6786
23.456	65.7678
23.474	65.8691
23.492	65.9828
23.51	66.1085
23.528	66.2429
23.546	66.3857
23.564	66.5374
23.582	66.6935
23.6	66.8528
23.618	67.0168
23.636	67.1812
23.654	67.3439
23.672	67.5068
23.69	67.6669
23.708	67.8221
23.726	67.9737
23.744	68.1205
23.762	68.261
23.78	68.3957
23.798	68.525
23.816	68.6488
23.834	68.7666
23.852	68.8795
23.87	68.9891
23.888	69.094
23.906	69.1958
23.924	69.2985
23.942	69.4012
23.96	69.5043
23.978	69.6127
23.996	69.7274
24.014	69.8466
24.032	69.976
24.05	70.1188
24.068	70.2721
24.086	70.4395
24.104	70.6243
24.122	70.8252
24.14	71.0425
24.158	71.2775
24.176	71.5317
24.194	71.8026
24.212	72.087
24.23	72.3856
24.248	72.6983
24.266	73.0195
24.284	73.3471
24.302	73.6851
24.32	74.0241
24.338	74.3559
24.356	74.6872
24.374	75.011
24.392	75.316
24.41	75.6067
24.428	75.8809
24.446	76.1247
24.464	76.3331
24.482	76.5129
24.5	76.6534
24.518	76.7461
24.536	76.7983
24.554	76.8035
24.572	76.7513
24.59	76.6439
24.608	76.482
24.626	76.2592
24.644	75.9724
24.662	75.625
24.68	75.2149
24.698	74.7399
24.716	74.1996
24.734	73.5968
24.752	72.9345
24.77	72.2103
24.788	71.4254
24.806	70.5891
24.824	69.7064
24.842	68.7697
24.86	67.7909
24.878	66.7838
24.896	65.7402
24.914	64.6648
24.932	63.5775
24.95	62.4859
24.968	61.3765
24.986	60.2718
25.004	59.1957
25.022	58.1349
25.04	57.0959
25.058	56.1016
25.076	55.1625
25.094	54.2652
25.112	53.4228
25.13	52.6487
25.148	51.9367
25.166	51.288
25.184	50.7116
25.202	50.2115
25.22	49.7824
25.238	49.4282
25.256	49.1537
25.274	48.9619
25.292	48.8472
25.31	48.802
25.328	48.8243
25.346	48.9217
25.364	49.0787
25.382	49.2779
25.4	49.5292
25.418	49.83
25.436	50.1542
25.454	50.484
25.472	50.8423
25.49	51.2067
25.508	51.5462
25.526	51.8511
25.544	52.1367
25.562	52.3936
25.58	52.6123
25.598	52.7876
25.616	52.9301
25.634	53.0527
25.652	53.1639
25.67	53.2558
25.688	53.3325
25.706	53.3996
25.724	53.457
25.742	53.5027
25.76	53.5413
25.778	53.5774
25.796	53.61
25.814	53.6379
25.832	53.6614
25.85	53.6808
25.868	53.6968
25.886	53.7079
25.904	53.7122
25.922	53.6947
25.94	53.6551
25.958	53.6337
25.976	53.6704
25.994	53.7459
26.012	53.8598
26.03	54.0504
26.048	54.3512
26.066	54.7414
26.084	55.2239
26.102	55.815
26.12	56.529
26.138	57.3618
26.156	58.3009
26.174	59.334
26.192	60.4933
26.21	61.8047
26.228	63.1447
26.246	64.3861
26.264	65.5464
26.282	66.6748
26.3	67.657
26.318	68.3809
26.336	68.8631
26.354	69.1376
26.372	69.1799
26.39	68.9646
26.408	68.4724
26.426	67.7383
26.444	66.8089
26.462	65.7053
26.48	64.2875
26.498	62.7118
26.516	61.2064
26.534	59.933
26.552	58.6945
26.57	57.6067
26.588	56.8539
26.606	56.5749
26.624	56.6734
26.642	57.1234
26.66	57.9178
26.678	59.0745
26.696	60.634
26.714	62.5008
26.732	64.5692
26.75	66.8533
26.768	69.5243
26.786	72.278
26.804	74.7795
26.822	76.8606
26.84	78.7698
26.858	80.3782
26.876	81.5262
26.894	82.0756
26.912	82.0749
26.93	81.6735
26.948	81.0204
26.966	80.1121
26.984	78.7121
27.002	77.1927
27.02	75.9699
27.028	75.6622