File: Bakgrunnsmateriale/MATLAB/FTIR/ftir_data/subCa/Mapping_25/BZ12041010-4_e26_cm-1.asc
PE IR       SPECTRUM    SPECTRUM    ASCII       PEDS        1.60
  -1
BZ1204~1.ASC
17/04/10
08:50:16.00
17/04/10
08:50:16.00
tln
$BZ12041010-4_e0026$<ebV0>[-23.0,28.0,5.5,0.0,22,1,0]
370
64

2002,4.07
MIRTGS : RIGHTBACK : INTERNAL 2
MIR : ON : INTERNAL 2
OPTKBR

0.200000
8
8.000000
FILLER
SINGLE
SPECTRUM
UNLOCKED 256

DOUBLE

COMBINED
1
0
0

1.000000
BACKG

1
0
TRUE
51149
0
LEFT NOT FITTED RIGHT NOT FITTED 0
NONE
NONE
15600
12
4.427000
51148
TRUE
1 0 8 72 0 0 0 0

15798

#HDR
-1
-1
#GR
CM-1
EGY
2.38419e-05
0.0
5000
-1.000000
4631
8
2.464747
0.007033
#DATA
5000	0.778388
4996	0.780797
4992	0.783824
4988	0.787758
4984	0.790381
4980	0.790739
4976	0.791621
4972	0.792980
4968	0.794339
4964	0.796055
4960	0.796294
4956	0.795459
4952	0.796127
4948	0.799655
4944	0.803685
4940	0.805687
4936	0.806093
4932	0.805807
4928	0.807142
4924	0.810074
4920	0.811743
4916	0.812125
4912	0.812649
4908	0.814318
4904	0.817322
4900	0.820994
4896	0.823450
4892	0.823760
4888	0.823760
4884	0.823354
4880	0.824332
4876	0.828576
4872	0.831723
4868	0.833892
4864	0.837564
4860	0.840806
4856	0.843095
4852	0.845313
4848	0.848293
4844	0.851035
4840	0.852847
4836	0.855112
4832	0.857925
4828	0.858855
4824	0.858211
4820	0.858712
4816	0.862050
4812	0.867891
4808	0.872611
4804	0.873875
4800	0.874066
4796	0.876998
4792	0.882554
4788	0.887227
4784	0.889658
4780	0.891542
4776	0.894618
4772	0.898170
4768	0.899791
4764	0.898504
4760	0.896549
4756	0.895762
4752	0.899338
4748	0.907444
4744	0.910305
4740	0.906181
4736	0.905036
4732	0.910902
4728	0.917077
4724	0.915956
4720	0.908613
4716	0.901770
4712	0.900626
4708	0.904965
4704	0.916099
4700	0.929760
4696	0.934910
4692	0.933861
4688	0.929832
4684	0.925207
4680	0.927495
4676	0.930404
4672	0.925850
4668	0.921535
4664	0.921392
4660	0.922799
4656	0.923991
4652	0.918459
4648	0.910663
4644	0.910902
4640	0.917959
4636	0.924587
4632	0.925898
4628	0.926470
4624	0.932002
4620	0.936770
4616	0.936698
4612	0.937771
4608	0.942015
4604	0.945544
4600	0.947213
4596	0.950431
4592	0.954532
4588	0.956153
4584	0.956034
4580	0.956511
4576	0.957870
4572	0.959706
4568	0.964140
4564	0.967526
4560	0.966930
4556	0.968408
4552	0.971698
4548	0.975561
4544	0.979876
4540	0.982785
4536	0.986218
4532	0.991201
4528	0.994801
4524	0.995612
4520	0.994563
4516	0.990700
4512	0.988388
4508	0.991511
4504	0.993514
4500	0.996971
4496	1.026272
4492	1.080417
4488	1.098346
4484	1.081085
4480	1.072525
4476	1.047062
4472	1.016688
4468	1.013231
4464	1.019597
4460	1.022052
4456	1.017189
4452	1.011276
4448	1.012563
4444	1.016545
4440	1.018667
4436	1.021480
4432	1.023483
4428	1.022481
4424	1.021862
4420	1.023101
4416	1.023316
4412	1.022338
4408	1.023054
4404	1.025247
4400	1.026988
4396	1.029658
4392	1.033496
4388	1.036930
4384	1.040267
4380	1.042389
4376	1.042413
4372	1.043105
4368	1.047086
4364	1.052403
4360	1.057291
4356	1.061439
4352	1.064825
4348	1.068615
4344	1.071357
4340	1.073145
4336	1.077389
4332	1.083159
4328	1.089835
4324	1.097774
4320	1.104402
4316	1.108288
4312	1.111125
4308	1.116394
4304	1.121926
4300	1.124882
4296	1.129031
4292	1.135993
4288	1.142811
4284	1.146721
4280	1.148796
4276	1.151871
4272	1.156616
4268	1.162123
4264	1.166844
4260	1.170444
4256	1.173520
4252	1.174831
4248	1.176047
4244	1.179027
4240	1.181840
4236	1.185512
4232	1.190972
4228	1.195311
4224	1.197028
4220	1.197028
4216	1.198959
4212	1.202797
4208	1.205253
4204	1.206517
4200	1.207041
4196	1.209044
4192	1.212644
4188	1.214361
4184	1.214647
4180	1.216053
4176	1.217603
4172	1.218867
4168	1.221799
4164	1.224732
4160	1.226139
4156	1.228189
4152	1.230764
4148	1.233363
4144	1.236438
4140	1.239538
4136	1.242589
4132	1.245498
4128	1.247978
4124	1.251101
4120	1.255488
4116	1.259779
4112	1.262784
4108	1.265907
4104	1.270747
4100	1.276087
4096	1.280617
4092	1.285409
4088	1.292133
4084	1.298522
4080	1.303195
4076	1.307678
4072	1.311469
4068	1.315808
4064	1.322197
4060	1.328611
4056	1.334095
4052	1.339459
4048	1.344084
4044	1.349759
4040	1.357316
4036	1.362895
4032	1.367568
4028	1.373767
4024	1.378560
4020	1.380777
4016	1.383066
4012	1.386809
4008	1.392102
4004	1.398015
4000	1.401782
3996	1.403665
3992	1.405382
3988	1.406931
3984	1.409411
3980	1.412296
3976	1.414251
3972	1.416468
3968	1.419401
3964	1.421999
3960	1.423478
3956	1.424288
3952	1.424956
3948	1.425313
3944	1.426553
3940	1.428794
3936	1.430106
3932	1.429867
3928	1.429915
3924	1.430892
3920	1.432299
3916	1.435518
3912	1.438856
3908	1.436305
3904	1.430153
3900	1.430749
3896	1.436972
3892	1.440072
3888	1.440238
3884	1.442003
3880	1.446199
3876	1.447844
3872	1.446247
3868	1.448678
3864	1.456832
3860	1.458764
3856	1.449298
3852	1.451230
3848	1.467967
3844	1.474285
3840	1.470851
3836	1.475453
3832	1.488566
3828	1.497149
3824	1.496338
3820	1.494812
3816	1.501989
3812	1.512527
3808	1.515650
3804	1.514673
3800	1.519966
3796	1.531505
3792	1.541352
3788	1.546716
3784	1.549768
3780	1.552987
3776	1.556825
3772	1.559686
3768	1.562738
3764	1.565027
3760	1.564383
3756	1.558518
3752	1.548242
3748	1.542735
3744	1.548123
3740	1.557135
3736	1.560902
3732	1.566243
3728	1.575279
3724	1.581358
3720	1.583576
3716	1.580119
3712	1.576566
3708	1.580405
3704	1.585268
3700	1.587200
3696	1.585507
3692	1.578140
3688	1.576447
3684	1.582860
3680	1.580047
3676	1.568508
3672	1.565670
3668	1.575517
3664	1.585626
3660	1.585865
3656	1.579713
3652	1.573109
3648	1.574444
3644	1.584029
3640	1.589465
3636	1.586365
3632	1.578545
3628	1.577854
3624	1.584815
3620	1.587462
3616	1.587319
3612	1.588082
3608	1.592254
3604	1.598858
3600	1.602387
3596	1.603794
3592	1.604127
3588	1.604795
3584	1.608872
3580	1.613664
3576	1.616501
3572	1.616835
3568	1.615452
3564	1.617288
3560	1.622080
3556	1.624917
3552	1.626706
3548	1.629972
3544	1.634263
3540	1.636075
3536	1.634073
3532	1.632142
3528	1.632857
3524	1.635241
3520	1.637411
3516	1.638054
3512	1.637721
3508	1.636910
3504	1.635527
3500	1.633834
3496	1.632094
3492	1.629662
3488	1.627159
3484	1.626110
3480	1.625204
3476	1.623582
3472	1.621198
3468	1.617622
3464	1.614093
3460	1.612019
3456	1.610732
3452	1.607871
3448	1.603317
3444	1.599311
3440	1.596784
3436	1.595473
3432	1.594495
3428	1.593613
3424	1.593756
3420	1.595091
3416	1.597046
3412	1.599264
3408	1.601600
3404	1.604366
3400	1.606965
3396	1.608753
3392	1.611447
3388	1.615118
3384	1.617503
3380	1.619219
3376	1.622152
3372	1.626610
3368	1.631832
3364	1.637172
3360	1.643252
3356	1.649951
3352	1.657438
3348	1.664543
3344	1.669001
3340	1.673698
3336	1.680803
3332	1.687216
3328	1.693058
3324	1.699137
3320	1.704740
3316	1.710796
3312	1.717233
3308	1.723718
3304	1.729512
3300	1.734185
3296	1.739215
3292	1.744771
3288	1.749610
3284	1.753306
3280	1.757860
3276	1.763892
3272	1.768827
3268	1.771473
3264	1.772570
3260	1.774764
3256	1.779484
3252	1.783895
3248	1.787185
3244	1.790308
3240	1.791930
3236	1.792454
3232	1.794576
3228	1.797795
3224	1.799511
3220	1.800084
3216	1.799750
3212	1.799106
3208	1.800036
3204	1.801729
3200	1.802325
3196	1.801443
3192	1.801800
3188	1.804709
3184	1.806950
3180	1.808142
3176	1.810526
3172	1.812481
3168	1.812720
3164	1.813292
3160	1.815104
3156	1.817178
3152	1.819539
3148	1.822710
3144	1.826095
3140	1.830053
3136	1.835322
3132	1.840853
3128	1.846194
3124	1.851534
3120	1.856470
3116	1.861047
3112	1.865768
3108	1.872062
3104	1.880240
3100	1.888298
3096	1.895785
3092	1.903176
3088	1.911258
3084	1.920413
3080	1.929426
3076	1.936578
3072	1.941370
3068	1.945900
3064	1.951217
3060	1.955986
3056	1.961612
3052	1.968741
3048	1.975870
3044	1.982355
3040	1.986885
3036	1.989865
3032	1.990437
3028	1.985979
3024	1.978063
3020	1.972150
3016	1.977610
3012	1.996302
3008	2.017116
3004	2.031564
3000	2.039623
2996	2.043771
2992	2.045011
2988	2.043437
2984	2.038431
2980	2.029037
2976	2.014851
2972	1.994657
2968	1.970076
2964	1.948261
2960	1.936078
2956	1.932859
2952	1.931095
2948	1.920604
2944	1.894903
2940	1.859688
2936	1.825809
2932	1.797223
2928	1.776909
2924	1.778745
2920	1.811599
2916	1.861119
2912	1.905703
2908	1.936149
2904	1.955652
2900	1.970481
2896	1.984095
2892	1.997303
2888	2.008509
2884	2.015376
2880	2.016472
2876	2.011013
2872	1.995682
2868	1.965546
2864	1.930212
2860	1.916956
2856	1.937484
2852	1.976490
2848	2.017474
2844	2.053570
2840	2.082133
2836	2.102303
2832	2.116560
2828	2.129077
2824	2.141952
2820	2.153563
2816	2.162313
2812	2.170157
2808	2.179336
2804	2.187871
2800	2.194213
2796	2.200722
2792	2.207636
2788	2.214121
2784	2.221965
2780	2.230882
2776	2.238321
2772	2.244091
2768	2.248954
2764	2.253007
2760	2.256655
2756	2.260327
2752	2.262020
2748	2.262330
2744	2.263593
2740	2.264332
2736	2.264380
2732	2.266025
2728	2.268624
2724	2.269411
2720	2.267241
2716	2.264523
2712	2.263212
2708	2.261710
2704	2.258205
2700	2.254748
2696	2.253532
2692	2.253413
2688	2.252817
2684	2.251863
2680	2.249264
2676	2.244091
2672	2.239227
2668	2.236485
2664	2.233862
2660	2.230691
2656	2.228474
2652	2.227687
2648	2.227449
2644	2.227830
2640	2.227950
2636	2.226829
2632	2.226614
2628	2.228498
2624	2.230000
2620	2.229237
2616	2.228617
2612	2.231049
2608	2.233982
2604	2.234959
2600	2.235889
2596	2.237558
2592	2.240610
2588	2.245402
2584	2.250576
2580	2.255797
2576	2.262091
2572	2.269506
2568	2.275753
2564	2.280116
2560	2.284955
2556	2.291178
2552	2.296495
2548	2.300643
2544	2.305150
2540	2.309393
2536	2.313637
2532	2.318048
2528	2.321314
2524	2.325177
2520	2.329778
2516	2.332019
2512	2.332305
2508	2.333092
2504	2.335071
2500	2.336263
2496	2.335572
2492	2.334666
2488	2.334761
2484	2.335309
2480	2.334094
2476	2.330827
2472	2.327704
2468	2.325940
2464	2.323675
2460	2.318525
2456	2.312850
2452	2.309656
2448	2.307629
2444	2.303457
2440	2.297806
2436	2.293372
2432	2.289414
2428	2.284693
2424	2.279734
2420	2.275824
2416	2.274155
2412	2.273130
2408	2.271175
2404	2.268743
2400	2.265572
2396	2.261924
2392	2.259016
2388	2.257657
2384	2.256226
2380	2.252984
2376	2.248954
2372	2.245354
2368	2.242231
2364	2.240920
2360	2.243256
2356	2.249932
2352	2.260279
2348	2.268934
2344	2.271771
2340	2.272439
2336	2.275991
2332	2.283430
2328	2.292275
2324	2.300786
2320	2.309536
2316	2.317953
2312	2.325057
2308	2.331995
2304	2.339267
2300	2.345943
2296	2.351975
2292	2.357959
2288	2.363467
2284	2.367353
2280	2.369594
2276	2.372622
2272	2.377772
2268	2.382707
2264	2.385640
2260	2.386832
2256	2.386856
2252	2.387499
2248	2.389264
2244	2.390694
2240	2.390575
2236	2.388978
2232	2.387261
2228	2.385282
2224	2.382469
2220	2.379202
2216	2.376222
2212	2.374410
2208	2.373147
2204	2.371001
2200	2.368164
2196	2.364635
2192	2.360630
2188	2.356958
2184	2.353930
2180	2.351450
2176	2.348709
2172	2.346086
2168	2.343869
2164	2.341818
2160	2.340531
2156	2.339863
2152	2.339196
2148	2.339720
2144	2.341413
2140	2.342057
2136	2.341866
2132	2.342128
2128	2.343058
2124	2.343559
2120	2.343225
2116	2.343416
2112	2.345228
2108	2.347135
2104	2.346611
2100	2.344942
2096	2.344536
2092	2.345013
2088	2.345895
2084	2.347779
2080	2.350640
2076	2.355861
2072	2.363634
2068	2.371954
2064	2.380251
2060	2.388954
2056	2.398085
2052	2.407574
2048	2.416634
2044	2.424550
2040	2.430796
2036	2.436304
2032	2.442002
2028	2.445983
2024	2.448153
2020	2.451348
2016	2.455782
2012	2.459669
2008	2.462077
2004	2.463698
2000	2.464699
1996	2.464413
1992	2.463030
1988	2.461051
1984	2.458500
1980	2.455139
1976	2.451539
1972	2.447581
1968	2.443695
1964	2.441072
1960	2.438282
1956	2.435326
1952	2.433133
1948	2.429366
1944	2.424311
1940	2.420997
1936	2.418160
1932	2.414417
1928	2.409791
1924	2.403903
1920	2.399015
1916	2.396368
1912	2.393412
1908	2.389264
1904	2.385497
1900	2.381563
1896	2.377057
1892	2.374196
1888	2.375698
1884	2.378964
1880	2.380657
1876	2.381396
1872	2.380990
1868	2.382040
1864	2.386903
1860	2.391934
1856	2.395367
1852	2.397108
1848	2.395701
1844	2.397346
1840	2.405905
1836	2.411222
1832	2.410387
1828	2.411675
1824	2.417683
1820	2.424860
1816	2.429914
1812	2.432346
1808	2.433085
1804	2.432489
1800	2.431893
1796	2.429866
1792	2.426695
1788	2.427673
1784	2.430629
1780	2.429366
1776	2.419281
1772	2.409386
1768	2.410411
1764	2.411627
1760	2.407050
1756	2.397918
1752	2.384376
1748	2.372908
1744	2.361154
1740	2.341008
1736	2.319264
1732	2.315902
1728	2.326965
1724	2.324342
1720	2.304077
1716	2.292394
1712	2.296757
1708	2.291774
1704	2.267980
1700	2.243399
1696	2.241253
1692	2.252340
1688	2.243828
1684	2.229571
1680	2.231335
1676	2.229166
1672	2.220797
1668	2.217268
1664	2.213644
1660	2.199625
1656	2.168202
1652	2.145266
1648	2.148795
1644	2.156949
1640	2.150726
1636	2.137255
1632	2.132153
1628	2.125096
1624	2.105093
1620	2.073407
1616	2.034306
1612	1.998257
1608	1.976203
1604	1.978826
1600	1.997160
1596	2.013683
1592	2.022051
1588	2.020621
1584	2.010178
1580	1.992964
1576	1.979827
1572	1.977586
1568	1.972985
1564	1.947736
1560	1.915979
1556	1.919007
1552	1.945734
1548	1.953887
1544	1.947546
1540	1.967167
1536	2.023124
1532	2.077102
1528	2.101516
1524	2.102017
1520	2.098107
1516	2.096414
1512	2.082681
1508	2.050781
1504	1.985907
1500	1.847457
1496	1.698136
1492	1.680564
1488	1.788568
1484	1.902532
1480	1.959848
1476	1.971101
1472	1.968383
1468	1.960253
1464	1.932358
1460	1.872777
1456	1.798582
1452	1.760172
1448	1.785254
1444	1.834058
1440	1.857590
1436	1.862668
1432	1.867437
1428	1.868104
1424	1.861500
1420	1.851844
1416	1.842069
1412	1.816272
1408	1.766681
1404	1.727867
1400	1.731204
1396	1.762056
1392	1.786541
1388	1.788616
1384	1.786684
1380	1.797604
1376	1.808905
1372	1.814174
1368	1.817035
1364	1.817107
1360	1.817250
1356	1.817679
1352	1.816225
1348	1.814460
1344	1.813840
1340	1.816821
1336	1.826882
1332	1.839995
1328	1.849007
1324	1.852726
1320	1.854467
1316	1.856303
1312	1.857089
1308	1.856470
1304	1.856017
1300	1.856637
1296	1.857089
1292	1.856565
1288	1.855421
1284	1.853132
1280	1.847386
1276	1.833963
1272	1.806759
1268	1.763558
1264	1.723718
1260	1.721310
1256	1.758098
1252	1.799535
1248	1.823496
1244	1.832866
1240	1.835465
1236	1.834154
1232	1.829934
1228	1.823592
1224	1.813960
1220	1.799559
1216	1.780414
1212	1.760673
1208	1.747250
1204	1.742649
1200	1.743817
1196	1.744747
1192	1.741337
1188	1.734304
1184	1.724505
1180	1.712703
1176	1.699662
1172	1.684522
1168	1.666831
1164	1.647067
1160	1.628494
1156	1.616954
1152	1.611447
1148	1.606082
1144	1.598978
1140	1.590013
1136	1.576924
1132	1.559400
1128	1.539683
1124	1.519250
1120	1.498556
1116	1.477456
1112	1.457786
1108	1.443696
1104	1.435518
1100	1.430296
1096	1.427125
1092	1.426601
1088	1.427984
1084	1.428246
1080	1.426506
1076	1.427435
1072	1.433563
1068	1.439118
1064	1.437973
1060	1.420688
1056	1.370048
1052	1.310563
1048	1.306629
1044	1.351785
1040	1.383495
1036	1.387429
1032	1.380324
1028	1.370120
1024	1.361823
1020	1.361083
1016	1.368546
1012	1.378941
1008	1.388502
1004	1.396083
1000	1.400208
996	 1.400756
992	 1.397848
988	 1.391696
984	 1.384830
980	 1.377820
976	 1.369142
972	 1.357889
968	 1.344776
964	 1.330995
960	 1.316213
956	 1.301383
952	 1.288151
948	 1.276397
944	 1.267647
940	 1.260495
936	 1.251101
932	 1.240468
928	 1.231718
924	 1.224756
920	 1.216650
916	 1.204323
912	 1.187658
908	 1.171946
904	 1.161193
900	 1.154708
896	 1.149749
892	 1.140546
888	 1.119899
884	 1.086544
880	 1.050877
876	 1.030707
872	 1.036715
868	 1.059842
864	 1.080727
860	 1.090645
856	 1.091480
852	 1.087498
848	 1.082229
844	 1.075243
840	 1.060914
836	 1.027321
832	 0.963330
828	 0.885248
824	 0.846242
820	 0.872111
816	 0.918483
812	 0.942730
808	 0.947809
804	 0.946545
800	 0.945925
796	 0.950551
792	 0.960111
788	 0.970602
784	 0.977158
780	 0.977540
776	 0.974965
772	 0.972151
768	 0.969505
764	 0.966882
760	 0.963568
756	 0.959753
752	 0.955891
748	 0.950622
744	 0.943684
740	 0.935220
736	 0.925207
732	 0.914525
728	 0.903606
724	 0.892233
720	 0.880670
716	 0.868964
712	 0.856685
708	 0.843739
704	 0.830411
700	 0.814843
696	 0.792241
692	 0.761413
688	 0.736212
684	 0.730705
680	 0.734376
676	 0.732111
672	 0.723791
668	 0.714659
664	 0.706291
660	 0.696969
656	 0.686645
652	 0.675487
648	 0.664591
644	 0.654840
640	 0.644540
636	 0.633692
632	 0.624465
628	 0.616049
624	 0.605082
620	 0.591230
616	 0.575399
612	 0.555968
608	 0.536155
604	 0.525736
600	 0.524663
596	 0.522804
592	 0.517201
588	 0.511837
584	 0.508093
580	 0.504946
576	 0.501251
572	 0.495600
568	 0.489521
564	 0.484275
560	 0.478720
556	 0.471878
552	 0.464534
548	 0.457453
544	 0.450539
540	 0.443053
536	 0.435376
532	 0.427579
528	 0.418424
524	 0.408220
520	 0.398921
516	 0.390052
512	 0.380730
508	 0.370645
504	 0.359940
500	 0.347733
496	 0.333046
492	 0.317740
488	 0.303339
484	 0.289058
480	 0.275278
476	 0.263357
472	 0.252246
468	 0.240874
464	 0.228476
460	 0.213479
456	 0.196647
452	 0.181961
448	 0.171113
444	 0.160932
440	 0.149059
436	 0.136709
432	 0.124716
428	 0.111937
424	 0.098824
420	 0.087237
416	 0.076842
412	 0.066161
408	 0.055527
404	 0.046920
400	 0.040102
396	 0.032925
392	 0.025892
388	 0.020670
384	 0.016808
380	 0.013041
376	 0.009822
372	 0.007748
370	 0.007033