File: Bakgrunnsmateriale/MATLAB/FTIR/ftir_data/subCa/Mapping_25/BZ12041010-4_t15.asc
PE IR       SPECTRUM    SPECTRUM    ASCII       PEDS        1.60
  -1
BZ3AB2~1.ASC
17/04/10
10:09:00.00
17/04/10
10:09:27.00
tln
$BZ12041010-4_t0015$<tbV0>[-5.2,-7.2,9.0,0.0,22,1,0]
27.028
64

2002,4.07
MIRTGS : RIGHTBACK : INTERNAL 2
MIR : ON : INTERNAL 2
OPTKBR

0.200000
8
8.000000
FILLER
RATIO
SPECTRUM
UNLOCKED 256

DOUBLE
64
COMBINED
1
0
0

0.002000
RATIO

1
0
TRUE
51149
0
LEFT NOT FITTED RIGHT NOT FITTED 0
NONE
NONE
15600
12
4.427000
51148
TRUE
1 0 8 72 0 0 0 0

15798

#HDR
-1
-1
#GR
µM
%T
2.38419e-05
0.0
2.000000
0.002000
12515
8
79.0025
31.7911
#DATA
2.000000	 64.6822
2.018000	 64.1247
2.036000	 65.2755
2.054000	 63.8291
2.072000	 65.9164
2.090000	 65.7299
2.108000	 65.4311
2.126000	 65.1632
2.144000	 65.2793
2.162000	 65.4139
2.180000	 65.1316
2.198000	 64.8413
2.216000	 65.0801
2.234000	 63.5172
2.252000	 64.8131
2.270000	 64.4612
2.288000	 64.9432
2.306000	 65.4584
2.324000	 65.1844
2.342000	 65.0992
2.360000	 64.9176
2.378000	 65.1159
2.396000	 65.2142
2.414000	 65.3246
2.432000	 65.1101
2.450000	 65.3107
2.468000	 65.2227
2.486000	 64.9347
2.504000	 65.0581
2.522000	 65.213
2.540000	 65.3285
2.558000	 65.1934
2.576000	 65.3878
2.594000	 65.2533
2.612000	 65.1785
2.630000	 65.346
2.648000	 65.2637
2.666000	 65.2343
2.684000	 65.3771
2.702000	 65.2902
2.720000	 65.251
2.738000	 65.2145
2.756000	 65.3275
2.774000	 65.4385
2.792000	 65.3803
2.810000	 65.2256
2.828000	 65.5252
2.846000	 65.3926
2.864000	 65.3695
2.882000	 65.2356
2.900000	 65.178
2.918000	 65.0361
2.936000	 65.328
2.954000	 65.3223
2.972000	 65.0942
2.990000	 65.5934
3.008000	 65.2688
3.026000	 65.1891
3.044000	 65.1762
3.062000	 65.252
3.080000	 65.3589
3.098000	 65.3583
3.116000	 65.2094
3.134000	 65.3961
3.152000	 65.3798
3.170000	 65.3293
3.188000	 65.1929
3.206000	 65.3395
3.224000	 65.3903
3.242000	 65.3149
3.260000	 65.2348
3.278000	 65.2898
3.296000	 65.4632
3.314000	 65.2769
3.332000	 65.1342
3.350000	 65.3939
3.368000	 65.3927
3.386000	 65.1906
3.404000	 65.1387
3.422000	 65.0916
3.440000	 65.2005
3.458000	 65.2577
3.476000	 65.0617
3.494000	 65.1116
3.512000	 65.2912
3.530000	 65.3386
3.548000	 65.3697
3.566000	 65.3962
3.584000	 65.408
3.602000	 65.2043
3.620000	 65.3376
3.638000	 65.4021
3.656000	 65.2927
3.674000	 65.4699
3.692000	 65.4037
3.710000	 65.3259
3.728000	 65.3947
3.746000	 65.4118
3.764000	 65.4174
3.782000	 65.1932
3.800000	 65.2738
3.818000	 65.363
3.836000	 65.3605
3.854000	 65.472
3.872000	 65.2601
3.890000	 65.3561
3.908000	 65.3595
3.926000	 65.3846
3.944000	 65.3258
3.962000	 65.3179
3.980000	 65.3091
3.998000	 65.4048
4.016000	 65.3058
4.034000	 65.2524
4.052000	 65.329
4.070000	 65.2883
4.088000	 65.437
4.106000	 65.5457
4.124000	 65.3748
4.141999	 65.2565
4.160000	 65.3661
4.178000	 65.2832
4.196000	 65.2019
4.214000	 65.3312
4.232000	 65.375
4.250000	 65.4578
4.268000	 65.2646
4.286000	 65.2372
4.304000	 65.4015
4.322000	 65.3176
4.340000	 65.2717
4.358000	 65.3407
4.375999	 65.3562
4.394000	 65.259
4.412000	 65.3449
4.430000	 65.2499
4.448000	 65.2643
4.466000	 65.4083
4.484000	 65.35
4.502000	 65.3343
4.520000	 65.3307
4.538000	 65.4302
4.556000	 65.3032
4.574000	 65.3203
4.592000	 65.4004
4.609999	 65.3776
4.628000	 65.2286
4.646000	 65.2122
4.664000	 65.291
4.682000	 65.2999
4.700000	 65.2868
4.718000	 65.3239
4.736000	 65.4003
4.754000	 65.3398
4.772000	 65.1759
4.790000	 65.2486
4.808000	 65.3697
4.826000	 65.4336
4.843999	 65.4147
4.862000	 65.4319
4.880000	 65.3827
4.898000	 65.3613
4.916000	 65.3636
4.934000	 65.3676
4.952000	 65.3249
4.970000	 65.3805
4.988000	 65.3587
5.006000	 65.3931
5.024000	 65.4396
5.042000	 65.4326
5.060000	 65.3122
5.077999	 65.3245
5.096000	 65.3932
5.114000	 65.3645
5.132000	 65.3699
5.150000	 65.3339
5.168000	 65.3476
5.186000	 65.3673
5.204000	 65.3132
5.222000	 65.3284
5.240000	 65.4098
5.258000	 65.4102
5.276000	 65.3105
5.294000	 65.3068
5.312000	 65.2883
5.330000	 65.2387
5.348000	 65.2778
5.366000	 65.3352
5.384000	 65.355
5.402000	 65.3637
5.420000	 65.4201
5.438000	 65.3473
5.456000	 65.2432
5.474000	 65.3138
5.492000	 65.3421
5.510000	 65.3157
5.528000	 65.3092
5.546000	 65.3271
5.564000	 65.2958
5.582000	 65.2456
5.600000	 65.2578
5.618000	 65.3912
5.636000	 65.3974
5.654000	 65.2682
5.672000	 65.2804
5.690000	 65.3107
5.708000	 65.2663
5.726000	 65.1333
5.744000	 65.0602
5.762000	 65.0754
5.780000	 65.0478
5.798000	 65.0884
5.816000	 65.0748
5.834000	 65.1222
5.852000	 65.1988
5.870000	 65.1414
5.888000	 65.0936
5.906000	 65.1963
5.923999	 65.2243
5.942000	 65.1712
5.960000	 65.2531
5.978000	 65.2006
5.996000	 65.1089
6.014000	 65.1455
6.032000	 65.2847
6.050000	 65.4152
6.068000	 65.2877
6.086000	 65.1742
6.104000	 65.268
6.122000	 65.3239
6.140000	 65.2964
6.158000	 65.2388
6.176000	 65.2542
6.194000	 65.2479
6.212000	 65.2077
6.230000	 65.2465
6.248000	 65.2467
6.266000	 65.2353
6.284000	 65.2644
6.302000	 65.3308
6.320000	 65.3563
6.338000	 65.328
6.356000	 65.2672
6.374000	 65.262
6.392000	 65.2936
6.410000	 65.3553
6.428000	 65.3927
6.446000	 65.3704
6.464000	 65.2789
6.482000	 65.186
6.500000	 65.249
6.518000	 65.3292
6.536000	 65.3106
6.554000	 65.3002
6.572000	 65.3238
6.590000	 65.3355
6.608000	 65.3573
6.626000	 65.3658
6.644000	 65.3431
6.662000	 65.34
6.680000	 65.4105
6.698000	 65.4329
6.716000	 65.3333
6.734000	 65.2564
6.752000	 65.2067
6.770000	 65.1786
6.788000	 65.2144
6.806000	 65.2563
6.824000	 65.309
6.842000	 65.4091
6.860000	 65.4418
6.878000	 65.3513
6.896000	 65.2774
6.914000	 65.2886
6.932000	 65.3223
6.950000	 65.3462
6.968000	 65.3081
6.986000	 65.2397
7.004000	 65.252
7.022000	 65.2935
7.040000	 65.2801
7.058000	 65.2544
7.076000	 65.26
7.094000	 65.2819
7.112000	 65.3223
7.130000	 65.3804
7.148000	 65.3822
7.166000	 65.3072
7.184000	 65.2316
7.202000	 65.1872
7.220000	 65.2052
7.238000	 65.2967
7.256000	 65.3542
7.274000	 65.3331
7.292000	 65.3274
7.310000	 65.3759
7.328000	 65.4201
7.346000	 65.3998
7.364000	 65.3174
7.382000	 65.2422
7.400000	 65.2076
7.418000	 65.1867
7.436000	 65.1839
7.454000	 65.2215
7.472000	 65.2779
7.490000	 65.3271
7.508000	 65.3608
7.526000	 65.3624
7.544000	 65.3253
7.562000	 65.2773
7.580000	 65.2522
7.598000	 65.2622
7.616000	 65.2991
7.634000	 65.3424
7.652000	 65.3587
7.670000	 65.3316
7.688000	 65.291
7.706000	 65.2798
7.724000	 65.3012
7.742000	 65.3214
7.760000	 65.3152
7.778000	 65.2882
7.796000	 65.2597
7.814000	 65.2414
7.832000	 65.2291
7.850000	 65.2132
7.868000	 65.1946
7.886000	 65.1774
7.904000	 65.1577
7.922000	 65.1452
7.940000	 65.1718
7.958000	 65.2403
7.976000	 65.2956
7.994000	 65.2833
8.012000	 65.223
8.030000	 65.1906
8.048000	 65.2223
8.065999	 65.2718
8.084000	 65.276
8.102000	 65.2361
8.120000	 65.2043
8.138000	 65.2092
8.155999	 65.2285
8.173999	 65.2216
8.192000	 65.1729
8.210000	 65.1067
8.228000	 65.071
8.246000	 65.0898
8.263999	 65.1379
8.282000	 65.1772
8.300000	 65.2005
8.318000	 65.2184
8.336000	 65.2277
8.353999	 65.225
8.372000	 65.2308
8.390000	 65.2625
8.408000	 65.2979
8.426000	 65.2966
8.443999	 65.2503
8.462000	 65.1866
8.480000	 65.1338
8.498000	 65.1074
8.516000	 65.1141
8.533999	 65.1477
8.552000	 65.1848
8.570000	 65.201
8.588000	 65.1914
8.606000	 65.1741
8.624000	 65.1723
8.641999	 65.1969
8.660000	 65.2386
8.678000	 65.2758
8.696000	 65.294
8.714000	 65.2988
8.731999	 65.304
8.750000	 65.3078
8.768000	 65.2934
8.786000	 65.2554
8.804000	 65.216
8.821999	 65.2044
8.840000	 65.231
8.858000	 65.2807
8.876000	 65.3284
8.894000	 65.3506
8.911999	 65.3325
8.930000	 65.2787
8.948000	 65.215
8.966000	 65.1708
8.984000	 65.158
9.001999	 65.1682
9.020000	 65.1813
9.038000	 65.1798
9.056000	 65.161
9.074000	 65.1378
9.092000	 65.1278
9.109999	 65.1418
9.128000	 65.1764
9.146000	 65.2147
9.164000	 65.2343
9.182000	 65.2223
9.199999	 65.1836
9.218000	 65.1352
9.236000	 65.0894
9.254000	 65.045
9.272000	 65.0011
9.289999	 64.9724
9.308000	 64.986
9.326000	 65.0561
9.344000	 65.1636
9.362000	 65.2651
9.379999	 65.3217
9.398000	 65.324
9.416000	 65.2907
9.434000	 65.249
9.452000	 65.2148
9.469999	 65.1868
9.488000	 65.1556
9.506000	 65.1204
9.524000	 65.0979
9.542000	 65.1131
9.560000	 65.1776
9.577999	 65.2756
9.596000	 65.3695
9.614000	 65.4213
9.632000	 65.413
9.650000	 65.3517
9.667999	 65.2603
9.686000	 65.1643
9.704000	 65.0857
9.722000	 65.0421
9.740000	 65.0443
9.757999	 65.0906
9.776000	 65.1636
9.794000	 65.2383
9.812000	 65.2963
9.830000	 65.3324
9.847999	 65.3496
9.866000	 65.3513
9.884000	 65.3377
9.902000	 65.3104
9.920000	 65.2785
9.937999	 65.2577
9.956000	 65.2637
9.974000	 65.3012
9.992000	 65.3597
10.01	65.4166
10.028	65.4463
10.046	65.4353
10.064	65.3906
10.082	65.3353
10.1	65.2941
10.118	65.2765
10.136	65.2724
10.154	65.2645
10.172	65.2426
10.19	65.2116
10.208	65.1851
10.226	65.1727
10.244	65.1734
10.262	65.1788
10.28	65.1835
10.298	65.1895
10.316	65.2032
10.334	65.227
10.352	65.2558
10.37	65.2784
10.388	65.2854
10.406	65.2756
10.424	65.2556
10.442	65.2366
10.46	65.2267
10.478	65.2289
10.496	65.2406
10.514	65.2568
10.532	65.2721
10.55	65.2825
10.568	65.2848
10.586	65.2771
10.604	65.2599
10.622	65.2361
10.64	65.2111
10.658	65.1902
10.676	65.1776
10.694	65.1745
10.712	65.18
10.73	65.1928
10.748	65.2122
10.766	65.2379
10.784	65.2691
10.802	65.3024
10.82	65.3324
10.838	65.3525
10.856	65.3581
10.874	65.3478
10.892	65.3249
10.91	65.2955
10.928	65.2664
10.946	65.242
10.964	65.2229
10.982	65.2076
11	65.1943
11.018	65.183
11.036	65.1759
11.054	65.1753
11.072	65.1817
11.09	65.1927
11.108	65.2042
11.126	65.2134
11.144	65.2214
11.162	65.2337
11.18	65.2571
11.198	65.2962
11.216	65.3496
11.234	65.4107
11.252	65.469
11.27	65.5149
11.288	65.5417
11.306	65.5484
11.324	65.5393
11.342	65.5218
11.36	65.5042
11.378	65.4923
11.396	65.4878
11.414	65.4884
11.432	65.4886
11.45	65.4824
11.468	65.466
11.486	65.4394
11.504	65.4062
11.522	65.3726
11.54	65.345
11.558	65.328
11.576	65.3229
11.594	65.3283
11.612	65.3405
11.63	65.3552
11.648	65.3689
11.666	65.3792
11.684	65.386
11.702	65.3912
11.72	65.3977
11.738	65.4089
11.756	65.427
11.774	65.4516
11.792	65.4794
11.81	65.5043
11.828	65.5198
11.846	65.5206
11.864	65.5053
11.882	65.4774
11.9	65.4447
11.918	65.4174
11.936	65.4051
11.954	65.4143
11.972	65.4464
11.99	65.4974
12.008	65.5578
12.026	65.6159
12.044	65.6596
12.062	65.6802
12.08	65.6749
12.098	65.6467
12.116	65.6037
12.134	65.5569
12.152	65.5162
12.17	65.4882
12.188	65.4753
12.206	65.4752
12.224	65.4828
12.242	65.4925
12.26	65.4999
12.278	65.5026
12.296	65.5006
12.314	65.4956
12.332	65.4895
12.35	65.4841
12.368	65.4809
12.386	65.4803
12.404	65.4824
12.422	65.4864
12.44	65.4913
12.458	65.496
12.476	65.4992
12.494	65.5
12.512	65.4978
12.53	65.4927
12.548	65.4853
12.566	65.4768
12.584	65.4685
12.602	65.4619
12.62	65.4589
12.638	65.4607
12.656	65.4679
12.674	65.4807
12.692	65.4983
12.71	65.519
12.728	65.5402
12.746	65.5587
12.764	65.5714
12.782	65.5759
12.8	65.571
12.818	65.5573
12.836	65.5367
12.854	65.5121
12.872	65.487
12.89	65.4646
12.908	65.4468
12.926	65.4343
12.944	65.4263
12.962	65.4214
12.98	65.4177
12.998	65.414
13.016	65.41
13.034	65.4067
13.052	65.4057
13.07	65.409
13.088	65.4182
13.106	65.4342
13.124	65.4561
13.142	65.4817
13.16	65.5075
13.178	65.5293
13.196	65.5436
13.214	65.5479
13.232	65.5419
13.25	65.5274
13.268	65.5081
13.286	65.4886
13.304	65.4736
13.322	65.4663
13.34	65.4682
13.358	65.4787
13.376	65.4953
13.394	65.5145
13.412	65.5325
13.43	65.5464
13.448	65.5545
13.466	65.5564
13.484	65.5531
13.502	65.5459
13.52	65.5365
13.538	65.5259
13.556	65.5148
13.574	65.5034
13.592	65.492
13.61	65.4808
13.628	65.4701
13.646	65.4607
13.664	65.4532
13.682	65.4482
13.7	65.4459
13.718	65.4461
13.736	65.4483
13.754	65.4517
13.772	65.4554
13.79	65.4586
13.808	65.4602
13.826	65.4597
13.844	65.4565
13.862	65.45
13.88	65.4399
13.898	65.4262
13.916	65.4093
13.934	65.39
13.952	65.3698
13.97	65.3506
13.988	65.3345
14.006	65.3233
14.024	65.3185
14.042	65.3205
14.06	65.3285
14.078	65.3411
14.096	65.3562
14.114	65.3714
14.132	65.3847
14.15	65.3947
14.168	65.4007
14.186	65.4026
14.204	65.4012
14.222	65.3977
14.24	65.3936
14.258	65.3902
14.276	65.3881
14.294	65.3877
14.312	65.3893
14.33	65.3925
14.348	65.3975
14.366	65.4038
14.384	65.4118
14.402	65.4217
14.42	65.434
14.438	65.4489
14.456	65.4667
14.474	65.4871
14.492	65.5094
14.51	65.5322
14.528	65.5538
14.546	65.5726
14.564	65.5869
14.582	65.5952
14.6	65.5968
14.618	65.5917
14.636	65.581
14.654	65.5664
14.672	65.5502
14.69	65.5346
14.708	65.5214
14.726	65.5122
14.744	65.5074
14.762	65.5064
14.78	65.5073
14.798	65.5081
14.816	65.5064
14.834	65.4994
14.852	65.4853
14.87	65.4632
14.888	65.4332
14.906	65.3964
14.924	65.3548
14.942	65.3114
14.96	65.2693
14.978	65.2313
14.996	65.1998
15.014	65.1768
15.032	65.1635
15.05	65.1603
15.068	65.1672
15.086	65.1839
15.104	65.2096
15.122	65.243
15.14	65.2823
15.158	65.3253
15.176	65.3695
15.194	65.4117
15.212	65.4481
15.23	65.4758
15.248	65.4921
15.266	65.495
15.284	65.4834
15.302	65.4582
15.32	65.421
15.338	65.3743
15.356	65.3214
15.374	65.2666
15.392	65.2133
15.41	65.1647
15.428	65.1234
15.446	65.0912
15.464	65.0685
15.482	65.0554
15.5	65.0514
15.518	65.0556
15.536	65.0668
15.554	65.0841
15.572	65.1064
15.59	65.1324
15.608	65.161
15.626	65.1911
15.644	65.2215
15.662	65.2502
15.68	65.2761
15.698	65.2977
15.716	65.3137
15.734	65.3237
15.752	65.3278
15.77	65.3264
15.788	65.3211
15.806	65.3137
15.824	65.3056
15.842	65.299
15.86	65.2955
15.878	65.2961
15.896	65.3015
15.914	65.3121
15.932	65.3272
15.95	65.3462
15.968	65.368
15.986	65.3916
16.004	65.4162
16.022	65.4411
16.04	65.4661
16.058	65.491
16.076	65.5158
16.094	65.5405
16.112	65.5649
16.13	65.5885
16.148	65.6107
16.166	65.6301
16.184	65.6456
16.202	65.6557
16.22	65.6588
16.238	65.6541
16.256	65.6409
16.274	65.6195
16.292	65.5911
16.31	65.5568
16.328	65.5197
16.346	65.4828
16.364	65.4484
16.382	65.4206
16.4	65.402
16.418	65.3944
16.436	65.3996
16.454	65.417
16.472	65.4461
16.49	65.4848
16.508	65.5295
16.526	65.5779
16.544	65.6247
16.562	65.6664
16.58	65.7
16.598	65.7214
16.616	65.7297
16.634	65.7237
16.652	65.7039
16.67	65.672
16.688	65.6295
16.706	65.5813
16.724	65.5299
16.742	65.4792
16.76	65.4337
16.778	65.3955
16.796	65.3674
16.814	65.35
16.832	65.3437
16.85	65.3473
16.868	65.3584
16.886	65.3756
16.904	65.3947
16.922	65.4138
16.94	65.4303
16.958	65.4421
16.976	65.4486
16.994	65.4494
17.012	65.4456
17.03	65.438
17.048	65.4292
17.066	65.4204
17.084	65.4139
17.102	65.4113
17.12	65.4135
17.138	65.4211
17.156	65.4334
17.174	65.4499
17.192	65.4683
17.21	65.4875
17.228	65.505
17.246	65.5189
17.264	65.5278
17.282	65.5296
17.3	65.524
17.318	65.5104
17.336	65.4893
17.354	65.461
17.372	65.4273
17.39	65.3887
17.408	65.3474
17.426	65.3045
17.444	65.2609
17.462	65.2184
17.48	65.1772
17.498	65.1388
17.516	65.1037
17.534	65.0726
17.552	65.0465
17.57	65.0255
17.588	65.0107
17.606	65.0025
17.624	65.0014
17.642	65.0082
17.66	65.0231
17.678	65.0462
17.696	65.0776
17.714	65.1169
17.732	65.1636
17.75	65.2168
17.768	65.2751
17.786	65.3379
17.804	65.4028
17.822	65.4695
17.84	65.5357
17.858	65.6005
17.876	65.6627
17.894	65.7211
17.912	65.7753
17.93	65.8245
17.948	65.8688
17.966	65.9081
17.984	65.9429
18.002	65.9735
18.02	66.0007
18.038	66.0248
18.056	66.0469
18.074	66.0672
18.092	66.0863
18.11	66.1043
18.128	66.1211
18.146	66.1366
18.164	66.1504
18.182	66.1619
18.2	66.1703
18.218	66.1748
18.236	66.1747
18.254	66.1687
18.272	66.1566
18.29	66.1374
18.308	66.1112
18.326	66.0778
18.344	66.0374
18.362	65.9907
18.38	65.9383
18.398	65.8816
18.416	65.8218
18.434	65.7604
18.452	65.6993
18.47	65.64
18.488	65.5845
18.506	65.5338
18.524	65.4901
18.542	65.4538
18.56	65.4266
18.578	65.4085
18.596	65.4003
18.614	65.4019
18.632	65.4129
18.65	65.4331
18.668	65.4613
18.686	65.4971
18.704	65.5387
18.722	65.5855
18.74	65.6356
18.758	65.6883
18.776	65.7418
18.794	65.7955
18.812	65.8475
18.83	65.8973
18.848	65.9432
18.866	65.9849
18.884	66.0209
18.902	66.0512
18.92	66.0748
18.938	66.0916
18.956	66.1012
18.974	66.1037
18.992	66.0989
19.01	66.0873
19.028	66.0692
19.046	66.0456
19.064	66.0171
19.082	65.9849
19.1	65.9504
19.118	65.9144
19.136	65.879
19.154	65.8448
19.172	65.8141
19.19	65.7872
19.208	65.7661
19.226	65.7508
19.244	65.7429
19.262	65.742
19.28	65.7488
19.298	65.7629
19.316	65.7835
19.334	65.8107
19.352	65.8424
19.37	65.8788
19.388	65.9172
19.406	65.9577
19.424	65.9977
19.442	66.0371
19.46	66.074
19.478	66.1081
19.496	66.1386
19.514	66.165
19.532	66.1873
19.55	66.2054
19.568	66.2197
19.586	66.2304
19.604	66.2381
19.622	66.2437
19.64	66.2472
19.658	66.2497
19.676	66.2511
19.694	66.2524
19.712	66.2534
19.73	66.2541
19.748	66.2548
19.766	66.2548
19.784	66.2542
19.802	66.2523
19.82	66.2485
19.838	66.2426
19.856	66.2339
19.874	66.2223
19.892	66.2071
19.91	66.1885
19.928	66.1663
19.946	66.1406
19.964	66.1121
19.982	66.0807
20	66.0475
20.018	66.0128
20.036	65.9775
20.054	65.9429
20.072	65.9092
20.09	65.8784
20.108	65.8503
20.126	65.8266
20.144	65.8074
20.162	65.7934
20.18	65.7851
20.198	65.7823
20.216	65.7854
20.234	65.7941
20.252	65.8076
20.27	65.826
20.288	65.8477
20.306	65.8727
20.324	65.8994
20.342	65.9267
20.36	65.9542
20.378	65.9795
20.396	66.0031
20.414	66.0224
20.432	66.0378
20.45	66.0478
20.468	66.0518
20.486	66.0498
20.504	66.0411
20.522	66.0258
20.54	66.004
20.558	65.9756
20.576	65.9415
20.594	65.9018
20.612	65.8573
20.63	65.8095
20.648	65.7579
20.666	65.7052
20.684	65.651
20.702	65.597
20.72	65.5441
20.738	65.4926
20.756	65.4445
20.774	65.3994
20.792	65.3589
20.81	65.3234
20.828	65.293
20.846	65.2689
20.864	65.2507
20.882	65.2388
20.9	65.2333
20.918	65.2336
20.936	65.2399
20.954	65.2517
20.972	65.2678
20.99	65.2886
21.008	65.3125
21.026	65.3393
21.044	65.3685
21.062	65.3985
21.08	65.4299
21.098	65.461
21.116	65.4914
21.134	65.5207
21.152	65.5474
21.17	65.5719
21.188	65.5929
21.206	65.61
21.224	65.6231
21.242	65.6313
21.26	65.6349
21.278	65.6333
21.296	65.6264
21.314	65.6144
21.332	65.5972
21.35	65.5748
21.368	65.5479
21.386	65.5166
21.404	65.4811
21.422	65.4429
21.44	65.4013
21.458	65.3581
21.476	65.3136
21.494	65.2681
21.512	65.2236
21.53	65.1795
21.548	65.1373
21.566	65.0978
21.584	65.0607
21.602	65.0278
21.62	64.9992
21.638	64.975
21.656	64.9559
21.674	64.9416
21.692	64.9329
21.71	64.9299
21.728	64.9327
21.746	64.9419
21.764	64.9573
21.782	64.9794
21.8	65.0089
21.818	65.0455
21.836	65.0899
21.854	65.1423
21.872	65.2026
21.89	65.2713
21.908	65.3483
21.926	65.4336
21.944	65.5274
21.962	65.6295
21.98	65.7383
21.998	65.8542
22.016	65.9761
22.034	66.1015
22.052	66.2319
22.07	66.3632
22.088	66.4928
22.106	66.6221
22.124	66.7442
22.142	66.8589
22.16	66.965
22.178	67.0556
22.196	67.1322
22.214	67.1921
22.232	67.2308
22.25	67.2502
22.268	67.2474
22.286	67.2203
22.304	67.1701
22.322	67.0961
22.34	66.9971
22.358	66.8749
22.376	66.7332
22.394	66.5697
22.412	66.3893
22.43	66.1986
22.448	65.9939
22.466	65.7831
22.484	65.5719
22.502	65.357
22.52	65.1474
22.538	64.9464
22.556	64.7521
22.574	64.5727
22.592	64.4092
22.61	64.2611
22.628	64.1334
22.646	64.0259
22.664	63.9383
22.682	63.8717
22.7	63.8267
22.718	63.801
22.736	63.7926
22.754	63.8033
22.772	63.8284
22.79	63.8644
22.808	63.9137
22.826	63.9699
22.844	64.0291
22.862	64.0939
22.88	64.1578
22.898	64.2177
22.916	64.2757
22.934	64.3263
22.952	64.3681
22.97	64.4021
22.988	64.4246
23.006	64.4346
23.024	64.4329
23.042	64.4188
23.06	64.3915
23.078	64.3518
23.096	64.3013
23.114	64.2391
23.132	64.1663
23.15	64.0864
23.168	63.9989
23.186	63.9044
23.204	63.8064
23.222	63.7038
23.24	63.5979
23.258	63.4925
23.276	63.3871
23.294	63.2822
23.312	63.1814
23.33	63.0838
23.348	62.9903
23.366	62.9047
23.384	62.8268
23.402	62.7565
23.42	62.6959
23.438	62.6441
23.456	62.602
23.474	62.5734
23.492	62.558
23.51	62.5558
23.528	62.5715
23.546	62.605
23.564	62.6559
23.582	62.7306
23.6	62.8307
23.618	62.9542
23.636	63.1069
23.654	63.2913
23.672	63.5049
23.69	63.7524
23.708	64.0375
23.726	64.3576
23.744	64.7145
23.762	65.1102
23.78	65.5444
23.798	66.0151
23.816	66.5209
23.834	67.0648
23.852	67.6413
23.87	68.2436
23.888	68.8767
23.906	69.5349
23.924	70.2053
23.942	70.8911
23.96	71.5906
23.978	72.2864
23.996	72.9751
24.014	73.6624
24.032	74.3297
24.05	74.9664
24.068	75.5831
24.086	76.1644
24.104	76.6957
24.122	77.1864
24.14	77.6286
24.158	78.0094
24.176	78.3321
24.194	78.5963
24.212	78.7955
24.23	78.9265
24.248	78.9929
24.266	78.9965
24.284	78.9371
24.302	78.8129
24.32	78.6322
24.338	78.4017
24.356	78.1138
24.374	77.7788
24.392	77.4118
24.41	77.0078
24.428	76.5691
24.446	76.1124
24.464	75.643
24.482	75.1532
24.5	74.6582
24.518	74.1705
24.536	73.6817
24.554	73.1981
24.572	72.7303
24.59	72.2761
24.608	71.8352
24.626	71.415
24.644	71.0199
24.662	70.6465
24.68	70.2946
24.698	69.9644
24.716	69.6578
24.734	69.3714
24.752	69.1004
24.77	68.8469
24.788	68.6107
24.806	68.383
24.824	68.1585
24.842	67.9435
24.86	67.7303
24.878	67.5096
24.896	67.2844
24.914	67.0543
24.932	66.812
24.95	66.5533
24.968	66.2825
24.986	65.9965
25.004	65.6919
25.022	65.3679
25.04	65.027
25.058	64.672
25.076	64.3031
25.094	63.9184
25.112	63.5233
25.13	63.1227
25.148	62.71
25.166	62.2911
25.184	61.8787
25.202	61.4761
25.22	61.0743
25.238	60.6903
25.256	60.3415
25.274	60.0203
25.292	59.7281
25.31	59.4779
25.328	59.2782
25.346	59.1219
25.364	59.0106
25.382	58.9472
25.4	58.9335
25.418	58.9669
25.436	59.0437
25.454	59.1623
25.472	59.329
25.49	59.5341
25.508	59.7651
25.526	60.0187
25.544	60.3006
25.562	60.6057
25.58	60.9288
25.598	61.2692
25.616	61.6299
25.634	62.0135
25.652	62.4263
25.67	62.8745
25.688	63.3364
25.706	63.788
25.724	64.2353
25.742	64.6853
25.76	65.106
25.778	65.4682
25.796	65.7937
25.814	66.0732
25.832	66.2772
25.85	66.3868
25.868	66.4234
25.886	66.3733
25.904	66.217
25.922	65.9218
25.94	65.4958
25.958	65.0094
25.976	64.5321
25.994	64.0224
26.012	63.4863
26.03	63.0062
26.048	62.6548
26.066	62.3907
26.084	62.2169
26.102	62.1635
26.12	62.2561
26.138	62.4849
26.156	62.8328
26.174	63.2836
26.192	63.882
26.21	64.663
26.228	65.458
26.246	66.0935
26.264	66.5928
26.282	67.0231
26.3	67.2303
26.318	67.0629
26.336	66.5335
26.354	65.6954
26.372	64.5333
26.39	63.0295
26.408	61.1427
26.426	58.9268
26.444	56.4637
26.462	53.7969
26.48	50.7142
26.498	47.4436
26.516	44.3219
26.534	41.5898
26.552	38.9637
26.57	36.602
26.588	34.7605
26.606	33.6333
26.624	33.0889
26.642	33.0856
26.66	33.6075
26.678	34.6841
26.696	36.3896
26.714	38.5553
26.732	40.9947
26.75	43.7207
26.768	47.0195
26.786	50.4001
26.804	53.3205
26.822	55.5188
26.84	57.4104
26.858	58.7493
26.876	59.2384
26.894	58.6549
26.912	57.1342
26.93	54.8273
26.948	51.876
26.966	48.0478
26.984	42.7815
27.002	37.2931
27.02	32.9138
27.028	31.7911