File: Bakgrunnsmateriale/MATLAB/FTIR/ftir_data/subCa/Mapping_25/BZ12041010-4_t19.asc
PE IR       SPECTRUM    SPECTRUM    ASCII       PEDS        1.60
  -1
BZ4AB2~1.ASC
17/04/10
10:27:47.00
17/04/10
10:28:13.00
tln
$BZ12041010-4_t0019$<tbV0>[-2.6,-4.6,9.0,0.0,22,1,0]
27.028
64

2002,4.07
MIRTGS : RIGHTBACK : INTERNAL 2
MIR : ON : INTERNAL 2
OPTKBR

0.200000
8
8.000000
FILLER
RATIO
SPECTRUM
UNLOCKED 256

DOUBLE
64
COMBINED
1
0
0

0.002000
RATIO

1
0
TRUE
51149
0
LEFT NOT FITTED RIGHT NOT FITTED 0
NONE
NONE
15600
12
4.427000
51148
TRUE
1 0 8 72 0 0 0 0

15798

#HDR
-1
-1
#GR
µM
%T
2.38419e-05
0.0
2.000000
0.002000
12515
8
76.4426
9.308828
#DATA
2.000000	 65.1032
2.018000	 64.3217
2.036000	 64.4201
2.054000	 63.7472
2.072000	 65.1054
2.090000	 63.3291
2.108000	 64.6233
2.126000	 64.3486
2.144000	 64.1344
2.162000	 64.3021
2.180000	 64.1059
2.198000	 63.7015
2.216000	 64.3245
2.234000	 65.8661
2.252000	 63.2401
2.270000	 63.43
2.288000	 64.1757
2.306000	 63.9808
2.324000	 64.3072
2.342000	 64.3507
2.360000	 64.4601
2.378000	 64.7918
2.396000	 64.7668
2.414000	 64.6402
2.432000	 64.6059
2.450000	 64.5326
2.468000	 64.4864
2.486000	 64.2582
2.504000	 64.2183
2.522000	 64.2572
2.540000	 64.6493
2.558000	 64.4569
2.576000	 64.6309
2.594000	 64.6067
2.612000	 64.4256
2.630000	 64.7137
2.648000	 64.7133
2.666000	 64.5876
2.684000	 64.6708
2.702000	 64.7893
2.720000	 64.8291
2.738000	 64.6102
2.756000	 64.615
2.774000	 64.6422
2.792000	 64.6697
2.810000	 64.5811
2.828000	 64.3004
2.846000	 64.0768
2.864000	 64.3319
2.882000	 64.2177
2.900000	 64.0957
2.918000	 64.1902
2.936000	 64.3293
2.954000	 64.0775
2.972000	 64.2299
2.990000	 64.3996
3.008000	 64.1913
3.026000	 64.2958
3.044000	 64.3118
3.062000	 64.1591
3.080000	 64.2556
3.098000	 64.2263
3.116000	 64.2603
3.134000	 64.4544
3.152000	 64.5565
3.170000	 64.4081
3.188000	 64.4585
3.206000	 64.4242
3.224000	 64.5008
3.242000	 64.4649
3.260000	 64.4499
3.278000	 64.6348
3.296000	 64.5368
3.314000	 64.4648
3.332000	 64.5541
3.350000	 64.4884
3.368000	 64.7761
3.386000	 64.409
3.404000	 64.2266
3.422000	 64.2724
3.440000	 64.2548
3.458000	 64.3511
3.476000	 64.2392
3.494000	 64.3629
3.512000	 64.3708
3.530000	 64.5081
3.548000	 64.4777
3.566000	 64.5589
3.584000	 64.6486
3.602000	 64.487
3.620000	 64.4817
3.638000	 64.612
3.656000	 64.4215
3.674000	 64.5508
3.692000	 64.4724
3.710000	 64.5127
3.728000	 64.4398
3.746000	 64.6057
3.764000	 64.456
3.782000	 64.4757
3.800000	 64.4303
3.818000	 64.5002
3.836000	 64.4608
3.854000	 64.4216
3.872000	 64.3746
3.890000	 64.5212
3.908000	 64.4528
3.926000	 64.5562
3.944000	 64.5467
3.962000	 64.5072
3.980000	 64.4508
3.998000	 64.5203
4.016000	 64.4483
4.034000	 64.4462
4.052000	 64.4609
4.070000	 64.5393
4.088000	 64.5601
4.106000	 64.5778
4.124000	 64.4733
4.141999	 64.3748
4.160000	 64.5465
4.178000	 64.4132
4.196000	 64.3363
4.214000	 64.3214
4.232000	 64.3861
4.250000	 64.3842
4.268000	 64.4294
4.286000	 64.3832
4.304000	 64.4548
4.322000	 64.3496
4.340000	 64.3235
4.358000	 64.362
4.375999	 64.2848
4.394000	 64.2506
4.412000	 64.2991
4.430000	 64.1822
4.448000	 64.2707
4.466000	 64.3139
4.484000	 64.2992
4.502000	 64.3327
4.520000	 64.341
4.538000	 64.4542
4.556000	 64.304
4.574000	 64.3589
4.592000	 64.4037
4.609999	 64.3673
4.628000	 64.2614
4.646000	 64.2265
4.664000	 64.3394
4.682000	 64.3965
4.700000	 64.3557
4.718000	 64.3993
4.736000	 64.2896
4.754000	 64.3102
4.772000	 64.241
4.790000	 64.1482
4.808000	 64.217
4.826000	 64.3616
4.843999	 64.2467
4.862000	 64.3309
4.880000	 64.2534
4.898000	 64.2273
4.916000	 64.2917
4.934000	 64.2299
4.952000	 64.2441
4.970000	 64.2542
4.988000	 64.2174
5.006000	 64.1864
5.024000	 64.2459
5.042000	 64.2695
5.060000	 64.2203
5.077999	 64.1973
5.096000	 64.2176
5.114000	 64.3577
5.132000	 64.3559
5.150000	 64.1747
5.168000	 64.2785
5.186000	 64.2123
5.204000	 64.2151
5.222000	 64.1935
5.240000	 64.1966
5.258000	 64.189
5.276000	 64.1581
5.294000	 64.1964
5.312000	 64.2167
5.330000	 64.17
5.348000	 64.1719
5.366000	 64.1595
5.384000	 64.1465
5.402000	 64.149
5.420000	 64.1949
5.438000	 64.158
5.456000	 64.1195
5.474000	 64.1112
5.492000	 64.1152
5.510000	 64.1062
5.528000	 64.0718
5.546000	 64.0463
5.564000	 64.0424
5.582000	 63.9831
5.600000	 64.0183
5.618000	 64.0388
5.636000	 64.0273
5.654000	 64.0461
5.672000	 63.9747
5.690000	 63.9976
5.708000	 64.0837
5.726000	 63.9936
5.744000	 63.8897
5.762000	 63.8534
5.780000	 63.8716
5.798000	 63.8755
5.816000	 63.72
5.834000	 63.6798
5.852000	 63.8695
5.870000	 63.904
5.888000	 63.8108
5.906000	 63.8674
5.923999	 63.955
5.942000	 63.9411
5.960000	 63.9473
5.978000	 63.9249
5.996000	 63.8986
6.014000	 63.8797
6.032000	 63.9675
6.050000	 64.1107
6.068000	 64.0686
6.086000	 63.963
6.104000	 63.9888
6.122000	 64.0437
6.140000	 63.9848
6.158000	 63.9512
6.176000	 63.9926
6.194000	 64.0038
6.212000	 64.0261
6.230000	 64.0327
6.248000	 63.977
6.266000	 63.9503
6.284000	 63.9533
6.302000	 63.9582
6.320000	 63.9664
6.338000	 64.0366
6.356000	 64.1003
6.374000	 64.1251
6.392000	 64.1214
6.410000	 64.1737
6.428000	 64.212
6.446000	 64.0669
6.464000	 63.939
6.482000	 63.9599
6.500000	 64.0064
6.518000	 64.0111
6.536000	 64.0137
6.554000	 64.0283
6.572000	 64.039
6.590000	 64.0383
6.608000	 64.0466
6.626000	 64.0489
6.644000	 64.0507
6.662000	 64.1185
6.680000	 64.2129
6.698000	 64.1561
6.716000	 64.0551
6.734000	 64.0108
6.752000	 63.9367
6.770000	 63.8895
6.788000	 63.9249
6.806000	 63.9957
6.824000	 64.0231
6.842000	 64.0108
6.860000	 64.0345
6.878000	 64.0996
6.896000	 64.1451
6.914000	 64.1035
6.932000	 64.0094
6.950000	 63.9497
6.968000	 63.9035
6.986000	 63.8486
7.004000	 63.8181
7.022000	 63.8251
7.040000	 63.869
7.058000	 63.8799
7.076000	 63.8129
7.094000	 63.7682
7.112000	 63.8017
7.130000	 63.8598
7.148000	 63.9016
7.166000	 63.9095
7.184000	 63.8925
7.202000	 63.8561
7.220000	 63.8079
7.238000	 63.8244
7.256000	 63.9143
7.274000	 63.9836
7.292000	 63.9994
7.310000	 63.9855
7.328000	 63.9619
7.346000	 63.9351
7.364000	 63.8825
7.382000	 63.8142
7.400000	 63.779
7.418000	 63.7856
7.436000	 63.8174
7.454000	 63.8585
7.472000	 63.882
7.490000	 63.8869
7.508000	 63.8948
7.526000	 63.8935
7.544000	 63.8512
7.562000	 63.7866
7.580000	 63.748
7.598000	 63.7358
7.616000	 63.7164
7.634000	 63.7075
7.652000	 63.7623
7.670000	 63.862
7.688000	 63.9235
7.706000	 63.9207
7.724000	 63.9083
7.742000	 63.9257
7.760000	 63.9552
7.778000	 63.9608
7.796000	 63.9226
7.814000	 63.8574
7.832000	 63.8047
7.850000	 63.7816
7.868000	 63.7752
7.886000	 63.7763
7.904000	 63.789
7.922000	 63.8161
7.940000	 63.8536
7.958000	 63.8912
7.976000	 63.9158
7.994000	 63.9144
8.012000	 63.8873
8.030000	 63.8679
8.048000	 63.8943
8.065999	 63.9531
8.084000	 63.9865
8.102000	 63.9685
8.120000	 63.9411
8.138000	 63.9551
8.155999	 64.0066
8.173999	 64.0485
8.192000	 64.0515
8.210000	 64.0327
8.228000	 64.0273
8.246000	 64.0477
8.263999	 64.0764
8.282000	 64.0909
8.300000	 64.0881
8.318000	 64.082
8.336000	 64.086
8.353999	 64.1043
8.372000	 64.1369
8.390000	 64.1798
8.408000	 64.222
8.426000	 64.2453
8.443999	 64.2354
8.462000	 64.1925
8.480000	 64.1308
8.498000	 64.0655
8.516000	 64.005
8.533999	 63.9545
8.552000	 63.919
8.570000	 63.9008
8.588000	 63.8958
8.606000	 63.8975
8.624000	 63.8999
8.641999	 63.8973
8.660000	 63.886
8.678000	 63.8678
8.696000	 63.8468
8.714000	 63.8322
8.731999	 63.8385
8.750000	 63.8702
8.768000	 63.9135
8.786000	 63.9512
8.804000	 63.9737
8.821999	 63.9783
8.840000	 63.971
8.858000	 63.9632
8.876000	 63.9602
8.894000	 63.9569
8.911999	 63.9476
8.930000	 63.933
8.948000	 63.9169
8.966000	 63.9014
8.984000	 63.8906
9.001999	 63.8913
9.020000	 63.9037
9.038000	 63.9098
9.056000	 63.8859
9.074000	 63.8275
9.092000	 63.7616
9.109999	 63.7231
9.128000	 63.7242
9.146000	 63.7488
9.164000	 63.7748
9.182000	 63.7937
9.199999	 63.8087
9.218000	 63.8199
9.236000	 63.8161
9.254000	 63.7819
9.272000	 63.7144
9.289999	 63.6343
9.308000	 63.579
9.326000	 63.5799
9.344000	 63.6353
9.362000	 63.71
9.379999	 63.7611
9.398000	 63.771
9.416000	 63.7521
9.434000	 63.7245
9.452000	 63.6929
9.469999	 63.6454
9.488000	 63.5758
9.506000	 63.5031
9.524000	 63.4659
9.542000	 63.4932
9.560000	 63.5786
9.577999	 63.683
9.596000	 63.7622
9.614000	 63.7928
9.632000	 63.7782
9.650000	 63.7381
9.667999	 63.6922
9.686000	 63.6509
9.704000	 63.6167
9.722000	 63.5891
9.740000	 63.5682
9.757999	 63.5532
9.776000	 63.5395
9.794000	 63.5213
9.812000	 63.4979
9.830000	 63.4759
9.847999	 63.466
9.866000	 63.4746
9.884000	 63.4991
9.902000	 63.5287
9.920000	 63.5513
9.937999	 63.561
9.956000	 63.5617
9.974000	 63.5605
9.992000	 63.56
10.01	63.556
10.028	63.542
10.046	63.5168
10.064	63.4855
10.082	63.456
10.1	63.432
10.118	63.4136
10.136	63.4019
10.154	63.4019
10.172	63.4182
10.19	63.4463
10.208	63.4715
10.226	63.4789
10.244	63.4641
10.262	63.4385
10.28	63.4194
10.298	63.4184
10.316	63.4345
10.334	63.4578
10.352	63.4797
10.37	63.4982
10.388	63.516
10.406	63.5337
10.424	63.5473
10.442	63.5528
10.46	63.5515
10.478	63.5513
10.496	63.562
10.514	63.5866
10.532	63.6181
10.55	63.6427
10.568	63.6479
10.586	63.6298
10.604	63.5933
10.622	63.5488
10.64	63.5053
10.658	63.4678
10.676	63.4383
10.694	63.4187
10.712	63.412
10.73	63.4213
10.748	63.4472
10.766	63.4872
10.784	63.537
10.802	63.5922
10.82	63.6495
10.838	63.7058
10.856	63.7583
10.874	63.8036
10.892	63.8374
10.91	63.8559
10.928	63.858
10.946	63.8459
10.964	63.8253
10.982	63.8037
11	63.7872
11.018	63.7785
11.036	63.7755
11.054	63.7732
11.072	63.767
11.09	63.7552
11.108	63.7394
11.126	63.7237
11.144	63.7113
11.162	63.7028
11.18	63.6979
11.198	63.697
11.216	63.7021
11.234	63.7167
11.252	63.7429
11.27	63.7783
11.288	63.815
11.306	63.8434
11.324	63.8563
11.342	63.8538
11.36	63.843
11.378	63.8348
11.396	63.837
11.414	63.851
11.432	63.8706
11.45	63.8864
11.468	63.8906
11.486	63.8806
11.504	63.8602
11.522	63.8366
11.54	63.8171
11.558	63.8063
11.576	63.8062
11.594	63.8162
11.612	63.8351
11.63	63.8607
11.648	63.8896
11.666	63.9158
11.684	63.9321
11.702	63.9321
11.72	63.9125
11.738	63.876
11.756	63.8307
11.774	63.7876
11.792	63.7574
11.81	63.7454
11.828	63.751
11.846	63.7683
11.864	63.7888
11.882	63.8062
11.9	63.8179
11.918	63.8259
11.936	63.8353
11.954	63.8509
11.972	63.8758
11.99	63.9092
12.008	63.9474
12.026	63.9845
12.044	64.0146
12.062	64.0333
12.08	64.0385
12.098	64.03
12.116	64.0089
12.134	63.9779
12.152	63.94
12.17	63.8983
12.188	63.8565
12.206	63.8184
12.224	63.7877
12.242	63.7677
12.26	63.7603
12.278	63.7663
12.296	63.7847
12.314	63.8127
12.332	63.8463
12.35	63.8815
12.368	63.9144
12.386	63.9422
12.404	63.963
12.422	63.9759
12.44	63.9805
12.458	63.9765
12.476	63.9638
12.494	63.943
12.512	63.9156
12.53	63.8846
12.548	63.8548
12.566	63.8313
12.584	63.8194
12.602	63.8227
12.62	63.8418
12.638	63.8739
12.656	63.9132
12.674	63.9519
12.692	63.9829
12.71	64.001
12.728	64.0048
12.746	63.9965
12.764	63.9816
12.782	63.967
12.8	63.9591
12.818	63.9621
12.836	63.9773
12.854	64.0029
12.872	64.0356
12.89	64.0709
12.908	64.1051
12.926	64.1361
12.944	64.1627
12.962	64.1852
12.98	64.2039
12.998	64.2189
13.016	64.2298
13.034	64.2352
13.052	64.2337
13.07	64.2246
13.088	64.2079
13.106	64.1847
13.124	64.1571
13.142	64.1272
13.16	64.0977
13.178	64.0704
13.196	64.0463
13.214	64.0257
13.232	64.0089
13.25	63.9957
13.268	63.9862
13.286	63.9805
13.304	63.9781
13.322	63.9785
13.34	63.9806
13.358	63.9836
13.376	63.9869
13.394	63.9907
13.412	63.9956
13.43	64.0032
13.448	64.0155
13.466	64.0341
13.484	64.0598
13.502	64.0929
13.52	64.1325
13.538	64.1766
13.556	64.2224
13.574	64.2663
13.592	64.3047
13.61	64.3344
13.628	64.3531
13.646	64.3598
13.664	64.3548
13.682	64.3403
13.7	64.3198
13.718	64.2977
13.736	64.2784
13.754	64.266
13.772	64.2635
13.79	64.272
13.808	64.2905
13.826	64.3162
13.844	64.3448
13.862	64.3714
13.88	64.391
13.898	64.3994
13.916	64.3937
13.934	64.373
13.952	64.3382
13.97	64.2916
13.988	64.2367
14.006	64.1781
14.024	64.1203
14.042	64.0679
14.06	64.0243
14.078	63.9924
14.096	63.9742
14.114	63.9704
14.132	63.981
14.15	64.0046
14.168	64.039
14.186	64.0813
14.204	64.1276
14.222	64.1741
14.24	64.217
14.258	64.2534
14.276	64.281
14.294	64.2989
14.312	64.3073
14.33	64.3075
14.348	64.3016
14.366	64.2924
14.384	64.2822
14.402	64.2731
14.42	64.2658
14.438	64.2606
14.456	64.2568
14.474	64.2531
14.492	64.248
14.51	64.24
14.528	64.2285
14.546	64.213
14.564	64.194
14.582	64.1721
14.6	64.1488
14.618	64.1256
14.636	64.1048
14.654	64.0884
14.672	64.0781
14.69	64.0756
14.708	64.0815
14.726	64.0959
14.744	64.1174
14.762	64.1437
14.78	64.1719
14.798	64.1982
14.816	64.2191
14.834	64.2308
14.852	64.2306
14.87	64.2171
14.888	64.1906
14.906	64.1527
14.924	64.1062
14.942	64.0552
14.96	64.0042
14.978	63.9571
14.996	63.9171
15.014	63.887
15.032	63.8682
15.05	63.8611
15.068	63.8653
15.086	63.8802
15.104	63.9045
15.122	63.9368
15.14	63.9753
15.158	64.0181
15.176	64.0627
15.194	64.1063
15.212	64.1455
15.23	64.1773
15.248	64.1994
15.266	64.2098
15.284	64.2078
15.302	64.1944
15.32	64.1717
15.338	64.1426
15.356	64.1112
15.374	64.0825
15.392	64.06
15.41	64.0465
15.428	64.0443
15.446	64.0534
15.464	64.0721
15.482	64.0981
15.5	64.128
15.518	64.1573
15.536	64.1828
15.554	64.2021
15.572	64.2131
15.59	64.2156
15.608	64.2105
15.626	64.1992
15.644	64.1842
15.662	64.1683
15.68	64.1534
15.698	64.1413
15.716	64.1332
15.734	64.129
15.752	64.1284
15.77	64.1307
15.788	64.1343
15.806	64.1381
15.824	64.1411
15.842	64.1424
15.86	64.1417
15.878	64.1394
15.896	64.1359
15.914	64.1326
15.932	64.1306
15.95	64.1305
15.968	64.133
15.986	64.1384
16.004	64.146
16.022	64.1551
16.04	64.1639
16.058	64.1706
16.076	64.1738
16.094	64.1713
16.112	64.162
16.13	64.1454
16.148	64.1212
16.166	64.0904
16.184	64.0542
16.202	64.0141
16.22	63.9728
16.238	63.9323
16.256	63.8946
16.274	63.8622
16.292	63.8364
16.31	63.8184
16.328	63.8089
16.346	63.8078
16.364	63.8148
16.382	63.8285
16.4	63.8474
16.418	63.8703
16.436	63.8947
16.454	63.9189
16.472	63.9414
16.49	63.9602
16.508	63.9739
16.526	63.9819
16.544	63.9831
16.562	63.9778
16.58	63.966
16.598	63.9486
16.616	63.9267
16.634	63.9011
16.652	63.8739
16.67	63.8461
16.688	63.819
16.706	63.7945
16.724	63.7733
16.742	63.7564
16.76	63.7445
16.778	63.7379
16.796	63.7367
16.814	63.7406
16.832	63.7492
16.85	63.7616
16.868	63.7769
16.886	63.7946
16.904	63.8129
16.922	63.8309
16.94	63.8473
16.958	63.8607
16.976	63.8702
16.994	63.8745
17.012	63.8731
17.03	63.8655
17.048	63.8514
17.066	63.8312
17.084	63.8054
17.102	63.7756
17.12	63.7427
17.138	63.7092
17.156	63.6771
17.174	63.6481
17.192	63.6253
17.21	63.6097
17.228	63.6036
17.246	63.6076
17.264	63.6221
17.282	63.6465
17.3	63.6799
17.318	63.7204
17.336	63.7653
17.354	63.8131
17.372	63.8593
17.39	63.9027
17.408	63.9397
17.426	63.9687
17.444	63.9882
17.462	63.9973
17.48	63.9962
17.498	63.9851
17.516	63.9657
17.534	63.9388
17.552	63.9076
17.57	63.8729
17.588	63.8383
17.606	63.8051
17.624	63.7753
17.642	63.7504
17.66	63.7315
17.678	63.7196
17.696	63.7149
17.714	63.7176
17.732	63.7276
17.75	63.7446
17.768	63.7677
17.786	63.7966
17.804	63.8301
17.822	63.8677
17.84	63.908
17.858	63.9504
17.876	63.9937
17.894	64.0367
17.912	64.0787
17.93	64.1178
17.948	64.1536
17.966	64.1847
17.984	64.2109
18.002	64.2314
18.02	64.2466
18.038	64.2563
18.056	64.2618
18.074	64.2632
18.092	64.2626
18.11	64.2602
18.128	64.2586
18.146	64.2581
18.164	64.2607
18.182	64.2668
18.2	64.2777
18.218	64.2935
18.236	64.3146
18.254	64.3406
18.272	64.3714
18.29	64.4057
18.308	64.4433
18.326	64.4827
18.344	64.5234
18.362	64.564
18.38	64.6042
18.398	64.6428
18.416	64.68
18.434	64.7151
18.452	64.7484
18.47	64.7798
18.488	64.8098
18.506	64.8384
18.524	64.8661
18.542	64.893
18.56	64.9195
18.578	64.9456
18.596	64.9712
18.614	64.996
18.632	65.0192
18.65	65.0407
18.668	65.0587
18.686	65.0732
18.704	65.0825
18.722	65.0863
18.74	65.083
18.758	65.0726
18.776	65.0544
18.794	65.0286
18.812	64.995
18.83	64.9542
18.848	64.9069
18.866	64.8541
18.884	64.797
18.902	64.737
18.92	64.6759
18.938	64.615
18.956	64.5562
18.974	64.5006
18.992	64.4498
19.01	64.4044
19.028	64.3658
19.046	64.334
19.064	64.3096
19.082	64.2922
19.1	64.2817
19.118	64.2773
19.136	64.2783
19.154	64.2839
19.172	64.2926
19.19	64.304
19.208	64.3166
19.226	64.3302
19.244	64.3432
19.262	64.3558
19.28	64.3674
19.298	64.3782
19.316	64.3884
19.334	64.3981
19.352	64.4089
19.37	64.4207
19.388	64.4353
19.406	64.4525
19.424	64.4743
19.442	64.5005
19.46	64.5324
19.478	64.5701
19.496	64.6135
19.514	64.6627
19.532	64.7165
19.55	64.7749
19.568	64.8361
19.586	64.8984
19.604	64.9608
19.622	65.0203
19.64	65.0766
19.658	65.1257
19.676	65.168
19.694	65.1997
19.712	65.2214
19.73	65.2307
19.748	65.2274
19.766	65.2116
19.784	65.1825
19.802	65.1418
19.82	65.0896
19.838	65.0276
19.856	64.9578
19.874	64.881
19.892	64.8011
19.91	64.7179
19.928	64.6363
19.946	64.5558
19.964	64.4803
19.982	64.4103
20	64.3478
20.018	64.2942
20.036	64.2496
20.054	64.2154
20.072	64.1913
20.09	64.1771
20.108	64.1731
20.126	64.1776
20.144	64.1911
20.162	64.2116
20.18	64.2386
20.198	64.2708
20.216	64.3061
20.234	64.3446
20.252	64.3834
20.27	64.423
20.288	64.4606
20.306	64.4962
20.324	64.5285
20.342	64.5565
20.36	64.5801
20.378	64.5981
20.396	64.6107
20.414	64.6173
20.432	64.6181
20.45	64.6132
20.468	64.6024
20.486	64.5864
20.504	64.566
20.522	64.5409
20.54	64.5129
20.558	64.4816
20.576	64.4488
20.594	64.415
20.612	64.3808
20.63	64.348
20.648	64.3164
20.666	64.2881
20.684	64.2629
20.702	64.2421
20.72	64.2266
20.738	64.2163
20.756	64.2124
20.774	64.2147
20.792	64.2236
20.81	64.2395
20.828	64.2619
20.846	64.2904
20.864	64.325
20.882	64.3639
20.9	64.4077
20.918	64.4542
20.936	64.5022
20.954	64.5515
20.972	64.5986
20.99	64.6444
21.008	64.686
21.026	64.7221
21.044	64.7525
21.062	64.7747
21.08	64.7892
21.098	64.7948
21.116	64.7908
21.134	64.7776
21.152	64.7553
21.17	64.7236
21.188	64.6844
21.206	64.6375
21.224	64.5841
21.242	64.5269
21.26	64.4649
21.278	64.4022
21.296	64.339
21.314	64.2767
21.332	64.2192
21.35	64.1651
21.368	64.1182
21.386	64.0794
21.404	64.0489
21.422	64.0292
21.44	64.0199
21.458	64.0216
21.476	64.035
21.494	64.0593
21.512	64.0937
21.53	64.1387
21.548	64.1921
21.566	64.2527
21.584	64.3207
21.602	64.3924
21.62	64.4685
21.638	64.5465
21.656	64.6228
21.674	64.6987
21.692	64.7708
21.71	64.8381
21.728	64.9006
21.746	64.9561
21.764	65.0046
21.782	65.0465
21.8	65.0814
21.818	65.1096
21.836	65.1332
21.854	65.1516
21.872	65.1664
21.89	65.1807
21.908	65.1933
21.926	65.2074
21.944	65.2252
21.962	65.2457
21.98	65.272
21.998	65.3045
22.016	65.3432
22.034	65.3899
22.052	65.4447
22.07	65.5063
22.088	65.5744
22.106	65.6493
22.124	65.7268
22.142	65.8073
22.16	65.8895
22.178	65.9675
22.196	66.0433
22.214	66.1135
22.232	66.1735
22.25	66.2253
22.268	66.2651
22.286	66.2905
22.304	66.3028
22.322	66.3
22.34	66.2809
22.358	66.2469
22.376	66.1997
22.394	66.1377
22.412	66.0642
22.43	65.9835
22.448	65.8931
22.466	65.7986
22.484	65.7043
22.502	65.6076
22.52	65.5149
22.538	65.4289
22.556	65.348
22.574	65.2777
22.592	65.2189
22.61	65.171
22.628	65.1359
22.646	65.1146
22.664	65.1053
22.682	65.1063
22.7	65.1195
22.718	65.1408
22.736	65.1659
22.754	65.1976
22.772	65.2299
22.79	65.2576
22.808	65.2842
22.826	65.3028
22.844	65.3092
22.862	65.3062
22.88	65.2885
22.898	65.2531
22.916	65.2021
22.934	65.1338
22.952	65.0469
22.97	64.9425
22.988	64.8227
23.006	64.6863
23.024	64.5346
23.042	64.3743
23.06	64.2043
23.078	64.0261
23.096	63.8486
23.114	63.6704
23.132	63.4933
23.15	63.3276
23.168	63.1721
23.186	63.0281
23.204	62.9038
23.222	62.7983
23.24	62.7122
23.258	62.6516
23.276	62.6164
23.294	62.6059
23.312	62.6224
23.33	62.6665
23.348	62.7369
23.366	62.832
23.384	62.9534
23.402	63.0989
23.42	63.2636
23.438	63.4485
23.456	63.6524
23.474	63.8687
23.492	64.0974
23.51	64.3386
23.528	64.5851
23.546	64.8356
23.564	65.0915
23.582	65.347
23.6	65.6001
23.618	65.8526
23.636	66.1005
23.654	66.3411
23.672	66.5762
23.69	66.8049
23.708	67.0259
23.726	67.2395
23.744	67.4472
23.762	67.6496
23.78	67.8458
23.798	68.0378
23.816	68.2281
23.834	68.4152
23.852	68.6004
23.87	68.7859
23.888	68.9705
23.906	69.1553
23.924	69.3434
23.942	69.5346
23.96	69.7287
23.978	69.9281
23.996	70.1339
24.014	70.3453
24.032	70.5619
24.05	70.784
24.068	71.0124
24.086	71.2439
24.104	71.4759
24.122	71.7107
24.14	71.9453
24.158	72.1755
24.176	72.4036
24.194	72.6276
24.212	72.8418
24.23	73.0464
24.248	73.2425
24.266	73.4233
24.284	73.5856
24.302	73.733
24.32	73.8604
24.338	73.9625
24.356	74.042
24.374	74.0978
24.392	74.1277
24.41	74.131
24.428	74.1091
24.446	74.0625
24.464	73.9904
24.482	73.8927
24.5	73.7735
24.518	73.6362
24.536	73.4771
24.554	73.3009
24.572	73.1137
24.59	72.9133
24.608	72.7006
24.626	72.4824
24.644	72.2616
24.662	72.0344
24.68	71.8065
24.698	71.5831
24.716	71.3611
24.734	71.1424
24.752	70.9308
24.77	70.7268
24.788	70.529
24.806	70.3399
24.824	70.1609
24.842	69.9905
24.86	69.83
24.878	69.6813
24.896	69.544
24.914	69.4179
24.932	69.3034
24.95	69.2009
24.968	69.11
24.986	69.0308
25.004	68.9637
25.022	68.9091
25.04	68.8662
25.058	68.834
25.076	68.8123
25.094	68.8017
25.112	68.8008
25.13	68.8085
25.148	68.8269
25.166	68.8538
25.184	68.8851
25.202	68.9194
25.22	68.9593
25.238	69.0007
25.256	69.0396
25.274	69.0818
25.292	69.1227
25.31	69.1509
25.328	69.1624
25.346	69.1674
25.364	69.1493
25.382	69.0896
25.4	68.9906
25.418	68.8562
25.436	68.677
25.454	68.445
25.472	68.1647
25.49	67.8366
25.508	67.4602
25.526	67.0321
25.544	66.5533
25.562	66.0325
25.58	65.4776
25.598	64.8782
25.616	64.2428
25.634	63.5889
25.652	62.9344
25.67	62.2788
25.688	61.5983
25.706	60.8684
25.724	60.0976
25.742	59.2928
25.76	58.4149
25.778	57.4277
25.796	56.351
25.814	55.1817
25.832	53.8973
25.85	52.4808
25.868	50.9435
25.886	49.288
25.904	47.5148
25.922	45.581
25.94	43.4828
25.958	41.3435
25.976	39.2852
25.994	37.2372
26.012	35.2076
26.03	33.3371
26.048	31.7496
26.066	30.3736
26.084	29.2144
26.102	28.3239
26.12	27.7438
26.138	27.4532
26.156	27.4314
26.174	27.6612
26.192	28.2056
26.21	29.1089
26.228	30.1411
26.246	31.0657
26.264	31.915
26.282	32.7798
26.3	33.4474
26.318	33.709
26.336	33.5787
26.354	33.1314
26.372	32.3503
26.39	31.2153
26.408	29.6714
26.426	27.7873
26.444	25.6698
26.462	23.3748
26.48	20.6248
26.498	17.7173
26.516	15.093
26.534	13.0694
26.552	11.2877
26.57	9.934282
26.588	9.318388
26.606	9.683486
26.624	10.8907
26.642	12.8467
26.66	15.4833
26.678	18.8232
26.696	23.0192
26.714	27.7838
26.732	32.7949
26.75	38.0416
26.768	43.9747
26.786	49.8722
26.804	54.9338
26.822	58.7834
26.84	62.0472
26.858	64.3269
26.876	65.1452
26.894	64.1758
26.912	61.6749
26.93	57.7756
26.948	52.5878
26.966	45.5596
26.984	35.7096
27.002	25.3824
27.02	17.1313
27.028	15.0221