File: Bakgrunnsmateriale/MATLAB/FTIR/ftir_data/subCa/Mapping_25/BZ12041010-4_t21_cm-1.asc
PE IR       SPECTRUM    SPECTRUM    ASCII       PEDS        1.60
  -1
BZAC74~1.ASC
17/04/10
10:44:32.00
17/04/10
10:44:32.00
tln
$BZ12041010-4_t0021$<tbV0>[5.2,-2.0,9.0,0.0,22,1,0]
370
64

2002,4.07
MIRTGS : RIGHTBACK : INTERNAL 2
MIR : ON : INTERNAL 2
OPTKBR

0.200000
8
8.000000
FILLER
RATIO
SPECTRUM
UNLOCKED 256

DOUBLE
64
COMBINED
1
0
0

1.000000
RATIO

1
0
TRUE
51149
0
LEFT NOT FITTED RIGHT NOT FITTED 0
NONE
NONE
15600
12
4.427000
51148
TRUE
1 0 8 72 0 0 0 0

15798

#HDR
-1
-1
#GR
CM-1
%T
2.38419e-05
0.0
5000
-1.000000
4631
8
69.9213
34.671
#DATA
5000	53.7279
4996	53.6105
4992	53.5114
4988	53.4091
4984	53.414
4980	53.5937
4976	53.8542
4972	53.8169
4968	53.2657
4964	52.5953
4960	52.3434
4956	52.6377
4952	53.3153
4948	53.938
4944	54.0315
4940	53.8128
4936	53.5702
4932	53.4799
4928	53.688
4924	53.8018
4920	53.5863
4916	53.6672
4912	54.2116
4908	53.7707
4904	52.3454
4900	52.2842
4896	53.289
4892	53.5002
4888	53.2777
4884	53.0971
4880	53.2517
4876	53.9071
4872	54.1949
4868	53.7428
4864	52.8285
4860	52.4897
4856	53.9496
4852	54.7567
4848	53.2639
4844	52.6409
4840	53.8663
4836	54.7928
4832	54.0879
4828	53.1033
4824	53.4727
4820	53.8446
4816	53.2458
4812	53.1784
4808	53.2955
4804	52.7489
4800	52.7977
4796	53.3789
4792	53.7873
4788	54.0238
4784	53.7109
4780	53.3992
4776	53.523
4772	53.6673
4768	53.8209
4764	53.7561
4760	53.6468
4756	53.8216
4752	54.0156
4748	54.1022
4744	53.9639
4740	53.6477
4736	53.6523
4732	53.7948
4728	53.606
4724	53.5643
4720	53.7363
4716	53.767
4712	53.6774
4708	53.6046
4704	53.7384
4700	53.8643
4696	53.8917
4692	53.8772
4688	53.8404
4684	53.7634
4680	53.474
4676	53.2593
4672	53.3061
4668	53.3263
4664	53.2356
4660	53.2398
4656	53.3897
4652	53.497
4648	53.4188
4644	53.3899
4640	53.5792
4636	53.6264
4632	53.4826
4628	53.5776
4624	53.9326
4620	54.0711
4616	53.7618
4612	53.3758
4608	53.2457
4604	53.3259
4600	53.5028
4596	53.6647
4592	53.7473
4588	53.752
4584	53.812
4580	53.8528
4576	53.7694
4572	53.6641
4568	53.5696
4564	53.616
4560	53.7553
4556	53.7705
4552	53.7781
4548	53.8297
4544	53.6879
4540	53.4059
4536	53.2481
4532	53.1565
4528	53.1749
4524	53.4506
4520	53.8009
4516	53.9654
4512	53.7761
4508	53.5168
4504	53.5369
4500	53.6602
4496	53.8857
4492	53.8865
4488	53.4673
4484	53.2698
4480	53.1953
4476	52.7995
4472	53.2521
4468	54.8341
4464	52.7627
4460	50.5138
4456	55.438
4452	59.0789
4448	55.8557
4444	53.7457
4440	53.8689
4436	53.9799
4432	53.8366
4428	53.8095
4424	53.9023
4420	53.7435
4416	53.6399
4412	53.6459
4408	53.4665
4404	53.2926
4400	53.3182
4396	53.3849
4392	53.3558
4388	53.5055
4384	53.8117
4380	53.8074
4376	53.5532
4372	53.452
4368	53.6017
4364	53.9105
4360	54.101
4356	54.0336
4352	53.9805
4348	54.0268
4344	54.0321
4340	53.9897
4336	53.8369
4332	53.7088
4328	53.7287
4324	53.7092
4320	53.7434
4316	53.8616
4312	53.8777
4308	53.758
4304	53.6464
4300	53.639
4296	53.5553
4292	53.6143
4288	53.9635
4284	54.1864
4280	54.1752
4276	54.0917
4272	54.0479
4268	54.0066
4264	54.0055
4260	54.0904
4256	54.0725
4252	53.9308
4248	53.8007
4244	53.7433
4240	53.7401
4236	53.7226
4232	53.622
4228	53.6008
4224	53.679
4220	53.6495
4216	53.6866
4212	53.8507
4208	53.7764
4204	53.4813
4200	53.3256
4196	53.3328
4192	53.4522
4188	53.627
4184	53.7052
4180	53.751
4176	53.8344
4172	53.8472
4168	53.7534
4164	53.6201
4160	53.5815
4156	53.7825
4152	53.9287
4148	53.7687
4144	53.5202
4140	53.3992
4136	53.533
4132	53.7013
4128	53.6298
4124	53.5933
4120	53.7801
4116	53.9738
4112	54.1258
4108	54.1343
4104	53.9783
4100	53.8618
4096	53.788
4092	53.7691
4088	53.8695
4084	53.8931
4080	53.7349
4076	53.6856
4072	53.8999
4068	54.0146
4064	53.7967
4060	53.6749
4056	53.8163
4052	53.9854
4048	54.1356
4044	54.2004
4040	54.1776
4036	54.1855
4032	54.2064
4028	54.0854
4024	53.8437
4020	53.6109
4016	53.5498
4012	53.6847
4008	53.7568
4004	53.732
4000	53.7533
3996	53.7981
3992	53.8101
3988	53.7833
3984	53.7585
3980	53.8078
3976	53.8033
3972	53.736
3968	53.7361
3964	53.6426
3960	53.5577
3956	53.6404
3952	53.6297
3948	53.5502
3944	53.5968
3940	53.6331
3936	53.5703
3932	53.5459
3928	53.6202
3924	53.6556
3920	53.5979
3916	53.5851
3912	53.658
3908	53.712
3904	53.7245
3900	53.697
3896	53.6631
3892	53.7458
3888	53.8369
3884	53.8108
3880	53.7592
3876	53.7547
3872	53.8043
3868	53.8722
3864	53.9137
3860	53.9488
3856	53.9386
3852	53.8157
3848	53.7135
3844	53.7224
3840	53.7699
3836	53.8035
3832	53.8039
3828	53.7809
3824	53.7685
3820	53.8295
3816	53.8532
3812	53.7817
3808	53.788
3804	53.8659
3800	53.8992
3796	53.8821
3792	53.836
3788	53.8862
3784	54.0153
3780	53.9621
3776	53.8143
3772	53.7671
3768	53.776
3764	53.8418
3760	53.9538
3756	54.005
3752	53.9338
3748	53.8177
3744	53.7444
3740	53.7057
3736	53.7175
3732	53.7941
3728	53.7864
3724	53.7016
3720	53.754
3716	53.8316
3712	53.7551
3708	53.6274
3704	53.5671
3700	53.637
3696	53.7675
3692	53.8247
3688	53.7926
3684	53.7636
3680	53.7718
3676	53.7761
3672	53.7851
3668	53.7539
3664	53.6896
3660	53.6893
3656	53.7667
3652	53.8699
3648	53.9084
3644	53.8418
3640	53.7199
3636	53.6223
3632	53.6194
3628	53.7233
3624	53.842
3620	53.881
3616	53.9011
3612	53.9832
3608	54.032
3604	53.934
3600	53.8002
3596	53.8316
3592	53.9453
3588	53.9195
3584	53.8452
3580	53.8835
3576	53.9504
3572	53.966
3568	53.9692
3564	53.9424
3560	53.8491
3556	53.7665
3552	53.7974
3548	53.9137
3544	53.9649
3540	53.9406
3536	53.955
3532	53.9958
3528	53.988
3524	53.8746
3520	53.7719
3516	53.8436
3512	53.9331
3508	53.8924
3504	53.8241
3500	53.8145
3496	53.8053
3492	53.7471
3488	53.7022
3484	53.6972
3480	53.6461
3476	53.5398
3472	53.5242
3468	53.6191
3464	53.6892
3460	53.6823
3456	53.669
3452	53.6868
3448	53.7325
3444	53.7611
3440	53.7349
3436	53.7078
3432	53.688
3428	53.6796
3424	53.7216
3420	53.8178
3416	53.9051
3412	53.872
3408	53.7554
3404	53.7094
3400	53.7418
3396	53.7752
3392	53.79
3388	53.7705
3384	53.7494
3380	53.8039
3376	53.8742
3372	53.8664
3368	53.8031
3364	53.7724
3360	53.7982
3356	53.8419
3352	53.9038
3348	53.9337
3344	53.9148
3340	53.8941
3336	53.8489
3332	53.7934
3328	53.8059
3324	53.8685
3320	53.938
3316	53.9947
3312	53.927
3308	53.7869
3304	53.7642
3300	53.7815
3296	53.7764
3292	53.8198
3288	53.8487
3284	53.8152
3280	53.7781
3276	53.7713
3272	53.784
3268	53.7719
3264	53.7819
3260	53.8664
3256	53.9131
3252	53.8648
3248	53.7673
3244	53.692
3240	53.6939
3236	53.746
3232	53.8246
3228	53.8489
3224	53.7641
3220	53.668
3216	53.6407
3212	53.6759
3208	53.7212
3204	53.7015
3200	53.615
3196	53.5238
3192	53.4985
3188	53.5317
3184	53.5588
3180	53.6119
3176	53.6385
3172	53.6261
3168	53.6375
3164	53.6293
3160	53.6065
3156	53.624
3152	53.7093
3148	53.7734
3144	53.7508
3140	53.7117
3136	53.6997
3132	53.6906
3128	53.7455
3124	53.8696
3120	53.8805
3116	53.8088
3112	53.7712
3108	53.7369
3104	53.7606
3100	53.8283
3096	53.8712
3092	53.9278
3088	53.9505
3084	53.936
3080	53.9221
3076	53.9136
3072	53.9469
3068	53.9629
3064	53.9288
3060	53.8891
3056	53.9057
3052	53.931
3048	53.8554
3044	53.773
3040	53.7814
3036	53.8624
3032	53.9434
3028	53.9033
3024	53.7948
3020	53.7691
3016	53.7833
3012	53.7676
3008	53.7703
3004	53.7793
3000	53.7524
2996	53.7065
2992	53.6585
2988	53.6277
2984	53.6216
2980	53.599
2976	53.5479
2972	53.4777
2968	53.4193
2964	53.3998
2960	53.4598
2956	53.588
2952	53.6635
2948	53.6474
2944	53.5479
2940	53.4848
2936	53.5491
2932	53.593
2928	53.5669
2924	53.5063
2920	53.4464
2916	53.4783
2912	53.5343
2908	53.5904
2904	53.7036
2900	53.7416
2896	53.7218
2892	53.7605
2888	53.7606
2884	53.7217
2880	53.7432
2876	53.7779
2872	53.7695
2868	53.7595
2864	53.8018
2860	53.836
2856	53.7949
2852	53.728
2848	53.6678
2844	53.6773
2840	53.7792
2836	53.8663
2832	53.905
2828	53.9174
2824	53.9416
2820	53.983
2816	53.9795
2812	53.9232
2808	53.8904
2804	53.9155
2800	53.9046
2796	53.8514
2792	53.8139
2788	53.8247
2784	53.8973
2780	53.9123
2776	53.8342
2772	53.7804
2768	53.768
2764	53.7689
2760	53.7885
2756	53.8006
2752	53.8245
2748	53.8592
2744	53.8299
2740	53.7765
2736	53.7481
2732	53.7318
2728	53.751
2724	53.7537
2720	53.7303
2716	53.7354
2712	53.7354
2708	53.7057
2704	53.6878
2700	53.689
2696	53.7129
2692	53.7791
2688	53.7959
2684	53.7613
2680	53.789
2676	53.8535
2672	53.8504
2668	53.7923
2664	53.7384
2660	53.6949
2656	53.7092
2652	53.7559
2648	53.7604
2644	53.7406
2640	53.738
2636	53.7504
2632	53.7344
2628	53.7524
2624	53.8797
2620	53.9444
2616	53.8171
2612	53.7314
2608	53.8289
2604	53.9095
2600	53.912
2596	53.9125
2592	53.9414
2588	53.9846
2584	53.9438
2580	53.883
2576	53.9046
2572	53.9406
2568	53.9633
2564	53.9704
2560	53.9121
2556	53.8286
2552	53.8237
2548	53.8893
2544	53.9188
2540	53.8533
2536	53.7567
2532	53.751
2528	53.8407
2524	53.9021
2520	53.8782
2516	53.8332
2512	53.8333
2508	53.8642
2504	53.8348
2500	53.752
2496	53.7282
2492	53.7616
2488	53.7761
2484	53.7474
2480	53.7284
2476	53.7548
2472	53.7899
2468	53.8562
2464	53.9159
2460	53.8558
2456	53.7544
2452	53.7373
2448	53.7584
2444	53.7525
2440	53.7529
2436	53.8
2432	53.8426
2428	53.83
2424	53.8308
2420	53.87
2416	53.8496
2412	53.7876
2408	53.7746
2404	53.7845
2400	53.7718
2396	53.7437
2392	53.7142
2388	53.7081
2384	53.7466
2380	53.7949
2376	53.8504
2372	53.9195
2368	53.9361
2364	53.8905
2360	53.8691
2356	53.8903
2352	53.9089
2348	53.9021
2344	53.8586
2340	53.8126
2336	53.7945
2332	53.8095
2328	53.8296
2324	53.8365
2320	53.8595
2316	53.864
2312	53.8455
2308	53.8707
2304	53.8868
2300	53.842
2296	53.7916
2292	53.7376
2288	53.7148
2284	53.7556
2280	53.8143
2276	53.8618
2272	53.8523
2268	53.7781
2264	53.715
2260	53.7259
2256	53.7785
2252	53.8308
2248	53.849
2244	53.8019
2240	53.7405
2236	53.7401
2232	53.7632
2228	53.7089
2224	53.6335
2220	53.6504
2216	53.7163
2212	53.7474
2208	53.741
2204	53.7014
2200	53.64
2196	53.5894
2192	53.5431
2188	53.5323
2184	53.6454
2180	53.7472
2176	53.7132
2172	53.7328
2168	53.7954
2164	53.7981
2160	53.8391
2156	53.8746
2152	53.8176
2148	53.7799
2144	53.789
2140	53.7533
2136	53.718
2132	53.7441
2128	53.7656
2124	53.7386
2120	53.6978
2116	53.6641
2112	53.6725
2108	53.7386
2104	53.789
2100	53.8
2096	53.8301
2092	53.8757
2088	53.8945
2084	53.9021
2080	53.8762
2076	53.8156
2072	53.776
2068	53.7624
2064	53.7959
2060	53.8302
2056	53.7698
2052	53.6831
2048	53.6676
2044	53.7087
2040	53.7566
2036	53.7737
2032	53.7458
2028	53.695
2024	53.6723
2020	53.7264
2016	53.7841
2012	53.7709
2008	53.7508
2004	53.7405
2000	53.6786
1996	53.6298
1992	53.6987
1988	53.7448
1984	53.6824
1980	53.6436
1976	53.6619
1972	53.6696
1968	53.6034
1964	53.5155
1960	53.5059
1956	53.5319
1952	53.5573
1948	53.5805
1944	53.5379
1940	53.4685
1936	53.5042
1932	53.6111
1928	53.6487
1924	53.6243
1920	53.6218
1916	53.6062
1912	53.5611
1908	53.5524
1904	53.5555
1900	53.541
1896	53.5224
1892	53.5347
1888	53.5668
1884	53.5604
1880	53.5731
1876	53.6278
1872	53.6303
1868	53.6077
1864	53.6193
1860	53.6213
1856	53.6218
1852	53.6334
1848	53.63
1844	53.6442
1840	53.6715
1836	53.6942
1832	53.7213
1828	53.7382
1824	53.736
1820	53.7054
1816	53.6727
1812	53.6833
1808	53.7497
1804	53.8011
1800	53.7529
1796	53.6677
1792	53.6393
1788	53.6717
1784	53.7046
1780	53.7107
1776	53.6984
1772	53.6386
1768	53.5893
1764	53.5845
1760	53.5573
1756	53.5362
1752	53.5405
1748	53.4903
1744	53.3741
1740	53.2877
1736	53.2736
1732	53.3002
1728	53.3548
1724	53.4037
1720	53.3978
1716	53.3792
1712	53.3858
1708	53.3655
1704	53.3438
1700	53.3725
1696	53.3912
1692	53.3881
1688	53.4055
1684	53.3748
1680	53.3113
1676	53.3148
1672	53.3432
1668	53.3805
1664	53.4539
1660	53.504
1656	53.4987
1652	53.4739
1648	53.4457
1644	53.4124
1640	53.3892
1636	53.3699
1632	53.4036
1628	53.4859
1624	53.511
1620	53.501
1616	53.4865
1612	53.4878
1608	53.5389
1604	53.5635
1600	53.5427
1596	53.5515
1592	53.584
1588	53.6072
1584	53.5969
1580	53.5254
1576	53.5055
1572	53.5696
1568	53.5654
1564	53.5421
1560	53.5796
1556	53.577
1552	53.5587
1548	53.5569
1544	53.549
1540	53.5815
1536	53.6169
1532	53.626
1528	53.6386
1524	53.6194
1520	53.5141
1516	53.3962
1512	53.3813
1508	53.4257
1504	53.4375
1500	53.4099
1496	53.3764
1492	53.4132
1488	53.4866
1484	53.4808
1480	53.4577
1476	53.4641
1472	53.4337
1468	53.3853
1464	53.3712
1460	53.36
1456	53.3479
1452	53.3712
1448	53.3948
1444	53.369
1440	53.3317
1436	53.3545
1432	53.4424
1428	53.506
1424	53.4764
1420	53.4287
1416	53.4111
1412	53.3712
1408	53.3337
1404	53.3533
1400	53.3827
1396	53.3674
1392	53.3392
1388	53.3476
1384	53.3755
1380	53.3863
1376	53.4324
1372	53.5085
1368	53.5171
1364	53.4911
1360	53.507
1356	53.5357
1352	53.5631
1348	53.6008
1344	53.6136
1340	53.5794
1336	53.5217
1332	53.4723
1328	53.4635
1324	53.506
1320	53.5902
1316	53.6817
1312	53.7145
1308	53.6736
1304	53.6291
1300	53.564
1296	53.4751
1292	53.4615
1288	53.4754
1284	53.4525
1280	53.4118
1276	53.4179
1272	53.5031
1268	53.5203
1264	53.4217
1260	53.3417
1256	53.3178
1252	53.3252
1248	53.3434
1244	53.344
1240	53.3215
1236	53.2895
1232	53.3017
1228	53.3341
1224	53.3092
1220	53.253
1216	53.1803
1212	53.1108
1208	53.15
1204	53.2863
1200	53.4596
1196	53.6054
1192	53.5735
1188	53.4266
1184	53.3504
1180	53.3308
1176	53.3244
1172	53.3346
1168	53.3393
1164	53.376
1160	53.4681
1156	53.5548
1152	53.5605
1148	53.4862
1144	53.4721
1140	53.4926
1136	53.459
1132	53.486
1128	53.563
1124	53.5747
1120	53.5803
1116	53.5893
1112	53.5333
1108	53.4765
1104	53.4185
1100	53.3233
1096	53.2842
1092	53.3161
1088	53.3388
1084	53.3487
1080	53.3254
1076	53.2183
1072	53.1406
1068	53.1712
1064	53.2483
1060	53.3095
1056	53.2928
1052	53.2527
1048	53.3278
1044	53.4536
1040	53.5288
1036	53.6041
1032	53.6426
1028	53.6235
1024	53.6107
1020	53.6373
1016	53.6596
1012	53.605
1008	53.5785
1004	53.6547
1000	53.7017
996	 53.6466
992	 53.5893
988	 53.582
984	 53.6092
980	 53.6846
976	 53.7126
972	 53.6545
968	 53.6441
964	 53.7368
960	 53.7889
956	 53.671
952	 53.5146
948	 53.4899
944	 53.6182
940	 53.7557
936	 53.736
932	 53.6515
928	 53.6717
924	 53.6855
920	 53.5767
916	 53.5088
912	 53.5518
908	 53.5739
904	 53.5905
900	 53.6855
896	 53.7657
892	 53.7366
888	 53.617
884	 53.5125
880	 53.5748
876	 53.6896
872	 53.69
868	 53.7026
864	 53.6901
860	 53.5938
856	 53.5621
852	 53.5727
848	 53.5211
844	 53.4862
840	 53.5201
836	 53.5299
832	 53.4705
828	 53.4752
824	 53.6574
820	 53.8087
816	 53.8407
812	 53.8382
808	 53.7486
804	 53.5773
800	 53.4364
796	 53.4649
792	 53.5617
788	 53.5736
784	 53.5076
780	 53.4314
776	 53.4422
772	 53.4797
768	 53.4751
764	 53.4823
760	 53.5162
756	 53.5487
752	 53.5521
748	 53.5735
744	 53.6338
740	 53.578
736	 53.3922
732	 53.3094
728	 53.3821
724	 53.4894
720	 53.5794
716	 53.6272
712	 53.6086
708	 53.4972
704	 53.3851
700	 53.4074
696	 53.4511
692	 53.4906
688	 53.6327
684	 53.8397
680	 53.9652
676	 53.837
672	 53.6053
668	 53.5521
664	 53.6012
660	 53.6443
656	 53.7323
652	 53.7857
648	 53.7498
644	 53.6808
640	 53.5465
636	 53.3818
632	 53.3093
628	 53.3675
624	 53.5011
620	 53.5259
616	 53.4934
612	 53.6543
608	 53.8538
604	 53.8711
600	 53.8186
596	 54.0107
592	 54.4086
588	 54.5464
584	 54.4407
580	 54.4023
576	 54.3831
572	 54.3227
568	 54.3744
564	 54.4484
560	 54.2933
556	 54.0459
552	 54.0025
548	 54.1959
544	 54.4329
540	 54.4616
536	 54.4449
532	 54.384
528	 54.3241
524	 54.5329
520	 54.6927
516	 54.5166
512	 54.3246
508	 54.2461
504	 54.2372
500	 54.1227
496	 53.8279
492	 53.6914
488	 53.61
484	 53.8912
480	 54.6362
476	 54.7363
472	 54.0308
468	 53.2146
464	 53.0318
460	 53.87
456	 54.5021
452	 54.1844
448	 54.0765
444	 54.2365
440	 54.1229
436	 53.9141
432	 53.4333
428	 53.4268
424	 53.5988
420	 53.3451
416	 53.5494
412	 56.4381
408	 64.0488
404	 69.7396
400	 68.5352
396	 65.6013
392	 54.8378
388	 39.0872
384	 34.7549
380	 41.076
376	 60.4012
372	 58.561
370	 42.4068