File: Bakgrunnsmateriale/MATLAB/FTIR/ftir_data/subCa/Mapping_25/BZ12041010-4_e28.asc
PE IR       SPECTRUM    SPECTRUM    ASCII       PEDS        1.60
  -1
BZ2EBC~1.ASC
17/04/10
10:38:40.00
17/04/10
10:39:07.00
tln
$BZ12041010-4_e0028$<ebV0>[-23.0,28.0,5.5,0.0,22,1,0]
27.028
64

2002,4.07
MIRTGS : RIGHTBACK : INTERNAL 2
MIR : ON : INTERNAL 2
OPTKBR

0.200000
8
8.000000
FILLER
SINGLE
SPECTRUM
UNLOCKED 256

DOUBLE

COMBINED
1
0
0

0.002000
BACKG

1
0
TRUE
51149
0
LEFT NOT FITTED RIGHT NOT FITTED 0
NONE
NONE
15600
12
4.427000
51148
TRUE
1 0 8 72 0 0 0 0

15798

#HDR
-1
-1
#GR
µM
EGY
2.38419e-05
0.0
2.000000
0.002000
12515
8
2.462606
0.013208
#DATA
2.000000	 0.778555
2.018000	 0.801931
2.036000	 0.811618
2.054000	 0.838775
2.072000	 0.855060
2.090000	 0.891536
2.108000	 0.906795
2.126000	 0.918184
2.144000	 0.921809
2.162000	 0.930768
2.180000	 0.949244
2.198000	 0.974906
2.216000	 0.991307
2.234000	 1.009279
2.252000	 1.019144
2.270000	 1.023443
2.288000	 1.039235
2.306000	 1.076155
2.324000	 1.122726
2.342000	 1.153035
2.360000	 1.187200
2.378000	 1.205087
2.396000	 1.219597
2.414000	 1.242525
2.432000	 1.263684
2.450000	 1.302317
2.468000	 1.340915
2.486000	 1.377922
2.504000	 1.404083
2.522000	 1.419838
2.540000	 1.430580
2.558000	 1.436181
2.576000	 1.445381
2.594000	 1.453416
2.612000	 1.498269
2.630000	 1.523788
2.648000	 1.556716
2.666000	 1.555333
2.684000	 1.583612
2.702000	 1.591797
2.720000	 1.573518
2.738000	 1.579136
2.756000	 1.583460
2.774000	 1.598856
2.792000	 1.612459
2.810000	 1.628258
2.828000	 1.633979
2.846000	 1.639743
2.864000	 1.631470
2.882000	 1.620282
2.900000	 1.604187
2.918000	 1.592732
2.936000	 1.599696
2.954000	 1.615071
2.972000	 1.637691
2.990000	 1.668565
3.008000	 1.698175
3.026000	 1.726394
3.044000	 1.752518
3.062000	 1.774447
3.080000	 1.788238
3.098000	 1.793860
3.116000	 1.799861
3.134000	 1.803481
3.152000	 1.807535
3.170000	 1.818208
3.188000	 1.836158
3.206000	 1.855173
3.224000	 1.885112
3.242000	 1.914633
3.260000	 1.940145
3.278000	 1.969647
3.296000	 1.989058
3.314000	 1.970141
3.332000	 2.033642
3.350000	 2.036554
3.368000	 1.977967
3.386000	 1.930666
3.404000	 1.836956
3.422000	 1.788505
3.440000	 1.941419
3.458000	 1.995828
3.476000	 2.012881
3.494000	 1.916685
3.512000	 2.025029
3.530000	 2.111721
3.548000	 2.153239
3.566000	 2.184422
3.584000	 2.208696
3.602000	 2.234088
3.620000	 2.252840
3.638000	 2.260195
3.656000	 2.265794
3.674000	 2.265952
3.692000	 2.259363
3.710000	 2.251002
3.728000	 2.245749
3.746000	 2.236914
3.764000	 2.230725
3.782000	 2.225531
3.800000	 2.225544
3.818000	 2.227430
3.836000	 2.231348
3.854000	 2.236927
3.872000	 2.249947
3.890000	 2.269433
3.908000	 2.286416
3.926000	 2.296544
3.944000	 2.313262
3.962000	 2.322573
3.980000	 2.327726
3.998000	 2.332727
4.016000	 2.334696
4.034000	 2.330031
4.052000	 2.324036
4.070000	 2.313258
4.088000	 2.300779
4.106000	 2.290417
4.124000	 2.280334
4.141999	 2.270573
4.160000	 2.262425
4.178000	 2.259363
4.196000	 2.255278
4.214000	 2.245736
4.232000	 2.240115
4.250000	 2.259278
4.268000	 2.270621
4.286000	 2.282733
4.304000	 2.302321
4.322000	 2.321664
4.340000	 2.337415
4.358000	 2.353185
4.375999	 2.366718
4.394000	 2.373168
4.412000	 2.380956
4.430000	 2.385852
4.448000	 2.385493
4.466000	 2.386724
4.484000	 2.383046
4.502000	 2.381361
4.520000	 2.373639
4.538000	 2.367071
4.556000	 2.361570
4.574000	 2.355303
4.592000	 2.346977
4.609999	 2.342620
4.628000	 2.340111
4.646000	 2.337896
4.664000	 2.337238
4.682000	 2.338120
4.700000	 2.338780
4.718000	 2.341561
4.736000	 2.345411
4.754000	 2.345553
4.772000	 2.343555
4.790000	 2.345413
4.808000	 2.350586
4.826000	 2.362709
4.843999	 2.377252
4.862000	 2.395434
4.880000	 2.411231
4.898000	 2.426220
4.916000	 2.436956
4.934000	 2.445879
4.952000	 2.450325
4.970000	 2.456158
4.988000	 2.461692
5.006000	 2.462504
5.024000	 2.459170
5.042000	 2.457192
5.060000	 2.450867
5.077999	 2.442694
5.096000	 2.437613
5.114000	 2.433411
5.132000	 2.427288
5.150000	 2.422564
5.168000	 2.416712
5.186000	 2.409268
5.204000	 2.399504
5.222000	 2.393686
5.240000	 2.387820
5.258000	 2.380111
5.276000	 2.376434
5.294000	 2.375996
5.312000	 2.377758
5.330000	 2.379158
5.348000	 2.381397
5.366000	 2.389257
5.384000	 2.395806
5.402000	 2.397299
5.420000	 2.397095
5.438000	 2.406552
5.456000	 2.410258
5.474000	 2.413240
5.492000	 2.422150
5.510000	 2.427683
5.528000	 2.431739
5.546000	 2.432517
5.564000	 2.431760
5.582000	 2.430050
5.600000	 2.432375
5.618000	 2.430024
5.636000	 2.418499
5.654000	 2.416392
5.672000	 2.415777
5.690000	 2.406297
5.708000	 2.389490
5.726000	 2.374508
5.744000	 2.353765
5.762000	 2.328915
5.780000	 2.326809
5.798000	 2.327330
5.816000	 2.309124
5.834000	 2.302115
5.852000	 2.298608
5.870000	 2.274210
5.888000	 2.254522
5.906000	 2.259596
5.923999	 2.251227
5.942000	 2.239892
5.960000	 2.241280
5.978000	 2.231432
5.996000	 2.221831
6.014000	 2.212575
6.032000	 2.190692
6.050000	 2.163644
6.068000	 2.161896
6.086000	 2.163774
6.104000	 2.150008
6.122000	 2.137104
6.140000	 2.127723
6.158000	 2.106433
6.176000	 2.070961
6.194000	 2.023767
6.212000	 1.982553
6.230000	 1.974163
6.248000	 1.993972
6.266000	 2.012741
6.284000	 2.019622
6.302000	 2.015700
6.320000	 2.004351
6.338000	 1.990347
6.356000	 1.984497
6.374000	 1.981144
6.392000	 1.960956
6.410000	 1.932720
6.428000	 1.935123
6.446000	 1.955679
6.464000	 1.959113
6.482000	 1.960375
6.500000	 1.996663
6.518000	 2.056273
6.536000	 2.097348
6.554000	 2.110590
6.572000	 2.110023
6.590000	 2.106541
6.608000	 2.096851
6.626000	 2.073581
6.644000	 2.020864
6.662000	 1.895919
6.680000	 1.731379
6.698000	 1.672560
6.716000	 1.758787
6.734000	 1.878772
6.752000	 1.950162
6.770000	 1.972447
6.788000	 1.974298
6.806000	 1.968804
6.824000	 1.949239
6.842000	 1.905008
6.860000	 1.836172
6.878000	 1.774465
6.896000	 1.764974
6.914000	 1.805604
6.932000	 1.846427
6.950000	 1.861578
6.968000	 1.865731
6.986000	 1.869282
7.004000	 1.869922
7.022000	 1.865865
7.040000	 1.857806
7.058000	 1.847082
7.076000	 1.827340
7.094000	 1.789402
7.112000	 1.745663
7.130000	 1.725527
7.148000	 1.739483
7.166000	 1.769183
7.184000	 1.789887
7.202000	 1.791245
7.220000	 1.786052
7.238000	 1.791634
7.256000	 1.804000
7.274000	 1.811564
7.292000	 1.814330
7.310000	 1.815894
7.328000	 1.816486
7.346000	 1.816457
7.364000	 1.816023
7.382000	 1.814796
7.400000	 1.813311
7.418000	 1.812328
7.436000	 1.812046
7.454000	 1.813777
7.472000	 1.819677
7.490000	 1.829418
7.508000	 1.839604
7.526000	 1.847167
7.544000	 1.851545
7.562000	 1.853999
7.580000	 1.855460
7.598000	 1.855747
7.616000	 1.855022
7.634000	 1.854540
7.652000	 1.854875
7.670000	 1.855376
7.688000	 1.855832
7.706000	 1.856627
7.724000	 1.857096
7.742000	 1.856451
7.760000	 1.855037
7.778000	 1.853325
7.796000	 1.850566
7.814000	 1.845362
7.832000	 1.835744
7.850000	 1.819206
7.868000	 1.793877
7.886000	 1.761710
7.904000	 1.731488
7.922000	 1.716672
7.940000	 1.725409
7.958000	 1.752554
7.976000	 1.783822
7.994000	 1.807945
8.012000	 1.822557
8.030000	 1.830472
8.048000	 1.833986
8.065999	 1.834491
8.084000	 1.833326
8.102000	 1.831521
8.120000	 1.828953
8.138000	 1.824961
8.155999	 1.819192
8.173999	 1.811546
8.192000	 1.802170
8.210000	 1.790977
8.228000	 1.778536
8.246000	 1.766123
8.263999	 1.755746
8.282000	 1.748917
8.300000	 1.745397
8.318000	 1.743871
8.336000	 1.742992
8.353999	 1.741879
8.372000	 1.740043
8.390000	 1.737319
8.408000	 1.733457
8.426000	 1.728188
8.443999	 1.721606
8.462000	 1.714586
8.480000	 1.707587
8.498000	 1.700543
8.516000	 1.692653
8.533999	 1.683286
8.552000	 1.672591
8.570000	 1.661140
8.588000	 1.649410
8.606000	 1.638037
8.624000	 1.627951
8.641999	 1.619965
8.660000	 1.614321
8.678000	 1.610706
8.696000	 1.607984
8.714000	 1.604816
8.731999	 1.600491
8.750000	 1.595201
8.768000	 1.589231
8.786000	 1.582695
8.804000	 1.575124
8.821999	 1.566229
8.840000	 1.556057
8.858000	 1.544774
8.876000	 1.532829
8.894000	 1.520654
8.911999	 1.508530
8.930000	 1.496721
8.948000	 1.485226
8.966000	 1.474231
8.984000	 1.463733
9.001999	 1.453740
9.020000	 1.444619
9.038000	 1.437074
9.056000	 1.431575
9.074000	 1.428046
9.092000	 1.425866
9.109999	 1.424230
9.128000	 1.423156
9.146000	 1.422928
9.164000	 1.423807
9.182000	 1.425388
9.199999	 1.426963
9.218000	 1.427897
9.236000	 1.427872
9.254000	 1.427335
9.272000	 1.427060
9.289999	 1.427780
9.308000	 1.429842
9.326000	 1.432926
9.344000	 1.436278
9.362000	 1.439040
9.379999	 1.440347
9.398000	 1.439154
9.416000	 1.433775
9.434000	 1.421392
9.452000	 1.399647
9.469999	 1.369404
9.488000	 1.336623
9.506000	 1.310676
9.524000	 1.300006
9.542000	 1.307022
9.560000	 1.326794
9.577999	 1.350214
9.596000	 1.369336
9.614000	 1.380587
9.632000	 1.384707
9.650000	 1.384130
9.667999	 1.381293
9.686000	 1.377355
9.704000	 1.373060
9.722000	 1.368722
9.740000	 1.364816
9.757999	 1.361745
9.776000	 1.360007
9.794000	 1.359668
9.812000	 1.360905
9.830000	 1.363666
9.847999	 1.367737
9.866000	 1.372614
9.884000	 1.377899
9.902000	 1.382879
9.920000	 1.387196
9.937999	 1.390706
9.956000	 1.393426
9.974000	 1.395476
9.992000	 1.396984
10.01	1.397943
10.028	1.398348
10.046	1.398015
10.064	1.396890
10.082	1.395040
10.1	1.392653
10.118	1.389891
10.136	1.386937
10.154	1.383974
10.172	1.380959
10.19	1.377916
10.208	1.374631
10.226	1.371068
10.244	1.367048
10.262	1.362473
10.28	1.357412
10.298	1.351897
10.316	1.346133
10.334	1.340239
10.352	1.334298
10.37	1.328382
10.388	1.322485
10.406	1.316634
10.424	1.310832
10.442	1.305103
10.46	1.299389
10.478	1.293723
10.496	1.288155
10.514	1.282919
10.532	1.278126
10.55	1.273846
10.568	1.270002
10.586	1.266522
10.604	1.263361
10.622	1.260373
10.64	1.257485
10.658	1.254687
10.676	1.251894
10.694	1.248987
10.712	1.245878
10.73	1.242490
10.748	1.238892
10.766	1.235227
10.784	1.231683
10.802	1.228347
10.82	1.225290
10.838	1.222350
10.856	1.219220
10.874	1.215625
10.892	1.211263
10.91	1.205977
10.928	1.199831
10.946	1.193124
10.964	1.186304
10.982	1.179821
11	1.174058
11.018	1.169194
11.036	1.165197
11.054	1.161834
11.072	1.158932
11.09	1.156267
11.108	1.153664
11.126	1.151270
11.144	1.148880
11.162	1.146448
11.18	1.143807
11.198	1.140542
11.216	1.136311
11.234	1.130756
11.252	1.123556
11.27	1.114631
11.288	1.103994
11.306	1.091786
11.324	1.078630
11.342	1.065241
11.36	1.052546
11.378	1.041583
11.396	1.033319
11.414	1.028426
11.432	1.027220
11.45	1.029623
11.468	1.035063
11.486	1.042715
11.504	1.051570
11.522	1.060657
11.54	1.069199
11.558	1.076594
11.576	1.082563
11.594	1.087101
11.612	1.090208
11.63	1.092073
11.648	1.092963
11.666	1.093029
11.684	1.092451
11.702	1.091404
11.72	1.090000
11.738	1.088366
11.756	1.086601
11.774	1.084768
11.792	1.082921
11.81	1.080962
11.828	1.078801
11.846	1.076225
11.864	1.072909
11.882	1.068629
11.9	1.062914
11.918	1.055388
11.936	1.045592
11.954	1.033107
11.972	1.017639
11.99	0.999024
12.008	0.977480
12.026	0.953642
12.044	0.928690
12.062	0.904193
12.08	0.882099
12.098	0.864237
12.116	0.852099
12.134	0.846557
12.152	0.847676
12.17	0.854593
12.188	0.865945
12.206	0.879890
12.224	0.894604
12.242	0.908553
12.26	0.920664
12.278	0.930422
12.296	0.937606
12.314	0.942485
12.332	0.945428
12.35	0.946932
12.368	0.947308
12.386	0.947037
12.404	0.946444
12.422	0.945701
12.44	0.945051
12.458	0.944689
12.476	0.944639
12.494	0.945040
12.512	0.945892
12.53	0.947174
12.548	0.948836
12.566	0.950891
12.584	0.953267
12.602	0.955926
12.62	0.958813
12.638	0.961843
12.656	0.964927
12.674	0.968006
12.692	0.970878
12.71	0.973491
12.728	0.975748
12.746	0.977632
12.764	0.979020
12.782	0.979919
12.8	0.980417
12.818	0.980469
12.836	0.980208
12.854	0.979667
12.872	0.978954
12.89	0.978084
12.908	0.977150
12.926	0.976224
12.944	0.975301
12.962	0.974380
12.98	0.973462
12.998	0.972550
13.016	0.971604
13.034	0.970600
13.052	0.969615
13.07	0.968568
13.088	0.967491
13.106	0.966391
13.124	0.965293
13.142	0.964172
13.16	0.963029
13.178	0.961894
13.196	0.960775
13.214	0.959585
13.232	0.958382
13.25	0.957172
13.268	0.955920
13.286	0.954633
13.304	0.953286
13.322	0.951924
13.34	0.950515
13.358	0.949024
13.376	0.947495
13.394	0.945901
13.412	0.944231
13.43	0.942513
13.448	0.940727
13.466	0.938865
13.484	0.936930
13.502	0.934950
13.52	0.932893
13.538	0.930774
13.556	0.928608
13.574	0.926301
13.592	0.923883
13.61	0.921382
13.628	0.918717
13.646	0.915969
13.664	0.913096
13.682	0.910148
13.7	0.907144
13.718	0.904130
13.736	0.901193
13.754	0.898304
13.772	0.895533
13.79	0.892833
13.808	0.890229
13.826	0.887662
13.844	0.885130
13.862	0.882546
13.88	0.879925
13.898	0.877256
13.916	0.874525
13.934	0.871770
13.952	0.869007
13.97	0.866264
13.988	0.863593
14.006	0.860967
14.024	0.858388
14.042	0.855836
14.06	0.853311
14.078	0.850818
14.096	0.848298
14.114	0.845697
14.132	0.843010
14.15	0.840196
14.168	0.837208
14.186	0.834105
14.204	0.830731
14.222	0.827179
14.24	0.823451
14.258	0.819510
14.276	0.815386
14.294	0.811050
14.312	0.806457
14.33	0.801580
14.348	0.796340
14.366	0.790731
14.384	0.784715
14.402	0.778320
14.42	0.771640
14.438	0.764810
14.456	0.758026
14.474	0.751533
14.492	0.745554
14.51	0.740306
14.528	0.735930
14.546	0.732585
14.564	0.730307
14.582	0.729019
14.6	0.728572
14.618	0.728817
14.636	0.729536
14.654	0.730496
14.672	0.731503
14.69	0.732384
14.708	0.733004
14.726	0.733339
14.744	0.733323
14.762	0.732979
14.78	0.732306
14.798	0.731334
14.816	0.730118
14.834	0.728696
14.852	0.727151
14.87	0.725479
14.888	0.723714
14.906	0.721903
14.924	0.720069
14.942	0.718204
14.96	0.716357
14.978	0.714502
14.996	0.712629
15.014	0.710782
15.032	0.708939
15.05	0.707087
15.068	0.705225
15.086	0.703349
15.104	0.701446
15.122	0.699499
15.14	0.697540
15.158	0.695555
15.176	0.693535
15.194	0.691524
15.212	0.689534
15.23	0.687553
15.248	0.685576
15.266	0.683603
15.284	0.681620
15.302	0.679626
15.32	0.677629
15.338	0.675638
15.356	0.673657
15.374	0.671638
15.392	0.669589
15.41	0.667521
15.428	0.665446
15.446	0.663364
15.464	0.661262
15.482	0.659146
15.5	0.657055
15.518	0.654950
15.536	0.652863
15.554	0.650810
15.572	0.648788
15.59	0.646799
15.608	0.644831
15.626	0.642884
15.644	0.640985
15.662	0.639119
15.68	0.637268
15.698	0.635421
15.716	0.633608
15.734	0.631816
15.752	0.630031
15.77	0.628234
15.788	0.626428
15.806	0.624615
15.824	0.622792
15.842	0.620946
15.86	0.619079
15.878	0.617197
15.896	0.615310
15.914	0.613387
15.932	0.611439
15.95	0.609475
15.968	0.607505
15.986	0.605528
16.004	0.603543
16.022	0.601549
16.04	0.599577
16.058	0.597605
16.076	0.595626
16.094	0.593674
16.112	0.591692
16.13	0.589666
16.148	0.587621
16.166	0.585497
16.184	0.583274
16.202	0.580929
16.22	0.578445
16.238	0.575817
16.256	0.573042
16.274	0.570051
16.292	0.566887
16.31	0.563585
16.328	0.560103
16.346	0.556490
16.364	0.552785
16.382	0.549075
16.4	0.545423
16.418	0.541877
16.436	0.538478
16.454	0.535307
16.472	0.532421
16.49	0.529894
16.508	0.527738
16.526	0.525964
16.544	0.524580
16.562	0.523577
16.58	0.522948
16.598	0.522597
16.616	0.522483
16.634	0.522571
16.652	0.522766
16.67	0.523015
16.688	0.523258
16.706	0.523427
16.724	0.523495
16.742	0.523419
16.76	0.523179
16.778	0.522771
16.796	0.522177
16.814	0.521445
16.832	0.520596
16.85	0.519637
16.868	0.518602
16.886	0.517515
16.904	0.516396
16.922	0.515272
16.94	0.514186
16.958	0.513138
16.976	0.512131
16.994	0.511186
17.012	0.510299
17.03	0.509470
17.048	0.508689
17.066	0.507952
17.084	0.507253
17.102	0.506584
17.12	0.505943
17.138	0.505320
17.156	0.504716
17.174	0.504133
17.192	0.503558
17.21	0.502995
17.228	0.502468
17.246	0.501951
17.264	0.501428
17.282	0.500934
17.3	0.500467
17.318	0.500016
17.336	0.499584
17.354	0.499172
17.372	0.498762
17.39	0.498349
17.408	0.497918
17.426	0.497466
17.444	0.496990
17.462	0.496486
17.48	0.495945
17.498	0.495316
17.516	0.494631
17.534	0.493918
17.552	0.493142
17.57	0.492300
17.588	0.491403
17.606	0.490454
17.624	0.489456
17.642	0.488429
17.66	0.487382
17.678	0.486321
17.696	0.485247
17.714	0.484172
17.732	0.483117
17.75	0.482113
17.768	0.481138
17.786	0.480182
17.804	0.479277
17.822	0.478421
17.84	0.477605
17.858	0.476824
17.876	0.476065
17.894	0.475325
17.912	0.474603
17.93	0.473884
17.948	0.473166
17.966	0.472435
17.984	0.471685
18.002	0.470894
18.02	0.470068
18.038	0.469209
18.056	0.468310
18.074	0.467368
18.092	0.466382
18.11	0.465354
18.128	0.464309
18.146	0.463247
18.164	0.462173
18.182	0.461090
18.2	0.460000
18.218	0.458915
18.236	0.457841
18.254	0.456775
18.272	0.455717
18.29	0.454680
18.308	0.453668
18.326	0.452685
18.344	0.451733
18.362	0.450813
18.38	0.449917
18.398	0.449024
18.416	0.448141
18.434	0.447275
18.452	0.446425
18.47	0.445597
18.488	0.444761
18.506	0.443897
18.524	0.443027
18.542	0.442159
18.56	0.441262
18.578	0.440331
18.596	0.439367
18.614	0.438373
18.632	0.437364
18.65	0.436338
18.668	0.435283
18.686	0.434196
18.704	0.433063
18.722	0.431889
18.74	0.430688
18.758	0.429459
18.776	0.428199
18.794	0.426913
18.812	0.425606
18.83	0.424277
18.848	0.422924
18.866	0.421552
18.884	0.420161
18.902	0.418762
18.92	0.417371
18.938	0.415981
18.956	0.414580
18.974	0.413186
18.992	0.411820
19.01	0.410471
19.028	0.409123
19.046	0.407790
19.064	0.406485
19.082	0.405210
19.1	0.403978
19.118	0.402779
19.136	0.401602
19.154	0.400451
19.172	0.399332
19.19	0.398245
19.208	0.397186
19.226	0.396159
19.244	0.395174
19.262	0.394221
19.28	0.393276
19.298	0.392344
19.316	0.391425
19.334	0.390518
19.352	0.389619
19.37	0.388727
19.388	0.387837
19.406	0.386949
19.424	0.386057
19.442	0.385162
19.46	0.384258
19.478	0.383344
19.496	0.382420
19.514	0.381485
19.532	0.380548
19.55	0.379623
19.568	0.378686
19.586	0.377714
19.604	0.376722
19.622	0.375730
19.64	0.374727
19.658	0.373691
19.676	0.372624
19.694	0.371523
19.712	0.370387
19.73	0.369218
19.748	0.368018
19.766	0.366776
19.784	0.365486
19.802	0.364159
19.82	0.362801
19.838	0.361412
19.856	0.359988
19.874	0.358533
19.892	0.357058
19.91	0.355561
19.928	0.354046
19.946	0.352510
19.964	0.350976
19.982	0.349450
20	0.347924
20.018	0.346394
20.036	0.344862
20.054	0.343329
20.072	0.341793
20.09	0.340250
20.108	0.338698
20.126	0.337146
20.144	0.335599
20.162	0.334033
20.18	0.332430
20.198	0.330810
20.216	0.329189
20.234	0.327562
20.252	0.325923
20.27	0.324272
20.288	0.322614
20.306	0.320950
20.324	0.319282
20.342	0.317610
20.36	0.315940
20.378	0.314286
20.396	0.312644
20.414	0.311014
20.432	0.309394
20.45	0.307789
20.468	0.306200
20.486	0.304628
20.504	0.303080
20.522	0.301552
20.54	0.300035
20.558	0.298526
20.576	0.297032
20.594	0.295560
20.612	0.294098
20.63	0.292629
20.648	0.291156
20.666	0.289691
20.684	0.288242
20.702	0.286785
20.72	0.285295
20.738	0.283789
20.756	0.282296
20.774	0.280813
20.792	0.279336
20.81	0.277865
20.828	0.276401
20.846	0.274942
20.864	0.273489
20.882	0.272054
20.9	0.270638
20.918	0.269246
20.936	0.267883
20.954	0.266546
20.972	0.265235
20.99	0.263950
21.008	0.262693
21.026	0.261469
21.044	0.260273
21.062	0.259103
21.08	0.257960
21.098	0.256836
21.116	0.255729
21.134	0.254637
21.152	0.253560
21.17	0.252496
21.188	0.251440
21.206	0.250390
21.224	0.249343
21.242	0.248286
21.26	0.247223
21.278	0.246155
21.296	0.245079
21.314	0.243998
21.332	0.242919
21.35	0.241841
21.368	0.240749
21.386	0.239637
21.404	0.238508
21.422	0.237357
21.44	0.236184
21.458	0.234995
21.476	0.233792
21.494	0.232573
21.512	0.231330
21.53	0.230066
21.548	0.228772
21.566	0.227440
21.584	0.226073
21.602	0.224681
21.62	0.223270
21.638	0.221827
21.656	0.220337
21.674	0.218803
21.692	0.217244
21.71	0.215668
21.728	0.214071
21.746	0.212456
21.764	0.210822
21.782	0.209173
21.8	0.207505
21.818	0.205820
21.836	0.204145
21.854	0.202487
21.872	0.200837
21.89	0.199190
21.908	0.197540
21.926	0.195914
21.944	0.194331
21.962	0.192781
21.98	0.191260
21.998	0.189767
22.016	0.188303
22.034	0.186867
22.052	0.185457
22.07	0.184080
22.088	0.182747
22.106	0.181453
22.124	0.180189
22.142	0.178947
22.16	0.177734
22.178	0.176555
22.196	0.175413
22.214	0.174304
22.232	0.173225
22.25	0.172178
22.268	0.171155
22.286	0.170149
22.304	0.169165
22.322	0.168197
22.34	0.167244
22.358	0.166308
22.376	0.165397
22.394	0.164517
22.412	0.163654
22.43	0.162788
22.448	0.161921
22.466	0.161065
22.484	0.160233
22.502	0.159419
22.52	0.158613
22.538	0.157809
22.556	0.157008
22.574	0.156207
22.592	0.155401
22.61	0.154593
22.628	0.153787
22.646	0.152985
22.664	0.152184
22.682	0.151376
22.7	0.150562
22.718	0.149744
22.736	0.148923
22.754	0.148102
22.772	0.147269
22.79	0.146412
22.808	0.145534
22.826	0.144639
22.844	0.143731
22.862	0.142807
22.88	0.141866
22.898	0.140904
22.916	0.139923
22.934	0.138929
22.952	0.137927
22.97	0.136914
22.988	0.135880
23.006	0.134822
23.024	0.133743
23.042	0.132647
23.06	0.131531
23.078	0.130398
23.096	0.129259
23.114	0.128117
23.132	0.126970
23.15	0.125813
23.168	0.124645
23.186	0.123469
23.204	0.122286
23.222	0.121096
23.24	0.119900
23.258	0.118707
23.276	0.117519
23.294	0.116332
23.312	0.115144
23.33	0.113953
23.348	0.112762
23.366	0.111575
23.384	0.110397
23.402	0.109222
23.42	0.108046
23.438	0.106866
23.456	0.105684
23.474	0.104510
23.492	0.103343
23.51	0.102184
23.528	0.101035
23.546	0.099902
23.564	0.098780
23.582	0.097668
23.6	0.096559
23.618	0.095457
23.636	0.094377
23.654	0.093331
23.672	0.092312
23.69	0.091318
23.708	0.090350
23.726	0.089405
23.744	0.088490
23.762	0.087611
23.78	0.086764
23.798	0.085951
23.816	0.085173
23.834	0.084432
23.852	0.083725
23.87	0.083049
23.888	0.082408
23.906	0.081797
23.924	0.081211
23.942	0.080652
23.96	0.080117
23.978	0.079594
23.996	0.079077
24.014	0.078571
24.032	0.078071
24.05	0.077573
24.068	0.077084
24.086	0.076589
24.104	0.076072
24.122	0.075538
24.14	0.074988
24.158	0.074420
24.176	0.073841
24.194	0.073242
24.212	0.072613
24.23	0.071948
24.248	0.071253
24.266	0.070527
24.284	0.069771
24.302	0.068983
24.32	0.068168
24.338	0.067329
24.356	0.066463
24.374	0.065574
24.392	0.064664
24.41	0.063733
24.428	0.062782
24.446	0.061816
24.464	0.060837
24.482	0.059841
24.5	0.058838
24.518	0.057837
24.536	0.056831
24.554	0.055824
24.572	0.054821
24.59	0.053821
24.608	0.052825
24.626	0.051839
24.644	0.050869
24.662	0.049910
24.68	0.048964
24.698	0.048033
24.716	0.047116
24.734	0.046212
24.752	0.045322
24.77	0.044445
24.788	0.043580
24.806	0.042732
24.824	0.041904
24.842	0.041094
24.86	0.040301
24.878	0.039523
24.896	0.038758
24.914	0.038009
24.932	0.037276
24.95	0.036562
24.968	0.035865
24.986	0.035185
25.004	0.034519
25.022	0.033865
25.04	0.033226
25.058	0.032605
25.076	0.032005
25.094	0.031423
25.112	0.030860
25.13	0.030315
25.148	0.029787
25.166	0.029277
25.184	0.028788
25.202	0.028318
25.22	0.027866
25.238	0.027437
25.256	0.027032
25.274	0.026651
25.292	0.026295
25.31	0.025959
25.328	0.025644
25.346	0.025350
25.364	0.025077
25.382	0.024825
25.4	0.024596
25.418	0.024389
25.436	0.024197
25.454	0.024019
25.472	0.023855
25.49	0.023705
25.508	0.023571
25.526	0.023454
25.544	0.023354
25.562	0.023263
25.58	0.023175
25.598	0.023091
25.616	0.023012
25.634	0.022939
25.652	0.022872
25.67	0.022813
25.688	0.022758
25.706	0.022700
25.724	0.022637
25.742	0.022572
25.76	0.022506
25.778	0.022441
25.796	0.022377
25.814	0.022312
25.832	0.022248
25.85	0.022184
25.868	0.022120
25.886	0.022055
25.904	0.021991
25.922	0.021928
25.94	0.021867
25.958	0.021803
25.976	0.021736
25.994	0.021664
26.012	0.021588
26.03	0.021510
26.048	0.021428
26.066	0.021340
26.084	0.021250
26.102	0.021160
26.12	0.021076
26.138	0.020998
26.156	0.020919
26.174	0.020834
26.192	0.020739
26.21	0.020639
26.228	0.020531
26.246	0.020413
26.264	0.020284
26.282	0.020146
26.3	0.019997
26.318	0.019840
26.336	0.019671
26.354	0.019493
26.372	0.019308
26.39	0.019117
26.408	0.018922
26.426	0.018720
26.444	0.018512
26.462	0.018298
26.48	0.018074
26.498	0.017845
26.516	0.017616
26.534	0.017389
26.552	0.017162
26.57	0.016935
26.588	0.016712
26.606	0.016493
26.624	0.016274
26.642	0.016060
26.66	0.015855
26.678	0.015664
26.696	0.015483
26.714	0.015311
26.732	0.015145
26.75	0.014984
26.768	0.014828
26.786	0.014679
26.804	0.014538
26.822	0.014406
26.84	0.014282
26.858	0.014166
26.876	0.014054
26.894	0.013945
26.912	0.013844
26.93	0.013746
26.948	0.013647
26.966	0.013543
26.984	0.013427
27.002	0.013317
27.02	0.013231
27.028	0.013208