File: Bakgrunnsmateriale/MATLAB/FTIR/ftir_data/subCa/Mapping_25/BZ12041010-4_t13_cm-1.asc
PE IR       SPECTRUM    SPECTRUM    ASCII       PEDS        1.60
  -1
BZ2C7F~1.ASC
17/04/10
09:59:47.00
17/04/10
09:59:47.00
tln
$BZ12041010-4_t0013$<tbV0>[0.0,-7.2,9.0,0.0,22,1,0]
370
64

2002,4.07
MIRTGS : RIGHTBACK : INTERNAL 2
MIR : ON : INTERNAL 2
OPTKBR

0.200000
8
8.000000
FILLER
RATIO
SPECTRUM
UNLOCKED 256

DOUBLE
64
COMBINED
1
0
0

1.000000
RATIO

1
0
TRUE
51149
0
LEFT NOT FITTED RIGHT NOT FITTED 0
NONE
NONE
15600
12
4.427000
51148
TRUE
1 0 8 72 0 0 0 0

15798

#HDR
-1
-1
#GR
CM-1
%T
2.38419e-05
0.0
5000
-1.000000
4631
8
91.5871
13.9042
#DATA
5000	64.9
4996	64.7583
4992	64.5866
4988	64.6191
4984	64.5365
4980	64.3702
4976	64.4657
4972	64.6651
4968	64.5094
4964	64.2177
4960	64.3155
4956	64.8108
4952	65.0929
4948	64.8161
4944	64.4522
4940	64.1435
4936	64.1198
4932	64.5982
4928	64.9119
4924	64.9697
4920	64.8766
4916	64.7214
4912	65.1165
4908	65.5995
4904	65.4243
4900	64.9522
4896	64.6774
4892	64.8483
4888	65.0492
4884	64.8119
4880	65.1785
4876	66.5365
4872	66.7281
4868	64.9379
4864	63.8444
4860	64.8679
4856	66.1046
4852	66.7141
4848	67.157
4844	66.5215
4840	65.355
4836	65.5343
4832	65.8076
4828	65.1976
4824	65.1699
4820	64.9804
4816	64.2839
4812	64.5808
4808	65.6388
4804	65.8091
4800	64.6416
4796	64.0321
4792	64.7392
4788	65.378
4784	65.3726
4780	65.5126
4776	65.9576
4772	65.8744
4768	65.5839
4764	65.5962
4760	65.4292
4756	65.2998
4752	65.2859
4748	65.2084
4744	65.3591
4740	65.6029
4736	65.7097
4732	65.5658
4728	65.5037
4724	65.6688
4720	65.642
4716	65.4059
4712	65.1633
4708	65.0875
4704	65.3243
4700	65.4535
4696	65.1775
4692	65.047
4688	65.1038
4684	64.9918
4680	64.959
4676	65.154
4672	65.2257
4668	65.109
4664	65.0458
4660	65.0195
4656	64.9958
4652	65.0178
4648	64.8533
4644	64.4886
4640	64.3493
4636	64.4565
4632	64.4686
4628	64.3186
4624	64.2762
4620	64.3614
4616	64.3603
4612	64.348
4608	64.3765
4604	64.3172
4600	64.1261
4596	64.0415
4592	64.092
4588	64.0833
4584	64.1672
4580	64.1716
4576	64.0115
4572	63.9129
4568	63.6895
4564	63.5021
4560	63.5616
4556	63.4569
4552	63.2959
4548	63.5195
4544	63.7493
4540	63.5998
4536	63.6501
4532	63.9806
4528	64.1623
4524	64.2043
4520	64.2039
4516	63.9244
4512	63.7497
4508	63.7725
4504	63.8364
4500	64.2407
4496	64.8152
4492	64.8842
4488	64.4542
4484	63.8707
4480	63.8789
4476	65.1858
4472	69.677
4468	80.1724
4464	85.4761
4460	87.2629
4456	91.5871
4452	82.6867
4448	69.057
4444	63.4193
4440	62.5042
4436	62.7409
4432	62.816
4428	62.8329
4424	63.0153
4420	62.9218
4416	63.0609
4412	63.4654
4408	63.637
4404	63.4605
4400	63.2514
4396	63.4781
4392	63.9601
4388	64.1007
4384	63.863
4380	63.7054
4376	63.7709
4372	63.8891
4368	63.9965
4364	64.0734
4360	64.1215
4356	64.1851
4352	64.1186
4348	63.8902
4344	63.8464
4340	64.0299
4336	64.1919
4332	64.322
4328	64.3867
4324	64.3867
4320	64.3405
4316	64.2904
4312	64.4694
4308	64.7597
4304	64.8742
4300	64.9557
4296	64.9967
4292	64.9103
4288	64.8869
4284	64.9377
4280	65.0288
4276	65.0953
4272	65.1234
4268	65.14
4264	65.0763
4260	65.0571
4256	65.1491
4252	65.235
4248	65.2496
4244	65.2076
4240	65.2016
4236	65.3147
4232	65.458
4228	65.3336
4224	65.05
4220	65.0578
4216	65.2569
4212	65.3775
4208	65.3236
4204	65.2522
4200	65.2818
4196	65.2392
4192	65.2575
4188	65.4222
4184	65.5644
4180	65.5413
4176	65.4562
4172	65.4887
4168	65.5583
4164	65.6173
4160	65.5265
4156	65.2529
4152	65.1265
4148	65.1939
4144	65.3429
4140	65.4942
4136	65.3728
4132	65.2765
4128	65.5238
4124	65.5894
4120	65.3398
4116	65.2101
4112	65.2524
4108	65.2834
4104	65.3636
4100	65.5399
4096	65.718
4092	65.7356
4088	65.5425
4084	65.3894
4080	65.3288
4076	65.3437
4072	65.4743
4068	65.4676
4064	65.3088
4060	65.1865
4056	65.1011
4052	65.1044
4048	65.0912
4044	65.1095
4040	65.3071
4036	65.3915
4032	65.2745
4028	65.1616
4024	65.1014
4020	65.1411
4016	65.2523
4012	65.2853
4008	65.2459
4004	65.1589
4000	65.0363
3996	64.943
3992	64.9398
3988	65.0851
3984	65.1959
3980	65.0971
3976	64.9841
3972	65.0092
3968	65.0067
3964	64.8855
3960	64.8717
3956	65.0064
3952	65.0183
3948	64.924
3944	64.9301
3940	64.9972
3936	65.0238
3932	64.9943
3928	64.9717
3924	65.0088
3920	64.9686
3916	64.8981
3912	64.9626
3908	65.059
3904	65.1415
3900	65.189
3896	65.1168
3892	64.9882
3888	64.9555
3884	65.0264
3880	65.0455
3876	64.9913
3872	65.0966
3868	65.3009
3864	65.2797
3860	65.1562
3856	65.1964
3852	65.2526
3848	65.1108
3844	64.9061
3840	64.8458
3836	64.9059
3832	65.0142
3828	65.1726
3824	65.2947
3820	65.2927
3816	65.2491
3812	65.2746
3808	65.2775
3804	65.1611
3800	65.1312
3796	65.2669
3792	65.34
3788	65.3291
3784	65.3008
3780	65.2529
3776	65.2884
3772	65.2661
3768	65.1784
3764	65.308
3760	65.4402
3756	65.3673
3752	65.3079
3748	65.3282
3744	65.3528
3740	65.3356
3736	65.3102
3732	65.3363
3728	65.3898
3724	65.438
3720	65.3981
3716	65.2658
3712	65.2197
3708	65.3283
3704	65.4234
3700	65.3651
3696	65.2011
3692	65.1358
3688	65.3091
3684	65.4943
3680	65.4695
3676	65.3689
3672	65.3603
3668	65.4166
3664	65.4202
3660	65.3733
3656	65.3682
3652	65.3789
3648	65.3432
3644	65.3129
3640	65.3142
3636	65.3241
3632	65.3357
3628	65.3327
3624	65.3913
3620	65.5047
3616	65.4944
3612	65.3938
3608	65.3584
3604	65.3599
3600	65.3737
3596	65.3831
3592	65.345
3588	65.3221
3584	65.3535
3580	65.3493
3576	65.2972
3572	65.2743
3568	65.2481
3564	65.2355
3560	65.3137
3556	65.4144
3552	65.4559
3548	65.4389
3544	65.3211
3540	65.1796
3536	65.1632
3532	65.2021
3528	65.2183
3524	65.2829
3520	65.3109
3516	65.1954
3512	65.0905
3508	65.0382
3504	65.0306
3500	65.1507
3496	65.3101
3492	65.337
3488	65.2328
3484	65.1394
3480	65.1008
3476	65.1243
3472	65.1458
3468	65.1107
3464	65.1472
3460	65.238
3456	65.2849
3452	65.2745
3448	65.2282
3444	65.2115
3440	65.1536
3436	65.0547
3432	65.0829
3428	65.1814
3424	65.1372
3420	65.0056
3416	65.0355
3412	65.1973
3408	65.3233
3404	65.334
3400	65.2485
3396	65.2201
3392	65.2396
3388	65.2185
3384	65.1903
3380	65.203
3376	65.2079
3372	65.1954
3368	65.2473
3364	65.3111
3360	65.3299
3356	65.3165
3352	65.2949
3348	65.3094
3344	65.3461
3340	65.3601
3336	65.3192
3332	65.2533
3328	65.227
3324	65.2437
3320	65.3041
3316	65.3769
3312	65.3873
3308	65.3672
3304	65.3318
3300	65.3042
3296	65.3189
3292	65.3158
3288	65.3256
3284	65.3496
3280	65.2866
3276	65.1744
3272	65.1296
3268	65.1517
3264	65.1975
3260	65.2671
3256	65.2819
3252	65.2349
3248	65.2323
3244	65.327
3240	65.392
3236	65.2809
3232	65.1284
3228	65.1278
3224	65.2388
3220	65.3526
3216	65.4182
3212	65.3854
3208	65.2739
3204	65.1538
3200	65.1389
3196	65.289
3192	65.431
3188	65.3932
3184	65.3145
3180	65.3293
3176	65.3204
3172	65.2505
3168	65.2153
3164	65.2222
3160	65.2012
3156	65.1591
3152	65.1787
3148	65.2437
3144	65.2753
3140	65.2504
3136	65.2194
3132	65.307
3128	65.4527
3124	65.4453
3120	65.3563
3116	65.3378
3112	65.3577
3108	65.3301
3104	65.2809
3100	65.3201
3096	65.3345
3092	65.2168
3088	65.1037
3084	65.0876
3080	65.1342
3076	65.1719
3072	65.1582
3068	65.1297
3064	65.1417
3060	65.1828
3056	65.2217
3052	65.2277
3048	65.1909
3044	65.1051
3040	65.0595
3036	65.1855
3032	65.3205
3028	65.294
3024	65.2015
3020	65.1502
3016	65.1672
3012	65.1858
3008	65.1494
3004	65.1668
3000	65.287
2996	65.3682
2992	65.3224
2988	65.2371
2984	65.1808
2980	65.1618
2976	65.2088
2972	65.2492
2968	65.1823
2964	65.0965
2960	65.1041
2956	65.1616
2952	65.2102
2948	65.186
2944	65.0651
2940	64.9843
2936	65.0553
2932	65.1804
2928	65.2391
2924	65.2026
2920	65.1402
2916	65.1547
2912	65.2416
2908	65.3276
2904	65.3322
2900	65.2929
2896	65.3036
2892	65.3519
2888	65.3705
2884	65.3332
2880	65.3055
2876	65.3502
2872	65.4145
2868	65.4118
2864	65.3355
2860	65.2559
2856	65.2405
2852	65.2821
2848	65.33
2844	65.343
2840	65.3121
2836	65.2787
2832	65.2942
2828	65.3166
2824	65.2913
2820	65.2991
2816	65.3598
2812	65.3881
2808	65.3714
2804	65.33
2800	65.3006
2796	65.3309
2792	65.3932
2788	65.4108
2784	65.4211
2780	65.4135
2776	65.2853
2772	65.1891
2768	65.2508
2764	65.3429
2760	65.3715
2756	65.3545
2752	65.35
2748	65.3456
2744	65.3011
2740	65.2755
2736	65.3191
2732	65.364
2728	65.3658
2724	65.3663
2720	65.3712
2716	65.3696
2712	65.351
2708	65.2813
2704	65.232
2700	65.2647
2696	65.2997
2692	65.2733
2688	65.2175
2684	65.1948
2680	65.1968
2676	65.2253
2672	65.287
2668	65.3294
2664	65.3469
2660	65.3226
2656	65.2453
2652	65.2082
2648	65.2654
2644	65.3238
2640	65.2725
2636	65.2207
2632	65.2544
2628	65.2358
2624	65.1623
2620	65.1524
2616	65.1821
2612	65.1887
2608	65.2065
2604	65.2341
2600	65.2292
2596	65.2194
2592	65.2236
2588	65.2226
2584	65.2155
2580	65.2145
2576	65.2387
2572	65.2673
2568	65.244
2564	65.1926
2560	65.1863
2556	65.2336
2552	65.243
2548	65.2133
2544	65.2134
2540	65.1928
2536	65.1685
2532	65.2413
2528	65.3356
2524	65.3316
2520	65.3001
2516	65.2695
2512	65.2304
2508	65.226
2504	65.249
2500	65.2805
2496	65.3218
2492	65.3571
2488	65.3538
2484	65.3429
2480	65.3257
2476	65.2606
2472	65.2138
2468	65.2323
2464	65.2619
2460	65.3111
2456	65.3799
2452	65.3875
2448	65.3463
2444	65.3588
2440	65.403
2436	65.3962
2432	65.3766
2428	65.3512
2424	65.3277
2420	65.3664
2416	65.3872
2412	65.3972
2408	65.4345
2404	65.3914
2400	65.321
2396	65.3178
2392	65.3377
2388	65.3038
2384	65.257
2380	65.2704
2376	65.3085
2372	65.3431
2368	65.3399
2364	65.2827
2360	65.2615
2356	65.3186
2352	65.3324
2348	65.2712
2344	65.2742
2340	65.3024
2336	65.2645
2332	65.2684
2328	65.3453
2324	65.3887
2320	65.3584
2316	65.3372
2312	65.3493
2308	65.3165
2304	65.2813
2300	65.2897
2296	65.2709
2292	65.2183
2288	65.2004
2284	65.2071
2280	65.1835
2276	65.1974
2272	65.2877
2268	65.3572
2264	65.3518
2260	65.3008
2256	65.2713
2252	65.3063
2248	65.3412
2244	65.2988
2240	65.2809
2236	65.3118
2232	65.3038
2228	65.3062
2224	65.3154
2220	65.3059
2216	65.2902
2212	65.2815
2208	65.2794
2204	65.2555
2200	65.2771
2196	65.3383
2192	65.3456
2188	65.2966
2184	65.2407
2180	65.2591
2176	65.3354
2172	65.3703
2168	65.3495
2164	65.2976
2160	65.2395
2156	65.1836
2152	65.1492
2148	65.1529
2144	65.1801
2140	65.2108
2136	65.1934
2132	65.1483
2128	65.1985
2124	65.3011
2120	65.2873
2116	65.2332
2112	65.2726
2108	65.3074
2104	65.2831
2100	65.2393
2096	65.24
2092	65.2825
2088	65.2361
2084	65.1327
2080	65.0922
2076	65.132
2072	65.2093
2068	65.2481
2064	65.232
2060	65.2426
2056	65.2812
2052	65.2525
2048	65.1924
2044	65.1647
2040	65.1642
2036	65.209
2032	65.2488
2028	65.2406
2024	65.2459
2020	65.2707
2016	65.264
2012	65.2691
2008	65.3478
2004	65.4049
2000	65.3679
1996	65.3191
1992	65.3294
1988	65.3755
1984	65.3719
1980	65.328
1976	65.3265
1972	65.3577
1968	65.3729
1964	65.3559
1960	65.3476
1956	65.3504
1952	65.3265
1948	65.3093
1944	65.2981
1940	65.2941
1936	65.329
1932	65.3449
1928	65.3108
1924	65.2662
1920	65.2539
1916	65.2677
1912	65.2978
1908	65.3582
1904	65.3715
1900	65.2994
1896	65.2374
1892	65.2496
1888	65.3087
1884	65.3383
1880	65.3383
1876	65.3208
1872	65.2912
1868	65.2818
1864	65.2657
1860	65.2467
1856	65.2281
1852	65.2741
1848	65.3899
1844	65.4341
1840	65.4036
1836	65.3663
1832	65.3389
1828	65.323
1824	65.3306
1820	65.3304
1816	65.2911
1812	65.2802
1808	65.3137
1804	65.3245
1800	65.3298
1796	65.3592
1792	65.3637
1788	65.2901
1784	65.2318
1780	65.2756
1776	65.3472
1772	65.3852
1768	65.3977
1764	65.3712
1760	65.2962
1756	65.2173
1752	65.1573
1748	65.1161
1744	65.1115
1740	65.1528
1736	65.181
1732	65.1386
1728	65.1192
1724	65.1328
1720	65.0859
1716	65.0551
1712	65.1427
1708	65.2539
1704	65.2802
1700	65.2919
1696	65.2933
1692	65.2584
1688	65.2552
1684	65.2416
1680	65.189
1676	65.1875
1672	65.2158
1668	65.1883
1664	65.1526
1660	65.1636
1656	65.2123
1652	65.2268
1648	65.1327
1644	65.0635
1640	65.1399
1636	65.2383
1632	65.2513
1628	65.2434
1624	65.2937
1620	65.3451
1616	65.2799
1612	65.1822
1608	65.2108
1604	65.2538
1600	65.2185
1596	65.1802
1592	65.1848
1588	65.2314
1584	65.265
1580	65.2806
1576	65.2561
1572	65.1904
1568	65.167
1564	65.1332
1560	65.1308
1556	65.2177
1552	65.2195
1548	65.1538
1544	65.1555
1540	65.1749
1536	65.1986
1532	65.245
1528	65.2258
1524	65.2198
1520	65.2814
1516	65.2415
1512	65.1532
1508	65.1543
1504	65.196
1500	65.203
1496	65.1752
1492	65.1533
1488	65.1177
1484	65.0954
1480	65.1318
1476	65.1981
1472	65.2473
1468	65.2647
1464	65.2432
1460	65.1799
1456	65.1221
1452	65.1353
1448	65.2219
1444	65.2903
1440	65.3289
1436	65.3173
1432	65.2489
1428	65.2326
1424	65.2008
1420	65.12
1416	65.0916
1412	65.118
1408	65.1585
1404	65.1704
1400	65.1653
1396	65.1746
1392	65.2366
1388	65.2933
1384	65.2431
1380	65.1886
1376	65.2084
1372	65.2245
1368	65.2238
1364	65.2567
1360	65.2519
1356	65.1623
1352	65.112
1348	65.1217
1344	65.1259
1340	65.0949
1336	65.0546
1332	65.0905
1328	65.1564
1324	65.1612
1320	65.098
1316	65.069
1312	65.1479
1308	65.2091
1304	65.1482
1300	65.0622
1296	65.0716
1292	65.1446
1288	65.1805
1284	65.1649
1280	65.1495
1276	65.1327
1272	65.1096
1268	65.102
1264	65.0403
1260	64.9683
1256	65.049
1252	65.16
1248	65.1212
1244	65.0584
1240	65.1385
1236	65.2674
1232	65.2899
1228	65.2529
1224	65.204
1220	65.1009
1216	65.0403
1212	65.0667
1208	65.0965
1204	65.107
1200	65.0854
1196	65.0452
1192	65.0633
1188	65.1263
1184	65.122
1180	65.0867
1176	65.1343
1172	65.1795
1168	65.1155
1164	65.0652
1160	65.1268
1156	65.2347
1152	65.3015
1148	65.2848
1144	65.2145
1140	65.1043
1136	65.026
1132	65.0731
1128	65.131
1124	65.0777
1120	64.9564
1116	64.9308
1112	64.9896
1108	65.007
1104	65.0974
1100	65.2165
1096	65.2157
1092	65.174
1088	65.1067
1084	65.0621
1080	65.0531
1076	64.9968
1072	65.0358
1068	65.1747
1064	65.2156
1060	65.1823
1056	65.1417
1052	65.1237
1048	65.2068
1044	65.3416
1040	65.3789
1036	65.3138
1032	65.1988
1028	65.0658
1024	65.0554
1020	65.1159
1016	65.1211
1012	65.1472
1008	65.1473
1004	65.0838
1000	65.0841
996	 65.1456
992	 65.1437
988	 65.085
984	 65.1374
980	 65.2637
976	 65.2638
972	 65.2284
968	 65.26
964	 65.2432
960	 65.1545
956	 65.1431
952	 65.2586
948	 65.3469
944	 65.3519
940	 65.3445
936	 65.2975
932	 65.2608
928	 65.3061
924	 65.3164
920	 65.311
916	 65.354
912	 65.3323
908	 65.2837
904	 65.3064
900	 65.3742
896	 65.4067
892	 65.3075
888	 65.1805
884	 65.154
880	 65.1658
876	 65.198
872	 65.261
868	 65.3033
864	 65.2917
860	 65.2749
856	 65.2871
852	 65.3105
848	 65.386
844	 65.4418
840	 65.3575
836	 65.3077
832	 65.4173
828	 65.4541
824	 65.3544
820	 65.2951
816	 65.2546
812	 65.2143
808	 65.2386
804	 65.29
800	 65.3269
796	 65.3483
792	 65.4439
788	 65.6033
784	 65.578
780	 65.4375
776	 65.4376
772	 65.4919
768	 65.4221
764	 65.3221
760	 65.3613
756	 65.4963
752	 65.6022
748	 65.5571
744	 65.4231
740	 65.3302
736	 65.3067
732	 65.2972
728	 65.2083
724	 65.2599
720	 65.4745
716	 65.5131
712	 65.3833
708	 65.2739
704	 65.1881
700	 65.079
696	 65.0891
692	 65.2469
688	 65.3209
684	 65.3779
680	 65.5488
676	 65.5913
672	 65.4738
668	 65.4752
664	 65.5365
660	 65.5806
656	 65.6493
652	 65.5716
648	 65.3663
644	 65.2015
640	 65.1594
636	 65.1883
632	 65.2658
628	 65.3936
624	 65.4707
620	 65.5051
616	 65.5179
612	 65.5936
608	 65.8644
604	 66.1475
600	 66.1095
596	 65.7596
592	 65.4607
588	 65.4708
584	 65.5422
580	 65.2786
576	 65.0187
572	 65.2225
568	 65.4204
564	 65.5198
560	 65.7698
556	 65.8831
552	 65.9683
548	 66.1519
544	 66.1571
540	 66.0209
536	 65.8745
532	 65.8232
528	 65.7451
524	 65.592
520	 65.6146
516	 66.0504
512	 66.4358
508	 66.4287
504	 66.166
500	 65.7478
496	 65.4629
492	 65.3402
488	 65.518
484	 65.8624
480	 65.7333
476	 65.1909
472	 64.7911
468	 64.6883
464	 64.6682
460	 64.8701
456	 65.7581
452	 67.0377
448	 67.8637
444	 67.5251
440	 66.4077
436	 65.1747
432	 65.3828
428	 68.5271
424	 71.8113
420	 70.8486
416	 68.7104
412	 67.5427
408	 58.2583
404	 48.2488
400	 51.8712
396	 59.9113
392	 63.3535
388	 58.0974
384	 44.3473
380	 43.7281
376	 14.2757
372	 39.5364
370	 23.1533