File: Bakgrunnsmateriale/MATLAB/FTIR/ftir_data/subCa/Mapping_25/BZ12041010-4_t02.asc
PE IR       SPECTRUM    SPECTRUM    ASCII       PEDS        1.60
  -1
BZ26B6~1.ASC
17/04/10
09:00:58.00
17/04/10
09:01:24.00
tln
$BZ12041010-4_t0002$<tbV0>[2.6,-12.4,9.0,0.0,22,1,0]
27.028
64

2002,4.07
MIRTGS : RIGHTBACK : INTERNAL 2
MIR : ON : INTERNAL 2
OPTKBR

0.200000
8
8.000000
FILLER
RATIO
SPECTRUM
UNLOCKED 256

DOUBLE
64
COMBINED
1
0
0

0.002000
RATIO

1
0
TRUE
51149
0
LEFT NOT FITTED RIGHT NOT FITTED 0
NONE
NONE
15600
12
4.427000
51148
TRUE
1 0 8 72 0 0 0 0

15798

#HDR
-1
-1
#GR
µM
%T
2.38419e-05
0.0
2.000000
0.002000
12515
8
84.7473
53.9797
#DATA
2.000000	 64.9079
2.018000	 65.0659
2.036000	 65.0199
2.054000	 64.8897
2.072000	 65.3193
2.090000	 64.3201
2.108000	 66.2891
2.126000	 65.1439
2.144000	 65.1833
2.162000	 64.8654
2.180000	 64.6005
2.198000	 65.4252
2.216000	 65.3653
2.234000	 67.2512
2.252000	 64.6371
2.270000	 65.1818
2.288000	 64.8298
2.306000	 64.983
2.324000	 64.6491
2.342000	 64.8237
2.360000	 64.8428
2.378000	 65.045
2.396000	 65.3991
2.414000	 64.9363
2.432000	 65.0268
2.450000	 64.9099
2.468000	 65.156
2.486000	 65.2147
2.504000	 64.939
2.522000	 65.1655
2.540000	 65.1397
2.558000	 64.9429
2.576000	 65.3458
2.594000	 65.2276
2.612000	 65.2281
2.630000	 65.153
2.648000	 65.1981
2.666000	 65.3451
2.684000	 65.3372
2.702000	 65.3202
2.720000	 65.3494
2.738000	 65.126
2.756000	 65.45
2.774000	 65.2933
2.792000	 65.2708
2.810000	 65.1917
2.828000	 65.0149
2.846000	 65.0806
2.864000	 64.97
2.882000	 65.0978
2.900000	 65.0862
2.918000	 65.0199
2.936000	 65.0198
2.954000	 65.1884
2.972000	 65.1429
2.990000	 64.9018
3.008000	 65.1165
3.026000	 65.0472
3.044000	 65.0622
3.062000	 65.1116
3.080000	 65.1667
3.098000	 65.0654
3.116000	 65.2168
3.134000	 65.2368
3.152000	 64.7986
3.170000	 65.1389
3.188000	 65.0309
3.206000	 65.1358
3.224000	 64.987
3.242000	 65.2038
3.260000	 65.0407
3.278000	 65.2212
3.296000	 65.159
3.314000	 65.0495
3.332000	 64.9472
3.350000	 65.0051
3.368000	 65.2009
3.386000	 65.0648
3.404000	 65.1051
3.422000	 65.0827
3.440000	 65.1424
3.458000	 65.1449
3.476000	 65.1892
3.494000	 65.0416
3.512000	 65.1527
3.530000	 65.1402
3.548000	 65.0724
3.566000	 65.1488
3.584000	 65.0931
3.602000	 65.1815
3.620000	 65.1883
3.638000	 65.172
3.656000	 65.2023
3.674000	 65.1624
3.692000	 65.1006
3.710000	 65.2
3.728000	 64.9602
3.746000	 65.0637
3.764000	 65.1768
3.782000	 65.1574
3.800000	 65.1206
3.818000	 65.1527
3.836000	 65.1337
3.854000	 65.1723
3.872000	 65.1481
3.890000	 65.0842
3.908000	 65.1847
3.926000	 65.2096
3.944000	 65.0912
3.962000	 65.1863
3.980000	 65.2783
3.998000	 65.2167
4.016000	 65.213
4.034000	 65.2042
4.052000	 65.2307
4.070000	 65.2433
4.088000	 65.2012
4.106000	 65.2064
4.124000	 65.187
4.141999	 65.1149
4.160000	 65.1208
4.178000	 65.1663
4.196000	 65.1879
4.214000	 65.1433
4.232000	 65.1881
4.250000	 65.2896
4.268000	 65.2147
4.286000	 65.1927
4.304000	 65.1996
4.322000	 65.2492
4.340000	 65.1417
4.358000	 65.1838
4.375999	 65.2194
4.394000	 65.258
4.412000	 65.1256
4.430000	 65.249
4.448000	 65.2382
4.466000	 65.2179
4.484000	 65.1716
4.502000	 65.2385
4.520000	 65.3085
4.538000	 65.1662
4.556000	 65.0377
4.574000	 65.1889
4.592000	 65.2436
4.609999	 65.2616
4.628000	 65.3015
4.646000	 65.2785
4.664000	 65.1903
4.682000	 65.1688
4.700000	 65.1382
4.718000	 65.2727
4.736000	 65.143
4.754000	 65.2314
4.772000	 65.1755
4.790000	 65.1796
4.808000	 65.1993
4.826000	 65.1219
4.843999	 65.1816
4.862000	 65.1425
4.880000	 65.1274
4.898000	 65.1678
4.916000	 65.2232
4.934000	 65.1695
4.952000	 65.2772
4.970000	 65.2759
4.988000	 65.2863
5.006000	 65.2135
5.024000	 65.1728
5.042000	 65.2653
5.060000	 65.3248
5.077999	 65.2732
5.096000	 65.2212
5.114000	 65.1703
5.132000	 65.1166
5.150000	 65.2077
5.168000	 65.2475
5.186000	 65.2355
5.204000	 65.2053
5.222000	 65.2478
5.240000	 65.2321
5.258000	 65.1977
5.276000	 65.2892
5.294000	 65.2808
5.312000	 65.3108
5.330000	 65.2706
5.348000	 65.1979
5.366000	 65.2117
5.384000	 65.2824
5.402000	 65.3309
5.420000	 65.2614
5.438000	 65.2395
5.456000	 65.3157
5.474000	 65.2911
5.492000	 65.2866
5.510000	 65.2374
5.528000	 65.2751
5.546000	 65.3069
5.564000	 65.2912
5.582000	 65.3935
5.600000	 65.3482
5.618000	 65.227
5.636000	 65.2979
5.654000	 65.2923
5.672000	 65.2703
5.690000	 65.2121
5.708000	 65.2408
5.726000	 65.1821
5.744000	 65.1483
5.762000	 65.1817
5.780000	 65.0991
5.798000	 65.0128
5.816000	 65.0926
5.834000	 65.1254
5.852000	 65.1006
5.870000	 65.2241
5.888000	 65.3229
5.906000	 65.2567
5.923999	 65.3093
5.942000	 65.3452
5.960000	 65.191
5.978000	 65.2042
5.996000	 65.2275
6.014000	 65.2581
6.032000	 65.3364
6.050000	 65.5013
6.068000	 65.4708
6.086000	 65.3041
6.104000	 65.2107
6.122000	 65.153
6.140000	 65.1604
6.158000	 65.1723
6.176000	 65.2156
6.194000	 65.2431
6.212000	 65.1242
6.230000	 65.0878
6.248000	 65.0882
6.266000	 65.0755
6.284000	 65.0762
6.302000	 65.0976
6.320000	 65.1319
6.338000	 65.1595
6.356000	 65.1344
6.374000	 65.1281
6.392000	 65.2918
6.410000	 65.4847
6.428000	 65.4112
6.446000	 65.2893
6.464000	 65.3227
6.482000	 65.3721
6.500000	 65.3065
6.518000	 65.2462
6.536000	 65.2052
6.554000	 65.2529
6.572000	 65.3225
6.590000	 65.2371
6.608000	 65.2353
6.626000	 65.3888
6.644000	 65.3954
6.662000	 65.2958
6.680000	 65.2976
6.698000	 65.2889
6.716000	 65.2284
6.734000	 65.1999
6.752000	 65.23
6.770000	 65.3124
6.788000	 65.3597
6.806000	 65.3345
6.824000	 65.3279
6.842000	 65.4067
6.860000	 65.4494
6.878000	 65.3393
6.896000	 65.2272
6.914000	 65.1763
6.932000	 65.1257
6.950000	 65.1513
6.968000	 65.2272
6.986000	 65.2548
7.004000	 65.2634
7.022000	 65.3057
7.040000	 65.3279
7.058000	 65.2584
7.076000	 65.1737
7.094000	 65.1596
7.112000	 65.1753
7.130000	 65.1903
7.148000	 65.207
7.166000	 65.2161
7.184000	 65.2059
7.202000	 65.1523
7.220000	 65.0678
7.238000	 65.0032
7.256000	 64.9997
7.274000	 65.0554
7.292000	 65.0825
7.310000	 65.0229
7.328000	 64.9637
7.346000	 64.9848
7.364000	 65.0483
7.382000	 65.095
7.400000	 65.0998
7.418000	 65.0722
7.436000	 65.0503
7.454000	 65.0527
7.472000	 65.0576
7.490000	 65.0533
7.508000	 65.0548
7.526000	 65.0664
7.544000	 65.0834
7.562000	 65.111
7.580000	 65.1347
7.598000	 65.1267
7.616000	 65.1067
7.634000	 65.1118
7.652000	 65.11
7.670000	 65.0605
7.688000	 65.0049
7.706000	 64.9947
7.724000	 65.0157
7.742000	 65.0268
7.760000	 65.015
7.778000	 65.0055
7.796000	 65.0322
7.814000	 65.0879
7.832000	 65.1212
7.850000	 65.1012
7.868000	 65.0526
7.886000	 65.0195
7.904000	 65.0181
7.922000	 65.0379
7.940000	 65.0634
7.958000	 65.0814
7.976000	 65.0814
7.994000	 65.0683
8.012000	 65.0577
8.030000	 65.053
8.048000	 65.0502
8.065999	 65.0499
8.084000	 65.0472
8.102000	 65.0343
8.120000	 65.024
8.138000	 65.0436
8.155999	 65.0974
8.173999	 65.1565
8.192000	 65.1925
8.210000	 65.2024
8.228000	 65.2048
8.246000	 65.2125
8.263999	 65.2227
8.282000	 65.2317
8.300000	 65.2382
8.318000	 65.2315
8.336000	 65.1999
8.353999	 65.1523
8.372000	 65.1058
8.390000	 65.0562
8.408000	 64.9973
8.426000	 64.9523
8.443999	 64.9516
8.462000	 64.9948
8.480000	 65.0549
8.498000	 65.1093
8.516000	 65.147
8.533999	 65.1589
8.552000	 65.1447
8.570000	 65.1182
8.588000	 65.0994
8.606000	 65.109
8.624000	 65.1561
8.641999	 65.2185
8.660000	 65.2509
8.678000	 65.2279
8.696000	 65.1682
8.714000	 65.1088
8.731999	 65.0611
8.750000	 65.0131
8.768000	 64.9651
8.786000	 64.9448
8.804000	 64.9794
8.821999	 65.0614
8.840000	 65.1485
8.858000	 65.1988
8.876000	 65.2036
8.894000	 65.181
8.911999	 65.1464
8.930000	 65.1031
8.948000	 65.059
8.966000	 65.0358
8.984000	 65.0496
9.001999	 65.0868
9.020000	 65.1098
9.038000	 65.0914
9.056000	 65.0383
9.074000	 64.9832
9.092000	 64.9558
9.109999	 64.9633
9.128000	 64.9939
9.146000	 65.0324
9.164000	 65.0709
9.182000	 65.1064
9.199999	 65.1369
9.218000	 65.1609
9.236000	 65.1787
9.254000	 65.1907
9.272000	 65.1926
9.289999	 65.1755
9.308000	 65.1341
9.326000	 65.0757
9.344000	 65.0202
9.362000	 64.9895
9.379999	 64.9928
9.398000	 65.0211
9.416000	 65.0558
9.434000	 65.0824
9.452000	 65.0993
9.469999	 65.1092
9.488000	 65.1068
9.506000	 65.0785
9.524000	 65.0164
9.542000	 64.9342
9.560000	 64.8648
9.577999	 64.8379
9.596000	 64.8575
9.614000	 64.8989
9.632000	 64.9281
9.650000	 64.927
9.667999	 64.9033
9.686000	 64.8832
9.704000	 64.893
9.722000	 64.9431
9.740000	 65.0237
9.757999	 65.1094
9.776000	 65.1715
9.794000	 65.1915
9.812000	 65.1709
9.830000	 65.1314
9.847999	 65.1019
9.866000	 65.1014
9.884000	 65.1277
9.902000	 65.1616
9.920000	 65.1816
9.937999	 65.1781
9.956000	 65.158
9.974000	 65.1359
9.992000	 65.1232
10.01	65.1236
10.028	65.1338
10.046	65.1491
10.064	65.1667
10.082	65.1831
10.1	65.1907
10.118	65.1782
10.136	65.1362
10.154	65.0658
10.172	64.9825
10.19	64.9137
10.208	64.8851
10.226	64.9087
10.244	64.9769
10.262	65.0665
10.28	65.1517
10.298	65.214
10.316	65.2479
10.334	65.2587
10.352	65.2558
10.37	65.2494
10.388	65.2474
10.406	65.2535
10.424	65.2661
10.442	65.277
10.46	65.2782
10.478	65.267
10.496	65.249
10.514	65.2339
10.532	65.23
10.55	65.2378
10.568	65.2511
10.586	65.2629
10.604	65.272
10.622	65.2833
10.64	65.3058
10.658	65.3449
10.676	65.3979
10.694	65.4547
10.712	65.4994
10.73	65.5176
10.748	65.501
10.766	65.453
10.784	65.3878
10.802	65.3268
10.82	65.2873
10.838	65.2773
10.856	65.2911
10.874	65.3128
10.892	65.3262
10.91	65.3206
10.928	65.2958
10.946	65.2597
10.964	65.2228
10.982	65.1925
11	65.171
11.018	65.1566
11.036	65.1459
11.054	65.1367
11.072	65.1284
11.09	65.122
11.108	65.1191
11.126	65.1222
11.144	65.1335
11.162	65.1549
11.18	65.1861
11.198	65.2225
11.216	65.257
11.234	65.2803
11.252	65.2848
11.27	65.2682
11.288	65.2347
11.306	65.193
11.324	65.1539
11.342	65.1262
11.36	65.1149
11.378	65.1226
11.396	65.1492
11.414	65.1937
11.432	65.2528
11.45	65.3207
11.468	65.3884
11.486	65.4468
11.504	65.489
11.522	65.5131
11.54	65.5213
11.558	65.519
11.576	65.5116
11.594	65.5009
11.612	65.4857
11.63	65.4632
11.648	65.4324
11.666	65.3958
11.684	65.3587
11.702	65.3269
11.72	65.3046
11.738	65.2918
11.756	65.2844
11.774	65.2765
11.792	65.2631
11.81	65.2423
11.828	65.2168
11.846	65.1927
11.864	65.1773
11.882	65.1748
11.9	65.186
11.918	65.2062
11.936	65.2264
11.954	65.2367
11.972	65.2291
11.99	65.202
12.008	65.1615
12.026	65.1217
12.044	65.0998
12.062	65.111
12.08	65.1613
12.098	65.2467
12.116	65.3523
12.134	65.4571
12.152	65.5412
12.17	65.591
12.188	65.6014
12.206	65.5767
12.224	65.5277
12.242	65.4664
12.26	65.4035
12.278	65.3457
12.296	65.2961
12.314	65.2555
12.332	65.2236
12.35	65.2002
12.368	65.1847
12.386	65.1768
12.404	65.176
12.422	65.1816
12.44	65.1927
12.458	65.2086
12.476	65.2282
12.494	65.2496
12.512	65.2712
12.53	65.2913
12.548	65.3091
12.566	65.3239
12.584	65.3362
12.602	65.3462
12.62	65.3545
12.638	65.3609
12.656	65.3657
12.674	65.3692
12.692	65.3721
12.71	65.3759
12.728	65.3827
12.746	65.3951
12.764	65.4155
12.782	65.4449
12.8	65.4829
12.818	65.5273
12.836	65.5742
12.854	65.6187
12.872	65.656
12.89	65.6813
12.908	65.691
12.926	65.6828
12.944	65.6567
12.962	65.6146
12.98	65.5604
12.998	65.4995
13.016	65.4383
13.034	65.3834
13.052	65.3404
13.07	65.313
13.088	65.3028
13.106	65.309
13.124	65.3286
13.142	65.3566
13.16	65.3875
13.178	65.4157
13.196	65.4361
13.214	65.4453
13.232	65.4413
13.25	65.4247
13.268	65.3972
13.286	65.3626
13.304	65.3255
13.322	65.2911
13.34	65.2641
13.358	65.2483
13.376	65.2458
13.394	65.2565
13.412	65.2782
13.43	65.3066
13.448	65.3359
13.466	65.3602
13.484	65.3745
13.502	65.3752
13.52	65.3613
13.538	65.3343
13.556	65.2979
13.574	65.257
13.592	65.2164
13.61	65.1808
13.628	65.1531
13.646	65.1348
13.664	65.1259
13.682	65.1253
13.7	65.1314
13.718	65.1425
13.736	65.1573
13.754	65.1744
13.772	65.1932
13.79	65.2129
13.808	65.2331
13.826	65.2529
13.844	65.2714
13.862	65.2876
13.88	65.3009
13.898	65.3111
13.916	65.3181
13.934	65.3225
13.952	65.325
13.97	65.3265
13.988	65.3281
14.006	65.3306
14.024	65.3349
14.042	65.3415
14.06	65.3504
14.078	65.361
14.096	65.3719
14.114	65.3814
14.132	65.3877
14.15	65.389
14.168	65.384
14.186	65.3721
14.204	65.3541
14.222	65.3313
14.24	65.3059
14.258	65.2795
14.276	65.254
14.294	65.2302
14.312	65.2081
14.33	65.1869
14.348	65.165
14.366	65.1407
14.384	65.1126
14.402	65.0801
14.42	65.0437
14.438	65.0049
14.456	64.966
14.474	64.9298
14.492	64.8989
14.51	64.8754
14.528	64.8605
14.546	64.8549
14.564	64.8586
14.582	64.8716
14.6	64.8937
14.618	64.9245
14.636	64.9637
14.654	65.011
14.672	65.0655
14.69	65.1261
14.708	65.1912
14.726	65.2587
14.744	65.3258
14.762	65.39
14.78	65.4483
14.798	65.4986
14.816	65.5386
14.834	65.5669
14.852	65.5831
14.87	65.5878
14.888	65.5824
14.906	65.5692
14.924	65.5512
14.942	65.5325
14.96	65.517
14.978	65.5082
14.996	65.5088
15.014	65.5204
15.032	65.5438
15.05	65.5773
15.068	65.6183
15.086	65.6632
15.104	65.7073
15.122	65.7454
15.14	65.7735
15.158	65.7889
15.176	65.7904
15.194	65.7781
15.212	65.7547
15.23	65.7236
15.248	65.6884
15.266	65.6531
15.284	65.6214
15.302	65.5953
15.32	65.5756
15.338	65.5623
15.356	65.5539
15.374	65.5482
15.392	65.5431
15.41	65.5367
15.428	65.5275
15.446	65.5151
15.464	65.4999
15.482	65.4833
15.5	65.4669
15.518	65.4537
15.536	65.4459
15.554	65.4452
15.572	65.453
15.59	65.4693
15.608	65.4931
15.626	65.5227
15.644	65.5552
15.662	65.5867
15.68	65.6138
15.698	65.6333
15.716	65.6416
15.734	65.6367
15.752	65.6177
15.77	65.5844
15.788	65.5386
15.806	65.4837
15.824	65.4229
15.842	65.3607
15.86	65.3026
15.878	65.2525
15.896	65.2138
15.914	65.1901
15.932	65.1822
15.95	65.1905
15.968	65.2142
15.986	65.2508
16.004	65.2975
16.022	65.3517
16.04	65.4093
16.058	65.4678
16.076	65.5253
16.094	65.5791
16.112	65.6282
16.13	65.672
16.148	65.7099
16.166	65.7421
16.184	65.769
16.202	65.7909
16.22	65.8082
16.238	65.8212
16.256	65.83
16.274	65.8344
16.292	65.8344
16.31	65.8297
16.328	65.8197
16.346	65.8044
16.364	65.7836
16.382	65.757
16.4	65.7247
16.418	65.6868
16.436	65.6437
16.454	65.5959
16.472	65.5441
16.49	65.4894
16.508	65.433
16.526	65.3761
16.544	65.3207
16.562	65.2685
16.58	65.221
16.598	65.1807
16.616	65.149
16.634	65.1273
16.652	65.117
16.67	65.1187
16.688	65.133
16.706	65.1595
16.724	65.1972
16.742	65.245
16.76	65.3004
16.778	65.3617
16.796	65.4259
16.814	65.4896
16.832	65.5509
16.85	65.6059
16.868	65.6525
16.886	65.6887
16.904	65.7122
16.922	65.723
16.94	65.7204
16.958	65.706
16.976	65.6804
16.994	65.6462
17.012	65.6059
17.03	65.5613
17.048	65.5163
17.066	65.4723
17.084	65.432
17.102	65.3971
17.12	65.3686
17.138	65.3477
17.156	65.3343
17.174	65.3287
17.192	65.3304
17.21	65.3392
17.228	65.3544
17.246	65.3755
17.264	65.4022
17.282	65.4338
17.3	65.4703
17.318	65.511
17.336	65.5559
17.354	65.6046
17.372	65.6562
17.39	65.7104
17.408	65.7662
17.426	65.8224
17.444	65.8785
17.462	65.9326
17.48	65.9843
17.498	66.0321
17.516	66.0754
17.534	66.1132
17.552	66.1452
17.57	66.1712
17.588	66.1912
17.606	66.2055
17.624	66.2145
17.642	66.2189
17.66	66.2189
17.678	66.2156
17.696	66.2092
17.714	66.2004
17.732	66.1895
17.75	66.1771
17.768	66.1635
17.786	66.1489
17.804	66.1339
17.822	66.1187
17.84	66.1036
17.858	66.089
17.876	66.0756
17.894	66.0638
17.912	66.0539
17.93	66.0467
17.948	66.0423
17.966	66.0413
17.984	66.0437
18.002	66.0499
18.02	66.0598
18.038	66.0735
18.056	66.0906
18.074	66.111
18.092	66.1343
18.11	66.1604
18.128	66.1885
18.146	66.2186
18.164	66.2501
18.182	66.2828
18.2	66.3162
18.218	66.3502
18.236	66.3845
18.254	66.4187
18.272	66.4525
18.29	66.4852
18.308	66.5167
18.326	66.5456
18.344	66.5718
18.362	66.5939
18.38	66.6114
18.398	66.6229
18.416	66.628
18.434	66.6255
18.452	66.6152
18.47	66.5964
18.488	66.5696
18.506	66.5345
18.524	66.4927
18.542	66.4441
18.56	66.3914
18.578	66.3348
18.596	66.2775
18.614	66.2198
18.632	66.165
18.65	66.1132
18.668	66.0671
18.686	66.0265
18.704	65.993
18.722	65.9662
18.74	65.9463
18.758	65.9327
18.776	65.9246
18.794	65.9212
18.812	65.9211
18.83	65.9236
18.848	65.9271
18.866	65.9311
18.884	65.9343
18.902	65.9365
18.92	65.9368
18.938	65.9357
18.956	65.9328
18.974	65.9288
18.992	65.924
19.01	65.919
19.028	65.9147
19.046	65.9115
19.064	65.9101
19.082	65.9108
19.1	65.9143
19.118	65.9203
19.136	65.9289
19.154	65.9397
19.172	65.9519
19.19	65.9653
19.208	65.9785
19.226	65.9912
19.244	66.0017
19.262	66.0099
19.28	66.0144
19.298	66.0154
19.316	66.0123
19.334	66.0052
19.352	65.9951
19.37	65.9818
19.388	65.9674
19.406	65.9519
19.424	65.9378
19.442	65.9251
19.46	65.916
19.478	65.9107
19.496	65.9104
19.514	65.9155
19.532	65.9258
19.55	65.9417
19.568	65.962
19.586	65.9862
19.604	66.0134
19.622	66.0416
19.64	66.0706
19.658	66.0976
19.676	66.1228
19.694	66.1436
19.712	66.1604
19.73	66.1715
19.748	66.1769
19.766	66.1766
19.784	66.1703
19.802	66.1592
19.82	66.1436
19.838	66.1245
19.856	66.1036
19.874	66.0811
19.892	66.06
19.91	66.0398
19.928	66.0235
19.946	66.0107
19.964	66.0035
19.982	66.0022
20	66.0071
20.018	66.0188
20.036	66.0369
20.054	66.0612
20.072	66.0913
20.09	66.1257
20.108	66.1646
20.126	66.2052
20.144	66.2479
20.162	66.2899
20.18	66.3304
20.198	66.3685
20.216	66.4019
20.234	66.4308
20.252	66.4536
20.27	66.4703
20.288	66.4804
20.306	66.4835
20.324	66.4805
20.342	66.4716
20.36	66.4575
20.378	66.4401
20.396	66.4191
20.414	66.398
20.432	66.3762
20.45	66.3566
20.468	66.3406
20.486	66.3285
20.504	66.323
20.522	66.3233
20.54	66.3311
20.558	66.3465
20.576	66.3688
20.594	66.3982
20.612	66.4337
20.63	66.4734
20.648	66.5179
20.666	66.563
20.684	66.6095
20.702	66.6544
20.72	66.6957
20.738	66.7332
20.756	66.7636
20.774	66.7875
20.792	66.803
20.81	66.8094
20.828	66.8073
20.846	66.796
20.864	66.776
20.882	66.7489
20.9	66.7142
20.918	66.6742
20.936	66.6305
20.954	66.583
20.972	66.5356
20.99	66.4873
21.008	66.4409
21.026	66.3974
21.044	66.3568
21.062	66.321
21.08	66.2897
21.098	66.2628
21.116	66.241
21.134	66.2233
21.152	66.209
21.17	66.1984
21.188	66.1891
21.206	66.181
21.224	66.1731
21.242	66.1628
21.26	66.1511
21.278	66.1356
21.296	66.1158
21.314	66.0919
21.332	66.0626
21.35	66.0282
21.368	65.9891
21.386	65.9447
21.404	65.896
21.422	65.8443
21.44	65.7889
21.458	65.7322
21.476	65.6748
21.494	65.617
21.512	65.5619
21.53	65.5086
21.548	65.4591
21.566	65.415
21.584	65.3757
21.602	65.3432
21.62	65.3176
21.638	65.299
21.656	65.288
21.674	65.2844
21.692	65.2877
21.71	65.2978
21.728	65.3144
21.746	65.3359
21.764	65.363
21.782	65.3939
21.8	65.4274
21.818	65.4639
21.836	65.5008
21.854	65.5381
21.872	65.5751
21.89	65.6097
21.908	65.6425
21.926	65.6722
21.944	65.6975
21.962	65.719
21.98	65.7358
21.998	65.7477
22.016	65.7549
22.034	65.7571
22.052	65.754
22.07	65.7468
22.088	65.7358
22.106	65.7208
22.124	65.704
22.142	65.6853
22.16	65.6652
22.178	65.6465
22.196	65.6283
22.214	65.6122
22.232	65.6002
22.25	65.5914
22.268	65.5875
22.286	65.5899
22.304	65.5978
22.322	65.6127
22.34	65.6348
22.358	65.6639
22.376	65.7001
22.394	65.7438
22.412	65.7941
22.43	65.8503
22.448	65.9128
22.466	65.9805
22.484	66.0525
22.502	66.1293
22.52	66.2095
22.538	66.2925
22.556	66.3786
22.574	66.4668
22.592	66.557
22.61	66.649
22.628	66.7423
22.646	66.8371
22.664	66.933
22.682	67.0296
22.7	67.1273
22.718	67.2254
22.736	67.3234
22.754	67.4215
22.772	67.5191
22.79	67.6153
22.808	67.7108
22.826	67.804
22.844	67.894
22.862	67.9815
22.88	68.0639
22.898	68.1405
22.916	68.2118
22.934	68.2749
22.952	68.3288
22.97	68.3744
22.988	68.4094
23.006	68.4334
23.024	68.4467
23.042	68.4483
23.06	68.4377
23.078	68.4156
23.096	68.3824
23.114	68.3377
23.132	68.2823
23.15	68.2181
23.168	68.1443
23.186	68.062
23.204	67.9749
23.222	67.8821
23.24	67.7847
23.258	67.6864
23.276	67.5865
23.294	67.4859
23.312	67.3884
23.33	67.2937
23.348	67.202
23.366	67.1159
23.384	67.0353
23.402	66.9601
23.42	66.8912
23.438	66.8292
23.456	66.7734
23.474	66.723
23.492	66.6783
23.51	66.639
23.528	66.603
23.546	66.5702
23.564	66.5409
23.582	66.5121
23.6	66.483
23.618	66.4546
23.636	66.4245
23.654	66.3919
23.672	66.3576
23.69	66.3198
23.708	66.2769
23.726	66.2302
23.744	66.1781
23.762	66.1192
23.78	66.0542
23.798	65.983
23.816	65.9053
23.834	65.8207
23.852	65.7303
23.87	65.6354
23.888	65.5354
23.906	65.4311
23.924	65.3244
23.942	65.2149
23.96	65.1028
23.978	64.9907
23.996	64.8791
24.014	64.7671
24.032	64.6577
24.05	64.5523
24.068	64.4493
24.086	64.3516
24.104	64.2619
24.122	64.1778
24.14	64.102
24.158	64.0382
24.176	63.9847
24.194	63.9427
24.212	63.9159
24.23	63.905
24.248	63.9087
24.266	63.9297
24.284	63.9698
24.302	64.0274
24.32	64.1034
24.338	64.1985
24.356	64.3128
24.374	64.4454
24.392	64.5955
24.41	64.7643
24.428	64.9506
24.446	65.1512
24.464	65.3657
24.482	65.5958
24.5	65.8355
24.518	66.0803
24.536	66.3349
24.554	66.5939
24.572	66.8496
24.59	67.1045
24.608	67.3579
24.626	67.6026
24.644	67.836
24.662	68.0618
24.68	68.2743
24.698	68.468
24.716	68.6464
24.734	68.8074
24.752	68.9466
24.77	69.0634
24.788	69.1594
24.806	69.2326
24.824	69.2812
24.842	69.3063
24.86	69.3082
24.878	69.2874
24.896	69.2424
24.914	69.1748
24.932	69.0878
24.95	68.9827
24.968	68.8577
24.986	68.7159
25.004	68.5608
25.022	68.3885
25.04	68.2023
25.058	68.0099
25.076	67.8132
25.094	67.6072
25.112	67.4017
25.13	67.2065
25.148	67.0142
25.166	66.8294
25.184	66.6645
25.202	66.5243
25.22	66.4009
25.238	66.3047
25.256	66.2462
25.274	66.2197
25.292	66.2271
25.31	66.2785
25.328	66.3797
25.346	66.5238
25.364	66.7163
25.382	66.9639
25.4	67.2669
25.418	67.6226
25.436	68.0315
25.454	68.4946
25.472	69.0143
25.49	69.5847
25.508	70.1986
25.526	70.8578
25.544	71.5651
25.562	72.3064
25.58	73.0688
25.598	73.8644
25.616	74.6854
25.634	75.5121
25.652	76.3344
25.67	77.1686
25.688	77.9963
25.706	78.7956
25.724	79.5682
25.742	80.3222
25.76	81.0363
25.778	81.6911
25.796	82.2991
25.814	82.8566
25.832	83.3482
25.85	83.7633
25.868	84.1129
25.886	84.3915
25.904	84.5911
25.922	84.7082
25.94	84.7473
25.958	84.7095
25.976	84.5958
25.994	84.4023
26.012	84.1321
26.03	83.7936
26.048	83.3933
26.066	82.9219
26.084	82.3873
26.102	81.8035
26.12	81.1779
26.138	80.4981
26.156	79.7766
26.174	79.0294
26.192	78.2602
26.21	77.4578
26.228	76.6374
26.246	75.8145
26.264	74.9877
26.282	74.1508
26.3	73.3167
26.318	72.4978
26.336	71.6876
26.354	70.8859
26.372	70.1038
26.39	69.3519
26.408	68.6243
26.426	67.9209
26.444	67.2474
26.462	66.6079
26.48	65.9981
26.498	65.4198
26.516	64.8772
26.534	64.3744
26.552	63.9105
26.57	63.4822
26.588	63.0864
26.606	62.722
26.624	62.3943
26.642	62.096
26.66	61.8184
26.678	61.5585
26.696	61.3266
26.714	61.1101
26.732	60.8946
26.75	60.6746
26.768	60.4636
26.786	60.2481
26.804	60.0121
26.822	59.75
26.84	59.4762
26.858	59.1768
26.876	58.836
26.894	58.4475
26.912	58.0255
26.93	57.558
26.948	57.0312
26.966	56.3938
26.984	55.5917
27.002	54.7849
27.02	54.1463
27.028	53.9797