File: Bakgrunnsmateriale/MATLAB/FTIR/ftir_data/subCa/Mapping_25/BZ12041010-4_e27.asc
PE IR       SPECTRUM    SPECTRUM    ASCII       PEDS        1.60
  -1
BZ2EB8~1.ASC
17/04/10
09:44:36.00
17/04/10
09:45:02.00
tln
$BZ12041010-4_e0027$<ebV0>[-23.0,28.0,5.5,0.0,22,1,0]
27.028
64

2002,4.07
MIRTGS : RIGHTBACK : INTERNAL 2
MIR : ON : INTERNAL 2
OPTKBR

0.200000
8
8.000000
FILLER
SINGLE
SPECTRUM
UNLOCKED 256

DOUBLE

COMBINED
1
0
0

0.002000
BACKG

1
0
TRUE
51149
0
LEFT NOT FITTED RIGHT NOT FITTED 0
NONE
NONE
15600
12
4.427000
51148
TRUE
1 0 8 72 0 0 0 0

15798

#HDR
-1
-1
#GR
µM
EGY
2.38419e-05
0.0
2.000000
0.002000
12515
8
2.461099
0.010108
#DATA
2.000000	 0.777316
2.018000	 0.798915
2.036000	 0.812832
2.054000	 0.839683
2.072000	 0.847424
2.090000	 0.887252
2.108000	 0.901213
2.126000	 0.913310
2.144000	 0.921109
2.162000	 0.935218
2.180000	 0.961902
2.198000	 0.994000
2.216000	 1.007589
2.234000	 1.009478
2.252000	 1.051592
2.270000	 1.051261
2.288000	 1.061704
2.306000	 1.088185
2.324000	 1.127035
2.342000	 1.159396
2.360000	 1.183888
2.378000	 1.201821
2.396000	 1.212420
2.414000	 1.231552
2.432000	 1.260181
2.450000	 1.294900
2.468000	 1.338392
2.486000	 1.380570
2.504000	 1.406823
2.522000	 1.423473
2.540000	 1.430536
2.558000	 1.438871
2.576000	 1.446546
2.594000	 1.454177
2.612000	 1.497477
2.630000	 1.518407
2.648000	 1.556106
2.666000	 1.553337
2.684000	 1.578446
2.702000	 1.585094
2.720000	 1.572199
2.738000	 1.576028
2.756000	 1.580937
2.774000	 1.596398
2.792000	 1.610040
2.810000	 1.626459
2.828000	 1.632202
2.846000	 1.638605
2.864000	 1.630472
2.882000	 1.620945
2.900000	 1.605782
2.918000	 1.595854
2.936000	 1.600507
2.954000	 1.616591
2.972000	 1.635199
2.990000	 1.664225
3.008000	 1.696677
3.026000	 1.723850
3.044000	 1.750092
3.062000	 1.773089
3.080000	 1.785691
3.098000	 1.793664
3.116000	 1.798951
3.134000	 1.801051
3.152000	 1.806003
3.170000	 1.818489
3.188000	 1.833811
3.206000	 1.854278
3.224000	 1.881901
3.242000	 1.918829
3.260000	 1.942322
3.278000	 1.969683
3.296000	 1.987285
3.314000	 1.972874
3.332000	 2.035069
3.350000	 2.035018
3.368000	 1.972594
3.386000	 1.930361
3.404000	 1.839990
3.422000	 1.789211
3.440000	 1.939305
3.458000	 1.993691
3.476000	 2.012572
3.494000	 1.916143
3.512000	 2.021994
3.530000	 2.108414
3.548000	 2.152133
3.566000	 2.182782
3.584000	 2.207125
3.602000	 2.234691
3.620000	 2.250806
3.638000	 2.260449
3.656000	 2.266017
3.674000	 2.262793
3.692000	 2.259631
3.710000	 2.252267
3.728000	 2.246291
3.746000	 2.234597
3.764000	 2.229241
3.782000	 2.227010
3.800000	 2.227267
3.818000	 2.227335
3.836000	 2.231815
3.854000	 2.236353
3.872000	 2.252608
3.890000	 2.269538
3.908000	 2.285535
3.926000	 2.300897
3.944000	 2.312415
3.962000	 2.321631
3.980000	 2.331003
3.998000	 2.333418
4.016000	 2.331933
4.034000	 2.330221
4.052000	 2.322930
4.070000	 2.312043
4.088000	 2.300441
4.106000	 2.288181
4.124000	 2.279938
4.141999	 2.270598
4.160000	 2.261169
4.178000	 2.256174
4.196000	 2.254360
4.214000	 2.244712
4.232000	 2.239762
4.250000	 2.257818
4.268000	 2.270452
4.286000	 2.281391
4.304000	 2.300679
4.322000	 2.319666
4.340000	 2.338699
4.358000	 2.352951
4.375999	 2.365890
4.394000	 2.376109
4.412000	 2.379452
4.430000	 2.387538
4.448000	 2.388883
4.466000	 2.386930
4.484000	 2.385545
4.502000	 2.381567
4.520000	 2.376453
4.538000	 2.367868
4.556000	 2.361105
4.574000	 2.354735
4.592000	 2.348314
4.609999	 2.342176
4.628000	 2.341283
4.646000	 2.341741
4.664000	 2.341521
4.682000	 2.341264
4.700000	 2.340480
4.718000	 2.340895
4.736000	 2.342561
4.754000	 2.342940
4.772000	 2.345601
4.790000	 2.345644
4.808000	 2.353365
4.826000	 2.362668
4.843999	 2.378392
4.862000	 2.394456
4.880000	 2.411393
4.898000	 2.425572
4.916000	 2.435927
4.934000	 2.445823
4.952000	 2.451987
4.970000	 2.457848
4.988000	 2.460178
5.006000	 2.461038
5.024000	 2.458630
5.042000	 2.454018
5.060000	 2.449801
5.077999	 2.443418
5.096000	 2.436916
5.114000	 2.429972
5.132000	 2.424870
5.150000	 2.420815
5.168000	 2.414877
5.186000	 2.407510
5.204000	 2.398653
5.222000	 2.392536
5.240000	 2.385917
5.258000	 2.378962
5.276000	 2.375653
5.294000	 2.373626
5.312000	 2.377461
5.330000	 2.380911
5.348000	 2.380477
5.366000	 2.386922
5.384000	 2.393979
5.402000	 2.396366
5.420000	 2.395310
5.438000	 2.404957
5.456000	 2.411292
5.474000	 2.414636
5.492000	 2.422679
5.510000	 2.429356
5.528000	 2.434270
5.546000	 2.435648
5.564000	 2.433402
5.582000	 2.431440
5.600000	 2.434801
5.618000	 2.430689
5.636000	 2.418179
5.654000	 2.414535
5.672000	 2.415089
5.690000	 2.406305
5.708000	 2.386913
5.726000	 2.371529
5.744000	 2.351043
5.762000	 2.325579
5.780000	 2.324907
5.798000	 2.326910
5.816000	 2.309650
5.834000	 2.302718
5.852000	 2.297253
5.870000	 2.272238
5.888000	 2.252195
5.906000	 2.258088
5.923999	 2.251332
5.942000	 2.240212
5.960000	 2.240250
5.978000	 2.230025
5.996000	 2.222446
6.014000	 2.214947
6.032000	 2.191387
6.050000	 2.160952
6.068000	 2.160211
6.086000	 2.164966
6.104000	 2.150297
6.122000	 2.136092
6.140000	 2.128033
6.158000	 2.105784
6.176000	 2.068004
6.194000	 2.022156
6.212000	 1.982063
6.230000	 1.972204
6.248000	 1.992631
6.266000	 2.011192
6.284000	 2.016842
6.302000	 2.012785
6.320000	 2.001877
6.338000	 1.987931
6.356000	 1.982470
6.374000	 1.978244
6.392000	 1.957050
6.410000	 1.927942
6.428000	 1.929799
6.446000	 1.952571
6.464000	 1.959167
6.482000	 1.961962
6.500000	 1.998298
6.518000	 2.057389
6.536000	 2.098349
6.554000	 2.111013
6.572000	 2.108073
6.590000	 2.103258
6.608000	 2.094128
6.626000	 2.071361
6.644000	 2.019587
6.662000	 1.895395
6.680000	 1.730212
6.698000	 1.671179
6.716000	 1.758218
6.734000	 1.878891
6.752000	 1.951414
6.770000	 1.973928
6.788000	 1.973967
6.806000	 1.967031
6.824000	 1.947468
6.842000	 1.903695
6.860000	 1.834968
6.878000	 1.773250
6.896000	 1.763830
6.914000	 1.804272
6.932000	 1.844702
6.950000	 1.860040
6.968000	 1.865894
6.986000	 1.870813
7.004000	 1.870448
7.022000	 1.865089
7.040000	 1.857315
7.058000	 1.847787
7.076000	 1.828920
7.094000	 1.790556
7.112000	 1.745364
7.130000	 1.723646
7.148000	 1.736645
7.166000	 1.766291
7.184000	 1.786858
7.202000	 1.788465
7.220000	 1.784608
7.238000	 1.790403
7.256000	 1.801635
7.274000	 1.809304
7.292000	 1.813618
7.310000	 1.815894
7.328000	 1.815804
7.346000	 1.815627
7.364000	 1.816765
7.382000	 1.817439
7.400000	 1.816712
7.418000	 1.815443
7.436000	 1.814349
7.454000	 1.815058
7.472000	 1.820116
7.490000	 1.828956
7.508000	 1.837776
7.526000	 1.844248
7.544000	 1.848839
7.562000	 1.852528
7.580000	 1.855343
7.598000	 1.856731
7.616000	 1.856830
7.634000	 1.856386
7.652000	 1.855869
7.670000	 1.855371
7.688000	 1.855342
7.706000	 1.855750
7.724000	 1.856001
7.742000	 1.855712
7.760000	 1.854856
7.778000	 1.853331
7.796000	 1.850534
7.814000	 1.845391
7.832000	 1.836111
7.850000	 1.820235
7.868000	 1.795307
7.886000	 1.762499
7.904000	 1.731078
7.922000	 1.715539
7.940000	 1.724083
7.958000	 1.750896
7.976000	 1.781858
7.994000	 1.806389
8.012000	 1.822037
8.030000	 1.830703
8.048000	 1.834369
8.065999	 1.834718
8.084000	 1.833161
8.102000	 1.830518
8.120000	 1.827095
8.138000	 1.823062
8.155999	 1.818086
8.173999	 1.811474
8.192000	 1.802355
8.210000	 1.790299
8.228000	 1.776232
8.246000	 1.762657
8.263999	 1.752229
8.282000	 1.746179
8.300000	 1.743943
8.318000	 1.744139
8.336000	 1.745367
8.353999	 1.746107
8.372000	 1.744803
8.390000	 1.740894
8.408000	 1.735113
8.426000	 1.728562
8.443999	 1.721829
8.462000	 1.714896
8.480000	 1.707617
8.498000	 1.699901
8.516000	 1.691529
8.533999	 1.682228
8.552000	 1.671750
8.570000	 1.660372
8.588000	 1.648308
8.606000	 1.636435
8.624000	 1.626040
8.641999	 1.618182
8.660000	 1.612898
8.678000	 1.609339
8.696000	 1.606259
8.714000	 1.602769
8.731999	 1.598578
8.750000	 1.593728
8.768000	 1.588098
8.786000	 1.581434
8.804000	 1.573423
8.821999	 1.564083
8.840000	 1.553713
8.858000	 1.542717
8.876000	 1.531392
8.894000	 1.519934
8.911999	 1.508419
8.930000	 1.496907
8.948000	 1.485432
8.966000	 1.474052
8.984000	 1.463032
9.001999	 1.452778
9.020000	 1.443791
9.038000	 1.436591
9.056000	 1.431458
9.074000	 1.428140
9.092000	 1.425917
9.109999	 1.424326
9.128000	 1.423253
9.146000	 1.422971
9.164000	 1.423726
9.182000	 1.425245
9.199999	 1.426821
9.218000	 1.427892
9.236000	 1.428147
9.254000	 1.428006
9.272000	 1.428166
9.289999	 1.429279
9.308000	 1.431223
9.326000	 1.433395
9.344000	 1.435091
9.362000	 1.435903
9.379999	 1.435636
9.398000	 1.433842
9.416000	 1.428690
9.434000	 1.417246
9.452000	 1.396704
9.469999	 1.367634
9.488000	 1.335707
9.506000	 1.310299
9.524000	 1.299597
9.542000	 1.305949
9.560000	 1.324569
9.577999	 1.346854
9.596000	 1.365498
9.614000	 1.377245
9.632000	 1.382683
9.650000	 1.383722
9.667999	 1.382262
9.686000	 1.379300
9.704000	 1.375484
9.722000	 1.371155
9.740000	 1.366801
9.757999	 1.362988
9.776000	 1.360353
9.794000	 1.359414
9.812000	 1.360349
9.830000	 1.362912
9.847999	 1.366490
9.866000	 1.370716
9.884000	 1.375349
9.902000	 1.380119
9.920000	 1.384973
9.937999	 1.389542
9.956000	 1.393449
9.974000	 1.396395
9.992000	 1.398373
10.01	1.399373
10.028	1.399545
10.046	1.398988
10.064	1.397777
10.082	1.395926
10.1	1.393558
10.118	1.390792
10.136	1.387739
10.154	1.384488
10.172	1.381078
10.19	1.377536
10.208	1.373870
10.226	1.370111
10.244	1.366184
10.262	1.362050
10.28	1.357504
10.298	1.352616
10.316	1.347355
10.334	1.341798
10.352	1.336087
10.37	1.330270
10.388	1.324394
10.406	1.318493
10.424	1.312597
10.442	1.306535
10.46	1.300444
10.478	1.294319
10.496	1.288390
10.514	1.282864
10.532	1.277912
10.55	1.273688
10.568	1.270050
10.586	1.266914
10.604	1.264160
10.622	1.261666
10.64	1.259275
10.658	1.256979
10.676	1.254515
10.694	1.251750
10.712	1.248595
10.73	1.244988
10.748	1.241090
10.766	1.237048
10.784	1.232973
10.802	1.229053
10.82	1.225295
10.838	1.221580
10.856	1.217667
10.874	1.213448
10.892	1.208659
10.91	1.203300
10.928	1.197513
10.946	1.191451
10.964	1.185496
10.982	1.179877
11	1.174744
11.018	1.170210
11.036	1.166250
11.054	1.162849
11.072	1.159948
11.09	1.157443
11.108	1.155277
11.126	1.153255
11.144	1.151210
11.162	1.148906
11.18	1.146157
11.198	1.142619
11.216	1.138073
11.234	1.132173
11.252	1.124691
11.27	1.115478
11.288	1.104553
11.306	1.092233
11.324	1.079032
11.342	1.065782
11.36	1.053338
11.378	1.042731
11.396	1.034780
11.414	1.030083
11.432	1.028987
11.45	1.031339
11.468	1.036635
11.486	1.044149
11.504	1.052855
11.522	1.061870
11.54	1.070378
11.558	1.077779
11.576	1.083811
11.594	1.088460
11.612	1.091653
11.63	1.093606
11.648	1.094516
11.666	1.094564
11.684	1.093864
11.702	1.092617
11.72	1.090987
11.738	1.089015
11.756	1.086871
11.774	1.084603
11.792	1.082265
11.81	1.079862
11.828	1.077360
11.846	1.074566
11.864	1.071272
11.882	1.067141
11.9	1.061760
11.918	1.054584
11.936	1.045108
11.954	1.032808
11.972	1.017335
11.99	0.998553
12.008	0.976727
12.026	0.952488
12.044	0.927094
12.062	0.902250
12.08	0.879896
12.098	0.861897
12.116	0.849841
12.134	0.844566
12.152	0.846067
12.17	0.853546
12.188	0.865479
12.206	0.880009
12.224	0.895183
12.242	0.909362
12.26	0.921570
12.278	0.931214
12.296	0.938171
12.314	0.942745
12.332	0.945404
12.35	0.946669
12.368	0.946925
12.386	0.946569
12.404	0.945903
12.422	0.945130
12.44	0.944424
12.458	0.944011
12.476	0.943951
12.494	0.944419
12.512	0.945477
12.53	0.947075
12.548	0.949167
12.566	0.951610
12.584	0.954423
12.602	0.957409
12.62	0.960395
12.638	0.963343
12.656	0.966163
12.674	0.968823
12.692	0.971240
12.71	0.973380
12.728	0.975219
12.746	0.976743
12.764	0.977881
12.782	0.978623
12.8	0.978985
12.818	0.978993
12.836	0.978707
12.854	0.978165
12.872	0.977452
12.89	0.976580
12.908	0.975597
12.926	0.974547
12.944	0.973484
12.962	0.972337
12.98	0.971216
12.998	0.970123
13.016	0.969047
13.034	0.968017
13.052	0.967113
13.07	0.966255
13.088	0.965446
13.106	0.964766
13.124	0.964117
13.142	0.963470
13.16	0.962826
13.178	0.962171
13.196	0.961387
13.214	0.960497
13.232	0.959466
13.25	0.958316
13.268	0.956983
13.286	0.955518
13.304	0.953901
13.322	0.952200
13.34	0.950449
13.358	0.948679
13.376	0.946918
13.394	0.945188
13.412	0.943443
13.43	0.941704
13.448	0.939962
13.466	0.938201
13.484	0.936405
13.502	0.934541
13.52	0.932606
13.538	0.930568
13.556	0.928393
13.574	0.926093
13.592	0.923689
13.61	0.921161
13.628	0.918476
13.646	0.915742
13.664	0.912967
13.682	0.910115
13.7	0.907277
13.718	0.904469
13.736	0.901621
13.754	0.898829
13.772	0.895955
13.79	0.893085
13.808	0.890229
13.826	0.887300
13.844	0.884378
13.862	0.881450
13.88	0.878573
13.898	0.875792
13.916	0.873109
13.934	0.870539
13.952	0.868073
13.97	0.865690
13.988	0.863367
14.006	0.861044
14.024	0.858687
14.042	0.856257
14.06	0.853735
14.078	0.851124
14.096	0.848387
14.114	0.845557
14.132	0.842650
14.15	0.839653
14.168	0.836563
14.186	0.833366
14.204	0.830083
14.222	0.826698
14.24	0.823158
14.258	0.819421
14.276	0.815526
14.294	0.811398
14.312	0.806951
14.33	0.802164
14.348	0.796961
14.366	0.791373
14.384	0.785363
14.402	0.778931
14.42	0.772227
14.438	0.765436
14.456	0.758740
14.474	0.752331
14.492	0.746455
14.51	0.741327
14.528	0.737096
14.546	0.733861
14.564	0.731627
14.582	0.730329
14.6	0.729853
14.618	0.729975
14.636	0.730562
14.654	0.731321
14.672	0.732113
14.69	0.732802
14.708	0.733246
14.726	0.733422
14.744	0.733285
14.762	0.732817
14.78	0.732060
14.798	0.731079
14.816	0.729933
14.834	0.728630
14.852	0.727199
14.87	0.725664
14.888	0.724074
14.906	0.722455
14.924	0.720773
14.942	0.719068
14.96	0.717321
14.978	0.715541
14.996	0.713732
15.014	0.711880
15.032	0.709983
15.05	0.708078
15.068	0.706137
15.086	0.704136
15.104	0.702080
15.122	0.699999
15.14	0.697908
15.158	0.695799
15.176	0.693670
15.194	0.691566
15.212	0.689474
15.23	0.687447
15.248	0.685485
15.266	0.683551
15.284	0.681666
15.302	0.679833
15.32	0.678019
15.338	0.676192
15.356	0.674391
15.374	0.672567
15.392	0.670729
15.41	0.668873
15.428	0.666943
15.446	0.664974
15.464	0.662989
15.482	0.660991
15.5	0.658952
15.518	0.656903
15.536	0.654854
15.554	0.652814
15.572	0.650796
15.59	0.648767
15.608	0.646738
15.626	0.644714
15.644	0.642697
15.662	0.640670
15.68	0.638642
15.698	0.636619
15.716	0.634600
15.734	0.632593
15.752	0.630614
15.77	0.628681
15.788	0.626776
15.806	0.624901
15.824	0.623054
15.842	0.621238
15.86	0.619439
15.878	0.617655
15.896	0.615889
15.914	0.614126
15.932	0.612360
15.95	0.610582
15.968	0.608786
15.986	0.606949
16.004	0.605063
16.022	0.603119
16.04	0.601147
16.058	0.599140
16.076	0.597088
16.094	0.594968
16.112	0.592785
16.13	0.590534
16.148	0.588192
16.166	0.585776
16.184	0.583283
16.202	0.580708
16.22	0.578014
16.238	0.575207
16.256	0.572297
16.274	0.569272
16.292	0.566132
16.31	0.562878
16.328	0.559518
16.346	0.556074
16.364	0.552566
16.382	0.549051
16.4	0.545585
16.418	0.542213
16.436	0.538981
16.454	0.535948
16.472	0.533153
16.49	0.530646
16.508	0.528465
16.526	0.526640
16.544	0.525216
16.562	0.524140
16.58	0.523377
16.598	0.522933
16.616	0.522754
16.634	0.522796
16.652	0.522954
16.67	0.523179
16.688	0.523416
16.706	0.523631
16.724	0.523790
16.742	0.523834
16.76	0.523724
16.778	0.523457
16.796	0.523060
16.814	0.522519
16.832	0.521834
16.85	0.521015
16.868	0.520117
16.886	0.519183
16.904	0.518208
16.922	0.517213
16.94	0.516233
16.958	0.515287
16.976	0.514385
16.994	0.513541
17.012	0.512766
17.03	0.512071
17.048	0.511431
17.066	0.510847
17.084	0.510322
17.102	0.509837
17.12	0.509387
17.138	0.508982
17.156	0.508591
17.174	0.508184
17.192	0.507770
17.21	0.507347
17.228	0.506918
17.246	0.506476
17.264	0.506014
17.282	0.505548
17.3	0.505070
17.318	0.504551
17.336	0.504008
17.354	0.503450
17.372	0.502895
17.39	0.502340
17.408	0.501778
17.426	0.501204
17.444	0.500609
17.462	0.500016
17.48	0.499426
17.498	0.498843
17.516	0.498243
17.534	0.497602
17.552	0.496954
17.57	0.496303
17.588	0.495597
17.606	0.494845
17.624	0.494057
17.642	0.493231
17.66	0.492370
17.678	0.491443
17.696	0.490457
17.714	0.489448
17.732	0.488407
17.75	0.487320
17.768	0.486222
17.786	0.485122
17.804	0.484016
17.822	0.482905
17.84	0.481808
17.858	0.480719
17.876	0.479625
17.894	0.478550
17.912	0.477506
17.93	0.476472
17.948	0.475447
17.966	0.474421
17.984	0.473399
18.002	0.472389
18.02	0.471386
18.038	0.470387
18.056	0.469373
18.074	0.468332
18.092	0.467294
18.11	0.466260
18.128	0.465219
18.146	0.464173
18.164	0.463133
18.182	0.462092
18.2	0.461039
18.218	0.459995
18.236	0.458968
18.254	0.457969
18.272	0.457005
18.29	0.456050
18.308	0.455099
18.326	0.454173
18.344	0.453270
18.362	0.452399
18.38	0.451555
18.398	0.450722
18.416	0.449905
18.434	0.449107
18.452	0.448313
18.47	0.447511
18.488	0.446699
18.506	0.445874
18.524	0.445039
18.542	0.444197
18.56	0.443320
18.578	0.442402
18.596	0.441441
18.614	0.440435
18.632	0.439392
18.65	0.438313
18.668	0.437207
18.686	0.436071
18.704	0.434888
18.722	0.433664
18.74	0.432418
18.758	0.431154
18.776	0.429897
18.794	0.428645
18.812	0.427400
18.83	0.426168
18.848	0.424960
18.866	0.423772
18.884	0.422597
18.902	0.421435
18.92	0.420277
18.938	0.419132
18.956	0.418010
18.974	0.416907
18.992	0.415834
19.01	0.414766
19.028	0.413671
19.046	0.412564
19.064	0.411448
19.082	0.410322
19.1	0.409189
19.118	0.408044
19.136	0.406883
19.154	0.405706
19.172	0.404505
19.19	0.403285
19.208	0.402052
19.226	0.400804
19.244	0.399540
19.262	0.398262
19.28	0.396983
19.298	0.395701
19.316	0.394422
19.334	0.393146
19.352	0.391876
19.37	0.390613
19.388	0.389378
19.406	0.388171
19.424	0.386971
19.442	0.385775
19.46	0.384592
19.478	0.383426
19.496	0.382264
19.514	0.381102
19.532	0.379943
19.55	0.378790
19.568	0.377631
19.586	0.376456
19.604	0.375265
19.622	0.374052
19.64	0.372822
19.658	0.371585
19.676	0.370341
19.694	0.369095
19.712	0.367846
19.73	0.366593
19.748	0.365335
19.766	0.364086
19.784	0.362852
19.802	0.361631
19.82	0.360424
19.838	0.359227
19.856	0.358037
19.874	0.356853
19.892	0.355670
19.91	0.354489
19.928	0.353312
19.946	0.352142
19.964	0.350952
19.982	0.349740
20	0.348496
20.018	0.347209
20.036	0.345890
20.054	0.344546
20.072	0.343177
20.09	0.341785
20.108	0.340370
20.126	0.338904
20.144	0.337379
20.162	0.335822
20.18	0.334246
20.198	0.332645
20.216	0.331017
20.234	0.329366
20.252	0.327692
20.27	0.325995
20.288	0.324300
20.306	0.322611
20.324	0.320928
20.342	0.319251
20.36	0.317584
20.378	0.315935
20.396	0.314303
20.414	0.312688
20.432	0.311085
20.45	0.309506
20.468	0.307956
20.486	0.306428
20.504	0.304913
20.522	0.303414
20.54	0.301931
20.558	0.300465
20.576	0.299011
20.594	0.297568
20.612	0.296135
20.63	0.294708
20.648	0.293287
20.666	0.291874
20.684	0.290471
20.702	0.289067
20.72	0.287651
20.738	0.286230
20.756	0.284814
20.774	0.283402
20.792	0.281988
20.81	0.280571
20.828	0.279154
20.846	0.277740
20.864	0.276328
20.882	0.274922
20.9	0.273523
20.918	0.272132
20.936	0.270753
20.954	0.269385
20.972	0.268026
20.99	0.266676
21.008	0.265341
21.026	0.264026
21.044	0.262730
21.062	0.261457
21.08	0.260206
21.098	0.258977
21.116	0.257768
21.134	0.256581
21.152	0.255422
21.17	0.254291
21.188	0.253175
21.206	0.252070
21.224	0.250978
21.242	0.249896
21.26	0.248826
21.278	0.247751
21.296	0.246670
21.314	0.245580
21.332	0.244476
21.35	0.243358
21.368	0.242226
21.386	0.241086
21.404	0.239930
21.422	0.238748
21.44	0.237542
21.458	0.236310
21.476	0.235051
21.494	0.233765
21.512	0.232443
21.53	0.231084
21.548	0.229696
21.566	0.228282
21.584	0.226842
21.602	0.225383
21.62	0.223907
21.638	0.222412
21.656	0.220898
21.674	0.219363
21.692	0.217816
21.71	0.216261
21.728	0.214694
21.746	0.213111
21.764	0.211510
21.782	0.209900
21.8	0.208288
21.818	0.206671
21.836	0.205057
21.854	0.203449
21.872	0.201843
21.89	0.200229
21.908	0.198607
21.926	0.196989
21.944	0.195386
21.962	0.193793
21.98	0.192205
21.998	0.190618
22.016	0.189040
22.034	0.187484
22.052	0.185948
22.07	0.184432
22.088	0.182939
22.106	0.181466
22.124	0.180021
22.142	0.178600
22.16	0.177209
22.178	0.175868
22.196	0.174576
22.214	0.173333
22.232	0.172139
22.25	0.170995
22.268	0.169901
22.286	0.168860
22.304	0.167870
22.322	0.166935
22.34	0.166060
22.358	0.165236
22.376	0.164453
22.394	0.163713
22.412	0.163010
22.43	0.162335
22.448	0.161694
22.466	0.161067
22.484	0.160439
22.502	0.159816
22.52	0.159186
22.538	0.158542
22.556	0.157889
22.574	0.157212
22.592	0.156513
22.61	0.155791
22.628	0.155033
22.646	0.154240
22.664	0.153412
22.682	0.152542
22.7	0.151626
22.718	0.150676
22.736	0.149707
22.754	0.148717
22.772	0.147700
22.79	0.146652
22.808	0.145572
22.826	0.144478
22.844	0.143384
22.862	0.142282
22.88	0.141178
22.898	0.140074
22.916	0.138967
22.934	0.137866
22.952	0.136774
22.97	0.135689
22.988	0.134617
23.006	0.133559
23.024	0.132514
23.042	0.131481
23.06	0.130466
23.078	0.129463
23.096	0.128457
23.114	0.127445
23.132	0.126432
23.15	0.125424
23.168	0.124426
23.186	0.123431
23.204	0.122426
23.222	0.121410
23.24	0.120384
23.258	0.119344
23.276	0.118286
23.294	0.117215
23.312	0.116133
23.33	0.115042
23.348	0.113939
23.366	0.112820
23.384	0.111681
23.402	0.110526
23.42	0.109358
23.438	0.108174
23.456	0.106977
23.474	0.105774
23.492	0.104566
23.51	0.103352
23.528	0.102138
23.546	0.100923
23.564	0.099707
23.582	0.098495
23.6	0.097288
23.618	0.096085
23.636	0.094889
23.654	0.093699
23.672	0.092515
23.69	0.091341
23.708	0.090180
23.726	0.089030
23.744	0.087893
23.762	0.086771
23.78	0.085664
23.798	0.084570
23.816	0.083486
23.834	0.082412
23.852	0.081350
23.87	0.080302
23.888	0.079267
23.906	0.078246
23.924	0.077240
23.942	0.076251
23.96	0.075278
23.978	0.074320
23.996	0.073379
24.014	0.072454
24.032	0.071541
24.05	0.070635
24.068	0.069738
24.086	0.068855
24.104	0.067992
24.122	0.067148
24.14	0.066320
24.158	0.065507
24.176	0.064708
24.194	0.063924
24.212	0.063154
24.23	0.062397
24.248	0.061654
24.266	0.060931
24.284	0.060232
24.302	0.059556
24.32	0.058898
24.338	0.058255
24.356	0.057625
24.374	0.057013
24.392	0.056425
24.41	0.055865
24.428	0.055329
24.446	0.054805
24.464	0.054287
24.482	0.053779
24.5	0.053285
24.518	0.052809
24.536	0.052352
24.554	0.051908
24.572	0.051475
24.59	0.051055
24.608	0.050646
24.626	0.050241
24.644	0.049837
24.662	0.049437
24.68	0.049036
24.698	0.048629
24.716	0.048217
24.734	0.047801
24.752	0.047384
24.77	0.046970
24.788	0.046555
24.806	0.046132
24.824	0.045697
24.842	0.045251
24.86	0.044796
24.878	0.044331
24.896	0.043856
24.914	0.043372
24.932	0.042880
24.95	0.042382
24.968	0.041879
24.986	0.041367
25.004	0.040842
25.022	0.040301
25.04	0.039749
25.058	0.039195
25.076	0.038646
25.094	0.038097
25.112	0.037545
25.13	0.036984
25.148	0.036409
25.166	0.035828
25.184	0.035250
25.202	0.034682
25.22	0.034118
25.238	0.033559
25.256	0.033011
25.274	0.032470
25.292	0.031937
25.31	0.031416
25.328	0.030907
25.346	0.030409
25.364	0.029925
25.382	0.029459
25.4	0.029011
25.418	0.028580
25.436	0.028169
25.454	0.027781
25.472	0.027415
25.49	0.027069
25.508	0.026741
25.526	0.026432
25.544	0.026141
25.562	0.025869
25.58	0.025615
25.598	0.025382
25.616	0.025167
25.634	0.024966
25.652	0.024776
25.67	0.024601
25.688	0.024436
25.706	0.024279
25.724	0.024127
25.742	0.023984
25.76	0.023846
25.778	0.023710
25.796	0.023581
25.814	0.023455
25.832	0.023327
25.85	0.023193
25.868	0.023056
25.886	0.022915
25.904	0.022768
25.922	0.022614
25.94	0.022456
25.958	0.022287
25.976	0.022104
25.994	0.021902
26.012	0.021686
26.03	0.021462
26.048	0.021234
26.066	0.021000
26.084	0.020761
26.102	0.020515
26.12	0.020262
26.138	0.020000
26.156	0.019734
26.174	0.019466
26.192	0.019198
26.21	0.018928
26.228	0.018658
26.246	0.018392
26.264	0.018131
26.282	0.017873
26.3	0.017620
26.318	0.017374
26.336	0.017135
26.354	0.016901
26.372	0.016678
26.39	0.016468
26.408	0.016271
26.426	0.016087
26.444	0.015911
26.462	0.015742
26.48	0.015580
26.498	0.015427
26.516	0.015282
26.534	0.015145
26.552	0.015018
26.57	0.014899
26.588	0.014783
26.606	0.014669
26.624	0.014561
26.642	0.014455
26.66	0.014347
26.678	0.014233
26.696	0.014121
26.714	0.014004
26.732	0.013874
26.75	0.013728
26.768	0.013567
26.786	0.013396
26.804	0.013217
26.822	0.013035
26.84	0.012850
26.858	0.012656
26.876	0.012445
26.894	0.012213
26.912	0.011961
26.93	0.011696
26.948	0.011420
26.966	0.011123
26.984	0.010777
27.002	0.010442
27.02	0.010178
27.028	0.010108