File: Bakgrunnsmateriale/MATLAB/FTIR/ftir_data/subCa/Mapping_25/BZ12041010-4_t17_cm-1.asc
PE IR       SPECTRUM    SPECTRUM    ASCII       PEDS        1.60
  -1
BZ2C75~1.ASC
17/04/10
10:18:33.00
17/04/10
10:18:33.00
tln
$BZ12041010-4_t0017$<tbV0>[2.6,-4.6,9.0,0.0,22,1,0]
370
64

2002,4.07
MIRTGS : RIGHTBACK : INTERNAL 2
MIR : ON : INTERNAL 2
OPTKBR

0.200000
8
8.000000
FILLER
RATIO
SPECTRUM
UNLOCKED 256

DOUBLE
64
COMBINED
1
0
0

1.000000
RATIO

1
0
TRUE
51149
0
LEFT NOT FITTED RIGHT NOT FITTED 0
NONE
NONE
15600
12
4.427000
51148
TRUE
1 0 8 72 0 0 0 0

15798

#HDR
-1
-1
#GR
CM-1
%T
2.38419e-05
0.0
5000
-1.000000
4631
8
112.152
32.6557
#DATA
5000	64.9986
4996	65.0812
4992	65.2499
4988	65.0331
4984	64.619
4980	64.4709
4976	64.543
4972	64.5122
4968	64.2402
4964	64.2236
4960	64.5538
4956	64.7326
4952	64.6421
4948	64.5423
4944	64.4042
4940	64.1491
4936	64.149
4932	64.3653
4928	64.4907
4924	64.7913
4920	65.0738
4916	64.8561
4912	64.6821
4908	65.0076
4904	65.3681
4900	65.2877
4896	64.699
4892	64.3362
4888	64.6784
4884	64.9343
4880	65.0833
4876	65.5252
4872	65.4332
4868	64.7982
4864	64.6066
4860	65.525
4856	67.0394
4852	67.7408
4848	67.7318
4844	66.3731
4840	64.4349
4836	65.7642
4832	68.1677
4828	67.4254
4824	65.6689
4820	64.7494
4816	63.6439
4812	62.6957
4808	63.3472
4804	65.1619
4800	66.2287
4796	66.1071
4792	65.5244
4788	65.2351
4784	65.7454
4780	66.4661
4776	66.2849
4772	65.7156
4768	65.5343
4764	65.2297
4760	64.9373
4756	65.1398
4752	65.2247
4748	64.9997
4744	65.0374
4740	65.237
4736	65.4043
4732	65.5163
4728	65.6961
4724	65.9969
4720	65.9595
4716	65.6831
4712	65.5136
4708	65.3284
4704	65.2354
4700	65.1809
4696	64.9839
4692	64.8706
4688	65.0309
4684	65.1729
4680	65.0668
4676	64.8998
4672	64.7889
4668	64.7708
4664	64.739
4660	64.6835
4656	64.5936
4652	64.3677
4648	64.1665
4644	64.0105
4640	63.9591
4636	64.0991
4632	64.3154
4628	64.629
4624	64.8944
4620	64.8378
4616	64.5559
4612	64.2037
4608	63.8849
4604	63.8345
4600	63.9735
4596	64.0698
4592	64.1657
4588	64.1912
4584	64.1777
4580	64.2541
4576	64.2191
4572	64.0005
4568	63.9102
4564	64.1096
4560	64.3516
4556	64.3438
4552	64.1515
4548	63.9309
4544	63.7543
4540	63.5303
4536	63.3085
4532	63.2538
4528	63.1822
4524	63.3543
4520	63.8991
4516	64.0515
4512	63.9589
4508	64.1813
4504	64.2323
4500	63.985
4496	63.7988
4492	63.8456
4488	64.2021
4484	64.5873
4480	64.2198
4476	63.9508
4472	68.2389
4468	76.5568
4464	90.0087
4460	110.064
4456	104.021
4452	78.4107
4448	66.0018
4444	64.1501
4440	63.6849
4436	63.6147
4432	63.4927
4428	62.7698
4424	62.6809
4420	62.9245
4416	62.9858
4412	63.3406
4408	63.6423
4404	63.5783
4400	63.5209
4396	63.8135
4392	64.106
4388	63.9112
4384	63.4262
4380	63.25
4376	63.4387
4372	63.6548
4368	63.8071
4364	64.012
4360	64.1655
4356	64.0445
4352	63.8665
4348	63.8269
4344	64.0227
4340	64.2398
4336	64.2134
4332	64.3264
4328	64.5278
4324	64.5937
4320	64.6244
4316	64.5583
4312	64.5391
4308	64.7546
4304	64.8972
4300	64.706
4296	64.4827
4292	64.5673
4288	64.8151
4284	64.8702
4280	64.7592
4276	64.6997
4272	64.7421
4268	64.851
4264	64.9117
4260	64.8648
4256	64.9015
4252	65.0542
4248	65.1469
4244	65.1517
4240	65.2027
4236	65.3991
4232	65.4592
4228	65.3203
4224	65.3775
4220	65.5262
4216	65.3901
4212	65.2433
4208	65.3348
4204	65.4156
4200	65.3363
4196	65.2778
4192	65.402
4188	65.5021
4184	65.6005
4180	65.6867
4176	65.6439
4172	65.6898
4168	65.7883
4164	65.8049
4160	65.6683
4156	65.4005
4152	65.3435
4148	65.5455
4144	65.6924
4140	65.7315
4136	65.6114
4132	65.4706
4128	65.5587
4124	65.5502
4120	65.4045
4116	65.4847
4112	65.6268
4108	65.6315
4104	65.5972
4100	65.5424
4096	65.4839
4092	65.5769
4088	65.701
4084	65.5927
4080	65.4308
4076	65.4073
4072	65.4008
4068	65.3123
4064	65.2436
4060	65.2457
4056	65.3534
4052	65.4837
4048	65.3732
4044	65.1718
4040	65.1475
4036	65.1526
4032	65.0811
4028	65.0554
4024	65.0321
4020	64.9497
4016	65.0085
4012	65.1596
4008	65.1298
4004	65.0255
4000	64.9851
3996	64.989
3992	65.0597
3988	65.1354
3984	65.1602
3980	65.1796
3976	65.2257
3972	65.1739
3968	64.9791
3964	64.8862
3960	65.0423
3956	65.309
3952	65.3678
3948	65.131
3944	64.9204
3940	64.9328
3936	65.1424
3932	65.3828
3928	65.4197
3924	65.2798
3920	65.1295
3916	65.0815
3912	65.1552
3908	65.2026
3904	65.1441
3900	64.9664
3896	64.8072
3892	64.8616
3888	65.0136
3884	65.1536
3880	65.2462
3876	65.2791
3872	65.3179
3868	65.3135
3864	65.2458
3860	65.1966
3856	65.2297
3852	65.299
3848	65.2366
3844	65.0574
3840	64.9502
3836	64.959
3832	65.0493
3828	65.147
3824	65.1911
3820	65.2444
3816	65.2791
3812	65.2385
3808	65.2276
3804	65.3039
3800	65.4127
3796	65.4892
3792	65.5124
3788	65.4933
3784	65.4521
3780	65.3821
3776	65.3106
3772	65.2449
3768	65.1801
3764	65.2365
3760	65.3187
3756	65.3074
3752	65.3369
3748	65.4071
3744	65.4063
3740	65.3813
3736	65.4169
3732	65.3863
3728	65.3276
3724	65.4373
3720	65.5372
3716	65.5126
3712	65.5427
3708	65.5713
3704	65.5025
3700	65.4459
3696	65.4414
3692	65.4299
3688	65.3986
3684	65.4537
3680	65.5566
3676	65.5372
3672	65.4489
3668	65.4021
3664	65.3529
3660	65.291
3656	65.3411
3652	65.4475
3648	65.4156
3644	65.3624
3640	65.4061
3636	65.485
3632	65.5143
3628	65.4558
3624	65.4419
3620	65.4876
3616	65.4567
3612	65.4214
3608	65.5071
3604	65.5634
3600	65.5178
3596	65.5017
3592	65.5178
3588	65.5167
3584	65.5102
3580	65.4788
3576	65.4443
3572	65.4346
3568	65.3651
3564	65.2771
3560	65.2527
3556	65.2403
3552	65.2373
3548	65.2591
3544	65.2802
3540	65.256
3536	65.2416
3532	65.3115
3528	65.3641
3524	65.3416
3520	65.3097
3516	65.2535
3512	65.188
3508	65.1765
3504	65.22
3500	65.2786
3496	65.2783
3492	65.2493
3488	65.2386
3484	65.1384
3480	64.9759
3476	64.9525
3472	65.0582
3468	65.1347
3464	65.1986
3460	65.2674
3456	65.2764
3452	65.2456
3448	65.2334
3444	65.2116
3440	65.1346
3436	65.1181
3432	65.2264
3428	65.2901
3424	65.2157
3420	65.2022
3416	65.3082
3412	65.3521
3408	65.3497
3404	65.2959
3400	65.1939
3396	65.2145
3392	65.272
3388	65.2117
3384	65.1191
3380	65.1515
3376	65.261
3372	65.3206
3368	65.4136
3364	65.5025
3360	65.4733
3356	65.3904
3352	65.2869
3348	65.226
3344	65.2892
3340	65.4119
3336	65.5027
3332	65.4825
3328	65.3535
3324	65.2642
3320	65.2731
3316	65.317
3312	65.3457
3308	65.3392
3304	65.3
3300	65.333
3296	65.4612
3292	65.5025
3288	65.5002
3284	65.5424
3280	65.5054
3276	65.3844
3272	65.277
3268	65.2289
3264	65.2434
3260	65.3097
3256	65.3079
3252	65.2313
3248	65.24
3244	65.3014
3240	65.3122
3236	65.3004
3232	65.3092
3228	65.3397
3224	65.3364
3220	65.313
3216	65.3396
3212	65.3298
3208	65.2945
3204	65.2853
3200	65.2596
3196	65.2942
3192	65.3557
3188	65.3506
3184	65.3319
3180	65.3383
3176	65.3671
3172	65.3676
3168	65.3019
3164	65.2125
3160	65.1759
3156	65.2115
3152	65.2445
3148	65.2869
3144	65.3836
3140	65.4308
3136	65.3409
3132	65.2317
3128	65.2069
3124	65.2031
3120	65.2107
3116	65.2599
3112	65.2932
3108	65.2909
3104	65.2776
3100	65.217
3096	65.1581
3092	65.2124
3088	65.2922
3084	65.2894
3080	65.2814
3076	65.3164
3072	65.3246
3068	65.2802
3064	65.2382
3060	65.226
3056	65.2396
3052	65.3027
3048	65.3953
3044	65.397
3040	65.291
3036	65.2512
3032	65.3279
3028	65.3554
3024	65.2885
3020	65.2225
3016	65.2081
3012	65.2448
3008	65.2368
3004	65.1979
3000	65.2649
2996	65.3653
2992	65.3969
2988	65.4069
2984	65.4157
2980	65.3982
2976	65.3776
2972	65.3466
2968	65.2453
2964	65.1869
2960	65.2369
2956	65.2547
2952	65.2167
2948	65.1891
2944	65.1616
2940	65.1509
2936	65.2588
2932	65.3889
2928	65.3513
2924	65.2171
2920	65.1817
2916	65.2707
2912	65.3838
2908	65.4404
2904	65.381
2900	65.3192
2896	65.3593
2892	65.4084
2888	65.401
2884	65.3738
2880	65.3422
2876	65.2874
2872	65.231
2868	65.2026
2864	65.1789
2860	65.0982
2856	65.0894
2852	65.2256
2848	65.3288
2844	65.3348
2840	65.2614
2836	65.2055
2832	65.2631
2828	65.3299
2824	65.3513
2820	65.3994
2816	65.4585
2812	65.472
2808	65.4364
2804	65.3418
2800	65.2611
2796	65.2598
2792	65.3032
2788	65.3945
2784	65.4752
2780	65.4881
2776	65.4586
2772	65.407
2768	65.3763
2764	65.3921
2760	65.3929
2756	65.3549
2752	65.3483
2748	65.3709
2744	65.3452
2740	65.3042
2736	65.2879
2732	65.2673
2728	65.2939
2724	65.373
2720	65.4341
2716	65.44
2712	65.3556
2708	65.2392
2704	65.2195
2700	65.2846
2696	65.3526
2692	65.4075
2688	65.3991
2684	65.3158
2680	65.2371
2676	65.26
2672	65.385
2668	65.467
2664	65.4144
2660	65.3096
2656	65.2984
2652	65.3782
2648	65.4133
2644	65.3408
2640	65.2552
2636	65.2488
2632	65.2467
2628	65.2112
2624	65.2137
2620	65.2836
2616	65.3757
2612	65.3878
2608	65.3327
2604	65.3116
2600	65.3243
2596	65.3207
2592	65.2868
2588	65.2416
2584	65.2291
2580	65.2546
2576	65.2905
2572	65.3361
2568	65.3561
2564	65.3285
2560	65.2828
2556	65.2414
2552	65.2038
2548	65.189
2544	65.2213
2540	65.2569
2536	65.265
2532	65.2881
2528	65.3356
2524	65.3471
2520	65.3414
2516	65.3783
2512	65.4113
2508	65.4101
2504	65.3718
2500	65.3041
2496	65.2942
2492	65.3515
2488	65.4099
2484	65.4028
2480	65.3146
2476	65.2439
2472	65.2597
2468	65.3183
2464	65.3455
2460	65.3555
2456	65.3917
2452	65.4136
2448	65.4077
2444	65.4042
2440	65.4067
2436	65.3671
2432	65.3304
2428	65.3686
2424	65.3908
2420	65.3827
2416	65.3584
2412	65.3484
2408	65.3952
2404	65.402
2400	65.3594
2396	65.328
2392	65.3161
2388	65.2947
2384	65.267
2380	65.2567
2376	65.2811
2372	65.3321
2368	65.3528
2364	65.326
2360	65.2517
2356	65.2193
2352	65.2885
2348	65.3387
2344	65.3224
2340	65.2759
2336	65.2667
2332	65.3622
2328	65.4161
2324	65.3398
2320	65.2659
2316	65.3105
2312	65.4268
2308	65.4405
2304	65.3536
2300	65.3107
2296	65.3259
2292	65.2802
2288	65.2054
2284	65.2074
2280	65.2463
2276	65.3305
2272	65.4085
2268	65.4004
2264	65.3449
2260	65.2747
2256	65.2427
2252	65.2623
2248	65.2918
2244	65.3046
2240	65.3002
2236	65.3028
2232	65.3287
2228	65.3668
2224	65.3613
2220	65.3194
2216	65.2802
2212	65.2519
2208	65.268
2204	65.2824
2200	65.2403
2196	65.1931
2192	65.1907
2188	65.2342
2184	65.2847
2180	65.3181
2176	65.3334
2172	65.3418
2168	65.359
2164	65.345
2160	65.3272
2156	65.3286
2152	65.2977
2148	65.2525
2144	65.2468
2140	65.2693
2136	65.2635
2132	65.256
2128	65.2961
2124	65.3086
2120	65.2697
2116	65.255
2112	65.267
2108	65.2955
2104	65.3082
2100	65.2542
2096	65.2052
2092	65.2467
2088	65.3269
2084	65.3285
2080	65.2868
2076	65.3448
2072	65.4241
2068	65.3821
2064	65.3212
2060	65.2994
2056	65.2614
2052	65.2553
2048	65.2665
2044	65.2436
2040	65.2591
2036	65.358
2032	65.4489
2028	65.4407
2024	65.3719
2020	65.324
2016	65.2997
2012	65.2863
2008	65.3239
2004	65.3983
2000	65.4197
1996	65.372
1992	65.3488
1988	65.3673
1984	65.3549
1980	65.355
1976	65.4124
1972	65.4283
1968	65.3995
1964	65.4014
1960	65.393
1956	65.3863
1952	65.3968
1948	65.3625
1944	65.3132
1940	65.3011
1936	65.3466
1932	65.4252
1928	65.461
1924	65.4431
1920	65.4066
1916	65.3701
1912	65.3654
1908	65.4346
1904	65.5033
1900	65.4618
1896	65.3726
1892	65.3123
1888	65.2985
1884	65.3374
1880	65.3623
1876	65.3522
1872	65.3575
1868	65.35
1864	65.2822
1860	65.248
1856	65.2837
1852	65.3147
1848	65.3769
1844	65.4576
1840	65.4557
1836	65.3784
1832	65.2862
1828	65.2289
1824	65.2314
1820	65.2605
1816	65.2752
1812	65.2825
1808	65.2919
1804	65.2923
1800	65.2984
1796	65.2939
1792	65.2457
1788	65.186
1784	65.1797
1780	65.2457
1776	65.27
1772	65.2239
1768	65.2292
1764	65.2581
1760	65.2329
1756	65.1916
1752	65.1876
1748	65.1951
1744	65.1779
1740	65.1534
1736	65.145
1732	65.155
1728	65.1525
1724	65.0914
1720	64.9728
1716	64.9449
1712	65.0392
1708	65.0582
1704	65.0114
1700	64.996
1696	65.0115
1692	65.0873
1688	65.1423
1684	65.1432
1680	65.1391
1676	65.1222
1672	65.1048
1668	65.1007
1664	65.1486
1660	65.2507
1656	65.3711
1652	65.4311
1648	65.3449
1644	65.2234
1640	65.2321
1636	65.2848
1632	65.2347
1628	65.2041
1624	65.2654
1620	65.284
1616	65.2539
1612	65.2499
1608	65.2764
1604	65.2756
1600	65.2436
1596	65.2451
1592	65.2514
1588	65.2343
1584	65.2536
1580	65.3396
1576	65.373
1572	65.3113
1568	65.3031
1564	65.3754
1560	65.4514
1556	65.4796
1552	65.4415
1548	65.3308
1544	65.2196
1540	65.1841
1536	65.1962
1532	65.2274
1528	65.2749
1524	65.3133
1520	65.2914
1516	65.2812
1512	65.3349
1508	65.3511
1504	65.3118
1500	65.3541
1496	65.5172
1492	65.5036
1488	65.2937
1484	65.1903
1480	65.1887
1476	65.2379
1472	65.3238
1468	65.3631
1464	65.3458
1460	65.374
1456	65.4197
1452	65.4042
1448	65.3632
1444	65.2966
1440	65.2626
1436	65.2779
1432	65.2554
1428	65.2183
1424	65.1968
1420	65.2084
1416	65.2167
1412	65.1776
1408	65.1594
1404	65.218
1400	65.2738
1396	65.2426
1392	65.2236
1388	65.2561
1384	65.2574
1380	65.2277
1376	65.232
1372	65.2653
1368	65.275
1364	65.2521
1360	65.1816
1356	65.1249
1352	65.1455
1348	65.18
1344	65.2241
1340	65.2603
1336	65.2348
1332	65.1888
1328	65.143
1324	65.1012
1320	65.0778
1316	65.0992
1312	65.1292
1308	65.1317
1304	65.1668
1300	65.1934
1296	65.1929
1292	65.2116
1288	65.2411
1284	65.2502
1280	65.2024
1276	65.1329
1272	65.0798
1268	65.101
1264	65.156
1260	65.1157
1256	65.0518
1252	65.024
1248	65.0192
1244	65.0756
1240	65.1402
1236	65.1781
1232	65.1995
1228	65.1751
1224	65.1619
1220	65.1938
1216	65.2284
1212	65.2621
1208	65.2806
1204	65.2284
1200	65.1002
1196	65.0059
1192	65.0098
1188	65.0862
1184	65.1986
1180	65.2739
1176	65.265
1172	65.1958
1168	65.128
1164	65.1458
1160	65.2548
1156	65.3561
1152	65.3304
1148	65.2188
1144	65.1462
1140	65.1059
1136	65.1398
1132	65.2506
1128	65.285
1124	65.2568
1120	65.2448
1116	65.2175
1112	65.1361
1108	65.0935
1104	65.1646
1100	65.2143
1096	65.1826
1092	65.1373
1088	65.0748
1084	65.0419
1080	65.119
1076	65.2098
1072	65.2306
1068	65.2665
1064	65.2925
1060	65.2541
1056	65.1967
1052	65.1159
1048	65.0839
1044	65.1268
1040	65.144
1036	65.121
1032	65.0882
1028	65.0888
1024	65.1233
1020	65.1534
1016	65.1759
1012	65.1765
1008	65.1236
1004	65.0351
1000	65.0467
996	 65.1461
992	 65.1788
988	 65.2106
984	 65.2601
980	 65.2687
976	 65.2537
972	 65.2414
968	 65.2755
964	 65.3036
960	 65.3056
956	 65.3449
952	 65.407
948	 65.4238
944	 65.3572
940	 65.2213
936	 65.0949
932	 65.1009
928	 65.2177
924	 65.2539
920	 65.199
916	 65.1877
912	 65.1782
908	 65.1701
904	 65.2512
900	 65.3218
896	 65.3481
892	 65.3823
888	 65.3351
884	 65.1984
880	 65.1286
876	 65.1615
872	 65.1889
868	 65.2527
864	 65.2986
860	 65.2507
856	 65.2055
852	 65.2042
848	 65.2719
844	 65.3557
840	 65.3423
836	 65.2862
832	 65.3499
828	 65.4538
824	 65.4983
820	 65.5329
816	 65.5131
812	 65.4363
808	 65.4016
804	 65.465
800	 65.4187
796	 65.2171
792	 65.1978
788	 65.3596
784	 65.4186
780	 65.4263
776	 65.4893
772	 65.5444
768	 65.583
764	 65.5756
760	 65.4819
756	 65.3954
752	 65.42
748	 65.5003
744	 65.5114
740	 65.476
736	 65.4798
732	 65.4948
728	 65.5145
724	 65.5497
720	 65.5412
716	 65.4417
712	 65.3171
708	 65.2814
704	 65.3016
700	 65.3271
696	 65.3861
692	 65.4193
688	 65.3745
684	 65.4039
680	 65.4944
676	 65.4992
672	 65.4908
668	 65.523
664	 65.5427
660	 65.5937
656	 65.6945
652	 65.5818
648	 65.3401
644	 65.3217
640	 65.4392
636	 65.4956
632	 65.4444
628	 65.3623
624	 65.3873
620	 65.4858
616	 65.5097
612	 65.464
608	 65.5565
604	 65.7863
600	 65.7434
596	 65.4729
592	 65.568
588	 65.8734
584	 65.7441
580	 65.472
576	 65.5527
572	 65.7328
568	 65.7525
564	 65.759
560	 65.6874
556	 65.5097
552	 65.5472
548	 65.8299
544	 65.9583
540	 65.7628
536	 65.6657
532	 65.8288
528	 65.7735
524	 65.4978
520	 65.5006
516	 65.8826
512	 66.3263
508	 66.6521
504	 66.5229
500	 65.8685
496	 65.5189
492	 65.8932
488	 66.1056
484	 65.78
480	 65.6953
476	 65.7598
472	 65.591
468	 65.2008
464	 64.6858
460	 64.5962
456	 65.2166
452	 66.3946
448	 67.2333
444	 66.7746
440	 66.6025
436	 66.8093
432	 65.1639
428	 63.6094
424	 65.1922
420	 68.5717
416	 72.2881
412	 76.902
408	 81.6141
404	 83.8848
400	 81.0963
396	 71.1334
392	 56.582
388	 44.0179
384	 32.9285
380	 47.051
376	 45.928
372	 90.2188
370	 63.1111