File: Bakgrunnsmateriale/MATLAB/FTIR/ftir_data/subCa/Mapping_25/BZ12041010-4_t09_cm-1.asc
PE IR       SPECTRUM    SPECTRUM    ASCII       PEDS        1.60
  -1
BZAB70~1.ASC
17/04/10
09:33:37.00
17/04/10
09:33:37.00
tln
$BZ12041010-4_t0009$<tbV0>[-2.6,-9.8,9.0,0.0,22,1,0]
370
64

2002,4.07
MIRTGS : RIGHTBACK : INTERNAL 2
MIR : ON : INTERNAL 2
OPTKBR

0.200000
8
8.000000
FILLER
RATIO
SPECTRUM
UNLOCKED 256

DOUBLE
64
COMBINED
1
0
0

1.000000
RATIO

1
0
TRUE
51149
0
LEFT NOT FITTED RIGHT NOT FITTED 0
NONE
NONE
15600
12
4.427000
51148
TRUE
1 0 8 72 0 0 0 0

15798

#HDR
-1
-1
#GR
CM-1
%T
2.38419e-05
0.0
5000
-1.000000
4631
8
86.8815
25.92
#DATA
5000	64.6502
4996	64.7497
4992	64.5822
4988	64.2982
4984	64.3753
4980	64.5475
4976	64.5247
4972	64.6878
4968	64.9818
4964	65.1636
4960	65.2505
4956	65.2882
4952	65.2537
4948	65.0965
4944	64.8907
4940	64.7799
4936	64.7335
4932	64.9129
4928	65.3212
4924	65.3408
4920	65.0181
4916	65.0028
4912	65.2589
4908	65.413
4904	65.3506
4900	65.1
4896	64.974
4892	65.0904
4888	65.0036
4884	64.6622
4880	64.41
4876	64.227
4872	64.3078
4868	64.5177
4864	64.5888
4860	65.0228
4856	65.4863
4852	65.5365
4848	65.7814
4844	65.8038
4840	64.7178
4836	63.724
4832	63.7314
4828	64.2785
4824	64.8863
4820	65.1479
4816	64.9087
4812	64.6872
4808	65.5626
4804	66.48
4800	66.0306
4796	65.3871
4792	65.2605
4788	64.953
4784	64.4804
4780	64.2365
4776	64.266
4772	64.7089
4768	65.3089
4764	65.3965
4760	65.1167
4756	65.1102
4752	65.1681
4748	64.9422
4744	64.9446
4740	65.2192
4736	65.1489
4732	64.7592
4728	64.5415
4724	64.7645
4720	65.2579
4716	65.6578
4712	65.8844
4708	65.8864
4704	65.1874
4700	64.1835
4696	63.7451
4692	63.5652
4688	63.6576
4684	64.1111
4680	64.1855
4676	64.1215
4672	64.5726
4668	64.9675
4664	65.0175
4660	65.0806
4656	65.1519
4652	65.4236
4648	65.7732
4644	65.7375
4640	65.292
4636	64.8431
4632	64.8145
4628	64.9729
4624	64.9753
4620	64.9899
4616	65.045
4612	65.028
4608	64.9706
4604	64.8958
4600	64.8767
4596	64.7781
4592	64.6396
4588	64.6024
4584	64.6235
4580	64.8771
4576	65.276
4572	65.2777
4568	64.9304
4564	65.077
4560	65.5879
4556	65.6388
4552	65.5244
4548	65.4032
4544	65.2569
4540	65.3013
4536	65.3275
4532	65.1103
4528	64.7142
4524	64.7286
4520	65.1873
4516	65.6564
4512	66.159
4508	66.2082
4504	65.7119
4500	65.1686
4496	63.4657
4492	60.4613
4488	59.3365
4484	59.832
4480	60.3197
4476	63.3442
4472	65.5862
4468	64.1601
4464	64.095
4460	67.7056
4456	71.0133
4452	69.6349
4448	67.0989
4444	66.0445
4440	64.9993
4436	64.424
4432	64.6329
4428	64.9873
4424	65.2481
4420	65.455
4416	65.5607
4412	65.7689
4408	65.8068
4404	65.5025
4400	65.2708
4396	65.2841
4392	65.2557
4388	65.1114
4384	65.096
4380	65.1696
4376	65.2735
4372	65.3446
4368	65.1548
4364	64.8323
4360	64.6858
4356	64.7872
4352	64.96
4348	65.0087
4344	65.0728
4340	65.1901
4336	65.1406
4332	65.0857
4328	65.1062
4324	64.9942
4320	64.8572
4316	64.9132
4312	65.0512
4308	65.0284
4304	65.0359
4300	65.171
4296	65.123
4292	64.9106
4288	64.7984
4284	64.8573
4280	64.9629
4276	64.9621
4272	64.8911
4268	64.8756
4264	64.9704
4260	65.0215
4256	65.0397
4252	65.1974
4248	65.3149
4244	65.3396
4240	65.3835
4236	65.2485
4232	64.9773
4228	64.8336
4224	64.899
4220	65.1751
4216	65.2504
4212	65.0336
4208	64.9152
4204	64.928
4200	64.9944
4196	65.0748
4192	65.1846
4188	65.3115
4184	65.3757
4180	65.3359
4176	65.2762
4172	65.2154
4168	64.9925
4164	64.8414
4160	64.9348
4156	65.0135
4152	65.0649
4148	65.1814
4144	65.3147
4140	65.4217
4136	65.3768
4132	65.2264
4128	65.1463
4124	65.1611
4120	65.307
4116	65.43
4112	65.3758
4108	65.2446
4104	65.121
4100	65.0614
4096	65.0132
4092	64.9571
4088	64.965
4084	64.9174
4080	64.7596
4076	64.6775
4072	64.9016
4068	65.271
4064	65.404
4060	65.3313
4056	65.2659
4052	65.2079
4048	65.122
4044	64.994
4040	64.8916
4036	64.9529
4032	65.0842
4028	65.1722
4024	65.2406
4020	65.2936
4016	65.3857
4012	65.4082
4008	65.2159
4004	65.0115
4000	64.9581
3996	65.0352
3992	65.1833
3988	65.3259
3984	65.3972
3980	65.3323
3976	65.1839
3972	65.0672
3968	64.9911
3964	64.9501
3960	65.0418
3956	65.1576
3952	65.2104
3948	65.277
3944	65.3037
3940	65.2236
3936	65.0666
3932	65.0883
3928	65.2958
3924	65.39
3920	65.3726
3916	65.2638
3912	65.0864
3908	65.1217
3904	65.3795
3900	65.4833
3896	65.3298
3892	65.1612
3888	65.1989
3884	65.35
3880	65.3616
3876	65.3569
3872	65.4483
3868	65.4339
3864	65.3408
3860	65.403
3856	65.5544
3852	65.4595
3848	65.2574
3844	65.29
3840	65.3982
3836	65.3462
3832	65.1885
3828	65.1521
3824	65.2504
3820	65.286
3816	65.2798
3812	65.2957
3808	65.2382
3804	65.2148
3800	65.2697
3796	65.2397
3792	65.1736
3788	65.1518
3784	65.1327
3780	65.105
3776	65.1642
3772	65.2972
3768	65.2928
3764	65.2545
3760	65.3674
3756	65.4876
3752	65.4895
3748	65.4687
3744	65.4836
3740	65.4757
3736	65.4467
3732	65.3642
3728	65.2852
3724	65.2415
3720	65.191
3716	65.2019
3712	65.2379
3708	65.2056
3704	65.2078
3700	65.265
3696	65.2496
3692	65.2395
3688	65.2538
3684	65.2082
3680	65.2045
3676	65.3025
3672	65.411
3668	65.3855
3664	65.21
3660	65.0856
3656	65.1481
3652	65.2937
3648	65.2868
3644	65.2261
3640	65.3708
3636	65.5746
3632	65.6443
3628	65.5099
3624	65.3114
3620	65.2908
3616	65.343
3612	65.3419
3608	65.308
3604	65.2336
3600	65.1215
3596	65.0007
3592	64.9674
3588	65.0509
3584	65.1852
3580	65.2814
3576	65.269
3572	65.239
3568	65.3143
3564	65.3836
3560	65.3348
3556	65.3188
3552	65.3267
3548	65.187
3544	64.9963
3540	64.9556
3536	65.065
3532	65.1896
3528	65.2477
3524	65.2553
3520	65.2572
3516	65.2148
3512	65.109
3508	65.0332
3504	65.0433
3500	65.1231
3496	65.2084
3492	65.2959
3488	65.3066
3484	65.1779
3480	65.1342
3476	65.2305
3472	65.3283
3468	65.3846
3464	65.4081
3460	65.3808
3456	65.2259
3452	65.1019
3448	65.1968
3444	65.3297
3440	65.3346
3436	65.2545
3432	65.2018
3428	65.2521
3424	65.3267
3420	65.3755
3416	65.404
3412	65.3483
3408	65.2757
3404	65.2521
3400	65.2226
3396	65.2162
3392	65.1884
3388	65.124
3384	65.116
3380	65.1852
3376	65.2926
3372	65.2791
3368	65.1318
3364	65.0908
3360	65.2096
3356	65.2708
3352	65.1452
3348	65.1117
3344	65.3079
3340	65.3976
3336	65.2632
3332	65.1246
3328	65.1232
3324	65.2383
3320	65.316
3316	65.2408
3312	65.1315
3308	65.1141
3304	65.1428
3300	65.1597
3296	65.1704
3292	65.2088
3288	65.2751
3284	65.2951
3280	65.2284
3276	65.175
3272	65.1939
3268	65.2488
3264	65.3424
3260	65.3928
3256	65.3547
3252	65.3284
3248	65.307
3244	65.2735
3240	65.2702
3236	65.273
3232	65.2201
3228	65.0734
3224	64.9703
3220	65.0386
3216	65.1705
3212	65.2253
3208	65.1973
3204	65.163
3200	65.1649
3196	65.2589
3192	65.3792
3188	65.348
3184	65.2525
3180	65.223
3176	65.2124
3172	65.217
3168	65.2412
3164	65.2643
3160	65.2781
3156	65.2858
3152	65.2561
3148	65.205
3144	65.2146
3140	65.2364
3136	65.2246
3132	65.2161
3128	65.1944
3124	65.1961
3120	65.2473
3116	65.3018
3112	65.325
3108	65.2674
3104	65.1883
3100	65.1591
3096	65.1479
3092	65.1458
3088	65.1419
3084	65.109
3080	65.0836
3076	65.1188
3072	65.1787
3068	65.1582
3064	65.0876
3060	65.1156
3056	65.1688
3052	65.1832
3048	65.2265
3044	65.2317
3040	65.2004
3036	65.2097
3032	65.2251
3028	65.1865
3024	65.1726
3020	65.2481
3016	65.2716
3012	65.2073
3008	65.1678
3004	65.1463
3000	65.1277
2996	65.1483
2992	65.1953
2988	65.2175
2984	65.1867
2980	65.1811
2976	65.2417
2972	65.2749
2968	65.2555
2964	65.2168
2960	65.1777
2956	65.2108
2952	65.2248
2948	65.1324
2944	65.1006
2940	65.1371
2936	65.1303
2932	65.1087
2928	65.1281
2924	65.2062
2920	65.2882
2916	65.275
2912	65.2146
2908	65.2556
2904	65.3321
2900	65.3103
2896	65.2234
2892	65.1399
2888	65.1316
2884	65.1816
2880	65.1952
2876	65.1772
2872	65.1137
2868	65.0347
2864	65.105
2860	65.2457
2856	65.2116
2852	65.0864
2848	65.0772
2844	65.1057
2840	65.0656
2836	65.0959
2832	65.2493
2828	65.3171
2824	65.2175
2820	65.1593
2816	65.2149
2812	65.2379
2808	65.1974
2804	65.2045
2800	65.2548
2796	65.2312
2792	65.221
2788	65.288
2784	65.2799
2780	65.1804
2776	65.1269
2772	65.1288
2768	65.1427
2764	65.1844
2760	65.1878
2756	65.1384
2752	65.1705
2748	65.2619
2744	65.2932
2740	65.3217
2736	65.3802
2732	65.3402
2728	65.2144
2724	65.1844
2720	65.2547
2716	65.2705
2712	65.1649
2708	65.0913
2704	65.1942
2700	65.3055
2696	65.2677
2692	65.1922
2688	65.1899
2684	65.2035
2680	65.2151
2676	65.2613
2672	65.3198
2668	65.3663
2664	65.3639
2660	65.3354
2656	65.3017
2652	65.2337
2648	65.1856
2644	65.1961
2640	65.2661
2636	65.355
2632	65.3745
2628	65.3248
2624	65.2648
2620	65.2638
2616	65.2962
2612	65.2317
2608	65.1711
2604	65.2451
2600	65.29
2596	65.2633
2592	65.2602
2588	65.2678
2584	65.2469
2580	65.2366
2576	65.2832
2572	65.2907
2568	65.264
2564	65.2991
2560	65.3373
2556	65.3121
2552	65.2913
2548	65.3066
2544	65.3064
2540	65.3009
2536	65.3017
2532	65.3057
2528	65.3187
2524	65.2784
2520	65.1904
2516	65.1486
2512	65.1905
2508	65.2771
2504	65.3191
2500	65.3249
2496	65.3381
2492	65.3325
2488	65.3191
2484	65.3068
2480	65.3033
2476	65.3069
2472	65.2943
2468	65.2644
2464	65.2346
2460	65.2785
2456	65.3634
2452	65.3346
2448	65.2175
2444	65.1752
2440	65.2231
2436	65.2492
2432	65.257
2428	65.2872
2424	65.2918
2420	65.2765
2416	65.2622
2412	65.2692
2408	65.2902
2404	65.2683
2400	65.2491
2396	65.2559
2392	65.2263
2388	65.1859
2384	65.1731
2380	65.2101
2376	65.292
2372	65.3359
2368	65.2978
2364	65.2533
2360	65.302
2356	65.3515
2352	65.2803
2348	65.21
2344	65.2359
2340	65.293
2336	65.3248
2332	65.3016
2328	65.301
2324	65.3335
2320	65.3035
2316	65.2795
2312	65.2913
2308	65.2689
2304	65.2431
2300	65.2387
2296	65.2119
2292	65.1719
2288	65.1693
2284	65.2428
2280	65.3535
2276	65.3779
2272	65.2986
2268	65.2107
2264	65.1864
2260	65.2555
2256	65.352
2252	65.3645
2248	65.2884
2244	65.188
2240	65.1327
2236	65.1642
2232	65.2404
2228	65.2808
2224	65.3058
2220	65.3967
2216	65.4854
2212	65.4429
2208	65.3028
2204	65.1833
2200	65.1581
2196	65.2073
2192	65.2153
2188	65.1804
2184	65.1801
2180	65.1777
2176	65.1577
2172	65.1844
2168	65.2649
2164	65.321
2160	65.3069
2156	65.2736
2152	65.2765
2148	65.2846
2144	65.2722
2140	65.2636
2136	65.2823
2132	65.2985
2128	65.2708
2124	65.2506
2120	65.2598
2116	65.2546
2112	65.2068
2108	65.2196
2104	65.3651
2100	65.4192
2096	65.3181
2092	65.2825
2088	65.3406
2084	65.3703
2080	65.3523
2076	65.3357
2072	65.3481
2068	65.4006
2064	65.4428
2060	65.42
2056	65.3741
2052	65.3271
2048	65.2676
2044	65.2284
2040	65.2536
2036	65.3128
2032	65.3327
2028	65.3591
2024	65.4248
2020	65.4117
2016	65.312
2012	65.2584
2008	65.2596
2004	65.2717
2000	65.2812
1996	65.2297
1992	65.163
1988	65.184
1984	65.2534
1980	65.3047
1976	65.3306
1972	65.3452
1968	65.3597
1964	65.3544
1960	65.3153
1956	65.2508
1952	65.1909
1948	65.1924
1944	65.2025
1940	65.1747
1936	65.1723
1932	65.1882
1928	65.2377
1924	65.3327
1920	65.3437
1916	65.2738
1912	65.2512
1908	65.2878
1904	65.302
1900	65.2787
1896	65.282
1892	65.3141
1888	65.3247
1884	65.3257
1880	65.3283
1876	65.3085
1872	65.3026
1868	65.3288
1864	65.3426
1860	65.3073
1856	65.2776
1852	65.3169
1848	65.3457
1844	65.2993
1840	65.2391
1836	65.2399
1832	65.297
1828	65.3478
1824	65.3504
1820	65.3259
1816	65.3061
1812	65.2976
1808	65.3021
1804	65.33
1800	65.345
1796	65.3237
1792	65.3243
1788	65.3358
1784	65.293
1780	65.2521
1776	65.3577
1772	65.4926
1768	65.487
1764	65.4443
1760	65.3955
1756	65.3127
1752	65.2344
1748	65.1892
1744	65.2228
1740	65.3278
1736	65.4121
1732	65.3593
1728	65.2198
1724	65.2057
1720	65.3543
1716	65.414
1712	65.283
1708	65.2391
1704	65.4156
1700	65.6584
1696	65.6749
1692	65.4832
1688	65.52
1684	65.6439
1680	65.5583
1676	65.5484
1672	65.5808
1668	65.4743
1664	65.3883
1660	65.3957
1656	65.4997
1652	65.5254
1648	65.3779
1644	65.2773
1640	65.2746
1636	65.27
1632	65.2471
1628	65.222
1624	65.2124
1620	65.3006
1616	65.3673
1612	65.256
1608	65.1719
1604	65.25
1600	65.2951
1596	65.1953
1592	65.106
1588	65.1294
1584	65.1858
1580	65.2253
1576	65.2545
1572	65.2605
1568	65.2441
1564	65.3032
1560	65.4655
1556	65.486
1552	65.3656
1548	65.3474
1544	65.4816
1540	65.5501
1536	65.4403
1532	65.3203
1528	65.2693
1524	65.3469
1520	65.4127
1516	65.3362
1512	65.3777
1508	65.4911
1504	65.4171
1500	65.3025
1496	65.2997
1492	65.3391
1488	65.3054
1484	65.203
1480	65.2138
1476	65.3394
1472	65.3812
1468	65.3476
1464	65.3523
1460	65.3766
1456	65.3127
1452	65.187
1448	65.1266
1444	65.1268
1440	65.1741
1436	65.2475
1432	65.304
1428	65.3265
1424	65.302
1420	65.2293
1416	65.1433
1412	65.1484
1408	65.2141
1404	65.1826
1400	65.1625
1396	65.2239
1392	65.1881
1388	65.08
1384	65.0335
1380	65.0754
1376	65.1442
1372	65.1826
1368	65.1872
1364	65.1645
1360	65.14
1356	65.161
1352	65.2131
1348	65.1897
1344	65.1553
1340	65.2096
1336	65.2094
1332	65.1358
1328	65.1386
1324	65.2121
1320	65.2437
1316	65.2074
1312	65.1523
1308	65.1042
1304	65.0801
1300	65.0956
1296	65.1395
1292	65.1721
1288	65.168
1284	65.1457
1280	65.1287
1276	65.1236
1272	65.1231
1268	65.1294
1264	65.1311
1260	65.1132
1256	65.1083
1252	65.1137
1248	65.1479
1244	65.1856
1240	65.1599
1236	65.1342
1232	65.1289
1228	65.112
1224	65.1211
1220	65.1576
1216	65.1735
1212	65.1854
1208	65.242
1204	65.2942
1200	65.276
1196	65.2378
1192	65.17
1188	65.0647
1184	65.0093
1180	64.9995
1176	65.0564
1172	65.1882
1168	65.2619
1164	65.2322
1160	65.1584
1156	65.0885
1152	65.0755
1148	65.0949
1144	65.1175
1140	65.1484
1136	65.19
1132	65.2164
1128	65.1844
1124	65.1289
1120	65.0811
1116	65.1118
1112	65.1891
1108	65.1568
1104	65.0421
1100	64.9566
1096	64.9842
1092	65.114
1088	65.2122
1084	65.2212
1080	65.1588
1076	65.0757
1072	65.0431
1068	65.0388
1064	65.06
1060	65.1345
1056	65.2154
1052	65.212
1048	65.0871
1044	64.9896
1040	65.0666
1036	65.1666
1032	65.1304
1028	65.0849
1024	65.0707
1020	65.0089
1016	64.9722
1012	65.0549
1008	65.1569
1004	65.1762
1000	65.2086
996	 65.2338
992	 65.197
988	 65.1573
984	 65.0792
980	 64.995
976	 65.0251
972	 65.1598
968	 65.2729
964	 65.2792
960	 65.27
956	 65.3268
952	 65.3678
948	 65.3522
944	 65.2426
940	 65.1504
936	 65.2487
932	 65.4045
928	 65.4505
924	 65.4178
920	 65.3612
916	 65.2945
912	 65.2939
908	 65.36
904	 65.3771
900	 65.297
896	 65.1371
892	 65.0262
888	 65.1083
884	 65.2866
880	 65.3937
876	 65.4139
872	 65.407
868	 65.4658
864	 65.5725
860	 65.5738
856	 65.4207
852	 65.2608
848	 65.283
844	 65.4156
840	 65.442
836	 65.3423
832	 65.1836
828	 65.1324
824	 65.2488
820	 65.3509
816	 65.4709
812	 65.5855
808	 65.5324
804	 65.4622
800	 65.4897
796	 65.4716
792	 65.4309
788	 65.3888
784	 65.3643
780	 65.4976
776	 65.6344
772	 65.601
768	 65.4947
764	 65.5042
760	 65.5919
756	 65.5308
752	 65.3663
748	 65.2834
744	 65.2897
740	 65.3025
736	 65.3041
732	 65.2535
728	 65.2201
724	 65.3384
720	 65.434
716	 65.4402
712	 65.4621
708	 65.4132
704	 65.3035
700	 65.2699
696	 65.3545
692	 65.4941
688	 65.5605
684	 65.5529
680	 65.5359
676	 65.3965
672	 65.2659
668	 65.3436
664	 65.5072
660	 65.6002
656	 65.5581
652	 65.6092
648	 65.7399
644	 65.6896
640	 65.5996
636	 65.4991
632	 65.3335
628	 65.1825
624	 65.1977
620	 65.4036
616	 65.5534
612	 65.6939
608	 65.7578
604	 65.6017
600	 65.535
596	 65.685
592	 65.8869
588	 65.8777
584	 65.739
580	 65.6061
576	 65.638
572	 65.9326
568	 66.0446
564	 65.9972
560	 66.0321
556	 66.0673
552	 66.0581
548	 65.9194
544	 65.8145
540	 66.0262
536	 66.2186
532	 65.9599
528	 65.8323
524	 66.1754
520	 66.1834
516	 65.9205
512	 65.9935
508	 66.235
504	 66.4201
500	 66.4385
496	 66.2487
492	 66.3899
488	 66.7875
484	 66.9694
480	 66.8631
476	 66.4249
472	 66.0044
468	 65.998
464	 66.1171
460	 65.9258
456	 66.0515
452	 66.3096
448	 66.0039
444	 66.0786
440	 66.1803
436	 65.5343
432	 65.6714
428	 66.1819
424	 64.9785
420	 64.5189
416	 66.662
412	 67.2072
408	 65.0348
404	 59.922
400	 51.2046
396	 45.744
392	 51.5484
388	 68.6298
384	 84.5911
380	 83.6294
376	 65.4495
372	 40.9805
370	 25.92