File: Bakgrunnsmateriale/MATLAB/FTIR/ftir_data/subCa/Mapping_25/BZ12041010-4_t12.asc
PE IR       SPECTRUM    SPECTRUM    ASCII       PEDS        1.60
  -1
BZ2AB6~1.ASC
17/04/10
09:55:10.00
17/04/10
09:55:36.00
tln
$BZ12041010-4_t0012$<tbV0>[2.6,-7.2,9.0,0.0,22,1,0]
27.028
64

2002,4.07
MIRTGS : RIGHTBACK : INTERNAL 2
MIR : ON : INTERNAL 2
OPTKBR

0.200000
8
8.000000
FILLER
RATIO
SPECTRUM
UNLOCKED 256

DOUBLE
64
COMBINED
1
0
0

0.002000
RATIO

1
0
TRUE
51149
0
LEFT NOT FITTED RIGHT NOT FITTED 0
NONE
NONE
15600
12
4.427000
51148
TRUE
1 0 8 72 0 0 0 0

15798

#HDR
-1
-1
#GR
µM
%T
2.38419e-05
0.0
2.000000
0.002000
12515
8
153.169
36.9501
#DATA
2.000000	 64.8086
2.018000	 65.474
2.036000	 64.7196
2.054000	 61.9966
2.072000	 66.4854
2.090000	 64.3988
2.108000	 65.469
2.126000	 64.9986
2.144000	 65.0609
2.162000	 64.9494
2.180000	 65.0588
2.198000	 64.2886
2.216000	 65.1096
2.234000	 64.9512
2.252000	 64.4823
2.270000	 64.1152
2.288000	 64.3297
2.306000	 64.9658
2.324000	 64.8754
2.342000	 64.9321
2.360000	 64.9178
2.378000	 65.0099
2.396000	 64.918
2.414000	 65.2765
2.432000	 65.1943
2.450000	 65.2955
2.468000	 65.2659
2.486000	 64.9569
2.504000	 64.9591
2.522000	 65.0856
2.540000	 65.2818
2.558000	 65.0568
2.576000	 65.1384
2.594000	 65.3088
2.612000	 65.067
2.630000	 65.1938
2.648000	 65.1612
2.666000	 65.1402
2.684000	 65.261
2.702000	 65.4479
2.720000	 65.2543
2.738000	 65.1868
2.756000	 65.2584
2.774000	 65.3407
2.792000	 65.4265
2.810000	 65.2334
2.828000	 65.2027
2.846000	 65.1505
2.864000	 65.2877
2.882000	 65.1267
2.900000	 65.0772
2.918000	 65.2237
2.936000	 65.26
2.954000	 65.1398
2.972000	 65.2917
2.990000	 65.2188
3.008000	 65.1852
3.026000	 65.241
3.044000	 65.233
3.062000	 65.2576
3.080000	 65.2969
3.098000	 65.3657
3.116000	 65.234
3.134000	 65.1939
3.152000	 65.4306
3.170000	 65.3738
3.188000	 65.2529
3.206000	 65.2722
3.224000	 65.2886
3.242000	 65.1996
3.260000	 65.2563
3.278000	 65.3609
3.296000	 65.1798
3.314000	 65.231
3.332000	 65.147
3.350000	 65.2562
3.368000	 65.3506
3.386000	 65.2431
3.404000	 65.2022
3.422000	 65.0761
3.440000	 65.2497
3.458000	 65.293
3.476000	 65.2228
3.494000	 65.197
3.512000	 65.1787
3.530000	 65.2737
3.548000	 65.3586
3.566000	 65.3257
3.584000	 65.2326
3.602000	 65.2828
3.620000	 65.1764
3.638000	 65.299
3.656000	 65.2974
3.674000	 65.3772
3.692000	 65.3205
3.710000	 65.3196
3.728000	 65.2636
3.746000	 65.3599
3.764000	 65.3214
3.782000	 65.2802
3.800000	 65.3137
3.818000	 65.3652
3.836000	 65.2926
3.854000	 65.3549
3.872000	 65.1847
3.890000	 65.3944
3.908000	 65.2342
3.926000	 65.2745
3.944000	 65.3099
3.962000	 65.2764
3.980000	 65.298
3.998000	 65.294
4.016000	 65.3378
4.034000	 65.3053
4.052000	 65.2407
4.070000	 65.2836
4.088000	 65.4113
4.106000	 65.4484
4.124000	 65.3517
4.141999	 65.348
4.160000	 65.3455
4.178000	 65.3644
4.196000	 65.2669
4.214000	 65.2763
4.232000	 65.4129
4.250000	 65.3388
4.268000	 65.2251
4.286000	 65.2726
4.304000	 65.3914
4.322000	 65.3457
4.340000	 65.3453
4.358000	 65.3374
4.375999	 65.2139
4.394000	 65.2075
4.412000	 65.2608
4.430000	 65.2472
4.448000	 65.2231
4.466000	 65.2607
4.484000	 65.2803
4.502000	 65.2518
4.520000	 65.2402
4.538000	 65.2073
4.556000	 65.2555
4.574000	 65.3348
4.592000	 65.368
4.609999	 65.3872
4.628000	 65.2733
4.646000	 65.2223
4.664000	 65.243
4.682000	 65.2188
4.700000	 65.2557
4.718000	 65.3133
4.736000	 65.3217
4.754000	 65.4175
4.772000	 65.2778
4.790000	 65.2109
4.808000	 65.2706
4.826000	 65.4146
4.843999	 65.3193
4.862000	 65.2831
4.880000	 65.2431
4.898000	 65.273
4.916000	 65.3536
4.934000	 65.3051
4.952000	 65.3304
4.970000	 65.2748
4.988000	 65.2971
5.006000	 65.2544
5.024000	 65.2502
5.042000	 65.2888
5.060000	 65.2607
5.077999	 65.3118
5.096000	 65.317
5.114000	 65.3006
5.132000	 65.3865
5.150000	 65.2917
5.168000	 65.3402
5.186000	 65.3504
5.204000	 65.2832
5.222000	 65.2647
5.240000	 65.2766
5.258000	 65.3321
5.276000	 65.3329
5.294000	 65.3437
5.312000	 65.3358
5.330000	 65.3199
5.348000	 65.3153
5.366000	 65.2092
5.384000	 65.2845
5.402000	 65.3209
5.420000	 65.2709
5.438000	 65.2879
5.456000	 65.2517
5.474000	 65.2686
5.492000	 65.2755
5.510000	 65.3005
5.528000	 65.2734
5.546000	 65.2996
5.564000	 65.3
5.582000	 65.2722
5.600000	 65.1923
5.618000	 65.1986
5.636000	 65.3067
5.654000	 65.3089
5.672000	 65.2019
5.690000	 65.1596
5.708000	 65.1507
5.726000	 65.0963
5.744000	 65.1216
5.762000	 65.1435
5.780000	 65.1523
5.798000	 65.1231
5.816000	 65.1205
5.834000	 65.1524
5.852000	 65.1963
5.870000	 65.3057
5.888000	 65.3329
5.906000	 65.2886
5.923999	 65.3355
5.942000	 65.3049
5.960000	 65.1435
5.978000	 65.1553
5.996000	 65.2167
6.014000	 65.2272
6.032000	 65.2002
6.050000	 65.1798
6.068000	 65.1315
6.086000	 65.0889
6.104000	 65.1741
6.122000	 65.2323
6.140000	 65.1952
6.158000	 65.2151
6.176000	 65.369
6.194000	 65.3916
6.212000	 65.2511
6.230000	 65.2192
6.248000	 65.2472
6.266000	 65.2322
6.284000	 65.2056
6.302000	 65.2493
6.320000	 65.2858
6.338000	 65.1712
6.356000	 65.1187
6.374000	 65.2182
6.392000	 65.22
6.410000	 65.1119
6.428000	 65.0994
6.446000	 65.1152
6.464000	 65.104
6.482000	 65.1147
6.500000	 65.1994
6.518000	 65.3111
6.536000	 65.2672
6.554000	 65.1377
6.572000	 65.1461
6.590000	 65.1775
6.608000	 65.1622
6.626000	 65.1823
6.644000	 65.1765
6.662000	 65.2036
6.680000	 65.2957
6.698000	 65.2908
6.716000	 65.2179
6.734000	 65.1645
6.752000	 65.1534
6.770000	 65.2402
6.788000	 65.3389
6.806000	 65.3364
6.824000	 65.2568
6.842000	 65.1946
6.860000	 65.2259
6.878000	 65.2582
6.896000	 65.1956
6.914000	 65.1051
6.932000	 65.0629
6.950000	 65.1078
6.968000	 65.1595
6.986000	 65.1665
7.004000	 65.1994
7.022000	 65.236
7.040000	 65.2318
7.058000	 65.1908
7.076000	 65.1193
7.094000	 65.0681
7.112000	 65.0899
7.130000	 65.19
7.148000	 65.284
7.166000	 65.276
7.184000	 65.2214
7.202000	 65.204
7.220000	 65.2056
7.238000	 65.2104
7.256000	 65.2347
7.274000	 65.2776
7.292000	 65.3276
7.310000	 65.3615
7.328000	 65.3468
7.346000	 65.277
7.364000	 65.2009
7.382000	 65.1776
7.400000	 65.1931
7.418000	 65.1969
7.436000	 65.1869
7.454000	 65.1899
7.472000	 65.2144
7.490000	 65.2437
7.508000	 65.2513
7.526000	 65.2432
7.544000	 65.2469
7.562000	 65.2464
7.580000	 65.2128
7.598000	 65.1823
7.616000	 65.2014
7.634000	 65.2393
7.652000	 65.2332
7.670000	 65.1806
7.688000	 65.1319
7.706000	 65.1204
7.724000	 65.1412
7.742000	 65.1758
7.760000	 65.2079
7.778000	 65.2224
7.796000	 65.2121
7.814000	 65.1887
7.832000	 65.1764
7.850000	 65.188
7.868000	 65.2139
7.886000	 65.2308
7.904000	 65.2165
7.922000	 65.1676
7.940000	 65.1134
7.958000	 65.0985
7.976000	 65.1269
7.994000	 65.1533
8.012000	 65.1476
8.030000	 65.1285
8.048000	 65.1168
8.065999	 65.1133
8.084000	 65.1241
8.102000	 65.1564
8.120000	 65.1921
8.138000	 65.2051
8.155999	 65.1898
8.173999	 65.1581
8.192000	 65.1283
8.210000	 65.1213
8.228000	 65.1409
8.246000	 65.163
8.263999	 65.1631
8.282000	 65.1438
8.300000	 65.1239
8.318000	 65.1111
8.336000	 65.1003
8.353999	 65.0983
8.372000	 65.1209
8.390000	 65.1581
8.408000	 65.1738
8.426000	 65.1517
8.443999	 65.1172
8.462000	 65.1041
8.480000	 65.1164
8.498000	 65.1361
8.516000	 65.1491
8.533999	 65.1538
8.552000	 65.1575
8.570000	 65.1709
8.588000	 65.1979
8.606000	 65.229
8.624000	 65.2478
8.641999	 65.246
8.660000	 65.2311
8.678000	 65.2144
8.696000	 65.1972
8.714000	 65.1763
8.731999	 65.1558
8.750000	 65.143
8.768000	 65.1342
8.786000	 65.1159
8.804000	 65.0838
8.821999	 65.0533
8.840000	 65.0459
8.858000	 65.0652
8.876000	 65.0932
8.894000	 65.1082
8.911999	 65.1043
8.930000	 65.0935
8.948000	 65.0871
8.966000	 65.0797
8.984000	 65.0626
9.001999	 65.0431
9.020000	 65.0368
9.038000	 65.0458
9.056000	 65.0597
9.074000	 65.0726
9.092000	 65.0898
9.109999	 65.1162
9.128000	 65.1467
9.146000	 65.1707
9.164000	 65.1827
9.182000	 65.1836
9.199999	 65.1739
9.218000	 65.1501
9.236000	 65.1088
9.254000	 65.053
9.272000	 64.9933
9.289999	 64.9442
9.308000	 64.919
9.326000	 64.9257
9.344000	 64.9629
9.362000	 65.0184
9.379999	 65.0728
9.398000	 65.1067
9.416000	 65.1092
9.434000	 65.0834
9.452000	 65.046
9.469999	 65.0163
9.488000	 65.004
9.506000	 65.0089
9.524000	 65.029
9.542000	 65.0661
9.560000	 65.1212
9.577999	 65.185
9.596000	 65.2391
9.614000	 65.267
9.632000	 65.265
9.650000	 65.2394
9.667999	 65.1971
9.686000	 65.1442
9.704000	 65.091
9.722000	 65.0513
9.740000	 65.0331
9.757999	 65.0297
9.776000	 65.0238
9.794000	 65.0046
9.812000	 64.9798
9.830000	 64.97
9.847999	 64.9897
9.866000	 65.0353
9.884000	 65.0899
9.902000	 65.1364
9.920000	 65.1657
9.937999	 65.1779
9.956000	 65.1782
9.974000	 65.1731
9.992000	 65.1679
10.01	65.1665
10.028	65.1693
10.046	65.174
10.064	65.1788
10.082	65.1857
10.1	65.1997
10.118	65.2248
10.136	65.2591
10.154	65.2947
10.172	65.3216
10.19	65.3331
10.208	65.331
10.226	65.324
10.244	65.3222
10.262	65.3305
10.28	65.3449
10.298	65.356
10.316	65.3554
10.334	65.3406
10.352	65.3159
10.37	65.2874
10.388	65.2592
10.406	65.2328
10.424	65.2112
10.442	65.2026
10.46	65.2179
10.478	65.2648
10.496	65.3393
10.514	65.4253
10.532	65.4993
10.55	65.5432
10.568	65.5508
10.586	65.5281
10.604	65.4861
10.622	65.434
10.64	65.3753
10.658	65.3109
10.676	65.2445
10.694	65.1839
10.712	65.1398
10.73	65.1192
10.748	65.1223
10.766	65.1418
10.784	65.1673
10.802	65.1886
10.82	65.1992
10.838	65.1966
10.856	65.1824
10.874	65.1619
10.892	65.1415
10.91	65.1282
10.928	65.1263
10.946	65.136
10.964	65.1538
10.982	65.1742
11	65.193
11.018	65.2093
11.036	65.2248
11.054	65.242
11.072	65.2627
11.09	65.2871
11.108	65.3144
11.126	65.3431
11.144	65.3714
11.162	65.3962
11.18	65.4146
11.198	65.4248
11.216	65.4279
11.234	65.4284
11.252	65.433
11.27	65.4462
11.288	65.4672
11.306	65.4894
11.324	65.5019
11.342	65.4955
11.36	65.4669
11.378	65.4218
11.396	65.3716
11.414	65.3295
11.432	65.3051
11.45	65.3005
11.468	65.311
11.486	65.3292
11.504	65.3475
11.522	65.3616
11.54	65.3707
11.558	65.3761
11.576	65.3798
11.594	65.3834
11.612	65.3886
11.63	65.3964
11.648	65.407
11.666	65.4198
11.684	65.4328
11.702	65.4426
11.72	65.4455
11.738	65.4385
11.756	65.4215
11.774	65.3969
11.792	65.37
11.81	65.3464
11.828	65.3305
11.846	65.3235
11.864	65.3229
11.882	65.3242
11.9	65.3223
11.918	65.3139
11.936	65.2995
11.954	65.2826
11.972	65.2698
11.99	65.2676
12.008	65.2813
12.026	65.3125
12.044	65.3588
12.062	65.4129
12.08	65.4647
12.098	65.5041
12.116	65.5232
12.134	65.5197
12.152	65.4971
12.17	65.4625
12.188	65.4249
12.206	65.3921
12.224	65.3687
12.242	65.3558
12.26	65.3522
12.278	65.3555
12.296	65.363
12.314	65.3726
12.332	65.3834
12.35	65.3947
12.368	65.4063
12.386	65.4172
12.404	65.4261
12.422	65.4305
12.44	65.4279
12.458	65.4156
12.476	65.3919
12.494	65.3561
12.512	65.3094
12.53	65.2546
12.548	65.1965
12.566	65.1404
12.584	65.0925
12.602	65.0584
12.62	65.0422
12.638	65.0449
12.656	65.0648
12.674	65.0973
12.692	65.1368
12.71	65.1777
12.728	65.2159
12.746	65.2497
12.764	65.28
12.782	65.3087
12.8	65.3381
12.818	65.3687
12.836	65.3992
12.854	65.4261
12.872	65.4455
12.89	65.4544
12.908	65.4522
12.926	65.4413
12.944	65.4264
12.962	65.4128
12.98	65.4048
12.998	65.4041
13.016	65.4095
13.034	65.4176
13.052	65.4244
13.07	65.4267
13.088	65.4233
13.106	65.4157
13.124	65.4068
13.142	65.4007
13.16	65.4006
13.178	65.4079
13.196	65.4219
13.214	65.4401
13.232	65.4591
13.25	65.4756
13.268	65.4875
13.286	65.4938
13.304	65.4949
13.322	65.4921
13.34	65.4867
13.358	65.4799
13.376	65.4728
13.394	65.466
13.412	65.4597
13.43	65.454
13.448	65.4488
13.466	65.4436
13.484	65.4379
13.502	65.431
13.52	65.4223
13.538	65.4114
13.556	65.3982
13.574	65.3831
13.592	65.3671
13.61	65.3516
13.628	65.3381
13.646	65.3277
13.664	65.3213
13.682	65.3191
13.7	65.3208
13.718	65.3256
13.736	65.3328
13.754	65.3417
13.772	65.3519
13.79	65.3632
13.808	65.3755
13.826	65.3884
13.844	65.4014
13.862	65.4136
13.88	65.4234
13.898	65.429
13.916	65.4284
13.934	65.4197
13.952	65.4018
13.97	65.3744
13.988	65.3384
14.006	65.2959
14.024	65.2501
14.042	65.205
14.06	65.1652
14.078	65.1347
14.096	65.1169
14.114	65.1137
14.132	65.1255
14.15	65.1509
14.168	65.187
14.186	65.2301
14.204	65.2755
14.222	65.319
14.24	65.3571
14.258	65.3879
14.276	65.4108
14.294	65.4265
14.312	65.4366
14.33	65.443
14.348	65.4471
14.366	65.45
14.384	65.4515
14.402	65.4504
14.42	65.4449
14.438	65.4332
14.456	65.4144
14.474	65.3885
14.492	65.3571
14.51	65.3235
14.528	65.2922
14.546	65.2676
14.564	65.2537
14.582	65.2531
14.6	65.2666
14.618	65.2929
14.636	65.3284
14.654	65.3685
14.672	65.4079
14.69	65.4421
14.708	65.467
14.726	65.4804
14.744	65.4818
14.762	65.4726
14.78	65.4553
14.798	65.4334
14.816	65.4106
14.834	65.3906
14.852	65.3763
14.87	65.3693
14.888	65.3704
14.906	65.3798
14.924	65.3965
14.942	65.4192
14.96	65.4461
14.978	65.4757
14.996	65.5063
15.014	65.5368
15.032	65.5658
15.05	65.5927
15.068	65.6167
15.086	65.6373
15.104	65.6544
15.122	65.6676
15.14	65.6767
15.158	65.6815
15.176	65.6819
15.194	65.6777
15.212	65.6688
15.23	65.6553
15.248	65.6373
15.266	65.6148
15.284	65.5884
15.302	65.5589
15.32	65.5271
15.338	65.4941
15.356	65.4612
15.374	65.4296
15.392	65.4005
15.41	65.3747
15.428	65.3528
15.446	65.3352
15.464	65.3214
15.482	65.3112
15.5	65.304
15.518	65.2988
15.536	65.2954
15.554	65.2932
15.572	65.2923
15.59	65.2928
15.608	65.2949
15.626	65.299
15.644	65.3054
15.662	65.314
15.68	65.3246
15.698	65.3368
15.716	65.3499
15.734	65.363
15.752	65.3754
15.77	65.3862
15.788	65.395
15.806	65.4018
15.824	65.4069
15.842	65.4106
15.86	65.4139
15.878	65.4177
15.896	65.4227
15.914	65.43
15.932	65.4398
15.95	65.4522
15.968	65.467
15.986	65.4836
16.004	65.5013
16.022	65.5193
16.04	65.5368
16.058	65.5532
16.076	65.5681
16.094	65.5812
16.112	65.5924
16.13	65.6019
16.148	65.6099
16.166	65.6169
16.184	65.6231
16.202	65.6288
16.22	65.6341
16.238	65.639
16.256	65.6436
16.274	65.6477
16.292	65.6513
16.31	65.6546
16.328	65.6576
16.346	65.6604
16.364	65.6631
16.382	65.6662
16.4	65.6699
16.418	65.6742
16.436	65.6793
16.454	65.6848
16.472	65.6904
16.49	65.695
16.508	65.6977
16.526	65.6975
16.544	65.6927
16.562	65.6823
16.58	65.6656
16.598	65.6415
16.616	65.6104
16.634	65.5722
16.652	65.5282
16.67	65.48
16.688	65.4291
16.706	65.3785
16.724	65.3301
16.742	65.2862
16.76	65.2496
16.778	65.2212
16.796	65.2031
16.814	65.1954
16.832	65.1981
16.85	65.2103
16.868	65.2305
16.886	65.2576
16.904	65.2884
16.922	65.3212
16.94	65.3535
16.958	65.3825
16.976	65.407
16.994	65.4245
17.012	65.4341
17.03	65.4352
17.048	65.4271
17.066	65.4101
17.084	65.3845
17.102	65.3516
17.12	65.3119
17.138	65.2674
17.156	65.2193
17.174	65.1688
17.192	65.1183
17.21	65.0685
17.228	65.0216
17.246	64.9787
17.264	64.9409
17.282	64.9096
17.3	64.885
17.318	64.8681
17.336	64.8588
17.354	64.8576
17.372	64.8638
17.39	64.8773
17.408	64.8976
17.426	64.924
17.444	64.9557
17.462	64.9919
17.48	65.0322
17.498	65.0756
17.516	65.1219
17.534	65.1706
17.552	65.2215
17.57	65.2742
17.588	65.3284
17.606	65.3839
17.624	65.4401
17.642	65.4964
17.66	65.5524
17.678	65.6069
17.696	65.6596
17.714	65.7089
17.732	65.7542
17.75	65.7944
17.768	65.8287
17.786	65.8566
17.804	65.8777
17.822	65.892
17.84	65.9001
17.858	65.9026
17.876	65.9003
17.894	65.895
17.912	65.8872
17.93	65.8796
17.948	65.8725
17.966	65.8682
17.984	65.8673
18.002	65.8712
18.02	65.8801
18.038	65.8948
18.056	65.9149
18.074	65.9404
18.092	65.97
18.11	66.0034
18.128	66.0384
18.146	66.0746
18.164	66.1098
18.182	66.1431
18.2	66.1731
18.218	66.1985
18.236	66.2184
18.254	66.2319
18.272	66.2385
18.29	66.2378
18.308	66.2298
18.326	66.2147
18.344	66.1928
18.362	66.1647
18.38	66.1309
18.398	66.0924
18.416	66.05
18.434	66.0046
18.452	65.9574
18.47	65.909
18.488	65.8614
18.506	65.8151
18.524	65.7719
18.542	65.7323
18.56	65.6981
18.578	65.6695
18.596	65.6479
18.614	65.6331
18.632	65.626
18.65	65.6263
18.668	65.6335
18.686	65.6475
18.704	65.6665
18.722	65.6902
18.74	65.7162
18.758	65.7441
18.776	65.7716
18.794	65.7982
18.812	65.8217
18.83	65.8419
18.848	65.8571
18.866	65.8673
18.884	65.872
18.902	65.8717
18.92	65.8664
18.938	65.8571
18.956	65.8447
18.974	65.8302
18.992	65.8148
19.01	65.7993
19.028	65.7854
19.046	65.7734
19.064	65.7647
19.082	65.7593
19.1	65.7583
19.118	65.7612
19.136	65.7684
19.154	65.7794
19.172	65.7939
19.19	65.8114
19.208	65.8309
19.226	65.8522
19.244	65.8741
19.262	65.8964
19.28	65.9177
19.298	65.9382
19.316	65.9566
19.334	65.9729
19.352	65.9864
19.37	65.997
19.388	66.0041
19.406	66.0078
19.424	66.0079
19.442	66.0043
19.46	65.9973
19.478	65.9869
19.496	65.9737
19.514	65.9575
19.532	65.9393
19.55	65.9193
19.568	65.8982
19.586	65.8766
19.604	65.8546
19.622	65.8332
19.64	65.8123
19.658	65.7925
19.676	65.7737
19.694	65.7564
19.712	65.7404
19.73	65.7254
19.748	65.7115
19.766	65.6979
19.784	65.6845
19.802	65.6705
19.82	65.6556
19.838	65.6394
19.856	65.6212
19.874	65.6011
19.892	65.5785
19.91	65.5535
19.928	65.5258
19.946	65.4955
19.964	65.4629
19.982	65.4281
20	65.3917
20.018	65.354
20.036	65.3157
20.054	65.2778
20.072	65.2403
20.09	65.2051
20.108	65.1719
20.126	65.1425
20.144	65.1168
20.162	65.0958
20.18	65.08
20.198	65.0695
20.216	65.0649
20.234	65.0659
20.252	65.0725
20.27	65.0846
20.288	65.1014
20.306	65.1229
20.324	65.1479
20.342	65.1757
20.36	65.206
20.378	65.2372
20.396	65.2695
20.414	65.3011
20.432	65.3321
20.45	65.3613
20.468	65.3884
20.486	65.413
20.504	65.4343
20.522	65.4525
20.54	65.4666
20.558	65.4767
20.576	65.4826
20.594	65.484
20.612	65.4811
20.63	65.4738
20.648	65.4621
20.666	65.447
20.684	65.4282
20.702	65.4069
20.72	65.3833
20.738	65.3579
20.756	65.3328
20.774	65.3074
20.792	65.2847
20.81	65.2647
20.828	65.2488
20.846	65.2392
20.864	65.2352
20.882	65.2392
20.9	65.2511
20.918	65.2713
20.936	65.3005
20.954	65.3382
20.972	65.3836
20.99	65.4373
21.008	65.4969
21.026	65.562
21.044	65.6317
21.062	65.7027
21.08	65.7759
21.098	65.8474
21.116	65.9167
21.134	65.9826
21.152	66.0419
21.17	66.0955
21.188	66.1408
21.206	66.177
21.224	66.2042
21.242	66.221
21.26	66.2276
21.278	66.2246
21.296	66.2116
21.314	66.1896
21.332	66.1602
21.35	66.1228
21.368	66.0802
21.386	66.0327
21.404	65.9811
21.422	65.9285
21.44	65.8739
21.458	65.8198
21.476	65.7671
21.494	65.7159
21.512	65.6683
21.53	65.6239
21.548	65.5839
21.566	65.5491
21.584	65.5193
21.602	65.4957
21.62	65.4785
21.638	65.4673
21.656	65.4626
21.674	65.464
21.692	65.4717
21.71	65.4857
21.728	65.506
21.746	65.5327
21.764	65.5657
21.782	65.6053
21.8	65.6518
21.818	65.705
21.836	65.7652
21.854	65.8323
21.872	65.9063
21.89	65.9873
21.908	66.0754
21.926	66.1699
21.944	66.2706
21.962	66.3776
21.98	66.489
21.998	66.6052
22.016	66.7254
22.034	66.8477
22.052	66.9733
22.07	67.0991
22.088	67.2236
22.106	67.3476
22.124	67.4663
22.142	67.5792
22.16	67.6859
22.178	67.7816
22.196	67.8673
22.214	67.9412
22.232	68.0003
22.25	68.0458
22.268	68.0763
22.286	68.0907
22.304	68.0896
22.322	68.0737
22.34	68.042
22.358	67.9963
22.376	67.9403
22.394	67.8721
22.412	67.7958
22.43	67.7167
22.448	67.632
22.466	67.5479
22.484	67.4694
22.502	67.3935
22.52	67.3269
22.538	67.2722
22.556	67.2278
22.574	67.1991
22.592	67.1873
22.61	67.1914
22.628	67.2129
22.646	67.2529
22.664	67.3091
22.682	67.3788
22.7	67.4647
22.718	67.5611
22.736	67.6622
22.754	67.7721
22.772	67.8822
22.79	67.9854
22.808	68.0866
22.826	68.1754
22.844	68.2457
22.862	68.3017
22.88	68.3342
22.898	68.3389
22.916	68.3188
22.934	68.2689
22.952	68.1869
22.97	68.0746
22.988	67.9317
23.006	67.756
23.024	67.55
23.042	67.3197
23.06	67.0636
23.078	66.7839
23.096	66.4915
23.114	66.1834
23.132	65.8634
23.15	65.5463
23.168	65.2296
23.186	64.9162
23.204	64.6214
23.222	64.3419
23.24	64.0809
23.258	63.8528
23.276	63.6556
23.294	63.4906
23.312	63.3684
23.33	63.2883
23.348	63.2501
23.366	63.2594
23.384	63.3172
23.402	63.4215
23.42	63.5718
23.438	63.7698
23.456	64.0132
23.474	64.2958
23.492	64.619
23.51	64.9815
23.528	65.3727
23.546	65.7922
23.564	66.2409
23.582	66.7057
23.6	67.1833
23.618	67.6775
23.636	68.174
23.654	68.6657
23.672	69.1587
23.69	69.6425
23.708	70.1093
23.726	70.5647
23.744	71.0029
23.762	71.4183
23.78	71.8137
23.798	72.1881
23.816	72.5393
23.834	72.8673
23.852	73.1737
23.87	73.4597
23.888	73.7228
23.906	73.9665
23.924	74.1971
23.942	74.413
23.96	74.6151
23.978	74.8113
23.996	75.0037
24.014	75.1896
24.032	75.3756
24.05	75.5661
24.068	75.7581
24.086	75.9534
24.104	76.1542
24.122	76.3609
24.14	76.5711
24.158	76.7827
24.176	76.999
24.194	77.2162
24.212	77.4266
24.23	77.6308
24.248	77.83
24.266	78.0133
24.284	78.1756
24.302	78.3231
24.32	78.4459
24.338	78.5347
24.356	78.5955
24.374	78.6237
24.392	78.6108
24.41	78.5573
24.428	78.4646
24.446	78.3299
24.464	78.1497
24.482	77.9254
24.5	77.6639
24.518	77.3699
24.536	77.0366
24.554	76.674
24.572	76.2954
24.59	75.896
24.608	75.4777
24.626	75.0547
24.644	74.632
24.662	74.2021
24.68	73.7781
24.698	73.3721
24.716	72.9749
24.734	72.594
24.752	72.2429
24.77	71.9225
24.788	71.6289
24.806	71.3703
24.824	71.1528
24.842	70.9729
24.86	70.8301
24.878	70.7247
24.896	70.6594
24.914	70.6312
24.932	70.6339
24.95	70.6647
24.968	70.7272
24.986	70.8163
25.004	70.9267
25.022	71.0647
25.04	71.2248
25.058	71.3943
25.076	71.5704
25.094	71.7611
25.112	71.9497
25.13	72.1197
25.148	72.2821
25.166	72.4308
25.184	72.5476
25.202	72.6246
25.22	72.6731
25.238	72.6806
25.256	72.6338
25.274	72.5389
25.292	72.3947
25.31	72.1913
25.328	71.9225
25.346	71.5941
25.364	71.204
25.382	70.7488
25.4	70.2275
25.418	69.6424
25.436	68.9956
25.454	68.2883
25.472	67.5183
25.49	66.6892
25.508	65.8058
25.526	64.8628
25.544	63.859
25.562	62.815
25.58	61.7495
25.598	60.6423
25.616	59.5076
25.634	58.3788
25.652	57.2787
25.67	56.1889
25.688	55.1136
25.706	54.0604
25.724	53.0338
25.742	52.0292
25.76	51.0416
25.778	50.0666
25.796	49.109
25.814	48.1654
25.832	47.2283
25.85	46.2919
25.868	45.36
25.886	44.4327
25.904	43.509
25.922	42.5701
25.94	41.6147
25.958	40.6948
25.976	39.8621
25.994	39.0837
26.012	38.3648
26.03	37.7698
26.048	37.3543
26.066	37.0785
26.084	36.9537
26.102	37.0162
26.12	37.2911
26.138	37.7543
26.156	38.4125
26.174	39.2781
26.192	40.3902
26.21	41.7573
26.228	43.274
26.246	44.8325
26.264	46.4477
26.282	48.1603
26.3	49.8721
26.318	51.4868
26.336	53.0131
26.354	54.4831
26.372	55.8845
26.39	57.2038
26.408	58.4186
26.426	59.5591
26.444	60.6699
26.462	61.7727
26.48	62.7411
26.498	63.7125
26.516	64.8894
26.534	66.4177
26.552	68.1326
26.57	70.1185
26.588	72.5162
26.606	75.4415
26.624	78.8428
26.642	82.6527
26.66	86.8113
26.678	91.3135
26.696	96.2518
26.714	101.48
26.732	106.831
26.75	112.289
26.768	118.074
26.786	123.85
26.804	129.245
26.822	134.08
26.84	138.644
26.858	142.76
26.876	146.22
26.894	148.869
26.912	150.805
26.93	152.127
26.948	152.924
26.966	153.134
26.984	152.525
27.002	151.553
27.02	150.719
27.028	150.538