File: Bakgrunnsmateriale/MATLAB/FTIR/ftir_data/subCa/Mapping_25/BZ12041010-4_t15_cm-1.asc
PE IR       SPECTRUM    SPECTRUM    ASCII       PEDS        1.60
  -1
BZ2C7E~1.ASC
17/04/10
10:09:00.00
17/04/10
10:09:00.00
tln
$BZ12041010-4_t0015$<tbV0>[-5.2,-7.2,9.0,0.0,22,1,0]
370
64

2002,4.07
MIRTGS : RIGHTBACK : INTERNAL 2
MIR : ON : INTERNAL 2
OPTKBR

0.200000
8
8.000000
FILLER
RATIO
SPECTRUM
UNLOCKED 256

DOUBLE
64
COMBINED
1
0
0

1.000000
RATIO

1
0
TRUE
51149
0
LEFT NOT FITTED RIGHT NOT FITTED 0
NONE
NONE
15600
12
4.427000
51148
TRUE
1 0 8 72 0 0 0 0

15798

#HDR
-1
-1
#GR
CM-1
%T
2.38419e-05
0.0
5000
-1.000000
4631
8
78.9845
31.7911
#DATA
5000	64.6822
4996	64.357
4992	64.6025
4988	64.9108
4984	64.9325
4980	65.0137
4976	65.2613
4972	65.3869
4968	65.1167
4964	64.5697
4960	64.2127
4956	64.1238
4952	64.2222
4948	64.5442
4944	64.8196
4940	64.9318
4936	64.9573
4932	64.8089
4928	64.8202
4924	65.0798
4920	65.0193
4916	64.8995
4912	65.2308
4908	65.5216
4904	65.3911
4900	65.1296
4896	64.7809
4892	64.4422
4888	64.3196
4884	64.2129
4880	64.2996
4876	64.6695
4872	64.4365
4868	63.7449
4864	63.4668
4860	64.21
4856	66.101
4852	67.0695
4848	66.9847
4844	67.6702
4840	67.3813
4836	65.8557
4832	65.4038
4828	65.7239
4824	66.1535
4820	65.8643
4816	64.5464
4812	64.0406
4808	65.0063
4804	66.0944
4800	66.0256
4796	65.8498
4792	66.4113
4788	66.3521
4784	65.6165
4780	65.3522
4776	65.3003
4772	65.1165
4768	65.2467
4764	65.4971
4760	65.7311
4756	65.9037
4752	65.6568
4748	65.4818
4744	65.4368
4740	65.2983
4736	65.4029
4732	65.5372
4728	65.3816
4724	65.034
4720	64.9985
4716	65.2543
4712	65.4282
4708	65.3455
4704	65.17
4700	65.12
4696	64.9652
4692	64.9326
4688	65.0976
4684	65.1423
4680	65.0048
4676	64.9553
4672	65.0871
4668	65.1869
4664	65.2832
4660	65.2897
4656	65.1552
4652	65.0578
4648	65.0077
4644	64.9373
4640	64.9166
4636	64.9088
4632	64.9877
4628	65.2853
4624	65.4068
4620	65.1687
4616	64.9635
4612	64.9595
4608	65.0422
4604	65.0357
4600	64.9362
4596	64.9874
4592	65.0647
4588	65.1068
4584	65.2136
4580	65.064
4576	64.8753
4572	64.907
4568	64.7534
4564	64.5048
4560	64.4094
4556	64.5504
4552	64.7757
4548	64.8879
4544	65.1652
4540	65.3854
4536	65.2536
4532	65.0788
4528	64.8936
4524	64.8706
4520	65.1096
4516	65.1427
4512	65.0693
4508	64.963
4504	64.8258
4500	65.0177
4496	65.246
4492	64.8015
4488	64.5206
4484	64.8839
4480	65.0841
4476	63.3225
4472	61.3386
4468	64.064
4464	66.2938
4460	69.2327
4456	75.1398
4452	72.998
4448	67.5279
4444	65.3965
4440	64.7767
4436	64.6684
4432	64.6291
4428	64.2992
4424	63.8383
4420	63.8329
4416	64.2816
4412	64.5642
4408	64.5185
4404	64.4528
4400	64.6049
4396	65.156
4392	65.6615
4388	65.6464
4384	65.4798
4380	65.3471
4376	65.145
4372	64.9745
4368	64.9256
4364	64.9425
4360	64.8338
4356	64.6991
4352	64.7534
4348	64.7565
4344	64.801
4340	65.1594
4336	65.4854
4332	65.5457
4328	65.3981
4324	65.1838
4320	65.1303
4316	65.2316
4312	65.3146
4308	65.2904
4304	65.1993
4300	65.1854
4296	65.1739
4292	65.0631
4288	64.9717
4284	64.8794
4280	64.9205
4276	65.0821
4272	65.1204
4268	65.0798
4264	65.0944
4260	65.188
4256	65.1581
4252	65.0341
4248	64.992
4244	64.9386
4240	64.8792
4236	64.9642
4232	65.1273
4228	65.1659
4224	65.224
4220	65.2809
4216	65.1826
4212	65.1327
4208	65.1144
4204	65.1375
4200	65.2723
4196	65.3251
4192	65.2972
4188	65.3228
4184	65.3641
4180	65.3501
4176	65.2491
4172	65.2377
4168	65.4146
4164	65.4463
4160	65.283
4156	65.1874
4152	65.1972
4148	65.3161
4144	65.374
4140	65.1674
4136	64.9186
4132	64.8913
4128	65.0313
4124	65.1425
4120	65.1867
4116	65.207
4112	65.1149
4108	65.0398
4104	65.09
4100	65.2255
4096	65.4793
4092	65.5947
4088	65.3741
4084	65.2507
4080	65.3702
4076	65.515
4072	65.6398
4068	65.5121
4064	65.3154
4060	65.29
4056	65.2234
4052	65.2213
4048	65.2127
4044	65.0839
4040	64.9949
4036	64.9072
4032	64.8443
4028	64.8594
4024	64.9132
4020	64.9761
4016	65.0685
4012	65.1186
4008	65.1348
4004	65.2786
4000	65.3396
3996	65.1632
3992	65.0232
3988	65.0754
3984	65.1988
3980	65.1674
3976	65.089
3972	65.1741
3968	65.237
3964	65.2032
3960	65.2386
3956	65.3701
3952	65.3539
3948	65.1149
3944	64.981
3940	65.124
3936	65.3901
3932	65.4788
3928	65.3644
3924	65.2663
3920	65.152
3916	65.0267
3912	65.0684
3908	65.2595
3904	65.3913
3900	65.3878
3896	65.3394
3892	65.2915
3888	65.2999
3884	65.3773
3880	65.3583
3876	65.268
3872	65.2792
3868	65.271
3864	65.2099
3860	65.2375
3856	65.2602
3852	65.2215
3848	65.1643
3844	65.0323
3840	65.0102
3836	65.1851
3832	65.2443
3828	65.173
3824	65.2175
3820	65.3201
3816	65.3621
3812	65.3847
3808	65.3684
3804	65.3275
3800	65.4148
3796	65.5132
3792	65.4078
3788	65.2827
3784	65.2974
3780	65.3196
3776	65.2527
3772	65.1481
3768	65.1384
3764	65.277
3760	65.3766
3756	65.294
3752	65.2267
3748	65.2773
3744	65.2781
3740	65.2499
3736	65.291
3732	65.3414
3728	65.3597
3724	65.4005
3720	65.4452
3716	65.4309
3712	65.3816
3708	65.3215
3704	65.2974
3700	65.2844
3696	65.2452
3692	65.2245
3688	65.2762
3684	65.3513
3680	65.3176
3676	65.2453
3672	65.2375
3668	65.2713
3664	65.2781
3660	65.2187
3656	65.1921
3652	65.2159
3648	65.2165
3644	65.2129
3640	65.185
3636	65.1677
3632	65.2433
3628	65.3356
3624	65.3719
3620	65.3474
3616	65.3647
3612	65.4516
3608	65.4766
3604	65.4222
3600	65.3492
3596	65.3125
3592	65.3309
3588	65.3874
3584	65.392
3580	65.3843
3576	65.4181
3572	65.3731
3568	65.289
3564	65.2557
3560	65.2357
3556	65.1993
3552	65.1643
3548	65.1999
3544	65.3517
3540	65.4826
3536	65.5256
3532	65.5302
3528	65.4551
3524	65.3444
3520	65.3401
3516	65.3913
3512	65.3809
3508	65.3489
3504	65.3408
3500	65.3662
3496	65.3753
3492	65.3687
3488	65.3776
3484	65.3393
3480	65.2894
3476	65.3055
3472	65.2947
3468	65.1708
3464	65.067
3460	65.064
3456	65.1203
3452	65.1555
3448	65.1818
3444	65.2499
3440	65.2047
3436	65.0619
3432	65.0117
3428	65.0304
3424	65.0665
3420	65.1755
3416	65.3035
3412	65.3207
3408	65.3066
3404	65.3562
3400	65.3703
3396	65.3615
3392	65.3889
3388	65.3774
3384	65.2896
3380	65.1938
3376	65.149
3372	65.1014
3368	65.0672
3364	65.1048
3360	65.1686
3356	65.2667
3352	65.4379
3348	65.5918
3344	65.5833
3340	65.4647
3336	65.3662
3332	65.2812
3328	65.2435
3324	65.2738
3320	65.3074
3316	65.2885
3312	65.2228
3308	65.1999
3304	65.1838
3300	65.166
3296	65.2188
3292	65.232
3288	65.1884
3284	65.174
3280	65.1638
3276	65.1887
3272	65.2593
3268	65.2779
3264	65.2265
3260	65.2251
3256	65.2799
3252	65.3103
3248	65.3465
3244	65.3708
3240	65.3422
3236	65.3126
3232	65.3244
3228	65.3575
3224	65.3707
3220	65.3708
3216	65.3724
3212	65.2846
3208	65.1989
3204	65.2972
3200	65.4291
3196	65.4353
3192	65.4026
3188	65.3743
3184	65.309
3180	65.2934
3176	65.3651
3172	65.3742
3168	65.318
3164	65.3141
3160	65.354
3156	65.3495
3152	65.2835
3148	65.242
3144	65.2301
3140	65.2083
3136	65.19
3132	65.1772
3128	65.1991
3124	65.2721
3120	65.3314
3116	65.3595
3112	65.3467
3108	65.328
3104	65.3779
3100	65.3702
3096	65.279
3092	65.258
3088	65.2873
3084	65.3194
3080	65.3463
3076	65.3284
3072	65.2693
3068	65.2334
3064	65.2829
3060	65.3622
3056	65.3643
3052	65.3042
3048	65.2828
3044	65.3
3040	65.335
3036	65.418
3032	65.4914
3028	65.4657
3024	65.3544
3020	65.2818
3016	65.2757
3012	65.2414
3008	65.1778
3004	65.1197
3000	65.1663
2996	65.3515
2992	65.4921
2988	65.476
2984	65.3623
2980	65.3083
2976	65.3614
2972	65.3999
2968	65.3856
2964	65.3466
2960	65.2853
2956	65.2156
2952	65.1916
2948	65.2282
2944	65.2077
2940	65.1374
2936	65.1611
2932	65.193
2928	65.1403
2924	65.0968
2920	65.0926
2916	65.1143
2912	65.1547
2908	65.1918
2904	65.2256
2900	65.252
2896	65.254
2892	65.2571
2888	65.2637
2884	65.2042
2880	65.1052
2876	65.0576
2872	65.0725
2868	65.1075
2864	65.1162
2860	65.1114
2856	65.1442
2852	65.1977
2848	65.2769
2844	65.3463
2840	65.3207
2836	65.2989
2832	65.3524
2828	65.3838
2824	65.3494
2820	65.3455
2816	65.4247
2812	65.4691
2808	65.4306
2804	65.3952
2800	65.3978
2796	65.4082
2792	65.4086
2788	65.4091
2784	65.398
2780	65.3133
2776	65.2
2772	65.207
2768	65.2907
2764	65.3295
2760	65.352
2756	65.3605
2752	65.3579
2748	65.4162
2744	65.439
2740	65.3503
2736	65.292
2732	65.3205
2728	65.3621
2724	65.4252
2720	65.4919
2716	65.4505
2712	65.4032
2708	65.4002
2704	65.3234
2700	65.274
2696	65.3193
2692	65.3342
2688	65.3302
2684	65.3814
2680	65.3894
2676	65.3738
2672	65.4113
2668	65.3929
2664	65.3271
2660	65.3499
2656	65.43
2652	65.4354
2648	65.3307
2644	65.1902
2640	65.1446
2636	65.2089
2632	65.2702
2628	65.2847
2624	65.2898
2620	65.3483
2616	65.3861
2612	65.3369
2608	65.3406
2604	65.4201
2600	65.4585
2596	65.4652
2592	65.4829
2588	65.4213
2584	65.2895
2580	65.2477
2576	65.305
2572	65.3534
2568	65.3455
2564	65.3283
2560	65.3493
2556	65.3762
2552	65.3677
2548	65.3766
2544	65.4066
2540	65.3672
2536	65.3245
2532	65.3666
2528	65.3897
2524	65.3184
2520	65.238
2516	65.2543
2512	65.3166
2508	65.356
2504	65.3974
2500	65.3972
2496	65.3537
2492	65.3215
2488	65.2892
2484	65.2716
2480	65.2578
2476	65.25
2472	65.2968
2468	65.329
2464	65.3103
2460	65.2936
2456	65.2913
2452	65.3491
2448	65.4243
2444	65.4476
2440	65.5148
2436	65.5525
2432	65.4574
2428	65.3843
2424	65.3721
2420	65.3298
2416	65.2642
2412	65.2827
2408	65.3718
2404	65.3684
2400	65.2966
2396	65.2692
2392	65.2946
2388	65.2872
2384	65.2142
2380	65.1931
2376	65.2688
2372	65.3471
2368	65.3776
2364	65.3766
2360	65.3827
2356	65.4306
2352	65.4572
2348	65.3985
2344	65.2898
2340	65.206
2336	65.1916
2332	65.2672
2328	65.3669
2324	65.4019
2320	65.3809
2316	65.3371
2312	65.3074
2308	65.2866
2304	65.2716
2300	65.2823
2296	65.3203
2292	65.3839
2288	65.4042
2284	65.326
2280	65.2446
2276	65.2565
2272	65.3263
2268	65.3536
2264	65.3173
2260	65.274
2256	65.2397
2252	65.2284
2248	65.2678
2244	65.3584
2240	65.4118
2236	65.3655
2232	65.3378
2228	65.365
2224	65.3526
2220	65.3315
2216	65.3349
2212	65.3306
2208	65.3557
2204	65.4247
2200	65.4315
2196	65.3323
2192	65.2616
2188	65.2952
2184	65.3483
2180	65.3876
2176	65.3999
2172	65.3831
2168	65.3713
2164	65.3017
2160	65.2168
2156	65.1964
2152	65.215
2148	65.255
2144	65.2915
2140	65.3008
2136	65.3
2132	65.2902
2128	65.2853
2124	65.3168
2120	65.3254
2116	65.3272
2112	65.391
2108	65.4294
2104	65.3559
2100	65.2255
2096	65.174
2092	65.217
2088	65.2472
2084	65.2816
2080	65.3666
2076	65.438
2072	65.4326
2068	65.3954
2064	65.4199
2060	65.4554
2056	65.4221
2052	65.3862
2048	65.3825
2044	65.3731
2040	65.3531
2036	65.3512
2032	65.3816
2028	65.3809
2024	65.3314
2020	65.32
2016	65.3643
2012	65.3803
2008	65.3604
2004	65.3614
2000	65.3818
1996	65.3994
1992	65.4231
1988	65.4653
1984	65.4462
1980	65.3507
1976	65.3122
1972	65.3216
1968	65.33
1964	65.3747
1960	65.4005
1956	65.3694
1952	65.3553
1948	65.3715
1944	65.3556
1940	65.3229
1936	65.3381
1932	65.3694
1928	65.366
1924	65.3344
1920	65.3048
1916	65.3181
1912	65.3652
1908	65.4138
1904	65.4282
1900	65.3823
1896	65.3173
1892	65.2982
1888	65.308
1884	65.2963
1880	65.2716
1876	65.2376
1872	65.2476
1868	65.3041
1864	65.3337
1860	65.347
1856	65.3574
1852	65.3614
1848	65.3873
1844	65.4251
1840	65.3758
1836	65.275
1832	65.2449
1828	65.294
1824	65.3464
1820	65.3363
1816	65.3168
1812	65.3137
1808	65.3094
1804	65.3238
1800	65.3226
1796	65.2807
1792	65.2477
1788	65.2425
1784	65.2857
1780	65.391
1776	65.4271
1772	65.3352
1768	65.2629
1764	65.2732
1760	65.3012
1756	65.31
1752	65.2677
1748	65.1724
1744	65.0861
1740	65.0601
1736	65.0749
1732	65.0589
1728	65.0523
1724	65.0948
1720	65.0805
1716	65.0818
1712	65.1716
1708	65.1946
1704	65.1471
1700	65.0989
1696	65.1214
1692	65.2245
1688	65.2235
1684	65.1675
1680	65.2197
1676	65.2556
1672	65.181
1668	65.1103
1664	65.1264
1660	65.2117
1656	65.3507
1652	65.4122
1648	65.2881
1644	65.1756
1640	65.2259
1636	65.3084
1632	65.3215
1628	65.2885
1624	65.2395
1620	65.2467
1616	65.2628
1612	65.2165
1608	65.2192
1604	65.2521
1600	65.2446
1596	65.2353
1592	65.2567
1588	65.3143
1584	65.3536
1580	65.349
1576	65.3027
1572	65.2584
1568	65.2667
1564	65.2985
1560	65.3562
1556	65.3922
1552	65.3772
1548	65.3061
1544	65.2005
1540	65.211
1536	65.3077
1532	65.327
1528	65.2985
1524	65.3102
1520	65.3292
1516	65.3415
1512	65.3638
1508	65.3613
1504	65.3366
1500	65.3523
1496	65.4284
1492	65.4153
1488	65.3084
1484	65.2441
1480	65.1942
1476	65.1833
1472	65.2293
1468	65.2687
1464	65.3434
1460	65.4387
1456	65.4103
1452	65.3027
1448	65.2771
1444	65.3094
1440	65.3426
1436	65.3239
1432	65.2466
1428	65.2488
1424	65.2939
1420	65.276
1416	65.253
1412	65.2665
1408	65.2968
1404	65.3577
1400	65.3916
1396	65.3202
1392	65.2319
1388	65.1846
1384	65.2282
1380	65.3348
1376	65.3448
1372	65.3236
1368	65.3758
1364	65.4223
1360	65.3723
1356	65.268
1352	65.2124
1348	65.1863
1344	65.1896
1340	65.2486
1336	65.3148
1332	65.3603
1328	65.3568
1324	65.3005
1320	65.255
1316	65.2633
1312	65.3141
1308	65.3577
1304	65.3346
1300	65.2846
1296	65.2895
1292	65.3202
1288	65.3105
1284	65.2712
1280	65.2425
1276	65.2252
1272	65.201
1268	65.177
1264	65.15
1260	65.1625
1256	65.2555
1252	65.2966
1248	65.2204
1244	65.1989
1240	65.2689
1236	65.264
1232	65.2072
1228	65.2153
1224	65.2269
1220	65.1553
1216	65.0747
1212	65.1016
1208	65.1705
1204	65.2065
1200	65.2272
1196	65.2247
1192	65.2608
1188	65.3034
1184	65.2437
1180	65.1474
1176	65.1059
1172	65.1442
1168	65.197
1164	65.1883
1160	65.1707
1156	65.2158
1152	65.2796
1148	65.2982
1144	65.3071
1140	65.2868
1136	65.218
1132	65.2183
1128	65.3016
1124	65.3506
1120	65.2837
1116	65.1809
1112	65.1613
1108	65.1829
1104	65.1584
1100	65.1278
1096	65.1678
1092	65.2306
1088	65.205
1084	65.1167
1080	65.0319
1076	64.9709
1072	65.0688
1068	65.2709
1064	65.3234
1060	65.2491
1056	65.1873
1052	65.1209
1048	65.113
1044	65.2787
1040	65.4229
1036	65.3402
1032	65.145
1028	65.0376
1024	65.1198
1020	65.2729
1016	65.3461
1012	65.3406
1008	65.2775
1004	65.2696
1000	65.3869
996	 65.4434
992	 65.3391
988	 65.2751
984	 65.2559
980	 65.1898
976	 65.1739
972	 65.1856
968	 65.2218
964	 65.2811
960	 65.2643
956	 65.2267
952	 65.2478
948	 65.2819
944	 65.2712
940	 65.2133
936	 65.1751
932	 65.1925
928	 65.2544
924	 65.3359
920	 65.3517
916	 65.2838
912	 65.2221
908	 65.1857
904	 65.1774
900	 65.206
896	 65.2325
892	 65.3329
888	 65.4948
884	 65.5467
880	 65.5012
876	 65.4885
872	 65.4661
868	 65.3748
864	 65.3229
860	 65.3535
856	 65.3854
852	 65.4082
848	 65.4801
844	 65.5195
840	 65.4366
836	 65.4253
832	 65.5952
828	 65.6773
824	 65.5521
820	 65.4739
816	 65.4982
812	 65.4952
808	 65.4803
804	 65.4907
800	 65.4996
796	 65.4783
792	 65.4589
788	 65.4966
784	 65.566
780	 65.5548
776	 65.4685
772	 65.4235
768	 65.4091
764	 65.419
760	 65.5046
756	 65.5443
752	 65.4779
748	 65.4884
744	 65.552
740	 65.5401
736	 65.4952
732	 65.4542
728	 65.4483
724	 65.4603
720	 65.4336
716	 65.3542
712	 65.3214
708	 65.3794
704	 65.4011
700	 65.3876
696	 65.4046
692	 65.4613
688	 65.5614
684	 65.5908
680	 65.5227
676	 65.5081
672	 65.4459
668	 65.2474
664	 65.163
660	 65.3096
656	 65.4896
652	 65.3759
648	 65.1153
644	 65.061
640	 65.1894
636	 65.3185
632	 65.3061
628	 65.3195
624	 65.4462
620	 65.5873
616	 65.656
612	 65.4951
608	 65.4091
604	 65.6541
600	 65.6786
596	 65.3945
592	 65.3816
588	 65.4471
584	 65.4145
580	 65.5159
576	 65.4484
572	 65.1717
568	 65.0026
564	 65.1594
560	 65.5975
556	 65.9458
552	 66.1099
548	 66.1714
544	 65.9312
540	 65.5025
536	 65.4426
532	 65.8042
528	 66.0926
524	 65.9813
520	 65.748
516	 65.8996
512	 66.1865
508	 66.2518
504	 66.2412
500	 66.0475
496	 65.7938
492	 65.9012
488	 66.0477
484	 65.7195
480	 65.2853
476	 65.3131
472	 65.5912
468	 65.5487
464	 65.129
460	 64.9377
456	 65.4528
452	 66.7436
448	 67.0989
444	 65.119
440	 63.7943
436	 64.3307
432	 64.0949
428	 62.9115
424	 62.7453
420	 66.3347
416	 74.5608
412	 78.9845
408	 74.392
404	 69.0935
400	 65.7614
396	 60.4057
392	 59.7946
388	 65.3774
384	 62.7635
380	 67.1074
376	 34.1915
372	 59.1681
370	 31.7911