File: Bakgrunnsmateriale/MATLAB/FTIR/ftir_data/subCa/Mapping_25/BZ12041010-4_t11.asc
PE IR       SPECTRUM    SPECTRUM    ASCII       PEDS        1.60
  -1
BZ2AB2~1.ASC
17/04/10
09:50:33.00
17/04/10
09:51:00.00
tln
$BZ12041010-4_t0011$<tbV0>[5.2,-7.2,9.0,0.0,22,1,0]
27.028
64

2002,4.07
MIRTGS : RIGHTBACK : INTERNAL 2
MIR : ON : INTERNAL 2
OPTKBR

0.200000
8
8.000000
FILLER
RATIO
SPECTRUM
UNLOCKED 256

DOUBLE
64
COMBINED
1
0
0

0.002000
RATIO

1
0
TRUE
51149
0
LEFT NOT FITTED RIGHT NOT FITTED 0
NONE
NONE
15600
12
4.427000
51148
TRUE
1 0 8 72 0 0 0 0

15798

#HDR
-1
-1
#GR
µM
%T
2.38419e-05
0.0
2.000000
0.002000
12515
8
98.6775
26.442
#DATA
2.000000	 64.7082
2.018000	 64.8016
2.036000	 64.8143
2.054000	 66.9771
2.072000	 64.8669
2.090000	 64.7144
2.108000	 65.2523
2.126000	 65.159
2.144000	 65.157
2.162000	 64.5825
2.180000	 64.2178
2.198000	 63.5231
2.216000	 64.3195
2.234000	 64.0898
2.252000	 63.4412
2.270000	 63.7468
2.288000	 63.6592
2.306000	 64.4756
2.324000	 64.8038
2.342000	 64.8161
2.360000	 65.2449
2.378000	 65.171
2.396000	 65.5613
2.414000	 65.1305
2.432000	 65.1387
2.450000	 65.3079
2.468000	 65.2517
2.486000	 65.1866
2.504000	 64.8352
2.522000	 65.1627
2.540000	 65.1041
2.558000	 65.0052
2.576000	 65.2632
2.594000	 65.1391
2.612000	 65.1594
2.630000	 65.3514
2.648000	 65.2013
2.666000	 65.0954
2.684000	 65.4265
2.702000	 65.438
2.720000	 65.3163
2.738000	 65.443
2.756000	 65.3257
2.774000	 65.3294
2.792000	 65.2992
2.810000	 65.2261
2.828000	 65.1186
2.846000	 65.3025
2.864000	 65.1244
2.882000	 65.0469
2.900000	 65.1126
2.918000	 65.0955
2.936000	 65.1447
2.954000	 65.2921
2.972000	 65.2941
2.990000	 65.2588
3.008000	 65.2771
3.026000	 65.3639
3.044000	 65.2377
3.062000	 65.0841
3.080000	 65.2676
3.098000	 65.4191
3.116000	 65.2227
3.134000	 65.2684
3.152000	 65.349
3.170000	 65.2308
3.188000	 65.2515
3.206000	 65.2943
3.224000	 65.3989
3.242000	 65.1487
3.260000	 65.1406
3.278000	 65.3188
3.296000	 65.1693
3.314000	 65.2514
3.332000	 65.1452
3.350000	 65.1943
3.368000	 65.267
3.386000	 65.3503
3.404000	 65.061
3.422000	 65.1657
3.440000	 65.1878
3.458000	 65.3272
3.476000	 65.1438
3.494000	 65.2108
3.512000	 65.2468
3.530000	 65.3025
3.548000	 65.2463
3.566000	 65.2853
3.584000	 65.2686
3.602000	 65.2146
3.620000	 65.3333
3.638000	 65.2171
3.656000	 65.2154
3.674000	 65.3334
3.692000	 65.2451
3.710000	 65.2259
3.728000	 65.2088
3.746000	 65.2623
3.764000	 65.2823
3.782000	 65.2062
3.800000	 65.1853
3.818000	 65.2979
3.836000	 65.1975
3.854000	 65.2592
3.872000	 65.2719
3.890000	 65.348
3.908000	 65.2749
3.926000	 65.3134
3.944000	 65.2588
3.962000	 65.3593
3.980000	 65.2566
3.998000	 65.3779
4.016000	 65.3815
4.034000	 65.3114
4.052000	 65.332
4.070000	 65.3418
4.088000	 65.3659
4.106000	 65.3654
4.124000	 65.3585
4.141999	 65.2834
4.160000	 65.3946
4.178000	 65.294
4.196000	 65.3073
4.214000	 65.2877
4.232000	 65.3497
4.250000	 65.3028
4.268000	 65.3439
4.286000	 65.2832
4.304000	 65.342
4.322000	 65.3411
4.340000	 65.2612
4.358000	 65.3058
4.375999	 65.1619
4.394000	 65.2213
4.412000	 65.331
4.430000	 65.2385
4.448000	 65.1958
4.466000	 65.37
4.484000	 65.2676
4.502000	 65.2913
4.520000	 65.2961
4.538000	 65.2669
4.556000	 65.2503
4.574000	 65.2642
4.592000	 65.2519
4.609999	 65.3618
4.628000	 65.3061
4.646000	 65.2347
4.664000	 65.2315
4.682000	 65.2439
4.700000	 65.2362
4.718000	 65.2987
4.736000	 65.2645
4.754000	 65.3605
4.772000	 65.2397
4.790000	 65.2832
4.808000	 65.257
4.826000	 65.2771
4.843999	 65.2755
4.862000	 65.3411
4.880000	 65.3036
4.898000	 65.2867
4.916000	 65.3351
4.934000	 65.2418
4.952000	 65.2538
4.970000	 65.3102
4.988000	 65.3848
5.006000	 65.3848
5.024000	 65.3073
5.042000	 65.4042
5.060000	 65.3585
5.077999	 65.3684
5.096000	 65.3998
5.114000	 65.3797
5.132000	 65.3937
5.150000	 65.3252
5.168000	 65.3272
5.186000	 65.3069
5.204000	 65.2965
5.222000	 65.316
5.240000	 65.3867
5.258000	 65.4376
5.276000	 65.3295
5.294000	 65.2825
5.312000	 65.2452
5.330000	 65.2938
5.348000	 65.3204
5.366000	 65.2894
5.384000	 65.2403
5.402000	 65.2742
5.420000	 65.3116
5.438000	 65.3417
5.456000	 65.3265
5.474000	 65.2387
5.492000	 65.3005
5.510000	 65.2496
5.528000	 65.1995
5.546000	 65.215
5.564000	 65.2279
5.582000	 65.1826
5.600000	 65.1931
5.618000	 65.2082
5.636000	 65.1655
5.654000	 65.1605
5.672000	 65.1642
5.690000	 65.1382
5.708000	 65.1501
5.726000	 65.129
5.744000	 65.08
5.762000	 65.1458
5.780000	 65.1091
5.798000	 65.0444
5.816000	 65.0398
5.834000	 65.0777
5.852000	 65.1291
5.870000	 65.0955
5.888000	 65.0357
5.906000	 65.0982
5.923999	 65.1452
5.942000	 65.054
5.960000	 65.082
5.978000	 65.1242
5.996000	 65.0804
6.014000	 65.065
6.032000	 65.1195
6.050000	 65.1932
6.068000	 65.1809
6.086000	 65.1024
6.104000	 65.1924
6.122000	 65.3067
6.140000	 65.2343
6.158000	 65.1594
6.176000	 65.1819
6.194000	 65.1799
6.212000	 65.2254
6.230000	 65.3128
6.248000	 65.2961
6.266000	 65.2833
6.284000	 65.3094
6.302000	 65.2584
6.320000	 65.175
6.338000	 65.1864
6.356000	 65.2068
6.374000	 65.1952
6.392000	 65.1917
6.410000	 65.2502
6.428000	 65.2857
6.446000	 65.2499
6.464000	 65.1782
6.482000	 65.0942
6.500000	 65.1115
6.518000	 65.1547
6.536000	 65.1286
6.554000	 65.1216
6.572000	 65.187
6.590000	 65.2753
6.608000	 65.3403
6.626000	 65.3224
6.644000	 65.259
6.662000	 65.2477
6.680000	 65.3014
6.698000	 65.3129
6.716000	 65.2317
6.734000	 65.1544
6.752000	 65.1164
6.770000	 65.1368
6.788000	 65.2029
6.806000	 65.2481
6.824000	 65.239
6.842000	 65.2083
6.860000	 65.2044
6.878000	 65.2034
6.896000	 65.1937
6.914000	 65.2133
6.932000	 65.2283
6.950000	 65.2163
6.968000	 65.1885
6.986000	 65.1513
7.004000	 65.14
7.022000	 65.1494
7.040000	 65.1497
7.058000	 65.1416
7.076000	 65.1255
7.094000	 65.0854
7.112000	 65.0461
7.130000	 65.0904
7.148000	 65.1807
7.166000	 65.1976
7.184000	 65.1775
7.202000	 65.193
7.220000	 65.2202
7.238000	 65.2421
7.256000	 65.2624
7.274000	 65.2671
7.292000	 65.2719
7.310000	 65.2775
7.328000	 65.2312
7.346000	 65.1342
7.364000	 65.0612
7.382000	 65.0454
7.400000	 65.0514
7.418000	 65.0395
7.436000	 65.027
7.454000	 65.0516
7.472000	 65.0894
7.490000	 65.1023
7.508000	 65.1152
7.526000	 65.1467
7.544000	 65.1697
7.562000	 65.1681
7.580000	 65.1586
7.598000	 65.1551
7.616000	 65.1465
7.634000	 65.1234
7.652000	 65.1118
7.670000	 65.1355
7.688000	 65.1652
7.706000	 65.1678
7.724000	 65.1597
7.742000	 65.1522
7.760000	 65.1326
7.778000	 65.1152
7.796000	 65.1166
7.814000	 65.1142
7.832000	 65.0952
7.850000	 65.0862
7.868000	 65.1022
7.886000	 65.128
7.904000	 65.1388
7.922000	 65.1161
7.940000	 65.0752
7.958000	 65.0659
7.976000	 65.1118
7.994000	 65.1791
8.012000	 65.2211
8.030000	 65.2204
8.048000	 65.1889
8.065999	 65.1601
8.084000	 65.1693
8.102000	 65.2206
8.120000	 65.2774
8.138000	 65.2996
8.155999	 65.2757
8.173999	 65.2181
8.192000	 65.1466
8.210000	 65.0894
8.228000	 65.0768
8.246000	 65.1187
8.263999	 65.1965
8.282000	 65.2811
8.300000	 65.3417
8.318000	 65.347
8.336000	 65.289
8.353999	 65.2068
8.372000	 65.1612
8.390000	 65.1787
8.408000	 65.2306
8.426000	 65.2691
8.443999	 65.2724
8.462000	 65.2521
8.480000	 65.2333
8.498000	 65.2349
8.516000	 65.2524
8.533999	 65.2542
8.552000	 65.2101
8.570000	 65.1308
8.588000	 65.0649
8.606000	 65.0451
8.624000	 65.0569
8.641999	 65.0689
8.660000	 65.0746
8.678000	 65.087
8.696000	 65.1075
8.714000	 65.1222
8.731999	 65.1225
8.750000	 65.1127
8.768000	 65.1018
8.786000	 65.1017
8.804000	 65.1213
8.821999	 65.1572
8.840000	 65.1934
8.858000	 65.2159
8.876000	 65.2198
8.894000	 65.2026
8.911999	 65.1617
8.930000	 65.108
8.948000	 65.0663
8.966000	 65.0495
8.984000	 65.0484
9.001999	 65.0513
9.020000	 65.0601
9.038000	 65.0796
9.056000	 65.103
9.074000	 65.116
9.092000	 65.1169
9.109999	 65.1215
9.128000	 65.1455
9.146000	 65.1849
9.164000	 65.2185
9.182000	 65.2272
9.199999	 65.2087
9.218000	 65.1724
9.236000	 65.1279
9.254000	 65.079
9.272000	 65.0311
9.289999	 64.9983
9.308000	 64.9978
9.326000	 65.0356
9.344000	 65.0971
9.362000	 65.1553
9.379999	 65.1913
9.398000	 65.2075
9.416000	 65.2213
9.434000	 65.2464
9.452000	 65.2786
9.469999	 65.2964
9.488000	 65.2764
9.506000	 65.2129
9.524000	 65.1262
9.542000	 65.0517
9.560000	 65.0176
9.577999	 65.0273
9.596000	 65.0613
9.614000	 65.0923
9.632000	 65.1031
9.650000	 65.0953
9.667999	 65.0832
9.686000	 65.0793
9.704000	 65.0848
9.722000	 65.0941
9.740000	 65.1046
9.757999	 65.119
9.776000	 65.1393
9.794000	 65.1607
9.812000	 65.174
9.830000	 65.1735
9.847999	 65.1636
9.866000	 65.1546
9.884000	 65.1541
9.902000	 65.1614
9.920000	 65.1685
9.937999	 65.1652
9.956000	 65.1448
9.974000	 65.1077
9.992000	 65.0635
10.01	65.0268
10.028	65.0095
10.046	65.0133
10.064	65.0294
10.082	65.0465
10.1	65.0609
10.118	65.0799
10.136	65.1137
10.154	65.1635
10.172	65.2161
10.19	65.2483
10.208	65.2416
10.226	65.1923
10.244	65.1137
10.262	65.0306
10.28	64.9673
10.298	64.9391
10.316	64.9487
10.334	64.9884
10.352	65.0463
10.37	65.11
10.388	65.1696
10.406	65.2178
10.424	65.2492
10.442	65.2596
10.46	65.2457
10.478	65.206
10.496	65.1445
10.514	65.0722
10.532	65.0078
10.55	64.9704
10.568	64.9721
10.586	65.0102
10.604	65.0669
10.622	65.1169
10.64	65.1393
10.658	65.1264
10.676	65.0867
10.694	65.0379
10.712	64.9983
10.73	64.9774
10.748	64.9756
10.766	64.9869
10.784	65.0051
10.802	65.0275
10.82	65.0554
10.838	65.092
10.856	65.1382
10.874	65.1906
10.892	65.2424
10.91	65.2839
10.928	65.3073
10.946	65.3083
10.964	65.2895
10.982	65.2599
11	65.2334
11.018	65.223
11.036	65.2348
11.054	65.2647
11.072	65.3006
11.09	65.3281
11.108	65.34
11.126	65.3386
11.144	65.3338
11.162	65.3368
11.18	65.3521
11.198	65.3748
11.216	65.3927
11.234	65.3933
11.252	65.3701
11.27	65.3262
11.288	65.2731
11.306	65.2242
11.324	65.1903
11.342	65.1755
11.36	65.1773
11.378	65.1883
11.396	65.2009
11.414	65.21
11.432	65.2146
11.45	65.2174
11.468	65.2227
11.486	65.2333
11.504	65.2493
11.522	65.2675
11.54	65.2834
11.558	65.2929
11.576	65.2931
11.594	65.2834
11.612	65.2651
11.63	65.2411
11.648	65.2149
11.666	65.1906
11.684	65.1728
11.702	65.1654
11.72	65.1717
11.738	65.1928
11.756	65.2271
11.774	65.2703
11.792	65.3159
11.81	65.3573
11.828	65.3891
11.846	65.4084
11.864	65.4156
11.882	65.4139
11.9	65.4081
11.918	65.403
11.936	65.4024
11.954	65.4081
11.972	65.4199
11.99	65.4358
12.008	65.4532
12.026	65.4694
12.044	65.4819
12.062	65.4894
12.08	65.4913
12.098	65.488
12.116	65.4803
12.134	65.4693
12.152	65.4561
12.17	65.4419
12.188	65.4278
12.206	65.415
12.224	65.4048
12.242	65.3994
12.26	65.4005
12.278	65.4093
12.296	65.426
12.314	65.4496
12.332	65.4772
12.35	65.5051
12.368	65.5289
12.386	65.5449
12.404	65.5503
12.422	65.5439
12.44	65.5264
12.458	65.4998
12.476	65.4672
12.494	65.4322
12.512	65.3986
12.53	65.3692
12.548	65.3457
12.566	65.3281
12.584	65.3146
12.602	65.3022
12.62	65.2874
12.638	65.2674
12.656	65.2411
12.674	65.2097
12.692	65.1766
12.71	65.1466
12.728	65.1253
12.746	65.1166
12.764	65.1221
12.782	65.1405
12.8	65.1675
12.818	65.1977
12.836	65.2259
12.854	65.2485
12.872	65.2641
12.89	65.2739
12.908	65.2808
12.926	65.2879
12.944	65.2973
12.962	65.31
12.98	65.3249
12.998	65.3405
13.016	65.3547
13.034	65.3661
13.052	65.3738
13.07	65.3782
13.088	65.3801
13.106	65.3802
13.124	65.3788
13.142	65.3764
13.16	65.3729
13.178	65.3689
13.196	65.3659
13.214	65.3657
13.232	65.3704
13.25	65.3813
13.268	65.3989
13.286	65.4216
13.304	65.4456
13.322	65.4657
13.34	65.4766
13.358	65.4739
13.376	65.4555
13.394	65.4217
13.412	65.376
13.43	65.3233
13.448	65.27
13.466	65.2215
13.484	65.1819
13.502	65.1536
13.52	65.1371
13.538	65.1315
13.556	65.1351
13.574	65.1458
13.592	65.1617
13.61	65.1809
13.628	65.2024
13.646	65.2254
13.664	65.2496
13.682	65.2746
13.7	65.3008
13.718	65.3287
13.736	65.3591
13.754	65.3926
13.772	65.4297
13.79	65.4701
13.808	65.5121
13.826	65.5534
13.844	65.59
13.862	65.618
13.88	65.6331
13.898	65.6322
13.916	65.6138
13.934	65.5786
13.952	65.5298
13.97	65.4727
13.988	65.4143
14.006	65.3618
14.024	65.3221
14.042	65.3001
14.06	65.2987
14.078	65.3174
14.096	65.353
14.114	65.4005
14.132	65.4534
14.15	65.5053
14.168	65.5503
14.186	65.5843
14.204	65.6051
14.222	65.6127
14.24	65.6094
14.258	65.5984
14.276	65.5832
14.294	65.5667
14.312	65.5508
14.33	65.536
14.348	65.5213
14.366	65.5047
14.384	65.4836
14.402	65.4557
14.42	65.42
14.438	65.3767
14.456	65.3277
14.474	65.2763
14.492	65.2267
14.51	65.1838
14.528	65.1516
14.546	65.133
14.564	65.1291
14.582	65.1395
14.6	65.1623
14.618	65.1945
14.636	65.2324
14.654	65.2726
14.672	65.3124
14.69	65.3497
14.708	65.3833
14.726	65.4124
14.744	65.4364
14.762	65.4546
14.78	65.4661
14.798	65.4699
14.816	65.4649
14.834	65.4503
14.852	65.4259
14.87	65.3926
14.888	65.3522
14.906	65.3072
14.924	65.261
14.942	65.2178
14.96	65.1815
14.978	65.1553
14.996	65.1413
15.014	65.1409
15.032	65.1537
15.05	65.1783
15.068	65.212
15.086	65.2517
15.104	65.2941
15.122	65.3353
15.14	65.3722
15.158	65.4026
15.176	65.4244
15.194	65.4365
15.212	65.4387
15.23	65.4312
15.248	65.4147
15.266	65.39
15.284	65.3585
15.302	65.3219
15.32	65.2817
15.338	65.2396
15.356	65.1974
15.374	65.1571
15.392	65.1202
15.41	65.0883
15.428	65.0633
15.446	65.0466
15.464	65.0391
15.482	65.0414
15.5	65.0536
15.518	65.0749
15.536	65.104
15.554	65.139
15.572	65.1778
15.59	65.2172
15.608	65.2548
15.626	65.2886
15.644	65.3163
15.662	65.3365
15.68	65.3487
15.698	65.353
15.716	65.3499
15.734	65.3409
15.752	65.3278
15.77	65.3122
15.788	65.2969
15.806	65.2836
15.824	65.274
15.842	65.2696
15.86	65.2714
15.878	65.2798
15.896	65.2949
15.914	65.3161
15.932	65.3422
15.95	65.372
15.968	65.4037
15.986	65.4351
16.004	65.4646
16.022	65.4905
16.04	65.5111
16.058	65.5258
16.076	65.534
16.094	65.5361
16.112	65.5328
16.13	65.5252
16.148	65.515
16.166	65.5042
16.184	65.4938
16.202	65.4852
16.22	65.4791
16.238	65.4754
16.256	65.474
16.274	65.4737
16.292	65.4736
16.31	65.473
16.328	65.4707
16.346	65.4666
16.364	65.4604
16.382	65.4529
16.4	65.4456
16.418	65.4396
16.436	65.437
16.454	65.4393
16.472	65.4476
16.49	65.4628
16.508	65.4842
16.526	65.5113
16.544	65.5421
16.562	65.5739
16.58	65.6049
16.598	65.6312
16.616	65.6508
16.634	65.6616
16.652	65.6617
16.67	65.6514
16.688	65.6306
16.706	65.6014
16.724	65.5658
16.742	65.5262
16.76	65.4866
16.778	65.4487
16.796	65.4162
16.814	65.3909
16.832	65.3739
16.85	65.3665
16.868	65.368
16.886	65.3782
16.904	65.3946
16.922	65.416
16.94	65.4404
16.958	65.465
16.976	65.4884
16.994	65.5082
17.012	65.5232
17.03	65.5323
17.048	65.5345
17.066	65.5299
17.084	65.5184
17.102	65.5008
17.12	65.4776
17.138	65.4504
17.156	65.4206
17.174	65.3895
17.192	65.3599
17.21	65.3327
17.228	65.3107
17.246	65.2954
17.264	65.288
17.282	65.2899
17.3	65.3013
17.318	65.3226
17.336	65.3528
17.354	65.3915
17.372	65.4361
17.39	65.4855
17.408	65.5368
17.426	65.5876
17.444	65.6361
17.462	65.679
17.48	65.7154
17.498	65.7432
17.516	65.762
17.534	65.7709
17.552	65.7704
17.57	65.7608
17.588	65.7432
17.606	65.7185
17.624	65.6881
17.642	65.6533
17.66	65.615
17.678	65.5748
17.696	65.5332
17.714	65.4912
17.732	65.4491
17.75	65.4074
17.768	65.3664
17.786	65.3261
17.804	65.2871
17.822	65.2497
17.84	65.2146
17.858	65.1822
17.876	65.1531
17.894	65.1285
17.912	65.1087
17.93	65.0947
17.948	65.0869
17.966	65.0863
17.984	65.0931
18.002	65.108
18.02	65.1307
18.038	65.1617
18.056	65.2002
18.074	65.2461
18.092	65.2981
18.11	65.356
18.128	65.4178
18.146	65.4829
18.164	65.5492
18.182	65.6157
18.2	65.6807
18.218	65.7425
18.236	65.7999
18.254	65.8509
18.272	65.8951
18.29	65.9306
18.308	65.9573
18.326	65.9743
18.344	65.9818
18.362	65.9797
18.38	65.9686
18.398	65.9493
18.416	65.923
18.434	65.8909
18.452	65.8548
18.47	65.8158
18.488	65.7767
18.506	65.7382
18.524	65.7031
18.542	65.6721
18.56	65.6476
18.578	65.6298
18.596	65.62
18.614	65.6184
18.632	65.6253
18.65	65.6405
18.668	65.6628
18.686	65.6919
18.704	65.7258
18.722	65.7639
18.74	65.8035
18.758	65.8438
18.776	65.8821
18.794	65.9178
18.812	65.9482
18.83	65.9729
18.848	65.9902
18.866	66
18.884	66.0013
18.902	65.9946
18.92	65.98
18.938	65.9582
18.956	65.9302
18.974	65.8971
18.992	65.8606
19.01	65.8217
19.028	65.7825
19.046	65.744
19.064	65.7079
19.082	65.6751
19.1	65.6473
19.118	65.6245
19.136	65.6081
19.154	65.5978
19.172	65.5939
19.19	65.5961
19.208	65.6036
19.226	65.6161
19.244	65.6322
19.262	65.6516
19.28	65.6723
19.298	65.6942
19.316	65.7155
19.334	65.736
19.352	65.7541
19.37	65.7698
19.388	65.7817
19.406	65.79
19.424	65.7938
19.442	65.793
19.46	65.7877
19.478	65.7776
19.496	65.7632
19.514	65.7445
19.532	65.7219
19.55	65.6956
19.568	65.6661
19.586	65.6339
19.604	65.5993
19.622	65.5632
19.64	65.5257
19.658	65.4879
19.676	65.4496
19.694	65.4124
19.712	65.3759
19.73	65.3415
19.748	65.3089
19.766	65.279
19.784	65.2519
19.802	65.2279
19.82	65.2072
19.838	65.1897
19.856	65.1756
19.874	65.1647
19.892	65.1568
19.91	65.1522
19.928	65.1504
19.946	65.1515
19.964	65.1555
19.982	65.1623
20	65.1721
20.018	65.1846
20.036	65.2004
20.054	65.2199
20.072	65.2432
20.09	65.2714
20.108	65.3043
20.126	65.343
20.144	65.3876
20.162	65.4384
20.18	65.4959
20.198	65.5594
20.216	65.6288
20.234	65.7036
20.252	65.782
20.27	65.8644
20.288	65.9472
20.306	66.0309
20.324	66.1122
20.342	66.1895
20.36	66.262
20.378	66.3258
20.396	66.3818
20.414	66.4264
20.432	66.4596
20.45	66.4805
20.468	66.4882
20.486	66.4833
20.504	66.4658
20.522	66.4359
20.54	66.3956
20.558	66.3445
20.576	66.2854
20.594	66.2191
20.612	66.1469
20.63	66.0724
20.648	65.9947
20.666	65.9181
20.684	65.8424
20.702	65.7698
20.72	65.7022
20.738	65.6393
20.756	65.5836
20.774	65.5345
20.792	65.4936
20.81	65.4614
20.828	65.4374
20.846	65.4221
20.864	65.4153
20.882	65.416
20.9	65.4246
20.918	65.4395
20.936	65.4598
20.954	65.4852
20.972	65.513
20.99	65.5439
21.008	65.5751
21.026	65.6058
21.044	65.6354
21.062	65.6613
21.08	65.684
21.098	65.7015
21.116	65.7132
21.134	65.719
21.152	65.7175
21.17	65.7091
21.188	65.6941
21.206	65.672
21.224	65.6438
21.242	65.6108
21.26	65.5724
21.278	65.5316
21.296	65.4884
21.314	65.4439
21.332	65.4013
21.35	65.3594
21.368	65.3213
21.386	65.2876
21.404	65.2586
21.422	65.2364
21.44	65.2206
21.458	65.2115
21.476	65.2097
21.494	65.2146
21.512	65.2258
21.53	65.2435
21.548	65.2664
21.566	65.2933
21.584	65.3245
21.602	65.3581
21.62	65.3943
21.638	65.4322
21.656	65.4703
21.674	65.5091
21.692	65.5482
21.71	65.5872
21.728	65.6267
21.746	65.6674
21.764	65.7085
21.782	65.752
21.8	65.7988
21.818	65.8484
21.836	65.9033
21.854	65.9636
21.872	66.0296
21.89	66.1031
21.908	66.1837
21.926	66.2718
21.944	66.3681
21.962	66.4722
21.98	66.5824
21.998	66.6996
22.016	66.8221
22.034	66.9469
22.052	67.0758
22.07	67.2043
22.088	67.3297
22.106	67.4533
22.124	67.5693
22.142	67.6771
22.16	67.7763
22.178	67.861
22.196	67.9327
22.214	67.9894
22.232	68.0276
22.25	68.0488
22.268	68.0519
22.286	68.0358
22.304	68.0013
22.322	67.9506
22.34	67.8826
22.358	67.7993
22.376	67.7051
22.394	67.5983
22.412	67.4826
22.43	67.3636
22.448	67.2384
22.466	67.1128
22.484	66.9914
22.502	66.8715
22.52	66.7591
22.538	66.6568
22.556	66.563
22.574	66.4823
22.592	66.4154
22.61	66.3618
22.628	66.3232
22.646	66.2999
22.664	66.2911
22.682	66.296
22.7	66.3157
22.718	66.3479
22.736	66.3906
22.754	66.4453
22.772	66.5083
22.79	66.5765
22.808	66.6519
22.826	66.7301
22.844	66.8084
22.862	66.8885
22.88	66.9669
22.898	67.0421
22.916	67.1151
22.934	67.1841
22.952	67.2482
22.97	67.308
22.988	67.3629
23.006	67.4125
23.024	67.4572
23.042	67.4974
23.06	67.533
23.078	67.5643
23.096	67.5922
23.114	67.6166
23.132	67.6377
23.15	67.6563
23.168	67.6724
23.186	67.686
23.204	67.697
23.222	67.706
23.24	67.7123
23.258	67.7154
23.276	67.715
23.294	67.7114
23.312	67.7044
23.33	67.6944
23.348	67.6808
23.366	67.6624
23.384	67.6396
23.402	67.6121
23.42	67.578
23.438	67.5376
23.456	67.4906
23.474	67.4352
23.492	67.371
23.51	67.2983
23.528	67.2169
23.546	67.1264
23.564	67.0273
23.582	66.9188
23.6	66.8012
23.618	66.6744
23.636	66.5379
23.654	66.3909
23.672	66.2336
23.69	66.0679
23.708	65.8945
23.726	65.7119
23.744	65.5243
23.762	65.335
23.78	65.1408
23.798	64.9467
23.816	64.7582
23.834	64.5717
23.852	64.3912
23.87	64.223
23.888	64.0645
23.906	63.9178
23.924	63.7892
23.942	63.6788
23.96	63.5855
23.978	63.5132
23.996	63.4637
24.014	63.4353
24.032	63.4274
24.05	63.4405
24.068	63.4756
24.086	63.5275
24.104	63.5919
24.122	63.6743
24.14	63.7664
24.158	63.8574
24.176	63.9532
24.194	64.049
24.212	64.1307
24.23	64.1978
24.248	64.2533
24.266	64.2838
24.284	64.2817
24.302	64.2541
24.32	64.1937
24.338	64.0931
24.356	63.9552
24.374	63.78
24.392	63.565
24.41	63.3077
24.428	63.0116
24.446	62.6826
24.464	62.3204
24.482	61.9219
24.5	61.5022
24.518	61.0729
24.536	60.6227
24.554	60.1646
24.572	59.7171
24.59	59.2743
24.608	58.8379
24.626	58.4253
24.644	58.0449
24.662	57.6876
24.68	57.3624
24.698	57.0781
24.716	56.8319
24.734	56.6225
24.752	56.4509
24.77	56.3213
24.788	56.2307
24.806	56.1686
24.824	56.129
24.842	56.1212
24.86	56.1313
24.878	56.1425
24.896	56.1642
24.914	56.1917
24.932	56.2026
24.95	56.1861
24.968	56.1564
24.986	56.0962
25.004	55.9874
25.022	55.8391
25.04	55.6479
25.058	55.3983
25.076	55.0833
25.094	54.7116
25.112	54.2761
25.13	53.7688
25.148	53.1902
25.166	52.5438
25.184	51.8316
25.202	51.0519
25.22	50.2021
25.238	49.2945
25.256	48.3411
25.274	47.3326
25.292	46.2749
25.31	45.1865
25.328	44.0767
25.346	42.9322
25.364	41.7687
25.382	40.6042
25.4	39.4289
25.418	38.2448
25.436	37.0773
25.454	35.9441
25.472	34.8251
25.49	33.7374
25.508	32.706
25.526	31.7324
25.544	30.8048
25.562	29.9476
25.58	29.1838
25.598	28.4975
25.616	27.8951
25.634	27.3986
25.652	27.0292
25.67	26.7843
25.688	26.6373
25.706	26.5612
25.724	26.5669
25.742	26.6606
25.76	26.7942
25.778	26.924
25.796	27.0806
25.814	27.2515
25.832	27.3951
25.85	27.4836
25.868	27.5448
25.886	27.5638
25.904	27.5186
25.922	27.3677
25.94	27.1196
25.958	26.8658
25.976	26.6963
25.994	26.5545
26.012	26.4495
26.03	26.4932
26.048	26.7843
26.066	27.2656
26.084	27.9413
26.102	28.8529
26.12	30.0344
26.138	31.4711
26.156	33.1418
26.174	35.0277
26.192	37.1851
26.21	39.6564
26.228	42.2308
26.246	44.6913
26.264	47.0709
26.282	49.4521
26.3	51.6324
26.318	53.4131
26.336	54.8206
26.354	55.9169
26.372	56.6633
26.39	57.0205
26.408	56.9592
26.426	56.5331
26.444	55.8127
26.462	54.8281
26.48	53.3523
26.498	51.6415
26.516	50.0688
26.534	48.902
26.552	47.8332
26.57	47.0284
26.588	46.759
26.606	47.2357
26.624	48.3299
26.642	49.9752
26.66	52.1295
26.678	54.8184
26.696	58.1548
26.714	61.9138
26.732	65.8446
26.75	69.9494
26.768	74.5935
26.786	79.1751
26.804	83.0282
26.822	85.8354
26.84	88.1124
26.858	89.5441
26.876	89.7513
26.894	88.4616
26.912	85.8633
26.93	82.1079
26.948	77.3321
26.966	71.1026
26.984	62.5711
27.002	53.6977
27.02	46.6206
27.028	44.8045