File: Bakgrunnsmateriale/MATLAB/FTIR/ftir_data/subCa/Mapping_25/BZ12041010-4_t16.asc
PE IR       SPECTRUM    SPECTRUM    ASCII       PEDS        1.60
  -1
BZ3AB6~1.ASC
17/04/10
10:13:56.00
17/04/10
10:14:23.00
tln
$BZ12041010-4_t0016$<tbV0>[5.2,-4.6,9.0,0.0,22,1,0]
27.028
64

2002,4.07
MIRTGS : RIGHTBACK : INTERNAL 2
MIR : ON : INTERNAL 2
OPTKBR

0.200000
8
8.000000
FILLER
RATIO
SPECTRUM
UNLOCKED 256

DOUBLE
64
COMBINED
1
0
0

0.002000
RATIO

1
0
TRUE
51149
0
LEFT NOT FITTED RIGHT NOT FITTED 0
NONE
NONE
15600
12
4.427000
51148
TRUE
1 0 8 72 0 0 0 0

15798

#HDR
-1
-1
#GR
µM
%T
2.38419e-05
0.0
2.000000
0.002000
12515
8
80.2769
3.405593
#DATA
2.000000	 64.9091
2.018000	 64.829
2.036000	 65.0196
2.054000	 63.6524
2.072000	 65.1017
2.090000	 64.6626
2.108000	 65.3903
2.126000	 64.9625
2.144000	 64.9966
2.162000	 64.8584
2.180000	 64.5905
2.198000	 64.7864
2.216000	 64.6291
2.234000	 65.029
2.252000	 63.2895
2.270000	 63.5651
2.288000	 64.3452
2.306000	 64.7354
2.324000	 64.9556
2.342000	 64.8281
2.360000	 65.0379
2.378000	 64.8984
2.396000	 65.2854
2.414000	 65.2965
2.432000	 65.013
2.450000	 65.3689
2.468000	 65.3394
2.486000	 64.8081
2.504000	 65.0983
2.522000	 64.8721
2.540000	 65.0663
2.558000	 65.1619
2.576000	 65.3027
2.594000	 65.186
2.612000	 65.0751
2.630000	 65.0714
2.648000	 65.2561
2.666000	 65.2601
2.684000	 65.1819
2.702000	 65.2019
2.720000	 65.2928
2.738000	 65.1526
2.756000	 65.262
2.774000	 65.1103
2.792000	 65.2667
2.810000	 65.1617
2.828000	 64.9842
2.846000	 65.0476
2.864000	 65.0401
2.882000	 64.9753
2.900000	 65.0685
2.918000	 65.1929
2.936000	 65.2319
2.954000	 65.2597
2.972000	 65.1263
2.990000	 65.377
3.008000	 65.1207
3.026000	 65.1932
3.044000	 65.1846
3.062000	 65.0331
3.080000	 65.3604
3.098000	 65.2717
3.116000	 65.1585
3.134000	 65.267
3.152000	 65.1404
3.170000	 64.9534
3.188000	 65.0929
3.206000	 65.0638
3.224000	 65.1359
3.242000	 65.0821
3.260000	 65.1791
3.278000	 65.218
3.296000	 65.2994
3.314000	 65.0665
3.332000	 65.002
3.350000	 65.2224
3.368000	 65.2041
3.386000	 65.1833
3.404000	 65.0027
3.422000	 64.9717
3.440000	 65.2206
3.458000	 65.1402
3.476000	 65.007
3.494000	 65.2036
3.512000	 65.0439
3.530000	 65.0914
3.548000	 65.1145
3.566000	 65.1547
3.584000	 65.2441
3.602000	 65.3296
3.620000	 65.2204
3.638000	 65.2813
3.656000	 65.2643
3.674000	 65.3152
3.692000	 65.1787
3.710000	 65.1555
3.728000	 65.1332
3.746000	 65.267
3.764000	 65.1306
3.782000	 65.0426
3.800000	 65.1692
3.818000	 65.1246
3.836000	 65.2218
3.854000	 65.1392
3.872000	 65.1049
3.890000	 65.2184
3.908000	 65.1697
3.926000	 65.2373
3.944000	 65.2949
3.962000	 65.2183
3.980000	 65.1607
3.998000	 65.2507
4.016000	 65.3424
4.034000	 65.3225
4.052000	 65.0995
4.070000	 65.3106
4.088000	 65.2326
4.106000	 65.2749
4.124000	 65.2184
4.141999	 65.3045
4.160000	 65.2721
4.178000	 65.2939
4.196000	 65.1361
4.214000	 65.1431
4.232000	 65.2331
4.250000	 65.1882
4.268000	 65.2493
4.286000	 65.2416
4.304000	 65.1907
4.322000	 65.2312
4.340000	 65.2591
4.358000	 65.1567
4.375999	 65.1852
4.394000	 65.2043
4.412000	 65.3176
4.430000	 65.1821
4.448000	 65.2319
4.466000	 65.2975
4.484000	 65.2289
4.502000	 65.2164
4.520000	 65.2029
4.538000	 65.1742
4.556000	 65.143
4.574000	 65.0672
4.592000	 65.0827
4.609999	 65.2191
4.628000	 65.2009
4.646000	 65.1615
4.664000	 65.1802
4.682000	 65.175
4.700000	 65.1535
4.718000	 65.2125
4.736000	 65.2494
4.754000	 65.2146
4.772000	 65.2071
4.790000	 65.1535
4.808000	 65.064
4.826000	 65.1953
4.843999	 65.198
4.862000	 65.2356
4.880000	 65.175
4.898000	 65.2116
4.916000	 65.2222
4.934000	 65.1875
4.952000	 65.1766
4.970000	 65.1224
4.988000	 65.1767
5.006000	 65.1219
5.024000	 65.1985
5.042000	 65.3315
5.060000	 65.3586
5.077999	 65.2922
5.096000	 65.1805
5.114000	 65.2193
5.132000	 65.291
5.150000	 65.1811
5.168000	 65.227
5.186000	 65.2312
5.204000	 65.2523
5.222000	 65.2681
5.240000	 65.2559
5.258000	 65.2151
5.276000	 65.1742
5.294000	 65.2665
5.312000	 65.253
5.330000	 65.2084
5.348000	 65.1849
5.366000	 65.2252
5.384000	 65.1965
5.402000	 65.2449
5.420000	 65.248
5.438000	 65.2036
5.456000	 65.2022
5.474000	 65.2783
5.492000	 65.2369
5.510000	 65.2278
5.528000	 65.2446
5.546000	 65.2413
5.564000	 65.2927
5.582000	 65.2778
5.600000	 65.2167
5.618000	 65.264
5.636000	 65.2856
5.654000	 65.312
5.672000	 65.3157
5.690000	 65.2361
5.708000	 65.2007
5.726000	 65.0467
5.744000	 65.0308
5.762000	 65.094
5.780000	 65.0668
5.798000	 65.0489
5.816000	 65.0787
5.834000	 65.0896
5.852000	 65.1368
5.870000	 65.2017
5.888000	 65.2284
5.906000	 65.1403
5.923999	 65.1464
5.942000	 65.1248
5.960000	 65.1385
5.978000	 65.206
5.996000	 65.1913
6.014000	 65.0976
6.032000	 65.0648
6.050000	 65.0941
6.068000	 65.0836
6.086000	 65.0288
6.104000	 65.1026
6.122000	 65.1814
6.140000	 65.1747
6.158000	 65.1704
6.176000	 65.2192
6.194000	 65.1995
6.212000	 65.1944
6.230000	 65.22
6.248000	 65.1504
6.266000	 65.0969
6.284000	 65.0979
6.302000	 65.1099
6.320000	 65.1175
6.338000	 65.0568
6.356000	 65.0423
6.374000	 65.0875
6.392000	 65.0892
6.410000	 65.1153
6.428000	 65.1676
6.446000	 65.2253
6.464000	 65.1857
6.482000	 65.0869
6.500000	 65.0898
6.518000	 65.1405
6.536000	 65.1109
6.554000	 65.063
6.572000	 65.1132
6.590000	 65.1545
6.608000	 65.1256
6.626000	 65.1341
6.644000	 65.1579
6.662000	 65.1638
6.680000	 65.2268
6.698000	 65.3014
6.716000	 65.274
6.734000	 65.1702
6.752000	 65.0679
6.770000	 65.0598
6.788000	 65.1552
6.806000	 65.2411
6.824000	 65.2495
6.842000	 65.1797
6.860000	 65.0777
6.878000	 65.0235
6.896000	 65.0484
6.914000	 65.1125
6.932000	 65.1654
6.950000	 65.2065
6.968000	 65.2234
6.986000	 65.1947
7.004000	 65.1308
7.022000	 65.0472
7.040000	 65.0059
7.058000	 65.0366
7.076000	 65.0671
7.094000	 65.069
7.112000	 65.1048
7.130000	 65.1649
7.148000	 65.1658
7.166000	 65.1359
7.184000	 65.1459
7.202000	 65.1434
7.220000	 65.1091
7.238000	 65.1213
7.256000	 65.1577
7.274000	 65.1284
7.292000	 65.0544
7.310000	 65.0213
7.328000	 65.0569
7.346000	 65.1097
7.364000	 65.1159
7.382000	 65.0803
7.400000	 65.0501
7.418000	 65.0523
7.436000	 65.0867
7.454000	 65.1215
7.472000	 65.1181
7.490000	 65.0928
7.508000	 65.0887
7.526000	 65.1054
7.544000	 65.1118
7.562000	 65.0877
7.580000	 65.0474
7.598000	 65.0343
7.616000	 65.0589
7.634000	 65.0794
7.652000	 65.0707
7.670000	 65.0569
7.688000	 65.0555
7.706000	 65.0571
7.724000	 65.0655
7.742000	 65.0949
7.760000	 65.1298
7.778000	 65.1354
7.796000	 65.1082
7.814000	 65.0844
7.832000	 65.085
7.850000	 65.0902
7.868000	 65.0878
7.886000	 65.101
7.904000	 65.1305
7.922000	 65.1301
7.940000	 65.0805
7.958000	 65.0265
7.976000	 65.0122
7.994000	 65.0321
8.012000	 65.0579
8.030000	 65.0682
8.048000	 65.0601
8.065999	 65.0537
8.084000	 65.0713
8.102000	 65.1141
8.120000	 65.1608
8.138000	 65.1819
8.155999	 65.1583
8.173999	 65.1034
8.192000	 65.0577
8.210000	 65.0461
8.228000	 65.0596
8.246000	 65.0794
8.263999	 65.0941
8.282000	 65.0949
8.300000	 65.0778
8.318000	 65.0539
8.336000	 65.039
8.353999	 65.0298
8.372000	 65.0113
8.390000	 64.9863
8.408000	 64.9785
8.426000	 65
8.443999	 65.0331
8.462000	 65.058
8.480000	 65.0762
8.498000	 65.0956
8.516000	 65.1082
8.533999	 65.1018
8.552000	 65.0816
8.570000	 65.0643
8.588000	 65.0581
8.606000	 65.0608
8.624000	 65.0666
8.641999	 65.064
8.660000	 65.0425
8.678000	 65.0082
8.696000	 64.9831
8.714000	 64.9843
8.731999	 65.0103
8.750000	 65.0465
8.768000	 65.0801
8.786000	 65.107
8.804000	 65.1283
8.821999	 65.1449
8.840000	 65.1506
8.858000	 65.1359
8.876000	 65.0998
8.894000	 65.0527
8.911999	 65.0086
8.930000	 64.978
8.948000	 64.9686
8.966000	 64.9846
8.984000	 65.0261
9.001999	 65.0839
9.020000	 65.1362
9.038000	 65.1561
9.056000	 65.1334
9.074000	 65.0811
9.092000	 65.0221
9.109999	 64.9708
9.128000	 64.9317
9.146000	 64.905
9.164000	 64.8934
9.182000	 64.9011
9.199999	 64.9271
9.218000	 64.9577
9.236000	 64.9691
9.254000	 64.9417
9.272000	 64.8782
9.289999	 64.8074
9.308000	 64.7698
9.326000	 64.7907
9.344000	 64.8628
9.362000	 64.9531
9.379999	 65.0275
9.398000	 65.0707
9.416000	 65.086
9.434000	 65.082
9.452000	 65.0633
9.469999	 65.0307
9.488000	 64.9884
9.506000	 64.9483
9.524000	 64.9262
9.542000	 64.9337
9.560000	 64.9716
9.577999	 65.0273
9.596000	 65.0811
9.614000	 65.1154
9.632000	 65.1235
9.650000	 65.1106
9.667999	 65.0868
9.686000	 65.0618
9.704000	 65.0417
9.722000	 65.0289
9.740000	 65.0227
9.757999	 65.0171
9.776000	 65.0053
9.794000	 64.9867
9.812000	 64.9731
9.830000	 64.9832
9.847999	 65.0288
9.866000	 65.1049
9.884000	 65.1925
9.902000	 65.2678
9.920000	 65.3133
9.937999	 65.3212
9.956000	 65.2924
9.974000	 65.2344
9.992000	 65.161
10.01	65.0898
10.028	65.037
10.046	65.0103
10.064	65.0069
10.082	65.0158
10.1	65.0232
10.118	65.0187
10.136	64.9994
10.154	64.9706
10.172	64.9443
10.19	64.9339
10.208	64.9478
10.226	64.9859
10.244	65.039
10.262	65.093
10.28	65.1351
10.298	65.1565
10.316	65.1552
10.334	65.1362
10.352	65.1098
10.37	65.0894
10.388	65.0865
10.406	65.106
10.424	65.1454
10.442	65.1965
10.46	65.2498
10.478	65.2971
10.496	65.3329
10.514	65.3536
10.532	65.358
10.55	65.3467
10.568	65.3239
10.586	65.2952
10.604	65.2653
10.622	65.2351
10.64	65.2018
10.658	65.1621
10.676	65.117
10.694	65.0744
10.712	65.0467
10.73	65.0443
10.748	65.0695
10.766	65.1137
10.784	65.1617
10.802	65.1978
10.82	65.2154
10.838	65.2165
10.856	65.209
10.874	65.2004
10.892	65.1932
10.91	65.1849
10.928	65.1721
10.946	65.1527
10.964	65.1287
10.982	65.1052
11	65.0885
11.018	65.0843
11.036	65.0949
11.054	65.1178
11.072	65.1464
11.09	65.1708
11.108	65.1821
11.126	65.1764
11.144	65.1575
11.162	65.1355
11.18	65.1213
11.198	65.1206
11.216	65.1306
11.234	65.1425
11.252	65.1461
11.27	65.1364
11.288	65.1162
11.306	65.0944
11.324	65.0829
11.342	65.091
11.36	65.1216
11.378	65.1704
11.396	65.228
11.414	65.2831
11.432	65.3261
11.45	65.3516
11.468	65.3591
11.486	65.3517
11.504	65.3345
11.522	65.313
11.54	65.2906
11.558	65.2689
11.576	65.2475
11.594	65.2246
11.612	65.1994
11.63	65.1717
11.648	65.1432
11.666	65.1171
11.684	65.0981
11.702	65.0908
11.72	65.0987
11.738	65.1228
11.756	65.1606
11.774	65.2061
11.792	65.2511
11.81	65.2877
11.828	65.3095
11.846	65.3138
11.864	65.3023
11.882	65.2797
11.9	65.2534
11.918	65.2314
11.936	65.2211
11.954	65.2274
11.972	65.2533
11.99	65.2984
12.008	65.3594
12.026	65.4297
12.044	65.5002
12.062	65.5604
12.08	65.6007
12.098	65.6139
12.116	65.5976
12.134	65.5551
12.152	65.4949
12.17	65.428
12.188	65.3665
12.206	65.3198
12.224	65.2934
12.242	65.2881
12.26	65.3011
12.278	65.3266
12.296	65.3584
12.314	65.3904
12.332	65.4189
12.35	65.4423
12.368	65.4612
12.386	65.4773
12.404	65.4922
12.422	65.5051
12.44	65.5132
12.458	65.5118
12.476	65.496
12.494	65.4623
12.512	65.4102
12.53	65.3436
12.548	65.2699
12.566	65.1986
12.584	65.1398
12.602	65.1022
12.62	65.0908
12.638	65.1059
12.656	65.1434
12.674	65.1957
12.692	65.2539
12.71	65.3101
12.728	65.3583
12.746	65.396
12.764	65.4233
12.782	65.442
12.8	65.4544
12.818	65.4628
12.836	65.4687
12.854	65.4729
12.872	65.4765
12.89	65.4801
12.908	65.4843
12.926	65.4891
12.944	65.4941
12.962	65.4982
12.98	65.4997
12.998	65.497
13.016	65.4887
13.034	65.4746
13.052	65.4554
13.07	65.4327
13.088	65.4081
13.106	65.3831
13.124	65.3587
13.142	65.3361
13.16	65.3165
13.178	65.3015
13.196	65.2936
13.214	65.2953
13.232	65.3089
13.25	65.3354
13.268	65.3732
13.286	65.4186
13.304	65.4662
13.322	65.5096
13.34	65.5429
13.358	65.5619
13.376	65.565
13.394	65.553
13.412	65.5292
13.43	65.4975
13.448	65.462
13.466	65.4256
13.484	65.3902
13.502	65.3568
13.52	65.3258
13.538	65.2984
13.556	65.2758
13.574	65.2602
13.592	65.2537
13.61	65.2575
13.628	65.2716
13.646	65.2937
13.664	65.3203
13.682	65.3464
13.7	65.3672
13.718	65.379
13.736	65.3802
13.754	65.3718
13.772	65.3571
13.79	65.3407
13.808	65.3274
13.826	65.3211
13.844	65.3238
13.862	65.335
13.88	65.3521
13.898	65.3711
13.916	65.3877
13.934	65.3979
13.952	65.3997
13.97	65.3929
13.988	65.3792
14.006	65.3616
14.024	65.3439
14.042	65.3294
14.06	65.3209
14.078	65.3194
14.096	65.3249
14.114	65.3361
14.132	65.3511
14.15	65.3678
14.168	65.3838
14.186	65.3971
14.204	65.4062
14.222	65.4101
14.24	65.4084
14.258	65.4011
14.276	65.3888
14.294	65.3723
14.312	65.3528
14.33	65.3319
14.348	65.3112
14.366	65.2922
14.384	65.2762
14.402	65.2641
14.42	65.2565
14.438	65.2538
14.456	65.2557
14.474	65.2624
14.492	65.2738
14.51	65.29
14.528	65.3113
14.546	65.3378
14.564	65.3691
14.582	65.4044
14.6	65.4424
14.618	65.4811
14.636	65.5182
14.654	65.5514
14.672	65.5788
14.69	65.599
14.708	65.6111
14.726	65.615
14.744	65.6114
14.762	65.6015
14.78	65.5868
14.798	65.5684
14.816	65.5478
14.834	65.5257
14.852	65.5031
14.87	65.4802
14.888	65.4575
14.906	65.4353
14.924	65.4139
14.942	65.394
14.96	65.3764
14.978	65.3619
14.996	65.351
15.014	65.3447
15.032	65.3435
15.05	65.3478
15.068	65.358
15.086	65.374
15.104	65.3959
15.122	65.4231
15.14	65.4545
15.158	65.4884
15.176	65.5229
15.194	65.5551
15.212	65.5815
15.23	65.5991
15.248	65.6052
15.266	65.5979
15.284	65.5758
15.302	65.5399
15.32	65.4924
15.338	65.4362
15.356	65.3762
15.374	65.3182
15.392	65.2671
15.41	65.2274
15.428	65.2029
15.446	65.1958
15.464	65.2059
15.482	65.2317
15.5	65.2706
15.518	65.3177
15.536	65.3684
15.554	65.4188
15.572	65.4644
15.59	65.5023
15.608	65.5311
15.626	65.5505
15.644	65.5613
15.662	65.566
15.68	65.5667
15.698	65.566
15.716	65.5666
15.734	65.5703
15.752	65.5779
15.77	65.5899
15.788	65.6058
15.806	65.6243
15.824	65.6441
15.842	65.6635
15.86	65.6809
15.878	65.6953
15.896	65.706
15.914	65.7132
15.932	65.7176
15.95	65.7198
15.968	65.7209
15.986	65.7227
16.004	65.7257
16.022	65.7311
16.04	65.7392
16.058	65.7497
16.076	65.762
16.094	65.7749
16.112	65.7865
16.13	65.7955
16.148	65.8001
16.166	65.799
16.184	65.7913
16.202	65.7765
16.22	65.7549
16.238	65.7274
16.256	65.6951
16.274	65.6604
16.292	65.6253
16.31	65.5917
16.328	65.5622
16.346	65.538
16.364	65.5203
16.382	65.5096
16.4	65.5052
16.418	65.5067
16.436	65.5118
16.454	65.5185
16.472	65.525
16.49	65.5285
16.508	65.5271
16.526	65.5198
16.544	65.5052
16.562	65.4832
16.58	65.454
16.598	65.4183
16.616	65.3771
16.634	65.3316
16.652	65.2832
16.67	65.2332
16.688	65.1828
16.706	65.1338
16.724	65.0873
16.742	65.0444
16.76	65.0068
16.778	64.9754
16.796	64.9514
16.814	64.9355
16.832	64.928
16.85	64.9293
16.868	64.9387
16.886	64.9558
16.904	64.9792
16.922	65.0076
16.94	65.0395
16.958	65.0727
16.976	65.1062
16.994	65.1376
17.012	65.166
17.03	65.1904
17.048	65.2098
17.066	65.224
17.084	65.2327
17.102	65.2364
17.12	65.2351
17.138	65.2297
17.156	65.2204
17.174	65.2077
17.192	65.1923
17.21	65.1746
17.228	65.1552
17.246	65.1346
17.264	65.1133
17.282	65.0922
17.3	65.0719
17.318	65.0534
17.336	65.0378
17.354	65.0258
17.372	65.0187
17.39	65.0167
17.408	65.0206
17.426	65.03
17.444	65.0449
17.462	65.0645
17.48	65.0883
17.498	65.1149
17.516	65.1431
17.534	65.1721
17.552	65.2003
17.57	65.2273
17.588	65.2519
17.606	65.2739
17.624	65.2928
17.642	65.3087
17.66	65.3214
17.678	65.3316
17.696	65.3394
17.714	65.3454
17.732	65.3499
17.75	65.3533
17.768	65.3556
17.786	65.3569
17.804	65.3575
17.822	65.3572
17.84	65.3558
17.858	65.3532
17.876	65.3492
17.894	65.3437
17.912	65.3366
17.93	65.3277
17.948	65.317
17.966	65.3048
17.984	65.2915
18.002	65.2775
18.02	65.2635
18.038	65.2501
18.056	65.2382
18.074	65.2283
18.092	65.2217
18.11	65.2188
18.128	65.2208
18.146	65.228
18.164	65.2413
18.182	65.2608
18.2	65.2868
18.218	65.3186
18.236	65.356
18.254	65.3973
18.272	65.4421
18.29	65.4876
18.308	65.5334
18.326	65.5764
18.344	65.6162
18.362	65.6496
18.38	65.6766
18.398	65.6952
18.416	65.7056
18.434	65.707
18.452	65.7009
18.47	65.6872
18.488	65.6687
18.506	65.6457
18.524	65.622
18.542	65.5981
18.56	65.578
18.578	65.5622
18.596	65.5539
18.614	65.553
18.632	65.5615
18.65	65.579
18.668	65.605
18.686	65.6389
18.704	65.6785
18.722	65.7228
18.74	65.7681
18.758	65.8134
18.776	65.8547
18.794	65.8913
18.812	65.9193
18.83	65.9384
18.848	65.946
18.866	65.9423
18.884	65.926
18.902	65.8982
18.92	65.8592
18.938	65.8104
18.956	65.7536
18.974	65.6905
18.992	65.6235
19.01	65.5547
19.028	65.487
19.046	65.4222
19.064	65.3633
19.082	65.3113
19.1	65.2692
19.118	65.2374
19.136	65.2178
19.154	65.2103
19.172	65.2158
19.19	65.2336
19.208	65.2634
19.226	65.3044
19.244	65.3546
19.262	65.4137
19.28	65.4787
19.298	65.5494
19.316	65.6223
19.334	65.6973
19.352	65.7715
19.37	65.845
19.388	65.9152
19.406	65.9821
19.424	66.0447
19.442	66.1027
19.46	66.1564
19.478	66.2054
19.496	66.2507
19.514	66.2922
19.532	66.3308
19.55	66.3673
19.568	66.4018
19.586	66.4348
19.604	66.4663
19.622	66.4964
19.64	66.5247
19.658	66.5503
19.676	66.573
19.694	66.591
19.712	66.6048
19.73	66.6118
19.748	66.6121
19.766	66.6041
19.784	66.5876
19.802	66.5621
19.82	66.5269
19.838	66.4829
19.856	66.4304
19.874	66.3699
19.892	66.3034
19.91	66.2309
19.928	66.1558
19.946	66.0777
19.964	66.0002
19.982	65.9236
20	65.8503
20.018	65.7816
20.036	65.7182
20.054	65.6622
20.072	65.6135
20.09	65.5734
20.108	65.5419
20.126	65.519
20.144	65.5051
20.162	65.4991
20.18	65.5012
20.198	65.5102
20.216	65.525
20.234	65.5456
20.252	65.5697
20.27	65.5978
20.288	65.6272
20.306	65.6581
20.324	65.6891
20.342	65.7192
20.36	65.7482
20.378	65.7744
20.396	65.7981
20.414	65.8186
20.432	65.8357
20.45	65.8493
20.468	65.859
20.486	65.8652
20.504	65.8682
20.522	65.868
20.54	65.8656
20.558	65.8608
20.576	65.8547
20.594	65.8479
20.612	65.8406
20.63	65.8342
20.648	65.8283
20.666	65.8243
20.684	65.822
20.702	65.8222
20.72	65.8253
20.738	65.8312
20.756	65.8402
20.774	65.8523
20.792	65.867
20.81	65.8846
20.828	65.9045
20.846	65.926
20.864	65.9493
20.882	65.9731
20.9	65.9977
20.918	66.0221
20.936	66.0456
20.954	66.0684
20.972	66.0892
20.99	66.1084
21.008	66.1251
21.026	66.1392
21.044	66.1504
21.062	66.1584
21.08	66.1633
21.098	66.1647
21.116	66.1627
21.134	66.1571
21.152	66.148
21.17	66.1352
21.188	66.1191
21.206	66.0996
21.224	66.0769
21.242	66.0514
21.26	66.0228
21.278	65.9921
21.296	65.9591
21.314	65.9243
21.332	65.8886
21.35	65.8515
21.368	65.8144
21.386	65.7772
21.404	65.7404
21.422	65.7051
21.44	65.6708
21.458	65.6388
21.476	65.6093
21.494	65.5823
21.512	65.559
21.53	65.5391
21.548	65.5232
21.566	65.5119
21.584	65.5049
21.602	65.5029
21.62	65.5058
21.638	65.5136
21.656	65.5263
21.674	65.544
21.692	65.566
21.71	65.5924
21.728	65.6229
21.746	65.6565
21.764	65.6935
21.782	65.7328
21.8	65.7737
21.818	65.8164
21.836	65.8592
21.854	65.902
21.872	65.9443
21.89	65.9847
21.908	66.0236
21.926	66.06
21.944	66.0931
21.962	66.1232
21.98	66.1496
21.998	66.1722
22.016	66.1909
22.034	66.2059
22.052	66.2169
22.07	66.2245
22.088	66.2288
22.106	66.2297
22.124	66.2283
22.142	66.2247
22.16	66.2189
22.178	66.212
22.196	66.2037
22.214	66.1944
22.232	66.1849
22.25	66.1749
22.268	66.1644
22.286	66.1536
22.304	66.1424
22.322	66.1302
22.34	66.1169
22.358	66.1023
22.376	66.0857
22.394	66.0671
22.412	66.0465
22.43	66.0233
22.448	65.9977
22.466	65.9695
22.484	65.938
22.502	65.9036
22.52	65.866
22.538	65.8246
22.556	65.7798
22.574	65.7325
22.592	65.6825
22.61	65.6302
22.628	65.5774
22.646	65.5237
22.664	65.4699
22.682	65.4177
22.7	65.3665
22.718	65.3172
22.736	65.2711
22.754	65.2277
22.772	65.1875
22.79	65.1512
22.808	65.1185
22.826	65.0893
22.844	65.0637
22.862	65.0417
22.88	65.0222
22.898	65.005
22.916	64.9904
22.934	64.9768
22.952	64.9641
22.97	64.9524
22.988	64.9402
23.006	64.927
23.024	64.9131
23.042	64.8977
23.06	64.8803
23.078	64.8613
23.096	64.8414
23.114	64.82
23.132	64.7977
23.15	64.776
23.168	64.7546
23.186	64.7338
23.204	64.7151
23.222	64.6984
23.24	64.6838
23.258	64.6729
23.276	64.6652
23.294	64.6613
23.312	64.6628
23.33	64.67
23.348	64.6824
23.366	64.7002
23.384	64.7244
23.402	64.7536
23.42	64.7856
23.438	64.8208
23.456	64.8586
23.474	64.8957
23.492	64.9322
23.51	64.968
23.528	64.9998
23.546	65.0265
23.564	65.0492
23.582	65.0658
23.6	65.0754
23.618	65.0787
23.636	65.075
23.654	65.063
23.672	65.0428
23.69	65.0184
23.708	64.9917
23.726	64.9597
23.744	64.93
23.762	64.9088
23.78	64.8903
23.798	64.883
23.816	64.8962
23.834	64.9242
23.852	64.9726
23.87	65.051
23.888	65.1561
23.906	65.2898
23.924	65.4598
23.942	65.6669
23.96	65.9092
23.978	66.189
23.996	66.5088
24.014	66.8669
24.032	67.2587
24.05	67.6826
24.068	68.1425
24.086	68.6274
24.104	69.1284
24.122	69.6543
24.14	70.1932
24.158	70.7286
24.176	71.2685
24.194	71.8067
24.212	72.3242
24.23	72.8196
24.248	73.2975
24.266	73.7407
24.284	74.14
24.302	74.5044
24.32	74.8237
24.338	75.0878
24.356	75.3
24.374	75.4615
24.392	75.5708
24.41	75.6257
24.428	75.6293
24.446	75.5871
24.464	75.4996
24.482	75.3641
24.5	75.1916
24.518	74.9907
24.536	74.7542
24.554	74.4896
24.572	74.2077
24.59	73.9055
24.608	73.5839
24.626	73.2523
24.644	72.916
24.662	72.5703
24.68	72.2181
24.698	71.8627
24.716	71.5037
24.734	71.1398
24.752	70.7694
24.77	70.3946
24.788	70.0146
24.806	69.6234
24.824	69.2174
24.842	68.8011
24.86	68.369
24.878	67.9145
24.896	67.4392
24.914	66.9435
24.932	66.4228
24.95	65.8729
24.968	65.295
24.986	64.6948
25.004	64.0778
25.022	63.4399
25.04	62.7841
25.058	62.1181
25.076	61.4454
25.094	60.7619
25.112	60.0717
25.13	59.3792
25.148	58.6801
25.166	57.9778
25.184	57.2793
25.202	56.5864
25.22	55.8935
25.238	55.2119
25.256	54.553
25.274	53.9147
25.292	53.295
25.31	52.6965
25.328	52.1225
25.346	51.5729
25.364	51.0422
25.382	50.5249
25.4	50.0278
25.418	49.5472
25.436	49.0673
25.454	48.5774
25.472	48.0938
25.49	47.5989
25.508	47.0688
25.526	46.493
25.544	45.8835
25.562	45.2424
25.58	44.5704
25.598	43.8542
25.616	43.1086
25.634	42.3595
25.652	41.6205
25.67	40.871
25.688	40.1326
25.706	39.4316
25.724	38.7662
25.742	38.1268
25.76	37.5373
25.778	37.0205
25.796	36.5734
25.814	36.1875
25.832	35.8588
25.85	35.5886
25.868	35.3876
25.886	35.2343
25.904	35.1037
25.922	34.9825
25.94	34.8834
25.958	34.8126
25.976	34.7755
25.994	34.7709
26.012	34.7975
26.03	34.8577
26.048	34.9546
26.066	35.0926
26.084	35.2639
26.102	35.458
26.12	35.6708
26.138	35.9159
26.156	36.175
26.174	36.4261
26.192	36.6897
26.21	36.9943
26.228	37.2386
26.246	37.3182
26.264	37.24
26.282	37.047
26.3	36.6631
26.318	36.013
26.336	35.0988
26.354	33.9505
26.372	32.5696
26.39	30.954
26.408	29.0638
26.426	26.9422
26.444	24.6614
26.462	22.2652
26.48	19.602
26.498	16.825
26.516	14.1663
26.534	11.7891
26.552	9.489851
26.57	7.391219
26.588	5.685967
26.606	4.513263
26.624	3.757441
26.642	3.420788
26.66	3.530024
26.678	4.118554
26.696	5.194616
26.714	6.690842
26.732	8.535786
26.75	10.7631
26.768	13.52
26.786	16.5087
26.804	19.4039
26.822	22.0408
26.84	24.6583
26.858	27.1348
26.876	29.3196
26.894	31.0783
26.912	32.4525
26.93	33.5933
26.948	34.6523
26.966	35.7571
26.984	36.8597
27.002	37.8463
27.02	38.6051
27.028	38.8155