File: Bakgrunnsmateriale/MATLAB/FTIR/ftir_data/subCa/Mapping_25/BZ12041010-4_t07_cm-1.asc
PE IR       SPECTRUM    SPECTRUM    ASCII       PEDS        1.60
  -1
BZAB75~1.ASC
17/04/10
09:24:22.00
17/04/10
09:24:22.00
tln
$BZ12041010-4_t0007$<tbV0>[2.6,-9.8,9.0,0.0,22,1,0]
370
64

2002,4.07
MIRTGS : RIGHTBACK : INTERNAL 2
MIR : ON : INTERNAL 2
OPTKBR

0.200000
8
8.000000
FILLER
RATIO
SPECTRUM
UNLOCKED 256

DOUBLE
64
COMBINED
1
0
0

1.000000
RATIO

1
0
TRUE
51149
0
LEFT NOT FITTED RIGHT NOT FITTED 0
NONE
NONE
15600
12
4.427000
51148
TRUE
1 0 8 72 0 0 0 0

15798

#HDR
-1
-1
#GR
CM-1
%T
2.38419e-05
0.0
5000
-1.000000
4631
8
120.947
51.9584
#DATA
5000	64.4613
4996	64.3641
4992	64.4149
4988	64.4475
4984	64.4421
4980	64.5089
4976	64.5182
4972	64.6041
4968	64.719
4964	64.5998
4960	64.6209
4956	64.9698
4952	65.0179
4948	64.5458
4944	64.2415
4940	64.3482
4936	64.5106
4932	64.6626
4928	64.7498
4924	64.7508
4920	64.7578
4916	64.6519
4912	64.4504
4908	64.305
4904	64.2342
4900	64.0797
4896	64.0646
4892	64.5058
4888	64.9051
4884	65.1173
4880	65.0581
4876	64.562
4872	64.503
4868	64.932
4864	65.1752
4860	65.2075
4856	64.8268
4852	64.2756
4848	64.6217
4844	64.4873
4840	62.4878
4836	61.4188
4832	62.6129
4828	64.2668
4824	64.8726
4820	64.1827
4816	63.1051
4812	62.5714
4808	62.6287
4804	63.2016
4800	64.3169
4796	65.0175
4792	65.0038
4788	64.9744
4784	64.9256
4780	64.5529
4776	64.1864
4772	64.1863
4768	64.5637
4764	65.0328
4760	65.3461
4756	65.4167
4752	64.9295
4748	64.18
4744	63.9351
4740	64.1462
4736	64.2506
4732	64.1084
4728	64.1045
4724	64.6487
4720	65.3937
4716	65.7467
4712	65.7918
4708	65.6269
4704	64.7881
4700	63.6605
4696	63.2389
4692	63.4022
4688	63.8994
4684	64.3559
4680	64.1866
4676	64.0551
4672	64.5408
4668	64.9053
4664	64.8278
4660	64.6897
4656	64.725
4652	65.0963
4648	65.4191
4644	65.4486
4640	65.2487
4636	64.9112
4632	64.8888
4628	65.1306
4624	65.0576
4620	64.9309
4616	65.1597
4612	65.2802
4608	65.108
4604	64.841
4600	64.5514
4596	64.2617
4592	64.1903
4588	64.4478
4584	64.7772
4580	64.9657
4576	65.0766
4572	65.0744
4568	64.8902
4564	65.0131
4560	65.4523
4556	65.5762
4552	65.5851
4548	65.6164
4544	65.455
4540	65.385
4536	65.3742
4532	65.1891
4528	65.1612
4524	65.444
4520	65.7475
4516	66.0921
4512	66.1864
4508	65.8719
4504	65.8632
4500	65.7364
4496	63.8548
4492	60.7604
4488	59.289
4484	59.4233
4480	59.5908
4476	60.1699
4472	61.5138
4468	63.2776
4464	62.4117
4460	60.4997
4456	62.8837
4452	65.9928
4448	66.2277
4444	65.7956
4440	65.5067
4436	65.605
4432	66.1506
4428	66.2389
4424	65.9359
4420	65.5726
4416	65.2664
4412	65.2319
4408	65.3615
4404	65.4617
4400	65.5707
4396	65.6007
4392	65.5596
4388	65.5998
4384	65.5219
4380	65.4963
4376	65.6859
4372	65.5698
4368	65.2237
4364	65.1265
4360	65.1117
4356	65.0618
4352	64.9972
4348	64.8462
4344	64.9482
4340	65.3672
4336	65.5643
4332	65.3849
4328	65.1149
4324	64.8995
4320	64.7748
4316	64.8679
4312	65.0329
4308	65.0128
4304	65.0606
4300	65.2767
4296	65.2843
4292	64.9505
4288	64.5677
4284	64.4571
4280	64.6126
4276	64.7746
4272	64.7425
4268	64.6398
4264	64.6639
4260	64.6754
4256	64.6369
4252	64.6849
4248	64.7779
4244	64.7835
4240	64.6844
4236	64.6177
4232	64.5523
4228	64.4015
4224	64.3215
4220	64.4782
4216	64.6092
4212	64.5557
4208	64.5064
4204	64.568
4200	64.6853
4196	64.6209
4192	64.4797
4188	64.5177
4184	64.5835
4180	64.5063
4176	64.5608
4172	64.772
4168	64.7536
4164	64.6611
4160	64.7482
4156	64.8213
4152	64.83
4148	64.8792
4144	64.8919
4140	64.8371
4136	64.7848
4132	64.7402
4128	64.7781
4124	64.8182
4120	64.7518
4116	64.8086
4112	65.0421
4108	65.1903
4104	65.1261
4100	64.9262
4096	64.846
4092	64.9055
4088	64.8201
4084	64.8011
4080	64.9522
4076	64.9797
4072	65.0353
4068	65.0317
4064	64.8121
4060	64.774
4056	64.8936
4052	64.8738
4048	64.7517
4044	64.577
4040	64.5336
4036	64.7381
4032	64.9368
4028	65.0335
4024	65.0605
4020	64.9499
4016	64.8021
4012	64.7944
4008	64.8715
4004	64.8981
4000	64.9644
3996	65.095
3992	65.1846
3988	65.175
3984	65.0465
3980	65.0519
3976	65.2126
3972	65.1734
3968	65.0133
3964	64.8996
3960	64.8719
3956	64.9716
3952	65.0341
3948	65.0135
3944	64.9626
3940	64.8929
3936	64.9088
3932	65.0682
3928	65.2183
3924	65.2083
3920	65.0624
3916	64.8997
3912	64.8446
3908	64.9827
3904	65.2578
3900	65.3406
3896	65.2027
3892	65.1558
3888	65.1675
3884	65.1592
3880	65.2275
3876	65.3054
3872	65.2878
3868	65.2051
3864	65.0589
3860	65.0682
3856	65.3891
3852	65.447
3848	65.1456
3844	65.0266
3840	65.1012
3836	65.1777
3832	65.1392
3828	65.0415
3824	65.0816
3820	65.1526
3816	65.0415
3812	64.9552
3808	65.034
3804	65.0715
3800	65.0531
3796	65.0786
3792	65.1159
3788	65.1453
3784	65.1228
3780	65.0538
3776	65.0195
3772	64.9761
3768	64.9243
3764	64.9543
3760	64.9746
3756	64.9721
3752	65.0856
3748	65.2543
3744	65.3618
3740	65.3602
3736	65.2781
3732	65.1511
3728	65.0486
3724	65.0373
3720	65.0395
3716	65.0259
3712	64.9817
3708	64.8705
3704	64.813
3700	64.8818
3696	64.9997
3692	65.108
3688	65.1187
3684	65.0069
3680	64.9621
3676	65.1219
3672	65.2668
3668	65.1662
3664	64.9867
3660	64.9403
3656	65.0168
3652	65.1548
3648	65.2173
3644	65.1704
3640	65.0968
3636	65.0961
3632	65.227
3628	65.2647
3624	65.182
3620	65.1618
3616	65.221
3612	65.2967
3608	65.226
3604	65.0418
3600	64.924
3596	64.8856
3592	64.9175
3588	64.9883
3584	65.0069
3580	65.0305
3576	65.105
3572	65.1671
3568	65.2268
3564	65.2372
3560	65.1558
3556	65.0525
3552	64.9976
3548	64.9796
3544	64.9606
3540	64.9889
3536	65.0983
3532	65.1985
3528	65.171
3524	65.0652
3520	65.029
3516	65.0539
3512	65.0745
3508	65.0816
3504	65.0621
3500	65.0786
3496	65.109
3492	65.1327
3488	65.1659
3484	65.1403
3480	65.0983
3476	65.0341
3472	65.0461
3468	65.2434
3464	65.3084
3460	65.1149
3456	64.9605
3452	64.9668
3448	65.0372
3444	65.0606
3440	65.0228
3436	65.036
3432	65.1145
3428	65.1888
3424	65.2249
3420	65.1721
3416	65.0756
3412	65.0207
3408	64.9435
3404	64.8476
3400	64.8424
3396	64.9169
3392	64.9799
3388	64.9808
3384	64.9978
3380	65.0611
3376	65.0698
3372	65.0582
3368	65.1608
3364	65.2285
3360	65.0922
3356	64.9571
3352	64.8644
3348	64.832
3344	64.981
3340	65.0728
3336	64.9866
3332	64.8816
3328	64.8154
3324	64.8259
3320	64.8568
3316	64.8279
3312	64.828
3308	64.8966
3304	64.9664
3300	64.9855
3296	64.9662
3292	64.9321
3288	64.9022
3284	64.9431
3280	65.0208
3276	64.9883
3272	64.8909
3268	64.9031
3264	65.038
3260	65.1447
3256	65.1352
3252	65.1042
3248	65.0676
3244	65.0295
3240	65.0639
3236	65.0956
3232	65.0088
3228	64.9215
3224	65.0005
3220	65.0883
3216	65.0683
3212	65.0321
3208	65.0316
3204	65.0729
3200	65.1063
3196	65.121
3192	65.095
3188	65.022
3184	64.9954
3180	64.9915
3176	64.9255
3172	64.8943
3168	64.9707
3164	65.0225
3160	65.0096
3156	65.0577
3152	65.1538
3148	65.1906
3144	65.1577
3140	65.0553
3136	64.9492
3132	64.9249
3128	64.9352
3124	64.9487
3120	65.0029
3116	65.0806
3112	65.1331
3108	65.11
3104	65.0602
3100	65.1032
3096	65.1569
3092	65.1255
3088	65.0473
3084	64.9659
3080	64.8885
3076	64.8794
3072	64.969
3068	65.0092
3064	64.9989
3060	65.0523
3056	65.1368
3052	65.1817
3048	65.159
3044	65.0718
3040	64.9755
3036	64.8912
3032	64.8659
3028	64.9108
3024	64.9441
3020	64.9601
3016	64.9406
3012	64.9183
3008	64.9545
3004	65.0125
3000	65.0386
2996	65.0313
2992	65.0102
2988	65.0002
2984	65.0596
2980	65.1679
2976	65.2286
2972	65.1668
2968	65.0325
2964	64.975
2960	65.0442
2956	65.1322
2952	65.1006
2948	65.0181
2944	64.9944
2940	64.9575
2936	64.9212
2932	64.959
2928	65.0253
2924	65.0223
2920	64.9461
2916	64.9314
2912	64.9986
2908	65.064
2904	65.1032
2900	65.1223
2896	65.1289
2892	65.1283
2888	65.1343
2884	65.1664
2880	65.2175
2876	65.2291
2872	65.1457
2868	65.018
2864	64.9707
2860	65.0131
2856	65.0417
2852	65.0515
2848	65.0952
2844	65.0869
2840	65.0082
2836	64.998
2832	65.0529
2828	65.1079
2824	65.1115
2820	65.0712
2816	65.0659
2812	65.0725
2808	65.0466
2804	65.0536
2800	65.1141
2796	65.1227
2792	65.1019
2788	65.1017
2784	65.098
2780	65.0746
2776	65.0375
2772	65.0609
2768	65.1263
2764	65.1405
2760	65.0859
2756	64.9981
2752	65.017
2748	65.1455
2744	65.1818
2740	65.1148
2736	65.0967
2732	65.1323
2728	65.1237
2724	65.09
2720	65.1077
2716	65.1493
2712	65.1336
2708	65.1033
2704	65.1062
2700	65.087
2696	65.0746
2692	65.0607
2688	65.025
2684	65.041
2680	65.0799
2676	65.0918
2672	65.0863
2668	65.1159
2664	65.1942
2660	65.2219
2656	65.1865
2652	65.1485
2648	65.1429
2644	65.146
2640	65.1099
2636	65.097
2632	65.1206
2628	65.0976
2624	65.0552
2620	65.0828
2616	65.1603
2612	65.1821
2608	65.1285
2604	65.1071
2600	65.1556
2596	65.1875
2592	65.1353
2588	65.0817
2584	65.1293
2580	65.1995
2576	65.2012
2572	65.1287
2568	65.0501
2564	65.0609
2560	65.1016
2556	65.0815
2552	65.0815
2548	65.1488
2544	65.1654
2540	65.0979
2536	65.0615
2532	65.0762
2528	65.0957
2524	65.1041
2520	65.0761
2516	65.0541
2512	65.0883
2508	65.1386
2504	65.1611
2500	65.1871
2496	65.1874
2492	65.1465
2488	65.1632
2484	65.1834
2480	65.1572
2476	65.1547
2472	65.1714
2468	65.1373
2464	65.07
2460	65.1028
2456	65.1825
2452	65.159
2448	65.0985
2444	65.1189
2440	65.1625
2436	65.121
2432	65.0885
2428	65.1651
2424	65.2201
2420	65.1772
2416	65.134
2412	65.1421
2408	65.1685
2404	65.1771
2400	65.1655
2396	65.1672
2392	65.1757
2388	65.1576
2384	65.162
2380	65.2141
2376	65.2247
2372	65.199
2368	65.1919
2364	65.1891
2360	65.2193
2356	65.2634
2352	65.2267
2348	65.1294
2344	65.053
2340	65.0302
2336	65.0905
2332	65.1592
2328	65.1576
2324	65.1697
2320	65.2157
2316	65.204
2312	65.1649
2308	65.1653
2304	65.172
2300	65.1661
2296	65.1809
2292	65.214
2288	65.2054
2284	65.1627
2280	65.1673
2276	65.2007
2272	65.1891
2268	65.1493
2264	65.1318
2260	65.1595
2256	65.2216
2252	65.235
2248	65.1667
2244	65.1127
2240	65.1408
2236	65.2103
2232	65.2246
2228	65.2181
2224	65.2723
2220	65.3064
2216	65.2874
2212	65.2388
2208	65.1725
2204	65.1446
2200	65.1375
2196	65.1503
2192	65.1704
2188	65.1499
2184	65.1261
2180	65.1353
2176	65.1877
2172	65.2272
2168	65.1967
2164	65.1516
2160	65.1784
2156	65.2488
2152	65.2589
2148	65.2093
2144	65.1739
2140	65.1839
2136	65.2032
2132	65.2242
2128	65.2203
2124	65.1707
2120	65.1607
2116	65.2067
2112	65.2286
2108	65.2125
2104	65.2323
2100	65.287
2096	65.2896
2092	65.2637
2088	65.2439
2084	65.2066
2080	65.2057
2076	65.231
2072	65.228
2068	65.2554
2064	65.3018
2060	65.2918
2056	65.2427
2052	65.1602
2048	65.086
2044	65.1017
2040	65.1699
2036	65.2201
2032	65.2504
2028	65.2756
2024	65.2833
2020	65.2667
2016	65.2451
2012	65.2462
2008	65.2629
2004	65.2421
2000	65.2006
1996	65.1973
1992	65.2222
1988	65.2138
1984	65.177
1980	65.1756
1976	65.206
1972	65.276
1968	65.3129
1964	65.2327
1960	65.1657
1956	65.2011
1952	65.2522
1948	65.2603
1944	65.2346
1940	65.2337
1936	65.2732
1932	65.2972
1928	65.3081
1924	65.2867
1920	65.1761
1916	65.0618
1912	65.0764
1908	65.159
1904	65.2066
1900	65.2347
1896	65.2616
1892	65.3168
1888	65.3455
1884	65.3201
1880	65.3225
1876	65.3508
1872	65.3684
1868	65.3567
1864	65.2886
1860	65.2204
1856	65.2562
1852	65.3463
1848	65.3587
1844	65.2863
1840	65.2367
1836	65.2612
1832	65.3068
1828	65.3419
1824	65.3466
1820	65.3026
1816	65.2699
1812	65.296
1808	65.3282
1804	65.3301
1800	65.3119
1796	65.3189
1792	65.3496
1788	65.3054
1784	65.239
1780	65.2545
1776	65.3438
1772	65.4324
1768	65.4494
1764	65.4437
1760	65.4067
1756	65.304
1752	65.2181
1748	65.1802
1744	65.1721
1740	65.2374
1736	65.3372
1732	65.2797
1728	65.1115
1724	65.1018
1720	65.2634
1716	65.3304
1712	65.2321
1708	65.2253
1704	65.4168
1700	65.6548
1696	65.6538
1692	65.4507
1688	65.4421
1684	65.5109
1680	65.444
1676	65.4608
1672	65.4937
1668	65.393
1664	65.3167
1660	65.326
1656	65.3968
1652	65.4451
1648	65.379
1644	65.2919
1640	65.26
1636	65.2314
1632	65.1719
1628	65.1613
1624	65.2533
1620	65.4036
1616	65.4433
1612	65.2885
1608	65.1486
1604	65.1208
1600	65.1003
1596	65.0641
1592	65.0151
1588	64.9812
1584	65.0651
1580	65.2114
1576	65.2385
1572	65.1553
1568	65.1027
1564	65.1927
1560	65.3934
1556	65.4525
1552	65.3593
1548	65.3669
1544	65.4997
1540	65.5128
1536	65.3462
1532	65.2368
1528	65.2748
1524	65.3938
1520	65.445
1516	65.3685
1512	65.3728
1508	65.4449
1504	65.3791
1500	65.3054
1496	65.305
1492	65.2359
1488	65.1723
1484	65.17
1480	65.1937
1476	65.2653
1472	65.316
1468	65.2855
1464	65.2487
1460	65.2965
1456	65.3095
1452	65.1706
1448	65.0806
1444	65.1501
1440	65.2844
1436	65.3593
1432	65.3209
1428	65.2681
1424	65.2823
1420	65.3111
1416	65.2571
1412	65.2223
1408	65.2849
1404	65.3278
1400	65.3568
1396	65.4016
1392	65.3464
1388	65.1964
1384	65.126
1380	65.1697
1376	65.1902
1372	65.151
1368	65.1297
1364	65.1752
1360	65.2325
1356	65.2535
1352	65.2763
1348	65.3174
1344	65.3226
1340	65.2602
1336	65.1844
1332	65.1366
1328	65.1251
1324	65.155
1320	65.2105
1316	65.2519
1312	65.2683
1308	65.2753
1304	65.2413
1300	65.1871
1296	65.1334
1292	65.0789
1288	65.0771
1284	65.1169
1280	65.158
1276	65.1885
1272	65.1834
1268	65.1669
1264	65.1529
1260	65.1212
1256	65.1099
1252	65.1452
1248	65.22
1244	65.2672
1240	65.2161
1236	65.1499
1232	65.1644
1228	65.2226
1224	65.2675
1220	65.2951
1216	65.2947
1212	65.286
1208	65.3179
1204	65.345
1200	65.2678
1196	65.1397
1192	65.0709
1188	65.0475
1184	65.045
1180	65.0455
1176	65.0408
1172	65.0978
1168	65.1517
1164	65.167
1160	65.2105
1156	65.1773
1152	65.073
1148	65.0169
1144	64.9805
1140	64.9817
1136	65.0259
1132	65.0313
1128	65.0198
1124	65.0614
1120	65.1358
1116	65.1964
1112	65.1765
1108	65.1194
1104	65.1175
1100	65.0839
1096	64.9903
1092	64.9639
1088	65.0536
1084	65.1528
1080	65.1453
1076	65.1052
1072	65.1189
1068	65.1468
1064	65.1702
1060	65.1493
1056	65.0858
1052	65.0667
1048	65.1128
1044	65.1935
1040	65.2152
1036	65.1227
1032	65.0594
1028	65.0891
1024	65.0894
1020	65.0305
1016	65.0183
1012	65.1056
1008	65.1621
1004	65.1628
1000	65.2358
996	 65.2566
992	 65.1697
988	 65.1617
984	 65.2182
980	 65.2021
976	 65.1276
972	 65.0654
968	 65.0657
964	 65.1764
960	 65.3024
956	 65.3022
952	 65.2099
948	 65.1555
944	 65.1744
940	 65.2024
936	 65.2351
932	 65.3013
928	 65.3361
924	 65.2868
920	 65.2511
916	 65.2582
912	 65.2566
908	 65.3211
904	 65.4193
900	 65.4086
896	 65.3195
892	 65.2788
888	 65.3692
884	 65.4219
880	 65.2432
876	 65.1104
872	 65.2138
868	 65.3788
864	 65.4688
860	 65.4774
856	 65.5025
852	 65.4837
848	 65.4038
844	 65.3615
840	 65.3686
836	 65.413
832	 65.3639
828	 65.2001
824	 65.0264
820	 64.9943
816	 65.161
812	 65.3123
808	 65.3636
804	 65.3859
800	 65.4298
796	 65.4324
792	 65.3525
788	 65.3167
784	 65.4124
780	 65.5384
776	 65.5474
772	 65.5344
768	 65.5458
764	 65.5296
760	 65.4794
756	 65.3079
752	 65.1291
748	 65.0716
744	 65.0968
740	 65.2565
736	 65.3579
732	 65.2386
728	 65.1612
724	 65.1964
720	 65.2106
716	 65.2418
712	 65.3288
708	 65.4478
704	 65.4678
700	 65.3126
696	 65.1925
692	 65.2073
688	 65.3085
684	 65.3937
680	 65.4119
676	 65.5471
672	 65.7346
668	 65.6242
664	 65.3836
660	 65.3669
656	 65.408
652	 65.4069
648	 65.4181
644	 65.425
640	 65.4826
636	 65.5207
632	 65.3747
628	 65.1665
624	 65.2116
620	 65.4007
616	 65.5558
612	 65.7267
608	 65.682
604	 65.5132
600	 65.5683
596	 65.6888
592	 65.775
588	 65.7579
584	 65.5552
580	 65.4905
576	 65.8474
572	 66.4131
568	 66.6354
564	 66.2437
560	 65.7942
556	 65.819
552	 65.9374
548	 65.9489
544	 66.1035
540	 66.0607
536	 65.6467
532	 65.5027
528	 65.9038
524	 66.3228
520	 66.2613
516	 66.147
512	 66.4485
508	 66.6809
504	 66.4116
500	 66.1649
496	 66.4239
492	 66.6235
488	 66.1418
484	 65.6496
480	 65.6394
476	 65.7406
472	 65.8698
468	 65.9307
464	 65.7147
460	 65.4113
456	 65.2195
452	 65.1567
448	 65.3588
444	 65.3286
440	 64.7339
436	 64.7327
432	 65.4991
428	 66.4531
424	 67.4042
420	 66.5969
416	 65.9061
412	 70.5757
408	 76.5909
404	 75.1891
400	 70.2097
396	 71.1745
392	 79.1829
388	 80.4765
384	 62.7705
380	 52.3304
376	 78.9064
372	 115.452
370	 120.947