File: Bakgrunnsmateriale/MATLAB/FTIR/ftir_data/subCa/Mapping_25/BZ12041010-4_t11_cm-1.asc
PE IR       SPECTRUM    SPECTRUM    ASCII       PEDS        1.60
  -1
BZ2C74~1.ASC
17/04/10
09:50:33.00
17/04/10
09:50:33.00
tln
$BZ12041010-4_t0011$<tbV0>[5.2,-7.2,9.0,0.0,22,1,0]
370
64

2002,4.07
MIRTGS : RIGHTBACK : INTERNAL 2
MIR : ON : INTERNAL 2
OPTKBR

0.200000
8
8.000000
FILLER
RATIO
SPECTRUM
UNLOCKED 256

DOUBLE
64
COMBINED
1
0
0

1.000000
RATIO

1
0
TRUE
51149
0
LEFT NOT FITTED RIGHT NOT FITTED 0
NONE
NONE
15600
12
4.427000
51148
TRUE
1 0 8 72 0 0 0 0

15798

#HDR
-1
-1
#GR
CM-1
%T
2.38419e-05
0.0
5000
-1.000000
4631
8
102.072
26.5586
#DATA
5000	64.7082
4996	64.627
4992	64.8364
4988	64.9117
4984	64.7984
4980	64.8475
4976	64.9756
4972	64.9774
4968	64.6223
4964	64.3152
4960	64.4638
4956	64.777
4952	64.7992
4948	64.7976
4944	64.7596
4940	64.2125
4936	63.9341
4932	64.224
4928	64.5015
4924	64.733
4920	64.6692
4916	64.4458
4912	64.7502
4908	65.3985
4904	65.5653
4900	65.203
4896	64.9337
4892	65.0091
4888	65.4779
4884	66.0012
4880	66.1312
4876	66.6251
4872	67.4134
4868	66.7953
4864	65.3785
4860	65.2762
4856	66.1279
4852	66.2185
4848	66.8657
4844	68.5831
4840	68.3042
4836	66.8867
4832	65.9247
4828	64.9838
4824	65.005
4820	64.9518
4816	64.0805
4812	63.735
4808	64.2329
4804	65.1832
4800	65.882
4796	65.9371
4792	65.6127
4788	65.0928
4784	64.6841
4780	65.0322
4776	65.7332
4772	65.781
4768	65.3373
4764	64.9664
4760	64.8063
4756	64.8865
4752	64.9999
4748	65.1097
4744	65.2497
4740	65.2491
4736	65.2841
4732	65.3398
4728	65.4473
4724	65.616
4720	65.5732
4716	65.4796
4712	65.4558
4708	65.307
4704	65.1632
4700	65.1532
4696	65.1086
4692	65.0856
4688	65.1224
4684	65.1308
4680	65.1355
4676	65.177
4672	65.2135
4668	65.2106
4664	65.1521
4660	64.9741
4656	64.7604
4652	64.7193
4648	64.7264
4644	64.4809
4640	64.2628
4636	64.2341
4632	64.2238
4628	64.3787
4624	64.6871
4620	64.8513
4616	64.699
4612	64.5052
4608	64.5416
4604	64.6688
4600	64.6935
4596	64.6283
4592	64.4608
4588	64.2385
4584	64.2684
4580	64.4004
4576	64.317
4572	64.2257
4568	64.2817
4564	64.3067
4560	64.0671
4556	63.6741
4552	63.5042
4548	63.5793
4544	63.8541
4540	64.0068
4536	63.9055
4532	63.9818
4528	64.1094
4524	64.0547
4520	64.1179
4516	64.2397
4512	64.335
4508	64.3834
4504	64.3837
4500	64.6977
4496	65.0728
4492	64.7573
4488	64.2898
4484	64.2498
4480	64.3306
4476	64.0798
4472	65.4978
4468	71.6341
4464	82.334
4460	98.9896
4456	97.4283
4452	75.939
4448	63.85
4444	62.9758
4440	63.4773
4436	63.7571
4432	63.8748
4428	63.0262
4424	62.3645
4420	62.84
4416	63.4143
4412	63.579
4408	63.6832
4404	63.7689
4400	63.9489
4396	64.3161
4392	64.3764
4388	64.1365
4384	63.8839
4380	63.6482
4376	63.577
4372	63.6407
4368	63.6972
4364	63.8613
4360	64.0995
4356	64.2299
4352	64.4022
4348	64.5501
4344	64.4896
4340	64.4422
4336	64.4875
4332	64.6728
4328	64.8758
4324	64.8785
4320	64.7876
4316	64.6825
4312	64.6523
4308	64.7338
4304	64.7963
4300	64.8004
4296	64.7433
4292	64.7759
4288	64.885
4284	64.9097
4280	64.9929
4276	65.0003
4272	64.8545
4268	64.8236
4264	64.8831
4260	64.8974
4256	64.9129
4252	64.9238
4248	64.8567
4244	64.8729
4240	65.0724
4236	65.3174
4232	65.4159
4228	65.2967
4224	65.1751
4220	65.1125
4216	65.0757
4212	65.1261
4208	65.1601
4204	65.1824
4200	65.2242
4196	65.1872
4192	65.111
4188	65.1707
4184	65.4439
4180	65.6677
4176	65.6243
4172	65.5481
4168	65.636
4164	65.6967
4160	65.5967
4156	65.4664
4152	65.3232
4148	65.1772
4144	65.1263
4140	65.1574
4136	65.2679
4132	65.4389
4128	65.4775
4124	65.2473
4120	64.9593
4116	64.9393
4112	65.1314
4108	65.2642
4104	65.4011
4100	65.6539
4096	65.8196
4092	65.7756
4088	65.5665
4084	65.334
4080	65.3506
4076	65.4889
4072	65.3924
4068	65.1499
4064	65.0273
4060	64.9468
4056	64.9378
4052	65.2398
4048	65.4267
4044	65.2686
4040	65.1186
4036	64.9527
4032	64.8447
4028	64.9744
4024	65.1527
4020	65.1923
4016	65.0769
4012	64.9152
4008	64.9029
4004	64.9495
4000	64.8659
3996	64.7952
3992	64.9033
3988	65.1397
3984	65.1913
3980	65.0016
3976	64.9613
3972	65.1343
3968	65.2312
3964	65.1169
3960	64.9848
3956	65.0097
3952	65.0631
3948	65.0441
3944	65.0574
3940	65.0999
3936	65.1
3932	65.0644
3928	65.0606
3924	65.1903
3920	65.1965
3916	64.9562
3912	64.9048
3908	65.049
3904	65.0846
3900	65.0435
3896	64.9664
3892	64.9397
3888	65.0793
3884	65.2394
3880	65.2442
3876	65.1512
3872	65.1114
3868	65.1023
3864	65.0682
3860	65.0767
3856	65.1262
3852	65.167
3848	65.1113
3844	64.9577
3840	64.8753
3836	64.9332
3832	65.0436
3828	65.1768
3824	65.2911
3820	65.2775
3816	65.2117
3812	65.2495
3808	65.3861
3804	65.403
3800	65.2859
3796	65.3206
3792	65.4214
3788	65.4046
3784	65.3329
3780	65.2401
3776	65.1995
3772	65.1732
3768	65.1824
3764	65.331
3760	65.3674
3756	65.1964
3752	65.0937
3748	65.1449
3744	65.2545
3740	65.3296
3736	65.3647
3732	65.4305
3728	65.4533
3724	65.4066
3720	65.434
3716	65.4753
3712	65.4232
3708	65.4068
3704	65.4538
3700	65.4195
3696	65.3432
3692	65.3916
3688	65.5154
3684	65.5509
3680	65.4511
3676	65.3017
3672	65.2535
3668	65.2777
3664	65.2545
3660	65.2756
3656	65.3783
3652	65.4463
3648	65.4912
3644	65.5536
3640	65.5663
3636	65.5198
3632	65.4279
3628	65.316
3624	65.2815
3620	65.2535
3616	65.2174
3612	65.2653
3608	65.3087
3604	65.3419
3600	65.4462
3596	65.5418
3592	65.5116
3588	65.4279
3584	65.3503
3580	65.2716
3576	65.2848
3572	65.3396
3568	65.2853
3564	65.1889
3560	65.2044
3556	65.2559
3552	65.2278
3548	65.1977
3544	65.1691
3540	65.1043
3536	65.12
3532	65.2253
3528	65.2851
3524	65.2935
3520	65.3215
3516	65.3252
3512	65.2775
3508	65.1819
3504	65.0658
3500	65.0593
3496	65.1139
3492	65.1243
3488	65.1259
3484	65.0884
3480	65.008
3476	64.9992
3472	65.0451
3468	65.0401
3464	65.0875
3460	65.2106
3456	65.2225
3452	65.1529
3448	65.111
3444	65.1192
3440	65.1757
3436	65.1845
3432	65.1313
3428	65.0979
3424	65.083
3420	65.0233
3416	64.986
3412	65.0388
3408	65.1182
3404	65.1564
3400	65.1749
3396	65.2797
3392	65.3806
3388	65.3439
3384	65.2759
3380	65.2531
3376	65.2357
3372	65.219
3368	65.2548
3364	65.2952
3360	65.2419
3356	65.2004
3352	65.2264
3348	65.2437
3344	65.2634
3340	65.332
3336	65.3798
3332	65.3121
3328	65.2616
3324	65.2772
3320	65.2331
3316	65.2035
3312	65.291
3308	65.3876
3304	65.3472
3300	65.2485
3296	65.2546
3292	65.2838
3288	65.2458
3284	65.2454
3280	65.273
3276	65.2003
3272	65.0768
3268	65.0512
3264	65.1304
3260	65.2723
3256	65.3825
3252	65.3492
3248	65.2751
3244	65.2701
3240	65.263
3236	65.2478
3232	65.2971
3228	65.4157
3224	65.4878
3220	65.433
3216	65.331
3212	65.2446
3208	65.2232
3204	65.2294
3200	65.2241
3196	65.2624
3192	65.2841
3188	65.1913
3184	65.0883
3180	65.1291
3176	65.2624
3172	65.3577
3168	65.3652
3164	65.3006
3160	65.2157
3156	65.2087
3152	65.2839
3148	65.344
3144	65.3403
3140	65.2907
3136	65.2441
3132	65.2259
3128	65.2581
3124	65.2835
3120	65.2873
3116	65.3436
3112	65.4017
3108	65.4143
3104	65.4059
3100	65.3904
3096	65.3387
3092	65.2586
3088	65.2074
3084	65.1375
3080	65.0726
3076	65.1151
3072	65.1839
3068	65.151
3064	65.0794
3060	65.1134
3056	65.2435
3052	65.3218
3048	65.2748
3044	65.1722
3040	65.1218
3036	65.1397
3032	65.2144
3028	65.3195
3024	65.3347
3020	65.2786
3016	65.2348
3012	65.1595
3008	65.0718
3004	65.0704
3000	65.1882
2996	65.2959
2992	65.279
2988	65.2224
2984	65.1839
2980	65.1533
2976	65.2014
2972	65.285
2968	65.242
2964	65.1723
2960	65.2355
2956	65.3291
2952	65.3462
2948	65.2849
2944	65.1875
2940	65.0943
2936	65.055
2932	65.1032
2928	65.1535
2924	65.1574
2920	65.189
2916	65.2098
2912	65.1763
2908	65.1779
2904	65.2315
2900	65.3179
2896	65.3786
2892	65.3309
2888	65.2256
2884	65.1649
2880	65.1417
2876	65.1534
2872	65.244
2868	65.3007
2864	65.252
2860	65.1724
2856	65.1583
2852	65.2148
2848	65.246
2844	65.2444
2840	65.2435
2836	65.2663
2832	65.3109
2828	65.3112
2824	65.2591
2820	65.2355
2816	65.2788
2812	65.3082
2808	65.2831
2804	65.2875
2800	65.3376
2796	65.3525
2792	65.2939
2788	65.2595
2784	65.2863
2780	65.2764
2776	65.2109
2772	65.1921
2768	65.2691
2764	65.3356
2760	65.3003
2756	65.2303
2752	65.2099
2748	65.2178
2744	65.201
2740	65.1714
2736	65.2007
2732	65.2853
2728	65.3221
2724	65.3153
2720	65.3577
2716	65.357
2712	65.2718
2708	65.2467
2704	65.2624
2700	65.2533
2696	65.2315
2692	65.1778
2688	65.1418
2684	65.1881
2680	65.2171
2676	65.1995
2672	65.2336
2668	65.2697
2664	65.2604
2660	65.2635
2656	65.2865
2652	65.2926
2648	65.2545
2644	65.2053
2640	65.1933
2636	65.192
2632	65.1845
2628	65.2146
2624	65.2664
2620	65.2945
2616	65.305
2612	65.2805
2608	65.2145
2604	65.1824
2600	65.237
2596	65.2682
2592	65.2297
2588	65.2206
2584	65.257
2580	65.2968
2576	65.3244
2572	65.3454
2568	65.3467
2564	65.3369
2560	65.2944
2556	65.2351
2552	65.2482
2548	65.3046
2544	65.3244
2540	65.3024
2536	65.2622
2532	65.2719
2528	65.3482
2524	65.3596
2520	65.3088
2516	65.2883
2512	65.2489
2508	65.2214
2504	65.3034
2500	65.3991
2496	65.4063
2492	65.3909
2488	65.3608
2484	65.3042
2480	65.3025
2476	65.3326
2472	65.3408
2468	65.3326
2464	65.2902
2460	65.2924
2456	65.3582
2452	65.3877
2448	65.3767
2444	65.3494
2440	65.3317
2436	65.3602
2432	65.3836
2428	65.3682
2424	65.3583
2420	65.3519
2416	65.3016
2412	65.2917
2408	65.3802
2404	65.3967
2400	65.3173
2396	65.281
2392	65.3046
2388	65.3081
2384	65.3027
2380	65.3403
2376	65.339
2372	65.27
2368	65.2678
2364	65.3388
2360	65.3497
2356	65.3236
2352	65.296
2348	65.2936
2344	65.339
2340	65.321
2336	65.2729
2332	65.2945
2328	65.3253
2324	65.3407
2320	65.343
2316	65.3442
2312	65.3268
2308	65.2638
2304	65.2632
2300	65.3337
2296	65.3321
2292	65.2427
2288	65.1798
2284	65.1569
2280	65.164
2276	65.2187
2272	65.2732
2268	65.3193
2264	65.331
2260	65.2776
2256	65.2252
2252	65.2029
2248	65.1964
2244	65.2523
2240	65.3556
2236	65.3662
2232	65.2858
2228	65.2755
2224	65.3054
2220	65.2801
2216	65.2687
2212	65.2994
2208	65.3128
2204	65.2725
2200	65.2273
2196	65.2394
2192	65.28
2188	65.2831
2184	65.2337
2180	65.225
2176	65.2762
2172	65.3294
2168	65.3687
2164	65.3407
2160	65.3034
2156	65.2977
2152	65.2254
2148	65.1714
2144	65.2331
2140	65.2752
2136	65.2454
2132	65.2197
2128	65.2326
2124	65.2885
2120	65.3029
2116	65.2519
2112	65.2568
2108	65.3324
2104	65.3638
2100	65.3042
2096	65.2421
2092	65.2512
2088	65.2817
2084	65.2844
2080	65.2579
2076	65.2532
2072	65.2775
2068	65.2723
2064	65.2783
2060	65.3183
2056	65.3436
2052	65.3337
2048	65.2897
2044	65.2713
2040	65.3027
2036	65.3333
2032	65.321
2028	65.2592
2024	65.2267
2020	65.2494
2016	65.2763
2012	65.3109
2008	65.3529
2004	65.3923
2000	65.4088
1996	65.3546
1992	65.2981
1988	65.3531
1984	65.4059
1980	65.3714
1976	65.3593
1972	65.37
1968	65.37
1964	65.3923
1960	65.398
1956	65.3805
1952	65.3882
1948	65.3917
1944	65.3518
1940	65.3142
1936	65.3234
1932	65.325
1928	65.3059
1924	65.2994
1920	65.296
1916	65.3095
1912	65.3391
1908	65.3933
1904	65.4438
1900	65.4117
1896	65.3389
1892	65.2956
1888	65.2791
1884	65.2542
1880	65.2468
1876	65.2961
1872	65.3245
1868	65.3138
1864	65.2927
1860	65.2561
1856	65.2397
1852	65.2658
1848	65.3014
1844	65.3133
1840	65.3326
1836	65.3572
1832	65.3095
1828	65.2405
1824	65.2681
1820	65.3011
1816	65.2643
1812	65.218
1808	65.1972
1804	65.209
1800	65.2318
1796	65.2194
1792	65.1856
1788	65.1812
1784	65.2028
1780	65.2082
1776	65.1802
1772	65.1539
1768	65.1635
1764	65.1681
1760	65.1468
1756	65.1383
1752	65.1499
1748	65.1443
1744	65.098
1740	65.085
1736	65.1402
1732	65.1407
1728	65.0719
1724	65.0432
1720	65.0404
1716	65.0527
1712	65.1088
1708	65.1274
1704	65.0996
1700	65.0521
1696	65.0409
1692	65.1263
1688	65.1445
1684	65.0673
1680	65.056
1676	65.1063
1672	65.1218
1668	65.0828
1664	65.0605
1660	65.0907
1656	65.1476
1652	65.2016
1648	65.1811
1644	65.1087
1640	65.1395
1636	65.2647
1632	65.3021
1628	65.2179
1624	65.1597
1620	65.1771
1616	65.1835
1612	65.1895
1608	65.2655
1604	65.3179
1600	65.2915
1596	65.2829
1592	65.3081
1588	65.2816
1584	65.1987
1580	65.171
1576	65.1994
1572	65.2055
1568	65.1916
1564	65.1948
1560	65.2512
1556	65.2861
1552	65.2574
1548	65.1984
1544	65.1124
1540	65.0932
1536	65.144
1532	65.1469
1528	65.1159
1524	65.143
1520	65.2209
1516	65.3038
1512	65.345
1508	65.3035
1504	65.248
1500	65.2579
1496	65.3135
1492	65.2987
1488	65.2092
1484	65.1409
1480	65.1151
1476	65.1534
1472	65.2216
1468	65.2508
1464	65.2269
1460	65.203
1456	65.2066
1452	65.1964
1448	65.2016
1444	65.2263
1440	65.2219
1436	65.1965
1432	65.1562
1428	65.1397
1424	65.1496
1420	65.1489
1416	65.1391
1412	65.1149
1408	65.0622
1404	65.0595
1400	65.1591
1396	65.2001
1392	65.1775
1388	65.1973
1384	65.2268
1380	65.2527
1376	65.267
1372	65.2699
1368	65.2776
1364	65.2149
1360	65.0995
1356	65.0462
1352	65.0509
1348	65.0391
1344	65.0293
1340	65.0718
1336	65.1007
1332	65.1146
1328	65.1539
1324	65.1714
1320	65.1604
1316	65.155
1312	65.1399
1308	65.1123
1304	65.1331
1300	65.1684
1296	65.1629
1292	65.1536
1288	65.1275
1284	65.1145
1280	65.1152
1276	65.0904
1272	65.0942
1268	65.1285
1264	65.1337
1260	65.0824
1256	65.0713
1252	65.1547
1248	65.222
1244	65.2076
1240	65.1614
1236	65.1845
1232	65.2692
1228	65.2971
1224	65.2331
1220	65.1288
1216	65.0748
1212	65.1372
1208	65.2639
1204	65.3505
1200	65.3006
1196	65.1814
1192	65.177
1188	65.2549
1184	65.2709
1180	65.2374
1176	65.2395
1172	65.2557
1168	65.1693
1164	65.0581
1160	65.0539
1156	65.0716
1152	65.0896
1148	65.1206
1144	65.1182
1140	65.1005
1136	65.1194
1132	65.1822
1128	65.2198
1124	65.1978
1120	65.1122
1116	65.0522
1112	65.0495
1108	65.0647
1104	65.1052
1100	65.1169
1096	65.1385
1092	65.2086
1088	65.2207
1084	65.1555
1080	65.0644
1076	64.9951
1072	65.0428
1068	65.1587
1064	65.2078
1060	65.2464
1056	65.2964
1052	65.2142
1048	65.0518
1044	65.0281
1040	65.094
1036	65.0936
1032	65.0799
1028	65.0972
1024	65.127
1020	65.1696
1016	65.167
1012	65.1536
1008	65.1686
1004	65.1376
1000	65.0454
996	 65.0101
992	 65.0453
988	 65.085
984	 65.1896
980	 65.2469
976	 65.1047
972	 64.9498
968	 64.9791
964	 65.122
960	 65.2387
956	 65.2453
952	 65.1119
948	 64.972
944	 65.0321
940	 65.1387
936	 65.0656
932	 64.9777
928	 64.9963
924	 65.0599
920	 65.1775
916	 65.2956
912	 65.2882
908	 65.2236
904	 65.2807
900	 65.3405
896	 65.3362
892	 65.3888
888	 65.3495
884	 65.2104
880	 65.179
876	 65.2105
872	 65.2227
868	 65.2663
864	 65.2935
860	 65.244
856	 65.1741
852	 65.1914
848	 65.317
844	 65.41
840	 65.4065
836	 65.4124
832	 65.4636
828	 65.4914
824	 65.468
820	 65.4226
816	 65.3994
812	 65.4515
808	 65.5374
804	 65.5291
800	 65.4207
796	 65.3308
792	 65.2812
788	 65.1795
784	 65.1176
780	 65.2019
776	 65.2724
772	 65.3035
768	 65.3581
764	 65.3802
760	 65.3733
756	 65.3687
752	 65.4376
748	 65.4646
744	 65.2908
740	 65.1417
736	 65.1569
732	 65.2458
728	 65.3595
724	 65.5218
720	 65.6349
716	 65.4841
712	 65.2985
708	 65.4306
704	 65.6055
700	 65.5743
696	 65.5028
692	 65.342
688	 65.1428
684	 65.1982
680	 65.3796
676	 65.4697
672	 65.3687
668	 65.1654
664	 65.1966
660	 65.3926
656	 65.4192
652	 65.241
648	 65.0587
644	 65.0901
640	 65.2869
636	 65.3469
632	 65.2744
628	 65.3294
624	 65.4951
620	 65.5257
616	 65.4761
612	 65.4683
608	 65.4377
604	 65.5639
600	 65.6541
596	 65.4477
592	 65.3828
588	 65.5195
584	 65.473
580	 65.2985
576	 65.4083
572	 65.7198
568	 65.719
564	 65.4526
560	 65.1836
556	 65.0941
552	 65.3759
548	 65.8352
544	 65.9666
540	 65.7133
536	 65.648
532	 65.9231
528	 65.9563
524	 65.6719
520	 65.6199
516	 65.7768
512	 65.7229
508	 65.4308
504	 65.1869
500	 65.1721
496	 65.4363
492	 66.1175
488	 66.4791
484	 65.9385
480	 65.432
476	 65.5758
472	 65.6956
468	 65.3222
464	 65.2715
460	 65.6518
456	 66.2915
452	 67.5686
448	 67.9524
444	 66.7444
440	 66.3684
436	 67.1906
432	 67.6545
428	 67.6641
424	 66.9004
420	 64.8254
416	 63.4294
412	 64.2861
408	 61.2702
404	 56.4469
400	 56.0161
396	 48.5286
392	 32.5848
388	 26.8899
384	 26.6534
380	 53.2207
376	 46.875
372	 89.4997
370	 44.8045