File: Bakgrunnsmateriale/MATLAB/FTIR/ftir_data/subAa/Mapping_121/BZ1503107-1_t02_cm-1.asc
PE IR       SPECTRUM    SPECTRUM    ASCII       PEDS        1.60
  -1
BZ6A22~1.ASC
17/04/07
13:25:07.00
17/04/07
13:25:07.00
tln
$BZ1503107-1_t0002$<tbV0>[10.4,-13.0,8.0,0.0,27,1,0]
370
64

2002,4.07
MIRTGS : RIGHTBACK : INTERNAL 2
MIR : ON : INTERNAL 2
OPTKBR

0.200000
8
8.000000
FILLER
RATIO
SPECTRUM
UNLOCKED 256

DOUBLE
64
COMBINED
1
0
0

1.000000
RATIO

1
0
TRUE
51149
0
LEFT NOT FITTED RIGHT NOT FITTED 0
NONE
NONE
15600
12
4.427000
51148
TRUE
1 0 8 72 0 0 0 0

15798

#HDR
-1
-1
#GR
CM-1
%T
2.38419e-05
0.0
5000
-1.000000
4631
8
69.7163
7.017636
#DATA
5000	65.1864
4996	65.1505
4992	64.9633
4988	64.6992
4984	64.7685
4980	64.9736
4976	64.8989
4972	64.6371
4968	64.5522
4964	64.8542
4960	65.1046
4956	64.9065
4952	64.6833
4948	64.729
4944	64.9081
4940	65.2075
4936	65.4109
4932	65.1589
4928	64.7627
4924	64.6106
4920	64.3627
4916	64.0034
4912	63.9517
4908	64.1517
4904	64.2134
4900	64.4077
4896	64.9225
4892	64.9503
4888	64.2829
4884	63.7663
4880	64.0691
4876	63.7037
4872	62.0616
4868	61.8912
4864	63.6598
4860	65.0974
4856	65.3312
4852	65.1955
4848	65.3883
4844	65.1046
4840	63.9736
4836	63.0688
4832	63.38
4828	64.3558
4824	64.5081
4820	64.17
4816	64.4462
4812	64.5576
4808	64.2489
4804	64.6636
4800	65.2552
4796	65.361
4792	65.2732
4788	64.9659
4784	64.7637
4780	64.5111
4776	64.3833
4772	64.4996
4768	64.2009
4764	64.2661
4760	64.9385
4756	65.1059
4752	64.873
4748	64.7957
4744	64.7777
4740	64.5366
4736	64.2201
4732	64.3363
4728	64.569
4724	64.4263
4720	64.2669
4716	64.4914
4712	64.7777
4708	64.7642
4704	64.812
4700	64.8498
4696	64.7253
4692	64.6865
4688	64.7357
4684	64.9584
4680	65.1799
4676	65.1408
4672	65.0847
4668	65.0607
4664	64.9887
4660	65.008
4656	64.842
4652	64.61
4648	64.8395
4644	65.2513
4640	65.2559
4636	64.9015
4632	64.6526
4628	64.727
4624	64.8123
4620	64.6103
4616	64.4844
4612	64.5799
4608	64.8233
4604	65.2435
4600	65.3534
4596	65.0355
4592	64.9188
4588	65.0845
4584	65.1367
4580	64.9811
4576	64.9094
4572	64.9595
4568	64.8419
4564	64.6859
4560	64.7761
4556	64.7562
4552	64.4639
4548	64.3617
4544	64.3628
4540	64.3156
4536	64.3836
4532	64.5171
4528	64.6861
4524	64.775
4520	64.602
4516	64.4408
4512	64.7003
4508	65.081
4504	65.0023
4500	64.9838
4496	65.5808
4492	67.0794
4488	67.7371
4484	68.3127
4480	69.7078
4476	68.7116
4472	67.5359
4468	66.3393
4464	61.0241
4460	53.3025
4456	52.4538
4452	61.8518
4448	68.6288
4444	67.4275
4440	65.8081
4436	65.8473
4432	66.1688
4428	66.025
4424	65.4894
4420	64.9677
4416	64.8446
4412	65.0613
4408	65.2101
4404	65.2503
4400	65.0954
4396	65.0629
4392	65.0964
4388	64.8341
4384	64.5191
4380	64.4733
4376	64.6845
4372	64.9234
4368	65.0886
4364	65.2086
4360	65.2382
4356	65.203
4352	65.1243
4348	65.0629
4344	65.1063
4340	65.0788
4336	64.8979
4332	64.7649
4328	64.9009
4324	65.1056
4320	64.9841
4316	64.9086
4312	65.1355
4308	65.3034
4304	65.2537
4300	65.0365
4296	64.8319
4292	64.7941
4288	64.8672
4284	64.9054
4280	64.8921
4276	64.9398
4272	64.9963
4268	64.9124
4264	64.7276
4260	64.6702
4256	64.8625
4252	65.1456
4248	65.3118
4244	65.3308
4240	65.2777
4236	65.2275
4232	65.2446
4228	65.1727
4224	64.9704
4220	64.9836
4216	65.1108
4212	65.0962
4208	65.0598
4204	65.0424
4200	65.0149
4196	64.7925
4192	64.5831
4188	64.7474
4184	65.044
4180	65.2812
4176	65.3462
4172	65.1138
4168	64.8684
4164	64.928
4160	65.0555
4156	64.9974
4152	64.8961
4148	64.8442
4144	64.9156
4140	65.0467
4136	65.1125
4132	65.1778
4128	65.178
4124	65.1619
4120	65.1962
4116	65.2318
4112	65.2973
4108	65.3729
4104	65.5013
4100	65.564
4096	65.4249
4092	65.3001
4088	65.2831
4084	65.3063
4080	65.3836
4076	65.4534
4072	65.416
4068	65.2124
4064	65.0266
4060	65.0005
4056	65.0119
4052	65.1033
4048	65.2169
4044	65.1378
4040	65.0464
4036	65.1321
4032	65.2253
4028	65.203
4024	65.1613
4020	65.1777
4016	65.2255
4012	65.2755
4008	65.3266
4004	65.2803
4000	65.1613
3996	65.1777
3992	65.2021
3988	65.0622
3984	64.9608
3980	64.9529
3976	65.0157
3972	65.2585
3968	65.3986
3964	65.1737
3960	64.919
3956	64.9373
3952	65.109
3948	65.2593
3944	65.3468
3940	65.3291
3936	65.2312
3932	65.173
3928	65.1061
3924	64.9807
3920	64.9521
3916	65.033
3912	65.0939
3908	65.1484
3904	65.2275
3900	65.2702
3896	65.2083
3892	65.1558
3888	65.2871
3884	65.3736
3880	65.2468
3876	65.1261
3872	65.0775
3868	65.0603
3864	65.0369
3860	65.0799
3856	65.2441
3852	65.2602
3848	65.1265
3844	65.0745
3840	65.1611
3836	65.272
3832	65.2449
3828	65.2727
3824	65.4505
3820	65.5381
3816	65.506
3812	65.4532
3808	65.3867
3804	65.3157
3800	65.162
3796	64.923
3792	64.8439
3788	65.0333
3784	65.2569
3780	65.246
3776	65.1047
3772	65.0591
3768	65.0827
3764	65.0947
3760	65.1586
3756	65.3722
3752	65.5368
3748	65.4852
3744	65.3882
3740	65.3454
3736	65.3415
3732	65.2987
3728	65.2199
3724	65.2081
3720	65.1975
3716	65.1704
3712	65.1987
3708	65.2169
3704	65.1962
3700	65.2058
3696	65.2668
3692	65.3339
3688	65.3446
3684	65.3124
3680	65.3773
3676	65.5051
3672	65.4099
3668	65.1461
3664	65.0504
3660	65.1179
3656	65.1834
3652	65.2748
3648	65.3682
3644	65.3589
3640	65.3383
3636	65.3666
3632	65.3595
3628	65.3193
3624	65.2426
3620	65.1238
3616	65.0989
3612	65.1885
3608	65.2229
3604	65.2358
3600	65.2639
3596	65.1916
3592	65.1566
3588	65.1965
3584	65.1815
3580	65.1697
3576	65.2089
3572	65.2088
3568	65.1264
3564	65.0777
3560	65.0989
3556	65.1449
3552	65.1917
3548	65.2638
3544	65.3258
3540	65.2779
3536	65.1723
3532	65.0887
3528	65.0565
3524	65.0608
3520	65.0487
3516	64.9649
3512	64.9434
3508	65.0283
3504	65.0795
3500	65.1193
3496	65.0836
3492	64.9128
3488	64.8388
3484	64.9502
3480	65.051
3476	65.0971
3472	65.1334
3468	65.1069
3464	65.0739
3460	65.0602
3456	64.9689
3452	64.8939
3448	64.9421
3444	65.0613
3440	65.1718
3436	65.2237
3432	65.3023
3428	65.3652
3424	65.2799
3420	65.2016
3416	65.2374
3412	65.2343
3408	65.175
3404	65.1547
3400	65.1712
3396	65.1754
3392	65.1509
3388	65.1614
3384	65.1778
3380	65.1277
3376	65.0808
3372	65.1102
3368	65.2088
3364	65.2807
3360	65.2378
3356	65.1041
3352	64.9629
3348	64.8855
3344	64.8986
3340	65.0093
3336	65.129
3332	65.1835
3328	65.2143
3324	65.2547
3320	65.2839
3316	65.2023
3312	65.043
3308	64.979
3304	65.0628
3300	65.1702
3296	65.1981
3292	65.1889
3288	65.1822
3284	65.1899
3280	65.1668
3276	65.0843
3272	65.0523
3268	65.0699
3264	65.0307
3260	64.9977
3256	65.0678
3252	65.09
3248	65.0418
3244	65.0673
3240	65.0749
3236	65.0752
3232	65.1149
3228	65.1654
3224	65.2565
3220	65.2873
3216	65.2359
3212	65.2202
3208	65.2247
3204	65.2027
3200	65.2076
3196	65.2277
3192	65.1912
3188	65.1031
3184	65.0422
3180	65.0545
3176	65.165
3172	65.2799
3168	65.2857
3164	65.3077
3160	65.3603
3156	65.3206
3152	65.2824
3148	65.265
3144	65.1473
3140	65.0717
3136	65.1579
3132	65.2225
3128	65.1703
3124	65.155
3120	65.1692
3116	65.0786
3112	65.0354
3108	65.1118
3104	65.1293
3100	65.0363
3096	64.9813
3092	65.0818
3088	65.1482
3084	65.1344
3080	65.1742
3076	65.1579
3072	65.0776
3068	65.0353
3064	65.0164
3060	65.0162
3056	65.0392
3052	65.1191
3048	65.2197
3044	65.2071
3040	65.1545
3036	65.1524
3032	65.133
3028	65.1219
3024	65.1857
3020	65.2733
3016	65.2869
3012	65.2388
3008	65.1817
3004	65.1047
3000	65.0256
2996	65.0044
2992	65.0381
2988	65.0622
2984	65.0968
2980	65.1443
2976	65.1062
2972	65.0478
2968	65.0444
2964	65.0315
2960	65.0285
2956	65.052
2952	65.0824
2948	65.1352
2944	65.169
2940	65.1308
2936	65.0597
2932	65.0251
2928	65.0646
2924	65.1242
2920	65.1314
2916	65.0858
2912	65.0142
2908	64.9944
2904	65.0006
2900	64.9977
2896	65.0128
2892	65.047
2888	65.082
2884	65.0636
2880	65.0812
2876	65.1643
2872	65.141
2868	64.9757
2864	64.8483
2860	64.9163
2856	65.0562
2852	65.0813
2848	65.0388
2844	65.068
2840	65.1374
2836	65.1769
2832	65.2255
2828	65.2292
2824	65.1191
2820	65.0455
2816	65.1212
2812	65.1858
2808	65.142
2804	65.0888
2800	65.0866
2796	65.0905
2792	65.063
2788	65.0664
2784	65.1383
2780	65.1911
2776	65.1454
2772	65.0272
2768	64.9938
2764	65.0508
2760	65.0505
2756	65.003
2752	64.9816
2748	65.0426
2744	65.1257
2740	65.1516
2736	65.1407
2732	65.1241
2728	65.1095
2724	65.0869
2720	65.0745
2716	65.0663
2712	65.0345
2708	64.9947
2704	65.0028
2700	65.0592
2696	65.0994
2692	65.0909
2688	65.0634
2684	65.0446
2680	65.0493
2676	65.1015
2672	65.1528
2668	65.1645
2664	65.1616
2660	65.1297
2656	65.073
2652	64.9851
2648	64.9147
2644	64.9613
2640	65.0408
2636	65.0558
2632	65.006
2628	64.9356
2624	64.935
2620	64.9552
2616	64.9122
2612	64.9344
2608	65.0623
2604	65.1049
2600	65.0889
2596	65.155
2592	65.1717
2588	65.0756
2584	65.0392
2580	65.0909
2576	65.1231
2572	65.1005
2568	65.0706
2564	65.0803
2560	65.0921
2556	65.1053
2552	65.156
2548	65.1427
2544	65.0335
2540	64.9885
2536	65.049
2532	65.0864
2528	65.0383
2524	64.9809
2520	64.9921
2516	65.0521
2512	65.1137
2508	65.0761
2504	64.9384
2500	64.874
2496	64.8741
2492	64.8725
2488	64.9694
2484	65.0898
2480	65.0659
2476	65.008
2472	65.0271
2468	65.0141
2464	64.9509
2460	64.9313
2456	64.973
2452	65.0345
2448	65.0831
2444	65.1101
2440	65.1061
2436	65.0926
2432	65.0335
2428	64.9354
2424	64.9694
2420	65.086
2416	65.0722
2412	64.9803
2408	64.8938
2404	64.8039
2400	64.8034
2396	64.8898
2392	64.9271
2388	64.9339
2384	64.9846
2380	65.0184
2376	64.9979
2372	65.0072
2368	65.0796
2364	65.1257
2360	65.1209
2356	65.1259
2352	65.1212
2348	65.0843
2344	65.0312
2340	64.9779
2336	64.953
2332	64.9179
2328	64.9185
2324	64.9888
2320	65.0362
2316	65.0691
2312	65.0659
2308	64.9917
2304	64.9276
2300	64.9062
2296	64.9319
2292	64.9725
2288	64.9693
2284	64.9484
2280	64.9513
2276	64.9642
2272	64.9358
2268	64.9091
2264	64.9497
2260	64.9965
2256	64.9955
2252	65.0186
2248	65.0729
2244	65.0615
2240	64.9908
2236	64.9206
2232	64.9252
2228	64.9836
2224	64.9744
2220	64.9659
2216	65.0048
2212	64.9904
2208	64.9848
2204	65.0354
2200	65.0508
2196	65.0247
2192	64.9667
2188	64.8842
2184	64.8387
2180	64.8005
2176	64.8224
2172	64.9492
2168	65.009
2164	64.9718
2160	64.9443
2156	64.9628
2152	64.9576
2148	64.8876
2144	64.8284
2140	64.8072
2136	64.8641
2132	64.9639
2128	64.9758
2124	64.9603
2120	65.0047
2116	65.016
2112	64.9812
2108	64.9636
2104	64.9365
2100	64.9249
2096	64.9563
2092	64.9755
2088	64.9699
2084	64.9497
2080	64.9424
2076	64.9514
2072	64.9105
2068	64.8326
2064	64.7865
2060	64.7943
2056	64.8441
2052	64.8967
2048	64.9461
2044	64.9624
2040	64.9307
2036	64.9221
2032	64.9393
2028	64.9379
2024	64.9181
2020	64.8596
2016	64.8243
2012	64.916
2008	65.004
2004	64.9746
2000	64.8854
1996	64.8158
1992	64.8288
1988	64.8876
1984	64.8967
1980	64.8648
1976	64.8834
1972	64.9346
1968	64.9706
1964	64.9905
1960	64.9716
1956	64.9209
1952	64.8787
1948	64.8496
1944	64.8487
1940	64.8664
1936	64.8475
1932	64.8221
1928	64.8205
1924	64.8171
1920	64.8524
1916	64.9174
1912	64.9031
1908	64.8345
1904	64.8063
1900	64.8185
1896	64.8778
1892	64.9456
1888	64.9242
1884	64.8233
1880	64.748
1876	64.7322
1872	64.7766
1868	64.8748
1864	64.9361
1860	64.9398
1856	64.9281
1852	64.8857
1848	64.8104
1844	64.7393
1840	64.7587
1836	64.8647
1832	64.8878
1828	64.7909
1824	64.7367
1820	64.7945
1816	64.8596
1812	64.8432
1808	64.7973
1804	64.7609
1800	64.7231
1796	64.7001
1792	64.7086
1788	64.7645
1784	64.7745
1780	64.7102
1776	64.6699
1772	64.6688
1768	64.6895
1764	64.7271
1760	64.7578
1756	64.7814
1752	64.7878
1748	64.7462
1744	64.7003
1740	64.6601
1736	64.6079
1732	64.5663
1728	64.5435
1724	64.5655
1720	64.6227
1716	64.6321
1712	64.5862
1708	64.5914
1704	64.7022
1700	64.8456
1696	64.8346
1692	64.7271
1688	64.7916
1684	64.881
1680	64.8181
1676	64.7777
1672	64.8051
1668	64.8115
1664	64.7857
1660	64.7436
1656	64.6903
1652	64.6203
1648	64.5837
1644	64.6278
1640	64.7049
1636	64.7463
1632	64.7394
1628	64.7212
1624	64.702
1620	64.6628
1616	64.6343
1612	64.66
1608	64.6912
1604	64.6856
1600	64.6684
1596	64.6631
1592	64.6872
1588	64.7395
1584	64.7898
1580	64.8367
1576	64.8386
1572	64.7276
1568	64.6366
1564	64.7157
1560	64.8273
1556	64.7623
1552	64.6689
1548	64.7219
1544	64.7451
1540	64.6439
1536	64.6218
1532	64.6966
1528	64.7065
1524	64.6613
1520	64.65
1516	64.6789
1512	64.683
1508	64.6617
1504	64.6559
1500	64.6539
1496	64.6568
1492	64.5994
1488	64.5253
1484	64.5577
1480	64.6471
1476	64.7373
1472	64.723
1468	64.6023
1464	64.5436
1460	64.5462
1456	64.5294
1452	64.5249
1448	64.5243
1444	64.561
1440	64.6656
1436	64.7238
1432	64.7063
1428	64.6345
1424	64.5678
1420	64.5978
1416	64.619
1412	64.5602
1408	64.519
1404	64.5177
1400	64.4881
1396	64.4539
1392	64.4708
1388	64.4848
1384	64.4753
1380	64.4543
1376	64.4212
1372	64.4235
1368	64.4881
1364	64.5598
1360	64.5716
1356	64.5603
1352	64.5349
1348	64.5047
1344	64.5328
1340	64.5287
1336	64.4802
1332	64.4987
1328	64.5168
1324	64.4693
1320	64.426
1316	64.3988
1312	64.3709
1308	64.3666
1304	64.3907
1300	64.4417
1296	64.4849
1292	64.4864
1288	64.4544
1284	64.4101
1280	64.3933
1276	64.3774
1272	64.314
1268	64.2576
1264	64.279
1260	64.3338
1256	64.3502
1252	64.372
1248	64.353
1244	64.2573
1240	64.2433
1236	64.3071
1232	64.3262
1228	64.3067
1224	64.2792
1220	64.3165
1216	64.4208
1212	64.4771
1208	64.4732
1204	64.4279
1200	64.3766
1196	64.385
1192	64.4244
1188	64.3892
1184	64.2652
1180	64.1661
1176	64.1603
1172	64.2622
1168	64.3729
1164	64.3482
1160	64.2968
1156	64.3195
1152	64.3511
1148	64.3377
1144	64.2716
1140	64.248
1136	64.311
1132	64.3906
1128	64.3925
1124	64.3375
1120	64.3824
1116	64.4751
1112	64.4456
1108	64.3164
1104	64.2493
1100	64.2993
1096	64.4219
1092	64.5197
1088	64.4825
1084	64.4495
1080	64.5256
1076	64.5542
1072	64.3898
1068	64.1643
1064	64.1487
1060	64.2323
1056	64.2175
1052	64.1833
1048	64.1465
1044	64.0685
1040	64.0844
1036	64.1614
1032	64.1754
1028	64.1945
1024	64.2063
1020	64.2102
1016	64.2156
1012	64.1643
1008	64.1314
1004	64.1901
1000	64.2773
996	 64.3282
992	 64.3279
988	 64.2737
984	 64.1506
980	 64.0102
976	 63.9893
972	 64.079
968	 64.1776
964	 64.2601
960	 64.2656
956	 64.2002
952	 64.2568
948	 64.3854
944	 64.3702
940	 64.3107
936	 64.3142
932	 64.3479
928	 64.3854
924	 64.3568
920	 64.3478
916	 64.4672
912	 64.5239
908	 64.4133
904	 64.3048
900	 64.2977
896	 64.3232
892	 64.2737
888	 64.2135
884	 64.216
880	 64.2482
876	 64.2608
872	 64.2038
868	 64.1578
864	 64.1494
860	 64.1438
856	 64.2225
852	 64.4244
848	 64.5694
844	 64.507
840	 64.2692
836	 64.0501
832	 64.0121
828	 64.0327
824	 64.0461
820	 64.1123
816	 64.2015
812	 64.3271
808	 64.4262
804	 64.3466
800	 64.2628
796	 64.3115
792	 64.2829
788	 64.2029
784	 64.1891
780	 64.2174
776	 64.2956
772	 64.4052
768	 64.3846
764	 64.2008
760	 64.0531
756	 63.9688
752	 63.8938
748	 63.8733
744	 64.0095
740	 64.2268
736	 64.2709
732	 64.2295
728	 64.3191
724	 64.3785
720	 64.2998
716	 64.2032
712	 64.2231
708	 64.266
704	 64.1421
700	 63.98
696	 63.89
692	 63.9816
688	 64.2164
684	 64.2387
680	 64.0965
676	 64.0601
672	 64.1444
668	 64.2383
664	 64.328
660	 64.404
656	 64.24
652	 64.0517
648	 64.1472
644	 64.2039
640	 64.0741
636	 64.0129
632	 64.1394
628	 64.2758
624	 64.2244
620	 64.1114
616	 64.13
612	 64.1661
608	 63.9795
604	 63.7637
600	 63.8254
596	 63.9594
592	 63.9998
588	 64.104
584	 64.3472
580	 64.5692
576	 64.5563
572	 64.2009
568	 63.7918
564	 63.8253
560	 64.1892
556	 64.4156
552	 64.2712
548	 64.0786
544	 64.24
540	 64.6846
536	 64.8369
532	 64.601
528	 64.5721
524	 64.5965
520	 64.4262
516	 64.4187
512	 64.4192
508	 64.3024
504	 64.3631
500	 64.6016
496	 64.6043
492	 64.2653
488	 63.948
484	 63.9062
480	 64.3454
476	 65.1772
472	 65.2027
468	 64.6537
464	 64.7707
460	 64.651
456	 64.0682
452	 64.3302
448	 64.1568
444	 63.6111
440	 63.4499
436	 62.6178
432	 62.588
428	 62.3161
424	 59.5501
420	 58.8934
416	 63.6634
412	 67.3666
408	 63.6877
404	 57.6025
400	 54.612
396	 52.4707
392	 48.1148
388	 42.4099
384	 33.6382
380	 17.6662
376	 7.825207
372	 45.0228
370	 47.5534