File: Bakgrunnsmateriale/MATLAB/FTIR/ftir_data/subAa/Mapping_121/BZ1503107-1_t73.asc
PE IR       SPECTRUM    SPECTRUM    ASCII       PEDS        1.60
  -1
BZ255F~1.ASC
17/04/07
19:15:46.00
17/04/07
19:16:12.00
tln
$BZ1503107-1_t0073$<tbV0>[-2.6,2.6,8.0,0.0,27,1,0]
27.028
64

2002,4.07
MIRTGS : RIGHTBACK : INTERNAL 2
MIR : ON : INTERNAL 2
OPTKBR

0.200000
8
8.000000
FILLER
RATIO
SPECTRUM
UNLOCKED 256

DOUBLE
64
COMBINED
1
0
0

0.002000
RATIO

1
0
TRUE
51149
0
LEFT NOT FITTED RIGHT NOT FITTED 0
NONE
NONE
15600
12
4.427000
51148
TRUE
1 0 8 72 0 0 0 0

15798

#HDR
-1
-1
#GR
µM
%T
2.38419e-05
0.0
2.000000
0.002000
12515
8
89.7969
54.2767
#DATA
2.000000	 65.5807
2.018000	 64.9842
2.036000	 64.8889
2.054000	 64.5956
2.072000	 64.3813
2.090000	 64.7548
2.108000	 64.9479
2.126000	 64.9419
2.144000	 64.6981
2.162000	 65.1824
2.180000	 64.6682
2.198000	 64.4878
2.216000	 64.763
2.234000	 64.7296
2.252000	 64.546
2.270000	 75.2482
2.288000	 64.5404
2.306000	 65.2329
2.324000	 63.9954
2.342000	 64.9555
2.360000	 64.7945
2.378000	 64.9921
2.396000	 65.1889
2.414000	 64.6035
2.432000	 64.5784
2.450000	 64.9818
2.468000	 65.0546
2.486000	 64.9484
2.504000	 64.5432
2.522000	 65.1746
2.540000	 64.8204
2.558000	 65.187
2.576000	 65.1806
2.594000	 64.9337
2.612000	 64.9471
2.630000	 65.257
2.648000	 65.0323
2.666000	 65.1678
2.684000	 64.8179
2.702000	 65.2641
2.720000	 64.6481
2.738000	 64.7867
2.756000	 65.0611
2.774000	 65.1011
2.792000	 65.0004
2.810000	 65.0129
2.828000	 65.2701
2.846000	 64.9181
2.864000	 64.7413
2.882000	 65.0832
2.900000	 64.9791
2.918000	 64.8377
2.936000	 64.9973
2.954000	 64.7778
2.972000	 65.1953
2.990000	 64.9799
3.008000	 65.0513
3.026000	 64.9969
3.044000	 64.8376
3.062000	 64.7869
3.080000	 65.1132
3.098000	 65.5564
3.116000	 64.7226
3.134000	 65.0489
3.152000	 65.1384
3.170000	 65.0203
3.188000	 65.0065
3.206000	 65.0197
3.224000	 64.8241
3.242000	 64.8166
3.260000	 64.9596
3.278000	 65.0218
3.296000	 64.9151
3.314000	 64.7832
3.332000	 64.8024
3.350000	 64.7512
3.368000	 64.9709
3.386000	 64.7259
3.404000	 64.6752
3.422000	 64.6246
3.440000	 64.8371
3.458000	 64.7428
3.476000	 64.8717
3.494000	 64.6645
3.512000	 64.864
3.530000	 64.6669
3.548000	 64.8186
3.566000	 64.8361
3.584000	 64.8586
3.602000	 64.9502
3.620000	 65.0031
3.638000	 64.8888
3.656000	 64.8733
3.674000	 64.9838
3.692000	 64.7612
3.710000	 64.7297
3.728000	 64.9573
3.746000	 64.905
3.764000	 64.8526
3.782000	 64.7248
3.800000	 64.7633
3.818000	 64.8158
3.836000	 64.6894
3.854000	 64.5095
3.872000	 64.6557
3.890000	 64.7904
3.908000	 64.7174
3.926000	 64.7167
3.944000	 64.6951
3.962000	 64.7055
3.980000	 64.7193
3.998000	 64.7639
4.016000	 64.5146
4.034000	 64.6069
4.052000	 64.8521
4.070000	 64.6977
4.088000	 64.7205
4.106000	 64.7288
4.124000	 64.8586
4.141999	 64.5781
4.160000	 64.4623
4.178000	 64.6596
4.196000	 64.529
4.214000	 64.6409
4.232000	 64.628
4.250000	 64.5792
4.268000	 64.6649
4.286000	 64.7278
4.304000	 64.5545
4.322000	 64.743
4.340000	 64.6029
4.358000	 64.5804
4.375999	 64.555
4.394000	 64.6305
4.412000	 64.6169
4.430000	 64.5878
4.448000	 64.5405
4.466000	 64.4555
4.484000	 64.4782
4.502000	 64.5658
4.520000	 64.5689
4.538000	 64.5803
4.556000	 64.4504
4.574000	 64.4959
4.592000	 64.4376
4.609999	 65.1386
4.628000	 62.8235
4.646000	 63.6873
4.664000	 64.1682
4.682000	 64.3719
4.700000	 64.6061
4.718000	 64.4558
4.736000	 64.4856
4.754000	 64.531
4.772000	 64.5096
4.790000	 64.5337
4.808000	 64.5163
4.826000	 64.4846
4.843999	 64.4571
4.862000	 64.4625
4.880000	 64.3327
4.898000	 64.2711
4.916000	 64.44
4.934000	 64.4322
4.952000	 64.4601
4.970000	 64.3442
4.988000	 64.3542
5.006000	 64.3998
5.024000	 64.3917
5.042000	 64.3348
5.060000	 64.2651
5.077999	 64.3165
5.096000	 64.3563
5.114000	 64.3113
5.132000	 64.2885
5.150000	 64.3347
5.168000	 64.3443
5.186000	 64.388
5.204000	 64.4373
5.222000	 64.4721
5.240000	 64.3823
5.258000	 64.3509
5.276000	 64.2842
5.294000	 64.2321
5.312000	 64.2441
5.330000	 64.2122
5.348000	 64.1857
5.366000	 64.2418
5.384000	 64.2849
5.402000	 64.3795
5.420000	 64.3071
5.438000	 64.2696
5.456000	 64.224
5.474000	 64.1979
5.492000	 64.2427
5.510000	 64.2144
5.528000	 64.2053
5.546000	 64.2971
5.564000	 64.2757
5.582000	 64.2621
5.600000	 64.343
5.618000	 64.1958
5.636000	 64.2047
5.654000	 64.2173
5.672000	 64.1434
5.690000	 64.141
5.708000	 64.0022
5.726000	 63.988
5.744000	 63.97
5.762000	 63.9842
5.780000	 64.0778
5.798000	 64.0728
5.816000	 64.0356
5.834000	 64.0868
5.852000	 63.9922
5.870000	 63.8897
5.888000	 63.8605
5.906000	 63.9601
5.923999	 64.076
5.942000	 64.098
5.960000	 64.1098
5.978000	 64.0186
5.996000	 63.8954
6.014000	 63.9305
6.032000	 64.0226
6.050000	 64.0219
6.068000	 64.0143
6.086000	 63.9431
6.104000	 63.8259
6.122000	 63.8501
6.140000	 64.0701
6.158000	 64.1128
6.176000	 64.1539
6.194000	 64.1754
6.212000	 64.0415
6.230000	 63.9632
6.248000	 63.9104
6.266000	 63.9026
6.284000	 63.8298
6.302000	 63.8474
6.320000	 63.9411
6.338000	 63.9356
6.356000	 63.9192
6.374000	 63.86
6.392000	 63.782
6.410000	 63.8202
6.428000	 63.8926
6.446000	 63.888
6.464000	 63.8685
6.482000	 63.9504
6.500000	 64.0336
6.518000	 63.9724
6.536000	 63.9268
6.554000	 63.9266
6.572000	 63.8841
6.590000	 63.8645
6.608000	 63.8931
6.626000	 63.9248
6.644000	 63.9171
6.662000	 63.7948
6.680000	 63.6767
6.698000	 63.7912
6.716000	 63.9736
6.734000	 64.0098
6.752000	 63.972
6.770000	 63.949
6.788000	 63.8939
6.806000	 63.8083
6.824000	 63.7109
6.842000	 63.6489
6.860000	 63.668
6.878000	 63.7566
6.896000	 63.9131
6.914000	 63.9407
6.932000	 63.8069
6.950000	 63.7315
6.968000	 63.7527
6.986000	 63.8328
7.004000	 63.914
7.022000	 63.8684
7.040000	 63.7578
7.058000	 63.7868
7.076000	 63.8999
7.094000	 63.8778
7.112000	 63.7587
7.130000	 63.7394
7.148000	 63.8421
7.166000	 63.9509
7.184000	 63.9645
7.202000	 63.8713
7.220000	 63.7696
7.238000	 63.7165
7.256000	 63.6704
7.274000	 63.6285
7.292000	 63.6217
7.310000	 63.6528
7.328000	 63.7003
7.346000	 63.7164
7.364000	 63.6949
7.382000	 63.6751
7.400000	 63.6388
7.418000	 63.5869
7.436000	 63.6032
7.454000	 63.7068
7.472000	 63.8011
7.490000	 63.8083
7.508000	 63.769
7.526000	 63.8023
7.544000	 63.9212
7.562000	 63.9669
7.580000	 63.8471
7.598000	 63.6934
7.616000	 63.6526
7.634000	 63.6921
7.652000	 63.7197
7.670000	 63.7189
7.688000	 63.6909
7.706000	 63.6115
7.724000	 63.4983
7.742000	 63.4384
7.760000	 63.4809
7.778000	 63.5662
7.796000	 63.614
7.814000	 63.608
7.832000	 63.5671
7.850000	 63.5255
7.868000	 63.5384
7.886000	 63.6129
7.904000	 63.6875
7.922000	 63.7133
7.940000	 63.7
7.958000	 63.6802
7.976000	 63.6658
7.994000	 63.6404
8.012000	 63.5936
8.030000	 63.554
8.048000	 63.5375
8.065999	 63.5094
8.084000	 63.4575
8.102000	 63.4404
8.120000	 63.4989
8.138000	 63.583
8.155999	 63.6233
8.173999	 63.6081
8.192000	 63.5617
8.210000	 63.5054
8.228000	 63.4619
8.246000	 63.4593
8.263999	 63.5054
8.282000	 63.5718
8.300000	 63.6237
8.318000	 63.661
8.336000	 63.7052
8.353999	 63.742
8.372000	 63.7204
8.390000	 63.6357
8.408000	 63.5614
8.426000	 63.5626
8.443999	 63.6078
8.462000	 63.6175
8.480000	 63.5735
8.498000	 63.5287
8.516000	 63.5281
8.533999	 63.5555
8.552000	 63.553
8.570000	 63.4811
8.588000	 63.3651
8.606000	 63.2777
8.624000	 63.2796
8.641999	 63.3721
8.660000	 63.4917
8.678000	 63.5627
8.696000	 63.5626
8.714000	 63.528
8.731999	 63.5033
8.750000	 63.5049
8.768000	 63.5256
8.786000	 63.5479
8.804000	 63.5601
8.821999	 63.5669
8.840000	 63.5833
8.858000	 63.6151
8.876000	 63.6493
8.894000	 63.6629
8.911999	 63.6431
8.930000	 63.5952
8.948000	 63.5356
8.966000	 63.4911
8.984000	 63.4674
9.001999	 63.4532
9.020000	 63.4342
9.038000	 63.4001
9.056000	 63.3489
9.074000	 63.2716
9.092000	 63.1869
9.109999	 63.1581
9.128000	 63.2127
9.146000	 63.2439
9.164000	 63.1454
9.182000	 63.1167
9.199999	 63.621
9.218000	 64.8524
9.236000	 66.2717
9.254000	 66.8828
9.272000	 66.143
9.289999	 64.5331
9.308000	 63.1187
9.326000	 62.5958
9.344000	 62.8411
9.362000	 63.2814
9.379999	 63.5014
9.398000	 63.478
9.416000	 63.3945
9.434000	 63.3696
9.452000	 63.3957
9.469999	 63.4185
9.488000	 63.3981
9.506000	 63.324
9.524000	 63.2155
9.542000	 63.1151
9.560000	 63.0668
9.577999	 63.0822
9.596000	 63.148
9.614000	 63.2274
9.632000	 63.2787
9.650000	 63.2882
9.667999	 63.2731
9.686000	 63.2657
9.704000	 63.2879
9.722000	 63.3344
9.740000	 63.3809
9.757999	 63.4071
9.776000	 63.4117
9.794000	 63.4069
9.812000	 63.405
9.830000	 63.4117
9.847999	 63.4276
9.866000	 63.4484
9.884000	 63.4611
9.902000	 63.4497
9.920000	 63.4081
9.937999	 63.3478
9.956000	 63.2893
9.974000	 63.2454
9.992000	 63.2134
10.01	63.1839
10.028	63.158
10.046	63.1527
10.064	63.1851
10.082	63.253
10.1	63.3308
10.118	63.387
10.136	63.408
10.154	63.4056
10.172	63.4033
10.19	63.4171
10.208	63.4422
10.226	63.4625
10.244	63.4649
10.262	63.4493
10.28	63.426
10.298	63.4055
10.316	63.3922
10.334	63.3855
10.352	63.3849
10.37	63.3925
10.388	63.4095
10.406	63.432
10.424	63.4516
10.442	63.4577
10.46	63.443
10.478	63.4065
10.496	63.3542
10.514	63.2983
10.532	63.2556
10.55	63.2408
10.568	63.2604
10.586	63.3078
10.604	63.3652
10.622	63.4098
10.64	63.4258
10.658	63.4106
10.676	63.3734
10.694	63.3265
10.712	63.2792
10.73	63.2347
10.748	63.1937
10.766	63.1572
10.784	63.128
10.802	63.1089
10.82	63.1003
10.838	63.0983
10.856	63.0967
10.874	63.0897
10.892	63.0763
10.91	63.0601
10.928	63.0488
10.946	63.0526
10.964	63.0798
10.982	63.1333
11	63.2087
11.018	63.2931
11.036	63.3715
11.054	63.4311
11.072	63.4674
11.09	63.4832
11.108	63.486
11.126	63.4839
11.144	63.4807
11.162	63.4774
11.18	63.4745
11.198	63.4746
11.216	63.482
11.234	63.4986
11.252	63.5206
11.27	63.5377
11.288	63.5357
11.306	63.504
11.324	63.4395
11.342	63.3498
11.36	63.2493
11.378	63.1576
11.396	63.091
11.414	63.0613
11.432	63.0744
11.45	63.1295
11.468	63.2178
11.486	63.3245
11.504	63.429
11.522	63.5094
11.54	63.5508
11.558	63.5484
11.576	63.5097
11.594	63.4505
11.612	63.3912
11.63	63.3489
11.648	63.3317
11.666	63.3393
11.684	63.3633
11.702	63.3915
11.72	63.4124
11.738	63.4183
11.756	63.4074
11.774	63.3837
11.792	63.3543
11.81	63.3276
11.828	63.31
11.846	63.305
11.864	63.3115
11.882	63.3257
11.9	63.3441
11.918	63.3651
11.936	63.3891
11.954	63.4195
11.972	63.4592
11.99	63.5081
12.008	63.562
12.026	63.6131
12.044	63.6517
12.062	63.6693
12.08	63.6626
12.098	63.6345
12.116	63.5941
12.134	63.5537
12.152	63.5251
12.17	63.5161
12.188	63.5286
12.206	63.5579
12.224	63.5942
12.242	63.6256
12.26	63.6416
12.278	63.6344
12.296	63.602
12.314	63.547
12.332	63.4765
12.35	63.3991
12.368	63.3238
12.386	63.2583
12.404	63.2071
12.422	63.1714
12.44	63.1496
12.458	63.138
12.476	63.1321
12.494	63.1277
12.512	63.1218
12.53	63.113
12.548	63.1014
12.566	63.0879
12.584	63.0745
12.602	63.0632
12.62	63.0553
12.638	63.0501
12.656	63.045
12.674	63.0361
12.692	63.0198
12.71	62.9943
12.728	62.9607
12.746	62.9233
12.764	62.8881
12.782	62.8613
12.8	62.8466
12.818	62.8454
12.836	62.8564
12.854	62.8769
12.872	62.9041
12.89	62.9358
12.908	62.9706
12.926	63.007
12.944	63.043
12.962	63.0741
12.98	63.094
12.998	63.0956
13.016	63.0734
13.034	63.0257
13.052	62.9562
13.07	62.8739
13.088	62.791
13.106	62.7207
13.124	62.6739
13.142	62.6567
13.16	62.6698
13.178	62.7085
13.196	62.7647
13.214	62.8279
13.232	62.8874
13.25	62.9338
13.268	62.9601
13.286	62.9627
13.304	62.9413
13.322	62.899
13.34	62.8417
13.358	62.7776
13.376	62.7157
13.394	62.6647
13.412	62.6317
13.43	62.6202
13.448	62.6301
13.466	62.6568
13.484	62.6928
13.502	62.7292
13.52	62.7578
13.538	62.7722
13.556	62.7697
13.574	62.7518
13.592	62.7234
13.61	62.6914
13.628	62.6637
13.646	62.6479
13.664	62.6496
13.682	62.672
13.7	62.7148
13.718	62.775
13.736	62.8472
13.754	62.9244
13.772	62.9997
13.79	63.0672
13.808	63.1225
13.826	63.1637
13.844	63.1903
13.862	63.2032
13.88	63.2039
13.898	63.1945
13.916	63.1769
13.934	63.1518
13.952	63.1193
13.97	63.079
13.988	63.0306
14.006	62.9737
14.024	62.9077
14.042	62.8328
14.06	62.7495
14.078	62.6586
14.096	62.5609
14.114	62.4578
14.132	62.3512
14.15	62.2435
14.168	62.1378
14.186	62.038
14.204	61.9482
14.222	61.8724
14.24	61.8127
14.258	61.7707
14.276	61.7451
14.294	61.7339
14.312	61.7347
14.33	61.7452
14.348	61.7645
14.366	61.7921
14.384	61.8301
14.402	61.8816
14.42	61.9503
14.438	62.0385
14.456	62.1468
14.474	62.273
14.492	62.4118
14.51	62.5551
14.528	62.6931
14.546	62.8168
14.564	62.9186
14.582	62.9938
14.6	63.0413
14.618	63.0638
14.636	63.0679
14.654	63.062
14.672	63.0546
14.69	63.0537
14.708	63.0651
14.726	63.0929
14.744	63.137
14.762	63.1956
14.78	63.264
14.798	63.3362
14.816	63.4053
14.834	63.4636
14.852	63.5037
14.87	63.5203
14.888	63.5101
14.906	63.4716
14.924	63.4059
14.942	63.3165
14.96	63.2104
14.978	63.0961
14.996	62.9833
15.014	62.8819
15.032	62.8027
15.05	62.7527
15.068	62.7359
15.086	62.7531
15.104	62.802
15.122	62.8752
15.14	62.9628
15.158	63.0543
15.176	63.1391
15.194	63.2064
15.212	63.2474
15.23	63.2583
15.248	63.2382
15.266	63.1889
15.284	63.116
15.302	63.0273
15.32	62.9306
15.338	62.8333
15.356	62.7427
15.374	62.6651
15.392	62.6027
15.41	62.5567
15.428	62.5268
15.446	62.5086
15.464	62.4984
15.482	62.4917
15.5	62.4831
15.518	62.4665
15.536	62.4379
15.554	62.3941
15.572	62.3322
15.59	62.2531
15.608	62.1596
15.626	62.0557
15.644	61.9485
15.662	61.8478
15.68	61.7614
15.698	61.697
15.716	61.6624
15.734	61.6611
15.752	61.6937
15.77	61.759
15.788	61.8498
15.806	61.957
15.824	62.0712
15.842	62.1808
15.86	62.2738
15.878	62.3436
15.896	62.3849
15.914	62.396
15.932	62.3807
15.95	62.3439
15.968	62.2939
15.986	62.2426
16.004	62.1982
16.022	62.1696
16.04	62.1652
16.058	62.1872
16.076	62.2372
16.094	62.3134
16.112	62.4101
16.13	62.5227
16.148	62.6443
16.166	62.7667
16.184	62.8846
16.202	62.9921
16.22	63.0843
16.238	63.1598
16.256	63.217
16.274	63.2572
16.292	63.2829
16.31	63.2961
16.328	63.3025
16.346	63.3062
16.364	63.3108
16.382	63.3217
16.4	63.3418
16.418	63.373
16.436	63.4172
16.454	63.4732
16.472	63.5401
16.49	63.6141
16.508	63.6901
16.526	63.7646
16.544	63.8297
16.562	63.8805
16.58	63.9128
16.598	63.921
16.616	63.904
16.634	63.8604
16.652	63.7921
16.67	63.702
16.688	63.5932
16.706	63.4731
16.724	63.3461
16.742	63.218
16.76	63.0953
16.778	62.9807
16.796	62.879
16.814	62.7921
16.832	62.7214
16.85	62.6679
16.868	62.6309
16.886	62.6103
16.904	62.6047
16.922	62.6133
16.94	62.6349
16.958	62.6681
16.976	62.7122
16.994	62.7649
17.012	62.8248
17.03	62.8908
17.048	62.9603
17.066	63.0317
17.084	63.1031
17.102	63.1709
17.12	63.2337
17.138	63.2877
17.156	63.3311
17.174	63.3618
17.192	63.3776
17.21	63.3782
17.228	63.3625
17.246	63.3317
17.264	63.286
17.282	63.2283
17.3	63.1603
17.318	63.0854
17.336	63.0074
17.354	62.9285
17.372	62.8543
17.39	62.7864
17.408	62.729
17.426	62.6839
17.444	62.6529
17.462	62.637
17.48	62.636
17.498	62.6491
17.516	62.6742
17.534	62.7099
17.552	62.7517
17.57	62.7982
17.588	62.8443
17.606	62.8884
17.624	62.9268
17.642	62.9576
17.66	62.9792
17.678	62.9906
17.696	62.9918
17.714	62.9833
17.732	62.966
17.75	62.9405
17.768	62.909
17.786	62.8721
17.804	62.832
17.822	62.7892
17.84	62.7457
17.858	62.7023
17.876	62.6601
17.894	62.6203
17.912	62.5834
17.93	62.5508
17.948	62.5227
17.966	62.5005
17.984	62.4844
18.002	62.4756
18.02	62.474
18.038	62.4802
18.056	62.4937
18.074	62.5143
18.092	62.5407
18.11	62.5725
18.128	62.6072
18.146	62.6443
18.164	62.6809
18.182	62.7158
18.2	62.7469
18.218	62.7725
18.236	62.7913
18.254	62.802
18.272	62.8043
18.29	62.798
18.308	62.7833
18.326	62.7618
18.344	62.7339
18.362	62.7018
18.38	62.6664
18.398	62.6301
18.416	62.5941
18.434	62.5605
18.452	62.5305
18.47	62.5053
18.488	62.4857
18.506	62.4724
18.524	62.4652
18.542	62.4642
18.56	62.4688
18.578	62.4788
18.596	62.4926
18.614	62.51
18.632	62.5291
18.65	62.5496
18.668	62.5694
18.686	62.5884
18.704	62.6044
18.722	62.6174
18.74	62.6259
18.758	62.63
18.776	62.6288
18.794	62.6225
18.812	62.611
18.83	62.5948
18.848	62.5743
18.866	62.55
18.884	62.5228
18.902	62.4932
18.92	62.462
18.938	62.4297
18.956	62.3974
18.974	62.3656
18.992	62.3352
19.01	62.3067
19.028	62.2811
19.046	62.2586
19.064	62.2402
19.082	62.2261
19.1	62.2171
19.118	62.2133
19.136	62.2153
19.154	62.2231
19.172	62.237
19.19	62.2569
19.208	62.2828
19.226	62.3146
19.244	62.3514
19.262	62.3932
19.28	62.4388
19.298	62.488
19.316	62.5393
19.334	62.5926
19.352	62.6461
19.37	62.7
19.388	62.7526
19.406	62.8039
19.424	62.8526
19.442	62.8986
19.46	62.9415
19.478	62.9809
19.496	63.0166
19.514	63.0485
19.532	63.0764
19.55	63.1005
19.568	63.1205
19.586	63.1365
19.604	63.1482
19.622	63.1554
19.64	63.158
19.658	63.1557
19.676	63.1486
19.694	63.1362
19.712	63.1185
19.73	63.0961
19.748	63.0689
19.766	63.0387
19.784	63.0053
19.802	62.9711
19.82	62.937
19.838	62.9048
19.856	62.8771
19.874	62.8542
19.892	62.8396
19.91	62.8329
19.928	62.8368
19.946	62.8511
19.964	62.8761
19.982	62.9124
20	62.958
20.018	63.0127
20.036	63.0745
20.054	63.1404
20.072	63.2101
20.09	63.278
20.108	63.345
20.126	63.4053
20.144	63.4589
20.162	63.5027
20.18	63.5349
20.198	63.5555
20.216	63.5626
20.234	63.5571
20.252	63.5397
20.27	63.5102
20.288	63.4723
20.306	63.4256
20.324	63.374
20.342	63.3196
20.36	63.2635
20.378	63.2105
20.396	63.1598
20.414	63.1157
20.432	63.078
20.45	63.0482
20.468	63.0279
20.486	63.016
20.504	63.0128
20.522	63.018
20.54	63.0297
20.558	63.0483
20.576	63.0708
20.594	63.0961
20.612	63.1232
20.63	63.1488
20.648	63.1736
20.666	63.1938
20.684	63.2096
20.702	63.2193
20.72	63.2216
20.738	63.2167
20.756	63.2033
20.774	63.1817
20.792	63.152
20.81	63.1137
20.828	63.0679
20.846	63.0156
20.864	62.9566
20.882	62.8935
20.9	62.8259
20.918	62.7561
20.936	62.686
20.954	62.6154
20.972	62.5483
20.99	62.4837
21.008	62.4244
21.026	62.3717
21.044	62.3256
21.062	62.2884
21.08	62.2596
21.098	62.2399
21.116	62.2298
21.134	62.2285
21.152	62.2357
21.17	62.2514
21.188	62.2733
21.206	62.3015
21.224	62.3345
21.242	62.3697
21.26	62.4078
21.278	62.4454
21.296	62.4819
21.314	62.5165
21.332	62.5466
21.35	62.573
21.368	62.5943
21.386	62.6099
21.404	62.6205
21.422	62.6265
21.44	62.6275
21.458	62.6255
21.476	62.6207
21.494	62.6137
21.512	62.6072
21.53	62.6004
21.548	62.5958
21.566	62.5952
21.584	62.5981
21.602	62.6068
21.62	62.6214
21.638	62.6419
21.656	62.6689
21.674	62.7024
21.692	62.7406
21.71	62.7837
21.728	62.8307
21.746	62.8784
21.764	62.928
21.782	62.9763
21.8	63.0209
21.818	63.0627
21.836	63.0978
21.854	63.1259
21.872	63.1468
21.89	63.158
21.908	63.1601
21.926	63.1532
21.944	63.1365
21.962	63.1105
21.98	63.0776
21.998	63.0369
22.016	62.9903
22.034	62.9418
22.052	62.8895
22.07	62.8375
22.088	62.7888
22.106	62.742
22.124	62.7011
22.142	62.6671
22.16	62.6397
22.178	62.6217
22.196	62.6131
22.214	62.6136
22.232	62.6243
22.25	62.6452
22.268	62.6745
22.286	62.7121
22.304	62.7581
22.322	62.8087
22.34	62.8641
22.358	62.9235
22.376	62.983
22.394	63.0434
22.412	63.1031
22.43	63.1589
22.448	63.2122
22.466	63.261
22.484	63.3034
22.502	63.3404
22.52	63.3706
22.538	63.3932
22.556	63.4087
22.574	63.4165
22.592	63.4166
22.61	63.409
22.628	63.3935
22.646	63.3703
22.664	63.3393
22.682	63.3001
22.7	63.2531
22.718	63.1977
22.736	63.1335
22.754	63.0608
22.772	62.9789
22.79	62.8872
22.808	62.7861
22.826	62.675
22.844	62.5536
22.862	62.4221
22.88	62.2809
22.898	62.1299
22.916	61.9691
22.934	61.8006
22.952	61.6245
22.97	61.441
22.988	61.2538
23.006	61.0628
23.024	60.8684
23.042	60.6764
23.06	60.4864
23.078	60.2991
23.096	60.1207
23.114	59.9503
23.132	59.7891
23.15	59.6434
23.168	59.5128
23.186	59.3975
23.204	59.3021
23.222	59.226
23.24	59.1694
23.258	59.1353
23.276	59.1241
23.294	59.1348
23.312	59.1672
23.33	59.2217
23.348	59.2975
23.366	59.3928
23.384	59.5086
23.402	59.6437
23.42	59.7944
23.438	59.9612
23.456	60.1437
23.474	60.3382
23.492	60.5448
23.51	60.7635
23.528	60.9909
23.546	61.2263
23.564	61.4704
23.582	61.7204
23.6	61.9754
23.618	62.2364
23.636	62.5007
23.654	62.7673
23.672	63.0373
23.69	63.3082
23.708	63.5786
23.726	63.8499
23.744	64.1196
23.762	64.3855
23.78	64.6497
23.798	64.909
23.816	65.1596
23.834	65.4044
23.852	65.64
23.87	65.8613
23.888	66.0702
23.906	66.2655
23.924	66.4421
23.942	66.6004
23.96	66.7407
23.978	66.86
23.996	66.9567
24.014	67.0324
24.032	67.0863
24.05	67.1173
24.068	67.1258
24.086	67.1135
24.104	67.0818
24.122	67.0286
24.14	66.9574
24.158	66.8731
24.176	66.7728
24.194	66.659
24.212	66.5381
24.23	66.4101
24.248	66.2737
24.266	66.1367
24.284	66.003
24.302	65.8685
24.32	65.7388
24.338	65.6194
24.356	65.5074
24.374	65.4044
24.392	65.3137
24.41	65.2357
24.428	65.1692
24.446	65.1145
24.464	65.0722
24.482	65.0422
24.5	65.0224
24.518	65.0113
24.536	65.0107
24.554	65.0181
24.572	65.0303
24.59	65.0485
24.608	65.0722
24.626	65.0972
24.644	65.1217
24.662	65.1476
24.68	65.173
24.698	65.1957
24.716	65.2159
24.734	65.2346
24.752	65.2525
24.77	65.2686
24.788	65.2832
24.806	65.2996
24.824	65.3194
24.842	65.3405
24.86	65.3656
24.878	65.3979
24.896	65.4362
24.914	65.4807
24.932	65.5349
24.95	65.6003
24.968	65.675
24.986	65.7612
25.004	65.8617
25.022	65.9766
25.04	66.1046
25.058	66.245
25.076	66.3982
25.094	66.5654
25.112	66.7419
25.13	66.9235
25.148	67.1149
25.166	67.3123
25.184	67.5072
25.202	67.6969
25.22	67.887
25.238	68.0684
25.256	68.2319
25.274	68.3835
25.292	68.5203
25.31	68.6317
25.328	68.7121
25.346	68.7687
25.364	68.7946
25.382	68.7819
25.4	68.7325
25.418	68.6476
25.436	68.521
25.454	68.348
25.472	68.132
25.49	67.8722
25.508	67.5663
25.526	67.2117
25.544	66.81
25.562	66.3662
25.58	65.8847
25.598	65.3585
25.616	64.7939
25.634	64.203
25.652	63.5918
25.67	62.9494
25.688	62.2896
25.706	61.6285
25.724	60.9637
25.742	60.2898
25.76	59.6254
25.778	58.9872
25.796	58.3626
25.814	57.7571
25.832	57.1878
25.85	56.6655
25.868	56.1769
25.886	55.7318
25.904	55.3436
25.922	55.0148
25.94	54.738
25.958	54.5215
25.976	54.374
25.994	54.2941
26.012	54.2791
26.03	54.3316
26.048	54.4545
26.066	54.6504
26.084	54.9134
26.102	55.2362
26.12	55.6152
26.138	56.0585
26.156	56.5558
26.174	57.0946
26.192	57.6725
26.21	58.2985
26.228	58.9585
26.246	59.6378
26.264	60.3381
26.282	61.0649
26.3	61.8053
26.318	62.5466
26.336	63.295
26.354	64.051
26.372	64.8033
26.39	65.5414
26.408	66.2706
26.426	66.9912
26.444	67.6986
26.462	68.389
26.48	69.0658
26.498	69.7278
26.516	70.372
26.534	70.9954
26.552	71.5974
26.57	72.182
26.588	72.7534
26.606	73.3128
26.624	73.8538
26.642	74.3849
26.66	74.9166
26.678	75.4535
26.696	75.9855
26.714	76.5222
26.732	77.0753
26.75	77.6501
26.768	78.2365
26.786	78.8425
26.804	79.4772
26.822	80.1461
26.84	80.8426
26.858	81.5683
26.876	82.3251
26.894	83.1156
26.912	83.9398
26.93	84.7932
26.948	85.671
26.966	86.617
26.984	87.7031
27.002	88.7537
27.02	89.5777
27.028	89.7969