File: Bakgrunnsmateriale/MATLAB/FTIR/ftir_data/subAa/Mapping_121/BZ1503107-1_t27_cm-1.asc
PE IR       SPECTRUM    SPECTRUM    ASCII       PEDS        1.60
  -1
BZ6F23~1.ASC
17/04/07
15:28:19.00
17/04/07
15:28:19.00
tln
$BZ1503107-1_t0027$<tbV0>[2.6,-7.8,8.0,0.0,27,1,0]
370
64

2002,4.07
MIRTGS : RIGHTBACK : INTERNAL 2
MIR : ON : INTERNAL 2
OPTKBR

0.200000
8
8.000000
FILLER
RATIO
SPECTRUM
UNLOCKED 256

DOUBLE
64
COMBINED
1
0
0

1.000000
RATIO

1
0
TRUE
51149
0
LEFT NOT FITTED RIGHT NOT FITTED 0
NONE
NONE
15600
12
4.427000
51148
TRUE
1 0 8 72 0 0 0 0

15798

#HDR
-1
-1
#GR
CM-1
%T
2.38419e-05
0.0
5000
-1.000000
4631
8
81.2448
24.9181
#DATA
5000	64.9051
4996	64.1675
4992	64.0726
4988	64.3619
4984	64.5679
4980	64.5499
4976	64.4991
4972	64.5267
4968	64.5431
4964	64.4317
4960	64.3239
4956	64.2627
4952	64.2942
4948	64.3795
4944	64.4638
4940	64.6667
4936	64.5668
4932	64.1961
4928	64.2812
4924	64.4132
4920	64.2093
4916	64.2564
4912	64.5958
4908	64.7165
4904	64.395
4900	64.2219
4896	64.5608
4892	64.755
4888	64.5779
4884	64.6298
4880	65.0156
4876	65.1929
4872	65.0011
4868	64.8394
4864	64.9064
4860	65.0172
4856	65.1852
4852	65.1228
4848	64.7132
4844	64.6017
4840	64.8802
4836	65.0486
4832	65.0223
4828	65.0162
4824	65.0328
4820	65.1196
4816	65.2956
4812	65.2892
4808	65.0378
4804	64.932
4800	65.0741
4796	65.0566
4792	64.959
4788	64.9855
4784	64.9766
4780	64.9045
4776	64.9218
4772	65.1061
4768	65.217
4764	65.1434
4760	65.1349
4756	65.3564
4752	65.562
4748	65.4741
4744	65.2709
4740	65.3073
4736	65.5191
4732	65.544
4728	65.2765
4724	65.0921
4720	65.217
4716	65.3576
4712	65.4479
4708	65.4193
4704	65.2454
4700	65.1471
4696	65.1149
4692	65.0525
4688	65.0057
4684	65.0375
4680	64.989
4676	64.9336
4672	65.0294
4668	65.0925
4664	64.9277
4660	64.8083
4656	65.0855
4652	65.3454
4648	65.3782
4644	65.3035
4640	65.0305
4636	64.7323
4632	64.4964
4628	64.3487
4624	64.4009
4620	64.5573
4616	64.6898
4612	64.8514
4608	64.9566
4604	64.7343
4600	64.448
4596	64.3886
4592	64.362
4588	64.2787
4584	64.2965
4580	64.5288
4576	64.6766
4572	64.6424
4568	64.7004
4564	64.6873
4560	64.4962
4556	64.2806
4552	64.1619
4548	64.3425
4544	64.6964
4540	64.8279
4536	64.5915
4532	64.2623
4528	64.1299
4524	64.0533
4520	64.0583
4516	64.1664
4512	64.1961
4508	64.1852
4504	64.1158
4500	64.0523
4496	64.11
4492	64.0505
4488	63.9126
4484	63.897
4480	63.8598
4476	63.8751
4472	64.0639
4468	64.0936
4464	64.2794
4460	64.9853
4456	65.1448
4452	64.3496
4448	63.9225
4444	63.9119
4440	64.6539
4436	65.9539
4432	67.0913
4428	68.7423
4424	73.6128
4420	78.7838
4416	71.6847
4412	61.7287
4408	62.9941
4404	66.9573
4400	67.0413
4396	66.2774
4392	65.4367
4388	64.8053
4384	64.8074
4380	64.9654
4376	64.8367
4372	64.6614
4368	64.3796
4364	64.1826
4360	64.2663
4356	64.133
4352	63.9954
4348	64.2049
4344	64.3934
4340	64.4431
4336	64.3086
4332	64.0811
4328	64.0509
4324	64.2414
4320	64.454
4316	64.4684
4312	64.369
4308	64.3778
4304	64.559
4300	64.7334
4296	64.774
4292	64.7746
4288	64.7823
4284	64.7561
4280	64.5472
4276	64.3139
4272	64.3034
4268	64.3555
4264	64.4504
4260	64.6513
4256	64.7472
4252	64.7682
4248	64.8113
4244	64.795
4240	64.791
4236	64.8439
4232	64.925
4228	64.8824
4224	64.7592
4220	64.79
4216	64.7743
4212	64.704
4208	64.8518
4204	65.0476
4200	65.0784
4196	65.1056
4192	65.1842
4188	65.0212
4184	64.663
4180	64.4749
4176	64.5228
4172	64.6724
4168	64.7992
4164	64.8814
4160	64.9035
4156	64.9426
4152	65.0136
4148	65.0348
4144	65.1953
4140	65.3601
4136	65.2509
4132	65.0728
4128	65.0481
4124	65.0609
4120	65.0057
4116	65.045
4112	65.2788
4108	65.4559
4104	65.3422
4100	65.154
4096	65.1104
4092	65.1498
4088	65.0946
4084	64.9535
4080	65.0141
4076	65.1255
4072	65.0522
4068	65.0151
4064	65.0564
4060	65.1244
4056	65.1968
4052	65.1794
4048	65.1302
4044	65.087
4040	65.1828
4036	65.3334
4032	65.2906
4028	65.2258
4024	65.2363
4020	65.1713
4016	65.0981
4012	65.1137
4008	65.1223
4004	65.0932
4000	65.0642
3996	65.0944
3992	65.1607
3988	65.1447
3984	65.1257
3980	65.2416
3976	65.2972
3972	65.184
3968	65.1487
3964	65.2378
3960	65.2468
3956	65.1359
3952	65.0809
3948	65.0913
3944	65.0744
3940	65.0465
3936	65.0162
3932	65.0305
3928	65.0572
3924	65.1233
3920	65.195
3916	65.1283
3912	65.0857
3908	65.1014
3904	65.0972
3900	65.1601
3896	65.2504
3892	65.2332
3888	65.1355
3884	65.0643
3880	64.9795
3876	64.9238
3872	64.9741
3868	65.0096
3864	64.9869
3860	64.9734
3856	64.9673
3852	64.9915
3848	65.0391
3844	65.103
3840	65.159
3836	65.1061
3832	64.9962
3828	64.91
3824	64.8489
3820	64.8211
3816	64.7971
3812	64.7842
3808	64.922
3804	65.1896
3800	65.3549
3796	65.3769
3792	65.2919
3788	65.0768
3784	64.8945
3780	64.9883
3776	65.2365
3772	65.3481
3768	65.3307
3764	65.3565
3760	65.3657
3756	65.2407
3752	65.1198
3748	65.1502
3744	65.2165
3740	65.1181
3736	65.0128
3732	65.1334
3728	65.2447
3724	65.145
3720	65.0988
3716	65.2337
3712	65.371
3708	65.3642
3704	65.2256
3700	65.183
3696	65.2764
3692	65.2866
3688	65.2077
3684	65.1932
3680	65.2403
3676	65.2993
3672	65.379
3668	65.4264
3664	65.4389
3660	65.4675
3656	65.4847
3652	65.4189
3648	65.2622
3644	65.1132
3640	65.015
3636	65.0806
3632	65.2289
3628	65.222
3624	65.2299
3620	65.3178
3616	65.3024
3612	65.2086
3608	65.1498
3604	65.1644
3600	65.2115
3596	65.2585
3592	65.3412
3588	65.393
3584	65.3116
3580	65.1601
3576	65.0148
3572	64.9147
3568	64.8861
3564	64.9196
3560	65.0659
3556	65.2068
3552	65.0981
3548	64.9304
3544	64.9493
3540	64.9891
3536	65.0008
3532	65.0613
3528	65.1062
3524	65.1883
3520	65.2561
3516	65.1985
3512	65.155
3508	65.1382
3504	65.0431
3500	64.9595
3496	64.9663
3492	64.9809
3488	64.9825
3484	64.9816
3480	64.9902
3476	65.0818
3472	65.1872
3468	65.2299
3464	65.1266
3460	64.9565
3456	64.9339
3452	64.9394
3448	64.897
3444	64.9054
3440	64.9048
3436	64.8973
3432	65.0115
3428	65.1984
3424	65.2997
3420	65.2302
3416	65.0472
3412	64.9791
3408	65.0716
3404	65.1459
3400	65.1586
3396	65.18
3392	65.2387
3388	65.273
3384	65.2677
3380	65.2943
3376	65.3046
3372	65.2137
3368	65.0818
3364	64.9897
3360	64.9779
3356	65.0537
3352	65.1477
3348	65.1716
3344	65.1342
3340	65.1465
3336	65.1999
3332	65.1766
3328	65.1211
3324	65.1711
3320	65.2216
3316	65.1373
3312	65.0258
3308	64.9889
3304	64.9958
3300	65.009
3296	65.0087
3292	64.9924
3288	65.0369
3284	65.1232
3280	65.1338
3276	65.1095
3272	65.0864
3268	65.0717
3264	65.1189
3260	65.0994
3256	65.019
3252	65.069
3248	65.148
3244	65.1671
3240	65.1727
3236	65.1253
3232	65.0883
3228	65.14
3224	65.1732
3220	65.1268
3216	65.0817
3212	65.0444
3208	65.0448
3204	65.1015
3200	65.12
3196	65.0588
3192	65.0295
3188	65.1027
3184	65.1086
3180	65.0745
3176	65.1166
3172	65.0988
3168	65.0803
3164	65.1442
3160	65.189
3156	65.1599
3152	65.0572
3148	64.9611
3144	64.9562
3140	65.049
3136	65.1097
3132	65.143
3128	65.2473
3124	65.2614
3120	65.1764
3116	65.1444
3112	65.1197
3108	65.0339
3104	65.0039
3100	65.1025
3096	65.1185
3092	65.0104
3088	65.0103
3084	65.1286
3080	65.1831
3076	65.1715
3072	65.2001
3068	65.2431
3064	65.2388
3060	65.2088
3056	65.1911
3052	65.1441
3048	65.083
3044	65.1194
3040	65.1496
3036	65.0044
3032	64.8654
3028	64.9199
3024	65.0062
3020	65.0079
3016	65.0033
3012	65.0006
3008	64.993
3004	65.0523
3000	65.1159
2996	65.062
2992	65.0078
2988	65.0172
2984	65.01
2980	64.9707
2976	64.8901
2972	64.8134
2968	64.779
2964	64.7975
2960	64.8684
2956	64.9323
2952	64.9732
2948	64.9828
2944	64.9364
2940	64.8731
2936	64.8088
2932	64.7735
2928	64.8475
2924	64.9419
2920	64.947
2916	64.936
2912	64.9552
2908	64.9299
2904	64.9026
2900	64.9051
2896	64.8639
2892	64.8593
2888	64.9562
2884	65.0274
2880	65.0042
2876	64.9853
2872	65.024
2868	65.0739
2864	65.1213
2860	65.1275
2856	65.059
2852	64.9717
2848	64.9405
2844	64.9416
2840	64.9129
2836	64.9156
2832	64.9849
2828	65.0582
2824	65.0558
2820	64.9708
2816	64.9285
2812	64.9305
2808	64.9117
2804	64.9481
2800	65.093
2796	65.2232
2792	65.2187
2788	65.1164
2784	65.0112
2780	64.9845
2776	65.0406
2772	65.1307
2768	65.1871
2764	65.1469
2760	65.0468
2756	65.0315
2752	65.098
2748	65.1191
2744	65.0805
2740	65.015
2736	64.9906
2732	65.0305
2728	65.0732
2724	65.058
2720	65.0107
2716	65.0293
2712	65.0642
2708	65.0526
2704	65.0553
2700	65.0728
2696	65.05
2692	65.0206
2688	65.0568
2684	65.0946
2680	65.0757
2676	65.0487
2672	65.013
2668	64.9837
2664	65.0006
2660	65.023
2656	64.9972
2652	64.9459
2648	64.9384
2644	64.9966
2640	65.068
2636	65.0622
2632	64.9929
2628	64.9405
2624	64.9372
2620	64.9473
2616	64.9122
2612	64.8795
2608	64.8587
2604	64.8514
2600	64.9268
2596	65.0279
2592	65.0663
2588	65.0305
2584	64.9918
2580	65.0227
2576	65.0278
2572	64.9612
2568	64.9444
2564	65.0248
2560	65.1304
2556	65.1659
2552	65.0661
2548	64.9288
2544	64.9277
2540	65.0171
2536	65.0393
2532	64.9761
2528	64.9153
2524	64.9174
2520	64.9504
2516	64.954
2512	64.934
2508	64.8765
2504	64.8185
2500	64.8875
2496	65.0289
2492	65.0928
2488	65.049
2484	64.9626
2480	64.886
2476	64.8548
2472	64.8783
2468	64.8817
2464	64.8602
2460	64.8428
2456	64.8203
2452	64.8048
2448	64.812
2444	64.8478
2440	64.8883
2436	64.9303
2432	64.9783
2428	65.0513
2424	65.1498
2420	65.1273
2416	65.0127
2412	65.0202
2408	65.0717
2404	64.9743
2400	64.8329
2396	64.8532
2392	64.944
2388	64.9497
2384	64.8932
2380	64.8176
2376	64.7861
2372	64.8202
2368	64.8823
2364	64.9437
2360	64.958
2356	64.9302
2352	64.895
2348	64.8618
2344	64.872
2340	64.9155
2336	64.9163
2332	64.9113
2328	64.9046
2324	64.8511
2320	64.8544
2316	64.9225
2312	64.9142
2308	64.8145
2304	64.744
2300	64.7675
2296	64.8283
2292	64.866
2288	64.8623
2284	64.8345
2280	64.8231
2276	64.8418
2272	64.8519
2268	64.8488
2264	64.8616
2260	64.8569
2256	64.8092
2252	64.7737
2248	64.8059
2244	64.8397
2240	64.8439
2236	64.8911
2232	64.9365
2228	64.9327
2224	64.9206
2220	64.9136
2216	64.9263
2212	64.9333
2208	64.9047
2204	64.9003
2200	64.9313
2196	64.9376
2192	64.9529
2188	64.9787
2184	64.9387
2180	64.855
2176	64.8078
2172	64.8329
2168	64.8448
2164	64.8316
2160	64.87
2156	64.8646
2152	64.7727
2148	64.7063
2144	64.7276
2140	64.7441
2136	64.7165
2132	64.7583
2128	64.8229
2124	64.8408
2120	64.8472
2116	64.8399
2112	64.8309
2108	64.8313
2104	64.8263
2100	64.8155
2096	64.8053
2092	64.7813
2088	64.7385
2084	64.7381
2080	64.8163
2076	64.8424
2072	64.7749
2068	64.7195
2064	64.7127
2060	64.7479
2056	64.7853
2052	64.807
2048	64.8418
2044	64.8848
2040	64.8693
2036	64.8122
2032	64.8034
2028	64.8131
2024	64.8263
2020	64.8549
2016	64.876
2012	64.8921
2008	64.8853
2004	64.8721
2000	64.8396
1996	64.7791
1992	64.7693
1988	64.7605
1984	64.7192
1980	64.7321
1976	64.7751
1972	64.7905
1968	64.782
1964	64.7618
1960	64.7525
1956	64.7885
1952	64.8274
1948	64.7908
1944	64.7527
1940	64.7513
1936	64.7221
1932	64.6728
1928	64.6517
1924	64.6867
1920	64.7025
1916	64.6929
1912	64.7298
1908	64.7428
1904	64.6899
1900	64.6223
1896	64.5671
1892	64.5789
1888	64.651
1884	64.6574
1880	64.6079
1876	64.6293
1872	64.6928
1868	64.7038
1864	64.6323
1860	64.5648
1856	64.6188
1852	64.6923
1848	64.6904
1844	64.7249
1840	64.7738
1836	64.7344
1832	64.659
1828	64.6569
1824	64.7066
1820	64.7248
1816	64.7395
1812	64.7377
1808	64.6882
1804	64.6677
1800	64.6683
1796	64.5908
1792	64.4827
1788	64.4611
1784	64.4936
1780	64.5423
1776	64.603
1772	64.5935
1768	64.5209
1764	64.4856
1760	64.4946
1756	64.4985
1752	64.4707
1748	64.4085
1744	64.3314
1740	64.2227
1736	64.0934
1732	64.0599
1728	64.1179
1724	64.1439
1720	64.1806
1716	64.3054
1712	64.4056
1708	64.4441
1704	64.5561
1700	64.6808
1696	64.6637
1692	64.5926
1688	64.5805
1684	64.5653
1680	64.5324
1676	64.5411
1672	64.5785
1668	64.6116
1664	64.5859
1660	64.4924
1656	64.409
1652	64.3692
1648	64.3543
1644	64.3675
1640	64.441
1636	64.5158
1632	64.501
1628	64.4365
1624	64.3625
1620	64.3047
1616	64.3147
1612	64.3907
1608	64.4914
1604	64.5154
1600	64.4358
1596	64.4012
1592	64.4217
1588	64.4053
1584	64.4183
1580	64.485
1576	64.4958
1572	64.4442
1568	64.4339
1564	64.4958
1560	64.5254
1556	64.4727
1552	64.4293
1548	64.3978
1544	64.352
1540	64.3626
1536	64.4574
1532	64.5581
1528	64.5542
1524	64.4729
1520	64.4706
1516	64.5476
1512	64.5788
1508	64.537
1504	64.4721
1500	64.4251
1496	64.3996
1492	64.3907
1488	64.4138
1484	64.4537
1480	64.4727
1476	64.4471
1472	64.3589
1468	64.2761
1464	64.254
1460	64.2383
1456	64.2442
1452	64.2725
1448	64.2545
1444	64.26
1440	64.3182
1436	64.3796
1432	64.4372
1428	64.4761
1424	64.4812
1420	64.4269
1416	64.3407
1412	64.3197
1408	64.3892
1404	64.3638
1400	64.2489
1396	64.2336
1392	64.2399
1388	64.2201
1384	64.2185
1380	64.2358
1376	64.2802
1372	64.319
1368	64.282
1364	64.1852
1360	64.1556
1356	64.2345
1352	64.2873
1348	64.2653
1344	64.3043
1340	64.393
1336	64.3839
1332	64.2958
1328	64.2228
1324	64.1891
1320	64.2277
1316	64.2803
1312	64.2034
1308	64.1158
1304	64.1399
1300	64.1538
1296	64.1413
1292	64.1832
1288	64.248
1284	64.2456
1280	64.1843
1276	64.1332
1272	64.0708
1268	64.0343
1264	64.1071
1260	64.1378
1256	64.0895
1252	64.1141
1248	64.148
1244	64.1374
1240	64.1119
1236	64.1086
1232	64.1475
1228	64.1284
1224	64.0358
1220	63.9953
1216	64.0314
1212	64.0447
1208	64.0227
1204	64.0392
1200	64.0671
1196	64.0829
1192	64.0906
1188	64.0503
1184	64.0311
1180	64.0652
1176	64.0321
1172	63.9679
1168	63.9865
1164	64.039
1160	64.0359
1156	63.9379
1152	63.8223
1148	63.8338
1144	63.9573
1140	64.03
1136	64.0346
1132	64.0174
1128	63.9274
1124	63.8421
1120	63.8911
1116	63.9897
1112	63.9996
1108	63.9666
1104	64.0309
1100	64.0923
1096	64.0499
1092	64.0736
1088	64.1457
1084	64.1177
1080	64.0532
1076	64.0093
1072	63.9957
1068	64.0359
1064	64.0278
1060	63.9417
1056	63.9347
1052	64.0232
1048	64.0631
1044	64.003
1040	63.9399
1036	63.987
1032	64.0838
1028	64.151
1024	64.1852
1020	64.1425
1016	64.0822
1012	64.0019
1008	63.8557
1004	63.8321
1000	64.0033
996	 64.1577
992	 64.1286
988	 63.9747
984	 63.9668
980	 64.124
976	 64.1426
972	 64.0861
968	 64.1022
964	 64.133
960	 64.1939
956	 64.2259
952	 64.2735
948	 64.3258
944	 64.1754
940	 63.9567
936	 63.9433
932	 64.0594
928	 64.0972
924	 64.0751
920	 64.0757
916	 64.1118
912	 64.1301
908	 64.0486
904	 63.96
900	 63.9516
896	 64.01
892	 64.0626
888	 64.041
884	 64.0783
880	 64.219
876	 64.2248
872	 64.0912
868	 64.0559
864	 64.1144
860	 64.0763
856	 63.917
852	 63.7858
848	 63.727
844	 63.7834
840	 64.0442
836	 64.2333
832	 64.1148
828	 63.9914
824	 63.9476
820	 63.8455
816	 63.7925
812	 63.8421
808	 63.8729
804	 63.8703
800	 64.0355
796	 64.2494
792	 64.337
788	 64.351
784	 64.2594
780	 64.0468
776	 63.8932
772	 63.8467
768	 63.8715
764	 64.0645
760	 64.1614
756	 63.982
752	 63.8623
748	 63.9698
744	 63.9821
740	 63.9077
736	 64.0898
732	 64.2267
728	 63.9862
724	 63.6041
720	 63.3892
716	 63.3256
712	 63.383
708	 63.7235
704	 63.9693
700	 63.8082
696	 63.8925
692	 64.508
688	 64.6903
684	 64.0261
680	 63.2961
676	 63.1035
672	 63.4703
668	 64.0234
664	 64.1939
660	 63.7729
656	 63.2124
652	 62.9658
648	 63.1865
644	 63.8011
640	 64.3213
636	 64.5514
632	 64.7679
628	 64.94
624	 64.8414
620	 64.3952
616	 64.0033
612	 63.9566
608	 64.002
604	 64.2539
600	 64.5669
596	 64.3894
592	 63.9286
588	 63.6655
584	 63.7021
580	 63.9286
576	 64.062
572	 63.8327
568	 63.5644
564	 63.6827
560	 63.9444
556	 64.0953
552	 64.3809
548	 64.5025
544	 64.0279
540	 63.599
536	 63.72
532	 63.7311
528	 63.5227
524	 63.4952
520	 63.4142
516	 63.6355
512	 64.2257
508	 64.4505
504	 64.1581
500	 63.7477
496	 63.4187
492	 63.3269
488	 63.6822
484	 64.2196
480	 64.4928
476	 64.1168
472	 63.4745
468	 63.3139
464	 63.7716
460	 64.3909
456	 64.3272
452	 63.8235
448	 62.9354
444	 61.2832
440	 60.1548
436	 60.3106
432	 61.7928
428	 64
424	 63.765
420	 61.6137
416	 61.7591
412	 63.1289
408	 63.7562
404	 65.4393
400	 69.1262
396	 74.3865
392	 76.7252
388	 78.0421
384	 81.2448
380	 75.0252
376	 60.0569
372	 38.2093
370	 24.9181