File: Bakgrunnsmateriale/MATLAB/FTIR/ftir_data/subAa/Mapping_121/BZ1503107-1_e123.asc
PE IR       SPECTRUM    SPECTRUM    ASCII       PEDS        1.60
  -1
BZD0AE~1.ASC
17/04/07
15:04:00.00
17/04/07
15:04:27.00
tln
$BZ1503107-1_e0123$<ebV0>[-23.3,12.1,10.0,0.0,27,1,0]
27.028
64

2002,4.07
MIRTGS : RIGHTBACK : INTERNAL 2
MIR : ON : INTERNAL 2
OPTKBR

0.200000
8
8.000000
FILLER
SINGLE
SPECTRUM
UNLOCKED 256

DOUBLE

COMBINED
1
0
0

0.002000
BACKG

1
0
TRUE
51149
0
LEFT NOT FITTED RIGHT NOT FITTED 0
NONE
NONE
15600
12
4.427000
51148
TRUE
1 0 8 72 0 0 0 0

15798

#HDR
-1
-1
#GR
µM
EGY
2.38419e-05
0.0
2.000000
0.002000
12515
8
2.463481
0.008559
#DATA
2.000000	 0.770044
2.018000	 0.799731
2.036000	 0.813446
2.054000	 0.831527
2.072000	 0.855579
2.090000	 0.883308
2.108000	 0.901504
2.126000	 0.908079
2.144000	 0.920386
2.162000	 0.934329
2.180000	 0.957972
2.198000	 0.986774
2.216000	 1.004288
2.234000	 1.019942
2.252000	 0.998380
2.270000	 1.043423
2.288000	 1.060475
2.306000	 1.087550
2.324000	 1.125967
2.342000	 1.159602
2.360000	 1.184762
2.378000	 1.198812
2.396000	 1.214859
2.414000	 1.229697
2.432000	 1.256668
2.450000	 1.297925
2.468000	 1.338004
2.486000	 1.375365
2.504000	 1.400395
2.522000	 1.420403
2.540000	 1.430890
2.558000	 1.436702
2.576000	 1.450646
2.594000	 1.455492
2.612000	 1.495966
2.630000	 1.516293
2.648000	 1.555267
2.666000	 1.555025
2.684000	 1.579584
2.702000	 1.584350
2.720000	 1.573727
2.738000	 1.574244
2.756000	 1.582117
2.774000	 1.595906
2.792000	 1.612504
2.810000	 1.626751
2.828000	 1.635279
2.846000	 1.637261
2.864000	 1.631575
2.882000	 1.618335
2.900000	 1.604876
2.918000	 1.592637
2.936000	 1.599981
2.954000	 1.612373
2.972000	 1.635913
2.990000	 1.665426
3.008000	 1.695353
3.026000	 1.726976
3.044000	 1.753170
3.062000	 1.770674
3.080000	 1.784494
3.098000	 1.795888
3.116000	 1.799589
3.134000	 1.803963
3.152000	 1.807639
3.170000	 1.817101
3.188000	 1.836204
3.206000	 1.856035
3.224000	 1.882591
3.242000	 1.921137
3.260000	 1.942373
3.278000	 1.969867
3.296000	 1.989947
3.314000	 1.972750
3.332000	 2.031838
3.350000	 2.034832
3.368000	 1.977594
3.386000	 1.929055
3.404000	 1.837817
3.422000	 1.787141
3.440000	 1.941403
3.458000	 1.994947
3.476000	 2.013117
3.494000	 1.913287
3.512000	 2.023983
3.530000	 2.111698
3.548000	 2.156524
3.566000	 2.183624
3.584000	 2.204832
3.602000	 2.234140
3.620000	 2.250825
3.638000	 2.259536
3.656000	 2.267517
3.674000	 2.263979
3.692000	 2.260371
3.710000	 2.250981
3.728000	 2.245126
3.746000	 2.238295
3.764000	 2.227589
3.782000	 2.226198
3.800000	 2.225966
3.818000	 2.228998
3.836000	 2.235204
3.854000	 2.237242
3.872000	 2.250927
3.890000	 2.270958
3.908000	 2.283896
3.926000	 2.301493
3.944000	 2.312317
3.962000	 2.324319
3.980000	 2.330601
3.998000	 2.333844
4.016000	 2.335080
4.034000	 2.331215
4.052000	 2.325375
4.070000	 2.315928
4.088000	 2.303790
4.106000	 2.290913
4.124000	 2.279866
4.141999	 2.271322
4.160000	 2.262666
4.178000	 2.256065
4.196000	 2.253369
4.214000	 2.247524
4.232000	 2.241193
4.250000	 2.257590
4.268000	 2.269142
4.286000	 2.281694
4.304000	 2.301443
4.322000	 2.321154
4.340000	 2.339063
4.358000	 2.354732
4.375999	 2.364628
4.394000	 2.374964
4.412000	 2.382313
4.430000	 2.387510
4.448000	 2.389305
4.466000	 2.390114
4.484000	 2.384429
4.502000	 2.381925
4.520000	 2.376855
4.538000	 2.368263
4.556000	 2.359232
4.574000	 2.353341
4.592000	 2.348345
4.609999	 2.343993
4.628000	 2.342111
4.646000	 2.341595
4.664000	 2.342700
4.682000	 2.340972
4.700000	 2.340643
4.718000	 2.342150
4.736000	 2.343539
4.754000	 2.345655
4.772000	 2.345076
4.790000	 2.345930
4.808000	 2.353296
4.826000	 2.363532
4.843999	 2.380417
4.862000	 2.396385
4.880000	 2.411655
4.898000	 2.427772
4.916000	 2.439439
4.934000	 2.445163
4.952000	 2.450724
4.970000	 2.456573
4.988000	 2.459288
5.006000	 2.462440
5.024000	 2.462601
5.042000	 2.457735
5.060000	 2.452181
5.077999	 2.443203
5.096000	 2.438138
5.114000	 2.432961
5.132000	 2.426408
5.150000	 2.421533
5.168000	 2.416696
5.186000	 2.410705
5.204000	 2.400943
5.222000	 2.396182
5.240000	 2.388560
5.258000	 2.383010
5.276000	 2.378343
5.294000	 2.375408
5.312000	 2.379565
5.330000	 2.383737
5.348000	 2.382170
5.366000	 2.388927
5.384000	 2.396417
5.402000	 2.398059
5.420000	 2.399550
5.438000	 2.407949
5.456000	 2.413225
5.474000	 2.416091
5.492000	 2.424421
5.510000	 2.430963
5.528000	 2.435532
5.546000	 2.436087
5.564000	 2.434087
5.582000	 2.432637
5.600000	 2.435664
5.618000	 2.433076
5.636000	 2.422005
5.654000	 2.419050
5.672000	 2.418701
5.690000	 2.410262
5.708000	 2.393627
5.726000	 2.377160
5.744000	 2.356476
5.762000	 2.333826
5.780000	 2.331653
5.798000	 2.331201
5.816000	 2.312699
5.834000	 2.304681
5.852000	 2.300849
5.870000	 2.276287
5.888000	 2.255854
5.906000	 2.259828
5.923999	 2.252282
5.942000	 2.242104
5.960000	 2.241762
5.978000	 2.230246
5.996000	 2.222175
6.014000	 2.215852
6.032000	 2.196147
6.050000	 2.169505
6.068000	 2.165922
6.086000	 2.167266
6.104000	 2.154251
6.122000	 2.140786
6.140000	 2.131001
6.158000	 2.110186
6.176000	 2.075139
6.194000	 2.028172
6.212000	 1.985752
6.230000	 1.975385
6.248000	 1.995297
6.266000	 2.014045
6.284000	 2.021338
6.302000	 2.019048
6.320000	 2.008231
6.338000	 1.994255
6.356000	 1.987566
6.374000	 1.981640
6.392000	 1.960222
6.410000	 1.933953
6.428000	 1.937535
6.446000	 1.958476
6.464000	 1.963085
6.482000	 1.966131
6.500000	 2.003283
6.518000	 2.061754
6.536000	 2.101805
6.554000	 2.115234
6.572000	 2.113763
6.590000	 2.107130
6.608000	 2.096316
6.626000	 2.074229
6.644000	 2.021638
6.662000	 1.896790
6.680000	 1.733594
6.698000	 1.675396
6.716000	 1.761024
6.734000	 1.880036
6.752000	 1.951135
6.770000	 1.974375
6.788000	 1.976933
6.806000	 1.971432
6.824000	 1.951963
6.842000	 1.907951
6.860000	 1.838364
6.878000	 1.774951
6.896000	 1.764460
6.914000	 1.804998
6.932000	 1.845350
6.950000	 1.860108
6.968000	 1.865334
6.986000	 1.870372
7.004000	 1.871225
7.022000	 1.866657
7.040000	 1.858781
7.058000	 1.848830
7.076000	 1.829162
7.094000	 1.790292
7.112000	 1.745692
7.130000	 1.725862
7.148000	 1.740438
7.166000	 1.770140
7.184000	 1.790698
7.202000	 1.792396
7.220000	 1.788047
7.238000	 1.793907
7.256000	 1.805709
7.274000	 1.812630
7.292000	 1.815285
7.310000	 1.817303
7.328000	 1.818882
7.346000	 1.819958
7.364000	 1.820058
7.382000	 1.819194
7.400000	 1.818130
7.418000	 1.816969
7.436000	 1.815663
7.454000	 1.815906
7.472000	 1.820417
7.490000	 1.829384
7.508000	 1.839212
7.526000	 1.846394
7.544000	 1.850890
7.562000	 1.854261
7.580000	 1.856401
7.598000	 1.857171
7.616000	 1.857422
7.634000	 1.857492
7.652000	 1.857116
7.670000	 1.856940
7.688000	 1.857624
7.706000	 1.858535
7.724000	 1.858558
7.742000	 1.857574
7.760000	 1.856281
7.778000	 1.855123
7.796000	 1.853252
7.814000	 1.848668
7.832000	 1.839053
7.850000	 1.822526
7.868000	 1.797236
7.886000	 1.764315
7.904000	 1.732583
7.922000	 1.716669
7.940000	 1.725107
7.958000	 1.752194
7.976000	 1.783491
7.994000	 1.807981
8.012000	 1.823273
8.030000	 1.831646
8.048000	 1.835571
8.065999	 1.836599
8.084000	 1.835852
8.102000	 1.833770
8.120000	 1.830626
8.138000	 1.826738
8.155999	 1.821652
8.173999	 1.814176
8.192000	 1.803711
8.210000	 1.790591
8.228000	 1.776511
8.246000	 1.763897
8.263999	 1.754888
8.282000	 1.750031
8.300000	 1.748051
8.318000	 1.747437
8.336000	 1.747253
8.353999	 1.746668
8.372000	 1.744817
8.390000	 1.741539
8.408000	 1.737171
8.426000	 1.731689
8.443999	 1.724986
8.462000	 1.717328
8.480000	 1.709662
8.498000	 1.702466
8.516000	 1.695262
8.533999	 1.686641
8.552000	 1.675995
8.570000	 1.663724
8.588000	 1.650827
8.606000	 1.638677
8.624000	 1.628702
8.641999	 1.621706
8.660000	 1.617299
8.678000	 1.614238
8.696000	 1.611066
8.714000	 1.606816
8.731999	 1.601573
8.750000	 1.595959
8.768000	 1.590136
8.786000	 1.583787
8.804000	 1.576225
8.821999	 1.567504
8.840000	 1.557878
8.858000	 1.547722
8.876000	 1.536863
8.894000	 1.525114
8.911999	 1.512588
8.930000	 1.499706
8.948000	 1.487106
8.966000	 1.475301
8.984000	 1.464450
9.001999	 1.454596
9.020000	 1.445936
9.038000	 1.438753
9.056000	 1.433407
9.074000	 1.429951
9.092000	 1.427941
9.109999	 1.426843
9.128000	 1.426298
9.146000	 1.426178
9.164000	 1.426659
9.182000	 1.427647
9.199999	 1.428963
9.218000	 1.429936
9.236000	 1.429982
9.254000	 1.429122
9.272000	 1.428060
9.289999	 1.427862
9.308000	 1.429177
9.326000	 1.431776
9.344000	 1.434597
9.362000	 1.436744
9.379999	 1.437617
9.398000	 1.436590
9.416000	 1.431882
9.434000	 1.420440
9.452000	 1.399364
9.469999	 1.369138
9.488000	 1.335876
9.506000	 1.309575
9.524000	 1.298863
9.542000	 1.306164
9.560000	 1.326219
9.577999	 1.349919
9.596000	 1.369387
9.614000	 1.381182
9.632000	 1.385977
9.650000	 1.385937
9.667999	 1.383273
9.686000	 1.379190
9.704000	 1.374479
9.722000	 1.369709
9.740000	 1.365317
9.757999	 1.361838
9.776000	 1.359684
9.794000	 1.359122
9.812000	 1.360329
9.830000	 1.363169
9.847999	 1.367169
9.866000	 1.372008
9.884000	 1.377289
9.902000	 1.382568
9.920000	 1.387435
9.937999	 1.391643
9.956000	 1.394822
9.974000	 1.396982
9.992000	 1.398153
10.01	1.398539
10.028	1.398277
10.046	1.397497
10.064	1.396360
10.082	1.394967
10.1	1.393258
10.118	1.391158
10.136	1.388512
10.154	1.385228
10.172	1.381413
10.19	1.377396
10.208	1.373490
10.226	1.369812
10.244	1.366212
10.262	1.362461
10.28	1.358298
10.298	1.353610
10.316	1.348500
10.334	1.343168
10.352	1.337589
10.37	1.331707
10.388	1.325520
10.406	1.319083
10.424	1.312580
10.442	1.306269
10.46	1.300226
10.478	1.294518
10.496	1.289057
10.514	1.283873
10.532	1.279110
10.55	1.274982
10.568	1.271433
10.586	1.268509
10.604	1.265923
10.622	1.263382
10.64	1.260569
10.658	1.257363
10.676	1.253815
10.694	1.250020
10.712	1.246167
10.73	1.242440
10.748	1.238893
10.766	1.235438
10.784	1.232002
10.802	1.228537
10.82	1.224976
10.838	1.221276
10.856	1.217381
10.874	1.213166
10.892	1.208480
10.91	1.203336
10.928	1.197741
10.946	1.191880
10.964	1.185996
10.982	1.180336
11	1.175128
11.018	1.170579
11.036	1.166667
11.054	1.163443
11.072	1.160814
11.09	1.158613
11.108	1.156582
11.126	1.154555
11.144	1.152258
11.162	1.149590
11.18	1.146401
11.198	1.142551
11.216	1.137812
11.234	1.131842
11.252	1.124324
11.27	1.115011
11.288	1.103913
11.306	1.091265
11.324	1.077739
11.342	1.064207
11.36	1.051666
11.378	1.041148
11.396	1.033481
11.414	1.029253
11.432	1.028679
11.45	1.031486
11.468	1.037042
11.486	1.044570
11.504	1.053123
11.522	1.061798
11.54	1.070000
11.558	1.077178
11.576	1.083193
11.594	1.087884
11.612	1.091167
11.63	1.093120
11.648	1.093883
11.666	1.093655
11.684	1.092702
11.702	1.091342
11.72	1.089789
11.738	1.088257
11.756	1.086813
11.774	1.085396
11.792	1.083845
11.81	1.082024
11.828	1.079777
11.846	1.076853
11.864	1.073080
11.882	1.068265
11.9	1.062094
11.918	1.054279
11.936	1.044339
11.954	1.031885
11.972	1.016626
11.99	0.998302
12.008	0.977090
12.026	0.953582
12.044	0.928879
12.062	0.904545
12.08	0.882591
12.098	0.864821
12.116	0.852826
12.134	0.847545
12.152	0.849070
12.17	0.856530
12.188	0.868498
12.206	0.883016
12.224	0.898233
12.242	0.912414
12.26	0.924609
12.278	0.934194
12.296	0.941072
12.314	0.945609
12.332	0.948213
12.35	0.949421
12.368	0.949610
12.386	0.949186
12.404	0.948450
12.422	0.947494
12.44	0.946559
12.458	0.945778
12.476	0.945181
12.494	0.944923
12.512	0.945093
12.53	0.945739
12.548	0.946883
12.566	0.948637
12.584	0.950924
12.602	0.953660
12.62	0.956732
12.638	0.959983
12.656	0.963264
12.674	0.966432
12.692	0.969249
12.71	0.971747
12.728	0.973819
12.746	0.975490
12.764	0.976833
12.782	0.977884
12.8	0.978661
12.818	0.979202
12.836	0.979465
12.854	0.979443
12.872	0.979190
12.89	0.978660
12.908	0.977882
12.926	0.976915
12.944	0.975852
12.962	0.974746
12.98	0.973658
12.998	0.972635
13.016	0.971699
13.034	0.970830
13.052	0.969972
13.07	0.969139
13.088	0.968312
13.106	0.967462
13.124	0.966589
13.142	0.965717
13.16	0.964826
13.178	0.963989
13.196	0.963179
13.214	0.962398
13.232	0.961631
13.25	0.960812
13.268	0.959924
13.286	0.958862
13.304	0.957574
13.322	0.956068
13.34	0.954345
13.358	0.952410
13.376	0.950333
13.394	0.948183
13.412	0.945985
13.43	0.943834
13.448	0.941738
13.466	0.939696
13.484	0.937700
13.502	0.935715
13.52	0.933712
13.538	0.931664
13.556	0.929485
13.574	0.927155
13.592	0.924690
13.61	0.922081
13.628	0.919369
13.646	0.916563
13.664	0.913721
13.682	0.910825
13.7	0.907939
13.718	0.905039
13.736	0.902193
13.754	0.899421
13.772	0.896655
13.79	0.893937
13.808	0.891269
13.826	0.888652
13.844	0.886062
13.862	0.883548
13.88	0.881098
13.898	0.878707
13.916	0.876376
13.934	0.874093
13.952	0.871841
13.97	0.869562
13.988	0.867224
14.006	0.864808
14.024	0.862277
14.042	0.859614
14.06	0.856797
14.078	0.853865
14.096	0.850806
14.114	0.847623
14.132	0.844380
14.15	0.841126
14.168	0.837841
14.186	0.834526
14.204	0.831181
14.222	0.827790
14.24	0.824321
14.258	0.820708
14.276	0.816903
14.294	0.812836
14.312	0.808443
14.33	0.803659
14.348	0.798362
14.366	0.792587
14.384	0.786335
14.402	0.779622
14.42	0.772628
14.438	0.765534
14.456	0.758551
14.474	0.751956
14.492	0.746002
14.51	0.740937
14.528	0.736929
14.546	0.734031
14.564	0.732256
14.582	0.731532
14.6	0.731668
14.618	0.732418
14.636	0.733542
14.654	0.734776
14.672	0.735911
14.69	0.736780
14.708	0.737273
14.726	0.737347
14.744	0.736966
14.762	0.736223
14.78	0.735194
14.798	0.733917
14.816	0.732415
14.834	0.730799
14.852	0.729073
14.87	0.727251
14.888	0.725355
14.906	0.723404
14.924	0.721395
14.942	0.719338
14.96	0.717290
14.978	0.715282
14.996	0.713331
15.014	0.711448
15.032	0.709681
15.05	0.708013
15.068	0.706424
15.086	0.704889
15.104	0.703386
15.122	0.701859
15.14	0.700260
15.158	0.698557
15.176	0.696745
15.194	0.694873
15.212	0.692882
15.23	0.690817
15.248	0.688717
15.266	0.686614
15.284	0.684566
15.302	0.682535
15.32	0.680556
15.338	0.678670
15.356	0.676826
15.374	0.675019
15.392	0.673221
15.41	0.671407
15.428	0.669576
15.446	0.667639
15.464	0.665595
15.482	0.663452
15.5	0.661225
15.518	0.658858
15.536	0.656414
15.554	0.653933
15.572	0.651415
15.59	0.648899
15.608	0.646411
15.626	0.643978
15.644	0.641636
15.662	0.639364
15.68	0.637156
15.698	0.635002
15.716	0.632890
15.734	0.630811
15.752	0.628761
15.77	0.626743
15.788	0.624711
15.806	0.622688
15.824	0.620682
15.842	0.618676
15.86	0.616701
15.878	0.614744
15.896	0.612789
15.914	0.610834
15.932	0.608901
15.95	0.607000
15.968	0.605143
15.986	0.603312
16.004	0.601517
16.022	0.599777
16.04	0.598088
16.058	0.596448
16.076	0.594860
16.094	0.593343
16.112	0.591844
16.13	0.590337
16.148	0.588805
16.166	0.587183
16.184	0.585446
16.202	0.583571
16.22	0.581456
16.238	0.579083
16.256	0.576433
16.274	0.573500
16.292	0.570291
16.31	0.566816
16.328	0.563107
16.346	0.559243
16.364	0.555281
16.382	0.551270
16.4	0.547325
16.418	0.543527
16.436	0.539936
16.454	0.536614
16.472	0.533605
16.49	0.530969
16.508	0.528694
16.526	0.526777
16.544	0.525227
16.562	0.523991
16.58	0.523027
16.598	0.522270
16.616	0.521687
16.634	0.521244
16.652	0.520874
16.67	0.520551
16.688	0.520245
16.706	0.519931
16.724	0.519603
16.742	0.519254
16.76	0.518885
16.778	0.518500
16.796	0.518107
16.814	0.517704
16.832	0.517293
16.85	0.516883
16.868	0.516480
16.886	0.516089
16.904	0.515701
16.922	0.515307
16.94	0.514893
16.958	0.514451
16.976	0.513984
16.994	0.513531
17.012	0.513049
17.03	0.512514
17.048	0.511956
17.066	0.511369
17.084	0.510743
17.102	0.510090
17.12	0.509413
17.138	0.508697
17.156	0.507955
17.174	0.507203
17.192	0.506415
17.21	0.505596
17.228	0.504775
17.246	0.503945
17.264	0.503106
17.282	0.502287
17.3	0.501487
17.318	0.500691
17.336	0.499922
17.354	0.499194
17.372	0.498492
17.39	0.497817
17.408	0.497175
17.426	0.496584
17.444	0.496063
17.462	0.495558
17.48	0.495069
17.498	0.494620
17.516	0.494200
17.534	0.493809
17.552	0.493423
17.57	0.493035
17.588	0.492622
17.606	0.492182
17.624	0.491714
17.642	0.491197
17.66	0.490624
17.678	0.489990
17.696	0.489292
17.714	0.488512
17.732	0.487659
17.75	0.486738
17.768	0.485749
17.786	0.484688
17.804	0.483586
17.822	0.482440
17.84	0.481247
17.858	0.480020
17.876	0.478773
17.894	0.477522
17.912	0.476278
17.93	0.475028
17.948	0.473771
17.966	0.472536
17.984	0.471318
18.002	0.470115
18.02	0.468936
18.038	0.467792
18.056	0.466679
18.074	0.465595
18.092	0.464555
18.11	0.463561
18.128	0.462630
18.146	0.461758
18.164	0.460936
18.182	0.460164
18.2	0.459435
18.218	0.458745
18.236	0.458092
18.254	0.457470
18.272	0.456880
18.29	0.456298
18.308	0.455722
18.326	0.455150
18.344	0.454576
18.362	0.453981
18.38	0.453364
18.398	0.452721
18.416	0.452049
18.434	0.451348
18.452	0.450604
18.47	0.449806
18.488	0.448951
18.506	0.448032
18.524	0.447073
18.542	0.446077
18.56	0.445051
18.578	0.443995
18.596	0.442907
18.614	0.441788
18.632	0.440660
18.65	0.439522
18.668	0.438373
18.686	0.437214
18.704	0.436052
18.722	0.434886
18.74	0.433727
18.758	0.432567
18.776	0.431385
18.794	0.430187
18.812	0.428983
18.83	0.427766
18.848	0.426532
18.866	0.425282
18.884	0.424017
18.902	0.422735
18.92	0.421426
18.938	0.420101
18.956	0.418767
18.974	0.417427
18.992	0.416082
19.01	0.414738
19.028	0.413403
19.046	0.412081
19.064	0.410779
19.082	0.409502
19.1	0.408260
19.118	0.407048
19.136	0.405859
19.154	0.404697
19.172	0.403568
19.19	0.402468
19.208	0.401391
19.226	0.400339
19.244	0.399324
19.262	0.398336
19.28	0.397343
19.298	0.396351
19.316	0.395362
19.334	0.394375
19.352	0.393383
19.37	0.392387
19.388	0.391389
19.406	0.390391
19.424	0.389367
19.442	0.388314
19.46	0.387240
19.478	0.386148
19.496	0.385037
19.514	0.383906
19.532	0.382756
19.55	0.381588
19.568	0.380399
19.586	0.379182
19.604	0.377944
19.622	0.376697
19.64	0.375436
19.658	0.374149
19.676	0.372837
19.694	0.371507
19.712	0.370158
19.73	0.368797
19.748	0.367424
19.766	0.366038
19.784	0.364638
19.802	0.363229
19.82	0.361814
19.838	0.360391
19.856	0.358952
19.874	0.357502
19.892	0.356044
19.91	0.354578
19.928	0.353122
19.946	0.351679
19.964	0.350229
19.982	0.348769
20	0.347304
20.018	0.345836
20.036	0.344369
20.054	0.342915
20.072	0.341467
20.09	0.340010
20.108	0.338545
20.126	0.337073
20.144	0.335594
20.162	0.334108
20.18	0.332616
20.198	0.331117
20.216	0.329611
20.234	0.328098
20.252	0.326585
20.27	0.325071
20.288	0.323551
20.306	0.322025
20.324	0.320489
20.342	0.318937
20.36	0.317379
20.378	0.315834
20.396	0.314299
20.414	0.312756
20.432	0.311207
20.45	0.309649
20.468	0.308081
20.486	0.306500
20.504	0.304895
20.522	0.303269
20.54	0.301644
20.558	0.300023
20.576	0.298392
20.594	0.296743
20.612	0.295080
20.63	0.293400
20.648	0.291705
20.666	0.290009
20.684	0.288311
20.702	0.286617
20.72	0.284929
20.738	0.283249
20.756	0.281595
20.774	0.279961
20.792	0.278372
20.81	0.276841
20.828	0.275354
20.846	0.273903
20.864	0.272491
20.882	0.271122
20.9	0.269794
20.918	0.268513
20.936	0.267288
20.954	0.266113
20.972	0.264979
20.99	0.263891
21.008	0.262832
21.026	0.261798
21.044	0.260787
21.062	0.259783
21.08	0.258787
21.098	0.257797
21.116	0.256818
21.134	0.255839
21.152	0.254841
21.17	0.253828
21.188	0.252801
21.206	0.251763
21.224	0.250709
21.242	0.249632
21.26	0.248535
21.278	0.247413
21.296	0.246264
21.314	0.245092
21.332	0.243907
21.35	0.242707
21.368	0.241485
21.386	0.240234
21.404	0.238961
21.422	0.237674
21.44	0.236374
21.458	0.235052
21.476	0.233702
21.494	0.232329
21.512	0.230947
21.53	0.229555
21.548	0.228149
21.566	0.226725
21.584	0.225285
21.602	0.223837
21.62	0.222383
21.638	0.220920
21.656	0.219442
21.674	0.217950
21.692	0.216458
21.71	0.214973
21.728	0.213491
21.746	0.212006
21.764	0.210517
21.782	0.209032
21.8	0.207561
21.818	0.206100
21.836	0.204644
21.854	0.203191
21.872	0.201745
21.89	0.200318
21.908	0.198908
21.926	0.197514
21.944	0.196135
21.962	0.194772
21.98	0.193424
21.998	0.192092
22.016	0.190775
22.034	0.189473
22.052	0.188186
22.07	0.186915
22.088	0.185666
22.106	0.184437
22.124	0.183217
22.142	0.181998
22.16	0.180790
22.178	0.179604
22.196	0.178444
22.214	0.177303
22.232	0.176178
22.25	0.175071
22.268	0.173982
22.286	0.172908
22.304	0.171851
22.322	0.170818
22.34	0.169811
22.358	0.168826
22.376	0.167862
22.394	0.166918
22.412	0.165993
22.43	0.165083
22.448	0.164191
22.466	0.163314
22.484	0.162456
22.502	0.161615
22.52	0.160785
22.538	0.159966
22.556	0.159157
22.574	0.158353
22.592	0.157553
22.61	0.156756
22.628	0.155957
22.646	0.155158
22.664	0.154355
22.682	0.153544
22.7	0.152730
22.718	0.151903
22.736	0.151049
22.754	0.150172
22.772	0.149273
22.79	0.148353
22.808	0.147413
22.826	0.146449
22.844	0.145460
22.862	0.144447
22.88	0.143410
22.898	0.142348
22.916	0.141262
22.934	0.140157
22.952	0.139036
22.97	0.137897
22.988	0.136741
23.006	0.135564
23.024	0.134368
23.042	0.133169
23.06	0.131969
23.078	0.130765
23.096	0.129564
23.114	0.128365
23.132	0.127169
23.15	0.125977
23.168	0.124789
23.186	0.123606
23.204	0.122431
23.222	0.121260
23.24	0.120098
23.258	0.118951
23.276	0.117824
23.294	0.116711
23.312	0.115607
23.33	0.114510
23.348	0.113423
23.366	0.112348
23.384	0.111288
23.402	0.110239
23.42	0.109197
23.438	0.108162
23.456	0.107133
23.474	0.106106
23.492	0.105076
23.51	0.104048
23.528	0.103028
23.546	0.102023
23.564	0.101029
23.582	0.100034
23.6	0.099035
23.618	0.098034
23.636	0.097033
23.654	0.096029
23.672	0.095023
23.69	0.094020
23.708	0.093027
23.726	0.092042
23.744	0.091062
23.762	0.090085
23.78	0.089111
23.798	0.088142
23.816	0.087176
23.834	0.086210
23.852	0.085251
23.87	0.084304
23.888	0.083373
23.906	0.082452
23.924	0.081534
23.942	0.080617
23.96	0.079703
23.978	0.078795
23.996	0.077893
24.014	0.076996
24.032	0.076108
24.05	0.075234
24.068	0.074372
24.086	0.073518
24.104	0.072668
24.122	0.071822
24.14	0.070983
24.158	0.070152
24.176	0.069328
24.194	0.068513
24.212	0.067710
24.23	0.066924
24.248	0.066152
24.266	0.065385
24.284	0.064616
24.302	0.063850
24.32	0.063088
24.338	0.062336
24.356	0.061591
24.374	0.060854
24.392	0.060130
24.41	0.059422
24.428	0.058726
24.446	0.058036
24.464	0.057346
24.482	0.056660
24.5	0.055984
24.518	0.055325
24.536	0.054684
24.554	0.054055
24.572	0.053432
24.59	0.052813
24.608	0.052201
24.626	0.051600
24.644	0.051013
24.662	0.050438
24.68	0.049873
24.698	0.049313
24.716	0.048762
24.734	0.048217
24.752	0.047674
24.77	0.047132
24.788	0.046592
24.806	0.046057
24.824	0.045528
24.842	0.045005
24.86	0.044486
24.878	0.043967
24.896	0.043449
24.914	0.042932
24.932	0.042412
24.95	0.041886
24.968	0.041357
24.986	0.040825
25.004	0.040293
25.022	0.039761
25.04	0.039228
25.058	0.038691
25.076	0.038150
25.094	0.037606
25.112	0.037059
25.13	0.036511
25.148	0.035962
25.166	0.035412
25.184	0.034863
25.202	0.034314
25.22	0.033764
25.238	0.033217
25.256	0.032679
25.274	0.032149
25.292	0.031626
25.31	0.031107
25.328	0.030592
25.346	0.030081
25.364	0.029574
25.382	0.029075
25.4	0.028581
25.418	0.028094
25.436	0.027614
25.454	0.027143
25.472	0.026682
25.49	0.026228
25.508	0.025779
25.526	0.025337
25.544	0.024900
25.562	0.024469
25.58	0.024044
25.598	0.023625
25.616	0.023211
25.634	0.022805
25.652	0.022408
25.67	0.022020
25.688	0.021638
25.706	0.021262
25.724	0.020891
25.742	0.020525
25.76	0.020166
25.778	0.019814
25.796	0.019470
25.814	0.019132
25.832	0.018805
25.85	0.018491
25.868	0.018189
25.886	0.017897
25.904	0.017613
25.922	0.017338
25.94	0.017072
25.958	0.016815
25.976	0.016567
25.994	0.016326
26.012	0.016093
26.03	0.015872
26.048	0.015664
26.066	0.015469
26.084	0.015286
26.102	0.015114
26.12	0.014952
26.138	0.014802
26.156	0.014661
26.174	0.014525
26.192	0.014392
26.21	0.014264
26.228	0.014141
26.246	0.014023
26.264	0.013911
26.282	0.013804
26.3	0.013701
26.318	0.013601
26.336	0.013505
26.354	0.013414
26.372	0.013323
26.39	0.013231
26.408	0.013140
26.426	0.013050
26.444	0.012957
26.462	0.012860
26.48	0.012758
26.498	0.012653
26.516	0.012547
26.534	0.012440
26.552	0.012333
26.57	0.012224
26.588	0.012113
26.606	0.011998
26.624	0.011880
26.642	0.011759
26.66	0.011634
26.678	0.011504
26.696	0.011368
26.714	0.011228
26.732	0.011086
26.75	0.010941
26.768	0.010792
26.786	0.010640
26.804	0.010489
26.822	0.010340
26.84	0.010192
26.858	0.010044
26.876	0.009894
26.894	0.009743
26.912	0.009591
26.93	0.009437
26.948	0.009281
26.966	0.009113
26.984	0.008923
27.002	0.008740
27.02	0.008597
27.028	0.008559