File: Bakgrunnsmateriale/MATLAB/FTIR/ftir_data/subAa/Mapping_121/BZ1503107-1_t79_cm-1.asc
PE IR       SPECTRUM    SPECTRUM    ASCII       PEDS        1.60
  -1
BZ61B6~1.ASC
17/04/07
19:44:05.00
17/04/07
19:44:05.00
tln
$BZ1503107-1_t0079$<tbV0>[10.4,5.2,8.0,0.0,27,1,0]
370
64

2002,4.07
MIRTGS : RIGHTBACK : INTERNAL 2
MIR : ON : INTERNAL 2
OPTKBR

0.200000
8
8.000000
FILLER
RATIO
SPECTRUM
UNLOCKED 256

DOUBLE
64
COMBINED
1
0
0

1.000000
RATIO

1
0
TRUE
51149
0
LEFT NOT FITTED RIGHT NOT FITTED 0
NONE
NONE
15600
12
4.427000
51148
TRUE
1 0 8 72 0 0 0 0

15798

#HDR
-1
-1
#GR
CM-1
%T
2.38419e-05
0.0
5000
-1.000000
4631
8
78.0642
44.3581
#DATA
5000	64.5756
4996	65.3141
4992	65.5059
4988	64.9923
4984	64.8185
4980	65.1735
4976	65.8122
4972	66.5611
4968	66.1514
4964	65.003
4960	64.9531
4956	65.6384
4952	65.7946
4948	64.8228
4944	63.7538
4940	64.0315
4936	64.8518
4932	64.6853
4928	64.1143
4924	64.4308
4920	65.0268
4916	65.2407
4912	65.3353
4908	65.4067
4904	65.4627
4900	65.3006
4896	65.1327
4892	65.3147
4888	65.4398
4884	65.3522
4880	65.3214
4876	65.4361
4872	65.6778
4868	65.6683
4864	65.2548
4860	64.8991
4856	64.7565
4852	64.7289
4848	64.8066
4844	64.8288
4840	64.7921
4836	64.8499
4832	64.7666
4828	64.5572
4824	64.7084
4820	64.9873
4816	64.9522
4812	64.6748
4808	64.456
4804	64.4756
4800	64.5374
4796	64.5956
4792	64.8415
4788	65.031
4784	64.8747
4780	64.6337
4776	64.63
4772	64.9195
4768	65.2704
4764	65.3377
4760	65.019
4756	64.6908
4752	64.6436
4748	64.6638
4744	64.6181
4740	64.508
4736	64.38
4732	64.4296
4728	64.8033
4724	65.1727
4720	65.201
4716	65.0625
4712	64.9271
4708	64.8209
4704	64.8149
4700	64.8896
4696	64.938
4692	64.9444
4688	64.8676
4684	64.7017
4680	64.4608
4676	64.4398
4672	64.8021
4668	65.0774
4664	65.082
4660	64.9599
4656	64.767
4652	64.6447
4648	64.701
4644	64.919
4640	64.9628
4636	64.8491
4632	65.0667
4628	65.3686
4624	65.4363
4620	65.3866
4616	65.2458
4612	65.1704
4608	65.2602
4604	65.2601
4600	65.0913
4596	65.1151
4592	65.3559
4588	65.3699
4584	65.2873
4580	65.4865
4576	65.7061
4572	65.5894
4568	65.319
4564	65.2838
4560	65.4111
4556	65.3188
4552	65.0815
4548	65.1634
4544	65.481
4540	65.5162
4536	65.4397
4532	65.4278
4528	65.3461
4524	65.4231
4520	65.5758
4516	65.5669
4512	65.6004
4508	65.7379
4504	65.6346
4500	65.455
4496	65.5886
4492	65.6081
4488	65.422
4484	65.3349
4480	65.3981
4476	65.3624
4472	64.9927
4468	64.6269
4464	64.3822
4460	64.7507
4456	65.0592
4452	63.3545
4448	59.5883
4444	55.2006
4440	47.1077
4436	46.5536
4432	66.2327
4428	78.0642
4424	69.6206
4420	65.96
4416	68.8434
4412	70.3502
4408	68.4638
4404	65.9818
4400	64.6902
4396	64.437
4392	64.488
4388	64.5529
4384	64.8446
4380	65.3177
4376	65.4511
4372	65.3399
4368	65.4184
4364	65.6266
4360	65.7681
4356	65.5241
4352	65.2705
4348	65.3744
4344	65.4091
4340	65.4114
4336	65.4003
4332	65.1232
4328	64.9367
4324	65.0113
4320	65.1139
4316	65.1008
4312	65.0212
4308	65.034
4304	65.0803
4300	65.0104
4296	64.9253
4292	64.9921
4288	64.9835
4284	64.7311
4280	64.6676
4276	64.9214
4272	65.069
4268	65.0301
4264	64.9112
4260	64.8295
4256	64.9065
4252	64.9176
4248	64.87
4244	64.9856
4240	65.0736
4236	64.9689
4232	64.8891
4228	65.0387
4224	65.3064
4220	65.3098
4216	64.9717
4212	64.7596
4208	64.8431
4204	64.9925
4200	65.0215
4196	64.9456
4192	64.922
4188	64.9615
4184	65.0021
4180	65.0183
4176	64.9544
4172	64.8885
4168	64.9901
4164	65.0606
4160	64.9232
4156	64.8728
4152	65.036
4148	65.1347
4144	65.0247
4140	64.8947
4136	64.8186
4132	64.8261
4128	65.0206
4124	65.1629
4120	65.0619
4116	64.9141
4112	64.8787
4108	64.8672
4104	64.8406
4100	64.9513
4096	65.1467
4092	65.1215
4088	64.9376
4084	64.9052
4080	64.9979
4076	64.9772
4072	64.8599
4068	64.7979
4064	64.7946
4060	64.8602
4056	64.962
4052	65.0648
4048	65.1494
4044	65.1816
4040	65.2005
4036	65.1641
4032	65.1404
4028	65.1728
4024	65.1719
4020	65.1533
4016	65.1365
4012	65.1913
4008	65.2722
4004	65.2681
4000	65.1623
3996	64.9432
3992	64.8468
3988	65.0515
3984	65.2538
3980	65.1734
3976	64.9972
3972	64.9299
3968	64.8878
3964	64.8076
3960	64.7737
3956	64.8405
3952	64.9613
3948	65.0772
3944	65.081
3940	64.9394
3936	64.8201
3932	64.794
3928	64.8003
3924	64.9234
3920	65.0989
3916	65.0991
3912	65.0199
3908	65.0348
3904	65.037
3900	64.96
3896	64.9388
3892	64.9931
3888	65.0213
3884	64.9473
3880	64.858
3876	64.8814
3872	65.0275
3868	65.2359
3864	65.3288
3860	65.2902
3856	65.1931
3852	65.0448
3848	64.9375
3844	64.8962
3840	64.8771
3836	64.9088
3832	64.9012
3828	64.7991
3824	64.7748
3820	64.8467
3816	64.9648
3812	65.102
3808	65.188
3804	65.1856
3800	65.0398
3796	64.9352
3792	65.0551
3788	65.1688
3784	65.1484
3780	65.0877
3776	64.9511
3772	64.8508
3768	64.8818
3764	64.8354
3760	64.6899
3756	64.6408
3752	64.7775
3748	64.9809
3744	65.1478
3740	65.2303
3736	65.2145
3732	65.2188
3728	65.1956
3724	65.0848
3720	65.0067
3716	64.9869
3712	64.9722
3708	64.9992
3704	65.0878
3700	65.1479
3696	65.1405
3692	65.0934
3688	65.0344
3684	64.9774
3680	64.9175
3676	64.967
3672	65.1244
3668	65.1725
3664	65.1606
3660	65.1635
3656	65.102
3652	65.0563
3648	65.0862
3644	65.1467
3640	65.1654
3636	65.0721
3632	64.9526
3628	64.9217
3624	64.9759
3620	65.1329
3616	65.3081
3612	65.3011
3608	65.1508
3604	65.0525
3600	65.0642
3596	65.1198
3592	65.1025
3588	65.0445
3584	65.0104
3580	64.9641
3576	64.9685
3572	65.0441
3568	65.0681
3564	65.0195
3560	64.9829
3556	65.0335
3552	65.1252
3548	65.0938
3544	65.0487
3540	65.1218
3536	65.1644
3532	65.1166
3528	65.0639
3524	65.0735
3520	65.1655
3516	65.1747
3512	65.0081
3508	64.9268
3504	65.031
3500	65.0679
3496	65.0018
3492	64.9796
3488	64.997
3484	65.0509
3480	65.1371
3476	65.1414
3472	65.037
3468	64.9761
3464	64.9481
3460	64.9376
3456	65.0233
3452	65.0745
3448	65.0728
3444	65.0654
3440	65.0124
3436	64.9863
3432	64.969
3428	64.8959
3424	64.8724
3420	64.9382
3416	65.0058
3412	65.0027
3408	64.9416
3404	64.9216
3400	64.9658
3396	65.0396
3392	65.0886
3388	65.0513
3384	64.9785
3380	64.9758
3376	65.0323
3372	65.063
3368	65.0307
3364	64.964
3360	64.967
3356	65.0134
3352	65.0062
3348	65.0392
3344	65.1134
3340	65.1327
3336	65.106
3332	65.0607
3328	65.0752
3324	65.1452
3320	65.1162
3316	64.9934
3312	64.9857
3308	65.0575
3304	65.0616
3300	65.0688
3296	65.0278
3292	64.8999
3288	64.8426
3284	64.9096
3280	64.9801
3276	64.9475
3272	64.8849
3268	64.8664
3264	64.8572
3260	64.8092
3256	64.805
3252	64.9183
3248	65.0397
3244	65.0312
3240	64.9172
3236	64.9354
3232	65.0691
3228	65.0703
3224	65.0343
3220	65.0366
3216	64.9504
3212	64.8524
3208	64.8304
3204	64.8472
3200	64.886
3196	64.9531
3192	65.0093
3188	65.046
3184	65.0692
3180	65.0289
3176	65.0085
3172	65.0419
3168	64.998
3164	64.8805
3160	64.8033
3156	64.7922
3152	64.8437
3148	65.0036
3144	65.1152
3140	64.9655
3136	64.7835
3132	64.7557
3128	64.7835
3124	64.8769
3120	65.0262
3116	65.0962
3112	65.0829
3108	65.0548
3104	64.9792
3100	64.9355
3096	64.9701
3092	64.9665
3088	64.9315
3084	64.9158
3080	64.9163
3076	64.9341
3072	64.965
3068	64.9994
3064	65.0533
3060	65.0979
3056	65.0427
3052	64.9707
3048	64.9606
3044	64.983
3040	65.0436
3036	65.0537
3032	64.9816
3028	64.9637
3024	65.023
3020	65.0313
3016	64.9755
3012	64.9226
3008	64.9593
3004	65.0892
3000	65.1188
2996	65.0579
2992	65.01
2988	64.9043
2984	64.8095
2980	64.8106
2976	64.8186
2972	64.808
2968	64.8408
2964	64.8867
2960	64.8532
2956	64.79
2952	64.775
2948	64.7295
2944	64.6801
2940	64.7342
2936	64.8194
2932	64.8316
2928	64.7872
2924	64.7857
2920	64.8393
2916	64.8033
2912	64.7038
2908	64.6843
2904	64.7147
2900	64.7187
2896	64.7187
2892	64.7524
2888	64.7954
2884	64.7797
2880	64.751
2876	64.7832
2872	64.784
2868	64.7223
2864	64.708
2860	64.7395
2856	64.7347
2852	64.7008
2848	64.72
2844	64.7693
2840	64.7573
2836	64.7015
2832	64.6817
2828	64.7125
2824	64.7871
2820	64.8732
2816	64.8934
2812	64.908
2808	64.9514
2804	64.9266
2800	64.8638
2796	64.8359
2792	64.8557
2788	64.9289
2784	64.9742
2780	64.947
2776	64.8792
2772	64.7956
2768	64.7882
2764	64.864
2760	64.8837
2756	64.8259
2752	64.8026
2748	64.8287
2744	64.8609
2740	64.9015
2736	64.925
2732	64.8757
2728	64.7763
2724	64.7354
2720	64.7413
2716	64.7486
2712	64.7993
2708	64.8263
2704	64.788
2700	64.7839
2696	64.842
2692	64.8881
2688	64.9312
2684	64.9864
2680	64.9614
2676	64.8791
2672	64.8215
2668	64.7546
2664	64.7177
2660	64.7865
2656	64.8785
2652	64.9031
2648	64.849
2644	64.8
2640	64.8219
2636	64.8067
2632	64.7781
2628	64.8141
2624	64.7979
2620	64.7471
2616	64.7426
2612	64.753
2608	64.805
2604	64.8821
2600	64.8863
2596	64.8921
2592	64.964
2588	64.9037
2584	64.772
2580	64.7593
2576	64.7699
2572	64.752
2568	64.7393
2564	64.7177
2560	64.6551
2556	64.574
2552	64.5639
2548	64.6428
2544	64.7392
2540	64.7942
2536	64.7842
2532	64.7392
2528	64.6994
2524	64.6902
2520	64.7089
2516	64.7323
2512	64.7093
2508	64.6508
2504	64.6489
2500	64.6766
2496	64.7082
2492	64.7273
2488	64.7164
2484	64.7337
2480	64.7833
2476	64.7835
2472	64.7233
2468	64.7159
2464	64.708
2460	64.6619
2456	64.6641
2452	64.6406
2448	64.6179
2444	64.6487
2440	64.7193
2436	64.8247
2432	64.8646
2428	64.8435
2424	64.7993
2420	64.7174
2416	64.6291
2412	64.5695
2408	64.5672
2404	64.6283
2400	64.6997
2396	64.7099
2392	64.6412
2388	64.5817
2384	64.5732
2380	64.5601
2376	64.5806
2372	64.614
2368	64.5914
2364	64.5765
2360	64.5671
2356	64.5216
2352	64.5156
2348	64.5333
2344	64.5225
2340	64.5793
2336	64.7045
2332	64.7667
2328	64.7317
2324	64.6778
2320	64.6592
2316	64.6516
2312	64.64
2308	64.6307
2304	64.6178
2300	64.5583
2296	64.4968
2292	64.5433
2288	64.6039
2284	64.5795
2280	64.5728
2276	64.6109
2272	64.5997
2268	64.5912
2264	64.6234
2260	64.6447
2256	64.66
2252	64.6024
2248	64.5037
2244	64.4849
2240	64.5238
2236	64.5567
2232	64.5759
2228	64.6032
2224	64.6073
2220	64.5614
2216	64.5421
2212	64.574
2208	64.5665
2204	64.5008
2200	64.4607
2196	64.4438
2192	64.4221
2188	64.4437
2184	64.4924
2180	64.5043
2176	64.4641
2172	64.4129
2168	64.4109
2164	64.4544
2160	64.4833
2156	64.5049
2152	64.5092
2148	64.4875
2144	64.4821
2140	64.4353
2136	64.3841
2132	64.44
2128	64.53
2124	64.5272
2120	64.4353
2116	64.3632
2112	64.4004
2108	64.5038
2104	64.5295
2100	64.4618
2096	64.4288
2092	64.4353
2088	64.398
2084	64.3462
2080	64.3407
2076	64.3595
2072	64.3699
2068	64.3807
2064	64.3941
2060	64.3939
2056	64.3871
2052	64.4021
2048	64.4559
2044	64.4875
2040	64.4489
2036	64.4143
2032	64.3894
2028	64.338
2024	64.3495
2020	64.44
2016	64.4857
2012	64.4596
2008	64.4404
2004	64.4229
2000	64.352
1996	64.2977
1992	64.2981
1988	64.2971
1984	64.3252
1980	64.3692
1976	64.3564
1972	64.3611
1968	64.4409
1964	64.5099
1960	64.5049
1956	64.4676
1952	64.4075
1948	64.337
1944	64.3335
1940	64.3779
1936	64.416
1932	64.4404
1928	64.4175
1924	64.3588
1920	64.3173
1916	64.2863
1912	64.2706
1908	64.2763
1904	64.3247
1900	64.378
1896	64.3843
1892	64.3919
1888	64.3769
1884	64.3403
1880	64.3394
1876	64.3246
1872	64.2858
1868	64.2503
1864	64.2277
1860	64.2482
1856	64.2762
1852	64.2929
1848	64.3271
1844	64.3298
1840	64.2622
1836	64.191
1832	64.1864
1828	64.2254
1824	64.207
1820	64.1502
1816	64.1793
1812	64.256
1808	64.2612
1804	64.2044
1800	64.1737
1796	64.1937
1792	64.2005
1788	64.1588
1784	64.1258
1780	64.1657
1776	64.2674
1772	64.3424
1768	64.3097
1764	64.246
1760	64.2331
1756	64.2001
1752	64.1257
1748	64.0291
1744	63.936
1740	63.8999
1736	63.8815
1732	63.8616
1728	63.8983
1724	63.9788
1720	64.0485
1716	64.1124
1712	64.1316
1708	64.0561
1704	64.0015
1700	64.0399
1696	64.0789
1692	64.0809
1688	64.0586
1684	64.0367
1680	64.062
1676	64.0776
1672	64.044
1668	64.0065
1664	64.0058
1660	64.0709
1656	64.1048
1652	64.0829
1648	64.1126
1644	64.1482
1640	64.1204
1636	64.0531
1632	64.0514
1628	64.127
1624	64.1193
1620	64.03
1616	63.9905
1612	63.9852
1608	63.977
1604	63.9895
1600	64.0037
1596	63.9542
1592	63.8794
1588	63.9087
1584	63.9356
1580	63.8458
1576	63.7943
1572	63.835
1568	63.8181
1564	63.7609
1560	63.7989
1556	63.8785
1552	63.9186
1548	63.9258
1544	63.9392
1540	63.9606
1536	63.9522
1532	63.9316
1528	63.8829
1524	63.8372
1520	63.8571
1516	63.9105
1512	63.9118
1508	63.8864
1504	63.8711
1500	63.8183
1496	63.8031
1492	63.8262
1488	63.8353
1484	63.9125
1480	63.9779
1476	63.9545
1472	63.8799
1468	63.8022
1464	63.765
1460	63.8079
1456	63.8472
1452	63.8158
1448	63.8084
1444	63.8218
1440	63.8095
1436	63.7779
1432	63.7837
1428	63.8713
1424	63.959
1420	63.9667
1416	63.8702
1412	63.6725
1408	63.573
1404	63.6774
1400	63.775
1396	63.7899
1392	63.758
1388	63.7119
1384	63.7056
1380	63.7025
1376	63.6787
1372	63.6778
1368	63.6567
1364	63.5886
1360	63.5627
1356	63.5736
1352	63.6122
1348	63.7376
1344	63.8523
1340	63.8921
1336	63.8626
1332	63.7487
1328	63.6971
1324	63.7388
1320	63.7493
1316	63.7583
1312	63.7967
1308	63.7764
1304	63.7177
1300	63.6687
1296	63.5987
1292	63.5744
1288	63.6058
1284	63.5665
1280	63.494
1276	63.4939
1272	63.5245
1268	63.5604
1264	63.5966
1260	63.5988
1256	63.6079
1252	63.6319
1248	63.5972
1244	63.5402
1240	63.5244
1236	63.5178
1232	63.5175
1228	63.5582
1224	63.5821
1220	63.5553
1216	63.5221
1212	63.5005
1208	63.5267
1204	63.5842
1200	63.6181
1196	63.603
1192	63.5139
1188	63.4609
1184	63.4758
1180	63.4533
1176	63.3964
1172	63.3247
1168	63.3099
1164	63.3813
1160	63.4134
1156	63.4288
1152	63.4765
1148	63.4663
1144	63.4365
1140	63.4642
1136	63.4865
1132	63.4564
1128	63.4163
1124	63.4178
1120	63.4339
1116	63.4285
1112	63.4191
1108	63.3914
1104	63.334
1100	63.2765
1096	63.2769
1092	63.3327
1088	63.3965
1084	63.432
1080	63.3951
1076	63.3807
1072	63.4101
1068	63.3913
1064	63.3961
1060	63.4246
1056	63.4197
1052	63.4231
1048	63.5049
1044	63.5766
1040	63.4242
1036	63.2477
1032	63.2952
1028	63.3718
1024	63.3652
1020	63.3708
1016	63.4034
1012	63.4092
1008	63.3876
1004	63.3661
1000	63.2724
996	 63.16
992	 63.2235
988	 63.3953
984	 63.5536
980	 63.6746
976	 63.6335
972	 63.4773
968	 63.4058
964	 63.387
960	 63.3315
956	 63.3501
952	 63.4244
948	 63.4412
944	 63.4402
940	 63.3785
936	 63.2761
932	 63.2588
928	 63.2615
924	 63.2544
920	 63.3329
916	 63.4706
912	 63.5247
908	 63.4697
904	 63.4333
900	 63.4017
896	 63.3861
892	 63.4539
888	 63.4323
884	 63.2886
880	 63.2501
876	 63.4257
872	 63.6825
868	 63.7524
864	 63.6154
860	 63.4882
856	 63.3441
852	 63.2211
848	 63.3016
844	 63.3939
840	 63.4349
836	 63.4799
832	 63.3613
828	 63.1642
824	 63.1037
820	 63.1196
816	 63.1092
812	 63.0555
808	 63.0303
804	 63.1232
800	 63.1578
796	 63.0701
792	 63.0629
788	 63.151
784	 63.2373
780	 63.3254
776	 63.3566
772	 63.2822
768	 63.2221
764	 63.1892
760	 63.1602
756	 63.1832
752	 63.2041
748	 63.1729
744	 63.1435
740	 63.1542
736	 63.2096
732	 63.1557
728	 62.8835
724	 62.6469
720	 62.6725
716	 62.8643
712	 62.9745
708	 62.9483
704	 62.8927
700	 62.8441
696	 62.8155
692	 62.7842
688	 62.7697
684	 62.8769
680	 63.1099
676	 63.1932
672	 62.9359
668	 62.5611
664	 62.5578
660	 62.8798
656	 62.8537
652	 62.4761
648	 62.338
644	 62.4873
640	 62.4808
636	 62.3689
632	 62.4368
628	 62.3709
624	 62.1491
620	 62.3493
616	 62.9208
612	 63.0805
608	 62.8096
604	 62.9431
600	 63.2112
596	 63.0937
592	 62.863
588	 62.6837
584	 62.6299
580	 62.3812
576	 62.037
572	 61.831
568	 61.8626
564	 62.4665
560	 63.0927
556	 63.3433
552	 63.4055
548	 63.173
544	 62.5723
540	 61.7099
536	 61.5742
532	 62.1994
528	 62.2828
524	 62.4609
520	 63.4932
516	 63.92
512	 63.1957
508	 62.4305
504	 62.4006
500	 62.5894
496	 62.156
492	 61.8583
488	 62.4122
484	 63.2195
480	 63.5912
476	 63.1561
472	 61.9852
468	 61.1236
464	 61.4256
460	 62.1689
456	 62.2595
452	 61.8885
448	 62.1014
444	 62.4638
440	 62.4196
436	 62.408
432	 62.1913
428	 62.3489
424	 63.2595
420	 63.8123
416	 63.9779
412	 63.6967
408	 63.6609
404	 63.1231
400	 59.1716
396	 56.4882
392	 60.1079
388	 63.231
384	 61.468
380	 57.5968
376	 55.2821
372	 62.5119
370	 65.9215