File: Bakgrunnsmateriale/MATLAB/FTIR/ftir_data/subAa/Mapping_121/BZ1503107-1_t56.asc
PE IR       SPECTRUM    SPECTRUM    ASCII       PEDS        1.60
  -1
BZ2163~1.ASC
17/04/07
17:50:29.00
17/04/07
17:50:55.00
tln
$BZ1503107-1_t0056$<tbV0>[13.0,0.0,8.0,0.0,27,1,0]
27.028
64

2002,4.07
MIRTGS : RIGHTBACK : INTERNAL 2
MIR : ON : INTERNAL 2
OPTKBR

0.200000
8
8.000000
FILLER
RATIO
SPECTRUM
UNLOCKED 256

DOUBLE
64
COMBINED
1
0
0

0.002000
RATIO

1
0
TRUE
51149
0
LEFT NOT FITTED RIGHT NOT FITTED 0
NONE
NONE
15600
12
4.427000
51148
TRUE
1 0 8 72 0 0 0 0

15798

#HDR
-1
-1
#GR
µM
%T
2.38419e-05
0.0
2.000000
0.002000
12515
8
74.1256
47.1955
#DATA
2.000000	 65.603
2.018000	 65.8087
2.036000	 66.0284
2.054000	 64.7886
2.072000	 64.9859
2.090000	 64.6977
2.108000	 64.6329
2.126000	 64.5409
2.144000	 64.8019
2.162000	 65.1834
2.180000	 65.2488
2.198000	 65.31
2.216000	 65.1836
2.234000	 65.3566
2.252000	 68.5203
2.270000	 65.6623
2.288000	 65.3828
2.306000	 65.1259
2.324000	 65.519
2.342000	 65.2401
2.360000	 64.872
2.378000	 65.0348
2.396000	 64.8225
2.414000	 64.9774
2.432000	 65.2949
2.450000	 64.9137
2.468000	 65.106
2.486000	 65.1271
2.504000	 65.2526
2.522000	 65.2525
2.540000	 65.3822
2.558000	 65.1906
2.576000	 65.294
2.594000	 65.1527
2.612000	 65.199
2.630000	 65.0044
2.648000	 65.14
2.666000	 65.1122
2.684000	 65.1209
2.702000	 65.318
2.720000	 65.0166
2.738000	 65.2299
2.756000	 65.0753
2.774000	 65.1098
2.792000	 65.1954
2.810000	 65.0908
2.828000	 65.1125
2.846000	 65.077
2.864000	 65.1562
2.882000	 64.9751
2.900000	 65.2536
2.918000	 64.9768
2.936000	 65.0987
2.954000	 65.0804
2.972000	 64.9735
2.990000	 64.8948
3.008000	 65.1995
3.026000	 65.2065
3.044000	 65.124
3.062000	 64.9995
3.080000	 65.0014
3.098000	 65.0127
3.116000	 65.1441
3.134000	 65.1172
3.152000	 65.0063
3.170000	 65.1713
3.188000	 65.026
3.206000	 65.0253
3.224000	 65.1056
3.242000	 64.784
3.260000	 65.0939
3.278000	 65.0514
3.296000	 64.9053
3.314000	 65.0435
3.332000	 65.1569
3.350000	 65.0041
3.368000	 64.8203
3.386000	 64.8561
3.404000	 64.9171
3.422000	 64.9896
3.440000	 64.9725
3.458000	 64.7895
3.476000	 64.8298
3.494000	 64.8666
3.512000	 65.0269
3.530000	 64.9722
3.548000	 64.9141
3.566000	 65.0975
3.584000	 64.9318
3.602000	 64.975
3.620000	 64.89
3.638000	 65.0218
3.656000	 64.9169
3.674000	 64.9115
3.692000	 64.9361
3.710000	 64.9392
3.728000	 64.9404
3.746000	 64.895
3.764000	 64.941
3.782000	 64.9318
3.800000	 64.8789
3.818000	 64.793
3.836000	 64.9111
3.854000	 64.8978
3.872000	 64.8672
3.890000	 64.862
3.908000	 64.7817
3.926000	 64.9325
3.944000	 64.8982
3.962000	 64.8818
3.980000	 64.9611
3.998000	 64.9009
4.016000	 64.934
4.034000	 64.9523
4.052000	 64.7828
4.070000	 64.8521
4.088000	 64.8415
4.106000	 64.9787
4.124000	 64.9663
4.141999	 64.8626
4.160000	 64.7784
4.178000	 64.9218
4.196000	 64.9372
4.214000	 64.6816
4.232000	 64.8128
4.250000	 64.7463
4.268000	 64.7754
4.286000	 64.7514
4.304000	 64.8423
4.322000	 64.8557
4.340000	 64.8269
4.358000	 64.7913
4.375999	 64.7578
4.394000	 64.7408
4.412000	 64.7667
4.430000	 64.8205
4.448000	 64.7745
4.466000	 64.6873
4.484000	 64.6535
4.502000	 64.7669
4.520000	 64.7144
4.538000	 64.7474
4.556000	 64.8012
4.574000	 64.7083
4.592000	 64.7876
4.609999	 64.6233
4.628000	 64.7018
4.646000	 64.7351
4.664000	 64.6956
4.682000	 64.6827
4.700000	 64.7231
4.718000	 64.7168
4.736000	 64.7203
4.754000	 64.7492
4.772000	 64.7397
4.790000	 64.5586
4.808000	 64.6171
4.826000	 64.6921
4.843999	 64.7465
4.862000	 64.7035
4.880000	 64.682
4.898000	 64.6682
4.916000	 64.6983
4.934000	 64.6192
4.952000	 64.5515
4.970000	 64.5787
4.988000	 64.6611
5.006000	 64.6501
5.024000	 64.6142
5.042000	 64.6272
5.060000	 64.5083
5.077999	 64.5693
5.096000	 64.5702
5.114000	 64.4946
5.132000	 64.5601
5.150000	 64.4957
5.168000	 64.5982
5.186000	 64.5198
5.204000	 64.4598
5.222000	 64.4502
5.240000	 64.4747
5.258000	 64.5185
5.276000	 64.4205
5.294000	 64.4918
5.312000	 64.5556
5.330000	 64.5848
5.348000	 64.5544
5.366000	 64.5478
5.384000	 64.6057
5.402000	 64.5682
5.420000	 64.4649
5.438000	 64.5735
5.456000	 64.5142
5.474000	 64.4011
5.492000	 64.4406
5.510000	 64.4764
5.528000	 64.4637
5.546000	 64.4297
5.564000	 64.404
5.582000	 64.4358
5.600000	 64.4629
5.618000	 64.4064
5.636000	 64.288
5.654000	 64.2785
5.672000	 64.3006
5.690000	 64.3429
5.708000	 64.2944
5.726000	 64.1883
5.744000	 64.164
5.762000	 64.2069
5.780000	 64.2186
5.798000	 64.2315
5.816000	 64.1949
5.834000	 64.1793
5.852000	 64.2583
5.870000	 64.3297
5.888000	 64.3159
5.906000	 64.2814
5.923999	 64.289
5.942000	 64.2613
5.960000	 64.1835
5.978000	 64.1687
5.996000	 64.277
6.014000	 64.3561
6.032000	 64.2967
6.050000	 64.182
6.068000	 64.2164
6.086000	 64.2878
6.104000	 64.2006
6.122000	 64.1556
6.140000	 64.1885
6.158000	 64.2313
6.176000	 64.2756
6.194000	 64.3011
6.212000	 64.3137
6.230000	 64.2558
6.248000	 64.2111
6.266000	 64.1764
6.284000	 64.1791
6.302000	 64.2263
6.320000	 64.2504
6.338000	 64.2623
6.356000	 64.2743
6.374000	 64.2412
6.392000	 64.1556
6.410000	 64.1091
6.428000	 64.1421
6.446000	 64.2103
6.464000	 64.2103
6.482000	 64.1621
6.500000	 64.1501
6.518000	 64.1439
6.536000	 64.176
6.554000	 64.2502
6.572000	 64.2733
6.590000	 64.2545
6.608000	 64.2571
6.626000	 64.2864
6.644000	 64.3026
6.662000	 64.3397
6.680000	 64.3818
6.698000	 64.3352
6.716000	 64.272
6.734000	 64.2615
6.752000	 64.2287
6.770000	 64.1582
6.788000	 64.1233
6.806000	 64.1037
6.824000	 64.0613
6.842000	 64.0701
6.860000	 64.1585
6.878000	 64.2439
6.896000	 64.2381
6.914000	 64.1514
6.932000	 64.0825
6.950000	 64.0793
6.968000	 64.1128
6.986000	 64.1682
7.004000	 64.2174
7.022000	 64.1931
7.040000	 64.1022
7.058000	 64.0368
7.076000	 64.0415
7.094000	 64.0803
7.112000	 64.1146
7.130000	 64.1334
7.148000	 64.1394
7.166000	 64.1504
7.184000	 64.1594
7.202000	 64.1325
7.220000	 64.0835
7.238000	 64.0248
7.256000	 63.9473
7.274000	 63.9226
7.292000	 63.9872
7.310000	 64.0372
7.328000	 64.0209
7.346000	 64.0049
7.364000	 64.0219
7.382000	 64.0482
7.400000	 64.0688
7.418000	 64.0887
7.436000	 64.1143
7.454000	 64.1337
7.472000	 64.1161
7.490000	 64.0517
7.508000	 63.9834
7.526000	 63.9671
7.544000	 63.9989
7.562000	 64.034
7.580000	 64.0549
7.598000	 64.0639
7.616000	 64.0571
7.634000	 64.0505
7.652000	 64.0708
7.670000	 64.1261
7.688000	 64.2008
7.706000	 64.2424
7.724000	 64.2053
7.742000	 64.1281
7.760000	 64.0833
7.778000	 64.0669
7.796000	 64.0344
7.814000	 63.9997
7.832000	 64.0016
7.850000	 64.0276
7.868000	 64.0457
7.886000	 64.0521
7.904000	 64.0432
7.922000	 64.0039
7.940000	 63.9484
7.958000	 63.9166
7.976000	 63.9257
7.994000	 63.9509
8.012000	 63.9606
8.030000	 63.9632
8.048000	 63.9836
8.065999	 64.0063
8.084000	 63.9879
8.102000	 63.9223
8.120000	 63.849
8.138000	 63.8028
8.155999	 63.7941
8.173999	 63.8179
8.192000	 63.8526
8.210000	 63.8706
8.228000	 63.8733
8.246000	 63.8887
8.263999	 63.9238
8.282000	 63.9501
8.300000	 63.9442
8.318000	 63.9137
8.336000	 63.8794
8.353999	 63.8563
8.372000	 63.8513
8.390000	 63.8558
8.408000	 63.8533
8.426000	 63.8424
8.443999	 63.8398
8.462000	 63.8485
8.480000	 63.8502
8.498000	 63.8424
8.516000	 63.8498
8.533999	 63.8796
8.552000	 63.8957
8.570000	 63.8595
8.588000	 63.7788
8.606000	 63.698
8.624000	 63.6513
8.641999	 63.641
8.660000	 63.6526
8.678000	 63.6742
8.696000	 63.7013
8.714000	 63.7341
8.731999	 63.7735
8.750000	 63.8182
8.768000	 63.8591
8.786000	 63.8797
8.804000	 63.8688
8.821999	 63.8347
8.840000	 63.7999
8.858000	 63.7824
8.876000	 63.7774
8.894000	 63.7637
8.911999	 63.7263
8.930000	 63.6732
8.948000	 63.6252
8.966000	 63.5924
8.984000	 63.5682
9.001999	 63.5483
9.020000	 63.5527
9.038000	 63.6091
9.056000	 63.7135
9.074000	 63.8175
9.092000	 63.8677
9.109999	 63.8524
9.128000	 63.8066
9.146000	 63.7746
9.164000	 63.7745
9.182000	 63.7928
9.199999	 63.8057
9.218000	 63.7945
9.236000	 63.7532
9.254000	 63.69
9.272000	 63.6281
9.289999	 63.5943
9.308000	 63.5993
9.326000	 63.6258
9.344000	 63.6431
9.362000	 63.635
9.379999	 63.6184
9.398000	 63.6266
9.416000	 63.6777
9.434000	 63.7556
9.452000	 63.821
9.469999	 63.8384
9.488000	 63.7957
9.506000	 63.7112
9.524000	 63.6245
9.542000	 63.5758
9.560000	 63.5839
9.577999	 63.6354
9.596000	 63.6949
9.614000	 63.7268
9.632000	 63.717
9.650000	 63.6803
9.667999	 63.6502
9.686000	 63.6578
9.704000	 63.7136
9.722000	 63.8026
9.740000	 63.8931
9.757999	 63.9541
9.776000	 63.9674
9.794000	 63.9317
9.812000	 63.8597
9.830000	 63.7706
9.847999	 63.6851
9.866000	 63.6235
9.884000	 63.6009
9.902000	 63.6206
9.920000	 63.6713
9.937999	 63.7317
9.956000	 63.7837
9.974000	 63.8184
9.992000	 63.8342
10.01	63.8316
10.028	63.8109
10.046	63.775
10.064	63.7327
10.082	63.6965
10.1	63.6776
10.118	63.6805
10.136	63.7029
10.154	63.7389
10.172	63.7808
10.19	63.8188
10.208	63.8453
10.226	63.8578
10.244	63.8596
10.262	63.8572
10.28	63.8533
10.298	63.8463
10.316	63.8341
10.334	63.8175
10.352	63.7997
10.37	63.7821
10.388	63.76
10.406	63.7269
10.424	63.6837
10.442	63.6453
10.46	63.6331
10.478	63.6621
10.496	63.7255
10.514	63.7971
10.532	63.8425
10.55	63.8419
10.568	63.7979
10.586	63.734
10.604	63.6779
10.622	63.6483
10.64	63.6467
10.658	63.6636
10.676	63.686
10.694	63.7058
10.712	63.7201
10.73	63.7288
10.748	63.7312
10.766	63.7272
10.784	63.7185
10.802	63.7097
10.82	63.7061
10.838	63.711
10.856	63.7242
10.874	63.7433
10.892	63.7657
10.91	63.7908
10.928	63.8202
10.946	63.8553
10.964	63.8957
10.982	63.9373
11	63.9731
11.018	63.9949
11.036	63.9965
11.054	63.9755
11.072	63.9346
11.09	63.8812
11.108	63.8241
11.126	63.7716
11.144	63.7285
11.162	63.6959
11.18	63.6731
11.198	63.6608
11.216	63.6612
11.234	63.6766
11.252	63.7069
11.27	63.7475
11.288	63.7892
11.306	63.8211
11.324	63.8343
11.342	63.8252
11.36	63.7969
11.378	63.7569
11.396	63.7138
11.414	63.6746
11.432	63.6413
11.45	63.6126
11.468	63.5844
11.486	63.5531
11.504	63.5175
11.522	63.4812
11.54	63.4521
11.558	63.4403
11.576	63.4544
11.594	63.4969
11.612	63.5625
11.63	63.6377
11.648	63.7063
11.666	63.7527
11.684	63.7682
11.702	63.7538
11.72	63.7192
11.738	63.6803
11.756	63.6524
11.774	63.646
11.792	63.6641
11.81	63.7021
11.828	63.7508
11.846	63.7982
11.864	63.8335
11.882	63.8504
11.9	63.8472
11.918	63.8271
11.936	63.7963
11.954	63.762
11.972	63.7314
11.99	63.7105
12.008	63.7042
12.026	63.7149
12.044	63.7422
12.062	63.781
12.08	63.821
12.098	63.8492
12.116	63.8532
12.134	63.8267
12.152	63.772
12.17	63.6993
12.188	63.624
12.206	63.5616
12.224	63.5231
12.242	63.5124
12.26	63.5257
12.278	63.5539
12.296	63.5859
12.314	63.6116
12.332	63.6258
12.35	63.628
12.368	63.622
12.386	63.614
12.404	63.61
12.422	63.6138
12.44	63.6264
12.458	63.6459
12.476	63.6689
12.494	63.6913
12.512	63.7097
12.53	63.722
12.548	63.7269
12.566	63.7236
12.584	63.7114
12.602	63.6894
12.62	63.6567
12.638	63.6133
12.656	63.5614
12.674	63.5057
12.692	63.4526
12.71	63.4093
12.728	63.3821
12.746	63.3744
12.764	63.3866
12.782	63.4156
12.8	63.4556
12.818	63.4999
12.836	63.542
12.854	63.578
12.872	63.6056
12.89	63.6254
12.908	63.6395
12.926	63.6507
12.944	63.6613
12.962	63.6721
12.98	63.6826
12.998	63.6907
13.016	63.6939
13.034	63.6896
13.052	63.6768
13.07	63.6556
13.088	63.628
13.106	63.5971
13.124	63.5662
13.142	63.5382
13.16	63.5145
13.178	63.4944
13.196	63.476
13.214	63.4562
13.232	63.4314
13.25	63.3995
13.268	63.3598
13.286	63.3145
13.304	63.2675
13.322	63.2246
13.34	63.1916
13.358	63.1734
13.376	63.1729
13.394	63.1905
13.412	63.2235
13.43	63.2671
13.448	63.3155
13.466	63.3625
13.484	63.4029
13.502	63.4331
13.52	63.4512
13.538	63.4572
13.556	63.4523
13.574	63.4386
13.592	63.4189
13.61	63.396
13.628	63.3726
13.646	63.3512
13.664	63.3341
13.682	63.3235
13.7	63.3206
13.718	63.3254
13.736	63.3367
13.754	63.3525
13.772	63.3699
13.79	63.3855
13.808	63.3966
13.826	63.4018
13.844	63.4009
13.862	63.3953
13.88	63.3873
13.898	63.3802
13.916	63.3774
13.934	63.3816
13.952	63.3941
13.97	63.4149
13.988	63.4421
14.006	63.4725
14.024	63.5021
14.042	63.5264
14.06	63.5413
14.078	63.5438
14.096	63.5325
14.114	63.5075
14.132	63.4711
14.15	63.4269
14.168	63.3798
14.186	63.3352
14.204	63.298
14.222	63.2722
14.24	63.2602
14.258	63.2625
14.276	63.2778
14.294	63.3032
14.312	63.3355
14.33	63.3714
14.348	63.4079
14.366	63.443
14.384	63.4756
14.402	63.5057
14.42	63.5336
14.438	63.5591
14.456	63.5819
14.474	63.6005
14.492	63.6133
14.51	63.6181
14.528	63.6131
14.546	63.5982
14.564	63.5746
14.582	63.5453
14.6	63.5148
14.618	63.4884
14.636	63.4717
14.654	63.4686
14.672	63.4804
14.69	63.5063
14.708	63.5427
14.726	63.584
14.744	63.6224
14.762	63.6507
14.78	63.6634
14.798	63.6572
14.816	63.6313
14.834	63.5879
14.852	63.5324
14.87	63.4712
14.888	63.4107
14.906	63.3564
14.924	63.3127
14.942	63.2817
14.96	63.263
14.978	63.2546
14.996	63.2537
15.014	63.2571
15.032	63.2617
15.05	63.2657
15.068	63.2688
15.086	63.2715
15.104	63.2747
15.122	63.2798
15.14	63.2877
15.158	63.2987
15.176	63.3126
15.194	63.3285
15.212	63.3445
15.23	63.3598
15.248	63.3736
15.266	63.3854
15.284	63.396
15.302	63.4066
15.32	63.4177
15.338	63.4299
15.356	63.4428
15.374	63.4548
15.392	63.4637
15.41	63.4675
15.428	63.4634
15.446	63.4497
15.464	63.4262
15.482	63.3941
15.5	63.3553
15.518	63.3151
15.536	63.2781
15.554	63.2485
15.572	63.231
15.59	63.2282
15.608	63.24
15.626	63.2651
15.644	63.3001
15.662	63.3388
15.68	63.3757
15.698	63.4054
15.716	63.4219
15.734	63.4219
15.752	63.4043
15.77	63.369
15.788	63.3188
15.806	63.2578
15.824	63.1901
15.842	63.1208
15.86	63.0551
15.878	62.9967
15.896	62.9487
15.914	62.9142
15.932	62.8945
15.95	62.8903
15.968	62.9019
15.986	62.9285
16.004	62.9691
16.022	63.022
16.04	63.0844
16.058	63.1531
16.076	63.2252
16.094	63.2956
16.112	63.36
16.13	63.4148
16.148	63.4555
16.166	63.4789
16.184	63.4837
16.202	63.4684
16.22	63.4344
16.238	63.3844
16.256	63.3216
16.274	63.252
16.292	63.1805
16.31	63.1115
16.328	63.0512
16.346	63.0027
16.364	62.9683
16.382	62.9496
16.4	62.9455
16.418	62.955
16.436	62.9745
16.454	63.0004
16.472	63.0297
16.49	63.0574
16.508	63.0809
16.526	63.0979
16.544	63.106
16.562	63.1051
16.58	63.0951
16.598	63.0773
16.616	63.0537
16.634	63.0259
16.652	62.9971
16.67	62.9689
16.688	62.9433
16.706	62.9221
16.724	62.9058
16.742	62.895
16.76	62.8893
16.778	62.8885
16.796	62.8921
16.814	62.8989
16.832	62.9087
16.85	62.921
16.868	62.9358
16.886	62.9532
16.904	62.9744
16.922	63.0002
16.94	63.032
16.958	63.0712
16.976	63.1184
16.994	63.1747
17.012	63.239
17.03	63.3111
17.048	63.3881
17.066	63.4676
17.084	63.5464
17.102	63.6193
17.12	63.6843
17.138	63.7354
17.156	63.7705
17.174	63.7865
17.192	63.7821
17.21	63.7573
17.228	63.7134
17.246	63.6537
17.264	63.5799
17.282	63.4982
17.3	63.411
17.318	63.324
17.336	63.2408
17.354	63.1643
17.372	63.0979
17.39	63.0421
17.408	62.9984
17.426	62.9658
17.444	62.9442
17.462	62.9314
17.48	62.9269
17.498	62.9286
17.516	62.936
17.534	62.9481
17.552	62.9649
17.57	62.9862
17.588	63.0128
17.606	63.0449
17.624	63.0832
17.642	63.1276
17.66	63.1783
17.678	63.2334
17.696	63.2922
17.714	63.3518
17.732	63.4099
17.75	63.4636
17.768	63.5095
17.786	63.5464
17.804	63.5707
17.822	63.5825
17.84	63.5811
17.858	63.5685
17.876	63.5456
17.894	63.5176
17.912	63.4861
17.93	63.4587
17.948	63.4367
17.966	63.4276
17.984	63.4326
18.002	63.4564
18.02	63.4989
18.038	63.5616
18.056	63.6414
18.074	63.7378
18.092	63.8445
18.11	63.9602
18.128	64.0771
18.146	64.1935
18.164	64.3023
18.182	64.4018
18.2	64.4875
18.218	64.5588
18.236	64.6141
18.254	64.6551
18.272	64.6817
18.29	64.6981
18.308	64.7047
18.326	64.7064
18.344	64.7038
18.362	64.7009
18.38	64.6979
18.398	64.6966
18.416	64.6965
18.434	64.6977
18.452	64.6981
18.47	64.6969
18.488	64.6914
18.506	64.6806
18.524	64.6621
18.542	64.6352
18.56	64.5993
18.578	64.5543
18.596	64.5023
18.614	64.4434
18.632	64.3824
18.65	64.3197
18.668	64.2613
18.686	64.2078
18.704	64.1649
18.722	64.1327
18.74	64.1154
18.758	64.1126
18.776	64.126
18.794	64.1543
18.812	64.1962
18.83	64.2496
18.848	64.3111
18.866	64.3779
18.884	64.4448
18.902	64.5091
18.92	64.5653
18.938	64.6112
18.956	64.6415
18.974	64.6552
18.992	64.6487
19.01	64.622
19.028	64.5732
19.046	64.5037
19.064	64.4136
19.082	64.3048
19.1	64.1794
19.118	64.0394
19.136	63.8883
19.154	63.728
19.172	63.5629
19.19	63.3942
19.208	63.2268
19.226	63.0613
19.244	62.902
19.262	62.7491
19.28	62.6062
19.298	62.4732
19.316	62.3533
19.334	62.246
19.352	62.1536
19.37	62.076
19.388	62.0141
19.406	61.9681
19.424	61.9377
19.442	61.9233
19.46	61.9234
19.478	61.9379
19.496	61.9647
19.514	62.0037
19.532	62.0517
19.55	62.1076
19.568	62.1689
19.586	62.2333
19.604	62.2994
19.622	62.3632
19.64	62.4246
19.658	62.4798
19.676	62.5293
19.694	62.5701
19.712	62.6025
19.73	62.6259
19.748	62.64
19.766	62.6459
19.784	62.6435
19.802	62.6349
19.82	62.6209
19.838	62.6033
19.856	62.5847
19.874	62.5654
19.892	62.5487
19.91	62.5344
19.928	62.5249
19.946	62.5201
19.964	62.5208
19.982	62.5274
20	62.5389
20.018	62.5553
20.036	62.5754
20.054	62.5974
20.072	62.6212
20.09	62.6434
20.108	62.6646
20.126	62.6813
20.144	62.6934
20.162	62.6992
20.18	62.6977
20.198	62.6887
20.216	62.6709
20.234	62.645
20.252	62.6112
20.27	62.5695
20.288	62.5221
20.306	62.4685
20.324	62.4116
20.342	62.3528
20.36	62.2929
20.378	62.2357
20.396	62.1803
20.414	62.1309
20.432	62.0871
20.45	62.0513
20.468	62.0249
20.486	62.0079
20.504	62.0019
20.522	62.0063
20.54	62.021
20.558	62.0463
20.576	62.0804
20.594	62.123
20.612	62.1729
20.63	62.2272
20.648	62.2867
20.666	62.3477
20.684	62.4105
20.702	62.473
20.72	62.5335
20.738	62.5923
20.756	62.6479
20.774	62.7004
20.792	62.7497
20.81	62.7955
20.828	62.8388
20.846	62.8803
20.864	62.92
20.882	62.9604
20.9	63.001
20.918	63.0435
20.936	63.089
20.954	63.1372
20.972	63.1893
20.99	63.2455
21.008	63.3046
21.026	63.3671
21.044	63.432
21.062	63.497
21.08	63.563
21.098	63.626
21.116	63.6858
21.134	63.7409
21.152	63.7877
21.17	63.8271
21.188	63.8563
21.206	63.8744
21.224	63.8817
21.242	63.8771
21.26	63.8607
21.278	63.8345
21.296	63.7977
21.314	63.7525
21.332	63.7021
21.35	63.6452
21.368	63.5871
21.386	63.5286
21.404	63.4709
21.422	63.4189
21.44	63.3713
21.458	63.3311
21.476	63.3001
21.494	63.2774
21.512	63.2644
21.53	63.2611
21.548	63.2663
21.566	63.2796
21.584	63.3009
21.602	63.3263
21.62	63.3566
21.638	63.3893
21.656	63.4211
21.674	63.4532
21.692	63.4815
21.71	63.5049
21.728	63.5234
21.746	63.5339
21.764	63.5369
21.782	63.5318
21.8	63.5177
21.818	63.495
21.836	63.4647
21.854	63.4262
21.872	63.3809
21.89	63.3311
21.908	63.2757
21.926	63.2174
21.944	63.1578
21.962	63.0963
21.98	63.0361
21.998	62.9773
22.016	62.9204
22.034	62.8678
22.052	62.8189
22.07	62.7744
22.088	62.7353
22.106	62.7011
22.124	62.6716
22.142	62.6472
22.16	62.6275
22.178	62.6113
22.196	62.5991
22.214	62.5901
22.232	62.5831
22.25	62.5787
22.268	62.5757
22.286	62.5733
22.304	62.572
22.322	62.5707
22.34	62.5693
22.358	62.5678
22.376	62.5656
22.394	62.5627
22.412	62.5592
22.43	62.5547
22.448	62.5495
22.466	62.5431
22.484	62.5356
22.502	62.5269
22.52	62.5166
22.538	62.5045
22.556	62.4907
22.574	62.4743
22.592	62.4553
22.61	62.4336
22.628	62.4081
22.646	62.379
22.664	62.3461
22.682	62.3083
22.7	62.2661
22.718	62.2191
22.736	62.1672
22.754	62.1103
22.772	62.0487
22.79	61.9822
22.808	61.9108
22.826	61.8354
22.844	61.7565
22.862	61.6736
22.88	61.589
22.898	61.5033
22.916	61.416
22.934	61.3304
22.952	61.2471
22.97	61.1657
22.988	61.0892
23.006	61.018
23.024	60.9519
23.042	60.8938
23.06	60.844
23.078	60.8021
23.096	60.77
23.114	60.7477
23.132	60.735
23.15	60.7328
23.168	60.7414
23.186	60.7602
23.204	60.7887
23.222	60.827
23.24	60.8747
23.258	60.9306
23.276	60.9952
23.294	61.0679
23.312	61.1468
23.33	61.2323
23.348	61.3241
23.366	61.4203
23.384	61.5213
23.402	61.6268
23.42	61.7355
23.438	61.8475
23.456	61.9627
23.474	62.0797
23.492	62.1987
23.51	62.3195
23.528	62.4407
23.546	62.5619
23.564	62.6834
23.582	62.8035
23.6	62.9217
23.618	63.0386
23.636	63.152
23.654	63.261
23.672	63.3663
23.69	63.4665
23.708	63.5605
23.726	63.6492
23.744	63.7316
23.762	63.8071
23.78	63.8758
23.798	63.9381
23.816	63.9941
23.834	64.0433
23.852	64.0865
23.87	64.1248
23.888	64.1574
23.906	64.1851
23.924	64.21
23.942	64.2317
23.96	64.2504
23.978	64.2679
23.996	64.2849
24.014	64.3008
24.032	64.3164
24.05	64.3328
24.068	64.3497
24.086	64.3662
24.104	64.3819
24.122	64.3977
24.14	64.412
24.158	64.4228
24.176	64.4316
24.194	64.4369
24.212	64.4351
24.23	64.4265
24.248	64.4116
24.266	64.3858
24.284	64.3465
24.302	64.2964
24.32	64.2318
24.338	64.1492
24.356	64.0504
24.374	63.9346
24.392	63.7998
24.41	63.6453
24.428	63.4724
24.446	63.2823
24.464	63.0745
24.482	62.8484
24.5	62.6088
24.518	62.3592
24.536	62.0953
24.554	61.8228
24.572	61.5495
24.59	61.2727
24.608	60.9933
24.626	60.7196
24.644	60.4546
24.662	60.1939
24.68	59.9449
24.698	59.715
24.716	59.4994
24.734	59.301
24.752	59.126
24.77	58.9744
24.788	58.8447
24.806	58.7404
24.824	58.6641
24.842	58.614
24.86	58.5905
24.878	58.5952
24.896	58.6288
24.914	58.6898
24.932	58.7761
24.95	58.8874
24.968	59.0252
24.986	59.1853
25.004	59.3635
25.022	59.5636
25.04	59.7824
25.058	60.0125
25.076	60.2517
25.094	60.5047
25.112	60.7626
25.13	61.0164
25.148	61.272
25.166	61.5261
25.184	61.7691
25.202	61.997
25.22	62.2158
25.238	62.4183
25.256	62.5968
25.274	62.7545
25.292	62.891
25.31	63.0013
25.328	63.082
25.346	63.1362
25.364	63.1627
25.382	63.1596
25.4	63.1258
25.418	63.0629
25.436	62.9732
25.454	62.858
25.472	62.7144
25.49	62.5465
25.508	62.3593
25.526	62.1526
25.544	61.9241
25.562	61.681
25.58	61.4299
25.598	61.1661
25.616	60.8919
25.634	60.6141
25.652	60.3372
25.67	60.057
25.688	59.7756
25.706	59.4959
25.724	59.2194
25.742	58.9444
25.76	58.6698
25.778	58.3947
25.796	58.1217
25.814	57.8484
25.832	57.5699
25.85	57.2833
25.868	56.9929
25.886	56.6948
25.904	56.3841
25.922	56.0602
25.94	55.726
25.958	55.377
25.976	55.0087
25.994	54.6204
26.012	54.2143
26.03	53.7917
26.048	53.3529
26.066	52.8924
26.084	52.4169
26.102	51.9364
26.12	51.4553
26.138	50.9626
26.156	50.4716
26.174	49.9984
26.192	49.5452
26.21	49.0998
26.228	48.6819
26.246	48.3127
26.264	47.99
26.282	47.7053
26.3	47.4753
26.318	47.3163
26.336	47.2245
26.354	47.1956
26.372	47.2356
26.39	47.3504
26.408	47.5423
26.426	47.8052
26.444	48.1317
26.462	48.5173
26.48	48.9766
26.498	49.4944
26.516	50.048
26.534	50.6226
26.552	51.2424
26.57	51.8875
26.588	52.5295
26.606	53.1523
26.624	53.7832
26.642	54.4001
26.66	54.9741
26.678	55.4891
26.696	55.9679
26.714	56.3973
26.732	56.7603
26.75	57.046
26.768	57.2649
26.786	57.4177
26.804	57.5039
26.822	57.5192
26.84	57.459
26.858	57.3388
26.876	57.1752
26.894	56.9713
26.912	56.7088
26.93	56.4125
26.948	56.1102
26.966	55.8058
26.984	55.4615
27.002	55.1298
27.02	54.8698
27.028	54.8006