File: Bakgrunnsmateriale/MATLAB/FTIR/ftir_data/subAa/Mapping_121/BZ1503107-1_t56_cm-1.asc
PE IR       SPECTRUM    SPECTRUM    ASCII       PEDS        1.60
  -1
BZ6EA3~1.ASC
17/04/07
17:50:29.00
17/04/07
17:50:29.00
tln
$BZ1503107-1_t0056$<tbV0>[13.0,0.0,8.0,0.0,27,1,0]
370
64

2002,4.07
MIRTGS : RIGHTBACK : INTERNAL 2
MIR : ON : INTERNAL 2
OPTKBR

0.200000
8
8.000000
FILLER
RATIO
SPECTRUM
UNLOCKED 256

DOUBLE
64
COMBINED
1
0
0

1.000000
RATIO

1
0
TRUE
51149
0
LEFT NOT FITTED RIGHT NOT FITTED 0
NONE
NONE
15600
12
4.427000
51148
TRUE
1 0 8 72 0 0 0 0

15798

#HDR
-1
-1
#GR
CM-1
%T
2.38419e-05
0.0
5000
-1.000000
4631
8
74.067
47.3123
#DATA
5000	65.603
4996	66.4538
4992	67.336
4988	66.7486
4984	64.8291
4980	63.885
4976	63.7837
4972	63.8497
4968	64.3886
4964	64.9981
4960	65.5464
4956	65.8359
4952	65.388
4948	65.2568
4944	65.7994
4940	65.562
4936	64.8078
4932	64.7385
4928	65.0645
4924	65.4195
4920	65.6088
4916	65.7126
4912	66.0123
4908	65.8861
4904	65.5574
4900	65.4963
4896	65.3707
4892	65.1775
4888	65.1309
4884	65.2697
4880	65.3481
4876	65.2214
4872	64.9767
4868	64.7663
4864	64.7001
4860	64.8141
4856	64.9703
4852	64.9962
4848	64.8567
4844	64.6993
4840	64.7479
4836	64.853
4832	64.9129
4828	64.99
4824	64.925
4820	64.7956
4816	64.8278
4812	64.8379
4808	64.7339
4804	64.7008
4800	64.7696
4796	64.9841
4792	65.0748
4788	64.8138
4784	64.7064
4780	64.8448
4776	64.9291
4772	65.0259
4768	65.0148
4764	64.8258
4760	64.7434
4756	64.7369
4752	64.5168
4748	64.3599
4744	64.6169
4740	64.9419
4736	64.9215
4732	64.6529
4728	64.5046
4724	64.5066
4720	64.4978
4716	64.506
4712	64.5621
4708	64.594
4704	64.5457
4700	64.522
4696	64.6417
4692	64.9421
4688	65.0897
4684	65.0444
4680	65.2624
4676	65.3918
4672	65.1843
4668	64.9566
4664	64.7989
4660	64.9189
4656	65.2584
4652	65.3617
4648	65.2368
4644	65.2115
4640	65.2324
4636	65.0855
4632	64.9685
4628	65.0824
4624	65.2146
4620	65.2007
4616	65.0758
4612	65.0086
4608	65.0502
4604	65.1421
4600	65.2674
4596	65.274
4592	65.2114
4588	65.2384
4584	65.2629
4580	65.279
4576	65.3741
4572	65.2508
4568	65.0166
4564	65.0323
4560	65.0457
4556	65.026
4552	65.1749
4548	65.3871
4544	65.4355
4540	65.2273
4536	64.9836
4532	64.893
4528	64.847
4524	64.8764
4520	65.0136
4516	65.0845
4512	65.2154
4508	65.4565
4504	65.7486
4500	65.9041
4496	65.4985
4492	64.9779
4488	64.9757
4484	65.2361
4480	65.3695
4476	65.3487
4472	65.0744
4468	64.6253
4464	64.1082
4460	63.8431
4456	63.8963
4452	62.2345
4448	57.5007
4444	59.4246
4440	69.7538
4436	74.067
4432	68.9178
4428	60.3101
4424	56.3802
4420	58.7029
4416	61.5808
4412	63.9118
4408	65.4955
4404	65.6097
4400	65.5013
4396	65.4852
4392	65.3751
4388	65.1777
4384	65.0038
4380	64.9589
4376	65.1326
4372	65.3339
4368	65.483
4364	65.7544
4360	65.989
4356	65.8604
4352	65.4937
4348	65.249
4344	65.15
4340	65.0627
4336	65.1513
4332	65.3729
4328	65.3729
4324	65.2005
4320	65.2058
4316	65.3989
4312	65.4849
4308	65.4437
4304	65.4862
4300	65.5935
4296	65.5003
4292	65.2144
4288	64.9634
4284	64.9154
4280	65.1409
4276	65.34
4272	65.2995
4268	65.1893
4264	65.0502
4260	64.9029
4256	64.8738
4252	64.826
4248	64.7033
4244	64.6727
4240	64.7601
4236	64.9347
4232	65.1189
4228	65.2438
4224	65.2961
4220	65.1731
4216	64.96
4212	64.9334
4208	65.0259
4204	65.0206
4200	64.9552
4196	64.9395
4192	65.0033
4188	65.102
4184	65.1003
4180	64.9645
4176	64.8568
4172	64.7935
4168	64.6741
4164	64.5779
4160	64.7
4156	64.9736
4152	65.0407
4148	64.9181
4144	64.9269
4140	65.0672
4136	65.0916
4132	65.0086
4128	65.0223
4124	65.1141
4120	65.1578
4116	65.1886
4112	65.2915
4108	65.2811
4104	65.1356
4100	65.1763
4096	65.2988
4092	65.2748
4088	65.1607
4084	65.0019
4080	64.8737
4076	64.891
4072	65.0566
4068	65.1948
4064	65.1471
4060	65.0802
4056	65.0846
4052	65.1043
4048	65.167
4044	65.1637
4040	65.1903
4036	65.3116
4032	65.3515
4028	65.2561
4024	65.1406
4020	65.1403
4016	65.161
4012	65.1434
4008	65.1782
4004	65.1969
4000	65.1179
3996	65.1492
3992	65.3184
3988	65.3424
3984	65.2303
3980	65.1712
3976	65.1951
3972	65.2494
3968	65.2797
3964	65.2301
3960	65.1401
3956	65.0424
3952	64.8351
3948	64.815
3944	65.1567
3940	65.3769
3936	65.3785
3932	65.3536
3928	65.182
3924	65.0733
3920	65.2395
3916	65.2451
3912	65.1337
3908	65.2534
3904	65.4823
3900	65.6101
3896	65.5234
3892	65.4219
3888	65.3705
3884	65.287
3880	65.3362
3876	65.314
3872	65.0448
3868	64.9836
3864	65.2071
3860	65.2529
3856	65.1534
3852	65.2297
3848	65.2764
3844	65.0575
3840	64.9486
3836	65.0979
3832	65.193
3828	65.2001
3824	65.2282
3820	65.2495
3816	65.1923
3812	65.0775
3808	64.9738
3804	64.9706
3800	65.0347
3796	64.9173
3792	64.7441
3788	64.8556
3784	65.0862
3780	65.1564
3776	65.136
3772	65.0582
3768	64.9766
3764	65.0613
3760	65.1404
3756	65.0807
3752	65.0894
3748	65.1765
3744	65.2036
3740	65.1615
3736	65.1021
3732	65.1134
3728	65.1318
3724	65.1151
3720	65.1492
3716	65.232
3712	65.3003
3708	65.2983
3704	65.2919
3700	65.327
3696	65.3272
3692	65.253
3688	65.2087
3684	65.2024
3680	65.0937
3676	65.0166
3672	65.0976
3668	65.177
3664	65.2169
3660	65.3039
3656	65.34
3652	65.2175
3648	65.0903
3644	65.1294
3640	65.2653
3636	65.2807
3632	65.1455
3628	65.0753
3624	65.1346
3620	65.1905
3616	65.1334
3612	65.0118
3608	65.0229
3604	65.1279
3600	65.1174
3596	65.0544
3592	65.0417
3588	65.1197
3584	65.2198
3580	65.133
3576	64.9633
3572	64.9467
3568	65.0055
3564	65.0432
3560	65.0826
3556	65.0934
3552	65.0626
3548	65.0161
3544	65.0334
3540	65.1016
3536	65.1119
3532	65.0547
3528	64.986
3524	64.9285
3520	64.9122
3516	64.9989
3512	65.1314
3508	65.2044
3504	65.1945
3500	65.187
3496	65.1944
3492	65.16
3488	65.14
3484	65.1567
3480	65.1214
3476	65.0042
3472	64.9462
3468	65.0186
3464	65.1034
3460	65.1338
3456	65.1653
3452	65.2164
3448	65.2556
3444	65.2584
3440	65.182
3436	65.0731
3432	64.9869
3428	64.9628
3424	65.0578
3420	65.1256
3416	65.0588
3412	65.0446
3408	65.1082
3404	65.0541
3400	64.9714
3396	64.9769
3392	64.9894
3388	65.0296
3384	65.0988
3380	65.1144
3376	65.1302
3372	65.1814
3368	65.1002
3364	64.9552
3360	64.9419
3356	64.9055
3352	64.8095
3348	64.8166
3344	64.9066
3340	64.9744
3336	64.9699
3332	65.048
3328	65.2062
3324	65.187
3320	65.064
3316	65.0262
3312	65.0777
3308	65.169
3304	65.2045
3300	65.1326
3296	65.04
3292	65.0094
3288	65.0639
3284	65.1405
3280	65.1377
3276	65.0945
3272	65.0514
3268	65.001
3264	65.0247
3260	65.1297
3256	65.1875
3252	65.1247
3248	65.0171
3244	65.0125
3240	65.0608
3236	65.0339
3232	64.9922
3228	65.0115
3224	65.0598
3220	65.082
3216	65.0769
3212	65.1079
3208	65.1548
3204	65.1534
3200	65.1461
3196	65.1603
3192	65.1375
3188	65.0559
3184	65.0022
3180	65.0228
3176	65.0273
3172	65.0055
3168	65.0525
3164	65.1531
3160	65.2152
3156	65.1916
3152	65.1354
3148	65.0762
3144	65.0008
3140	64.9875
3136	65.0387
3132	65.1351
3128	65.2391
3124	65.2036
3120	65.0541
3116	64.958
3112	64.9462
3108	64.9589
3104	65.0251
3100	65.1719
3096	65.2156
3092	65.0336
3088	64.8171
3084	64.7943
3080	64.949
3076	65.0858
3072	65.1143
3068	65.0953
3064	65.1005
3060	65.1118
3056	65.0955
3052	65.068
3048	65.008
3044	64.9625
3040	64.9553
3036	64.9201
3032	64.9041
3028	64.9222
3024	64.9555
3020	65.0215
3016	65.0467
3012	65.076
3008	65.168
3004	65.2032
3000	65.1278
2996	65.0498
2992	65.0187
2988	64.9928
2984	65.0193
2980	65.0927
2976	65.0754
2972	64.928
2968	64.7907
2964	64.7444
2960	64.7654
2956	64.8256
2952	64.8653
2948	64.894
2944	64.9381
2940	64.9409
2936	64.8955
2932	64.8735
2928	64.9243
2924	64.9837
2920	64.982
2916	64.9585
2912	64.9444
2908	64.9663
2904	64.9523
2900	64.8213
2896	64.7413
2892	64.787
2888	64.8357
2884	64.848
2880	64.8296
2876	64.8371
2872	64.8954
2868	64.9281
2864	64.8973
2860	64.8335
2856	64.8151
2852	64.9076
2848	65.0189
2844	65.0175
2840	64.9686
2836	64.9622
2832	64.9755
2828	64.9915
2824	64.9812
2820	64.9306
2816	64.9055
2812	64.9605
2808	65.0677
2804	65.0951
2800	65.0196
2796	64.9642
2792	64.9417
2788	64.9204
2784	64.9098
2780	64.9247
2776	64.9789
2772	65.0227
2768	64.9755
2764	64.9075
2760	64.8633
2756	64.8374
2752	64.9201
2748	65.0376
2744	65.0368
2740	64.9655
2736	64.9217
2732	64.9026
2728	64.8985
2724	64.9044
2720	64.9181
2716	64.9156
2712	64.9045
2708	64.9432
2704	64.9591
2700	64.9165
2696	64.9304
2692	64.9894
2688	64.9872
2684	64.9496
2680	64.932
2676	64.9109
2672	64.8881
2668	64.9103
2664	64.9631
2660	64.9647
2656	64.9384
2652	64.9481
2648	64.9551
2644	64.9308
2640	64.8802
2636	64.8561
2632	64.8776
2628	64.8529
2624	64.7753
2620	64.778
2616	64.8597
2612	64.891
2608	64.9001
2604	64.9425
2600	64.9315
2596	64.8955
2592	64.9214
2588	64.9332
2584	64.8837
2580	64.8532
2576	64.8714
2572	64.8728
2568	64.8329
2564	64.8041
2560	64.785
2556	64.7934
2552	64.8648
2548	64.9276
2544	64.9253
2540	64.8973
2536	64.8968
2532	64.8996
2528	64.8836
2524	64.8818
2520	64.887
2516	64.9198
2512	64.9641
2508	64.9317
2504	64.883
2500	64.9181
2496	64.9496
2492	64.9351
2488	64.9409
2484	64.96
2480	64.9611
2476	64.9029
2472	64.8146
2468	64.7826
2464	64.8157
2460	64.8513
2456	64.8494
2452	64.8416
2448	64.8407
2444	64.8481
2440	64.8895
2436	64.9671
2432	65.0373
2428	65.026
2424	64.9508
2420	64.906
2416	64.8802
2412	64.837
2408	64.8038
2404	64.7789
2400	64.797
2396	64.8802
2392	64.9338
2388	64.9453
2384	64.9446
2380	64.8655
2376	64.7342
2372	64.6788
2368	64.7282
2364	64.8022
2360	64.8062
2356	64.7501
2352	64.7555
2348	64.7983
2344	64.784
2340	64.7558
2336	64.7477
2332	64.7578
2328	64.8014
2324	64.8391
2320	64.8559
2316	64.8628
2312	64.8458
2308	64.8277
2304	64.827
2300	64.8281
2296	64.8088
2292	64.7464
2288	64.7166
2284	64.7803
2280	64.8013
2276	64.7432
2272	64.7119
2268	64.7418
2264	64.8141
2260	64.8416
2256	64.8078
2252	64.7897
2248	64.7728
2244	64.7274
2240	64.6925
2236	64.6667
2232	64.647
2228	64.6765
2224	64.7379
2220	64.7717
2216	64.7498
2212	64.7123
2208	64.7186
2204	64.7452
2200	64.769
2196	64.7966
2192	64.7945
2188	64.7355
2184	64.6951
2180	64.7514
2176	64.7877
2172	64.6935
2168	64.6075
2164	64.6251
2160	64.7224
2156	64.784
2152	64.7267
2148	64.6719
2144	64.6963
2140	64.7115
2136	64.684
2132	64.6709
2128	64.7181
2124	64.7497
2120	64.7203
2116	64.7084
2112	64.7189
2108	64.7316
2104	64.7475
2100	64.7574
2096	64.7445
2092	64.6711
2088	64.5654
2084	64.5296
2080	64.6134
2076	64.6941
2072	64.6917
2068	64.7051
2064	64.7494
2060	64.7367
2056	64.6986
2052	64.6924
2048	64.6729
2044	64.6539
2040	64.6847
2036	64.7036
2032	64.6858
2028	64.6406
2024	64.5732
2020	64.5505
2016	64.5609
2012	64.5793
2008	64.6253
2004	64.6669
2000	64.6675
1996	64.6364
1992	64.6144
1988	64.6227
1984	64.6312
1980	64.5742
1976	64.5062
1972	64.5326
1968	64.5796
1964	64.5805
1960	64.5448
1956	64.4967
1952	64.5217
1948	64.5605
1944	64.5153
1940	64.5064
1936	64.5846
1932	64.5903
1928	64.515
1924	64.4715
1920	64.4537
1916	64.4487
1912	64.4572
1908	64.478
1904	64.5172
1900	64.4964
1896	64.4256
1892	64.4404
1888	64.5049
1884	64.5432
1880	64.5761
1876	64.5844
1872	64.5654
1868	64.5465
1864	64.5458
1860	64.5805
1856	64.612
1852	64.5838
1848	64.4967
1844	64.4715
1840	64.5538
1836	64.5797
1832	64.4912
1828	64.409
1824	64.4107
1820	64.4476
1816	64.4718
1812	64.4791
1808	64.4568
1804	64.4338
1800	64.4136
1796	64.4052
1792	64.4315
1788	64.4585
1784	64.4578
1780	64.4066
1776	64.3178
1772	64.2691
1768	64.2821
1764	64.2968
1760	64.3234
1756	64.3443
1752	64.2958
1748	64.2155
1744	64.1616
1740	64.1715
1736	64.2047
1732	64.2142
1728	64.2261
1724	64.2298
1720	64.2008
1716	64.1735
1712	64.2029
1708	64.273
1704	64.3268
1700	64.329
1696	64.2943
1692	64.2817
1688	64.289
1684	64.2722
1680	64.2188
1676	64.1617
1672	64.1804
1668	64.2716
1664	64.3475
1660	64.3406
1656	64.2484
1652	64.1742
1648	64.2162
1644	64.2865
1640	64.2416
1636	64.1621
1632	64.1639
1628	64.1932
1624	64.2303
1620	64.2704
1616	64.2917
1612	64.3152
1608	64.2972
1604	64.2411
1600	64.2076
1596	64.1769
1592	64.1743
1588	64.2143
1584	64.2447
1580	64.2559
1576	64.2683
1572	64.272
1568	64.2262
1564	64.1475
1560	64.109
1556	64.1376
1552	64.2022
1548	64.2185
1544	64.1739
1540	64.1514
1536	64.1465
1532	64.1516
1528	64.212
1524	64.2689
1520	64.267
1516	64.251
1512	64.2657
1508	64.2928
1504	64.3082
1500	64.3548
1496	64.3791
1492	64.3158
1488	64.266
1484	64.2586
1480	64.2108
1476	64.143
1472	64.1195
1468	64.0902
1464	64.0541
1460	64.0994
1456	64.204
1452	64.2548
1448	64.1938
1444	64.1008
1440	64.0747
1436	64.1029
1432	64.1587
1428	64.2158
1424	64.1912
1420	64.0908
1416	64.0322
1412	64.0534
1408	64.0978
1404	64.1276
1400	64.1381
1396	64.148
1392	64.1594
1388	64.1258
1384	64.0679
1380	63.9888
1376	63.9197
1372	63.9723
1368	64.0372
1364	64.0157
1360	64.0084
1356	64.0378
1352	64.0651
1348	64.0892
1344	64.1208
1340	64.1316
1336	64.0726
1332	63.9848
1328	63.9716
1324	64.0179
1320	64.0509
1316	64.0639
1312	64.0533
1308	64.0591
1304	64.1211
1300	64.2164
1296	64.2311
1292	64.1362
1288	64.0791
1284	64.0513
1280	64.0015
1276	64.0081
1272	64.0409
1268	64.0522
1264	64.0309
1260	63.9585
1256	63.9154
1252	63.9421
1248	63.9606
1244	63.9704
1240	64.0055
1236	63.9678
1232	63.8604
1228	63.7963
1224	63.8106
1220	63.8597
1216	63.8726
1212	63.8969
1208	63.9469
1204	63.9363
1200	63.884
1196	63.8522
1192	63.8557
1188	63.8476
1184	63.8404
1180	63.8513
1176	63.8418
1172	63.8769
1168	63.8836
1164	63.7637
1160	63.6569
1156	63.6447
1152	63.6777
1148	63.7278
1144	63.7962
1140	63.8659
1136	63.8705
1132	63.8102
1128	63.7799
1124	63.7596
1120	63.6775
1116	63.6009
1112	63.5573
1108	63.563
1104	63.7259
1100	63.8666
1096	63.8166
1092	63.7712
1088	63.8015
1084	63.7817
1080	63.6705
1076	63.5923
1072	63.6292
1068	63.6338
1064	63.6274
1060	63.7555
1056	63.8386
1052	63.7127
1048	63.5758
1044	63.6373
1040	63.7276
1036	63.6749
1032	63.666
1028	63.8324
1024	63.966
1020	63.8954
1016	63.7095
1012	63.6014
1008	63.6733
1004	63.7934
1000	63.8352
996	 63.7879
992	 63.6987
988	 63.6835
984	 63.7588
980	 63.8408
976	 63.8595
972	 63.8507
968	 63.8208
964	 63.7784
960	 63.7019
956	 63.6332
952	 63.7593
948	 63.8438
944	 63.7091
940	 63.6459
936	 63.6951
932	 63.7287
928	 63.7227
924	 63.7062
920	 63.7383
916	 63.8017
912	 63.8978
908	 63.9909
904	 63.9596
900	 63.8145
896	 63.6979
892	 63.6596
888	 63.727
884	 63.8281
880	 63.7895
876	 63.6715
872	 63.5846
868	 63.4836
864	 63.4515
860	 63.6291
856	 63.7681
852	 63.6821
848	 63.6648
844	 63.8036
840	 63.8434
836	 63.748
832	 63.7087
828	 63.8156
824	 63.8221
820	 63.597
816	 63.52
812	 63.613
808	 63.6182
804	 63.6244
800	 63.698
796	 63.7248
792	 63.6428
788	 63.4571
784	 63.3782
780	 63.506
776	 63.6222
772	 63.6669
768	 63.6935
764	 63.6264
760	 63.517
756	 63.4382
752	 63.2833
748	 63.1708
744	 63.2962
740	 63.4461
736	 63.4248
732	 63.3364
728	 63.3369
724	 63.3984
720	 63.3835
716	 63.4103
712	 63.5295
708	 63.4879
704	 63.297
700	 63.2904
696	 63.4464
692	 63.5757
688	 63.6086
684	 63.4862
680	 63.5382
676	 63.6611
672	 63.4338
668	 63.2572
664	 63.2676
660	 63.2943
656	 63.3707
652	 63.4295
648	 63.4612
644	 63.2939
640	 63.2635
636	 63.4241
632	 63.1947
628	 62.9017
624	 63.0338
620	 63.4122
616	 63.3973
612	 63.0175
608	 62.9904
604	 63.1064
600	 62.9739
596	 62.8886
592	 62.9598
588	 63.2196
584	 63.6946
580	 63.6703
576	 63.1368
572	 62.9267
568	 63.0442
564	 63.4053
560	 63.5693
556	 63.434
552	 63.9985
548	 64.6434
544	 64.6976
540	 64.6688
536	 64.2975
532	 64.1602
528	 64.614
524	 64.292
520	 63.0186
516	 62.0402
512	 62.0496
508	 62.551
504	 62.6001
500	 62.5389
496	 62.6992
492	 62.4078
488	 62.0047
484	 62.3312
480	 62.8513
476	 63.306
472	 63.8542
468	 63.5886
464	 63.2683
460	 63.5309
456	 63.205
452	 62.6718
448	 62.5707
444	 62.515
440	 62.193
436	 61.3221
432	 60.7325
428	 61.4121
424	 62.8226
420	 63.9747
416	 64.3222
412	 64.3742
408	 62.4743
404	 59.1217
400	 59.3224
396	 62.5643
392	 62.3353
388	 58.4681
384	 53.5095
380	 47.3316
376	 52.7977
372	 57.1167
370	 54.8006