File: Bakgrunnsmateriale/MATLAB/FTIR/ftir_data/subAa/Mapping_121/BZ1503107-1_t05_cm-1.asc
PE IR       SPECTRUM    SPECTRUM    ASCII       PEDS        1.60
  -1
BZ6D22~1.ASC
17/04/07
13:38:58.00
17/04/07
13:38:58.00
tln
$BZ1503107-1_t0005$<tbV0>[2.6,-13.0,8.0,0.0,27,1,0]
370
64

2002,4.07
MIRTGS : RIGHTBACK : INTERNAL 2
MIR : ON : INTERNAL 2
OPTKBR

0.200000
8
8.000000
FILLER
RATIO
SPECTRUM
UNLOCKED 256

DOUBLE
64
COMBINED
1
0
0

1.000000
RATIO

1
0
TRUE
51149
0
LEFT NOT FITTED RIGHT NOT FITTED 0
NONE
NONE
15600
12
4.427000
51148
TRUE
1 0 8 72 0 0 0 0

15798

#HDR
-1
-1
#GR
CM-1
%T
2.38419e-05
0.0
5000
-1.000000
4631
8
85.746
58.9595
#DATA
5000	65.2549
4996	65.1008
4992	64.9867
4988	64.9
4984	64.5561
4980	64.3044
4976	64.4152
4972	64.5451
4968	64.721
4964	65.1867
4960	65.5218
4956	65.2639
4952	65.0665
4948	65.2519
4944	65.215
4940	64.9645
4936	64.7921
4932	64.6926
4928	65.184
4924	66.0115
4920	65.7857
4916	64.8022
4912	64.2718
4908	64.403
4904	65.1802
4900	66.0013
4896	65.5463
4892	63.8777
4888	62.9542
4884	63.8044
4880	64.2916
4876	63.5451
4872	63.4413
4868	63.9002
4864	64.376
4860	64.837
4856	64.8484
4852	64.7786
4848	64.9075
4844	65.0216
4840	65.2464
4836	65.4198
4832	65.1233
4828	64.9653
4824	65.1363
4820	65.3066
4816	65.8454
4812	66.0081
4808	65.6189
4804	65.8605
4800	66.0592
4796	65.5811
4792	65.4339
4788	65.7387
4784	65.6189
4780	65.207
4776	65.1966
4772	65.0633
4768	64.5147
4764	64.6494
4760	65.3568
4756	65.2867
4752	64.801
4748	64.8026
4744	65.0856
4740	65.1718
4736	65.0207
4732	64.9584
4728	64.858
4724	64.47
4720	64.1425
4716	64.3346
4712	64.573
4708	64.4332
4704	64.4959
4700	64.7161
4696	64.6901
4692	64.7646
4688	64.9152
4684	64.8867
4680	64.9894
4676	65.2187
4672	65.1651
4668	64.81
4664	64.5821
4660	64.7144
4656	64.8797
4652	64.8463
4648	64.9199
4644	65.0545
4640	64.7978
4636	64.4526
4632	64.4156
4628	64.4354
4624	64.3267
4620	64.1972
4616	64.3939
4612	64.8429
4608	64.9714
4604	64.8604
4600	64.7275
4596	64.4796
4592	64.329
4588	64.4993
4584	64.7477
4580	64.8379
4576	64.8058
4572	64.4913
4568	64.1021
4564	64.003
4560	63.9998
4556	63.8541
4552	63.7223
4548	63.8171
4544	64.1329
4540	64.3575
4536	64.3845
4532	64.2702
4528	63.9836
4524	63.5128
4520	63.1629
4516	63.3727
4512	63.8643
4508	64.2307
4504	64.572
4500	65.0611
4496	65.861
4492	66.9739
4488	67.0644
4484	67.7368
4480	68.9293
4476	67.0421
4472	64.128
4468	62.6102
4464	61.9951
4460	65.0296
4456	71.9571
4452	74.0714
4448	70.8249
4444	68.5564
4440	66.4028
4436	65.0875
4432	65.4893
4428	65.263
4424	64.3346
4420	63.7713
4416	63.8513
4412	64.1175
4408	64.079
4404	63.8966
4400	64.0006
4396	64.2835
4392	64.5071
4388	64.8304
4384	64.9062
4380	64.3924
4376	64.0205
4372	64.2341
4368	64.4896
4364	64.4263
4360	64.3435
4356	64.4099
4352	64.5417
4348	64.7349
4344	64.9451
4340	64.9537
4336	64.7577
4332	64.5724
4328	64.4285
4324	64.4046
4320	64.5229
4316	64.7248
4312	64.9164
4308	65.1433
4304	65.3294
4300	65.1375
4296	64.8597
4292	64.8415
4288	64.8556
4284	64.7799
4280	64.7468
4276	64.7547
4272	64.7387
4268	64.7706
4264	64.7892
4260	64.7651
4256	64.8186
4252	65.0193
4248	65.2432
4244	65.2601
4240	65.0809
4236	64.9148
4232	65.0009
4228	65.1589
4224	65.0875
4220	64.9978
4216	64.9237
4212	64.8075
4208	64.9276
4204	65.2032
4200	65.3082
4196	65.2068
4192	65.0697
4188	65.0071
4184	64.9979
4180	64.9507
4176	64.8098
4172	64.7174
4168	64.7973
4164	64.9586
4160	65.0102
4156	64.9761
4152	65.0367
4148	65.1713
4144	65.2843
4140	65.2949
4136	65.1913
4132	65.1177
4128	65.126
4124	65.1128
4120	65.0059
4116	64.98
4112	65.2423
4108	65.5387
4104	65.5847
4100	65.4548
4096	65.2715
4092	65.1433
4088	65.141
4084	65.2405
4080	65.2994
4076	65.2333
4072	65.162
4068	65.1725
4064	65.2538
4060	65.2724
4056	65.2112
4052	65.1757
4048	65.1153
4044	65.0252
4040	65.0369
4036	65.1735
4032	65.2651
4028	65.2248
4024	65.0836
4020	64.9518
4016	64.9386
4012	64.8817
4008	64.726
4004	64.7493
4000	65.0348
3996	65.2424
3992	65.1466
3988	64.939
3984	64.9718
3980	65.2382
3976	65.3865
3972	65.4063
3968	65.3921
3964	65.2825
3960	65.1316
3956	64.9979
3952	64.8875
3948	64.8815
3944	65.0261
3940	65.1443
3936	65.0557
3932	64.9153
3928	64.8833
3924	64.8347
3920	64.8191
3916	64.9346
3912	65.0445
3908	65.1062
3904	65.1201
3900	65.1
3896	65.0906
3892	65.0193
3888	64.9484
3884	64.93
3880	64.9106
3876	64.9225
3872	64.8764
3868	64.8171
3864	64.8879
3860	65.0172
3856	65.145
3852	65.162
3848	65.0868
3844	65.1154
3840	65.1972
3836	65.2599
3832	65.2739
3828	65.2066
3824	65.2168
3820	65.3435
3816	65.3447
3812	65.2412
3808	65.2523
3804	65.346
3800	65.345
3796	65.2225
3792	65.1161
3788	65.0898
3784	65.0677
3780	65.0239
3776	65.0313
3772	65.0616
3768	65.0904
3764	65.151
3760	65.2095
3756	65.2618
3752	65.2729
3748	65.1906
3744	65.1484
3740	65.2325
3736	65.2971
3732	65.2583
3728	65.1771
3724	65.0887
3720	65.0282
3716	65.0745
3712	65.2268
3708	65.3349
3704	65.3064
3700	65.2995
3696	65.399
3692	65.4349
3688	65.4064
3684	65.4046
3680	65.4073
3676	65.4209
3672	65.3236
3668	65.0763
3664	64.9733
3660	65.1149
3656	65.255
3652	65.3608
3648	65.4422
3644	65.4108
3640	65.3756
3636	65.3585
3632	65.331
3628	65.2794
3624	65.1433
3620	65.0172
3616	65.0284
3612	65.1671
3608	65.2374
3604	65.1438
3600	65.1085
3596	65.155
3592	65.156
3588	65.1255
3584	65.0684
3580	65.0521
3576	65.0979
3572	65.1244
3568	65.0519
3564	64.9551
3560	64.9794
3556	65.0656
3552	65.12
3548	65.1775
3544	65.2762
3540	65.2858
3536	65.114
3532	64.9844
3528	65.0465
3524	65.0874
3520	65.0062
3516	64.9696
3512	65.0612
3508	65.1817
3504	65.2325
3500	65.2057
3496	65.1569
3492	65.1611
3488	65.2356
3484	65.281
3480	65.2488
3476	65.1674
3472	64.9757
3468	64.7899
3464	64.7989
3460	64.9479
3456	65.0776
3452	65.0438
3448	64.9045
3444	64.897
3440	65.0095
3436	65.0741
3432	65.099
3428	65.1274
3424	65.1228
3420	65.0835
3416	65.0555
3412	65.0638
3408	65.127
3404	65.1569
3400	65.0749
3396	64.9813
3392	64.9641
3388	65.0334
3384	65.1052
3380	65.0512
3376	64.9664
3372	65.0008
3368	65.0501
3364	64.9902
3360	64.9315
3356	65.0069
3352	65.1217
3348	65.1176
3344	65.0509
3340	65.0741
3336	65.1823
3332	65.2442
3328	65.1764
3324	65.1116
3320	65.1648
3316	65.2292
3312	65.2305
3308	65.1683
3304	65.0713
3300	65.0283
3296	65.0624
3292	65.1072
3288	65.0806
3284	65.086
3280	65.2071
3276	65.2259
3272	65.1503
3268	65.1332
3264	65.1278
3260	65.0997
3256	65.0936
3252	65.1039
3248	65.0894
3244	65.0198
3240	64.9087
3236	64.9641
3232	65.1097
3228	65.1099
3224	65.0797
3220	65.0944
3216	65.1041
3212	65.0688
3208	65.0287
3204	65.077
3200	65.1806
3196	65.2212
3192	65.1728
3188	65.1094
3184	65.1003
3180	65.1577
3176	65.1872
3172	65.1634
3168	65.1273
3164	65.1131
3160	65.1593
3156	65.1554
3152	65.0799
3148	65.0557
3144	65.0334
3140	65.0027
3136	65.0839
3132	65.1945
3128	65.2038
3124	65.1767
3120	65.1366
3116	65.0579
3112	65.033
3108	65.0967
3104	65.1829
3100	65.2342
3096	65.1989
3092	65.1319
3088	65.129
3084	65.2073
3080	65.2491
3076	65.1615
3072	65.0659
3068	65.0158
3064	65.0182
3060	65.0482
3056	65.0395
3052	65.0687
3048	65.1086
3044	65.0864
3040	65.0502
3036	65.0155
3032	65.0399
3028	65.1185
3024	65.1284
3020	65.1164
3016	65.1549
3012	65.2018
3008	65.2263
3004	65.1842
3000	65.1186
2996	65.0971
2992	65.0878
2988	65.0824
2984	65.0905
2980	65.1308
2976	65.1746
2972	65.119
2968	64.9843
2964	64.9655
2960	65.0515
2956	65.032
2952	64.964
2948	64.987
2944	65.0699
2940	65.1353
2936	65.0877
2932	64.9622
2928	64.9184
2924	64.9718
2920	65.0507
2916	65.0511
2912	65.0164
2908	65.0657
2904	65.0936
2900	65.0757
2896	65.0814
2892	65.0623
2888	65.001
2884	64.9489
2880	64.9378
2876	64.9595
2872	65.0065
2868	65.019
2864	64.9714
2860	64.9906
2856	65.0667
2852	65.1116
2848	65.1492
2844	65.1089
2840	65.0255
2836	65.0176
2832	65.0678
2828	65.1491
2824	65.1682
2820	65.1269
2816	65.1179
2812	65.0992
2808	65.0661
2804	65.0386
2800	64.9907
2796	64.975
2792	65.0252
2788	65.0724
2784	65.0981
2780	65.1074
2776	65.0483
2772	64.9732
2768	65.0103
2764	65.096
2760	65.0918
2756	65.0378
2752	65.0561
2748	65.1367
2744	65.156
2740	65.1168
2736	65.1089
2732	65.1199
2728	65.1234
2724	65.1359
2720	65.1384
2716	65.1351
2712	65.0933
2708	65.0317
2704	65.0829
2700	65.1689
2696	65.1353
2692	65.0693
2688	65.0867
2684	65.1144
2680	65.0883
2676	65.0232
2672	64.9469
2668	64.9556
2664	65.0256
2660	65.0627
2656	65.0648
2652	65.0129
2648	64.9722
2644	65.0017
2640	65.0507
2636	65.0691
2632	65.027
2628	65.0198
2624	65.0717
2620	65.054
2616	65.0221
2612	65.0544
2608	65.0426
2604	64.9882
2600	64.9902
2596	65.0332
2592	65.08
2588	65.1129
2584	65.1153
2580	65.0977
2576	65.0749
2572	65.0514
2568	65.0613
2564	65.0967
2560	65.0942
2556	65.0823
2552	65.0775
2548	65.019
2544	64.9626
2540	64.9805
2536	65.046
2532	65.0936
2528	65.0285
2524	64.9238
2520	64.9766
2516	65.1312
2512	65.1896
2508	65.1311
2504	65.074
2500	65.0672
2496	65.0806
2492	65.1081
2488	65.1348
2484	65.147
2480	65.126
2476	65.0792
2472	65.0794
2468	65.0922
2464	65.0311
2460	65.01
2456	65.0969
2452	65.1672
2448	65.1635
2444	65.0896
2440	65.0465
2436	65.1318
2432	65.1844
2428	65.0574
2424	64.891
2420	64.8769
2416	64.9824
2412	65.0294
2408	64.9883
2404	65.0092
2400	65.0797
2396	65.0611
2392	65.0429
2388	65.0693
2384	65.0436
2380	65.0458
2376	65.107
2372	65.1207
2368	65.0806
2364	65.0461
2360	65.0367
2356	65.0541
2352	65.0787
2348	65.0745
2344	65.0548
2340	65.023
2336	64.9736
2332	64.9547
2328	64.9793
2324	64.9775
2320	64.9409
2316	64.9622
2312	65.0433
2308	65.0833
2304	65.0726
2300	65.0735
2296	65.042
2292	64.9397
2288	64.8733
2284	64.8949
2280	64.9612
2276	64.988
2272	64.9521
2268	64.9259
2264	64.909
2260	64.9002
2256	64.8994
2252	64.8896
2248	64.8778
2244	64.8305
2240	64.7736
2236	64.7799
2232	64.8367
2228	64.908
2224	64.9352
2220	64.907
2216	64.8786
2212	64.8699
2208	64.9013
2204	64.9142
2200	64.9089
2196	64.9498
2192	64.9513
2188	64.9222
2184	64.939
2180	64.9373
2176	64.9391
2172	64.9901
2168	65.0339
2164	65.0158
2160	64.893
2156	64.7445
2152	64.6618
2148	64.7005
2144	64.8499
2140	64.9215
2136	64.8632
2132	64.8372
2128	64.8839
2124	64.9034
2120	64.8951
2116	64.8741
2112	64.8721
2108	64.8916
2104	64.833
2100	64.7829
2096	64.8283
2092	64.8772
2088	64.8738
2084	64.8716
2080	64.925
2076	64.9139
2072	64.8312
2068	64.8496
2064	64.9313
2060	64.9664
2056	64.9706
2052	64.9876
2048	65.0084
2044	64.9717
2040	64.9109
2036	64.9081
2032	64.9112
2028	64.8899
2024	64.8999
2020	64.9115
2016	64.9133
2012	64.9306
2008	64.9285
2004	64.9275
2000	64.9028
1996	64.8481
1992	64.8656
1988	64.899
1984	64.862
1980	64.8041
1976	64.7796
1972	64.8006
1968	64.8248
1964	64.8479
1960	64.8896
1956	64.9035
1952	64.9037
1948	64.9114
1944	64.8751
1940	64.8278
1936	64.8337
1932	64.8453
1928	64.8157
1924	64.7906
1920	64.8241
1916	64.8546
1912	64.8248
1908	64.81
1904	64.8727
1900	64.9523
1896	64.9665
1892	64.935
1888	64.8881
1884	64.8302
1880	64.8129
1876	64.8286
1872	64.8507
1868	64.8875
1864	64.8567
1860	64.7853
1856	64.7875
1852	64.8053
1848	64.8051
1844	64.8122
1840	64.8093
1836	64.8093
1832	64.8015
1828	64.7737
1824	64.7794
1820	64.8231
1816	64.8499
1812	64.8204
1808	64.7907
1804	64.8113
1800	64.8287
1796	64.819
1792	64.813
1788	64.7961
1784	64.7528
1780	64.74
1776	64.8006
1772	64.871
1768	64.866
1764	64.8294
1760	64.837
1756	64.856
1752	64.8253
1748	64.7489
1744	64.6793
1740	64.6288
1736	64.6028
1732	64.5938
1728	64.575
1724	64.597
1720	64.7217
1716	64.8415
1712	64.8459
1708	64.8217
1704	64.8238
1700	64.836
1696	64.7789
1692	64.6785
1688	64.6839
1684	64.7196
1680	64.7146
1676	64.7315
1672	64.718
1668	64.6772
1664	64.6959
1660	64.7646
1656	64.8426
1652	64.8338
1648	64.7697
1644	64.7334
1640	64.6929
1636	64.7028
1632	64.756
1628	64.7677
1624	64.7529
1620	64.75
1616	64.6769
1612	64.5826
1608	64.6423
1604	64.7291
1600	64.7016
1596	64.6859
1592	64.7433
1588	64.7803
1584	64.7817
1580	64.7542
1576	64.6671
1572	64.5781
1568	64.5812
1564	64.6767
1560	64.7563
1556	64.7527
1552	64.7371
1548	64.7363
1544	64.7467
1540	64.7137
1536	64.6085
1532	64.5577
1528	64.574
1524	64.6213
1520	64.6826
1516	64.708
1512	64.7216
1508	64.7452
1504	64.7705
1500	64.7588
1496	64.68
1492	64.6139
1488	64.659
1484	64.7217
1480	64.7254
1476	64.7169
1472	64.6998
1468	64.6481
1464	64.6332
1460	64.7456
1456	64.7712
1452	64.5903
1448	64.4708
1444	64.4546
1440	64.4896
1436	64.5787
1432	64.616
1428	64.6353
1424	64.7112
1420	64.6927
1416	64.5153
1412	64.4123
1408	64.4453
1404	64.4658
1400	64.4615
1396	64.4881
1392	64.5244
1388	64.5106
1384	64.4637
1380	64.429
1376	64.403
1372	64.4074
1368	64.474
1364	64.5398
1360	64.5454
1356	64.558
1352	64.5598
1348	64.5071
1344	64.4781
1340	64.4618
1336	64.4221
1332	64.4221
1328	64.4472
1324	64.4226
1320	64.3684
1316	64.3633
1312	64.4009
1308	64.3789
1304	64.3098
1300	64.2958
1296	64.3591
1292	64.4413
1288	64.4619
1284	64.4062
1280	64.3833
1276	64.4156
1272	64.4072
1268	64.3609
1264	64.3427
1260	64.3735
1256	64.4058
1252	64.3928
1248	64.3522
1244	64.3296
1240	64.348
1236	64.3682
1232	64.3325
1228	64.298
1224	64.3126
1220	64.3407
1216	64.4184
1212	64.4767
1208	64.3934
1204	64.3075
1200	64.3533
1196	64.435
1192	64.4545
1188	64.4178
1184	64.3404
1180	64.2188
1176	64.1378
1172	64.1998
1168	64.2929
1164	64.2985
1160	64.3079
1156	64.3139
1152	64.2362
1148	64.1759
1144	64.2034
1140	64.293
1136	64.3824
1132	64.4282
1128	64.3916
1124	64.2732
1120	64.2229
1116	64.286
1112	64.3331
1108	64.2907
1104	64.2226
1100	64.2167
1096	64.3009
1092	64.4261
1088	64.4343
1084	64.3639
1080	64.2799
1076	64.1728
1072	64.1546
1068	64.2111
1064	64.29
1060	64.3385
1056	64.3378
1052	64.361
1048	64.3357
1044	64.2294
1040	64.23
1036	64.3354
1032	64.4137
1028	64.3921
1024	64.2613
1020	64.1994
1016	64.2427
1012	64.2758
1008	64.269
1004	64.2051
1000	64.1196
996	 64.0882
992	 64.1208
988	 64.1364
984	 64.175
980	 64.2678
976	 64.2328
972	 64.1362
968	 64.2019
964	 64.2852
960	 64.2163
956	 64.1713
952	 64.325
948	 64.4971
944	 64.4344
940	 64.318
936	 64.3554
932	 64.3607
928	 64.2608
924	 64.2621
920	 64.4207
916	 64.5231
912	 64.4354
908	 64.25
904	 64.1166
900	 64.1475
896	 64.2598
892	 64.2325
888	 64.1319
884	 64.1584
880	 64.2615
876	 64.3142
872	 64.3028
868	 64.221
864	 64.1556
860	 64.1918
856	 64.2658
852	 64.3691
848	 64.427
844	 64.3288
840	 64.1689
836	 64.0253
832	 63.9252
828	 63.9598
824	 64.0664
820	 64.1297
816	 64.1482
812	 64.1315
808	 64.1277
804	 64.0713
800	 63.9813
796	 63.9904
792	 64.0744
788	 64.1471
784	 64.1106
780	 64.0925
776	 64.2479
772	 64.4036
768	 64.382
764	 64.2298
760	 64.0909
756	 64.0913
752	 64.2075
748	 64.1933
744	 63.9769
740	 63.7952
736	 63.7553
732	 63.8825
728	 64.1552
724	 64.3116
720	 64.2881
716	 64.168
712	 63.9486
708	 63.8066
704	 63.8775
700	 63.9967
696	 64.0266
692	 64.0484
688	 64.0606
684	 64.0351
680	 64.0712
676	 64.0905
672	 63.9685
668	 63.8591
664	 63.9949
660	 64.1921
656	 64.1586
652	 63.9961
648	 63.9106
644	 63.958
640	 63.9592
636	 63.9175
632	 63.9682
628	 63.9922
624	 63.8593
620	 63.7241
616	 63.8963
612	 64.0999
608	 64.0251
604	 63.8326
600	 63.5666
596	 63.3979
592	 63.4235
588	 63.6307
584	 64.1436
580	 64.5648
576	 64.3759
572	 63.8297
568	 63.5846
564	 63.8641
560	 64.2857
556	 64.4196
552	 64.0861
548	 63.7337
544	 63.6171
540	 63.5713
536	 63.6426
532	 63.8965
528	 64.2742
524	 64.4949
520	 64.4851
516	 64.4503
512	 64.0778
508	 63.4801
504	 63.3328
500	 63.3228
496	 63.2569
492	 63.5668
488	 63.8473
484	 64.3321
480	 65.151
476	 64.9959
472	 64.0238
468	 63.9034
464	 64.7676
460	 65.4754
456	 65.1081
452	 63.3546
448	 61.3
444	 61.5019
440	 64.0509
436	 65.534
432	 64.3536
428	 62.7704
424	 62.4222
420	 63.0157
416	 64.0643
412	 65.9971
408	 66.5068
404	 61.1851
400	 59.6313
396	 66.4397
392	 68.4828
388	 65.9381
384	 65.1108
380	 64.8314
376	 68.9562
372	 78.1866
370	 85.746