File: Bakgrunnsmateriale/MATLAB/FTIR/ftir_data/subAa/Mapping_121/BZ1503107-1_t55_cm-1.asc
PE IR       SPECTRUM    SPECTRUM    ASCII       PEDS        1.60
  -1
BZ6DA3~1.ASC
17/04/07
17:45:15.00
17/04/07
17:45:15.00
tln
$BZ1503107-1_t0055$<tbV0>[-13.0,-2.6,8.0,0.0,27,1,0]
370
64

2002,4.07
MIRTGS : RIGHTBACK : INTERNAL 2
MIR : ON : INTERNAL 2
OPTKBR

0.200000
8
8.000000
FILLER
RATIO
SPECTRUM
UNLOCKED 256

DOUBLE
64
COMBINED
1
0
0

1.000000
RATIO

1
0
TRUE
51149
0
LEFT NOT FITTED RIGHT NOT FITTED 0
NONE
NONE
15600
12
4.427000
51148
TRUE
1 0 8 72 0 0 0 0

15798

#HDR
-1
-1
#GR
CM-1
%T
2.38419e-05
0.0
5000
-1.000000
4631
8
78.6662
51.7392
#DATA
5000	66.8718
4996	66.9756
4992	66.4552
4988	66.3579
4984	67.1125
4980	67.3709
4976	66.5395
4972	66.22
4968	66.3814
4964	65.7769
4960	64.8746
4956	64.2371
4952	63.9601
4948	64.2012
4944	64.7934
4940	65.3232
4936	65.6295
4932	65.9092
4928	65.9325
4924	65.5821
4920	65.1974
4916	64.9431
4912	64.9195
4908	64.8804
4904	64.8433
4900	65.0955
4896	65.2819
4892	65.2949
4888	65.2371
4884	65.0965
4880	64.9435
4876	64.8779
4872	64.9536
4868	65.0332
4864	65.0426
4860	64.927
4856	64.7757
4852	64.8081
4848	64.9942
4844	65.1182
4840	65.0927
4836	64.8442
4832	64.617
4828	64.6317
4824	64.5685
4820	64.5693
4816	64.7096
4812	64.6831
4808	64.6842
4804	64.8466
4800	64.9288
4796	64.8632
4792	64.8351
4788	64.7715
4784	64.6021
4780	64.6146
4776	64.7665
4772	64.8541
4768	64.9404
4764	64.9922
4760	64.9316
4756	64.8332
4752	64.6601
4748	64.5328
4744	64.8085
4740	65.1886
4736	65.1528
4732	64.9335
4728	64.9148
4724	64.9706
4720	64.9921
4716	65.0204
4712	65.054
4708	65.1438
4704	65.113
4700	64.9734
4696	65.0716
4692	65.3356
4688	65.3105
4684	65.0994
4680	65.1431
4676	65.1573
4672	65.0179
4668	64.9201
4664	64.7464
4660	64.6387
4656	64.7025
4652	64.8838
4648	65.1747
4644	65.3113
4640	65.2065
4636	65.1085
4632	65.1437
4628	65.127
4624	64.8904
4620	64.6633
4616	64.6153
4612	64.7399
4608	64.8915
4604	64.8527
4600	64.798
4596	64.7507
4592	64.6463
4588	64.6982
4584	64.7449
4580	64.8556
4576	65.1345
4572	65.0478
4568	64.6989
4564	64.6868
4560	65.0709
4556	65.4224
4552	65.4459
4548	65.3295
4544	65.1956
4540	65.0695
4536	65.034
4532	65.007
4528	64.9688
4524	65.13
4520	65.3741
4516	65.2362
4512	64.8419
4508	64.611
4504	64.5705
4500	64.5892
4496	64.4577
4492	64.2664
4488	64.2684
4484	64.3712
4480	64.6276
4476	65.0236
4472	65.1954
4468	65.3746
4464	65.2173
4460	64.5228
4456	64.5226
4452	65.4135
4448	64.2112
4444	59.1045
4440	53.6063
4436	60.3598
4432	76.4616
4428	75.525
4424	65.4846
4420	62.007
4416	62.0369
4412	64.0534
4408	65.625
4404	65.19
4400	65.0298
4396	65.4259
4392	65.4819
4388	65.1347
4384	65.0818
4380	65.2108
4376	65.2136
4372	65.0621
4368	65.0499
4364	65.2825
4360	65.3545
4356	65.234
4352	65.1466
4348	65.1155
4344	65.1035
4340	65.0638
4336	65.0732
4332	65.134
4328	65.1865
4324	65.2003
4320	65.1414
4316	64.9015
4312	64.69
4308	64.7699
4304	64.9679
4300	65.1384
4296	65.2038
4292	65.1186
4288	65.0473
4284	65.139
4280	65.2116
4276	65.143
4272	65.0412
4268	65.0009
4264	65.0345
4260	65.0026
4256	64.9301
4252	64.9404
4248	64.9695
4244	64.9909
4240	65.0427
4236	65.1278
4232	65.1526
4228	64.9691
4224	64.794
4220	64.8258
4216	64.9034
4212	64.9967
4208	65.1357
4204	65.2808
4200	65.3333
4196	65.1766
4192	65.0348
4188	65.0051
4184	64.9554
4180	64.9652
4176	64.9242
4172	64.7743
4168	64.6471
4164	64.6096
4160	64.781
4156	64.9379
4152	64.8771
4148	64.851
4144	64.8954
4140	64.9174
4136	64.9487
4132	64.9476
4128	65.0088
4124	65.2017
4120	65.2091
4116	65.0415
4112	65.0615
4108	65.0919
4104	65.0131
4100	65.0533
4096	65.148
4092	65.1439
4088	65.0835
4084	65.0255
4080	64.9413
4076	64.8739
4072	64.852
4068	64.8347
4064	64.9288
4060	65.115
4056	65.1555
4052	65.0142
4048	64.9642
4044	65.0353
4040	65.0354
4036	65.0403
4032	65.184
4028	65.3335
4024	65.2256
4020	65.0026
4016	64.9276
4012	64.8981
4008	64.877
4004	64.9736
4000	65.055
3996	65.0401
3992	65.0996
3988	65.1897
3984	65.1479
3980	65.0763
3976	65.1346
3972	65.1834
3968	65.1572
3964	65.1708
3960	65.1505
3956	65.1278
3952	65.1284
3948	65.0856
3944	65.0464
3940	65.0695
3936	65.1344
3932	64.9993
3928	64.7203
3924	64.7309
3920	64.9385
3916	65.0338
3912	65.1506
3908	65.2169
3904	65.0434
3900	64.8617
3896	64.9306
3892	65.1572
3888	65.2317
3884	65.0901
3880	65.0184
3876	65.0823
3872	65.0836
3868	65.13
3864	65.2483
3860	65.1863
3856	65.0158
3852	65.0238
3848	65.1764
3844	65.1283
3840	65.0343
3836	65.2362
3832	65.3989
3828	65.2947
3824	65.1616
3820	65.1826
3816	65.2336
3812	65.0871
3808	64.9221
3804	64.9748
3800	65.113
3796	65.0168
3792	64.7444
3788	64.7521
3784	65.0335
3780	65.1677
3776	65.0773
3772	65.0147
3768	65.0702
3764	65.1395
3760	65.2269
3756	65.2543
3752	65.115
3748	65.0155
3744	65.0604
3740	65.034
3736	64.9726
3732	65.0334
3728	65.0121
3724	64.9222
3720	65.004
3716	65.1107
3712	65.1033
3708	65.0801
3704	65.0684
3700	65.0306
3696	65.0231
3692	65.085
3688	65.1813
3684	65.2741
3680	65.327
3676	65.2229
3672	65.0061
3668	64.917
3664	64.9425
3660	65.0349
3656	65.1243
3652	65.1106
3648	65.117
3644	65.1969
3640	65.2967
3636	65.3325
3632	65.2278
3628	65.1403
3624	65.1755
3620	65.2366
3616	65.317
3612	65.3756
3608	65.3166
3604	65.1856
3600	65.0904
3596	65.0594
3592	65.0776
3588	65.1314
3584	65.1029
3580	64.9966
3576	65.0164
3572	65.1324
3568	65.1575
3564	65.1133
3560	65.1238
3556	65.2181
3552	65.272
3548	65.1925
3544	65.1309
3540	65.2365
3536	65.3352
3532	65.2449
3528	65.1105
3524	65.0948
3520	65.2063
3516	65.3364
3512	65.3485
3508	65.3055
3504	65.2888
3500	65.2598
3496	65.2324
3492	65.2335
3488	65.2333
3484	65.2176
3480	65.167
3476	65.1073
3472	65.0876
3468	65.086
3464	65.0851
3460	65.0857
3456	65.1124
3452	65.1415
3448	65.1495
3444	65.1401
3440	65.1057
3436	65.1036
3432	65.0857
3428	65.0825
3424	65.1985
3420	65.2788
3416	65.2012
3412	65.1068
3408	65.0496
3404	65.0106
3400	65.0531
3396	65.0812
3392	65.0676
3388	65.0953
3384	65.1033
3380	65.1218
3376	65.2281
3372	65.2821
3368	65.1671
3364	65.0424
3360	64.998
3356	64.9206
3352	64.9107
3348	65.0022
3344	65.038
3340	65.0521
3336	65.116
3332	65.2243
3328	65.2421
3324	65.1391
3320	65.0691
3316	65.0829
3312	65.1419
3308	65.1659
3304	65.1013
3300	65.0143
3296	65.0364
3292	65.0952
3288	65.0812
3284	65.0885
3280	65.1104
3276	65.0959
3272	65.0598
3268	64.9792
3264	64.9354
3260	64.978
3256	65.0696
3252	65.11
3248	65.0343
3244	65.0146
3240	65.0846
3236	65.0977
3232	65.054
3228	65.0403
3224	65.0357
3220	65.0108
3216	65.018
3212	65.0612
3208	65.1281
3204	65.2007
3200	65.1976
3196	65.1617
3192	65.2198
3188	65.229
3184	65.1068
3180	65.0575
3176	65.137
3172	65.1885
3168	65.1244
3164	65.0537
3160	65.0428
3156	65.0556
3152	65.0661
3148	65.0334
3144	64.9991
3140	64.9677
3136	64.9387
3132	64.9999
3128	65.1131
3124	65.1499
3120	65.058
3116	64.9857
3112	65.0175
3108	65.0429
3104	65.0834
3100	65.1997
3096	65.2343
3092	65.0614
3088	64.8563
3084	64.8254
3080	64.942
3076	65.0223
3072	65.0079
3068	64.9934
3064	65.0446
3060	65.1215
3056	65.1164
3052	65.0118
3048	64.9248
3044	64.9655
3040	65.0412
3036	65.048
3032	65.0387
3028	65.0497
3024	65.076
3020	65.0969
3016	65.0929
3012	65.085
3008	65.098
3004	65.0765
3000	64.9891
2996	64.9184
2992	64.9181
2988	64.945
2984	64.9632
2980	64.9526
2976	64.8766
2972	64.782
2968	64.7192
2964	64.6574
2960	64.6373
2956	64.6887
2952	64.7197
2948	64.707
2944	64.6858
2940	64.6704
2936	64.6879
2932	64.7465
2928	64.8108
2924	64.8266
2920	64.8023
2916	64.8103
2912	64.8599
2908	64.9083
2904	64.9339
2900	64.9088
2896	64.8969
2892	64.9839
2888	65.0611
2884	65.0239
2880	64.9555
2876	64.9146
2872	64.8664
2868	64.8577
2864	64.9366
2860	64.957
2856	64.8652
2852	64.8535
2848	64.9404
2844	64.9853
2840	64.9534
2836	64.8964
2832	64.8879
2828	64.9337
2824	64.97
2820	64.944
2816	64.8764
2812	64.8664
2808	64.9341
2804	64.9926
2800	64.9967
2796	64.9667
2792	64.9489
2788	64.9884
2784	65.0556
2780	65.0919
2776	65.0614
2772	64.9303
2768	64.847
2764	64.9094
2760	64.972
2756	65.0003
2752	65.0288
2748	65.0031
2744	64.9635
2740	64.9852
2736	64.988
2732	64.9447
2728	64.9399
2724	64.9413
2720	64.9184
2716	64.9377
2712	65.0055
2708	65.0561
2704	65.0151
2700	64.9505
2696	64.965
2692	64.9804
2688	64.9399
2684	64.959
2680	65.0638
2676	65.0892
2672	65.0129
2668	64.9569
2664	64.9602
2660	64.9437
2656	64.8538
2652	64.8114
2648	64.8611
2644	64.9027
2640	64.916
2636	64.9401
2632	64.9772
2628	64.9959
2624	64.975
2620	64.9486
2616	64.9488
2612	64.9178
2608	64.8787
2604	64.9317
2600	65.0196
2596	65.0249
2592	64.9841
2588	64.9681
2584	64.9609
2580	64.9612
2576	64.9611
2572	64.9263
2568	64.8421
2564	64.7722
2560	64.7615
2556	64.7815
2552	64.8661
2548	64.9467
2544	64.9433
2540	64.9148
2536	64.8671
2532	64.822
2528	64.8343
2524	64.8811
2520	64.9257
2516	64.9381
2512	64.937
2508	64.9575
2504	64.9877
2500	65.0327
2496	65.049
2492	65
2488	64.9616
2484	64.9658
2480	64.9392
2476	64.8718
2472	64.8202
2468	64.7937
2464	64.7964
2460	64.8547
2456	64.8781
2452	64.8446
2448	64.907
2444	65.0094
2440	65.0138
2436	64.9616
2432	64.9059
2428	64.8549
2424	64.9053
2420	65.0152
2416	64.9658
2412	64.8386
2408	64.7863
2404	64.7601
2400	64.798
2396	64.8825
2392	64.8939
2388	64.8625
2384	64.8558
2380	64.8525
2376	64.8299
2372	64.813
2368	64.8247
2364	64.831
2360	64.7724
2356	64.7088
2352	64.7444
2348	64.8058
2344	64.7721
2340	64.7293
2336	64.7975
2332	64.8612
2328	64.8486
2324	64.8283
2320	64.817
2316	64.8367
2312	64.8417
2308	64.784
2304	64.7503
2300	64.7829
2296	64.8106
2292	64.7948
2288	64.7635
2284	64.7375
2280	64.7056
2276	64.6658
2272	64.6467
2268	64.7026
2264	64.818
2260	64.8823
2256	64.8588
2252	64.7938
2248	64.7784
2244	64.835
2240	64.8453
2236	64.7824
2232	64.7339
2228	64.7173
2224	64.72
2220	64.7708
2216	64.8255
2212	64.8162
2208	64.7849
2204	64.7893
2200	64.8097
2196	64.8107
2192	64.7906
2188	64.739
2184	64.6919
2180	64.7005
2176	64.7359
2172	64.7343
2168	64.7415
2164	64.7783
2160	64.7815
2156	64.7421
2152	64.7028
2148	64.6941
2144	64.7165
2140	64.7228
2136	64.6981
2132	64.6836
2128	64.7037
2124	64.7121
2120	64.7129
2116	64.728
2112	64.7047
2108	64.6694
2104	64.6448
2100	64.621
2096	64.6616
2092	64.6797
2088	64.5942
2084	64.5795
2080	64.6995
2076	64.7489
2072	64.6558
2068	64.6277
2064	64.709
2060	64.7542
2056	64.7485
2052	64.725
2048	64.7034
2044	64.6833
2040	64.643
2036	64.6192
2032	64.6428
2028	64.6525
2024	64.6503
2020	64.7
2016	64.7373
2012	64.7293
2008	64.7128
2004	64.6749
2000	64.6293
1996	64.6029
1992	64.6367
1988	64.7158
1984	64.7448
1980	64.7112
1976	64.6688
1972	64.6439
1968	64.6069
1964	64.5199
1960	64.4493
1956	64.4839
1952	64.5689
1948	64.6157
1944	64.6194
1940	64.6152
1936	64.6204
1932	64.6121
1928	64.6039
1924	64.5925
1920	64.5608
1916	64.5693
1912	64.6311
1908	64.6835
1904	64.6619
1900	64.5741
1896	64.5603
1892	64.6241
1888	64.6211
1884	64.5793
1880	64.5868
1876	64.6116
1872	64.6025
1868	64.5777
1864	64.5878
1860	64.6089
1856	64.6142
1852	64.6191
1848	64.5977
1844	64.5662
1840	64.5282
1836	64.4703
1832	64.426
1828	64.411
1824	64.4258
1820	64.4354
1816	64.474
1812	64.5363
1808	64.5344
1804	64.5111
1800	64.4956
1796	64.5083
1792	64.5656
1788	64.5675
1784	64.5228
1780	64.5101
1776	64.4887
1772	64.4493
1768	64.4424
1764	64.4372
1760	64.3987
1756	64.3328
1752	64.2312
1748	64.1128
1744	63.9909
1740	63.8814
1736	63.7849
1732	63.7276
1728	63.8185
1724	63.9887
1720	64.0984
1716	64.1699
1712	64.2289
1708	64.2835
1704	64.3126
1700	64.3161
1696	64.3448
1692	64.3698
1688	64.3438
1684	64.3027
1680	64.3082
1676	64.3127
1672	64.2939
1668	64.309
1664	64.3467
1660	64.3528
1656	64.3415
1652	64.3862
1648	64.4385
1644	64.3789
1640	64.2682
1636	64.2772
1632	64.3606
1628	64.3624
1624	64.3043
1620	64.2923
1616	64.3347
1612	64.3296
1608	64.2763
1604	64.3024
1600	64.3785
1596	64.3874
1592	64.3488
1588	64.3234
1584	64.3449
1580	64.3779
1576	64.3504
1572	64.3235
1568	64.3089
1564	64.2621
1560	64.272
1556	64.3387
1552	64.3616
1548	64.3012
1544	64.2302
1540	64.2655
1536	64.292
1532	64.2117
1528	64.1713
1524	64.2247
1520	64.2915
1516	64.3356
1512	64.3523
1508	64.3458
1504	64.3462
1500	64.3358
1496	64.3096
1492	64.2623
1488	64.2108
1484	64.2258
1480	64.2586
1476	64.2241
1472	64.145
1468	64.1319
1464	64.2127
1460	64.2621
1456	64.1979
1452	64.088
1448	64.0673
1444	64.1596
1440	64.2042
1436	64.1559
1432	64.1524
1428	64.2177
1424	64.272
1420	64.2394
1416	64.0994
1412	64.0301
1408	64.1319
1404	64.2334
1400	64.2468
1396	64.2451
1392	64.2274
1388	64.1562
1384	64.0881
1380	64.033
1376	63.9853
1372	64.0232
1368	64.1059
1364	64.1277
1360	64.0942
1356	64.0546
1352	64.0413
1348	64.058
1344	64.0754
1340	64.0865
1336	64.0926
1332	64.096
1328	64.1395
1324	64.2077
1320	64.208
1316	64.1401
1312	64.056
1308	64.0031
1304	64.0447
1300	64.1214
1296	64.1035
1292	64.0367
1288	64.0418
1284	64.0731
1280	64.0426
1276	63.9628
1272	63.9109
1268	63.9616
1264	64.0296
1260	63.9879
1256	63.9137
1252	63.8895
1248	63.8639
1244	63.8393
1240	63.8288
1236	63.7848
1232	63.7598
1228	63.7856
1224	63.8315
1220	63.9122
1216	63.9387
1212	63.874
1208	63.8414
1204	63.8724
1200	63.8722
1196	63.7993
1192	63.7643
1188	63.815
1184	63.8551
1180	63.8297
1176	63.78
1172	63.722
1168	63.6358
1164	63.5785
1160	63.5664
1156	63.6526
1152	63.8002
1148	63.8259
1144	63.7806
1140	63.7879
1136	63.8223
1132	63.816
1128	63.7831
1124	63.7985
1120	63.8772
1116	63.9463
1112	63.9382
1108	63.9224
1104	63.9325
1100	63.9456
1096	63.973
1092	63.9315
1088	63.8422
1084	63.8244
1080	63.8586
1076	63.8456
1072	63.8484
1068	63.8809
1064	63.8542
1060	63.8553
1056	63.8486
1052	63.7607
1048	63.7038
1044	63.7109
1040	63.7502
1036	63.7999
1032	63.8046
1028	63.828
1024	63.8934
1020	63.8524
1016	63.7311
1012	63.6803
1008	63.7228
1004	63.8303
1000	63.9943
996	 64.0993
992	 64.0381
988	 63.9896
984	 64.109
980	 64.2227
976	 64.1415
972	 63.9566
968	 63.821
964	 63.7925
960	 63.8559
956	 63.8937
952	 63.875
948	 63.8173
944	 63.7518
940	 63.7351
936	 63.7908
932	 63.8601
928	 63.8267
924	 63.7998
920	 63.8498
916	 63.8465
912	 63.8671
908	 63.9736
904	 64.086
900	 64.0846
896	 63.8939
892	 63.7399
888	 63.8042
884	 63.9148
880	 63.9085
876	 63.8919
872	 63.9276
868	 63.9414
864	 63.9501
860	 63.9994
856	 64.082
852	 64.1099
848	 64.0106
844	 63.8557
840	 63.7756
836	 63.8509
832	 63.9821
828	 64.0664
824	 64.0788
820	 64.0603
816	 64.0738
812	 63.9938
808	 63.8357
804	 63.773
800	 63.7944
796	 63.7953
792	 63.8036
788	 63.8162
784	 63.8128
780	 63.8208
776	 63.796
772	 63.7528
768	 63.7177
764	 63.6289
760	 63.4939
756	 63.4073
752	 63.3958
748	 63.5398
744	 63.7345
740	 63.6588
736	 63.5432
732	 63.6078
728	 63.6538
724	 63.673
720	 63.6105
716	 63.5396
712	 63.5857
708	 63.4865
704	 63.3103
700	 63.3042
696	 63.3
692	 63.372
688	 63.4812
684	 63.3179
680	 63.2691
676	 63.3903
672	 63.3146
668	 63.1823
664	 63.1808
660	 63.4626
656	 63.7156
652	 63.5997
648	 63.4363
644	 63.3501
640	 63.3213
636	 63.407
632	 63.196
628	 62.865
624	 63.2822
620	 63.9587
616	 63.515
612	 62.3963
608	 62.2255
604	 62.9426
600	 63.4205
596	 63.6542
592	 63.5476
588	 63.1612
584	 63.6694
580	 64.5993
576	 64.5105
572	 63.6259
568	 63.1669
564	 63.2444
560	 62.986
556	 62.8914
552	 63.5367
548	 64.1471
544	 64.3034
540	 64.1581
536	 63.7226
532	 63.1793
528	 63.3153
524	 63.9409
520	 63.6906
516	 63.1385
512	 62.9587
508	 62.8274
504	 62.762
500	 62.4886
496	 62.4207
492	 62.6374
488	 63.0448
484	 63.5818
480	 63.4382
476	 62.7452
472	 62.6859
468	 63.6376
464	 64.1146
460	 63.7206
456	 63.5117
452	 63.365
448	 63.549
444	 63.9035
440	 63.2154
436	 62.4318
432	 63.4079
428	 65.0541
424	 64.9543
420	 63.8351
416	 63.2365
412	 63.4717
408	 63.1672
404	 61.0764
400	 63.2947
396	 67.5346
392	 61.6243
388	 53.2015
384	 54.0889
380	 56.7314
376	 59.5087
372	 57.1491
370	 51.7392