File: Bakgrunnsmateriale/MATLAB/FTIR/ftir_data/subAa/Mapping_121/BZ1503107-1_t74_cm-1.asc
PE IR       SPECTRUM    SPECTRUM    ASCII       PEDS        1.60
  -1
BZ6CA6~1.ASC
17/04/07
19:20:23.00
17/04/07
19:20:23.00
tln
$BZ1503107-1_t0074$<tbV0>[-5.2,2.6,8.0,0.0,27,1,0]
370
64

2002,4.07
MIRTGS : RIGHTBACK : INTERNAL 2
MIR : ON : INTERNAL 2
OPTKBR

0.200000
8
8.000000
FILLER
RATIO
SPECTRUM
UNLOCKED 256

DOUBLE
64
COMBINED
1
0
0

1.000000
RATIO

1
0
TRUE
51149
0
LEFT NOT FITTED RIGHT NOT FITTED 0
NONE
NONE
15600
12
4.427000
51148
TRUE
1 0 8 72 0 0 0 0

15798

#HDR
-1
-1
#GR
CM-1
%T
2.38419e-05
0.0
5000
-1.000000
4631
8
136.5
54.4048
#DATA
5000	65.3928
4996	65.3613
4992	64.9444
4988	64.8156
4984	64.805
4980	64.5396
4976	64.384
4972	64.3478
4968	64.0853
4964	64.0777
4960	64.609
4956	64.9505
4952	64.7455
4948	64.3616
4944	64.2699
4940	64.5615
4936	64.828
4932	64.8961
4928	64.8864
4924	64.754
4920	64.5487
4916	64.6481
4912	65.0542
4908	65.1921
4904	64.7022
4900	64.1641
4896	64.373
4892	64.853
4888	65.0268
4884	65.105
4880	65.045
4876	64.9122
4872	64.8215
4868	64.6881
4864	64.6356
4860	64.7354
4856	64.7797
4852	64.5953
4848	64.3933
4844	64.2293
4840	64.1533
4836	64.3404
4832	64.5079
4828	64.4445
4824	64.4189
4820	64.4703
4816	64.4389
4812	64.511
4808	64.67
4804	64.6202
4800	64.4318
4796	64.4237
4792	64.6217
4788	64.6639
4784	64.5426
4780	64.5032
4776	64.5864
4772	64.8621
4768	65.0362
4764	64.9264
4760	64.6944
4756	64.4541
4752	64.4629
4748	64.7165
4744	64.9613
4740	65.0247
4736	64.8636
4732	64.6072
4728	64.6869
4724	64.9729
4720	64.9638
4716	64.7841
4712	64.4468
4708	64.121
4704	64.1903
4700	64.4519
4696	64.5293
4692	64.471
4688	64.4166
4684	64.3575
4680	64.2363
4676	64.1335
4672	64.2253
4668	64.4549
4664	64.7708
4660	64.9957
4656	65.0121
4652	64.9173
4648	64.8548
4644	64.8868
4640	64.7933
4636	64.6006
4632	64.6143
4628	64.7801
4624	64.978
4620	65.2849
4616	65.403
4612	65.2725
4608	65.1874
4604	65.1515
4600	65.1975
4596	65.4459
4592	65.5825
4588	65.262
4584	64.9766
4580	65.006
4576	65.1067
4572	65.1631
4568	65.1145
4564	65.0412
4560	65.0059
4556	64.9751
4552	64.7722
4548	64.7562
4544	65.2217
4540	65.4394
4536	65.2161
4532	65.0043
4528	64.8406
4524	64.9135
4520	65.3434
4516	65.6111
4512	65.4807
4508	65.2651
4504	65.064
4500	65.0542
4496	65.2766
4492	65.4109
4488	65.4465
4484	65.4673
4480	65.2992
4476	65.1481
4472	65.1271
4468	65.0714
4464	64.9083
4460	64.8462
4456	65.1215
4452	65.1483
4448	64.6168
4444	64.3733
4440	64.5886
4436	65.0104
4432	67.5377
4428	66.7585
4424	59.0716
4420	54.4048
4416	59.1962
4412	65.5776
4408	63.4659
4404	62.0621
4400	64.5337
4396	65.7925
4392	65.691
4388	65.3858
4384	65.3841
4380	65.4347
4376	65.1933
4372	65.2045
4368	65.4182
4364	65.3471
4360	65.221
4356	65.1418
4352	65.144
4348	65.0628
4344	64.9573
4340	64.8754
4336	64.6859
4332	64.7761
4328	65.0926
4324	65.3953
4320	63.6204
4316	61.0365
4312	62.252
4308	64.927
4304	65.4899
4300	65.0044
4296	64.6283
4292	64.4022
4288	64.3843
4284	64.6897
4280	64.8747
4276	64.8217
4272	64.9328
4268	65.0099
4264	64.8167
4260	64.6724
4256	64.7913
4252	64.9366
4248	64.8013
4244	64.731
4240	65.1042
4236	65.4221
4232	65.2496
4228	64.9196
4224	64.781
4220	64.833
4216	64.8918
4212	64.8554
4208	64.8342
4204	64.8338
4200	64.7673
4196	64.5136
4192	64.2849
4188	64.5152
4184	64.8521
4180	65.0013
4176	64.9625
4172	64.5638
4168	64.3825
4164	64.7128
4160	64.9444
4156	64.8968
4152	64.9253
4148	64.99
4144	64.8393
4140	64.7323
4136	64.7865
4132	64.796
4128	64.7838
4124	64.8614
4120	64.8419
4116	64.6976
4112	64.7096
4108	64.6438
4104	64.4868
4100	64.6075
4096	64.8332
4092	64.8232
4088	64.7066
4084	64.7666
4080	64.8689
4076	64.8058
4072	64.5917
4068	64.4015
4064	64.4686
4060	64.7206
4056	64.8906
4052	64.9002
4048	64.8481
4044	64.8084
4040	64.7958
4036	64.8039
4032	64.8241
4028	64.8986
4024	64.985
4020	64.9615
4016	64.9511
4012	65.0087
4008	65.0259
4004	65.0514
4000	64.9955
3996	64.8172
3992	64.7999
3988	64.9194
3984	64.9045
3980	64.8391
3976	64.9053
3972	65.0467
3968	65.0652
3964	64.9817
3960	64.916
3956	64.8283
3952	64.818
3948	64.9314
3944	65.0555
3940	65.1076
3936	64.9914
3932	64.8207
3928	64.6443
3924	64.5398
3920	64.7473
3916	65.043
3912	65.2131
3908	65.2935
3904	65.331
3900	65.3886
3896	65.374
3892	65.3115
3888	65.1897
3884	64.9345
3880	64.8037
3876	64.9178
3872	65.1308
3868	65.2513
3864	65.1916
3860	65.1908
3856	65.2499
3852	65.1258
3848	64.9505
3844	64.9275
3840	65.0086
3836	65.1073
3832	65.1651
3828	65.1367
3824	65.0048
3820	64.8122
3816	64.7437
3812	64.8054
3808	64.8523
3804	64.9499
3800	65.1366
3796	65.2892
3792	65.352
3788	65.3654
3784	65.3082
3780	65.1914
3776	64.9915
3772	64.8163
3768	64.8175
3764	64.8151
3760	64.7983
3756	64.8545
3752	64.9287
3748	65.0437
3744	65.2395
3740	65.4058
3736	65.3491
3732	65.1226
3728	64.8729
3724	64.7003
3720	64.7551
3716	64.8422
3712	64.6872
3708	64.5585
3704	64.7326
3700	65.0001
3696	65.1421
3692	65.1289
3688	64.9668
3684	64.889
3680	64.9791
3676	65.0002
3672	64.9111
3668	64.8763
3664	65.0484
3660	65.253
3656	65.2336
3652	65.1057
3648	65.0065
3644	64.9745
3640	64.9863
3636	64.9799
3632	65.0276
3628	65.0388
3624	64.9132
3620	64.8783
3616	64.9847
3612	65.0366
3608	64.9644
3604	64.8153
3600	64.7096
3596	64.7374
3592	64.8157
3588	64.8468
3584	64.856
3580	64.8791
3576	64.926
3572	65.036
3568	65.1668
3564	65.1247
3560	64.9076
3556	64.8415
3552	65.0021
3548	65.1053
3544	65.1468
3540	65.1652
3536	65.0445
3532	64.8782
3528	64.8238
3524	64.96
3520	65.1814
3516	65.2524
3512	65.133
3508	64.9978
3504	64.9257
3500	64.835
3496	64.7976
3492	64.9283
3488	65.1151
3484	65.1292
3480	64.9816
3476	64.9196
3472	65.0306
3468	65.1649
3464	65.1766
3460	65.1345
3456	65.1332
3452	65.0979
3448	64.9458
3444	64.8479
3440	64.9046
3436	64.9803
3432	64.9895
3428	64.9327
3424	64.9082
3420	64.8921
3416	64.8293
3412	64.7809
3408	64.7871
3404	64.8053
3400	64.8234
3396	64.9047
3392	64.9449
3388	64.9055
3384	64.9171
3380	65.0322
3376	65.1273
3372	65.0447
3368	64.943
3364	64.9271
3360	64.9225
3356	64.9695
3352	64.9905
3348	64.9488
3344	64.9213
3340	64.9471
3336	65.0418
3332	65.0974
3328	65.089
3324	65.1652
3320	65.2277
3316	65.1341
3312	65.0111
3308	65.0254
3304	65.1889
3300	65.2562
3296	65.1004
3292	64.8868
3288	64.7604
3284	64.7584
3280	64.7416
3276	64.7054
3272	64.7949
3268	64.819
3264	64.6471
3260	64.5166
3256	64.6872
3252	65.0851
3248	65.5374
3244	66.0266
3240	66.5707
3236	66.4546
3232	65.6999
3228	65.5034
3224	65.4778
3220	65.0607
3216	64.7155
3212	64.5733
3208	64.5727
3204	64.7149
3200	64.8735
3196	64.9306
3192	64.9967
3188	65.1098
3184	65.1026
3180	65.0161
3176	64.9033
3172	64.7193
3168	64.6228
3164	64.7021
3160	64.8441
3156	64.9412
3152	65.009
3148	65.0446
3144	64.9314
3140	64.8212
3136	64.8597
3132	64.8657
3128	64.8237
3124	64.8596
3120	64.9506
3116	65.0643
3112	65.1734
3108	65.1776
3104	65.1212
3100	65.0478
3096	64.9506
3092	64.9155
3088	64.9189
3084	64.8898
3080	64.9108
3076	64.9484
3072	64.9064
3068	64.8833
3064	64.9222
3060	65.0293
3056	65.1507
3052	65.1221
3048	64.9788
3044	64.9056
3040	64.9265
3036	64.927
3032	64.8586
3028	64.7335
3024	64.6481
3020	64.7045
3016	64.8233
3012	64.8827
3008	64.835
3004	64.7702
3000	64.7882
2996	64.8428
2992	64.8952
2988	64.9619
2984	65.0532
2980	65.1418
2976	65.1216
2972	65.0238
2968	64.9859
2964	64.8885
2960	64.6582
2956	64.4735
2952	64.4457
2948	64.6049
2944	64.7875
2940	64.7777
2936	64.6988
2932	64.6632
2928	64.6701
2924	64.7574
2920	64.8768
2916	64.9185
2912	64.8296
2908	64.6587
2904	64.5494
2900	64.611
2896	64.7463
2892	64.8146
2888	64.7865
2884	64.7427
2880	64.7811
2876	64.8483
2872	64.8394
2868	64.7729
2864	64.7696
2860	64.8251
2856	64.8799
2852	64.9548
2848	64.9727
2844	64.9029
2840	64.85
2836	64.7918
2832	64.7261
2828	64.6968
2824	64.6665
2820	64.671
2816	64.7971
2812	64.9355
2808	64.8995
2804	64.7943
2800	64.7665
2796	64.7601
2792	64.7696
2788	64.8681
2784	65.0001
2780	65.0289
2776	64.9144
2772	64.8055
2768	64.8295
2764	64.8783
2760	64.8876
2756	64.946
2752	64.9806
2748	64.8948
2744	64.8473
2740	64.8866
2736	64.8472
2732	64.7926
2728	64.7751
2724	64.7467
2720	64.7638
2716	64.8028
2712	64.8664
2708	64.8859
2704	64.7764
2700	64.6995
2696	64.7182
2692	64.7678
2688	64.8547
2684	64.9196
2680	64.8879
2676	64.8081
2672	64.7834
2668	64.8177
2664	64.8489
2660	64.8868
2656	64.9087
2652	64.8172
2648	64.6559
2644	64.5905
2640	64.628
2636	64.6308
2632	64.6455
2628	64.7154
2624	64.7417
2620	64.795
2616	64.8468
2612	64.7945
2608	64.742
2604	64.712
2600	64.6338
2596	64.5615
2592	64.5947
2588	64.6486
2584	64.6135
2580	64.5816
2576	64.5759
2572	64.5296
2568	64.5496
2564	64.684
2560	64.7351
2556	64.6283
2552	64.5832
2548	64.6887
2544	64.7787
2540	64.7402
2536	64.5943
2532	64.4881
2528	64.5449
2524	64.6535
2520	64.7281
2516	64.7916
2512	64.7988
2508	64.8196
2504	64.8373
2500	64.7168
2496	64.5803
2492	64.5611
2488	64.6322
2484	64.6995
2480	64.7181
2476	64.7667
2472	64.7732
2468	64.6432
2464	64.5443
2460	64.5529
2456	64.5775
2452	64.5829
2448	64.5914
2444	64.6047
2440	64.5811
2436	64.5473
2432	64.558
2428	64.5733
2424	64.5873
2420	64.6656
2416	64.7835
2412	64.8841
2408	64.8967
2404	64.841
2400	64.7924
2396	64.6964
2392	64.5714
2388	64.5401
2384	64.5802
2380	64.5737
2376	64.542
2372	64.5118
2368	64.4747
2364	64.4866
2360	64.537
2356	64.5282
2352	64.4848
2348	64.4994
2344	64.5362
2340	64.5961
2336	64.661
2332	64.6325
2328	64.4733
2324	64.3145
2320	64.3752
2316	64.5474
2312	64.6265
2308	64.6146
2304	64.5655
2300	64.5215
2296	64.4861
2292	64.4479
2288	64.4403
2284	64.4826
2280	64.4928
2276	64.4618
2272	64.4519
2268	64.4998
2264	64.5945
2260	64.6545
2256	64.6547
2252	64.6568
2248	64.6214
2244	64.522
2240	64.5071
2236	64.5941
2232	64.6698
2228	64.7019
2224	64.6393
2220	64.5509
2216	64.4964
2212	64.4119
2208	64.3732
2204	64.4231
2200	64.5246
2196	64.5903
2192	64.529
2188	64.4996
2184	64.647
2180	64.7594
2176	64.8257
2172	65.1721
2168	65.5597
2164	65.8014
2160	66.1144
2156	65.8696
2152	65.1356
2148	64.7455
2144	64.6569
2140	64.7149
2136	64.6965
2132	64.5773
2128	64.4945
2124	64.3573
2120	64.2731
2116	64.3744
2112	64.4847
2108	64.4886
2104	64.4424
2100	64.4145
2096	64.4562
2092	64.444
2088	64.3535
2084	64.3208
2080	64.3266
2076	64.3038
2072	64.303
2068	64.3589
2064	64.4066
2060	64.4338
2056	64.4759
2052	64.445
2048	64.3605
2044	64.36
2040	64.4521
2036	64.6136
2032	64.6188
2028	64.4233
2024	64.3473
2020	64.3947
2016	64.4435
2012	64.476
2008	64.4621
2004	64.4211
2000	64.342
1996	64.2622
1992	64.3054
1988	64.4092
1984	64.417
1980	64.384
1976	64.3837
1972	64.371
1968	64.3454
1964	64.339
1960	64.3701
1956	64.4524
1952	64.4853
1948	64.4311
1944	64.4045
1940	64.4075
1936	64.4217
1932	64.4311
1928	64.3709
1924	64.2976
1920	64.2664
1916	64.2713
1912	64.3253
1908	64.3933
1904	64.4066
1900	64.3314
1896	64.2499
1892	64.2541
1888	64.2798
1884	64.277
1880	64.2964
1876	64.3167
1872	64.318
1868	64.3722
1864	64.3848
1860	64.3201
1856	64.3533
1852	64.3983
1848	64.3336
1844	64.2207
1840	64.0865
1836	64.0316
1832	64.1418
1828	64.2431
1824	64.1632
1820	64.1035
1816	64.1968
1812	64.2517
1808	64.2101
1804	64.1752
1800	64.1883
1796	64.2277
1792	64.2417
1788	64.194
1784	64.1621
1780	64.167
1776	64.1474
1772	64.1736
1768	64.22
1764	64.2266
1760	64.1983
1756	64.0672
1752	63.9124
1748	63.8385
1744	63.8128
1740	63.814
1736	63.8237
1732	63.8365
1728	63.8725
1724	63.901
1720	63.9345
1716	63.9616
1712	63.9232
1708	63.8842
1704	63.9222
1700	64.0024
1696	64.0106
1692	63.9728
1688	63.979
1684	64.0203
1680	64.0559
1676	64.0231
1672	63.9526
1668	63.8743
1664	63.8305
1660	63.9008
1656	63.9925
1652	64.0074
1648	63.9566
1644	63.8804
1640	63.8218
1636	63.8168
1632	63.9043
1628	64.0328
1624	64.133
1620	64.2176
1616	64.2459
1612	64.2261
1608	64.2035
1604	64.118
1600	64.0492
1596	64.0291
1592	63.957
1588	63.9856
1584	64.1011
1580	64.0608
1576	63.968
1572	63.95
1568	63.9011
1564	63.7946
1560	63.7777
1556	63.908
1552	64.0258
1548	64.0418
1544	63.9972
1540	63.9974
1536	64.0209
1532	63.9743
1528	63.9162
1524	63.8929
1520	63.8648
1516	63.8355
1512	63.8656
1508	63.9544
1504	63.9986
1500	63.8978
1496	63.6578
1492	63.5656
1488	63.7745
1484	63.9167
1480	63.8384
1476	63.6989
1472	63.6209
1468	63.6304
1464	63.6726
1460	63.7403
1456	63.8019
1452	63.7269
1448	63.5915
1444	63.6038
1440	63.7571
1436	63.8854
1432	63.919
1428	63.9389
1424	63.9027
1420	63.7739
1416	63.6567
1412	63.5716
1408	63.5964
1404	63.712
1400	63.7149
1396	63.6629
1392	63.6483
1388	63.6917
1384	63.7843
1380	63.7247
1376	63.6159
1372	63.6968
1368	63.7822
1364	63.7256
1360	63.63
1356	63.5665
1352	63.5788
1348	63.5853
1344	63.5473
1340	63.612
1336	63.7616
1332	63.8474
1328	63.8766
1324	63.9207
1320	63.8547
1316	63.6707
1312	63.5517
1308	63.4906
1304	63.4798
1300	63.5064
1296	63.447
1292	63.3775
1288	63.4409
1284	63.5274
1280	63.5556
1276	63.5719
1272	63.606
1268	63.6305
1264	63.6454
1260	63.6794
1256	63.7194
1252	63.7573
1248	63.7406
1244	63.6894
1240	63.6818
1236	63.6757
1232	63.627
1228	63.708
1224	63.8158
1220	63.668
1216	63.5073
1212	63.5511
1208	63.6203
1204	63.6136
1200	63.5828
1196	63.5849
1192	63.561
1188	63.5008
1184	63.49
1180	63.415
1176	63.3155
1172	63.4076
1168	63.4073
1164	63.2591
1160	63.3576
1156	63.4839
1152	63.393
1148	63.2698
1144	63.2194
1140	63.3195
1136	63.5618
1132	63.6981
1128	63.6147
1124	63.5176
1120	63.6219
1116	63.769
1112	63.7183
1108	63.7081
1104	63.8671
1100	63.9309
1096	63.9122
1092	63.869
1088	63.3268
1084	61.0547
1080	58.9659
1076	60.2367
1072	62.4104
1068	63.1946
1064	63.5417
1060	63.5195
1056	63.2381
1052	63.1279
1048	63.2243
1044	63.2891
1040	63.2938
1036	63.3599
1032	63.3538
1028	63.2549
1024	63.2604
1020	63.4884
1016	63.8218
1012	63.9363
1008	63.7687
1004	63.6206
1000	63.505
996	 63.2266
992	 63.1082
988	 63.3844
984	 63.604
980	 63.5468
976	 63.4024
972	 63.2221
968	 63.0983
964	 63.0994
960	 63.116
956	 63.28
952	 63.5249
948	 63.5222
944	 63.4225
940	 63.3856
936	 63.3716
932	 63.4163
928	 63.4498
924	 63.2751
920	 62.9966
916	 63.0569
912	 63.2749
908	 63.2624
904	 63.2152
900	 63.1041
896	 63.0168
892	 63.1743
888	 63.2156
884	 63.1189
880	 63.2397
876	 63.4871
872	 63.626
868	 63.5953
864	 63.3556
860	 63.203
856	 63.37
852	 63.3853
848	 63.2122
844	 63.1893
840	 63.118
836	 63.0097
832	 63.145
828	 63.4387
824	 63.5104
820	 63.3622
816	 63.2599
812	 63.1693
808	 63.0199
804	 62.8945
800	 63.0119
796	 63.191
792	 63.1263
788	 63.1544
784	 63.3422
780	 63.4441
776	 63.5341
772	 63.4124
768	 63.11
764	 62.9516
760	 62.922
756	 63.0434
752	 63.3303
748	 63.4019
744	 63.1771
740	 63.1972
736	 63.4348
732	 63.5097
728	 63.3429
724	 63.0172
720	 62.9664
716	 63.0797
712	 62.9641
708	 63.1011
704	 63.1968
700	 62.4424
696	 61.5322
692	 61.2933
688	 61.6886
684	 62.6851
680	 63.6766
676	 63.6465
672	 62.7071
668	 61.7043
664	 61.7042
660	 62.718
656	 63.1512
652	 62.7691
648	 62.7628
644	 63.0047
640	 62.6149
636	 62.091
632	 62.0672
628	 62.134
624	 62.22
620	 62.5725
616	 62.8223
612	 62.8603
608	 63.1472
604	 63.7244
600	 63.7956
596	 63.1057
592	 62.4413
588	 62.1236
584	 62.2013
580	 62.4386
576	 62.5277
572	 62.5575
568	 62.5631
564	 62.7751
560	 63.3192
556	 63.522
552	 63.1808
548	 62.8137
544	 62.5167
540	 62.5096
536	 62.631
532	 62.4317
528	 62.1845
524	 62.2541
520	 62.401
516	 62.4653
512	 62.4599
508	 62.3899
504	 62.2917
500	 62.1897
496	 62.2007
492	 62.1797
488	 62.1345
484	 62.0942
480	 62.1387
476	 62.3495
472	 62.3031
468	 62.0011
464	 61.5827
460	 60.7509
456	 60.159
452	 60.737
448	 61.431
444	 61.8232
440	 63.1705
436	 63.7759
432	 62.4702
428	 62.5412
424	 65.1093
420	 66.7644
416	 66.2281
412	 65.3526
408	 63.3646
404	 59.9709
400	 59.6592
396	 62.1653
392	 59.6194
388	 57.8203
384	 62.3564
380	 70.5256
376	 99.2155
372	 133.792
370	 136.274