File: Bakgrunnsmateriale/MATLAB/FTIR/ftir_data/subAa/Mapping_121/BZ1503107-1_t23_cm-1.asc
PE IR       SPECTRUM    SPECTRUM    ASCII       PEDS        1.60
  -1
BZ6B23~1.ASC
17/04/07
15:09:50.00
17/04/07
15:09:50.00
tln
$BZ1503107-1_t0023$<tbV0>[13.0,-7.8,8.0,0.0,27,1,0]
370
64

2002,4.07
MIRTGS : RIGHTBACK : INTERNAL 2
MIR : ON : INTERNAL 2
OPTKBR

0.200000
8
8.000000
FILLER
RATIO
SPECTRUM
UNLOCKED 256

DOUBLE
64
COMBINED
1
0
0

1.000000
RATIO

1
0
TRUE
51149
0
LEFT NOT FITTED RIGHT NOT FITTED 0
NONE
NONE
15600
12
4.427000
51148
TRUE
1 0 8 72 0 0 0 0

15798

#HDR
-1
-1
#GR
CM-1
%T
2.38419e-05
0.0
5000
-1.000000
4631
8
83.5359
54.1584
#DATA
5000	64.8986
4996	63.9698
4992	64.0991
4988	64.9015
4984	65.4804
4980	65.6127
4976	65.4307
4972	64.8082
4968	64.2732
4964	64.2941
4960	64.4077
4956	64.3871
4952	64.3276
4948	64.2498
4944	64.399
4940	64.7282
4936	64.7307
4932	64.6052
4928	64.8897
4924	65.4273
4920	65.6013
4916	65.1172
4912	64.7687
4908	64.9129
4904	64.8216
4900	64.5701
4896	64.4521
4892	64.4725
4888	64.6974
4884	64.9439
4880	65.1376
4876	65.0553
4872	64.6163
4868	64.3831
4864	64.6071
4860	64.8932
4856	65.0561
4852	65.0683
4848	64.8367
4844	64.6411
4840	64.7149
4836	64.7426
4832	64.708
4828	64.9427
4824	65.0913
4820	64.9078
4816	64.7952
4812	64.8211
4808	64.7102
4804	64.5815
4800	64.6989
4796	64.8968
4792	64.9908
4788	64.9396
4784	64.7436
4780	64.6446
4776	64.7308
4772	64.8691
4768	65.0247
4764	65.1346
4760	65.2482
4756	65.2988
4752	65.1306
4748	65.0175
4744	65.0801
4740	65.1607
4736	65.1991
4732	65.187
4728	65.111
4724	65.0264
4720	65.2215
4716	65.6697
4712	66.0878
4708	66.1504
4704	65.7156
4700	65.3912
4696	65.4643
4692	65.452
4688	65.2664
4684	65.1464
4680	65.0611
4676	65.0072
4672	64.9981
4668	64.9781
4664	64.9232
4660	64.924
4656	65.0899
4652	65.2334
4648	65.346
4644	65.3681
4640	65.1565
4636	65.0221
4632	64.9633
4628	64.8226
4624	64.8037
4620	64.9141
4616	64.9826
4612	64.9785
4608	64.913
4604	64.7468
4600	64.6454
4596	64.8213
4592	64.9404
4588	64.7985
4584	64.8799
4580	65.282
4576	65.4075
4572	65.035
4568	64.6629
4564	64.6146
4560	64.7152
4556	64.7313
4552	64.5778
4548	64.5309
4544	64.8119
4540	65.0845
4536	65.1392
4532	65.0571
4528	64.7339
4524	64.2976
4520	64.2101
4516	64.4992
4512	64.7744
4508	64.9284
4504	64.9853
4500	64.7733
4496	64.3238
4492	64.0038
4488	64.1439
4484	64.5359
4480	64.571
4476	64.4168
4472	64.5731
4468	64.7758
4464	64.758
4460	65.0905
4456	65.4433
4452	65.273
4448	64.8177
4444	64.1126
4440	63.678
4436	63.1675
4432	61.1142
4428	61.7438
4424	74.3009
4420	83.5359
4416	76.7239
4412	68.6119
4408	66.0606
4404	65.7649
4400	65.3742
4396	64.8673
4392	64.749
4388	64.7434
4384	64.943
4380	65.166
4376	64.9923
4372	64.7474
4368	64.5634
4364	64.4632
4360	64.6036
4356	64.6873
4352	64.5781
4348	64.4629
4344	64.3814
4340	64.4641
4336	64.6485
4332	64.73
4328	64.7748
4324	64.7736
4320	64.7057
4316	64.682
4312	64.7141
4308	64.8268
4304	64.8683
4300	64.6417
4296	64.4788
4292	64.5953
4288	64.8287
4284	65.0879
4280	65.1864
4276	65.0244
4272	64.8656
4268	64.7774
4264	64.5736
4260	64.459
4256	64.6024
4252	64.7404
4248	64.8116
4244	64.8897
4240	64.8811
4236	64.8649
4232	64.9027
4228	64.9436
4224	65.004
4220	65.0192
4216	64.9334
4212	64.8848
4208	64.977
4204	65.1109
4200	65.1908
4196	65.2176
4192	65.218
4188	65.1665
4184	65.044
4180	64.9852
4176	65.2081
4172	65.7108
4168	66.0218
4164	65.773
4160	65.2682
4156	64.9729
4152	64.9153
4148	64.919
4144	65.0285
4140	65.2208
4136	65.367
4132	65.4119
4128	65.3527
4124	65.3167
4120	65.3401
4116	65.3561
4112	65.287
4108	65.1437
4104	65.0478
4100	65.0756
4096	65.2173
4092	65.2981
4088	65.2356
4084	65.1032
4080	65.0815
4076	65.2274
4072	65.2994
4068	65.1879
4064	65.0001
4060	64.9705
4056	65.1076
4052	65.1903
4048	65.2297
4044	65.1947
4040	65.077
4036	65.0149
4032	64.9477
4028	64.8807
4024	64.9737
4020	65.1488
4016	65.2585
4012	65.3372
4008	65.3694
4004	65.282
4000	65.1295
3996	65.1003
3992	65.2318
3988	65.2624
3984	65.0095
3980	64.7884
3976	64.9065
3972	65.0677
3968	65.069
3964	65.1001
3960	65.1295
3956	65.0379
3952	64.9699
3948	65.0062
3944	65.0892
3940	65.12
3936	65.1272
3932	65.1781
3928	65.1125
3924	65.0747
3920	65.1649
3916	65.135
3912	65.0499
3908	65.0515
3904	65.1042
3900	65.1338
3896	65.1201
3892	65.0978
3888	65.0808
3884	65.0513
3880	65.0496
3876	65.1299
3872	65.191
3868	65.1316
3864	64.9873
3860	64.9116
3856	64.9781
3852	65.1668
3848	65.3507
3844	65.2986
3840	65.0712
3836	64.9927
3832	65.1216
3828	65.2156
3824	65.1867
3820	65.1372
3816	65.0193
3812	64.8729
3808	65.0504
3804	65.4175
3800	65.4925
3796	65.2678
3792	65.082
3788	65.1387
3784	65.2132
3780	65.1697
3776	65.1455
3772	65.1516
3768	65.174
3764	65.2014
3760	65.1796
3756	65.1162
3752	65.0488
3748	65.0208
3744	65.0293
3740	65.0618
3736	65.1357
3732	65.1015
3728	64.9681
3724	65.0366
3720	65.248
3716	65.33
3712	65.352
3708	65.4195
3704	65.4347
3700	65.3426
3696	65.1831
3692	65.0706
3688	65.0624
3684	65.0788
3680	65.1265
3676	65.2374
3672	65.3017
3668	65.3002
3664	65.3195
3660	65.3289
3656	65.3697
3652	65.4969
3648	65.5568
3644	65.501
3640	65.3424
3636	65.203
3632	65.2244
3628	65.2225
3624	65.1795
3620	65.1958
3616	65.2341
3612	65.318
3608	65.3894
3604	65.3314
3600	65.1961
3596	65.1633
3592	65.2477
3588	65.2982
3584	65.262
3580	65.1626
3576	65.0663
3572	65.0511
3568	65.0642
3564	65.0171
3560	64.9614
3556	64.9423
3552	64.9262
3548	64.9594
3544	65.1077
3540	65.2011
3536	65.099
3532	65.0053
3528	65.0409
3524	65.1338
3520	65.2157
3516	65.2575
3512	65.2844
3508	65.2856
3504	65.2086
3500	65.088
3496	65.0825
3492	65.1398
3488	65.0243
3484	64.8617
3480	64.9109
3476	65.0839
3472	65.1788
3468	65.1911
3464	65.19
3460	65.1805
3456	65.17
3452	65.188
3448	65.1885
3444	65.0801
3440	64.9893
3436	65.0688
3432	65.2195
3428	65.3053
3424	65.3607
3420	65.4099
3416	65.3808
3412	65.3404
3408	65.3243
3404	65.2761
3400	65.2041
3396	65.1769
3392	65.2104
3388	65.2258
3384	65.1884
3380	65.0991
3376	65.0744
3372	65.1396
3368	65.1434
3364	65.0832
3360	65.0871
3356	65.1559
3352	65.167
3348	65.1633
3344	65.1887
3340	65.1912
3336	65.2029
3332	65.1787
3328	65.1138
3324	65.1162
3320	65.1057
3316	65.0008
3312	64.9492
3308	65.0069
3304	65.0216
3300	64.9436
3296	64.93
3292	65.0693
3288	65.2196
3284	65.2507
3280	65.2275
3276	65.252
3272	65.2399
3268	65.163
3264	65.135
3260	65.1271
3256	65.1271
3252	65.1609
3248	65.1854
3244	65.2089
3240	65.2434
3236	65.2651
3232	65.2676
3228	65.2437
3224	65.1439
3220	65.04
3216	65.0662
3212	65.1691
3208	65.2117
3204	65.1644
3200	65.1682
3196	65.1906
3192	65.1045
3188	65.044
3184	65.0474
3180	65.0839
3176	65.1865
3172	65.2608
3168	65.246
3164	65.1556
3160	65.0594
3156	65.0361
3152	65.0304
3148	64.983
3144	64.9907
3140	65.0312
3136	65.0033
3132	65.1263
3128	65.325
3124	65.2402
3120	65.0451
3116	64.9663
3112	64.9774
3108	65.0939
3104	65.2044
3100	65.1588
3096	65.0965
3092	65.0992
3088	65.0452
3084	64.9683
3080	64.9737
3076	65.0156
3072	65.0471
3068	65.1355
3064	65.202
3060	65.1508
3056	65.1117
3052	65.148
3048	65.1547
3044	65.1266
3040	65.1264
3036	65.11
3032	65.0683
3028	65.023
3024	64.9864
3020	64.9853
3016	65.0218
3012	65.0759
3008	65.0983
3004	65.0915
3000	65.0961
2996	65.0929
2992	65.1136
2988	65.1915
2984	65.2218
2980	65.131
2976	65.0568
2972	65.0765
2968	65.0427
2964	64.9439
2960	64.9182
2956	64.9788
2952	65.0259
2948	65.0115
2944	64.9456
2940	64.9001
2936	64.9528
2932	64.9856
2928	64.9228
2924	64.8887
2920	64.9293
2916	64.9752
2912	64.9616
2908	64.9145
2904	64.969
2900	65.0537
2896	65.0447
2892	65.0326
2888	65.0429
2884	64.9877
2880	64.8841
2876	64.8716
2872	64.9625
2868	65.03
2864	65.0901
2860	65.1314
2856	65.1357
2852	65.1792
2848	65.1526
2844	65.0546
2840	65.0538
2836	65.0761
2832	65.0444
2828	65.052
2824	65.0452
2820	64.971
2816	64.9847
2812	65.0969
2808	65.1614
2804	65.1615
2800	65.1766
2796	65.2191
2792	65.2147
2788	65.1394
2784	65.0191
2780	64.9816
2776	65.0926
2772	65.2088
2768	65.2384
2764	65.1983
2760	65.1659
2756	65.187
2752	65.199
2748	65.2144
2744	65.2399
2740	65.1637
2736	65.0038
2732	64.9514
2728	65.0409
2724	65.127
2720	65.1401
2716	65.118
2712	65.0908
2708	65.0587
2704	65.0651
2700	65.1001
2696	65.0953
2692	65.0375
2688	64.9906
2684	65.0198
2680	65.0471
2676	65.0068
2672	64.9477
2668	64.9371
2664	65.0087
2660	65.0934
2656	65.0817
2652	65.0141
2648	64.9749
2644	64.9482
2640	64.9611
2636	65.0055
2632	65.0466
2628	65.0869
2624	65.0619
2620	64.9529
2616	64.8359
2612	64.788
2608	64.7995
2604	64.8681
2600	65.0125
2596	65.1062
2592	65.1113
2588	65.061
2584	64.9579
2580	64.9057
2576	64.9164
2572	64.9277
2568	64.9776
2564	65.0544
2560	65.0728
2556	65.0241
2552	64.921
2548	64.8369
2544	64.8767
2540	64.9879
2536	65.0397
2532	65.028
2528	65.0724
2524	65.1171
2520	65.049
2516	64.9948
2512	65.0373
2508	65.0771
2504	65.0376
2500	64.9511
2496	64.9127
2492	64.9273
2488	64.9175
2484	64.8797
2480	64.8793
2476	64.9335
2472	64.942
2468	64.8764
2464	64.828
2460	64.7761
2456	64.7196
2452	64.7448
2448	64.8336
2444	64.9409
2440	65.0229
2436	65.0108
2432	64.942
2428	64.8969
2424	64.8697
2420	64.8486
2416	64.941
2412	65.0795
2408	65.0438
2404	64.9008
2400	64.8301
2396	64.9055
2392	65.0392
2388	65.0864
2384	65.0508
2380	64.9825
2376	64.9391
2372	64.909
2368	64.8706
2364	64.9236
2360	65.0422
2356	65.0915
2352	65.0884
2348	65.0858
2344	65.061
2340	65.055
2336	65.0639
2332	65.0399
2328	65.0052
2324	64.9495
2320	64.9003
2316	64.8894
2312	64.9111
2308	64.9616
2304	65.0064
2300	64.9886
2296	64.9289
2292	64.9101
2288	64.9542
2284	65.0038
2280	64.9896
2276	64.9556
2272	64.9349
2268	64.9087
2264	64.9194
2260	64.9374
2256	64.9182
2252	64.9422
2248	64.9756
2244	64.9072
2240	64.8291
2236	64.8332
2232	64.8771
2228	64.9077
2224	64.93
2220	64.9464
2216	64.8961
2212	64.8158
2208	64.8032
2204	64.8906
2200	64.9919
2196	64.9673
2192	64.892
2188	64.9151
2184	64.9603
2180	64.8921
2176	64.7795
2172	64.7677
2168	64.8055
2164	64.8213
2160	64.8254
2156	64.7974
2152	64.778
2148	64.7599
2144	64.7419
2140	64.7383
2136	64.717
2132	64.7526
2128	64.8331
2124	64.8833
2120	64.9297
2116	64.9477
2112	64.9338
2108	64.9204
2104	64.8704
2100	64.8307
2096	64.8398
2092	64.8915
2088	64.9416
2084	64.8441
2080	64.7658
2076	64.9147
2072	65.0397
2068	64.9526
2064	64.8245
2060	64.7891
2056	64.8114
2052	64.8342
2048	64.8437
2044	64.8427
2040	64.845
2036	64.8535
2032	64.8415
2028	64.8118
2024	64.8212
2020	64.86
2016	64.8466
2012	64.8006
2008	64.8018
2004	64.8596
2000	64.9096
1996	64.8744
1992	64.798
1988	64.7815
1984	64.7861
1980	64.7425
1976	64.6825
1972	64.6963
1968	64.774
1964	64.7873
1960	64.7362
1956	64.7192
1952	64.7509
1948	64.7887
1944	64.7956
1940	64.7726
1936	64.7618
1932	64.7621
1928	64.7341
1924	64.7223
1920	64.7297
1916	64.7208
1912	64.7378
1908	64.745
1904	64.7396
1900	64.7828
1896	64.8146
1892	64.8013
1888	64.7818
1884	64.7359
1880	64.6728
1876	64.6559
1872	64.6986
1868	64.7478
1864	64.6874
1860	64.5803
1856	64.6284
1852	64.7255
1848	64.7089
1844	64.669
1840	64.6693
1836	64.7057
1832	64.7264
1828	64.702
1824	64.7144
1820	64.7544
1816	64.7545
1812	64.6784
1808	64.5793
1804	64.5785
1800	64.6231
1796	64.6375
1792	64.6543
1788	64.6666
1784	64.6258
1780	64.5704
1776	64.5963
1772	64.6208
1768	64.5714
1764	64.5383
1760	64.5241
1756	64.5078
1752	64.4912
1748	64.451
1744	64.4198
1740	64.3712
1736	64.2888
1732	64.2796
1728	64.3608
1724	64.4262
1720	64.4399
1716	64.4387
1712	64.4603
1708	64.5603
1704	64.677
1700	64.7012
1696	64.6726
1692	64.6719
1688	64.6645
1684	64.5823
1680	64.5076
1676	64.5188
1672	64.5881
1668	64.6339
1664	64.595
1660	64.5467
1656	64.5275
1652	64.5126
1648	64.4799
1644	64.4484
1640	64.5185
1636	64.6151
1632	64.6034
1628	64.519
1624	64.44
1620	64.4057
1616	64.4153
1612	64.4373
1608	64.4268
1604	64.3969
1600	64.3868
1596	64.4157
1592	64.4704
1588	64.5042
1584	64.4955
1580	64.4423
1576	64.3947
1572	64.4114
1568	64.4826
1564	64.5183
1560	64.4815
1556	64.4676
1552	64.4733
1548	64.4509
1544	64.436
1540	64.4281
1536	64.419
1532	64.4561
1528	64.4726
1524	64.4264
1520	64.4511
1516	64.5212
1512	64.5241
1508	64.5166
1504	64.5605
1500	64.5863
1496	64.6059
1492	64.5928
1488	64.4679
1484	64.4251
1480	64.5114
1476	64.5121
1472	64.3898
1468	64.3037
1464	64.313
1460	64.4407
1456	64.6032
1452	64.5927
1448	64.5078
1444	64.4991
1440	64.5187
1436	64.5121
1432	64.4495
1428	64.4261
1424	64.4384
1420	64.4142
1416	64.3903
1412	64.347
1408	64.3004
1404	64.2981
1400	64.3121
1396	64.3408
1392	64.3694
1388	64.3522
1384	64.3326
1380	64.3558
1376	64.3932
1372	64.4105
1368	64.3576
1364	64.2768
1360	64.2583
1356	64.2686
1352	64.236
1348	64.1946
1344	64.2417
1340	64.3929
1336	64.4655
1332	64.3575
1328	64.2566
1324	64.2361
1320	64.2247
1316	64.2518
1312	64.3156
1308	64.3142
1304	64.241
1300	64.2111
1296	64.2235
1292	64.1974
1288	64.1359
1284	64.0855
1280	64.1027
1276	64.1622
1272	64.1528
1268	64.0859
1264	64.0495
1260	64.0671
1256	64.1143
1252	64.1954
1248	64.2511
1244	64.2116
1240	64.1646
1236	64.1685
1232	64.2044
1228	64.2236
1224	64.1991
1220	64.1695
1216	64.1875
1212	64.2207
1208	64.1732
1204	64.1149
1200	64.1224
1196	64.16
1192	64.2054
1188	64.2313
1184	64.1901
1180	64.126
1176	64.1086
1172	64.0878
1168	64.0348
1164	64.024
1160	64.0259
1156	63.9989
1152	64.0222
1148	64.0943
1144	64.1593
1140	64.1371
1136	64.0413
1132	63.9937
1128	63.9838
1124	63.9783
1120	64.0196
1116	64.0238
1112	63.9781
1108	64.0935
1104	64.2751
1100	64.1989
1096	63.9795
1092	63.9064
1088	63.983
1084	64.0304
1080	64.0626
1076	64.1616
1072	64.2035
1068	64.1679
1064	64.1033
1060	64.0496
1056	64.0764
1052	64.101
1048	63.9926
1044	63.9082
1040	63.997
1036	64.0805
1032	64.0749
1028	64.0732
1024	64.1052
1020	64.1259
1016	64.1284
1012	64.084
1008	64.0008
1004	64.0423
1000	64.1881
996	 64.2663
992	 64.2087
988	 64.0493
984	 63.926
980	 63.9253
976	 63.9838
972	 64.0569
968	 64.0912
964	 64.0494
960	 64.0665
956	 64.1816
952	 64.296
948	 64.3001
944	 64.1599
940	 64.0299
936	 64.0922
932	 64.245
928	 64.2698
924	 64.2643
920	 64.3715
916	 64.3936
912	 64.2071
908	 64.0558
904	 64.0313
900	 64.0285
896	 64.0497
892	 64.0634
888	 64.066
884	 64.2162
880	 64.432
876	 64.353
872	 64.1025
868	 64.0621
864	 64.1245
860	 64.1492
856	 64.1985
852	 64.1218
848	 63.9464
844	 63.9898
840	 64.1709
836	 64.2926
832	 64.3326
828	 64.2726
824	 64.2678
820	 64.2821
816	 64.1742
812	 64.0762
808	 63.9605
804	 63.8872
800	 64.1096
796	 64.3787
792	 64.2781
788	 64.0609
784	 64.0315
780	 64.0455
776	 64.1419
772	 64.2095
768	 64.0856
764	 63.9999
760	 63.9835
756	 63.8586
752	 63.6177
748	 63.6086
744	 63.8831
740	 63.9703
736	 63.7703
732	 63.5804
728	 63.5964
724	 63.8494
720	 64.0772
716	 63.903
712	 63.6202
708	 63.6527
704	 63.9402
700	 64.1614
696	 63.9761
692	 63.6635
688	 63.3587
684	 63.0406
680	 63.1131
676	 63.3765
672	 63.4228
668	 63.4479
664	 63.5818
660	 63.9861
656	 64.5772
652	 64.6568
648	 64.3687
644	 64.2356
640	 64.1128
636	 63.9894
632	 64.1654
628	 64.6224
624	 64.7659
620	 64.0474
616	 63.1278
612	 63.1291
608	 63.5653
604	 63.4579
600	 63.2938
596	 63.2263
592	 62.9554
588	 62.8637
584	 62.7754
580	 62.7887
576	 63.2263
572	 63.7069
568	 64.0237
564	 64.0836
560	 63.9595
556	 63.9521
552	 64.0142
548	 63.8247
544	 63.3837
540	 63.117
536	 63.3656
532	 63.5733
528	 63.4876
524	 63.4554
520	 63.4011
516	 63.4821
512	 63.7572
508	 63.8685
504	 63.8893
500	 63.9815
496	 64.0304
492	 63.9449
488	 63.7402
484	 63.8562
480	 64.1497
476	 63.8629
472	 63.2633
468	 62.9643
464	 63.0228
460	 63.1412
456	 63.1523
452	 63.4271
448	 63.9834
444	 64.3164
440	 64.1908
436	 63.8879
432	 63.8778
428	 63.3421
424	 62.0953
420	 62.1588
416	 63.4161
412	 64.234
408	 64.0576
404	 61.4718
400	 59.3951
396	 62.2298
392	 62.8916
388	 60.4398
384	 68.6544
380	 75.6375
376	 64.305
372	 54.1584
370	 56.4813