File: Bakgrunnsmateriale/MATLAB/FTIR/ftir_data/subAa/Mapping_121/BZ1503107-1_t121_cm-1.asc
PE IR       SPECTRUM    SPECTRUM    ASCII       PEDS        1.60
  -1
BZBCF5~1.ASC
17/04/07
23:11:28.00
17/04/07
23:11:28.00
tln
$BZ1503107-1_t0121$<tbV0>[-13.0,13.0,8.0,0.0,27,1,0]
370
64

2002,4.07
MIRTGS : RIGHTBACK : INTERNAL 2
MIR : ON : INTERNAL 2
OPTKBR

0.200000
8
8.000000
FILLER
RATIO
SPECTRUM
UNLOCKED 256

DOUBLE
64
COMBINED
1
0
0

1.000000
RATIO

1
0
TRUE
51149
0
LEFT NOT FITTED RIGHT NOT FITTED 0
NONE
NONE
15600
12
4.427000
51148
TRUE
1 0 8 72 0 0 0 0

15798

#HDR
-1
-1
#GR
CM-1
%T
2.38419e-05
0.0
5000
-1.000000
4631
8
69.7049
44.8926
#DATA
5000	66.3362
4996	65.1031
4992	64.85
4988	65.8298
4984	66.1127
4980	65.2228
4976	64.1301
4972	63.3657
4968	63.3534
4964	63.8442
4960	64.4549
4956	64.8785
4952	64.7858
4948	64.2321
4944	63.4806
4940	63.5492
4936	64.4092
4932	65.3171
4928	65.6723
4924	65.4114
4920	65.169
4916	65.0787
4912	65.1725
4908	65.11
4904	64.9658
4900	65.0623
4896	65.1055
4892	64.9079
4888	64.745
4884	64.8897
4880	64.9233
4876	64.7151
4872	64.776
4868	64.9091
4864	64.8586
4860	64.8987
4856	64.7962
4852	64.6164
4848	64.644
4844	64.8381
4840	65.1064
4836	65.1637
4832	64.9663
4828	64.6765
4824	64.3525
4820	64.1771
4816	64.2076
4812	64.2805
4808	64.493
4804	64.6646
4800	64.6798
4796	64.727
4792	64.626
4788	64.3932
4784	64.2809
4780	64.2944
4776	64.3858
4772	64.4545
4768	64.5084
4764	64.6955
4760	64.8645
4756	64.8589
4752	64.667
4748	64.4001
4744	64.3801
4740	64.588
4736	64.6013
4732	64.3971
4728	64.2711
4724	64.2703
4720	64.4092
4716	64.6545
4712	64.831
4708	64.8436
4704	64.696
4700	64.535
4696	64.4521
4692	64.3826
4688	64.3613
4684	64.4465
4680	64.4477
4676	64.3596
4672	64.4455
4668	64.5889
4664	64.5941
4660	64.7411
4656	65.1072
4652	65.2148
4648	64.9891
4644	64.8214
4640	64.7702
4636	64.6968
4632	64.6381
4628	64.589
4624	64.6466
4620	64.8552
4616	65.0344
4612	65.1775
4608	65.1852
4604	64.9851
4600	64.813
4596	64.6811
4592	64.4963
4588	64.4634
4584	64.6671
4580	64.819
4576	64.7528
4572	64.7221
4568	64.9002
4564	65.0951
4560	65.1212
4556	64.9814
4552	64.8103
4548	64.8717
4544	65.1612
4540	65.118
4536	64.7563
4532	64.6616
4528	64.7456
4524	64.8273
4520	64.9301
4516	64.9139
4512	64.7317
4508	64.4877
4504	64.4959
4500	64.7623
4496	64.8382
4492	64.5915
4488	64.3459
4484	64.2502
4480	64.4082
4476	64.5913
4472	64.8436
4468	65.5009
4464	66.2812
4460	66.6507
4456	66.0509
4452	64.928
4448	64.8574
4444	68.4883
4440	67.6416
4436	58.3521
4432	56.8573
4428	62.4784
4424	63.2043
4420	63.4707
4416	65.2095
4412	65.7344
4408	65.5728
4404	65.4651
4400	65.524
4396	65.3253
4392	65.0661
4388	65.1722
4384	65.4261
4380	65.3719
4376	65.2667
4372	65.1675
4368	65.079
4364	65.044
4360	64.9798
4356	65.1179
4352	65.3299
4348	65.3761
4344	65.435
4340	65.4213
4336	65.2485
4332	65.0508
4328	64.8951
4324	64.8874
4320	65.0025
4316	65.0771
4312	65.0458
4308	64.9293
4304	64.7997
4300	64.6821
4296	64.5274
4292	64.4172
4288	64.5246
4284	64.6882
4280	64.7473
4276	64.8032
4272	64.7765
4268	64.7286
4264	64.8049
4260	64.7906
4256	64.7743
4252	64.903
4248	64.8991
4244	64.775
4240	64.6684
4236	64.6001
4232	64.665
4228	64.796
4224	64.9183
4220	65.0844
4216	65.2211
4212	65.189
4208	65.0326
4204	64.8789
4200	64.8143
4196	64.8962
4192	65.0241
4188	65.0393
4184	65.0148
4180	64.9584
4176	64.8445
4172	64.9158
4168	65.0153
4164	64.9121
4160	64.9157
4156	65.1085
4152	65.1799
4148	65.0633
4144	64.9524
4140	64.9438
4136	64.9575
4132	64.924
4128	64.9081
4124	64.8765
4120	64.7289
4116	64.6406
4112	64.7738
4108	64.8836
4104	64.7367
4100	64.5925
4096	64.6576
4092	64.7327
4088	64.7751
4084	64.831
4080	64.8885
4076	64.9335
4072	64.9238
4068	64.846
4064	64.7064
4060	64.7282
4056	64.8906
4052	64.8995
4048	64.823
4044	64.836
4040	64.879
4036	64.9056
4032	64.8917
4028	64.7902
4024	64.7046
4020	64.7
4016	64.8015
4012	64.9661
4008	64.9897
4004	64.8541
4000	64.8163
3996	64.961
3992	65.0028
3988	64.8248
3984	64.6708
3980	64.659
3976	64.6666
3972	64.6619
3968	64.7572
3964	64.9374
3960	65.0016
3956	64.9717
3952	65.0196
3948	65.0417
3944	64.965
3940	64.8805
3936	64.8362
3932	64.7113
3928	64.5565
3924	64.5366
3920	64.5073
3916	64.5815
3912	64.8013
3908	64.9109
3904	65.0259
3900	65.0962
3896	64.9007
3892	64.7678
3888	64.9518
3884	65.1387
3880	65.1101
3876	65.0439
3872	65.0083
3868	64.9512
3864	65.0131
3860	65.1231
3856	65.0929
3852	64.9968
3848	64.8878
3844	64.7828
3840	64.7394
3836	64.8048
3832	64.9883
3828	65.0336
3824	64.8404
3820	64.7253
3816	64.7203
3812	64.7726
3808	64.9873
3804	65.156
3800	65.05
3796	64.8357
3792	64.7272
3788	64.6803
3784	64.7357
3780	64.9523
3776	65.0718
3772	64.9728
3768	64.8465
3764	64.7882
3760	64.7595
3756	64.7459
3752	64.6923
3748	64.6818
3744	64.8183
3740	64.8843
3736	64.8085
3732	64.7539
3728	64.7778
3724	64.8909
3720	65.0297
3716	65.1002
3712	65.0747
3708	65.0436
3704	65.0179
3700	64.8753
3696	64.7719
3692	64.8454
3688	64.9081
3684	64.8999
3680	64.8936
3676	64.8797
3672	64.9216
3668	65.0175
3664	65.0255
3660	65.0061
3656	65.0167
3652	64.968
3648	64.8784
3644	64.8234
3640	64.8595
3636	64.9844
3632	65.0756
3628	65.0261
3624	64.9413
3620	64.978
3616	65.0354
3612	65.0214
3608	64.9926
3604	64.9165
3600	64.8309
3596	64.7997
3592	64.7984
3588	64.833
3584	64.8931
3580	64.9365
3576	64.908
3572	64.7952
3568	64.6788
3564	64.6788
3560	64.7964
3556	64.9145
3552	64.9738
3548	64.9471
3544	64.9435
3540	64.9777
3536	64.8774
3532	64.7574
3528	64.7793
3524	64.8761
3520	64.8711
3516	64.765
3512	64.722
3508	64.69
3504	64.6702
3500	64.7399
3496	64.8235
3492	64.8689
3488	64.8422
3484	64.7982
3480	64.8348
3476	64.8829
3472	64.889
3468	64.8411
3464	64.727
3460	64.6576
3456	64.6871
3452	64.727
3448	64.7586
3444	64.8366
3440	64.9122
3436	64.9773
3432	65.0286
3428	64.9701
3424	64.8774
3420	64.8762
3416	64.9596
3412	65.0275
3408	65.0086
3404	64.9499
3400	64.898
3396	64.8726
3392	64.8132
3388	64.6825
3384	64.6114
3380	64.6595
3376	64.7747
3372	64.9096
3368	64.9405
3364	64.8598
3360	64.8164
3356	64.8841
3352	64.9297
3348	64.7596
3344	64.6254
3340	64.7444
3336	64.8874
3332	64.9231
3328	64.9141
3324	64.9039
3320	64.8799
3316	64.8621
3312	64.8333
3308	64.7818
3304	64.7587
3300	64.7563
3296	64.775
3292	64.8185
3288	64.8539
3284	64.8659
3280	64.8281
3276	64.747
3272	64.7305
3268	64.8248
3264	64.9286
3260	64.9636
3256	64.9671
3252	64.9846
3248	64.9867
3244	64.9098
3240	64.7799
3236	64.7255
3232	64.7564
3228	64.7499
3224	64.7065
3220	64.7006
3216	64.7156
3212	64.7565
3208	64.8457
3204	64.8766
3200	64.8238
3196	64.8271
3192	64.8615
3188	64.831
3184	64.798
3180	64.819
3176	64.856
3172	64.8595
3168	64.8771
3164	64.9179
3160	64.9057
3156	64.869
3152	64.8463
3148	64.7987
3144	64.7566
3140	64.7479
3136	64.7918
3132	64.8784
3128	64.899
3124	64.8245
3120	64.7669
3116	64.8095
3112	64.8305
3108	64.7723
3104	64.7593
3100	64.7865
3096	64.7827
3092	64.768
3088	64.8045
3084	64.8432
3080	64.7957
3076	64.7054
3072	64.6248
3068	64.5739
3064	64.6108
3060	64.7151
3056	64.7626
3052	64.7298
3048	64.692
3044	64.6794
3040	64.6959
3036	64.7505
3032	64.8196
3028	64.8025
3024	64.6958
3020	64.6552
3016	64.7082
3012	64.739
3008	64.7282
3004	64.7273
3000	64.7187
2996	64.696
2992	64.6861
2988	64.6816
2984	64.6963
2980	64.7268
2976	64.73
2972	64.703
2968	64.6552
2964	64.6544
2960	64.6673
2956	64.5874
2952	64.5044
2948	64.4641
2944	64.4347
2940	64.4665
2936	64.5613
2932	64.5469
2928	64.4352
2924	64.4406
2920	64.4701
2916	64.391
2912	64.3018
2908	64.3266
2904	64.4054
2900	64.4519
2896	64.5343
2892	64.6127
2888	64.605
2884	64.582
2880	64.5527
2876	64.5072
2872	64.4809
2868	64.4691
2864	64.5104
2860	64.588
2856	64.6195
2852	64.6084
2848	64.6236
2844	64.6713
2840	64.6628
2836	64.5939
2832	64.5252
2828	64.5001
2824	64.5619
2820	64.6408
2816	64.6306
2812	64.5702
2808	64.5587
2804	64.5825
2800	64.5943
2796	64.5942
2792	64.5624
2788	64.5524
2784	64.6202
2780	64.6757
2776	64.6878
2772	64.699
2768	64.6979
2764	64.6352
2760	64.5563
2756	64.5739
2752	64.6525
2748	64.6751
2744	64.6364
2740	64.6039
2736	64.57
2732	64.5289
2728	64.5248
2724	64.5604
2720	64.6116
2716	64.6288
2712	64.5961
2708	64.5796
2704	64.6129
2700	64.6023
2696	64.5051
2692	64.4162
2688	64.4118
2684	64.4721
2680	64.4841
2676	64.4623
2672	64.5094
2668	64.5391
2664	64.528
2660	64.5333
2656	64.5189
2652	64.4684
2648	64.4304
2644	64.4546
2640	64.497
2636	64.4961
2632	64.4337
2628	64.401
2624	64.4469
2620	64.4779
2616	64.4645
2612	64.4533
2608	64.4339
2604	64.3626
2600	64.3196
2596	64.3216
2592	64.2801
2588	64.2463
2584	64.3089
2580	64.4026
2576	64.4118
2572	64.3975
2568	64.4191
2564	64.4213
2560	64.4329
2556	64.4348
2552	64.3926
2548	64.4089
2544	64.4492
2540	64.4366
2536	64.4335
2532	64.4447
2528	64.4326
2524	64.4283
2520	64.4385
2516	64.4451
2512	64.4293
2508	64.3863
2504	64.3582
2500	64.3477
2496	64.3607
2492	64.4128
2488	64.4358
2484	64.4273
2480	64.4306
2476	64.4282
2472	64.4643
2468	64.5484
2464	64.5648
2460	64.4838
2456	64.4177
2452	64.4028
2448	64.3925
2444	64.4014
2440	64.4004
2436	64.3201
2432	64.241
2428	64.2367
2424	64.249
2420	64.2917
2416	64.3456
2412	64.3371
2408	64.2952
2404	64.2667
2400	64.2859
2396	64.3139
2392	64.2806
2388	64.2294
2384	64.2173
2380	64.2601
2376	64.3325
2372	64.3762
2368	64.3644
2364	64.3257
2360	64.2823
2356	64.237
2352	64.237
2348	64.2898
2344	64.3265
2340	64.3045
2336	64.2885
2332	64.3117
2328	64.3135
2324	64.27
2320	64.2395
2316	64.227
2312	64.1706
2308	64.1437
2304	64.1887
2300	64.2222
2296	64.2231
2292	64.194
2288	64.1774
2284	64.2167
2280	64.231
2276	64.1914
2272	64.1865
2268	64.2299
2264	64.2597
2260	64.2492
2256	64.2126
2252	64.213
2248	64.2595
2244	64.2396
2240	64.1445
2236	64.078
2232	64.0433
2228	64.0443
2224	64.1061
2220	64.1506
2216	64.2023
2212	64.2613
2208	64.238
2204	64.2185
2200	64.2041
2196	64.1477
2192	64.1443
2188	64.1794
2184	64.1672
2180	64.1402
2176	64.1108
2172	64.0293
2168	63.9446
2164	63.9569
2160	64.0579
2156	64.0982
2152	64.0425
2148	64.0691
2144	64.1765
2140	64.1869
2136	64.1181
2132	64.0659
2128	64.0469
2124	64.0171
2120	63.9537
2116	63.9884
2112	64.0885
2108	64.1085
2104	64.1014
2100	64.0784
2096	64.0263
2092	64.0109
2088	64.0359
2084	64.0721
2080	64.0494
2076	63.9402
2072	63.8818
2068	63.9397
2064	63.9906
2060	63.9679
2056	63.9381
2052	63.9602
2048	63.9856
2044	63.9679
2040	63.9415
2036	63.9466
2032	63.9521
2028	63.9386
2024	63.9504
2020	63.9646
2016	63.9669
2012	63.9406
2008	63.8979
2004	63.9043
2000	63.8991
1996	63.8446
1992	63.8004
1988	63.7681
1984	63.7504
1980	63.765
1976	63.8073
1972	63.8478
1968	63.8355
1964	63.8049
1960	63.7867
1956	63.7661
1952	63.7366
1948	63.7467
1944	63.8364
1940	63.9049
1936	63.9114
1932	63.9455
1928	63.9694
1924	63.9192
1920	63.8523
1916	63.8394
1912	63.8831
1908	63.9106
1904	63.8772
1900	63.8184
1896	63.7723
1892	63.7447
1888	63.7618
1884	63.8333
1880	63.896
1876	63.8821
1872	63.8152
1868	63.7921
1864	63.8289
1860	63.8625
1856	63.8776
1852	63.8599
1848	63.7948
1844	63.7245
1840	63.7358
1836	63.7889
1832	63.7882
1828	63.7846
1824	63.8102
1820	63.8227
1816	63.8041
1812	63.7658
1808	63.7395
1804	63.7429
1800	63.7557
1796	63.7455
1792	63.7231
1788	63.7318
1784	63.7706
1780	63.7764
1776	63.7305
1772	63.6663
1768	63.6232
1764	63.6301
1760	63.6676
1756	63.6577
1752	63.5789
1748	63.5037
1744	63.4796
1740	63.447
1736	63.372
1732	63.3325
1728	63.3528
1724	63.3989
1720	63.4466
1716	63.4993
1712	63.5404
1708	63.502
1704	63.4364
1700	63.4504
1696	63.5039
1692	63.5322
1688	63.5547
1684	63.5811
1680	63.5701
1676	63.5297
1672	63.5089
1668	63.4922
1664	63.4571
1660	63.4356
1656	63.4189
1652	63.4063
1648	63.4552
1644	63.5132
1640	63.5235
1636	63.5096
1632	63.4797
1628	63.4115
1624	63.343
1620	63.3576
1616	63.3781
1612	63.3431
1608	63.3338
1604	63.3486
1600	63.3118
1596	63.2926
1592	63.3674
1588	63.3926
1584	63.3232
1580	63.3013
1576	63.3241
1572	63.3351
1568	63.3477
1564	63.366
1560	63.3789
1556	63.3494
1552	63.2886
1548	63.2826
1544	63.2929
1540	63.2478
1536	63.2398
1532	63.2703
1528	63.2546
1524	63.2582
1520	63.3122
1516	63.3366
1512	63.3317
1508	63.3629
1504	63.3883
1500	63.3584
1496	63.3091
1492	63.2727
1488	63.2492
1484	63.2238
1480	63.2079
1476	63.1901
1472	63.1313
1468	63.0505
1464	63.0393
1460	63.1066
1456	63.161
1452	63.1419
1448	63.095
1444	63.0928
1440	63.1246
1436	63.1428
1432	63.1196
1428	63.0756
1424	63.0673
1420	63.1441
1416	63.2257
1412	63.215
1408	63.1744
1404	63.1173
1400	63.0328
1396	63.0473
1392	63.1024
1388	63.0591
1384	63.0202
1380	63.0466
1376	63.0784
1372	63.0841
1368	63.0295
1364	62.9801
1360	63.0044
1356	63.0013
1352	62.9777
1348	63.0215
1344	63.0486
1340	62.9785
1336	62.9172
1332	62.9513
1328	62.9752
1324	62.9558
1320	62.9639
1316	63.0101
1312	63.0456
1308	63.0062
1304	62.93
1300	62.9167
1296	62.9141
1292	62.8647
1288	62.8962
1284	62.9871
1280	62.9582
1276	62.8641
1272	62.8271
1268	62.8148
1264	62.7779
1260	62.7543
1256	62.7683
1252	62.7532
1248	62.7219
1244	62.7384
1240	62.7414
1236	62.7258
1232	62.7218
1228	62.6869
1224	62.7113
1220	62.8324
1216	62.9177
1212	62.9173
1208	62.846
1204	62.7599
1200	62.7519
1196	62.8001
1192	62.7784
1188	62.6945
1184	62.6879
1180	62.7084
1176	62.6473
1172	62.5851
1168	62.6038
1164	62.6575
1160	62.6681
1156	62.6181
1152	62.5742
1148	62.5545
1144	62.5657
1140	62.5988
1136	62.6102
1132	62.6439
1128	62.7177
1124	62.7144
1120	62.6174
1116	62.5683
1112	62.5363
1108	62.4343
1104	62.4016
1100	62.4907
1096	62.5729
1092	62.5763
1088	62.5289
1084	62.5261
1080	62.5612
1076	62.4707
1072	62.3677
1068	62.4182
1064	62.4199
1060	62.3388
1056	62.3368
1052	62.3792
1048	62.4071
1044	62.4053
1040	62.3579
1036	62.3828
1032	62.4747
1028	62.504
1024	62.5106
1020	62.5074
1016	62.5061
1012	62.56
1008	62.6249
1004	62.6397
1000	62.6052
996	 62.5667
992	 62.5288
988	 62.5177
984	 62.6106
980	 62.6467
976	 62.5066
972	 62.3984
968	 62.3785
964	 62.3694
960	 62.3555
956	 62.3426
952	 62.4137
948	 62.5634
944	 62.625
940	 62.499
936	 62.3208
932	 62.3185
928	 62.4438
924	 62.5075
920	 62.5649
916	 62.5533
912	 62.3645
908	 62.2375
904	 62.2838
900	 62.3219
896	 62.3209
892	 62.3532
888	 62.304
884	 62.1035
880	 61.9563
876	 62.104
872	 62.3582
868	 62.4355
864	 62.3979
860	 62.3592
856	 62.4144
852	 62.4623
848	 62.4305
844	 62.4051
840	 62.3223
836	 62.2248
832	 62.2555
828	 62.4289
824	 62.5387
820	 62.4728
816	 62.3481
812	 62.2641
808	 62.2843
804	 62.3096
800	 62.3192
796	 62.3235
792	 62.2502
788	 62.1992
784	 62.2423
780	 62.2056
776	 62.0497
772	 61.9628
768	 61.9649
764	 61.9898
760	 62.0692
756	 62.0641
752	 61.9213
748	 61.8864
744	 61.9358
740	 61.9851
736	 62.0976
732	 62.149
728	 62.0834
724	 61.949
720	 61.8282
716	 61.8258
712	 61.9009
708	 61.9763
704	 61.9555
700	 61.7226
696	 61.5587
692	 61.7224
688	 61.8247
684	 61.8093
680	 61.996
676	 62.0849
672	 61.9541
668	 61.7476
664	 61.546
660	 61.5727
656	 61.5764
652	 61.4766
648	 61.5193
644	 61.5044
640	 61.3264
636	 61.2638
632	 61.2352
628	 61.2507
624	 61.5207
620	 61.8949
616	 62.212
612	 62.2917
608	 62.0209
604	 61.4913
600	 61.4685
596	 62.1724
592	 62.3326
588	 61.5501
584	 60.5803
580	 59.7968
576	 59.8195
572	 60.3597
568	 60.5022
564	 61.1671
560	 62.2254
556	 62.1489
552	 61.7263
548	 61.9779
544	 62.358
540	 62.5466
536	 62.1888
532	 61.1328
528	 60.405
524	 60.6128
520	 61.131
516	 60.9772
512	 60.7441
508	 60.8723
504	 60.68
500	 60.7547
496	 61.5043
492	 62.0105
488	 61.646
484	 60.973
480	 60.9374
476	 61.3231
472	 61.3054
468	 61.1179
464	 61.31
460	 61.2425
456	 60.5285
452	 60.2902
448	 60.617
444	 60.2118
440	 59.5599
436	 59.656
432	 60.2231
428	 61.1885
424	 61.6541
420	 61.0928
416	 60.0759
412	 59.6633
408	 61.0696
404	 61.8992
400	 59.2037
396	 57.4541
392	 60.0382
388	 64.6707
384	 69.5316
380	 64.6862
376	 50.1185
372	 45.2777
370	 48.5996