File: Bakgrunnsmateriale/MATLAB/FTIR/ftir_data/subAa/Mapping_121/BZ1503107-1_t32_cm-1.asc
PE IR       SPECTRUM    SPECTRUM    ASCII       PEDS        1.60
  -1
BZ6AA0~1.ASC
17/04/07
15:51:25.00
17/04/07
15:51:25.00
tln
$BZ1503107-1_t0032$<tbV0>[-10.4,-7.8,8.0,0.0,27,1,0]
370
64

2002,4.07
MIRTGS : RIGHTBACK : INTERNAL 2
MIR : ON : INTERNAL 2
OPTKBR

0.200000
8
8.000000
FILLER
RATIO
SPECTRUM
UNLOCKED 256

DOUBLE
64
COMBINED
1
0
0

1.000000
RATIO

1
0
TRUE
51149
0
LEFT NOT FITTED RIGHT NOT FITTED 0
NONE
NONE
15600
12
4.427000
51148
TRUE
1 0 8 72 0 0 0 0

15798

#HDR
-1
-1
#GR
CM-1
%T
2.38419e-05
0.0
5000
-1.000000
4631
8
74.5331
43.6573
#DATA
5000	64.1541
4996	63.591
4992	63.1425
4988	63.3051
4984	63.5581
4980	63.435
4976	63.4282
4972	63.4168
4968	63.1554
4964	63.2425
4960	63.6586
4956	63.8327
4952	63.7362
4948	63.4747
4944	63.2975
4940	63.3626
4936	63.2859
4932	63.2792
4928	63.517
4924	63.4626
4920	63.0639
4916	62.905
4912	63.1532
4908	63.4379
4904	63.5321
4900	63.6065
4896	63.7201
4892	63.5733
4888	63.2518
4884	63.0799
4880	63.1543
4876	63.3551
4872	63.369
4868	63.3401
4864	63.6711
4860	64.0159
4856	63.9271
4852	63.6205
4848	63.5379
4844	63.6878
4840	63.8087
4836	63.8289
4832	63.7627
4828	63.736
4824	63.6582
4820	63.4307
4816	63.3586
4812	63.4384
4808	63.387
4804	63.2568
4800	63.1968
4796	63.1669
4792	63.1675
4788	63.2528
4784	63.3138
4780	63.3354
4776	63.5622
4772	63.7976
4768	63.6704
4764	63.5035
4760	63.5815
4756	63.8505
4752	64.038
4748	63.8933
4744	63.6751
4740	63.6783
4736	63.8345
4732	63.8659
4728	63.8267
4724	63.8239
4720	63.7585
4716	63.8136
4712	64.0445
4708	64.0635
4704	63.8084
4700	63.7222
4696	63.7897
4692	63.7915
4688	63.7262
4684	63.5696
4680	63.4387
4676	63.3978
4672	63.3311
4668	63.2215
4664	63.1968
4660	63.2942
4656	63.4449
4652	63.5529
4648	63.6817
4644	63.6494
4640	63.4033
4636	63.453
4632	63.6061
4628	63.4649
4624	63.4182
4620	63.6469
4616	63.7493
4612	63.6497
4608	63.6401
4604	63.6065
4600	63.5058
4596	63.6734
4592	63.9737
4588	63.9895
4584	63.8067
4580	63.7152
4576	63.6552
4572	63.5136
4568	63.3398
4564	63.3553
4560	63.601
4556	63.6395
4552	63.4441
4548	63.4054
4544	63.5201
4540	63.6373
4536	63.6804
4532	63.7581
4528	63.942
4524	63.9584
4520	63.925
4516	64.0215
4512	64.082
4508	63.973
4504	63.7283
4500	63.5087
4496	63.4318
4492	63.4585
4488	63.6266
4484	63.9937
4480	64.2273
4476	64.1624
4472	63.973
4468	63.922
4464	64.0768
4460	64.3584
4456	64.646
4452	64.6024
4448	64.3728
4444	64.279
4440	65.386
4436	66.8815
4432	69.3329
4428	74.0378
4424	71.9889
4420	62.5127
4416	52.8359
4412	44.4002
4408	47.1095
4404	58.913
4400	64.6962
4396	64.3939
4392	63.7085
4388	63.0915
4384	63.2904
4380	63.8211
4376	63.7832
4372	63.7795
4368	64.0499
4364	64.1839
4360	64.2354
4356	64.2028
4352	63.8863
4348	63.5633
4344	63.6123
4340	63.9436
4336	64.2646
4332	64.3557
4328	64.1503
4324	63.9082
4320	63.8857
4316	63.9759
4312	64.0282
4308	64.062
4304	64.1661
4300	64.2331
4296	64.1855
4292	64.0539
4288	63.8648
4284	63.8013
4280	63.7497
4276	63.6513
4272	63.7588
4268	63.8615
4264	63.8367
4260	63.8472
4256	63.8091
4252	63.7477
4248	63.7024
4244	63.7148
4240	63.8423
4236	63.8836
4232	63.823
4228	63.811
4224	63.8119
4220	63.8195
4216	63.7911
4212	63.6577
4208	63.5972
4204	63.6465
4200	63.6769
4196	63.7417
4192	63.8037
4188	63.7669
4184	63.739
4180	63.753
4176	63.7016
4172	63.6992
4168	63.8493
4164	63.9285
4160	63.8631
4156	63.8664
4152	63.9082
4148	63.93
4144	63.9876
4140	63.9107
4136	63.7048
4132	63.6642
4128	63.827
4124	63.907
4120	63.8482
4116	63.8843
4112	63.9873
4108	63.9795
4104	63.8798
4100	63.8309
4096	63.865
4092	63.8298
4088	63.7784
4084	63.749
4080	63.6651
4076	63.6528
4072	63.7418
4068	63.8308
4064	63.817
4060	63.7884
4056	63.9065
4052	64.0064
4048	63.9909
4044	63.9253
4040	63.8827
4036	63.867
4032	63.8074
4028	63.8579
4024	63.9357
4020	63.8832
4016	63.8289
4012	63.8232
4008	63.8872
4004	63.9397
4000	63.9774
3996	64.03
3992	63.9854
3988	63.9138
3984	63.8766
3980	63.8979
3976	63.9969
3972	64.0311
3968	63.9705
3964	63.9679
3960	63.9855
3956	63.935
3952	63.8932
3948	63.8982
3944	63.9251
3940	63.9361
3936	63.9331
3932	63.9474
3928	64.0411
3924	64.1068
3920	64.0406
3916	64.0112
3912	64.0865
3908	64.1508
3904	64.16
3900	64.1592
3896	64.1504
3892	64.0512
3888	63.882
3884	63.7636
3880	63.7617
3876	63.858
3872	63.9498
3868	64.0371
3864	64.0653
3860	64.0482
3856	64.1377
3852	64.2039
3848	64.1425
3844	64.0845
3840	64.049
3836	63.9797
3832	63.9506
3828	63.9647
3824	63.9781
3820	64.0048
3816	64.023
3812	64.0699
3808	64.2196
3804	64.3391
3800	64.2765
3796	64.1494
3792	64.1129
3788	64.0903
3784	63.967
3780	63.9012
3776	63.9533
3772	64.0125
3768	64.1222
3764	64.3288
3760	64.421
3756	64.2581
3752	64.0726
3748	64.0357
3744	64.1113
3740	64.1925
3736	64.1998
3732	64.2018
3728	64.1545
3724	64.0356
3720	63.9953
3716	64.0288
3712	64.1202
3708	64.2025
3704	64.085
3700	63.9807
3696	64.0235
3692	63.9472
3688	63.8625
3684	63.9536
3680	64.0837
3676	64.1105
3672	64.0513
3668	64.1087
3664	64.1897
3660	64.132
3656	64.1411
3652	64.218
3648	64.1765
3644	64.0836
3640	64.0476
3636	64.0863
3632	64.1196
3628	64.098
3624	64.1479
3620	64.2107
3616	64.1838
3612	64.1979
3608	64.2527
3604	64.2431
3600	64.1789
3596	64.1518
3592	64.2072
3588	64.2173
3584	64.1102
3580	63.9908
3576	63.932
3572	63.9606
3568	64.0617
3564	64.1393
3560	64.1602
3556	64.1155
3552	64.0603
3548	64.111
3544	64.1479
3540	64.0273
3536	63.9387
3532	64.0213
3528	64.1144
3524	64.1395
3520	64.1172
3516	64.0287
3512	63.9818
3508	64.0521
3504	64.1104
3500	64.1022
3496	64.0894
3492	64.0959
3488	64.0801
3484	63.9945
3480	63.9785
3476	64.1252
3472	64.1992
3468	64.1273
3464	64.0776
3460	64.0918
3456	64.0919
3452	64.0538
3448	64.079
3444	64.1198
3440	64.0772
3436	64.0695
3432	64.1234
3428	64.15
3424	64.2406
3420	64.3376
3416	64.228
3412	64.0987
3408	64.1788
3404	64.2999
3400	64.3023
3396	64.2555
3392	64.2215
3388	64.2514
3384	64.297
3380	64.2194
3376	64.1619
3372	64.2138
3368	64.2282
3364	64.2009
3360	64.1909
3356	64.1886
3352	64.1244
3348	64.0074
3344	63.9833
3340	64.0342
3336	64.0335
3332	64.0496
3328	64.0954
3324	64.0889
3320	64.0684
3316	64.038
3312	64.0125
3308	64.0484
3304	64.0667
3300	64.0283
3296	64.015
3292	63.9978
3288	63.9807
3284	64.0128
3280	63.9997
3276	63.9879
3272	64.0551
3268	64.1492
3264	64.187
3260	64.0911
3256	63.9886
3252	64.0366
3248	64.1197
3244	64.1214
3240	64.0708
3236	64.0037
3232	64.0027
3228	64.051
3224	64.0573
3220	63.9791
3216	63.8827
3212	63.9236
3208	64.0711
3204	64.1567
3200	64.1291
3196	64.0095
3192	63.9086
3188	63.9121
3184	63.9266
3180	63.9801
3176	64.1032
3172	64.168
3168	64.1476
3164	64.1202
3160	64.1776
3156	64.2328
3152	64.1329
3148	63.9928
3144	63.9437
3140	63.9223
3136	63.8899
3132	63.9384
3128	64.0186
3124	64.0486
3120	64.083
3116	64.0962
3112	64.1159
3108	64.1447
3104	64.1458
3100	64.1864
3096	64.1953
3092	64.0784
3088	63.9807
3084	64.0474
3080	64.1882
3076	64.2117
3072	64.1512
3068	64.2046
3064	64.3059
3060	64.2972
3056	64.2188
3052	64.1273
3048	64.0563
3044	64.0419
3040	64.0838
3036	64.1062
3032	64.0635
3028	64.0596
3024	64.0706
3020	64.0317
3016	64.0131
3012	64.0069
3008	64.0307
3004	64.0886
3000	64.0859
2996	64.0492
2992	64.1019
2988	64.2148
2984	64.2752
2980	64.1975
2976	64.0361
2972	63.9637
2968	63.9423
2964	63.9039
2960	63.9549
2956	64.0402
2952	64.0206
2948	63.9791
2944	64.0219
2940	64.1105
2936	64.1002
2932	64.0177
2928	64.0449
2924	64.0937
2920	64.0852
2916	64.094
2912	64.1029
2908	64.1037
2904	64.137
2900	64.1534
2896	64.1382
2892	64.1778
2888	64.2265
2884	64.1692
2880	64.0628
2876	64.0272
2872	64.0693
2868	64.1049
2864	64.1155
2860	64.1372
2856	64.1395
2852	64.1091
2848	64.0937
2844	64.1187
2840	64.1393
2836	64.1548
2832	64.2136
2828	64.2608
2824	64.2471
2820	64.189
2816	64.1517
2812	64.1689
2808	64.205
2804	64.2493
2800	64.296
2796	64.3446
2792	64.3584
2788	64.3102
2784	64.2212
2780	64.1681
2776	64.2093
2772	64.2635
2768	64.2529
2764	64.195
2760	64.1487
2756	64.153
2752	64.1772
2748	64.2108
2744	64.2473
2740	64.2117
2736	64.1049
2732	64.0639
2728	64.1525
2724	64.2456
2720	64.2561
2716	64.2226
2712	64.1328
2708	64.0606
2704	64.1497
2700	64.2534
2696	64.2317
2692	64.1823
2688	64.1937
2684	64.2586
2680	64.2819
2676	64.2289
2672	64.1231
2668	64.0426
2664	64.0626
2660	64.1058
2656	64.0956
2652	64.1091
2648	64.2187
2644	64.2877
2640	64.2809
2636	64.2926
2632	64.2632
2628	64.2074
2624	64.1713
2620	64.1466
2616	64.1606
2612	64.1818
2608	64.1829
2604	64.2057
2600	64.2386
2596	64.2138
2592	64.175
2588	64.1626
2584	64.1384
2580	64.0998
2576	64.0694
2572	64.086
2568	64.164
2564	64.262
2560	64.2812
2556	64.2029
2552	64.1357
2548	64.1071
2544	64.109
2540	64.1626
2536	64.2345
2532	64.3012
2528	64.3381
2524	64.278
2520	64.1767
2516	64.1732
2512	64.2627
2508	64.2902
2504	64.2023
2500	64.1627
2496	64.2267
2492	64.3038
2488	64.3291
2484	64.2562
2480	64.1652
2476	64.1448
2472	64.1357
2468	64.1194
2464	64.151
2460	64.1621
2456	64.1325
2452	64.1617
2448	64.1845
2444	64.1581
2440	64.1506
2436	64.1227
2432	64.0989
2428	64.1373
2424	64.217
2420	64.3016
2416	64.3178
2412	64.2303
2408	64.1503
2404	64.1617
2400	64.1939
2396	64.2401
2392	64.2776
2388	64.2387
2384	64.1554
2380	64.1228
2376	64.1729
2372	64.1943
2368	64.1534
2364	64.1572
2360	64.2434
2356	64.2941
2352	64.2483
2348	64.2328
2344	64.2594
2340	64.2335
2336	64.1976
2332	64.1959
2328	64.1864
2324	64.1571
2320	64.1693
2316	64.2032
2312	64.2168
2308	64.254
2304	64.2747
2300	64.2181
2296	64.1404
2292	64.1133
2288	64.1061
2284	64.0865
2280	64.098
2276	64.1196
2272	64.1283
2268	64.1244
2264	64.1111
2260	64.1314
2256	64.1604
2252	64.1611
2248	64.1469
2244	64.1304
2240	64.1188
2236	64.1367
2232	64.2023
2228	64.2442
2224	64.2249
2220	64.2048
2216	64.1937
2212	64.1932
2208	64.1927
2204	64.1947
2200	64.2187
2196	64.2162
2192	64.1845
2188	64.1634
2184	64.1775
2180	64.1927
2176	64.1689
2172	64.1602
2168	64.1474
2164	64.1207
2160	64.1894
2156	64.2541
2152	64.2041
2148	64.1338
2144	64.0873
2140	64.0988
2136	64.1958
2132	64.271
2128	64.2241
2124	64.1674
2120	64.2083
2116	64.2839
2112	64.3066
2108	64.2442
2104	64.149
2100	64.1465
2096	64.2165
2092	64.17
2088	64.0752
2084	64.0791
2080	64.1566
2076	64.2299
2072	64.2247
2068	64.1945
2064	64.1981
2060	64.2159
2056	64.2177
2052	64.1446
2048	64.0384
2044	63.9966
2040	64.0151
2036	64.048
2032	64.0836
2028	64.1598
2024	64.2462
2020	64.2404
2016	64.1458
2012	64.0734
2008	64.0971
2004	64.1653
2000	64.1651
1996	64.1253
1992	64.1288
1988	64.1093
1984	64.0779
1980	64.0996
1976	64.1168
1972	64.1449
1968	64.1966
1964	64.1962
1960	64.1791
1956	64.1984
1952	64.1915
1948	64.1308
1944	64.0931
1940	64.1037
1936	64.103
1932	64.0776
1928	64.0879
1924	64.1138
1920	64.0872
1916	64.0599
1912	64.095
1908	64.1344
1904	64.0948
1900	64.0183
1896	63.9965
1892	64.0669
1888	64.1622
1884	64.1969
1880	64.1883
1876	64.1916
1872	64.2377
1868	64.2636
1864	64.1941
1860	64.1181
1856	64.1251
1852	64.1396
1848	64.1073
1844	64.0985
1840	64.1495
1836	64.1965
1832	64.1799
1828	64.1618
1824	64.1561
1820	64.1087
1816	64.0811
1812	64.0955
1808	64.129
1804	64.1791
1800	64.1846
1796	64.1258
1792	64.0693
1788	64.0597
1784	64.0742
1780	64.0832
1776	64.0736
1772	64.0643
1768	64.0585
1764	64.0109
1760	63.9655
1756	64.0027
1752	64.0304
1748	63.9407
1744	63.8051
1740	63.6923
1736	63.6156
1732	63.6063
1728	63.6687
1724	63.7738
1720	63.8545
1716	63.8973
1712	63.9465
1708	63.9956
1704	64.0519
1700	64.0925
1696	64.0755
1692	64.0965
1688	64.1849
1684	64.1963
1680	64.1091
1676	64.051
1672	64.0714
1668	64.0937
1664	64.0655
1660	63.9915
1656	63.9181
1652	63.905
1648	63.8841
1644	63.8723
1640	63.9474
1636	64.0011
1632	63.9612
1628	63.9036
1624	63.9132
1620	63.9543
1616	63.9606
1612	63.9636
1608	64.0109
1604	64.0548
1600	64.0121
1596	63.951
1592	63.9305
1588	63.9093
1584	63.8944
1580	63.9004
1576	63.876
1572	63.8879
1568	64.0218
1564	64.1248
1560	64.0659
1556	63.9533
1552	63.9152
1548	63.9296
1544	63.9228
1540	63.9015
1536	63.9292
1532	63.9794
1528	63.9551
1524	63.892
1520	63.9107
1516	63.9766
1512	64.0121
1508	64.0339
1504	64.0507
1500	64.0402
1496	63.9862
1492	63.981
1488	64.0264
1484	64.0098
1480	63.9746
1476	63.9314
1472	63.901
1468	63.9522
1464	63.9287
1460	63.7817
1456	63.7423
1452	63.8404
1448	63.9122
1444	63.9489
1440	64.0042
1436	64.0212
1432	63.9668
1428	63.907
1424	63.8792
1420	63.8797
1416	63.9094
1412	63.9261
1408	63.9017
1404	63.8368
1400	63.7896
1396	63.8355
1392	63.894
1388	63.9158
1384	63.9021
1380	63.8572
1376	63.8767
1372	63.9325
1368	63.9159
1364	63.848
1360	63.8638
1356	63.9366
1352	63.8942
1348	63.8158
1344	63.8506
1340	63.9873
1336	64.1016
1332	64.0634
1328	63.9591
1324	63.893
1320	63.8395
1316	63.8551
1312	63.8796
1308	63.8389
1304	63.8223
1300	63.8129
1296	63.8127
1292	63.8214
1288	63.7954
1284	63.7839
1280	63.7725
1276	63.7486
1272	63.7638
1268	63.7957
1264	63.8003
1260	63.7652
1256	63.7218
1252	63.7558
1248	63.8065
1244	63.7865
1240	63.7672
1236	63.7691
1232	63.7572
1228	63.7704
1224	63.8021
1220	63.7863
1216	63.7578
1212	63.7542
1208	63.7436
1204	63.7539
1200	63.7872
1196	63.7995
1192	63.7772
1188	63.7593
1184	63.7665
1180	63.7637
1176	63.7187
1172	63.6729
1168	63.6779
1164	63.7101
1160	63.7286
1156	63.7059
1152	63.6864
1148	63.6964
1144	63.7308
1140	63.7664
1136	63.7813
1132	63.7833
1128	63.7483
1124	63.6889
1120	63.7056
1116	63.7943
1112	63.7915
1108	63.7502
1104	63.7649
1100	63.7239
1096	63.6911
1092	63.7384
1088	63.7685
1084	63.7124
1080	63.6865
1076	63.8026
1072	63.9111
1068	63.8793
1064	63.7167
1060	63.6304
1056	63.7591
1052	63.897
1048	63.846
1044	63.7282
1040	63.7504
1036	63.8495
1032	63.9331
1028	64.0008
1024	63.9554
1020	63.7883
1016	63.6618
1012	63.6819
1008	63.8291
1004	63.9776
1000	63.9991
996	 63.9272
992	 63.892
988	 63.8564
984	 63.816
980	 63.8608
976	 63.8597
972	 63.7582
968	 63.6574
964	 63.6414
960	 63.7072
956	 63.7503
952	 63.7586
948	 63.7629
944	 63.7348
940	 63.7178
936	 63.7623
932	 63.7482
928	 63.7215
924	 63.8616
920	 64.0048
916	 63.9072
912	 63.7989
908	 63.8837
904	 63.8795
900	 63.7981
896	 63.8836
892	 63.9778
888	 63.9383
884	 63.9505
880	 64.1218
876	 64.1728
872	 63.9552
868	 63.857
864	 64.0007
860	 64.0934
856	 64.0228
852	 63.8526
848	 63.7599
844	 63.8405
840	 63.9504
836	 63.981
832	 63.968
828	 63.9776
824	 63.9498
820	 63.7866
816	 63.6478
812	 63.7021
808	 63.8956
804	 64.025
800	 63.9954
796	 64.0458
792	 64.0854
788	 63.8964
784	 63.7914
780	 63.8109
776	 63.8271
772	 63.958
768	 64.0154
764	 63.838
760	 63.6816
756	 63.6284
752	 63.5307
748	 63.516
744	 63.4778
740	 63.3002
736	 63.5775
732	 64.2731
728	 64.4817
724	 64.1751
720	 63.987
716	 63.8675
712	 63.6027
708	 63.4144
704	 63.4377
700	 63.5437
696	 63.6721
692	 63.998
688	 64.1499
684	 63.6489
680	 63.0293
676	 62.9576
672	 63.1636
668	 63.366
664	 63.7366
660	 63.9843
656	 64.0701
652	 63.9514
648	 63.5609
644	 63.4822
640	 63.5992
636	 63.4413
632	 63.3409
628	 63.5021
624	 63.7313
620	 63.8159
616	 63.6326
612	 63.527
608	 63.6237
604	 63.8624
600	 64.2608
596	 64.4117
592	 64.1477
588	 63.9354
584	 64.039
580	 64.2204
576	 64.2843
572	 64.1549
568	 63.914
564	 63.9534
560	 64.2508
556	 64.5335
552	 64.5597
548	 63.9643
544	 63.4037
540	 63.3621
536	 63.3622
532	 63.4057
528	 63.6598
524	 63.6988
520	 63.5067
516	 63.4908
512	 63.5576
508	 63.5416
504	 63.5488
500	 63.6474
496	 63.6223
492	 63.6477
488	 63.7757
484	 64.0878
480	 64.6175
476	 64.4276
472	 63.6153
468	 63.0223
464	 62.9421
460	 63.1791
456	 63.3589
452	 63.5366
448	 63.5661
444	 62.8028
440	 61.6274
436	 61.8773
432	 63.6421
428	 64.4962
424	 63.2586
420	 62.0008
416	 62.4156
412	 61.9547
408	 59.8036
404	 59.161
400	 59.5083
396	 55.709
392	 52.3837
388	 58.0088
384	 58.9249
380	 50.9577
376	 48.175
372	 55.8338
370	 64.721