File: Bakgrunnsmateriale/MATLAB/FTIR/ftir_data/subAa/Mapping_121/BZ1503107-1_t65.asc
PE IR       SPECTRUM    SPECTRUM    ASCII       PEDS        1.60
  -1
BZ2D51~1.ASC
17/04/07
18:32:04.00
17/04/07
18:32:30.00
tln
$BZ1503107-1_t0065$<tbV0>[-10.4,0.0,8.0,0.0,27,1,0]
27.028
64

2002,4.07
MIRTGS : RIGHTBACK : INTERNAL 2
MIR : ON : INTERNAL 2
OPTKBR

0.200000
8
8.000000
FILLER
RATIO
SPECTRUM
UNLOCKED 256

DOUBLE
64
COMBINED
1
0
0

0.002000
RATIO

1
0
TRUE
51149
0
LEFT NOT FITTED RIGHT NOT FITTED 0
NONE
NONE
15600
12
4.427000
51148
TRUE
1 0 8 72 0 0 0 0

15798

#HDR
-1
-1
#GR
µM
%T
2.38419e-05
0.0
2.000000
0.002000
12515
8
69.276
37.853
#DATA
2.000000	 64.3493
2.018000	 64.5802
2.036000	 64.8313
2.054000	 64.4922
2.072000	 64.3315
2.090000	 64.5026
2.108000	 64.7634
2.126000	 64.8444
2.144000	 65.0814
2.162000	 65.3914
2.180000	 65.1287
2.198000	 64.8778
2.216000	 65.0807
2.234000	 64.759
2.252000	 63.9801
2.270000	 67.9385
2.288000	 65.1214
2.306000	 64.8587
2.324000	 65.0607
2.342000	 65.0798
2.360000	 65.0704
2.378000	 65.1917
2.396000	 64.4995
2.414000	 64.868
2.432000	 64.9946
2.450000	 64.9404
2.468000	 64.8298
2.486000	 64.8329
2.504000	 65.0932
2.522000	 65.0305
2.540000	 64.9167
2.558000	 65.1585
2.576000	 65.2213
2.594000	 65.372
2.612000	 65.0512
2.630000	 64.9212
2.648000	 65.0763
2.666000	 65.2858
2.684000	 65.1702
2.702000	 65.1321
2.720000	 64.9945
2.738000	 65.051
2.756000	 65.0675
2.774000	 65.1192
2.792000	 64.9502
2.810000	 65.1161
2.828000	 65.0988
2.846000	 65.0624
2.864000	 65.2054
2.882000	 65.0909
2.900000	 65.147
2.918000	 64.8729
2.936000	 64.9968
2.954000	 64.9851
2.972000	 65.0846
2.990000	 65.1001
3.008000	 65.2469
3.026000	 65.0841
3.044000	 65.0287
3.062000	 64.8551
3.080000	 64.9827
3.098000	 65.0306
3.116000	 65.0592
3.134000	 65.0431
3.152000	 64.9915
3.170000	 65.0405
3.188000	 64.9371
3.206000	 65.0557
3.224000	 65.1015
3.242000	 64.961
3.260000	 65.0186
3.278000	 65.0214
3.296000	 65.1268
3.314000	 64.8915
3.332000	 65.0648
3.350000	 64.9681
3.368000	 64.7036
3.386000	 64.8793
3.404000	 65.0209
3.422000	 64.9725
3.440000	 64.9575
3.458000	 64.8563
3.476000	 64.8069
3.494000	 64.9673
3.512000	 65.0177
3.530000	 64.9066
3.548000	 64.9146
3.566000	 64.9589
3.584000	 64.9186
3.602000	 64.9264
3.620000	 64.8515
3.638000	 64.861
3.656000	 64.8519
3.674000	 64.9507
3.692000	 64.9685
3.710000	 64.9732
3.728000	 64.9681
3.746000	 64.9135
3.764000	 64.9032
3.782000	 64.9181
3.800000	 64.9259
3.818000	 64.763
3.836000	 64.8198
3.854000	 64.9439
3.872000	 64.8912
3.890000	 64.8529
3.908000	 64.8059
3.926000	 64.8149
3.944000	 64.7456
3.962000	 64.9425
3.980000	 64.9981
3.998000	 64.8088
4.016000	 64.8792
4.034000	 64.8449
4.052000	 64.6847
4.070000	 64.8462
4.088000	 64.7892
4.106000	 64.8422
4.124000	 64.7442
4.141999	 64.8676
4.160000	 64.8663
4.178000	 64.8342
4.196000	 64.8458
4.214000	 64.7459
4.232000	 64.8105
4.250000	 64.7352
4.268000	 64.6903
4.286000	 64.7306
4.304000	 64.8179
4.322000	 64.7075
4.340000	 64.6486
4.358000	 64.691
4.375999	 64.7064
4.394000	 64.6059
4.412000	 64.654
4.430000	 64.7461
4.448000	 64.7196
4.466000	 64.618
4.484000	 64.6676
4.502000	 64.6456
4.520000	 64.6896
4.538000	 64.7514
4.556000	 64.7234
4.574000	 64.7274
4.592000	 64.6403
4.609999	 64.455
4.628000	 64.5907
4.646000	 64.6221
4.664000	 64.6281
4.682000	 64.7074
4.700000	 64.7976
4.718000	 64.665
4.736000	 64.549
4.754000	 64.587
4.772000	 64.6337
4.790000	 64.5453
4.808000	 64.5384
4.826000	 64.5078
4.843999	 64.5812
4.862000	 64.3645
4.880000	 64.4165
4.898000	 64.6009
4.916000	 64.6012
4.934000	 64.5459
4.952000	 64.5683
4.970000	 64.612
4.988000	 64.5856
5.006000	 64.5536
5.024000	 64.5667
5.042000	 64.6051
5.060000	 64.5119
5.077999	 64.5272
5.096000	 64.5134
5.114000	 64.3888
5.132000	 64.4218
5.150000	 64.5371
5.168000	 64.5953
5.186000	 64.5114
5.204000	 64.5543
5.222000	 64.5992
5.240000	 64.5238
5.258000	 64.407
5.276000	 64.4186
5.294000	 64.4815
5.312000	 64.4569
5.330000	 64.4432
5.348000	 64.5232
5.366000	 64.4515
5.384000	 64.534
5.402000	 64.5348
5.420000	 64.4031
5.438000	 64.4575
5.456000	 64.5081
5.474000	 64.4036
5.492000	 64.3647
5.510000	 64.425
5.528000	 64.428
5.546000	 64.361
5.564000	 64.4117
5.582000	 64.4304
5.600000	 64.4016
5.618000	 64.4007
5.636000	 64.463
5.654000	 64.4791
5.672000	 64.368
5.690000	 64.2608
5.708000	 64.3152
5.726000	 64.3014
5.744000	 64.1825
5.762000	 64.1518
5.780000	 64.1501
5.798000	 64.13
5.816000	 64.2206
5.834000	 64.2716
5.852000	 64.261
5.870000	 64.2363
5.888000	 64.1824
5.906000	 64.2147
5.923999	 64.2145
5.942000	 64.2403
5.960000	 64.2065
5.978000	 64.1177
5.996000	 64.1584
6.014000	 64.2479
6.032000	 64.1789
6.050000	 64.1337
6.068000	 64.2375
6.086000	 64.3064
6.104000	 64.2165
6.122000	 64.1733
6.140000	 64.1825
6.158000	 64.1576
6.176000	 64.1127
6.194000	 64.1498
6.212000	 64.1787
6.230000	 64.195
6.248000	 64.2721
6.266000	 64.2753
6.284000	 64.208
6.302000	 64.1894
6.320000	 64.1852
6.338000	 64.0443
6.356000	 63.9268
6.374000	 64.0039
6.392000	 64.0804
6.410000	 64.1338
6.428000	 64.1503
6.446000	 64.0481
6.464000	 63.995
6.482000	 64.0506
6.500000	 64.1045
6.518000	 64.1294
6.536000	 64.1284
6.554000	 64.1163
6.572000	 64.1074
6.590000	 64.1284
6.608000	 64.1341
6.626000	 64.0896
6.644000	 64.0858
6.662000	 64.1216
6.680000	 64.1463
6.698000	 64.1815
6.716000	 64.1528
6.734000	 64.1295
6.752000	 64.1739
6.770000	 64.1831
6.788000	 64.1382
6.806000	 64.0642
6.824000	 63.9834
6.842000	 63.9717
6.860000	 64.006
6.878000	 63.9993
6.896000	 63.9563
6.914000	 63.9553
6.932000	 64.003
6.950000	 63.992
6.968000	 63.9386
6.986000	 63.9464
7.004000	 63.9973
7.022000	 64.0768
7.040000	 64.167
7.058000	 64.173
7.076000	 64.092
7.094000	 64.0332
7.112000	 64.0308
7.130000	 64.0296
7.148000	 64.0104
7.166000	 63.995
7.184000	 63.9872
7.202000	 63.9869
7.220000	 64.0035
7.238000	 64.0117
7.256000	 63.9547
7.274000	 63.8743
7.292000	 63.8694
7.310000	 63.9069
7.328000	 63.9193
7.346000	 63.953
7.364000	 64.0255
7.382000	 64.0484
7.400000	 63.9743
7.418000	 63.8754
7.436000	 63.8542
7.454000	 63.9048
7.472000	 63.9337
7.490000	 63.9069
7.508000	 63.8673
7.526000	 63.8563
7.544000	 63.889
7.562000	 63.9295
7.580000	 63.9156
7.598000	 63.8564
7.616000	 63.8204
7.634000	 63.8373
7.652000	 63.8762
7.670000	 63.9008
7.688000	 63.9034
7.706000	 63.8958
7.724000	 63.8889
7.742000	 63.8942
7.760000	 63.9246
7.778000	 63.9651
7.796000	 63.9702
7.814000	 63.9214
7.832000	 63.8541
7.850000	 63.8143
7.868000	 63.825
7.886000	 63.8744
7.904000	 63.9099
7.922000	 63.8884
7.940000	 63.8359
7.958000	 63.8041
7.976000	 63.7951
7.994000	 63.7852
8.012000	 63.7829
8.030000	 63.8021
8.048000	 63.8206
8.065999	 63.8125
8.084000	 63.7861
8.102000	 63.7647
8.120000	 63.7531
8.138000	 63.7458
8.155999	 63.7524
8.173999	 63.7892
8.192000	 63.8416
8.210000	 63.8636
8.228000	 63.8382
8.246000	 63.8102
8.263999	 63.8269
8.282000	 63.875
8.300000	 63.9025
8.318000	 63.8838
8.336000	 63.8328
8.353999	 63.7726
8.372000	 63.7215
8.390000	 63.6952
8.408000	 63.7046
8.426000	 63.7385
8.443999	 63.7636
8.462000	 63.7489
8.480000	 63.6955
8.498000	 63.6321
8.516000	 63.5868
8.533999	 63.5685
8.552000	 63.5684
8.570000	 63.5706
8.588000	 63.5612
8.606000	 63.5418
8.624000	 63.5315
8.641999	 63.5487
8.660000	 63.588
8.678000	 63.6225
8.696000	 63.6288
8.714000	 63.6102
8.731999	 63.5938
8.750000	 63.6028
8.768000	 63.6358
8.786000	 63.6692
8.804000	 63.6804
8.821999	 63.6645
8.840000	 63.6335
8.858000	 63.6068
8.876000	 63.6006
8.894000	 63.6173
8.911999	 63.6402
8.930000	 63.647
8.948000	 63.6286
8.966000	 63.5963
8.984000	 63.5696
9.001999	 63.5591
9.020000	 63.5603
9.038000	 63.5616
9.056000	 63.5587
9.074000	 63.5634
9.092000	 63.5957
9.109999	 63.6615
9.128000	 63.7369
9.146000	 63.7815
9.164000	 63.7714
9.182000	 63.7185
9.199999	 63.6602
9.218000	 63.6313
9.236000	 63.6424
9.254000	 63.6781
9.272000	 63.7114
9.289999	 63.7219
9.308000	 63.7053
9.326000	 63.6733
9.344000	 63.6456
9.362000	 63.6393
9.379999	 63.6619
9.398000	 63.7069
9.416000	 63.7573
9.434000	 63.7915
9.452000	 63.7927
9.469999	 63.7532
9.488000	 63.6769
9.506000	 63.5846
9.524000	 63.5111
9.542000	 63.488
9.560000	 63.5207
9.577999	 63.5819
9.596000	 63.6298
9.614000	 63.6357
9.632000	 63.5989
9.650000	 63.5431
9.667999	 63.5009
9.686000	 63.4995
9.704000	 63.5494
9.722000	 63.6393
9.740000	 63.7366
9.757999	 63.8007
9.776000	 63.8046
9.794000	 63.7531
9.812000	 63.6811
9.830000	 63.6302
9.847999	 63.6213
9.866000	 63.6469
9.884000	 63.6836
9.902000	 63.711
9.920000	 63.7221
9.937999	 63.7207
9.956000	 63.7139
9.974000	 63.7078
9.992000	 63.7074
10.01	63.7164
10.028	63.7362
10.046	63.7618
10.064	63.7839
10.082	63.7936
10.1	63.7893
10.118	63.7796
10.136	63.7779
10.154	63.7949
10.172	63.8317
10.19	63.8777
10.208	63.9181
10.226	63.941
10.244	63.9408
10.262	63.9181
10.28	63.8766
10.298	63.8229
10.316	63.7665
10.334	63.7173
10.352	63.6807
10.37	63.6537
10.388	63.6249
10.406	63.583
10.424	63.5266
10.442	63.4688
10.46	63.4286
10.478	63.4199
10.496	63.4411
10.514	63.4772
10.532	63.5079
10.55	63.5196
10.568	63.5087
10.586	63.4823
10.604	63.4513
10.622	63.4266
10.64	63.4145
10.658	63.4176
10.676	63.4341
10.694	63.4595
10.712	63.4879
10.73	63.5135
10.748	63.5331
10.766	63.5465
10.784	63.5561
10.802	63.5661
10.82	63.5801
10.838	63.5994
10.856	63.6214
10.874	63.6389
10.892	63.644
10.91	63.6317
10.928	63.6044
10.946	63.5715
10.964	63.5459
10.982	63.5389
11	63.5539
11.018	63.5848
11.036	63.6194
11.054	63.644
11.072	63.6507
11.09	63.6407
11.108	63.6227
11.126	63.6084
11.144	63.6052
11.162	63.6134
11.18	63.6268
11.198	63.6365
11.216	63.6379
11.234	63.6335
11.252	63.6325
11.27	63.645
11.288	63.6771
11.306	63.7264
11.324	63.782
11.342	63.8294
11.36	63.8566
11.378	63.858
11.396	63.8356
11.414	63.7971
11.432	63.7524
11.45	63.7087
11.468	63.6709
11.486	63.6417
11.504	63.6227
11.522	63.615
11.54	63.6194
11.558	63.6349
11.576	63.6583
11.594	63.6848
11.612	63.7092
11.63	63.727
11.648	63.7356
11.666	63.7347
11.684	63.7268
11.702	63.7151
11.72	63.7034
11.738	63.6957
11.756	63.6943
11.774	63.6996
11.792	63.709
11.81	63.7179
11.828	63.7209
11.846	63.7127
11.864	63.6913
11.882	63.6582
11.9	63.6187
11.918	63.5809
11.936	63.5534
11.954	63.5436
11.972	63.5562
11.99	63.591
12.008	63.6433
12.026	63.7035
12.044	63.759
12.062	63.7959
12.08	63.8036
12.098	63.777
12.116	63.7195
12.134	63.6432
12.152	63.5657
12.17	63.5045
12.188	63.473
12.206	63.4754
12.224	63.507
12.242	63.5559
12.26	63.6081
12.278	63.6502
12.296	63.6724
12.314	63.6698
12.332	63.643
12.35	63.5964
12.368	63.5377
12.386	63.4763
12.404	63.4208
12.422	63.3777
12.44	63.3505
12.458	63.3396
12.476	63.3433
12.494	63.3579
12.512	63.3792
12.53	63.4031
12.548	63.4261
12.566	63.4455
12.584	63.4595
12.602	63.4678
12.62	63.4711
12.638	63.471
12.656	63.4696
12.674	63.4698
12.692	63.4739
12.71	63.4837
12.728	63.4995
12.746	63.5199
12.764	63.5424
12.782	63.5636
12.8	63.5802
12.818	63.5898
12.836	63.5914
12.854	63.5862
12.872	63.577
12.89	63.568
12.908	63.5629
12.926	63.5645
12.944	63.5734
12.962	63.5875
12.98	63.6023
12.998	63.6122
13.016	63.6122
13.034	63.5999
13.052	63.576
13.07	63.5446
13.088	63.5124
13.106	63.4862
13.124	63.4715
13.142	63.4706
13.16	63.482
13.178	63.5009
13.196	63.5209
13.214	63.5356
13.232	63.5403
13.25	63.5337
13.268	63.5174
13.286	63.496
13.304	63.4747
13.322	63.4582
13.34	63.4488
13.358	63.4463
13.376	63.448
13.394	63.4498
13.412	63.4476
13.43	63.4382
13.448	63.4211
13.466	63.3975
13.484	63.3707
13.502	63.3444
13.52	63.3219
13.538	63.3051
13.556	63.2944
13.574	63.2884
13.592	63.285
13.61	63.2824
13.628	63.2793
13.646	63.2763
13.664	63.2749
13.682	63.2776
13.7	63.2866
13.718	63.3031
13.736	63.3266
13.754	63.3548
13.772	63.3841
13.79	63.4104
13.808	63.43
13.826	63.4406
13.844	63.4419
13.862	63.4346
13.88	63.4211
13.898	63.4046
13.916	63.3883
13.934	63.3747
13.952	63.3654
13.97	63.3609
13.988	63.361
14.006	63.3646
14.024	63.3702
14.042	63.3763
14.06	63.3813
14.078	63.3837
14.096	63.3819
14.114	63.3743
14.132	63.3593
14.15	63.3361
14.168	63.3041
14.186	63.2633
14.204	63.2146
14.222	63.1598
14.24	63.1013
14.258	63.0422
14.276	62.9859
14.294	62.9361
14.312	62.8968
14.33	62.8721
14.348	62.8658
14.366	62.8808
14.384	62.9189
14.402	62.9805
14.42	63.0634
14.438	63.1632
14.456	63.2737
14.474	63.3871
14.492	63.4948
14.51	63.5886
14.528	63.6623
14.546	63.7125
14.564	63.7388
14.582	63.7437
14.6	63.7322
14.618	63.7111
14.636	63.6874
14.654	63.6657
14.672	63.6488
14.69	63.6368
14.708	63.6279
14.726	63.6188
14.744	63.6052
14.762	63.5841
14.78	63.5548
14.798	63.5185
14.816	63.4785
14.834	63.4395
14.852	63.4074
14.87	63.3867
14.888	63.3797
14.906	63.3871
14.924	63.4069
14.942	63.4336
14.96	63.4607
14.978	63.4813
14.996	63.4899
15.014	63.4823
15.032	63.457
15.05	63.4168
15.068	63.3669
15.086	63.3144
15.104	63.2672
15.122	63.2342
15.14	63.2217
15.158	63.2332
15.176	63.27
15.194	63.3309
15.212	63.4105
15.23	63.5026
15.248	63.6007
15.266	63.6977
15.284	63.7875
15.302	63.8661
15.32	63.9309
15.338	63.98
15.356	64.0123
15.374	64.0279
15.392	64.0269
15.41	64.0094
15.428	63.9752
15.446	63.924
15.464	63.8559
15.482	63.7718
15.5	63.6729
15.518	63.5631
15.536	63.4468
15.554	63.3288
15.572	63.2151
15.59	63.1128
15.608	63.0269
15.626	62.9611
15.644	62.9188
15.662	62.9
15.68	62.9027
15.698	62.9243
15.716	62.9596
15.734	63.0024
15.752	63.0482
15.77	63.0924
15.788	63.1312
15.806	63.1649
15.824	63.1945
15.842	63.2227
15.86	63.2556
15.878	63.2987
15.896	63.3578
15.914	63.4403
15.932	63.5504
15.95	63.6899
15.968	63.8592
15.986	64.0545
16.004	64.2697
16.022	64.4978
16.04	64.726
16.058	64.9431
16.076	65.1392
16.094	65.3018
16.112	65.4225
16.13	65.4965
16.148	65.5196
16.166	65.4931
16.184	65.4204
16.202	65.3064
16.22	65.1619
16.238	64.9961
16.256	64.8183
16.274	64.6423
16.292	64.4762
16.31	64.3275
16.328	64.2044
16.346	64.1098
16.364	64.0463
16.382	64.0134
16.4	64.0078
16.418	64.0267
16.436	64.0627
16.454	64.1093
16.472	64.1613
16.49	64.2098
16.508	64.2493
16.526	64.2756
16.544	64.2828
16.562	64.2694
16.58	64.2338
16.598	64.1763
16.616	64.0992
16.634	64.0044
16.652	63.8969
16.67	63.7801
16.688	63.6573
16.706	63.5338
16.724	63.4117
16.742	63.2941
16.76	63.1826
16.778	63.0778
16.796	62.9805
16.814	62.8902
16.832	62.807
16.85	62.7307
16.868	62.6617
16.886	62.5997
16.904	62.5465
16.922	62.5034
16.94	62.4718
16.958	62.4547
16.976	62.453
16.994	62.4687
17.012	62.5021
17.03	62.5535
17.048	62.6211
17.066	62.7032
17.084	62.7973
17.102	62.898
17.12	63.0031
17.138	63.1061
17.156	63.2034
17.174	63.2914
17.192	63.3652
17.21	63.4239
17.228	63.4649
17.246	63.4886
17.264	63.4947
17.282	63.4853
17.3	63.4616
17.318	63.4265
17.336	63.3827
17.354	63.332
17.372	63.2786
17.39	63.2236
17.408	63.1701
17.426	63.1197
17.444	63.0737
17.462	63.0337
17.48	63.0001
17.498	62.9739
17.516	62.9551
17.534	62.944
17.552	62.9406
17.57	62.9451
17.588	62.9573
17.606	62.9773
17.624	63.0046
17.642	63.0389
17.66	63.0803
17.678	63.1281
17.696	63.1822
17.714	63.2418
17.732	63.3061
17.75	63.3743
17.768	63.4442
17.786	63.5151
17.804	63.5845
17.822	63.6517
17.84	63.7134
17.858	63.7684
17.876	63.8145
17.894	63.8493
17.912	63.8716
17.93	63.8796
17.948	63.8729
17.966	63.8505
17.984	63.8129
18.002	63.7603
18.02	63.6944
18.038	63.6159
18.056	63.5279
18.074	63.4312
18.092	63.3303
18.11	63.2259
18.128	63.1228
18.146	63.0216
18.164	62.9261
18.182	62.8372
18.2	62.7569
18.218	62.686
18.236	62.6253
18.254	62.575
18.272	62.5351
18.29	62.5047
18.308	62.4835
18.326	62.4701
18.344	62.4641
18.362	62.4635
18.38	62.468
18.398	62.4765
18.416	62.4884
18.434	62.5024
18.452	62.5188
18.47	62.5374
18.488	62.558
18.506	62.5805
18.524	62.6058
18.542	62.634
18.56	62.6656
18.578	62.7007
18.596	62.7401
18.614	62.7838
18.632	62.8321
18.65	62.8851
18.668	62.9425
18.686	63.0043
18.704	63.0695
18.722	63.1379
18.74	63.2079
18.758	63.2792
18.776	63.3502
18.794	63.4201
18.812	63.487
18.83	63.5504
18.848	63.6083
18.866	63.6601
18.884	63.704
18.902	63.7398
18.92	63.766
18.938	63.7827
18.956	63.7889
18.974	63.785
18.992	63.7709
19.01	63.7474
19.028	63.7149
19.046	63.6746
19.064	63.6277
19.082	63.5753
19.1	63.5194
19.118	63.4611
19.136	63.4028
19.154	63.3452
19.172	63.2906
19.19	63.2392
19.208	63.193
19.226	63.152
19.244	63.1176
19.262	63.0895
19.28	63.0681
19.298	63.0533
19.316	63.0446
19.334	63.0418
19.352	63.0437
19.37	63.0504
19.388	63.0603
19.406	63.0735
19.424	63.0885
19.442	63.1053
19.46	63.1225
19.478	63.1401
19.496	63.157
19.514	63.1731
19.532	63.1875
19.55	63.1997
19.568	63.2094
19.586	63.216
19.604	63.2195
19.622	63.2191
19.64	63.2152
19.658	63.2072
19.676	63.1954
19.694	63.1798
19.712	63.1602
19.73	63.1375
19.748	63.1114
19.766	63.0833
19.784	63.0531
19.802	63.022
19.82	62.9906
19.838	62.9596
19.856	62.9303
19.874	62.9027
19.892	62.8784
19.91	62.8571
19.928	62.8399
19.946	62.8268
19.964	62.8178
19.982	62.8131
20	62.8121
20.018	62.8147
20.036	62.8202
20.054	62.8278
20.072	62.8375
20.09	62.8476
20.108	62.8585
20.126	62.8687
20.144	62.8783
20.162	62.8866
20.18	62.8933
20.198	62.8983
20.216	62.9013
20.234	62.9024
20.252	62.9019
20.27	62.8997
20.288	62.8965
20.306	62.8921
20.324	62.8872
20.342	62.8823
20.36	62.8773
20.378	62.8732
20.396	62.8699
20.414	62.8679
20.432	62.8675
20.45	62.8687
20.468	62.8718
20.486	62.8765
20.504	62.8829
20.522	62.8908
20.54	62.8998
20.558	62.9101
20.576	62.9207
20.594	62.9317
20.612	62.9426
20.63	62.9524
20.648	62.9613
20.666	62.9685
20.684	62.9737
20.702	62.9769
20.72	62.9776
20.738	62.9759
20.756	62.972
20.774	62.9658
20.792	62.9579
20.81	62.9481
20.828	62.9371
20.846	62.9257
20.864	62.9137
20.882	62.9027
20.9	62.8922
20.918	62.8835
20.936	62.8771
20.954	62.8729
20.972	62.8721
20.99	62.8745
21.008	62.8803
21.026	62.8899
21.044	62.9028
21.062	62.9188
21.08	62.938
21.098	62.9595
21.116	62.9834
21.134	63.0091
21.152	63.0358
21.17	63.0637
21.188	63.0919
21.206	63.1203
21.224	63.1486
21.242	63.1763
21.26	63.2035
21.278	63.2301
21.296	63.2561
21.314	63.2815
21.332	63.3065
21.35	63.331
21.368	63.355
21.386	63.3786
21.404	63.4015
21.422	63.423
21.44	63.4434
21.458	63.4616
21.476	63.4772
21.494	63.4899
21.512	63.4978
21.53	63.5014
21.548	63.4992
21.566	63.4902
21.584	63.4747
21.602	63.4508
21.62	63.4186
21.638	63.3781
21.656	63.3289
21.674	63.271
21.692	63.2053
21.71	63.1316
21.728	63.0504
21.746	62.9636
21.764	62.8704
21.782	62.7729
21.8	62.6725
21.818	62.5686
21.836	62.4644
21.854	62.3597
21.872	62.2555
21.89	62.1544
21.908	62.0555
21.926	61.9605
21.944	61.8706
21.962	61.7853
21.98	61.7062
21.998	61.6334
22.016	61.5668
22.034	61.507
22.052	61.4537
22.07	61.4072
22.088	61.3673
22.106	61.3342
22.124	61.3076
22.142	61.2874
22.16	61.2738
22.178	61.2664
22.196	61.2656
22.214	61.2709
22.232	61.2822
22.25	61.2994
22.268	61.3226
22.286	61.3517
22.304	61.3867
22.322	61.4273
22.34	61.4738
22.358	61.5258
22.376	61.583
22.394	61.6457
22.412	61.7131
22.43	61.7845
22.448	61.8604
22.466	61.9395
22.484	62.0211
22.502	62.1058
22.52	62.1916
22.538	62.2783
22.556	62.3659
22.574	62.4523
22.592	62.5376
22.61	62.6214
22.628	62.7015
22.646	62.7785
22.664	62.8516
22.682	62.9191
22.7	62.9815
22.718	63.0382
22.736	63.0884
22.754	63.1322
22.772	63.1696
22.79	63.2001
22.808	63.2238
22.826	63.2414
22.844	63.2531
22.862	63.2587
22.88	63.2599
22.898	63.2574
22.916	63.2507
22.934	63.2426
22.952	63.2335
22.97	63.2231
22.988	63.2148
23.006	63.2092
23.024	63.2058
23.042	63.2077
23.06	63.2151
23.078	63.2278
23.096	63.2479
23.114	63.2758
23.132	63.311
23.15	63.3536
23.168	63.404
23.186	63.4616
23.204	63.5252
23.222	63.5957
23.24	63.6719
23.258	63.7503
23.276	63.8321
23.294	63.916
23.312	63.9974
23.33	64.0773
23.348	64.1546
23.366	64.2243
23.384	64.2868
23.402	64.3419
23.42	64.3855
23.438	64.4175
23.456	64.4383
23.474	64.4455
23.492	64.4383
23.51	64.4175
23.528	64.3833
23.546	64.3349
23.564	64.273
23.582	64.1994
23.6	64.1145
23.618	64.0178
23.636	63.9128
23.654	63.8008
23.672	63.6803
23.69	63.5556
23.708	63.4293
23.726	63.2992
23.744	63.1692
23.762	63.0428
23.78	62.9178
23.798	62.7966
23.816	62.6825
23.834	62.574
23.852	62.4721
23.87	62.3787
23.888	62.2938
23.906	62.2167
23.924	62.1474
23.942	62.0863
23.96	62.033
23.978	61.9853
23.996	61.9431
24.014	61.9069
24.032	61.8741
24.05	61.8434
24.068	61.8161
24.086	61.7901
24.104	61.7637
24.122	61.7378
24.14	61.7116
24.158	61.6836
24.176	61.654
24.194	61.623
24.212	61.5903
24.23	61.5557
24.248	61.5194
24.266	61.4822
24.284	61.4441
24.302	61.4047
24.32	61.3654
24.338	61.3276
24.356	61.2903
24.374	61.2544
24.392	61.2212
24.41	61.1903
24.428	61.1618
24.446	61.1373
24.464	61.1174
24.482	61.1016
24.5	61.0899
24.518	61.0825
24.536	61.0794
24.554	61.0804
24.572	61.0859
24.59	61.0954
24.608	61.1093
24.626	61.1279
24.644	61.1513
24.662	61.1792
24.68	61.2123
24.698	61.2514
24.716	61.2959
24.734	61.3461
24.752	61.4023
24.77	61.4647
24.788	61.533
24.806	61.6074
24.824	61.6879
24.842	61.774
24.86	61.8668
24.878	61.9677
24.896	62.0772
24.914	62.1944
24.932	62.3182
24.95	62.4488
24.968	62.587
24.986	62.73
25.004	62.8748
25.022	63.0248
25.04	63.177
25.058	63.3249
25.076	63.4667
25.094	63.6067
25.112	63.7366
25.13	63.8481
25.148	63.9466
25.166	64.0292
25.184	64.0869
25.202	64.1159
25.22	64.1217
25.238	64.0983
25.256	64.039
25.274	63.945
25.292	63.8177
25.31	63.6563
25.328	63.4591
25.346	63.2252
25.364	62.9601
25.382	62.6697
25.4	62.3487
25.418	61.9995
25.436	61.6352
25.454	61.2645
25.472	60.8753
25.49	60.4802
25.508	60.0964
25.526	59.725
25.544	59.3581
25.562	59.0127
25.58	58.705
25.598	58.4252
25.616	58.1765
25.634	57.9719
25.652	57.8197
25.67	57.7116
25.688	57.6516
25.706	57.6455
25.724	57.696
25.742	57.7997
25.76	57.9535
25.778	58.1552
25.796	58.4113
25.814	58.7151
25.832	59.0546
25.85	59.4236
25.868	59.8338
25.886	60.2713
25.904	60.7184
25.922	61.1734
25.94	61.6458
25.958	62.119
25.976	62.5765
25.994	63.025
26.012	63.4657
26.03	63.8842
26.048	64.2684
26.066	64.6256
26.084	64.9551
26.102	65.2509
26.12	65.5091
26.138	65.7331
26.156	65.9226
26.174	66.0768
26.192	66.1949
26.21	66.2771
26.228	66.3254
26.246	66.3419
26.264	66.3267
26.282	66.279
26.3	66.2003
26.318	66.0919
26.336	65.9539
26.354	65.786
26.372	65.5884
26.39	65.3614
26.408	65.1069
26.426	64.823
26.444	64.507
26.462	64.1566
26.48	63.7757
26.498	63.3617
26.516	62.9096
26.534	62.4162
26.552	61.8858
26.57	61.3162
26.588	60.7036
26.606	60.0453
26.624	59.344
26.642	58.5995
26.66	57.8113
26.678	56.9774
26.696	56.096
26.714	55.1735
26.732	54.217
26.75	53.2276
26.768	52.1964
26.786	51.1369
26.804	50.0641
26.822	48.9816
26.84	47.8736
26.858	46.7603
26.876	45.6643
26.894	44.593
26.912	43.5239
26.93	42.4809
26.948	41.491
26.966	40.5444
26.984	39.5846
27.002	38.712
27.02	38.0382
27.028	37.853