File: Bakgrunnsmateriale/MATLAB/FTIR/ftir_data/subAa/Mapping_121/BZ1503107-1_t49_cm-1.asc
PE IR       SPECTRUM    SPECTRUM    ASCII       PEDS        1.60
  -1
BZ6134~1.ASC
17/04/07
17:17:31.00
17/04/07
17:17:31.00
tln
$BZ1503107-1_t0049$<tbV0>[2.6,-2.6,8.0,0.0,27,1,0]
370
64

2002,4.07
MIRTGS : RIGHTBACK : INTERNAL 2
MIR : ON : INTERNAL 2
OPTKBR

0.200000
8
8.000000
FILLER
RATIO
SPECTRUM
UNLOCKED 256

DOUBLE
64
COMBINED
1
0
0

1.000000
RATIO

1
0
TRUE
51149
0
LEFT NOT FITTED RIGHT NOT FITTED 0
NONE
NONE
15600
12
4.427000
51148
TRUE
1 0 8 72 0 0 0 0

15798

#HDR
-1
-1
#GR
CM-1
%T
2.38419e-05
0.0
5000
-1.000000
4631
8
83.0601
55.7191
#DATA
5000	67.5335
4996	67.4401
4992	64.9168
4988	63.97
4984	64.1126
4980	64.0255
4976	64.3085
4972	64.4772
4968	64.5782
4964	65.1869
4960	65.4173
4956	64.9391
4952	64.8127
4948	64.6548
4944	64.0302
4940	64.1199
4936	65.0811
4932	65.7269
4928	65.4794
4924	64.9746
4920	65.035
4916	65.4241
4912	65.4613
4908	65.1337
4904	64.8875
4900	64.8708
4896	65.0182
4892	65.1152
4888	65.0157
4884	65.0088
4880	65.0927
4876	64.9197
4872	64.5216
4868	64.2979
4864	64.4503
4860	64.8212
4856	65.0827
4852	65.1415
4848	65.1264
4844	65.0578
4840	64.968
4836	64.7862
4832	64.585
4828	64.5058
4824	64.598
4820	64.8518
4816	64.9477
4812	64.8853
4808	64.8398
4804	64.7981
4800	64.9014
4796	64.9178
4792	64.6025
4788	64.3466
4784	64.4661
4780	64.819
4776	64.9811
4772	65.0652
4768	65.2988
4764	65.2293
4760	64.9336
4756	64.8362
4752	64.8015
4748	64.7574
4744	64.8291
4740	65.0302
4736	65.2462
4732	65.2378
4728	65.0888
4724	64.9128
4720	64.7874
4716	64.7968
4712	64.7184
4708	64.5562
4704	64.4923
4700	64.5793
4696	64.8707
4692	65.2876
4688	65.3267
4684	65.0523
4680	65.0688
4676	65.1931
4672	65.12
4668	64.9127
4664	64.7584
4660	64.8615
4656	64.98
4652	64.8786
4648	64.755
4644	64.7455
4640	64.9086
4636	65.0593
4632	65.068
4628	65.055
4624	64.9019
4620	64.6703
4616	64.6006
4612	64.6752
4608	64.8911
4604	65.1698
4600	65.2137
4596	64.99
4592	64.7889
4588	64.8686
4584	65.0919
4580	65.2045
4576	65.1887
4572	65.0642
4568	64.919
4564	64.9235
4560	65.075
4556	65.1735
4552	65.186
4548	65.1877
4544	65.1865
4540	65.1957
4536	65.2021
4532	65.2669
4528	65.3415
4524	65.245
4520	65.1322
4516	65.0754
4512	64.9823
4508	64.8398
4504	64.7701
4500	64.9471
4496	64.889
4492	64.6383
4488	64.6679
4484	64.721
4480	64.8186
4476	64.8355
4472	64.544
4468	64.4813
4464	64.6204
4460	64.8504
4456	65.4985
4452	65.999
4448	65.8496
4444	64.7239
4440	63.1949
4436	73.1666
4432	83.0601
4428	68.503
4424	55.9356
4420	58.5337
4416	61.7768
4412	63.6852
4408	65.3514
4404	65.4017
4400	64.7348
4396	64.4423
4392	64.5368
4388	64.6431
4384	64.8977
4380	65.0034
4376	64.9873
4372	65.0755
4368	65.1967
4364	65.2242
4360	65.4454
4356	65.7081
4352	65.5208
4348	65.2072
4344	65.1446
4340	65.1144
4336	65.0179
4332	64.9071
4328	64.9657
4324	65.1642
4320	65.2342
4316	65.2275
4312	65.1888
4308	65.1732
4304	65.2307
4300	65.2246
4296	65.1378
4292	65.0641
4288	65.029
4284	65.0981
4280	65.2042
4276	65.1328
4272	64.9774
4268	64.9451
4264	65.0614
4260	65.1676
4256	65.0715
4252	64.8661
4248	64.7528
4244	64.8065
4240	64.9802
4236	65.1301
4232	65.132
4228	65.1308
4224	65.1909
4220	65.101
4216	65.0156
4212	65.1226
4208	65.1636
4204	65.0199
4200	64.8716
4196	64.8055
4192	64.8795
4188	65.0378
4184	65.1087
4180	65.0217
4176	64.9475
4172	65.0503
4168	65.0875
4164	65.0259
4160	65.0317
4156	64.9685
4152	64.8111
4148	64.7892
4144	64.9738
4140	65.0975
4136	65.0522
4132	65.021
4128	65.0361
4124	65.0701
4120	65.0393
4116	64.9899
4112	65.0867
4108	65.1805
4104	65.2009
4100	65.187
4096	64.9841
4092	64.7144
4088	64.6754
4084	64.8148
4080	64.9268
4076	64.9252
4072	64.8665
4068	64.8174
4064	64.8809
4060	65.1135
4056	65.2073
4052	65.0427
4048	64.8854
4044	64.8639
4040	64.9677
4036	65.0653
4032	65.0842
4028	65.0528
4024	65.0225
4020	65.0384
4016	64.9426
4012	64.7608
4008	64.7129
4004	64.7609
4000	64.8377
3996	65.0295
3992	65.2616
3988	65.3311
3984	65.2836
3980	65.2585
3976	65.2645
3972	65.1342
3968	64.9171
3964	64.931
3960	65.0668
3956	65.1299
3952	65.1103
3948	65.0211
3944	65.0016
3940	64.9942
3936	64.9839
3932	65.0541
3928	65.031
3924	65.0436
3920	65.1644
3916	65.0965
3912	65.0508
3908	65.1314
3904	65.0796
3900	65.0322
3896	65.1528
3892	65.3248
3888	65.3691
3884	65.2233
3880	65.0155
3876	64.9703
3872	65.0547
3868	65.0815
3864	65.1115
3860	65.1559
3856	65.1775
3852	65.2204
3848	65.1848
3844	65.0962
3840	65.1465
3836	65.2328
3832	65.1528
3828	65.0056
3824	64.994
3820	65.1026
3816	65.0939
3812	64.942
3808	64.8786
3804	64.9743
3800	65.0662
3796	64.9849
3792	64.8909
3788	65.0272
3784	65.2407
3780	65.2786
3776	65.1948
3772	65.1311
3768	65.0949
3764	65.0788
3760	65.1279
3756	65.2315
3752	65.2372
3748	65.1595
3744	65.1299
3740	65.1373
3736	65.1955
3732	65.2241
3728	65.1033
3724	65.0043
3720	65.085
3716	65.1938
3712	65.2275
3708	65.2544
3704	65.2784
3700	65.2302
3696	65.1308
3692	65.0504
3688	64.9819
3684	64.9472
3680	64.9851
3676	65.0288
3672	65.0038
3668	64.9733
3664	65.0234
3660	65.1146
3656	65.1453
3652	65.1362
3648	65.1692
3644	65.2079
3640	65.267
3636	65.309
3632	65.1894
3628	64.9889
3624	64.8905
3620	64.9361
3616	65.0088
3612	65.0633
3608	65.172
3604	65.199
3600	65.1007
3596	65.0096
3592	64.9443
3588	64.9628
3584	65.0073
3580	64.944
3576	64.9298
3572	65.1008
3568	65.2151
3564	65.1099
3560	65.0146
3556	65.0552
3552	65.1195
3548	65.1259
3544	65.0301
3540	64.954
3536	64.9543
3532	64.9185
3528	64.8739
3524	64.8994
3520	65.0322
3516	65.1202
3512	65.0733
3508	65.0765
3504	65.1682
3500	65.2702
3496	65.2905
3492	65.1653
3488	65.0359
3484	65.0843
3480	65.1797
3476	65.1644
3472	65.1052
3468	65.0195
3464	65.0154
3460	65.0978
3456	65.0759
3452	65.0112
3448	65.0413
3444	65.109
3440	65.1637
3436	65.161
3432	64.999
3428	64.8594
3424	64.9365
3420	64.9843
3416	64.925
3412	65.0005
3408	65.1442
3404	65.1358
3400	65.0545
3396	65.0564
3392	65.0897
3388	65.0788
3384	65.0176
3380	64.9376
3376	64.9493
3372	65.1314
3368	65.2661
3364	65.1429
3360	64.9514
3356	64.8527
3352	64.8325
3348	64.8581
3344	64.8731
3340	64.8872
3336	64.9309
3332	65.0097
3328	65.0941
3324	65.1201
3320	65.0503
3316	64.9458
3312	64.97
3308	65.0552
3304	65.0359
3300	64.9764
3296	64.9439
3292	64.9491
3288	65.018
3284	65.0841
3280	65.0614
3276	64.99
3272	64.9126
3268	64.8974
3264	64.999
3260	65.105
3256	65.0848
3252	65.007
3248	64.9921
3244	65.0085
3240	64.9534
3236	64.843
3232	64.8554
3228	65.0532
3224	65.2098
3220	65.1747
3216	65.1131
3212	65.0933
3208	65.0593
3204	65.0787
3200	65.1262
3196	65.1444
3192	65.1287
3188	65.066
3184	65.0418
3180	65.0867
3176	65.1077
3172	65.0557
3168	65.0197
3164	65.0656
3160	65.101
3156	65.0725
3152	64.9828
3148	64.9321
3144	65.0224
3140	65.0811
3136	65.0222
3132	65.0332
3128	65.126
3124	65.0871
3120	64.9213
3116	64.8541
3112	64.9163
3108	64.9673
3104	65.0246
3100	65.1519
3096	65.1942
3092	65.0702
3088	64.9702
3084	64.9871
3080	65.002
3076	64.975
3072	64.9349
3068	64.9134
3064	65.0019
3060	65.1446
3056	65.1816
3052	65.1214
3048	65.036
3044	64.9639
3040	64.9513
3036	65.0121
3032	65.0782
3028	65.0815
3024	65.0901
3020	65.0803
3016	65.0033
3012	64.997
3008	65.0857
3004	65.137
3000	65.0976
2996	65.0525
2992	64.9912
2988	64.8747
2984	64.8199
2980	64.8537
2976	64.9018
2972	64.9437
2968	64.9499
2964	64.8578
2960	64.7778
2956	64.8301
2952	64.8939
2948	64.8994
2944	64.8639
2940	64.7918
2936	64.8176
2932	64.9677
2928	64.9802
2924	64.8545
2920	64.8461
2916	64.9029
2912	64.9497
2908	64.9809
2904	64.9215
2900	64.8527
2896	64.9278
2892	65.0281
2888	65.0055
2884	64.9367
2880	64.9146
2876	64.935
2872	64.9335
2868	64.9041
2864	64.9085
2860	64.9018
2856	64.8624
2852	64.8962
2848	64.9535
2844	64.9434
2840	64.9069
2836	64.9095
2832	64.9565
2828	64.9952
2824	64.977
2820	64.9109
2816	64.8479
2812	64.8038
2808	64.8455
2804	64.9252
2800	64.8743
2796	64.7986
2792	64.8513
2788	64.9329
2784	64.9544
2780	64.9233
2776	64.8667
2772	64.8276
2768	64.8056
2764	64.8168
2760	64.8653
2756	64.8874
2752	64.9086
2748	64.9418
2744	64.9294
2740	64.9289
2736	64.9476
2732	64.9231
2728	64.9144
2724	64.9334
2720	64.9246
2716	64.9317
2712	64.9946
2708	65.0485
2704	65.0106
2700	64.9497
2696	64.9473
2692	64.9055
2688	64.841
2684	64.8842
2680	64.9421
2676	64.9158
2672	64.8836
2668	64.8696
2664	64.8677
2660	64.8921
2656	64.8822
2652	64.848
2648	64.87
2644	64.9083
2640	64.8811
2636	64.8732
2632	64.9236
2628	64.9491
2624	64.9303
2620	64.9158
2616	64.9384
2612	64.931
2608	64.8519
2604	64.7967
2600	64.8427
2596	64.8933
2592	64.8693
2588	64.8386
2584	64.818
2580	64.8112
2576	64.8245
2572	64.7851
2568	64.724
2564	64.7324
2560	64.7672
2556	64.8158
2552	64.9021
2548	64.9451
2544	64.9123
2540	64.8631
2536	64.8565
2532	64.9111
2528	64.9722
2524	64.9792
2520	64.9431
2516	64.8919
2512	64.8291
2508	64.7761
2504	64.7815
2500	64.8647
2496	64.9635
2492	64.9996
2488	64.9615
2484	64.9176
2480	64.9172
2476	64.8837
2472	64.8174
2468	64.7768
2464	64.7336
2460	64.7417
2456	64.7987
2452	64.8228
2448	64.8311
2444	64.8391
2440	64.8599
2436	64.9045
2432	64.9377
2428	64.9192
2424	64.8425
2420	64.7869
2416	64.7809
2412	64.7787
2408	64.8288
2404	64.8757
2400	64.8338
2396	64.8112
2392	64.8005
2388	64.744
2384	64.7093
2380	64.7137
2376	64.7705
2372	64.8129
2368	64.7864
2364	64.7977
2360	64.8289
2356	64.8055
2352	64.7747
2348	64.768
2344	64.768
2340	64.7838
2336	64.7943
2332	64.7513
2328	64.7338
2324	64.7933
2320	64.8035
2316	64.7627
2312	64.7578
2308	64.7192
2304	64.6726
2300	64.7204
2296	64.7982
2292	64.8446
2288	64.8657
2284	64.8318
2280	64.7469
2276	64.7196
2272	64.7659
2268	64.7933
2264	64.793
2260	64.7858
2256	64.759
2252	64.6831
2248	64.596
2244	64.6013
2240	64.6688
2236	64.7195
2232	64.7363
2228	64.6959
2224	64.6863
2220	64.7664
2216	64.8376
2212	64.8472
2208	64.8267
2204	64.8051
2200	64.784
2196	64.7384
2192	64.6922
2188	64.6612
2184	64.6205
2180	64.6515
2176	64.7126
2172	64.6788
2168	64.6444
2164	64.6655
2160	64.6706
2156	64.6684
2152	64.6732
2148	64.6737
2144	64.6883
2140	64.7071
2136	64.6945
2132	64.6669
2128	64.6945
2124	64.752
2120	64.7533
2116	64.7159
2112	64.6571
2108	64.601
2104	64.6235
2100	64.6924
2096	64.7193
2092	64.6837
2088	64.6266
2084	64.603
2080	64.6066
2076	64.6322
2072	64.638
2068	64.598
2064	64.6283
2060	64.7022
2056	64.7031
2052	64.6559
2048	64.6036
2044	64.5653
2040	64.5488
2036	64.5537
2032	64.5843
2028	64.614
2024	64.6127
2020	64.623
2016	64.6679
2012	64.6804
2008	64.647
2004	64.6434
2000	64.6823
1996	64.7102
1992	64.7238
1988	64.7379
1984	64.7151
1980	64.6457
1976	64.5823
1972	64.567
1968	64.5768
1964	64.5437
1960	64.5253
1956	64.5533
1952	64.5679
1948	64.5887
1944	64.5841
1940	64.5388
1936	64.512
1932	64.5285
1928	64.5698
1924	64.595
1920	64.5886
1916	64.577
1912	64.5931
1908	64.6096
1904	64.5814
1900	64.4986
1896	64.4275
1892	64.4401
1888	64.4715
1884	64.4804
1880	64.5066
1876	64.5424
1872	64.5602
1868	64.5556
1864	64.5564
1860	64.5651
1856	64.5646
1852	64.5764
1848	64.5824
1844	64.5771
1840	64.5844
1836	64.5613
1832	64.4977
1828	64.4528
1824	64.4529
1820	64.4723
1816	64.4828
1812	64.4649
1808	64.445
1804	64.4638
1800	64.4778
1796	64.4908
1792	64.5298
1788	64.5322
1784	64.5163
1780	64.517
1776	64.4719
1772	64.3932
1768	64.3924
1764	64.4445
1760	64.4349
1756	64.4196
1752	64.4295
1748	64.3752
1744	64.3084
1740	64.3033
1736	64.3106
1732	64.2896
1728	64.2556
1724	64.2362
1720	64.2678
1716	64.3566
1712	64.4308
1708	64.4213
1704	64.3211
1700	64.2285
1696	64.2282
1692	64.2563
1688	64.2279
1684	64.1757
1680	64.1995
1676	64.2631
1672	64.2769
1668	64.2667
1664	64.2483
1660	64.2489
1656	64.2868
1652	64.2951
1648	64.2971
1644	64.3194
1640	64.3338
1636	64.3392
1632	64.3092
1628	64.2266
1624	64.1354
1620	64.1363
1616	64.2589
1612	64.3314
1608	64.2796
1604	64.2715
1600	64.3162
1596	64.2976
1592	64.2583
1588	64.2572
1584	64.2431
1580	64.1844
1576	64.1235
1572	64.1364
1568	64.2111
1564	64.2566
1560	64.2331
1556	64.1823
1552	64.1881
1548	64.2309
1544	64.2399
1540	64.2231
1536	64.1907
1532	64.1532
1528	64.1361
1524	64.142
1520	64.1827
1516	64.225
1512	64.206
1508	64.1706
1504	64.1902
1500	64.21
1496	64.1874
1492	64.2278
1488	64.3062
1484	64.3071
1480	64.2692
1476	64.261
1472	64.2632
1468	64.2214
1464	64.1887
1460	64.1715
1456	64.096
1452	64.0168
1448	64.0213
1444	64.1006
1440	64.1751
1436	64.1559
1432	64.0826
1428	64.0971
1424	64.2019
1420	64.2446
1416	64.1828
1412	64.1193
1408	64.1241
1404	64.1662
1400	64.1769
1396	64.1501
1392	64.1508
1388	64.1541
1384	64.114
1380	64.0827
1376	64.096
1372	64.1294
1368	64.0875
1364	64.01
1360	64.0275
1356	64.0614
1352	64.003
1348	63.9366
1344	63.9968
1340	64.1106
1336	64.1423
1332	64.1222
1328	64.1353
1324	64.1737
1320	64.1688
1316	64.1102
1312	64.0408
1308	64.0226
1304	64.0926
1300	64.1817
1296	64.1927
1292	64.1479
1288	64.1216
1284	64.0967
1280	64.0365
1276	63.9881
1272	63.9585
1268	63.9361
1264	63.9446
1260	63.9355
1256	63.9154
1252	63.9299
1248	63.935
1244	63.9217
1240	63.8967
1236	63.8658
1232	63.8469
1228	63.8242
1224	63.7997
1220	63.8316
1216	63.8901
1212	63.8962
1208	63.9251
1204	63.9464
1200	63.8702
1196	63.7825
1192	63.7592
1188	63.8206
1184	63.8802
1180	63.8614
1176	63.8783
1172	63.9415
1168	63.8682
1164	63.6687
1160	63.5743
1156	63.6658
1152	63.789
1148	63.8151
1144	63.7556
1140	63.7345
1136	63.7303
1132	63.6806
1128	63.6686
1124	63.7522
1120	63.8131
1116	63.7814
1112	63.7557
1108	63.7392
1104	63.7306
1100	63.7693
1096	63.7978
1092	63.7132
1088	63.5807
1084	63.6388
1080	63.796
1076	63.8401
1072	63.8071
1068	63.7579
1064	63.7297
1060	63.7125
1056	63.6697
1052	63.6197
1048	63.6452
1044	63.7771
1040	63.8627
1036	63.8279
1032	63.7878
1028	63.8489
1024	63.9884
1020	64.0373
1016	63.9864
1012	63.9751
1008	63.9557
1004	63.8604
1000	63.7746
996	 63.7674
992	 63.8254
988	 63.8568
984	 63.8572
980	 63.9125
976	 63.9535
972	 63.9446
968	 63.8921
964	 63.7955
960	 63.7379
956	 63.7346
952	 63.7762
948	 63.7638
944	 63.659
940	 63.6179
936	 63.6694
932	 63.7283
928	 63.7273
924	 63.6591
920	 63.6855
916	 63.7679
912	 63.7081
908	 63.6865
904	 63.8147
900	 63.8161
896	 63.6912
892	 63.6832
888	 63.7937
884	 63.8965
880	 63.8864
876	 63.7739
872	 63.7053
868	 63.7388
864	 63.8102
860	 63.8676
856	 63.8864
852	 63.8451
848	 63.8012
844	 63.8925
840	 63.939
836	 63.7706
832	 63.7159
828	 63.8184
824	 63.7716
820	 63.6807
816	 63.7068
812	 63.7011
808	 63.6525
804	 63.6631
800	 63.6525
796	 63.6394
792	 63.7256
788	 63.7721
784	 63.7044
780	 63.6327
776	 63.629
772	 63.6722
768	 63.6902
764	 63.6029
760	 63.5017
756	 63.5041
752	 63.5147
748	 63.5247
744	 63.5911
740	 63.6022
736	 63.5039
732	 63.4078
728	 63.4254
724	 63.4943
720	 63.5289
716	 63.5295
712	 63.3778
708	 63.1397
704	 63.0664
700	 63.1302
696	 63.1901
692	 63.3387
688	 63.4921
684	 63.4039
680	 63.4533
676	 63.6411
672	 63.4618
668	 63.2037
664	 63.1538
660	 63.2646
656	 63.4145
652	 63.2653
648	 62.9693
644	 62.9459
640	 63.2239
636	 63.2766
632	 62.8164
628	 62.6389
624	 63.3393
620	 64.3169
616	 64.2034
612	 63.0247
608	 62.4842
604	 62.8945
600	 63.0019
596	 62.42
592	 62.2918
588	 63.2976
584	 64.2819
580	 64.2911
576	 63.8736
572	 63.5647
568	 63.6275
564	 64.0718
560	 64.4254
556	 64.7755
552	 65.3237
548	 65.3662
544	 64.7454
540	 64.1277
536	 63.7176
532	 63.464
528	 63.4886
524	 63.6785
520	 64.1489
516	 64.5244
512	 64.2529
508	 64.0037
504	 64.3358
500	 64.6306
496	 64.1308
492	 63.3844
488	 63.2827
484	 63.3935
480	 63.1636
476	 63.0272
472	 63.514
468	 63.7054
464	 63.347
460	 63.4839
456	 63.8323
452	 63.8562
448	 63.8946
444	 64.1456
440	 64.2491
436	 64.1036
432	 63.8546
428	 63.8109
424	 64.459
420	 64.1503
416	 61.9796
412	 61.4665
408	 62.8394
404	 62.4553
400	 61.3306
396	 59.1744
392	 57.473
388	 60.2168
384	 62.5193
380	 69.0066
376	 80.6127
372	 69.2707
370	 57.9876