File: Bakgrunnsmateriale/MATLAB/FTIR/ftir_data/subAa/Mapping_121/BZ1503107-1_t61.asc
PE IR       SPECTRUM    SPECTRUM    ASCII       PEDS        1.60
  -1
BZ2D41~1.ASC
17/04/07
18:13:35.00
17/04/07
18:14:02.00
tln
$BZ1503107-1_t0061$<tbV0>[0.0,0.0,8.0,0.0,27,1,0]
27.028
64

2002,4.07
MIRTGS : RIGHTBACK : INTERNAL 2
MIR : ON : INTERNAL 2
OPTKBR

0.200000
8
8.000000
FILLER
RATIO
SPECTRUM
UNLOCKED 256

DOUBLE
64
COMBINED
1
0
0

0.002000
RATIO

1
0
TRUE
51149
0
LEFT NOT FITTED RIGHT NOT FITTED 0
NONE
NONE
15600
12
4.427000
51148
TRUE
1 0 8 72 0 0 0 0

15798

#HDR
-1
-1
#GR
µM
%T
2.38419e-05
0.0
2.000000
0.002000
12515
8
74.6345
50.4873
#DATA
2.000000	 64.7628
2.018000	 62
2.036000	 64.7374
2.054000	 64.5865
2.072000	 64.3312
2.090000	 64.6731
2.108000	 64.5759
2.126000	 64.881
2.144000	 64.808
2.162000	 65.0283
2.180000	 65.4373
2.198000	 65.26
2.216000	 65.6384
2.234000	 64.7891
2.252000	 54.0223
2.270000	 65.1569
2.288000	 65.335
2.306000	 65.0542
2.324000	 65.0541
2.342000	 64.9531
2.360000	 65.2483
2.378000	 65.2914
2.396000	 64.6819
2.414000	 65.0487
2.432000	 64.9851
2.450000	 64.9248
2.468000	 65.0367
2.486000	 65.0377
2.504000	 65.0437
2.522000	 64.8883
2.540000	 64.9215
2.558000	 65.0955
2.576000	 65.0471
2.594000	 64.9863
2.612000	 64.9743
2.630000	 65.1937
2.648000	 65.2354
2.666000	 64.929
2.684000	 65.0717
2.702000	 65.1815
2.720000	 65.1746
2.738000	 64.9962
2.756000	 64.9184
2.774000	 65.0441
2.792000	 65.0498
2.810000	 64.9215
2.828000	 65.0969
2.846000	 65.2324
2.864000	 65.1871
2.882000	 65.094
2.900000	 65.0771
2.918000	 64.944
2.936000	 65.2085
2.954000	 64.9905
2.972000	 65.0724
2.990000	 65.0948
3.008000	 64.9767
3.026000	 65.1046
3.044000	 65.0415
3.062000	 64.9384
3.080000	 64.8655
3.098000	 65.0374
3.116000	 64.8822
3.134000	 65.0475
3.152000	 65.0292
3.170000	 64.8891
3.188000	 64.9114
3.206000	 64.9802
3.224000	 65.1421
3.242000	 64.7815
3.260000	 64.8881
3.278000	 64.8837
3.296000	 64.9092
3.314000	 64.9817
3.332000	 65.0735
3.350000	 64.9039
3.368000	 64.818
3.386000	 64.8496
3.404000	 64.9246
3.422000	 64.8135
3.440000	 64.888
3.458000	 64.9906
3.476000	 64.8358
3.494000	 65.0728
3.512000	 64.9767
3.530000	 64.8341
3.548000	 64.9393
3.566000	 64.9919
3.584000	 65.036
3.602000	 65.0274
3.620000	 64.9639
3.638000	 64.9997
3.656000	 64.7972
3.674000	 64.9996
3.692000	 64.9722
3.710000	 64.8856
3.728000	 64.9847
3.746000	 64.89
3.764000	 64.8426
3.782000	 64.9236
3.800000	 64.9586
3.818000	 64.8627
3.836000	 64.9977
3.854000	 64.9693
3.872000	 64.9194
3.890000	 64.8362
3.908000	 64.7642
3.926000	 64.8116
3.944000	 64.7176
3.962000	 64.8549
3.980000	 64.9025
3.998000	 64.7901
4.016000	 64.8826
4.034000	 64.9244
4.052000	 64.7447
4.070000	 64.773
4.088000	 64.9042
4.106000	 64.8832
4.124000	 64.9416
4.141999	 64.7627
4.160000	 64.728
4.178000	 64.8329
4.196000	 64.7232
4.214000	 64.6676
4.232000	 64.7878
4.250000	 64.6989
4.268000	 64.6848
4.286000	 64.7717
4.304000	 64.8525
4.322000	 64.6896
4.340000	 64.8071
4.358000	 64.7997
4.375999	 64.6792
4.394000	 64.7036
4.412000	 64.7688
4.430000	 64.8055
4.448000	 64.5948
4.466000	 64.6078
4.484000	 64.6215
4.502000	 64.7017
4.520000	 64.7642
4.538000	 64.8159
4.556000	 64.6796
4.574000	 64.6189
4.592000	 64.6052
4.609999	 64.5983
4.628000	 64.7039
4.646000	 64.6897
4.664000	 64.6742
4.682000	 64.6014
4.700000	 64.6143
4.718000	 64.6068
4.736000	 64.5806
4.754000	 64.5718
4.772000	 64.6175
4.790000	 64.5975
4.808000	 64.6368
4.826000	 64.6849
4.843999	 64.6619
4.862000	 64.5871
4.880000	 64.5378
4.898000	 64.5638
4.916000	 64.4965
4.934000	 64.5825
4.952000	 64.6835
4.970000	 64.6408
4.988000	 64.6019
5.006000	 64.5843
5.024000	 64.5506
5.042000	 64.5665
5.060000	 64.5772
5.077999	 64.6064
5.096000	 64.4984
5.114000	 64.4982
5.132000	 64.5439
5.150000	 64.516
5.168000	 64.501
5.186000	 64.4944
5.204000	 64.4517
5.222000	 64.3997
5.240000	 64.4332
5.258000	 64.46
5.276000	 64.3963
5.294000	 64.3367
5.312000	 64.3664
5.330000	 64.4113
5.348000	 64.4846
5.366000	 64.437
5.384000	 64.4934
5.402000	 64.5144
5.420000	 64.4387
5.438000	 64.4513
5.456000	 64.4515
5.474000	 64.4397
5.492000	 64.4043
5.510000	 64.4632
5.528000	 64.423
5.546000	 64.3803
5.564000	 64.4168
5.582000	 64.4449
5.600000	 64.4048
5.618000	 64.458
5.636000	 64.4817
5.654000	 64.4159
5.672000	 64.2793
5.690000	 64.3032
5.708000	 64.2381
5.726000	 64.1624
5.744000	 64.1109
5.762000	 64.0789
5.780000	 64.1199
5.798000	 64.1585
5.816000	 64.1886
5.834000	 64.3068
5.852000	 64.3615
5.870000	 64.1929
5.888000	 64.1207
5.906000	 64.1923
5.923999	 64.2274
5.942000	 64.151
5.960000	 64.1896
5.978000	 64.2279
5.996000	 64.2031
6.014000	 64.2704
6.032000	 64.2491
6.050000	 64.1987
6.068000	 64.2407
6.086000	 64.2439
6.104000	 64.141
6.122000	 64.105
6.140000	 64.1514
6.158000	 64.1826
6.176000	 64.2092
6.194000	 64.2765
6.212000	 64.2221
6.230000	 64.1103
6.248000	 64.0926
6.266000	 64.1007
6.284000	 64.1387
6.302000	 64.1196
6.320000	 64.0421
6.338000	 64.0117
6.356000	 64.0982
6.374000	 64.1795
6.392000	 64.1153
6.410000	 64.097
6.428000	 64.2137
6.446000	 64.2032
6.464000	 64.073
6.482000	 64.0285
6.500000	 64.0278
6.518000	 63.9785
6.536000	 63.9822
6.554000	 64.0481
6.572000	 64.1005
6.590000	 64.1335
6.608000	 64.1267
6.626000	 64.1312
6.644000	 64.2045
6.662000	 64.2333
6.680000	 64.1608
6.698000	 64.1534
6.716000	 64.1918
6.734000	 64.1774
6.752000	 64.1252
6.770000	 64.0657
6.788000	 64.0464
6.806000	 64.0476
6.824000	 64.0367
6.842000	 64.0039
6.860000	 63.9409
6.878000	 63.8812
6.896000	 63.8661
6.914000	 63.9031
6.932000	 63.9458
6.950000	 63.9859
6.968000	 64.0312
6.986000	 64.032
7.004000	 64.0119
7.022000	 64.0441
7.040000	 64.0993
7.058000	 64.105
7.076000	 64.0719
7.094000	 64.0461
7.112000	 64.0134
7.130000	 63.9668
7.148000	 63.9436
7.166000	 63.9543
7.184000	 63.982
7.202000	 64.0014
7.220000	 63.9956
7.238000	 63.9654
7.256000	 63.9107
7.274000	 63.8695
7.292000	 63.8881
7.310000	 63.9251
7.328000	 63.9364
7.346000	 63.9388
7.364000	 63.9201
7.382000	 63.8598
7.400000	 63.7896
7.418000	 63.7486
7.436000	 63.7559
7.454000	 63.799
7.472000	 63.8353
7.490000	 63.8549
7.508000	 63.8759
7.526000	 63.8858
7.544000	 63.8657
7.562000	 63.8283
7.580000	 63.8062
7.598000	 63.8074
7.616000	 63.798
7.634000	 63.7773
7.652000	 63.8004
7.670000	 63.8813
7.688000	 63.9654
7.706000	 64.0012
7.724000	 63.9703
7.742000	 63.8957
7.760000	 63.8248
7.778000	 63.7683
7.796000	 63.7118
7.814000	 63.6784
7.832000	 63.6913
7.850000	 63.7187
7.868000	 63.7354
7.886000	 63.7635
7.904000	 63.8091
7.922000	 63.8376
7.940000	 63.8347
7.958000	 63.8222
7.976000	 63.8052
7.994000	 63.7624
8.012000	 63.6935
8.030000	 63.6385
8.048000	 63.6274
8.065999	 63.646
8.084000	 63.6645
8.102000	 63.6721
8.120000	 63.6766
8.138000	 63.6863
8.155999	 63.7033
8.173999	 63.7294
8.192000	 63.7636
8.210000	 63.792
8.228000	 63.795
8.246000	 63.7735
8.263999	 63.7529
8.282000	 63.753
8.300000	 63.7637
8.318000	 63.7568
8.336000	 63.7176
8.353999	 63.6671
8.372000	 63.6473
8.390000	 63.6764
8.408000	 63.7305
8.426000	 63.7705
8.443999	 63.7779
8.462000	 63.7583
8.480000	 63.7291
8.498000	 63.7151
8.516000	 63.7282
8.533999	 63.747
8.552000	 63.7377
8.570000	 63.6906
8.588000	 63.6249
8.606000	 63.571
8.624000	 63.5492
8.641999	 63.5561
8.660000	 63.5732
8.678000	 63.5838
8.696000	 63.5784
8.714000	 63.5643
8.731999	 63.5669
8.750000	 63.6059
8.768000	 63.6755
8.786000	 63.7527
8.804000	 63.8064
8.821999	 63.8068
8.840000	 63.7473
8.858000	 63.6637
8.876000	 63.609
8.894000	 63.61
8.911999	 63.6466
8.930000	 63.6801
8.948000	 63.6911
8.966000	 63.6892
8.984000	 63.689
9.001999	 63.6908
9.020000	 63.685
9.038000	 63.6704
9.056000	 63.6587
9.074000	 63.6634
9.092000	 63.6857
9.109999	 63.7093
9.128000	 63.7108
9.146000	 63.6788
9.164000	 63.6242
9.182000	 63.5689
9.199999	 63.5304
9.218000	 63.5163
9.236000	 63.5307
9.254000	 63.5761
9.272000	 63.6457
9.289999	 63.7168
9.308000	 63.7616
9.326000	 63.7674
9.344000	 63.7443
9.362000	 63.7151
9.379999	 63.6962
9.398000	 63.6879
9.416000	 63.682
9.434000	 63.6708
9.452000	 63.6541
9.469999	 63.6358
9.488000	 63.6182
9.506000	 63.6
9.524000	 63.5775
9.542000	 63.5513
9.560000	 63.5282
9.577999	 63.5167
9.596000	 63.5177
9.614000	 63.5214
9.632000	 63.513
9.650000	 63.4857
9.667999	 63.4476
9.686000	 63.4198
9.704000	 63.4233
9.722000	 63.4625
9.740000	 63.5208
9.757999	 63.5716
9.776000	 63.5965
9.794000	 63.5989
9.812000	 63.5991
9.830000	 63.6157
9.847999	 63.6511
9.866000	 63.6925
9.884000	 63.7239
9.902000	 63.7364
9.920000	 63.7288
9.937999	 63.7058
9.956000	 63.6763
9.974000	 63.6518
9.992000	 63.6411
10.01	63.6444
10.028	63.6498
10.046	63.6406
10.064	63.6123
10.082	63.5773
10.1	63.5594
10.118	63.5765
10.136	63.6278
10.154	63.6972
10.172	63.7637
10.19	63.8131
10.208	63.8417
10.226	63.8529
10.244	63.8513
10.262	63.8379
10.28	63.8112
10.298	63.7696
10.316	63.7146
10.334	63.6531
10.352	63.5948
10.37	63.5486
10.388	63.5165
10.406	63.4933
10.424	63.4718
10.442	63.4503
10.46	63.4336
10.478	63.4288
10.496	63.4386
10.514	63.4583
10.532	63.4777
10.55	63.4885
10.568	63.4892
10.586	63.4861
10.604	63.4877
10.622	63.5
10.64	63.5219
10.658	63.5476
10.676	63.569
10.694	63.581
10.712	63.5835
10.73	63.5812
10.748	63.5806
10.766	63.5862
10.784	63.5983
10.802	63.6132
10.82	63.6255
10.838	63.6301
10.856	63.6235
10.874	63.604
10.892	63.5725
10.91	63.5333
10.928	63.4936
10.946	63.463
10.964	63.4496
10.982	63.4572
11	63.4827
11.018	63.5176
11.036	63.5521
11.054	63.579
11.072	63.5964
11.09	63.6063
11.108	63.6112
11.126	63.6118
11.144	63.6057
11.162	63.59
11.18	63.5638
11.198	63.5306
11.216	63.4978
11.234	63.4728
11.252	63.461
11.27	63.4631
11.288	63.4749
11.306	63.4912
11.324	63.5078
11.342	63.5236
11.36	63.5397
11.378	63.5569
11.396	63.5744
11.414	63.5882
11.432	63.5935
11.45	63.5872
11.468	63.5702
11.486	63.5475
11.504	63.527
11.522	63.5166
11.54	63.5218
11.558	63.5443
11.576	63.5818
11.594	63.6301
11.612	63.6838
11.63	63.7375
11.648	63.7872
11.666	63.8288
11.684	63.8587
11.702	63.8738
11.72	63.8725
11.738	63.8547
11.756	63.8225
11.774	63.7798
11.792	63.7312
11.81	63.6807
11.828	63.6315
11.846	63.5862
11.864	63.5467
11.882	63.5149
11.9	63.4928
11.918	63.4817
11.936	63.4813
11.954	63.4891
11.972	63.5013
11.99	63.5135
12.008	63.5238
12.026	63.5337
12.044	63.5473
12.062	63.5707
12.08	63.6086
12.098	63.6615
12.116	63.7253
12.134	63.7913
12.152	63.8493
12.17	63.8907
12.188	63.9104
12.206	63.9084
12.224	63.8883
12.242	63.8549
12.26	63.8125
12.278	63.7642
12.296	63.7116
12.314	63.6564
12.332	63.6008
12.35	63.5481
12.368	63.5017
12.386	63.4643
12.404	63.4372
12.422	63.4202
12.44	63.4115
12.458	63.4091
12.476	63.4109
12.494	63.4158
12.512	63.4237
12.53	63.4347
12.548	63.4488
12.566	63.4653
12.584	63.4819
12.602	63.4959
12.62	63.5039
12.638	63.5033
12.656	63.4933
12.674	63.4745
12.692	63.4492
12.71	63.4201
12.728	63.3898
12.746	63.3598
12.764	63.3305
12.782	63.3013
12.8	63.2718
12.818	63.2418
12.836	63.2124
12.854	63.1858
12.872	63.165
12.89	63.1535
12.908	63.1539
12.926	63.1678
12.944	63.1946
12.962	63.2315
12.98	63.2743
12.998	63.3174
13.016	63.3559
13.034	63.3862
13.052	63.4066
13.07	63.4179
13.088	63.4222
13.106	63.4223
13.124	63.4207
13.142	63.4187
13.16	63.4159
13.178	63.4111
13.196	63.4027
13.214	63.3897
13.232	63.3726
13.25	63.3534
13.268	63.3358
13.286	63.3238
13.304	63.3209
13.322	63.3289
13.34	63.347
13.358	63.3724
13.376	63.4006
13.394	63.4262
13.412	63.4447
13.43	63.4527
13.448	63.449
13.466	63.4343
13.484	63.4107
13.502	63.3813
13.52	63.3493
13.538	63.3173
13.556	63.2869
13.574	63.2594
13.592	63.2353
13.61	63.2152
13.628	63.1995
13.646	63.1892
13.664	63.1853
13.682	63.1888
13.7	63.1998
13.718	63.2176
13.736	63.2404
13.754	63.2655
13.772	63.2897
13.79	63.3097
13.808	63.323
13.826	63.3283
13.844	63.3259
13.862	63.317
13.88	63.3039
13.898	63.2895
13.916	63.2766
13.934	63.2671
13.952	63.2619
13.97	63.2603
13.988	63.2608
14.006	63.2608
14.024	63.2573
14.042	63.2477
14.06	63.23
14.078	63.2033
14.096	63.1678
14.114	63.1251
14.132	63.0779
14.15	63.0296
14.168	62.9842
14.186	62.9452
14.204	62.9156
14.222	62.8973
14.24	62.8908
14.258	62.8957
14.276	62.91
14.294	62.9318
14.312	62.9592
14.33	62.9909
14.348	63.0269
14.366	63.0678
14.384	63.1148
14.402	63.1695
14.42	63.2324
14.438	63.3026
14.456	63.3778
14.474	63.4535
14.492	63.5237
14.51	63.5816
14.528	63.6211
14.546	63.6388
14.564	63.6336
14.582	63.6079
14.6	63.567
14.618	63.5186
14.636	63.4718
14.654	63.4339
14.672	63.4102
14.69	63.4026
14.708	63.4102
14.726	63.429
14.744	63.4517
14.762	63.4712
14.78	63.4807
14.798	63.4754
14.816	63.4526
14.834	63.4124
14.852	63.3575
14.87	63.2928
14.888	63.2238
14.906	63.1563
14.924	63.0961
14.942	63.0475
14.96	63.0136
14.978	62.9957
14.996	62.9944
15.014	63.0089
15.032	63.0376
15.05	63.0781
15.068	63.1279
15.086	63.1841
15.104	63.2432
15.122	63.3011
15.14	63.3541
15.158	63.3992
15.176	63.4338
15.194	63.4565
15.212	63.467
15.23	63.4668
15.248	63.4579
15.266	63.4427
15.284	63.4257
15.302	63.4097
15.32	63.3965
15.338	63.3868
15.356	63.3794
15.374	63.3715
15.392	63.3598
15.41	63.3409
15.428	63.311
15.446	63.2678
15.464	63.211
15.482	63.1418
15.5	63.0628
15.518	62.9803
15.536	62.9002
15.554	62.8279
15.572	62.769
15.59	62.7278
15.608	62.7055
15.626	62.7023
15.644	62.716
15.662	62.7419
15.68	62.7749
15.698	62.8102
15.716	62.8416
15.734	62.865
15.752	62.8786
15.77	62.8811
15.788	62.8743
15.806	62.8621
15.824	62.8484
15.842	62.8386
15.86	62.839
15.878	62.8539
15.896	62.8872
15.914	62.9422
15.932	63.0192
15.95	63.1174
15.968	63.2346
15.986	63.3656
16.004	63.5053
16.022	63.6479
16.04	63.7854
16.058	63.911
16.076	64.0191
16.094	64.1025
16.112	64.1563
16.13	64.1776
16.148	64.1636
16.166	64.114
16.184	64.0301
16.202	63.9137
16.22	63.7703
16.238	63.6055
16.256	63.4248
16.274	63.2382
16.292	63.0531
16.31	62.876
16.328	62.7169
16.346	62.5814
16.364	62.4743
16.382	62.4006
16.4	62.3605
16.418	62.3542
16.436	62.3788
16.454	62.4294
16.472	62.502
16.49	62.5882
16.508	62.6818
16.526	62.7778
16.544	62.8681
16.562	62.9491
16.58	63.0177
16.598	63.0711
16.616	63.1095
16.634	63.1332
16.652	63.1446
16.67	63.1457
16.688	63.1387
16.706	63.1265
16.724	63.1103
16.742	63.0913
16.76	63.0699
16.778	63.0459
16.796	63.0186
16.814	62.9868
16.832	62.9502
16.85	62.9075
16.868	62.8593
16.886	62.8054
16.904	62.7479
16.922	62.6884
16.94	62.6292
16.958	62.5745
16.976	62.5261
16.994	62.4877
17.012	62.4615
17.03	62.4491
17.048	62.4522
17.066	62.4704
17.084	62.5039
17.102	62.5502
17.12	62.6082
17.138	62.674
17.156	62.7446
17.174	62.8173
17.192	62.887
17.21	62.9523
17.228	63.0092
17.246	63.0563
17.264	63.0919
17.282	63.1152
17.3	63.1266
17.318	63.1263
17.336	63.1167
17.354	63.0987
17.372	63.0763
17.39	63.0512
17.408	63.0272
17.426	63.0071
17.444	62.9929
17.462	62.9874
17.48	62.9913
17.498	63.0064
17.516	63.032
17.534	63.0683
17.552	63.1131
17.57	63.1658
17.588	63.2226
17.606	63.282
17.624	63.341
17.642	63.3967
17.66	63.4476
17.678	63.4908
17.696	63.5259
17.714	63.551
17.732	63.5662
17.75	63.5707
17.768	63.565
17.786	63.5491
17.804	63.5238
17.822	63.4893
17.84	63.4466
17.858	63.3964
17.876	63.3395
17.894	63.2771
17.912	63.2097
17.93	63.1391
17.948	63.0656
17.966	62.9914
17.984	62.9172
18.002	62.8451
18.02	62.7765
18.038	62.7129
18.056	62.6565
18.074	62.608
18.092	62.5696
18.11	62.5415
18.128	62.5249
18.146	62.5195
18.164	62.5253
18.182	62.5411
18.2	62.5659
18.218	62.5967
18.236	62.6324
18.254	62.6685
18.272	62.704
18.29	62.7336
18.308	62.7568
18.326	62.7694
18.344	62.7711
18.362	62.7596
18.38	62.7356
18.398	62.6993
18.416	62.6526
18.434	62.5972
18.452	62.5369
18.47	62.4739
18.488	62.4133
18.506	62.3571
18.524	62.3102
18.542	62.2736
18.56	62.2506
18.578	62.2417
18.596	62.2465
18.614	62.2649
18.632	62.2935
18.65	62.3317
18.668	62.3732
18.686	62.4172
18.704	62.4565
18.722	62.4904
18.74	62.5122
18.758	62.5216
18.776	62.5138
18.794	62.4896
18.812	62.4473
18.83	62.3887
18.848	62.3154
18.866	62.2302
18.884	62.1373
18.902	62.04
18.92	61.9436
18.938	61.8513
18.956	61.769
18.974	61.699
18.992	61.6462
19.01	61.6114
19.028	61.5978
19.046	61.6046
19.064	61.6325
19.082	61.6797
19.1	61.7446
19.118	61.825
19.136	61.9172
19.154	62.0195
19.172	62.1273
19.19	62.2396
19.208	62.3516
19.226	62.4632
19.244	62.5706
19.262	62.6739
19.28	62.7704
19.298	62.8603
19.316	62.9422
19.334	63.0162
19.352	63.0812
19.37	63.1374
19.388	63.1828
19.406	63.2178
19.424	63.2404
19.442	63.2508
19.46	63.247
19.478	63.229
19.496	63.1963
19.514	63.1483
19.532	63.0863
19.55	63.0097
19.568	62.9212
19.586	62.8222
19.604	62.7152
19.622	62.6045
19.64	62.4913
19.658	62.3832
19.676	62.2799
19.694	62.1904
19.712	62.1138
19.73	62.0582
19.748	62.0234
19.766	62.014
19.784	62.0314
19.802	62.0755
19.82	62.148
19.838	62.2465
19.856	62.3696
19.874	62.5155
19.892	62.6781
19.91	62.8576
19.928	63.044
19.946	63.2386
19.964	63.4308
19.982	63.6202
20	63.7997
20.018	63.9655
20.036	64.1156
20.054	64.2441
20.072	64.3521
20.09	64.4352
20.108	64.4942
20.126	64.5292
20.144	64.5397
20.162	64.5287
20.18	64.4965
20.198	64.4458
20.216	64.3799
20.234	64.2991
20.252	64.2086
20.27	64.1076
20.288	64.0013
20.306	63.8899
20.324	63.7757
20.342	63.6604
20.36	63.5442
20.378	63.4294
20.396	63.3155
20.414	63.2033
20.432	63.0927
20.45	62.984
20.468	62.8774
20.486	62.7728
20.504	62.6701
20.522	62.5693
20.54	62.4709
20.558	62.3746
20.576	62.2813
20.594	62.1912
20.612	62.1045
20.63	62.022
20.648	61.9437
20.666	61.8711
20.684	61.804
20.702	61.7432
20.72	61.6894
20.738	61.6424
20.756	61.6034
20.774	61.5721
20.792	61.5483
20.81	61.532
20.828	61.5228
20.846	61.5204
20.864	61.5249
20.882	61.5345
20.9	61.5496
20.918	61.569
20.936	61.5921
20.954	61.6188
20.972	61.6473
20.99	61.6782
21.008	61.7103
21.026	61.7433
21.044	61.7772
21.062	61.8115
21.08	61.846
21.098	61.8812
21.116	61.9167
21.134	61.9531
21.152	61.9906
21.17	62.0292
21.188	62.0697
21.206	62.1122
21.224	62.1568
21.242	62.2042
21.26	62.2543
21.278	62.3069
21.296	62.3623
21.314	62.4199
21.332	62.4791
21.35	62.5402
21.368	62.6015
21.386	62.663
21.404	62.724
21.422	62.7828
21.44	62.84
21.458	62.8939
21.476	62.9436
21.494	62.9893
21.512	63.0298
21.53	63.065
21.548	63.0952
21.566	63.12
21.584	63.1397
21.602	63.1555
21.62	63.1667
21.638	63.1751
21.656	63.1824
21.674	63.188
21.692	63.1944
21.71	63.2021
21.728	63.2114
21.746	63.2244
21.764	63.2409
21.782	63.2611
21.8	63.2855
21.818	63.3139
21.836	63.3454
21.854	63.3805
21.872	63.4179
21.89	63.4552
21.908	63.4937
21.926	63.5298
21.944	63.5617
21.962	63.5902
21.98	63.611
21.998	63.624
22.016	63.6287
22.034	63.6225
22.052	63.6058
22.07	63.5786
22.088	63.5401
22.106	63.4905
22.124	63.4319
22.142	63.3638
22.16	63.2873
22.178	63.2067
22.196	63.1204
22.214	63.0319
22.232	62.9454
22.25	62.8588
22.268	62.7773
22.286	62.7036
22.304	62.6363
22.322	62.5802
22.34	62.5363
22.358	62.5041
22.376	62.4858
22.394	62.4819
22.412	62.4912
22.43	62.513
22.448	62.5482
22.466	62.5942
22.484	62.6491
22.502	62.7141
22.52	62.7849
22.538	62.8602
22.556	62.9406
22.574	63.0209
22.592	63.1009
22.61	63.1802
22.628	63.2544
22.646	63.324
22.664	63.3882
22.682	63.4447
22.7	63.4938
22.718	63.5355
22.736	63.5693
22.754	63.595
22.772	63.6136
22.79	63.6254
22.808	63.6299
22.826	63.6289
22.844	63.6233
22.862	63.6123
22.88	63.5986
22.898	63.5829
22.916	63.5648
22.934	63.5464
22.952	63.5288
22.97	63.5112
22.988	63.4947
23.006	63.4797
23.024	63.4658
23.042	63.4533
23.06	63.4422
23.078	63.4324
23.096	63.424
23.114	63.417
23.132	63.4113
23.15	63.407
23.168	63.404
23.186	63.4023
23.204	63.4022
23.222	63.4032
23.24	63.4058
23.258	63.4107
23.276	63.4175
23.294	63.4267
23.312	63.44
23.33	63.4569
23.348	63.4778
23.366	63.5043
23.384	63.5361
23.402	63.5735
23.42	63.6183
23.438	63.6708
23.456	63.7306
23.474	63.7973
23.492	63.8718
23.51	63.9532
23.528	64.0391
23.546	64.1298
23.564	64.2252
23.582	64.3204
23.6	64.4144
23.618	64.5085
23.636	64.597
23.654	64.6779
23.672	64.7537
23.69	64.8177
23.708	64.8655
23.726	64.9011
23.744	64.9184
23.762	64.9122
23.78	64.8858
23.798	64.8362
23.816	64.7591
23.834	64.6558
23.852	64.5265
23.87	64.3704
23.888	64.1861
23.906	63.976
23.924	63.7436
23.942	63.4871
23.96	63.2081
23.978	62.9137
23.996	62.6051
24.014	62.2801
24.032	61.9483
24.05	61.6153
24.068	61.2756
24.086	60.9379
24.104	60.6104
24.122	60.2876
24.14	59.9748
24.158	59.6803
24.176	59.4022
24.194	59.1407
24.212	58.9004
24.23	58.683
24.248	58.4864
24.266	58.3105
24.284	58.1561
24.302	58.024
24.32	57.9093
24.338	57.808
24.356	57.7246
24.374	57.6532
24.392	57.5855
24.41	57.5245
24.428	57.4688
24.446	57.4084
24.464	57.3401
24.482	57.2684
24.5	57.1855
24.518	57.085
24.536	56.9709
24.554	56.8408
24.572	56.6904
24.59	56.5199
24.608	56.3303
24.626	56.1203
24.644	55.888
24.662	55.6337
24.68	55.3618
24.698	55.0759
24.716	54.7719
24.734	54.4544
24.752	54.1305
24.77	53.798
24.788	53.4566
24.806	53.1177
24.824	52.7884
24.842	52.4608
24.86	52.144
24.878	51.8491
24.896	51.5712
24.914	51.312
24.932	51.0837
24.95	50.8924
24.968	50.7306
24.986	50.6061
25.004	50.5274
25.022	50.4904
25.04	50.4962
25.058	50.5508
25.076	50.6572
25.094	50.8123
25.112	51.0169
25.13	51.2723
25.148	51.5796
25.166	51.9365
25.184	52.3399
25.202	52.7895
25.22	53.2877
25.238	53.8275
25.256	54.4019
25.274	55.0165
25.292	55.6677
25.31	56.344
25.328	57.0404
25.346	57.7654
25.364	58.5072
25.382	59.2525
25.4	60.007
25.418	60.7703
25.436	61.5265
25.454	62.2647
25.472	62.9974
25.49	63.7137
25.508	64.3978
25.526	65.0478
25.544	65.6712
25.562	66.255
25.58	66.7867
25.598	67.2733
25.616	67.7131
25.634	68.0972
25.652	68.4197
25.67	68.6865
25.688	68.8951
25.706	69.0417
25.724	69.1244
25.742	69.1456
25.76	69.108
25.778	69.0136
25.796	68.8587
25.814	68.6471
25.832	68.3856
25.85	68.0776
25.868	67.7158
25.886	67.31
25.904	66.872
25.922	66.4016
25.94	65.8921
25.958	65.3597
25.976	64.8206
25.994	64.2655
26.012	63.6955
26.03	63.1297
26.048	62.584
26.066	62.0421
26.084	61.5137
26.102	61.0185
26.12	60.5686
26.138	60.1477
26.156	59.768
26.174	59.4454
26.192	59.1852
26.21	58.9764
26.228	58.8289
26.246	58.7537
26.264	58.7524
26.282	58.8197
26.3	58.9569
26.318	59.1653
26.336	59.4489
26.354	59.8037
26.372	60.2218
26.39	60.6966
26.408	61.2388
26.426	61.8406
26.444	62.4855
26.462	63.1608
26.48	63.8846
26.498	64.6438
26.516	65.4154
26.534	66.1836
26.552	66.9706
26.57	67.7607
26.588	68.5308
26.606	69.2672
26.624	69.991
26.642	70.6869
26.66	71.3349
26.678	71.9234
26.696	72.4678
26.714	72.9605
26.732	73.391
26.75	73.7525
26.768	74.051
26.786	74.2884
26.804	74.4658
26.822	74.5812
26.84	74.6308
26.858	74.6251
26.876	74.5753
26.894	74.4839
26.912	74.3387
26.93	74.156
26.948	73.9542
26.966	73.7311
26.984	73.4547
27.002	73.1777
27.02	72.9586
27.028	72.9014