File: Bakgrunnsmateriale/MATLAB/FTIR/ftir_data/subAa/Mapping_121/BZ1503107-1_t64.asc
PE IR       SPECTRUM    SPECTRUM    ASCII       PEDS        1.60
  -1
BZ2951~1.ASC
17/04/07
18:27:27.00
17/04/07
18:27:53.00
tln
$BZ1503107-1_t0064$<tbV0>[-7.8,0.0,8.0,0.0,27,1,0]
27.028
64

2002,4.07
MIRTGS : RIGHTBACK : INTERNAL 2
MIR : ON : INTERNAL 2
OPTKBR

0.200000
8
8.000000
FILLER
RATIO
SPECTRUM
UNLOCKED 256

DOUBLE
64
COMBINED
1
0
0

0.002000
RATIO

1
0
TRUE
51149
0
LEFT NOT FITTED RIGHT NOT FITTED 0
NONE
NONE
15600
12
4.427000
51148
TRUE
1 0 8 72 0 0 0 0

15798

#HDR
-1
-1
#GR
µM
%T
2.38419e-05
0.0
2.000000
0.002000
12515
8
70.1084
47.5368
#DATA
2.000000	 65.0026
2.018000	 64.3257
2.036000	 65.1626
2.054000	 64.7035
2.072000	 64.7302
2.090000	 64.8935
2.108000	 64.9194
2.126000	 64.7048
2.144000	 64.7825
2.162000	 65.0602
2.180000	 65.0324
2.198000	 65.3552
2.216000	 65.2047
2.234000	 65.2044
2.252000	 65.2801
2.270000	 65.9117
2.288000	 65.315
2.306000	 65.0043
2.324000	 64.8951
2.342000	 65.101
2.360000	 64.9617
2.378000	 64.8404
2.396000	 65.0544
2.414000	 64.817
2.432000	 65.1573
2.450000	 65.0071
2.468000	 64.8986
2.486000	 65.2106
2.504000	 65.2792
2.522000	 65.0218
2.540000	 65.0048
2.558000	 64.837
2.576000	 65.0167
2.594000	 65.1201
2.612000	 64.8138
2.630000	 64.8047
2.648000	 65.1034
2.666000	 65.1702
2.684000	 65.0408
2.702000	 64.9827
2.720000	 65.0894
2.738000	 65.1147
2.756000	 65.1979
2.774000	 65.2343
2.792000	 65.0512
2.810000	 65.1704
2.828000	 65.017
2.846000	 65.2499
2.864000	 65.2097
2.882000	 64.9749
2.900000	 65.1135
2.918000	 64.764
2.936000	 65.1585
2.954000	 64.8975
2.972000	 65.1993
2.990000	 64.9963
3.008000	 65.0979
3.026000	 65.0675
3.044000	 65.1081
3.062000	 64.8406
3.080000	 65.0449
3.098000	 64.9968
3.116000	 64.9942
3.134000	 65.046
3.152000	 65.0035
3.170000	 64.934
3.188000	 64.9842
3.206000	 64.9874
3.224000	 65.0734
3.242000	 64.9962
3.260000	 64.8506
3.278000	 64.9607
3.296000	 64.9853
3.314000	 65.0262
3.332000	 65.0453
3.350000	 65.0634
3.368000	 64.8428
3.386000	 64.8085
3.404000	 64.6368
3.422000	 64.9211
3.440000	 64.8786
3.458000	 64.9622
3.476000	 64.9295
3.494000	 64.9987
3.512000	 65.0371
3.530000	 64.8251
3.548000	 64.8689
3.566000	 64.8997
3.584000	 64.9197
3.602000	 64.7416
3.620000	 64.8611
3.638000	 64.9051
3.656000	 64.9811
3.674000	 64.787
3.692000	 64.9343
3.710000	 64.918
3.728000	 64.8325
3.746000	 64.94
3.764000	 64.934
3.782000	 64.8822
3.800000	 64.8849
3.818000	 64.8265
3.836000	 64.9258
3.854000	 64.9008
3.872000	 64.8612
3.890000	 64.8269
3.908000	 64.7331
3.926000	 64.8595
3.944000	 64.7901
3.962000	 64.8947
3.980000	 64.8766
3.998000	 64.6823
4.016000	 64.8805
4.034000	 64.7669
4.052000	 64.6813
4.070000	 64.7759
4.088000	 64.7889
4.106000	 64.9003
4.124000	 64.9787
4.141999	 64.8049
4.160000	 64.625
4.178000	 64.7599
4.196000	 64.8544
4.214000	 64.6611
4.232000	 64.7069
4.250000	 64.7437
4.268000	 64.8017
4.286000	 64.7253
4.304000	 64.7728
4.322000	 64.5592
4.340000	 64.7255
4.358000	 64.7446
4.375999	 64.6414
4.394000	 64.5974
4.412000	 64.7277
4.430000	 64.6923
4.448000	 64.6631
4.466000	 64.679
4.484000	 64.7154
4.502000	 64.7002
4.520000	 64.6528
4.538000	 64.7744
4.556000	 64.7332
4.574000	 64.657
4.592000	 64.6869
4.609999	 64.6465
4.628000	 64.606
4.646000	 64.7073
4.664000	 64.795
4.682000	 64.7002
4.700000	 64.6038
4.718000	 64.4727
4.736000	 64.596
4.754000	 64.6367
4.772000	 64.6248
4.790000	 64.5651
4.808000	 64.5452
4.826000	 64.4157
4.843999	 64.456
4.862000	 64.636
4.880000	 64.6445
4.898000	 64.5576
4.916000	 64.5469
4.934000	 64.5922
4.952000	 64.5886
4.970000	 64.6117
4.988000	 64.5819
5.006000	 64.5759
5.024000	 64.5468
5.042000	 64.5375
5.060000	 64.5975
5.077999	 64.5238
5.096000	 64.4222
5.114000	 64.3883
5.132000	 64.4442
5.150000	 64.4618
5.168000	 64.5077
5.186000	 64.4683
5.204000	 64.3965
5.222000	 64.3148
5.240000	 64.3198
5.258000	 64.3764
5.276000	 64.3439
5.294000	 64.351
5.312000	 64.3454
5.330000	 64.4072
5.348000	 64.4624
5.366000	 64.4389
5.384000	 64.506
5.402000	 64.5792
5.420000	 64.4448
5.438000	 64.4005
5.456000	 64.4224
5.474000	 64.4116
5.492000	 64.3129
5.510000	 64.3321
5.528000	 64.3926
5.546000	 64.3048
5.564000	 64.3287
5.582000	 64.3752
5.600000	 64.3539
5.618000	 64.4393
5.636000	 64.4272
5.654000	 64.3714
5.672000	 64.3446
5.690000	 64.2621
5.708000	 64.1748
5.726000	 64.131
5.744000	 64.0761
5.762000	 64.0231
5.780000	 64.0692
5.798000	 64.1396
5.816000	 64.1408
5.834000	 64.2057
5.852000	 64.2351
5.870000	 64.1666
5.888000	 64.0585
5.906000	 64.1206
5.923999	 64.1609
5.942000	 64.0655
5.960000	 64.0876
5.978000	 64.1099
5.996000	 64.108
6.014000	 64.1049
6.032000	 64.1006
6.050000	 64.1439
6.068000	 64.211
6.086000	 64.248
6.104000	 64.1548
6.122000	 64.0905
6.140000	 64.1416
6.158000	 64.1078
6.176000	 64.0814
6.194000	 64.1562
6.212000	 64.1218
6.230000	 64.1039
6.248000	 64.1462
6.266000	 64.1241
6.284000	 64.0583
6.302000	 64.033
6.320000	 64.0735
6.338000	 64.0594
6.356000	 64.0345
6.374000	 64.0232
6.392000	 63.9656
6.410000	 63.9392
6.428000	 63.9835
6.446000	 64.0018
6.464000	 63.9544
6.482000	 63.9617
6.500000	 64.0343
6.518000	 64.0181
6.536000	 64.0054
6.554000	 64.0896
6.572000	 64.2017
6.590000	 64.2759
6.608000	 64.2522
6.626000	 64.1709
6.644000	 64.1278
6.662000	 64.0906
6.680000	 64.0477
6.698000	 64.0665
6.716000	 64.1017
6.734000	 64.1152
6.752000	 64.1456
6.770000	 64.1876
6.788000	 64.1991
6.806000	 64.1636
6.824000	 64.09
6.842000	 64.0547
6.860000	 64.0649
6.878000	 64.0421
6.896000	 63.9936
6.914000	 63.9843
6.932000	 64.028
6.950000	 64.0583
6.968000	 64.0533
6.986000	 64.0693
7.004000	 64.1023
7.022000	 64.1391
7.040000	 64.1631
7.058000	 64.1108
7.076000	 64.023
7.094000	 63.9851
7.112000	 63.9877
7.130000	 64.0249
7.148000	 64.0691
7.166000	 64.0629
7.184000	 64.0466
7.202000	 64.0496
7.220000	 64.0248
7.238000	 63.9748
7.256000	 63.9356
7.274000	 63.9271
7.292000	 63.9453
7.310000	 63.9415
7.328000	 63.9253
7.346000	 63.9604
7.364000	 63.9986
7.382000	 63.9573
7.400000	 63.8801
7.418000	 63.8505
7.436000	 63.8728
7.454000	 63.8998
7.472000	 63.8951
7.490000	 63.8675
7.508000	 63.8533
7.526000	 63.8649
7.544000	 63.886
7.562000	 63.9032
7.580000	 63.9105
7.598000	 63.8957
7.616000	 63.8525
7.634000	 63.809
7.652000	 63.8175
7.670000	 63.8835
7.688000	 63.9477
7.706000	 63.9624
7.724000	 63.9379
7.742000	 63.9105
7.760000	 63.9071
7.778000	 63.923
7.796000	 63.9213
7.814000	 63.8887
7.832000	 63.8631
7.850000	 63.8727
7.868000	 63.8937
7.886000	 63.8972
7.904000	 63.8913
7.922000	 63.8801
7.940000	 63.8467
7.958000	 63.8038
7.976000	 63.7935
7.994000	 63.8221
8.012000	 63.8512
8.030000	 63.8564
8.048000	 63.8414
8.065999	 63.8144
8.084000	 63.7877
8.102000	 63.7773
8.120000	 63.7831
8.138000	 63.7886
8.155999	 63.7835
8.173999	 63.7734
8.192000	 63.765
8.210000	 63.757
8.228000	 63.7481
8.246000	 63.7391
8.263999	 63.7327
8.282000	 63.7386
8.300000	 63.7574
8.318000	 63.7656
8.336000	 63.7413
8.353999	 63.698
8.372000	 63.6687
8.390000	 63.6692
8.408000	 63.691
8.426000	 63.7204
8.443999	 63.7469
8.462000	 63.7568
8.480000	 63.745
8.498000	 63.7268
8.516000	 63.7135
8.533999	 63.6879
8.552000	 63.6333
8.570000	 63.5659
8.588000	 63.5203
8.606000	 63.5215
8.624000	 63.5692
8.641999	 63.6331
8.660000	 63.6789
8.678000	 63.6938
8.696000	 63.6816
8.714000	 63.649
8.731999	 63.6052
8.750000	 63.5607
8.768000	 63.5311
8.786000	 63.5373
8.804000	 63.5829
8.821999	 63.6362
8.840000	 63.6518
8.858000	 63.6156
8.876000	 63.5523
8.894000	 63.4977
8.911999	 63.4675
8.930000	 63.4605
8.948000	 63.4748
8.966000	 63.5129
8.984000	 63.5669
9.001999	 63.6184
9.020000	 63.6563
9.038000	 63.687
9.056000	 63.7186
9.074000	 63.7433
9.092000	 63.7446
9.109999	 63.7143
9.128000	 63.6576
9.146000	 63.5862
9.164000	 63.5138
9.182000	 63.4587
9.199999	 63.4409
9.218000	 63.4688
9.236000	 63.5297
9.254000	 63.5952
9.272000	 63.6375
9.289999	 63.6431
9.308000	 63.6157
9.326000	 63.5748
9.344000	 63.5475
9.362000	 63.5559
9.379999	 63.6012
9.398000	 63.6594
9.416000	 63.6973
9.434000	 63.6953
9.452000	 63.6602
9.469999	 63.6184
9.488000	 63.5976
9.506000	 63.6111
9.524000	 63.6544
9.542000	 63.713
9.560000	 63.7713
9.577999	 63.8149
9.596000	 63.8303
9.614000	 63.8073
9.632000	 63.7467
9.650000	 63.664
9.667999	 63.5829
9.686000	 63.5237
9.704000	 63.4929
9.722000	 63.4851
9.740000	 63.4917
9.757999	 63.5062
9.776000	 63.5237
9.794000	 63.5365
9.812000	 63.5352
9.830000	 63.5167
9.847999	 63.4897
9.866000	 63.4734
9.884000	 63.4863
9.902000	 63.5326
9.920000	 63.5991
9.937999	 63.6635
9.956000	 63.7096
9.974000	 63.7359
9.992000	 63.7516
10.01	63.7665
10.028	63.7816
10.046	63.789
10.064	63.7798
10.082	63.7515
10.1	63.71
10.118	63.6669
10.136	63.6352
10.154	63.6259
10.172	63.6429
10.19	63.6793
10.208	63.7196
10.226	63.7474
10.244	63.7525
10.262	63.7365
10.28	63.7085
10.298	63.678
10.316	63.6512
10.334	63.63
10.352	63.6153
10.37	63.6081
10.388	63.6072
10.406	63.6085
10.424	63.6085
10.442	63.6085
10.46	63.615
10.478	63.6348
10.496	63.6661
10.514	63.6966
10.532	63.708
10.55	63.6879
10.568	63.6378
10.586	63.5764
10.604	63.5283
10.622	63.5122
10.64	63.529
10.658	63.5641
10.676	63.5948
10.694	63.605
10.712	63.5913
10.73	63.5641
10.748	63.5395
10.766	63.532
10.784	63.5488
10.802	63.5902
10.82	63.6518
10.838	63.7257
10.856	63.8011
10.874	63.8639
10.892	63.9016
10.91	63.9066
10.928	63.8822
10.946	63.8404
10.964	63.7961
10.982	63.7616
11	63.74
11.018	63.7272
11.036	63.7151
11.054	63.6972
11.072	63.6723
11.09	63.6437
11.108	63.6167
11.126	63.5949
11.144	63.5791
11.162	63.568
11.18	63.5611
11.198	63.56
11.216	63.5684
11.234	63.5897
11.252	63.6247
11.27	63.6688
11.288	63.7125
11.306	63.7452
11.324	63.7599
11.342	63.7569
11.36	63.7437
11.378	63.7314
11.396	63.7283
11.414	63.7379
11.432	63.7573
11.45	63.7806
11.468	63.8016
11.486	63.8172
11.504	63.8276
11.522	63.8351
11.54	63.8422
11.558	63.8509
11.576	63.8614
11.594	63.8729
11.612	63.8834
11.63	63.8898
11.648	63.8884
11.666	63.8754
11.684	63.8497
11.702	63.8135
11.72	63.7723
11.738	63.7344
11.756	63.7063
11.774	63.6913
11.792	63.6879
11.81	63.6914
11.828	63.6965
11.846	63.6995
11.864	63.7007
11.882	63.703
11.9	63.7107
11.918	63.7267
11.936	63.7505
11.954	63.7791
11.972	63.8079
11.99	63.8328
12.008	63.8516
12.026	63.8635
12.044	63.8684
12.062	63.8653
12.08	63.8517
12.098	63.8248
12.116	63.7835
12.134	63.73
12.152	63.671
12.17	63.6143
12.188	63.5672
12.206	63.5338
12.224	63.5138
12.242	63.5038
12.26	63.4993
12.278	63.4963
12.296	63.4923
12.314	63.4867
12.332	63.48
12.35	63.473
12.368	63.4662
12.386	63.4594
12.404	63.4525
12.422	63.4452
12.44	63.4378
12.458	63.4308
12.476	63.425
12.494	63.4208
12.512	63.4183
12.53	63.4178
12.548	63.4199
12.566	63.4253
12.584	63.4345
12.602	63.4474
12.62	63.4629
12.638	63.4792
12.656	63.4941
12.674	63.5059
12.692	63.5137
12.71	63.5172
12.728	63.5171
12.746	63.5141
12.764	63.5093
12.782	63.5036
12.8	63.498
12.818	63.4933
12.836	63.4898
12.854	63.4877
12.872	63.4864
12.89	63.4846
12.908	63.4802
12.926	63.4705
12.944	63.4534
12.962	63.4274
12.98	63.3923
12.998	63.35
13.016	63.3038
13.034	63.2577
13.052	63.2159
13.07	63.1815
13.088	63.156
13.106	63.1395
13.124	63.1303
13.142	63.1262
13.16	63.1246
13.178	63.1236
13.196	63.1217
13.214	63.1184
13.232	63.1132
13.25	63.1061
13.268	63.0966
13.286	63.0846
13.304	63.0696
13.322	63.0522
13.34	63.0335
13.358	63.0157
13.376	63.0013
13.394	62.9929
13.412	62.9926
13.43	63.0008
13.448	63.0162
13.466	63.036
13.484	63.0567
13.502	63.0748
13.52	63.0877
13.538	63.0945
13.556	63.0957
13.574	63.093
13.592	63.0884
13.61	63.0836
13.628	63.0793
13.646	63.0756
13.664	63.0713
13.682	63.0656
13.7	63.0577
13.718	63.0475
13.736	63.036
13.754	63.0249
13.772	63.0166
13.79	63.0129
13.808	63.0156
13.826	63.0251
13.844	63.0411
13.862	63.0623
13.88	63.0868
13.898	63.1131
13.916	63.1399
13.934	63.1665
13.952	63.1929
13.97	63.219
13.988	63.2445
14.006	63.2686
14.024	63.2892
14.042	63.3039
14.06	63.3092
14.078	63.3024
14.096	63.2814
14.114	63.246
14.132	63.198
14.15	63.1408
14.168	63.0798
14.186	63.0211
14.204	62.9704
14.222	62.9327
14.24	62.9109
14.258	62.9059
14.276	62.9164
14.294	62.9396
14.312	62.9725
14.33	63.0115
14.348	63.0542
14.366	63.0986
14.384	63.1441
14.402	63.1912
14.42	63.24
14.438	63.2908
14.456	63.3423
14.474	63.3921
14.492	63.4365
14.51	63.4706
14.528	63.4901
14.546	63.4922
14.564	63.4762
14.582	63.4437
14.6	63.3987
14.618	63.3472
14.636	63.2961
14.654	63.2513
14.672	63.2168
14.69	63.1948
14.708	63.185
14.726	63.1849
14.744	63.1893
14.762	63.1937
14.78	63.1938
14.798	63.1865
14.816	63.17
14.834	63.1442
14.852	63.1099
14.87	63.0691
14.888	63.0237
14.906	62.9755
14.924	62.9266
14.942	62.8783
14.96	62.8324
14.978	62.7908
14.996	62.7557
15.014	62.7301
15.032	62.7172
15.05	62.7197
15.068	62.7395
15.086	62.777
15.104	62.8311
15.122	62.8976
15.14	62.9708
15.158	63.0445
15.176	63.1131
15.194	63.1709
15.212	63.2146
15.23	63.2448
15.248	63.2645
15.266	63.2784
15.284	63.2954
15.302	63.323
15.32	63.3661
15.338	63.4274
15.356	63.5061
15.374	63.5955
15.392	63.6868
15.41	63.7697
15.428	63.8322
15.446	63.862
15.464	63.8536
15.482	63.8046
15.5	63.7158
15.518	63.5966
15.536	63.4583
15.554	63.3131
15.572	63.1749
15.59	63.0577
15.608	62.9691
15.626	62.9135
15.644	62.8922
15.662	62.8991
15.68	62.9261
15.698	62.9643
15.716	63.0015
15.734	63.0275
15.752	63.036
15.77	63.0217
15.788	62.9834
15.806	62.925
15.824	62.8509
15.842	62.7678
15.86	62.6853
15.878	62.6104
15.896	62.5503
15.914	62.5131
15.932	62.5029
15.95	62.522
15.968	62.5717
15.986	62.6504
16.004	62.7552
16.022	62.8826
16.04	63.0263
16.058	63.1801
16.076	63.3383
16.094	63.4928
16.112	63.6358
16.13	63.7621
16.148	63.865
16.166	63.9391
16.184	63.9815
16.202	63.9894
16.22	63.9618
16.238	63.9007
16.256	63.8082
16.274	63.6898
16.292	63.551
16.31	63.3968
16.328	63.2355
16.346	63.0736
16.364	62.9163
16.382	62.7703
16.4	62.638
16.418	62.5214
16.436	62.4209
16.454	62.3344
16.472	62.2603
16.49	62.193
16.508	62.1277
16.526	62.0604
16.544	61.9843
16.562	61.8965
16.58	61.7949
16.598	61.6784
16.616	61.5504
16.634	61.4135
16.652	61.2755
16.67	61.143
16.688	61.023
16.706	60.9256
16.724	60.8551
16.742	60.8185
16.76	60.8181
16.778	60.8541
16.796	60.9259
16.814	61.0281
16.832	61.1575
16.85	61.3058
16.868	61.4665
16.886	61.6337
16.904	61.7989
16.922	61.9591
16.94	62.1095
16.958	62.2483
16.976	62.375
16.994	62.4891
17.012	62.5924
17.03	62.6855
17.048	62.7702
17.066	62.847
17.084	62.917
17.102	62.98
17.12	63.0359
17.138	63.0836
17.156	63.1223
17.174	63.1508
17.192	63.1682
17.21	63.1748
17.228	63.1708
17.246	63.1575
17.264	63.1353
17.282	63.1062
17.3	63.0713
17.318	63.0324
17.336	62.9914
17.354	62.9493
17.372	62.9083
17.39	62.8689
17.408	62.8326
17.426	62.8003
17.444	62.7727
17.462	62.7504
17.48	62.7334
17.498	62.7219
17.516	62.715
17.534	62.7121
17.552	62.7111
17.57	62.7111
17.588	62.7092
17.606	62.7042
17.624	62.6935
17.642	62.6758
17.66	62.6503
17.678	62.616
17.696	62.5732
17.714	62.5234
17.732	62.4688
17.75	62.411
17.768	62.3552
17.786	62.3028
17.804	62.26
17.822	62.2279
17.84	62.2116
17.858	62.2118
17.876	62.2312
17.894	62.2691
17.912	62.3259
17.93	62.3981
17.948	62.4848
17.966	62.5803
17.984	62.6827
18.002	62.7862
18.02	62.8874
18.038	62.9828
18.056	63.0686
18.074	63.1431
18.092	63.2037
18.11	63.2503
18.128	63.2822
18.146	63.3001
18.164	63.3049
18.182	63.298
18.2	63.2808
18.218	63.255
18.236	63.2218
18.254	63.1828
18.272	63.1384
18.29	63.09
18.308	63.0377
18.326	62.9819
18.344	62.9225
18.362	62.8599
18.38	62.7939
18.398	62.7247
18.416	62.6526
18.434	62.5778
18.452	62.5015
18.47	62.424
18.488	62.3473
18.506	62.2717
18.524	62.1999
18.542	62.1324
18.56	62.0718
18.578	62.0182
18.596	61.9745
18.614	61.9408
18.632	61.919
18.65	61.9092
18.668	61.9127
18.686	61.9296
18.704	61.9598
18.722	62.0032
18.74	62.0592
18.758	62.1273
18.776	62.2061
18.794	62.2947
18.812	62.3914
18.83	62.4949
18.848	62.603
18.866	62.7144
18.884	62.8267
18.902	62.9388
18.92	63.0481
18.938	63.1538
18.956	63.2537
18.974	63.3471
18.992	63.4324
19.01	63.5095
19.028	63.5772
19.046	63.6359
19.064	63.6851
19.082	63.7253
19.1	63.7569
19.118	63.7803
19.136	63.796
19.154	63.8046
19.172	63.8071
19.19	63.8036
19.208	63.7951
19.226	63.7815
19.244	63.7639
19.262	63.742
19.28	63.7161
19.298	63.6862
19.316	63.6523
19.334	63.6144
19.352	63.572
19.37	63.5254
19.388	63.4747
19.406	63.42
19.424	63.3621
19.442	63.3007
19.46	63.2373
19.478	63.1717
19.496	63.1056
19.514	63.0392
19.532	62.9741
19.55	62.9111
19.568	62.8512
19.586	62.7957
19.604	62.7451
19.622	62.7008
19.64	62.6626
19.658	62.6318
19.676	62.6081
19.694	62.5918
19.712	62.5829
19.73	62.5807
19.748	62.5854
19.766	62.5958
19.784	62.6118
19.802	62.6322
19.82	62.6564
19.838	62.6836
19.856	62.7126
19.874	62.7432
19.892	62.774
19.91	62.8049
19.928	62.8349
19.946	62.8641
19.964	62.8913
19.982	62.9168
20	62.9397
20.018	62.9598
20.036	62.9769
20.054	62.9905
20.072	63.0006
20.09	63.0068
20.108	63.0091
20.126	63.0071
20.144	63.0007
20.162	62.9899
20.18	62.9745
20.198	62.9549
20.216	62.9311
20.234	62.9034
20.252	62.873
20.27	62.8397
20.288	62.8052
20.306	62.7695
20.324	62.7342
20.342	62.7003
20.36	62.6684
20.378	62.6407
20.396	62.6167
20.414	62.5989
20.432	62.5871
20.45	62.5821
20.468	62.5848
20.486	62.5947
20.504	62.6122
20.522	62.6371
20.54	62.668
20.558	62.7053
20.576	62.7468
20.594	62.7919
20.612	62.8397
20.63	62.8876
20.648	62.9361
20.666	62.9819
20.684	63.0253
20.702	63.0646
20.72	63.0982
20.738	63.1265
20.756	63.1479
20.774	63.1625
20.792	63.1705
20.81	63.1716
20.828	63.1665
20.846	63.1558
20.864	63.1396
20.882	63.1191
20.9	63.0943
20.918	63.0662
20.936	63.0358
20.954	63.003
20.972	62.9696
20.99	62.9354
21.008	62.9013
21.026	62.8678
21.044	62.835
21.062	62.8035
21.08	62.7731
21.098	62.7443
21.116	62.7171
21.134	62.6916
21.152	62.6682
21.17	62.6466
21.188	62.6272
21.206	62.61
21.224	62.5951
21.242	62.5826
21.26	62.5726
21.278	62.5649
21.296	62.5596
21.314	62.5564
21.332	62.5552
21.35	62.5559
21.368	62.5579
21.386	62.5611
21.404	62.5653
21.422	62.5695
21.44	62.5741
21.458	62.578
21.476	62.5806
21.494	62.5821
21.512	62.5811
21.53	62.578
21.548	62.5724
21.566	62.5637
21.584	62.5524
21.602	62.5385
21.62	62.5217
21.638	62.5027
21.656	62.482
21.674	62.4592
21.692	62.4358
21.71	62.4121
21.728	62.3881
21.746	62.3653
21.764	62.3432
21.782	62.3229
21.8	62.3054
21.818	62.2904
21.836	62.2788
21.854	62.2704
21.872	62.2658
21.89	62.2659
21.908	62.2703
21.926	62.2796
21.944	62.2941
21.962	62.3137
21.98	62.3394
21.998	62.3711
22.016	62.4092
22.034	62.4544
22.052	62.5065
22.07	62.5662
22.088	62.6341
22.106	62.7099
22.124	62.7942
22.142	62.8873
22.16	62.9888
22.178	63.0986
22.196	63.217
22.214	63.3428
22.232	63.475
22.25	63.6143
22.268	63.758
22.286	63.9049
22.304	64.0556
22.322	64.2057
22.34	64.3553
22.358	64.5034
22.376	64.6453
22.394	64.7823
22.412	64.912
22.43	65.0303
22.448	65.1393
22.466	65.2357
22.484	65.3169
22.502	65.3845
22.52	65.4359
22.538	65.4699
22.556	65.4873
22.574	65.4878
22.592	65.4708
22.61	65.4371
22.628	65.3885
22.646	65.3239
22.664	65.2452
22.682	65.1553
22.7	65.0526
22.718	64.9399
22.736	64.8205
22.754	64.6924
22.772	64.5593
22.79	64.4243
22.808	64.2854
22.826	64.1463
22.844	64.0095
22.862	63.8733
22.88	63.741
22.898	63.6141
22.916	63.4916
22.934	63.3759
22.952	63.2678
22.97	63.1667
22.988	63.0742
23.006	62.9905
23.024	62.9154
23.042	62.8498
23.06	62.7937
23.078	62.747
23.096	62.7098
23.114	62.6821
23.132	62.6639
23.15	62.655
23.168	62.6554
23.186	62.6649
23.204	62.6832
23.222	62.7104
23.24	62.7463
23.258	62.7899
23.276	62.8417
23.294	62.9011
23.312	62.9665
23.33	63.0383
23.348	63.1158
23.366	63.1968
23.384	63.2819
23.402	63.3704
23.42	63.459
23.438	63.5481
23.456	63.6374
23.474	63.7234
23.492	63.8062
23.51	63.8859
23.528	63.9594
23.546	64.026
23.564	64.0866
23.582	64.1387
23.6	64.1814
23.618	64.2157
23.636	64.24
23.654	64.2532
23.672	64.256
23.69	64.249
23.708	64.2323
23.726	64.2051
23.744	64.1701
23.762	64.1291
23.78	64.08
23.798	64.0264
23.816	63.9718
23.834	63.9138
23.852	63.8552
23.87	63.8007
23.888	63.7483
23.906	63.6996
23.924	63.6599
23.942	63.6289
23.96	63.6061
23.978	63.5958
23.996	63.5995
24.014	63.6155
24.032	63.6457
24.05	63.6917
24.068	63.7527
24.086	63.828
24.104	63.9169
24.122	64.0209
24.14	64.1373
24.158	64.2631
24.176	64.4004
24.194	64.547
24.212	64.6977
24.23	64.8526
24.248	65.0127
24.266	65.1715
24.284	65.3256
24.302	65.4788
24.32	65.6258
24.338	65.7618
24.356	65.89
24.374	66.0077
24.392	66.1105
24.41	66.1983
24.428	66.2722
24.446	66.3306
24.464	66.3721
24.482	66.3974
24.5	66.4083
24.518	66.4055
24.536	66.387
24.554	66.3564
24.572	66.3185
24.59	66.2706
24.608	66.2144
24.626	66.1569
24.644	66.1008
24.662	66.0421
24.68	65.9875
24.698	65.9434
24.716	65.9054
24.734	65.8766
24.752	65.8627
24.77	65.8645
24.788	65.8801
24.806	65.9117
24.824	65.9611
24.842	66.0276
24.86	66.1103
24.878	66.2086
24.896	66.3249
24.914	66.4569
24.932	66.5992
24.95	66.7498
24.968	66.9128
24.986	67.0805
25.004	67.2453
25.022	67.4126
25.04	67.5789
25.058	67.7338
25.076	67.8736
25.094	68.0043
25.112	68.1174
25.13	68.204
25.148	68.2685
25.166	68.3095
25.184	68.3203
25.202	68.2974
25.22	68.2445
25.238	68.16
25.256	68.0418
25.274	67.8888
25.292	67.7034
25.31	67.4881
25.328	67.2437
25.346	66.9672
25.364	66.6649
25.382	66.3438
25.4	66.0005
25.418	65.6356
25.436	65.2584
25.454	64.8754
25.472	64.4794
25.49	64.0767
25.508	63.6768
25.526	63.2811
25.544	62.8851
25.562	62.4962
25.58	62.121
25.598	61.7562
25.616	61.4025
25.634	61.0639
25.652	60.7434
25.67	60.4384
25.688	60.1498
25.706	59.879
25.724	59.6265
25.742	59.3914
25.76	59.1735
25.778	58.9723
25.796	58.7891
25.814	58.6225
25.832	58.4702
25.85	58.3308
25.868	58.2058
25.886	58.0939
25.904	57.9931
25.922	57.9023
25.94	57.8224
25.958	57.754
25.976	57.6979
25.994	57.6527
26.012	57.6191
26.03	57.5994
26.048	57.5954
26.066	57.604
26.084	57.6277
26.102	57.6706
26.12	57.7358
26.138	57.8199
26.156	57.9246
26.174	58.0518
26.192	58.2036
26.21	58.3792
26.228	58.5755
26.246	58.7897
26.264	59.0248
26.282	59.281
26.3	59.5496
26.318	59.822
26.336	60.1054
26.354	60.3979
26.372	60.6868
26.39	60.9608
26.408	61.2313
26.426	61.493
26.444	61.7309
26.462	61.9329
26.48	62.1126
26.498	62.2628
26.516	62.369
26.534	62.4209
26.552	62.4299
26.57	62.3909
26.588	62.2948
26.606	62.1355
26.624	61.919
26.642	61.6445
26.66	61.3097
26.678	60.9115
26.696	60.4485
26.714	59.9285
26.732	59.3595
26.75	58.7427
26.768	58.068
26.786	57.3509
26.804	56.6089
26.822	55.8468
26.84	55.0472
26.858	54.231
26.876	53.4215
26.894	52.6269
26.912	51.8257
26.93	51.0389
26.948	50.2908
26.966	49.5763
26.984	48.8498
27.002	48.1883
27.02	47.6772
27.028	47.5368