File: Bakgrunnsmateriale/MATLAB/FTIR/ftir_data/subAa/Mapping_121/BZ1503107-1_t111_cm-1.asc
PE IR       SPECTRUM    SPECTRUM    ASCII       PEDS        1.60
  -1
BZ3CF5~1.ASC
17/04/07
22:25:15.00
17/04/07
22:25:15.00
tln
$BZ1503107-1_t0111$<tbV0>[13.0,13.0,8.0,0.0,27,1,0]
370
64

2002,4.07
MIRTGS : RIGHTBACK : INTERNAL 2
MIR : ON : INTERNAL 2
OPTKBR

0.200000
8
8.000000
FILLER
RATIO
SPECTRUM
UNLOCKED 256

DOUBLE
64
COMBINED
1
0
0

1.000000
RATIO

1
0
TRUE
51149
0
LEFT NOT FITTED RIGHT NOT FITTED 0
NONE
NONE
15600
12
4.427000
51148
TRUE
1 0 8 72 0 0 0 0

15798

#HDR
-1
-1
#GR
CM-1
%T
2.38419e-05
0.0
5000
-1.000000
4631
8
74.5137
53.2446
#DATA
5000	64.359
4996	61.6501
4992	60.3905
4988	62.5257
4984	64.3195
4980	63.4186
4976	61.958
4972	62.0899
4968	62.7538
4964	63.3083
4960	63.6724
4956	63.2714
4952	63.0136
4948	63.2107
4944	63.0631
4940	62.9676
4936	63.3599
4932	63.7581
4928	63.7304
4924	63.429
4920	63.4561
4916	63.6864
4912	63.6107
4908	63.4748
4904	63.4311
4900	63.3419
4896	63.4065
4892	63.3571
4888	62.9964
4884	62.8293
4880	62.9082
4876	63.0996
4872	63.4348
4868	63.4413
4864	63.211
4860	63.2353
4856	63.2865
4852	63.2255
4848	63.0588
4844	62.9932
4840	63.1255
4836	63.2404
4832	63.3119
4828	63.2464
4824	63.1059
4820	63.0698
4816	63.0022
4812	62.7934
4808	62.851
4804	63.1777
4800	63.2516
4796	63.1368
4792	63.01
4788	62.7815
4784	62.7143
4780	62.9164
4776	63.0431
4772	62.9658
4768	62.918
4764	62.9649
4760	62.9472
4756	62.9132
4752	62.8824
4748	62.8972
4744	62.9679
4740	63.1293
4736	63.3568
4732	63.5016
4728	63.3936
4724	63.0285
4720	62.8804
4716	62.9878
4712	62.9698
4708	62.8101
4704	62.6351
4700	62.65
4696	62.8869
4692	62.9719
4688	62.954
4684	63.0944
4680	63.1826
4676	63.2724
4672	63.5163
4668	63.5841
4664	63.448
4660	63.2684
4656	63.0357
4652	63.1002
4648	63.3642
4644	63.4186
4640	63.4497
4636	63.4944
4632	63.413
4628	63.3759
4624	63.5532
4620	63.7539
4616	63.7129
4612	63.5428
4608	63.3243
4604	63.132
4600	63.3776
4596	63.8625
4592	64.0115
4588	63.9382
4584	63.7826
4580	63.5727
4576	63.6288
4572	63.943
4568	64.1604
4564	64.232
4560	64.231
4556	64.0461
4552	63.6664
4548	63.4868
4544	63.6902
4540	63.7653
4536	63.6028
4532	63.5947
4528	63.6559
4524	63.6599
4520	63.6814
4516	63.6232
4512	63.5104
4508	63.5207
4504	63.742
4500	63.8777
4496	63.7253
4492	63.559
4488	63.5138
4484	63.7481
4480	64.2061
4476	64.421
4472	64.4546
4468	64.4069
4464	64.316
4460	64.8794
4456	65.4587
4452	65.4599
4448	65.1416
4444	62.0878
4440	56.3908
4436	53.275
4432	54.1631
4428	55.1408
4424	56.0065
4420	59.2666
4416	62.7856
4412	64.6437
4408	64.9312
4404	64.2369
4400	63.8941
4396	64.0655
4392	64.3405
4388	64.6885
4384	64.9052
4380	64.7837
4376	64.5651
4372	64.4745
4368	64.3883
4364	64.2104
4360	64.1686
4356	64.2914
4352	64.2756
4348	64.0462
4344	63.8977
4340	63.9271
4336	64.0077
4332	64.0144
4328	63.9582
4324	64.0023
4320	63.9945
4316	63.7827
4312	63.4822
4308	63.3696
4304	63.5836
4300	63.7211
4296	63.5806
4292	63.4988
4288	63.5341
4284	63.4716
4280	63.4599
4276	63.5924
4272	63.6297
4268	63.5597
4264	63.5077
4260	63.4239
4256	63.3629
4252	63.3437
4248	63.2068
4244	63.1003
4240	63.1792
4236	63.3115
4232	63.4029
4228	63.4027
4224	63.3341
4220	63.2783
4216	63.2741
4212	63.3518
4208	63.3421
4204	63.1524
4200	63.1174
4196	63.2215
4192	63.1693
4188	63.0301
4184	62.9675
4180	63.0557
4176	63.3135
4172	63.4753
4168	63.2727
4164	63.0417
4160	62.9673
4156	62.9163
4152	63.0096
4148	63.1977
4144	63.2812
4140	63.1982
4136	63.1239
4132	63.2255
4128	63.3466
4124	63.3155
4120	63.2153
4116	63.2407
4112	63.3158
4108	63.3249
4104	63.4494
4100	63.6128
4096	63.5574
4092	63.4377
4088	63.4026
4084	63.4101
4080	63.5194
4076	63.6228
4072	63.5146
4068	63.3177
4064	63.278
4060	63.3268
4056	63.3142
4052	63.3041
4048	63.3832
4044	63.4195
4040	63.3356
4036	63.289
4032	63.2968
4028	63.2975
4024	63.3184
4020	63.4455
4016	63.6872
4012	63.7532
4008	63.5038
4004	63.2495
4000	63.1872
3996	63.2697
3992	63.3847
3988	63.3468
3984	63.1734
3980	63.0167
3976	62.9635
3972	63.0341
3968	63.1249
3964	63.2167
3960	63.2955
3956	63.3371
3952	63.3577
3948	63.3306
3944	63.3578
3940	63.417
3936	63.3967
3932	63.3806
3928	63.4041
3924	63.4574
3920	63.5029
3916	63.4844
3912	63.4797
3908	63.5666
3904	63.5906
3900	63.3959
3896	63.1499
3892	63.1802
3888	63.5056
3884	63.7105
3880	63.7788
3876	63.8272
3872	63.5851
3868	63.1989
3864	63.1077
3860	63.3439
3856	63.5507
3852	63.5885
3848	63.6042
3844	63.6062
3840	63.5169
3836	63.4164
3832	63.4416
3828	63.4388
3824	63.3171
3820	63.2581
3816	63.2904
3812	63.3778
3808	63.4988
3804	63.5558
3800	63.5213
3796	63.4507
3792	63.3896
3788	63.3037
3784	63.2605
3780	63.3845
3776	63.5259
3772	63.5334
3768	63.4475
3764	63.3471
3760	63.3355
3756	63.3777
3752	63.3645
3748	63.3811
3744	63.4397
3740	63.4054
3736	63.2853
3732	63.2191
3728	63.2586
3724	63.2655
3720	63.2303
3716	63.2285
3712	63.1835
3708	63.1122
3704	63.0986
3700	63.0935
3696	63.1083
3692	63.2615
3688	63.3548
3684	63.2291
3680	63.1569
3676	63.2537
3672	63.408
3668	63.4597
3664	63.3993
3660	63.4087
3656	63.4031
3652	63.2596
3648	63.1232
3644	63.1231
3640	63.2356
3636	63.369
3632	63.5138
3628	63.5579
3624	63.4462
3620	63.3837
3616	63.4179
3612	63.4899
3608	63.4732
3604	63.312
3600	63.2882
3596	63.4436
3592	63.487
3588	63.3912
3584	63.3352
3580	63.3862
3576	63.4279
3572	63.4238
3568	63.4561
3564	63.4897
3560	63.5044
3556	63.4814
3552	63.4217
3548	63.3616
3544	63.3102
3540	63.3248
3536	63.3571
3532	63.3365
3528	63.2986
3524	63.2269
3520	63.1522
3516	63.1907
3512	63.2834
3508	63.2961
3504	63.2183
3500	63.1249
3496	63.1383
3492	63.2841
3488	63.3572
3484	63.3046
3480	63.3596
3476	63.4659
3472	63.4529
3468	63.3304
3464	63.1935
3460	63.156
3456	63.1643
3452	63.1816
3448	63.1882
3444	63.1412
3440	63.1451
3436	63.2324
3432	63.3091
3428	63.3621
3424	63.3894
3420	63.3985
3416	63.43
3412	63.4284
3408	63.4222
3404	63.5275
3400	63.6683
3396	63.7539
3392	63.7285
3388	63.547
3384	63.3858
3380	63.3871
3376	63.5002
3372	63.5813
3368	63.5412
3364	63.5101
3360	63.5341
3356	63.5633
3352	63.597
3348	63.5696
3344	63.4439
3340	63.3031
3336	63.2642
3332	63.3222
3328	63.3844
3324	63.3848
3320	63.3251
3316	63.2725
3312	63.2447
3308	63.2335
3304	63.2393
3300	63.2299
3296	63.2326
3292	63.2645
3288	63.2986
3284	63.3286
3280	63.2865
3276	63.1606
3272	63.0913
3268	63.1003
3264	63.0963
3260	63.1325
3256	63.2294
3252	63.2885
3248	63.2896
3244	63.2241
3240	63.0934
3236	63.0351
3232	63.0874
3228	63.0858
3224	63.0101
3220	62.9803
3216	62.9984
3212	63.0208
3208	63.0276
3204	63.0171
3200	63.053
3196	63.096
3192	63.1109
3188	63.1949
3184	63.2891
3180	63.2874
3176	63.2357
3172	63.2022
3168	63.185
3164	63.1549
3160	63.1559
3156	63.2112
3152	63.2264
3148	63.1656
3144	63.123
3140	63.1517
3136	63.2155
3132	63.2423
3128	63.2579
3124	63.3306
3120	63.3302
3116	63.2698
3112	63.2756
3108	63.264
3104	63.302
3100	63.4231
3096	63.468
3092	63.4595
3088	63.4452
3084	63.4035
3080	63.3604
3076	63.3088
3072	63.2574
3068	63.2233
3064	63.1915
3060	63.1907
3056	63.1953
3052	63.1497
3048	63.129
3044	63.1897
3040	63.2444
3036	63.2332
3032	63.2386
3028	63.2563
3024	63.1872
3020	63.1248
3016	63.1284
3012	63.1152
3008	63.1224
3004	63.1468
3000	63.1486
2996	63.151
2992	63.136
2988	63.0519
2984	62.9171
2980	62.8769
2976	62.9479
2972	63.0099
2968	62.992
2964	62.8871
2960	62.8122
2956	62.878
2952	62.9738
2948	62.9794
2944	62.9383
2940	62.8962
2936	62.9218
2932	62.9901
2928	62.9867
2924	62.9441
2920	62.9248
2916	62.931
2912	62.9176
2908	62.879
2904	62.8792
2900	62.8763
2896	62.8829
2892	62.9752
2888	63.0332
2884	62.9805
2880	62.9441
2876	63.024
2872	63.1257
2868	63.1341
2864	63.1258
2860	63.1623
2856	63.146
2852	63.0819
2848	63.0851
2844	63.1663
2840	63.2392
2836	63.2403
2832	63.1593
2828	63.0868
2824	63.115
2820	63.1447
2816	63.1152
2812	63.0854
2808	63.0797
2804	63.0538
2800	62.9979
2796	62.9977
2792	63.032
2788	63.0197
2784	63.0109
2780	63.056
2776	63.1075
2772	63.1187
2768	63.1036
2764	63.0786
2760	63.0298
2756	62.9954
2752	62.993
2748	62.9657
2744	62.9389
2740	62.9632
2736	62.9976
2732	63.0349
2728	63.0594
2724	63.0196
2720	62.9751
2716	62.9853
2712	62.991
2708	62.9581
2704	62.9722
2700	62.997
2696	62.9462
2692	62.9335
2688	62.9856
2684	63.0199
2680	63.0261
2676	62.9983
2672	62.9838
2668	63.0136
2664	63.0533
2660	63.0524
2656	63.0208
2652	63.0113
2648	62.9942
2644	63.0134
2640	63.0823
2636	63.0934
2632	63.0598
2628	63.0655
2624	63.0827
2620	63.0711
2616	63.0602
2612	63.0763
2608	63.1432
2604	63.2182
2600	63.2252
2596	63.1553
2592	63.0963
2588	63.0767
2584	63.0856
2580	63.1435
2576	63.1361
2572	63.0344
2568	62.966
2564	62.9708
2560	63.0117
2556	63.0301
2552	63.0125
2548	63.0448
2544	63.0696
2540	63.0065
2536	62.9844
2532	63.0322
2528	63.0549
2524	63.0227
2520	62.9397
2516	62.8711
2512	62.8976
2508	62.9615
2504	62.9514
2500	62.8781
2496	62.8186
2492	62.8133
2488	62.8705
2484	62.926
2480	62.9254
2476	62.9009
2472	62.8798
2468	62.8122
2464	62.7225
2460	62.7686
2456	62.9031
2452	62.9431
2448	62.9047
2444	62.8953
2440	62.8866
2436	62.8619
2432	62.892
2428	62.8623
2424	62.7307
2420	62.7223
2416	62.8334
2412	62.8818
2408	62.8675
2404	62.9055
2400	62.9773
2396	62.9524
2392	62.8723
2388	62.8288
2384	62.8126
2380	62.8345
2376	62.8878
2372	62.9311
2368	62.9459
2364	62.9385
2360	62.9105
2356	62.8734
2352	62.8857
2348	62.9388
2344	62.9499
2340	62.9256
2336	62.9376
2332	62.9765
2328	62.9553
2324	62.8966
2320	62.8665
2316	62.8033
2312	62.7327
2308	62.752
2304	62.8238
2300	62.8928
2296	62.9004
2292	62.8211
2288	62.7745
2284	62.8002
2280	62.798
2276	62.7305
2272	62.6754
2268	62.6846
2264	62.6964
2260	62.6816
2256	62.6723
2252	62.6723
2248	62.6729
2244	62.6711
2240	62.6564
2236	62.6233
2232	62.6029
2228	62.6261
2224	62.6846
2220	62.7561
2216	62.7972
2212	62.8094
2208	62.831
2204	62.8405
2200	62.8099
2196	62.7389
2192	62.689
2188	62.723
2184	62.7862
2180	62.8328
2176	62.8374
2172	62.7523
2168	62.6928
2164	62.7635
2160	62.8186
2156	62.7585
2152	62.6719
2148	62.664
2144	62.7345
2140	62.8164
2136	62.8471
2132	62.8204
2128	62.8219
2124	62.8214
2120	62.7858
2116	62.8051
2112	62.8147
2108	62.7716
2104	62.7467
2100	62.7239
2096	62.699
2092	62.6969
2088	62.7
2084	62.7209
2080	62.7249
2076	62.6668
2072	62.6283
2068	62.629
2064	62.596
2060	62.5654
2056	62.5773
2052	62.5747
2048	62.5473
2044	62.5364
2040	62.5203
2036	62.4648
2032	62.4398
2028	62.4847
2024	62.5169
2020	62.4898
2016	62.4608
2012	62.47
2008	62.4775
2004	62.4762
2000	62.4556
1996	62.3974
1992	62.3835
1988	62.4172
1984	62.4132
1980	62.3832
1976	62.3831
1972	62.3991
1968	62.376
1964	62.3606
1960	62.3904
1956	62.4341
1952	62.4866
1948	62.5037
1944	62.4942
1940	62.5263
1936	62.5768
1932	62.5813
1928	62.553
1924	62.5486
1920	62.5478
1916	62.5177
1912	62.4977
1908	62.5092
1904	62.531
1900	62.5458
1896	62.5577
1892	62.5681
1888	62.5508
1884	62.5235
1880	62.5049
1876	62.4897
1872	62.4958
1868	62.4767
1864	62.4323
1860	62.4406
1856	62.4689
1852	62.4601
1848	62.4315
1844	62.4129
1840	62.4192
1836	62.4231
1832	62.3895
1828	62.3562
1824	62.3814
1820	62.3955
1816	62.3367
1812	62.3294
1808	62.4029
1804	62.419
1800	62.3799
1796	62.3464
1792	62.2995
1788	62.3178
1784	62.4125
1780	62.4123
1776	62.3444
1772	62.3179
1768	62.2837
1764	62.2473
1760	62.2305
1756	62.2305
1752	62.2304
1748	62.1909
1744	62.1573
1740	62.0972
1736	61.9712
1732	61.9036
1728	61.9407
1724	62.0107
1720	62.036
1716	62.0233
1712	62.0544
1708	62.0883
1704	62.0814
1700	62.1054
1696	62.1881
1692	62.2694
1688	62.2973
1684	62.2901
1680	62.26
1676	62.1935
1672	62.11
1668	62.0709
1664	62.1173
1660	62.16
1656	62.1364
1652	62.0783
1648	62.0444
1644	62.1156
1640	62.2069
1636	62.2358
1632	62.2354
1628	62.1485
1624	62.0382
1620	62.054
1616	62.1197
1612	62.1227
1608	62.1064
1604	62.1026
1600	62.0718
1596	62.0561
1592	62.0752
1588	62.057
1584	62.0539
1580	62.1009
1576	62.0952
1572	62.0437
1568	62.0001
1564	61.9737
1560	61.979
1556	62.0224
1552	62.0519
1548	62.0096
1544	61.9284
1540	61.9081
1536	61.9781
1532	62.0448
1528	62.0535
1524	62.062
1520	62.0767
1516	62.0466
1512	61.9799
1508	61.9306
1504	61.9473
1500	62.01
1496	62.0607
1492	61.996
1488	61.8158
1484	61.7182
1480	61.7005
1476	61.666
1472	61.6707
1468	61.7341
1464	61.7914
1460	61.8328
1456	61.8365
1452	61.7653
1448	61.7249
1444	61.7831
1440	61.8447
1436	61.8296
1432	61.7729
1428	61.7678
1424	61.8155
1420	61.8491
1416	61.8499
1412	61.8084
1408	61.7841
1404	61.8387
1400	61.8845
1396	61.8593
1392	61.7689
1388	61.6637
1384	61.6484
1380	61.7411
1376	61.8432
1372	61.8703
1368	61.8404
1364	61.809
1360	61.7569
1356	61.7409
1352	61.8321
1348	61.9185
1344	61.9491
1340	61.9376
1336	61.9001
1332	61.8894
1328	61.9006
1324	61.9042
1320	61.8705
1316	61.8451
1312	61.8615
1308	61.8363
1304	61.7666
1300	61.7496
1296	61.7094
1292	61.5863
1288	61.5314
1284	61.5627
1280	61.5678
1276	61.5549
1272	61.5718
1268	61.5757
1264	61.5004
1260	61.4052
1256	61.3703
1252	61.3809
1248	61.3876
1244	61.3255
1240	61.1958
1236	61.1228
1232	61.1567
1228	61.225
1224	61.2886
1220	61.3135
1216	61.3503
1212	61.4257
1208	61.3754
1204	61.2304
1200	61.2041
1196	61.2911
1192	61.3435
1188	61.313
1184	61.2551
1180	61.2309
1176	61.2308
1172	61.231
1168	61.2437
1164	61.2415
1160	61.2025
1156	61.1816
1152	61.1965
1148	61.1742
1144	61.1531
1140	61.1372
1136	61.0836
1132	61.0556
1128	61.0927
1124	61.1504
1120	61.1203
1116	61.069
1112	61.1321
1108	61.1631
1104	61.117
1100	61.09
1096	61.0523
1092	60.9782
1088	60.9223
1084	60.9024
1080	60.8643
1076	60.814
1072	60.8514
1068	60.9886
1064	61.0513
1060	60.9997
1056	60.9621
1052	60.9918
1048	61.0692
1044	61.0827
1040	61.0054
1036	60.9352
1032	60.8931
1028	60.8632
1024	60.851
1020	60.8172
1016	60.7405
1012	60.6973
1008	60.7676
1004	60.8513
1000	60.8225
996	 60.7712
992	 60.7351
988	 60.7348
984	 60.8612
980	 60.9059
976	 60.7598
972	 60.6516
968	 60.5999
964	 60.5267
960	 60.5335
956	 60.6218
952	 60.6362
948	 60.5936
944	 60.5672
940	 60.5229
936	 60.5368
932	 60.6395
928	 60.7054
924	 60.7469
920	 60.8268
916	 60.8659
912	 60.8293
908	 60.7769
904	 60.7974
900	 60.8708
896	 60.9006
892	 60.8638
888	 60.7224
884	 60.5829
880	 60.6338
876	 60.7919
872	 60.8873
868	 60.9305
864	 60.947
860	 60.8709
856	 60.7784
852	 60.7619
848	 60.7263
844	 60.6909
840	 60.6754
836	 60.6057
832	 60.6424
828	 60.8433
824	 60.9836
820	 60.9871
816	 60.9008
812	 60.7787
808	 60.6838
804	 60.695
800	 60.7616
796	 60.7295
792	 60.714
788	 60.7789
784	 60.7326
780	 60.5996
776	 60.5871
772	 60.6001
768	 60.4737
764	 60.3794
760	 60.4875
756	 60.628
752	 60.6402
748	 60.6352
744	 60.6303
740	 60.5632
736	 60.4277
732	 60.2808
728	 60.1837
724	 60.1155
720	 60.1651
716	 60.3328
712	 60.4001
708	 60.285
704	 60.1762
700	 60.1699
696	 60.2553
692	 60.4062
688	 60.4022
684	 60.2989
680	 60.2207
676	 60.0439
672	 59.9415
668	 60.145
664	 60.3672
660	 60.1422
656	 59.7114
652	 59.6148
648	 59.8617
644	 60.1323
640	 60.1465
636	 59.9451
632	 59.8168
628	 59.8732
624	 59.714
620	 59.2922
616	 59.4862
612	 60.2086
608	 60.1243
604	 59.5396
600	 59.7503
596	 60.092
592	 59.7201
588	 59.3239
584	 59.4394
580	 59.4873
576	 58.9337
572	 58.6304
568	 59.5626
564	 60.3971
560	 60.0997
556	 60.22
552	 61.056
548	 61.3779
544	 61.0472
540	 60.7481
536	 60.6706
532	 60.3838
528	 59.8673
524	 59.136
520	 58.6777
516	 59.1287
512	 59.6853
508	 59.5331
504	 59.1225
500	 59.1326
496	 59.3706
492	 59.4898
488	 59.5594
484	 59.3489
480	 59.1337
476	 59.2684
472	 59.6287
468	 60.1965
464	 60.2015
460	 59.4576
456	 59.1781
452	 59.6164
448	 59.6215
444	 58.366
440	 57.1917
436	 58.007
432	 59.9852
428	 61.0557
424	 60.7962
420	 59.8934
416	 58.7482
412	 57.8961
408	 57.7355
404	 57.2223
400	 58.0997
396	 61.5034
392	 63.8535
388	 67.9782
384	 73.8808
380	 72.7015
376	 63.3992
372	 54.3219
370	 55.7547