File: Bakgrunnsmateriale/MATLAB/FTIR/ftir_data/subAa/Mapping_121/BZ1503107-1_t21.asc
PE IR       SPECTRUM    SPECTRUM    ASCII       PEDS        1.60
  -1
BZ2D49~1.ASC
17/04/07
14:53:27.00
17/04/07
14:53:54.00
tln
$BZ1503107-1_t0021$<tbV0>[-10.4,-10.4,8.0,0.0,27,1,0]
27.028
64

2002,4.07
MIRTGS : RIGHTBACK : INTERNAL 2
MIR : ON : INTERNAL 2
OPTKBR

0.200000
8
8.000000
FILLER
RATIO
SPECTRUM
UNLOCKED 256

DOUBLE
64
COMBINED
1
0
0

0.002000
RATIO

1
0
TRUE
51149
0
LEFT NOT FITTED RIGHT NOT FITTED 0
NONE
NONE
15600
12
4.427000
51148
TRUE
1 0 8 72 0 0 0 0

15798

#HDR
-1
-1
#GR
µM
%T
2.38419e-05
0.0
2.000000
0.002000
12515
8
72.9187
22.9309
#DATA
2.000000	 64.9513
2.018000	 65.0484
2.036000	 64.5601
2.054000	 64.7834
2.072000	 65.2095
2.090000	 65.6934
2.108000	 64.9565
2.126000	 64.5013
2.144000	 64.7467
2.162000	 64.6094
2.180000	 64.7957
2.198000	 64.6221
2.216000	 64.433
2.234000	 67.5374
2.252000	 59.1047
2.270000	 65.3573
2.288000	 64.8156
2.306000	 64.7083
2.324000	 64.9012
2.342000	 65.031
2.360000	 64.9609
2.378000	 64.9505
2.396000	 64.7886
2.414000	 64.9784
2.432000	 65.1842
2.450000	 65.3083
2.468000	 65.1498
2.486000	 64.9668
2.504000	 64.9456
2.522000	 65.3271
2.540000	 65.1269
2.558000	 64.9909
2.576000	 65.1713
2.594000	 65.1779
2.612000	 65.0793
2.630000	 65.2615
2.648000	 64.922
2.666000	 65.5887
2.684000	 65.1872
2.702000	 65.1293
2.720000	 65.3378
2.738000	 65.1808
2.756000	 65.4078
2.774000	 65.1485
2.792000	 65.3156
2.810000	 64.9713
2.828000	 65.3125
2.846000	 65.1134
2.864000	 65.0845
2.882000	 65.0542
2.900000	 65.0359
2.918000	 65.2827
2.936000	 65.1439
2.954000	 64.9912
2.972000	 65.1714
2.990000	 65.1856
3.008000	 65.1812
3.026000	 65.0823
3.044000	 65.137
3.062000	 65.0789
3.080000	 65.0443
3.098000	 65.0639
3.116000	 65.1779
3.134000	 65.1298
3.152000	 65.2197
3.170000	 65.2534
3.188000	 65.3417
3.206000	 65.2446
3.224000	 65.3206
3.242000	 65.1092
3.260000	 65.2328
3.278000	 65.0444
3.296000	 65.1856
3.314000	 65.2263
3.332000	 65.3039
3.350000	 65.0876
3.368000	 65.1032
3.386000	 64.9147
3.404000	 65.0138
3.422000	 64.9692
3.440000	 64.9494
3.458000	 65.1148
3.476000	 65.0706
3.494000	 65.124
3.512000	 64.9785
3.530000	 65.0658
3.548000	 65.0284
3.566000	 65.0228
3.584000	 65.034
3.602000	 65.0735
3.620000	 65.0699
3.638000	 65.1277
3.656000	 65.0973
3.674000	 64.9866
3.692000	 65.0021
3.710000	 65.1565
3.728000	 65.0187
3.746000	 64.9712
3.764000	 64.9962
3.782000	 65.0464
3.800000	 65.0633
3.818000	 65.0116
3.836000	 65.1376
3.854000	 64.9976
3.872000	 65.1417
3.890000	 65.0314
3.908000	 65.1186
3.926000	 64.9979
3.944000	 65.2863
3.962000	 65.2194
3.980000	 65.1507
3.998000	 65.099
4.016000	 64.9225
4.034000	 65.0286
4.052000	 65.0369
4.070000	 65.0048
4.088000	 65.007
4.106000	 65.0536
4.124000	 65.0154
4.141999	 65.0908
4.160000	 64.7985
4.178000	 65.0839
4.196000	 65.1253
4.214000	 64.9733
4.232000	 65.029
4.250000	 65.0621
4.268000	 64.9845
4.286000	 65.0415
4.304000	 64.9754
4.322000	 64.9946
4.340000	 65.0583
4.358000	 64.9017
4.375999	 64.8726
4.394000	 64.9469
4.412000	 64.9136
4.430000	 64.9696
4.448000	 65.0026
4.466000	 64.9355
4.484000	 64.824
4.502000	 64.9185
4.520000	 64.9164
4.538000	 64.9684
4.556000	 64.9419
4.574000	 64.8549
4.592000	 64.8152
4.609999	 64.956
4.628000	 64.9249
4.646000	 64.8625
4.664000	 64.7528
4.682000	 64.8039
4.700000	 64.9403
4.718000	 64.8751
4.736000	 64.8366
4.754000	 64.7932
4.772000	 64.8514
4.790000	 64.8671
4.808000	 64.8696
4.826000	 64.8993
4.843999	 64.6309
4.862000	 64.785
4.880000	 64.9348
4.898000	 64.9047
4.916000	 64.9867
4.934000	 64.9135
4.952000	 64.843
4.970000	 64.8992
4.988000	 64.8828
5.006000	 64.9565
5.024000	 64.856
5.042000	 64.8158
5.060000	 64.8933
5.077999	 64.9587
5.096000	 64.8321
5.114000	 64.807
5.132000	 64.8079
5.150000	 64.8049
5.168000	 64.7627
5.186000	 64.756
5.204000	 64.8834
5.222000	 64.9772
5.240000	 64.8979
5.258000	 64.8227
5.276000	 64.8302
5.294000	 64.9033
5.312000	 64.7846
5.330000	 64.8355
5.348000	 64.8569
5.366000	 64.8036
5.384000	 64.7301
5.402000	 64.816
5.420000	 64.7574
5.438000	 64.7171
5.456000	 64.7718
5.474000	 64.7424
5.492000	 64.7646
5.510000	 64.8295
5.528000	 64.7993
5.546000	 64.7518
5.564000	 64.7749
5.582000	 64.7574
5.600000	 64.7659
5.618000	 64.8134
5.636000	 64.8869
5.654000	 64.8504
5.672000	 64.8038
5.690000	 64.7722
5.708000	 64.6734
5.726000	 64.5257
5.744000	 64.4925
5.762000	 64.5536
5.780000	 64.5056
5.798000	 64.455
5.816000	 64.6911
5.834000	 64.8254
5.852000	 64.7308
5.870000	 64.7612
5.888000	 64.8344
5.906000	 64.6853
5.923999	 64.6952
5.942000	 64.7736
5.960000	 64.6684
5.978000	 64.7212
5.996000	 64.8213
6.014000	 64.7872
6.032000	 64.7874
6.050000	 64.8416
6.068000	 64.7318
6.086000	 64.6425
6.104000	 64.6508
6.122000	 64.7128
6.140000	 64.7524
6.158000	 64.7339
6.176000	 64.7266
6.194000	 64.6597
6.212000	 64.5381
6.230000	 64.5443
6.248000	 64.6031
6.266000	 64.6599
6.284000	 64.6907
6.302000	 64.6378
6.320000	 64.6838
6.338000	 64.8828
6.356000	 64.8768
6.374000	 64.7376
6.392000	 64.7294
6.410000	 64.8279
6.428000	 64.8246
6.446000	 64.7484
6.464000	 64.7609
6.482000	 64.7829
6.500000	 64.7382
6.518000	 64.6948
6.536000	 64.6692
6.554000	 64.6445
6.572000	 64.6376
6.590000	 64.6791
6.608000	 64.765
6.626000	 64.8494
6.644000	 64.8357
6.662000	 64.7009
6.680000	 64.589
6.698000	 64.5643
6.716000	 64.58
6.734000	 64.5799
6.752000	 64.5549
6.770000	 64.5865
6.788000	 64.6387
6.806000	 64.6377
6.824000	 64.6065
6.842000	 64.5594
6.860000	 64.5376
6.878000	 64.5569
6.896000	 64.6093
6.914000	 64.6742
6.932000	 64.7082
6.950000	 64.7271
6.968000	 64.7167
6.986000	 64.635
7.004000	 64.5009
7.022000	 64.4231
7.040000	 64.48
7.058000	 64.5464
7.076000	 64.5082
7.094000	 64.4303
7.112000	 64.377
7.130000	 64.3939
7.148000	 64.4968
7.166000	 64.5627
7.184000	 64.5158
7.202000	 64.4535
7.220000	 64.4159
7.238000	 64.3456
7.256000	 64.2699
7.274000	 64.253
7.292000	 64.2941
7.310000	 64.3631
7.328000	 64.4313
7.346000	 64.4914
7.364000	 64.5478
7.382000	 64.5583
7.400000	 64.4943
7.418000	 64.4282
7.436000	 64.4134
7.454000	 64.4067
7.472000	 64.3998
7.490000	 64.4228
7.508000	 64.4331
7.526000	 64.4011
7.544000	 64.3815
7.562000	 64.4028
7.580000	 64.4117
7.598000	 64.3685
7.616000	 64.3034
7.634000	 64.2542
7.652000	 64.2222
7.670000	 64.2146
7.688000	 64.2595
7.706000	 64.3442
7.724000	 64.413
7.742000	 64.4415
7.760000	 64.4477
7.778000	 64.4356
7.796000	 64.396
7.814000	 64.3425
7.832000	 64.2967
7.850000	 64.2598
7.868000	 64.2273
7.886000	 64.2125
7.904000	 64.2314
7.922000	 64.2707
7.940000	 64.2967
7.958000	 64.3051
7.976000	 64.3172
7.994000	 64.3287
8.012000	 64.308
8.030000	 64.2512
8.048000	 64.1969
8.065999	 64.1803
8.084000	 64.2005
8.102000	 64.2352
8.120000	 64.2737
8.138000	 64.3158
8.155999	 64.3464
8.173999	 64.3387
8.192000	 64.2979
8.210000	 64.2652
8.228000	 64.2609
8.246000	 64.2521
8.263999	 64.2096
8.282000	 64.1666
8.300000	 64.1816
8.318000	 64.2602
8.336000	 64.3477
8.353999	 64.3909
8.372000	 64.3811
8.390000	 64.3458
8.408000	 64.31
8.426000	 64.2726
8.443999	 64.2144
8.462000	 64.1321
8.480000	 64.0552
8.498000	 64.0235
8.516000	 64.0476
8.533999	 64.0998
8.552000	 64.1425
8.570000	 64.1601
8.588000	 64.1668
8.606000	 64.1833
8.624000	 64.2056
8.641999	 64.206
8.660000	 64.1721
8.678000	 64.13
8.696000	 64.1128
8.714000	 64.1232
8.731999	 64.142
8.750000	 64.1579
8.768000	 64.1785
8.786000	 64.2129
8.804000	 64.2581
8.821999	 64.3008
8.840000	 64.3263
8.858000	 64.327
8.876000	 64.3068
8.894000	 64.2756
8.911999	 64.2431
8.930000	 64.2203
8.948000	 64.2156
8.966000	 64.2199
8.984000	 64.2048
9.001999	 64.1481
9.020000	 64.0615
9.038000	 63.9858
9.056000	 63.9569
9.074000	 63.9793
9.092000	 64.0335
9.109999	 64.0979
9.128000	 64.1579
9.146000	 64.2007
9.164000	 64.2206
9.182000	 64.2306
9.199999	 64.256
9.218000	 64.3055
9.236000	 64.3562
9.254000	 64.3741
9.272000	 64.3486
9.289999	 64.3003
9.308000	 64.2578
9.326000	 64.2325
9.344000	 64.2181
9.362000	 64.2042
9.379999	 64.1852
9.398000	 64.1591
9.416000	 64.1283
9.434000	 64.0991
9.452000	 64.0787
9.469999	 64.0673
9.488000	 64.0579
9.506000	 64.0437
9.524000	 64.0266
9.542000	 64.0152
9.560000	 64.0154
9.577999	 64.0252
9.596000	 64.0381
9.614000	 64.0497
9.632000	 64.0589
9.650000	 64.0673
9.667999	 64.0778
9.686000	 64.0898
9.704000	 64.0996
9.722000	 64.1014
9.740000	 64.0935
9.757999	 64.0806
9.776000	 64.0721
9.794000	 64.0742
9.812000	 64.0843
9.830000	 64.0919
9.847999	 64.0863
9.866000	 64.0635
9.884000	 64.0277
9.902000	 63.9914
9.920000	 63.9714
9.937999	 63.9829
9.956000	 64.0328
9.974000	 64.115
9.992000	 64.2141
10.01	64.3122
10.028	64.3945
10.046	64.4519
10.064	64.4794
10.082	64.4761
10.1	64.4463
10.118	64.4028
10.136	64.3612
10.154	64.3313
10.172	64.3116
10.19	64.2888
10.208	64.2483
10.226	64.1852
10.244	64.1094
10.262	64.0427
10.28	64.0049
10.298	64.0047
10.316	64.0345
10.334	64.0752
10.352	64.1082
10.37	64.1235
10.388	64.1258
10.406	64.1279
10.424	64.1413
10.442	64.1687
10.46	64.2054
10.478	64.2451
10.496	64.2834
10.514	64.3163
10.532	64.3387
10.55	64.3456
10.568	64.3367
10.586	64.3205
10.604	64.3095
10.622	64.3142
10.64	64.3333
10.658	64.3535
10.676	64.3564
10.694	64.332
10.712	64.2852
10.73	64.2338
10.748	64.1974
10.766	64.1851
10.784	64.1913
10.802	64.201
10.82	64.2033
10.838	64.1975
10.856	64.1938
10.874	64.2053
10.892	64.2376
10.91	64.2857
10.928	64.3361
10.946	64.3715
10.964	64.3796
10.982	64.3561
11	64.3074
11.018	64.2481
11.036	64.1958
11.054	64.1659
11.072	64.1653
11.09	64.189
11.108	64.2227
11.126	64.2471
11.144	64.249
11.162	64.2251
11.18	64.184
11.198	64.1413
11.216	64.1122
11.234	64.1053
11.252	64.1211
11.27	64.1524
11.288	64.1881
11.306	64.2194
11.324	64.2429
11.342	64.2618
11.36	64.2826
11.378	64.3102
11.396	64.3441
11.414	64.3766
11.432	64.3949
11.45	64.3874
11.468	64.3484
11.486	64.2812
11.504	64.1976
11.522	64.1146
11.54	64.0468
11.558	64.0037
11.576	63.9876
11.594	63.996
11.612	64.0231
11.63	64.0628
11.648	64.1105
11.666	64.1622
11.684	64.2144
11.702	64.2645
11.72	64.3091
11.738	64.3456
11.756	64.372
11.774	64.3869
11.792	64.3905
11.81	64.3842
11.828	64.3703
11.846	64.3516
11.864	64.3302
11.882	64.3069
11.9	64.281
11.918	64.2502
11.936	64.2124
11.954	64.1661
11.972	64.1127
11.99	64.0571
12.008	64.0073
12.026	63.9726
12.044	63.9607
12.062	63.9746
12.08	64.0107
12.098	64.0597
12.116	64.1091
12.134	64.1472
12.152	64.1666
12.17	64.1659
12.188	64.1495
12.206	64.1251
12.224	64.1007
12.242	64.082
12.26	64.0715
12.278	64.0683
12.296	64.0689
12.314	64.0691
12.332	64.0658
12.35	64.0572
12.368	64.0438
12.386	64.0276
12.404	64.0119
12.422	64.0002
12.44	63.9958
12.458	64.0008
12.476	64.0151
12.494	64.0362
12.512	64.0598
12.53	64.08
12.548	64.0913
12.566	64.0904
12.584	64.0772
12.602	64.0554
12.62	64.0319
12.638	64.0141
12.656	64.0082
12.674	64.0165
12.692	64.0377
12.71	64.066
12.728	64.0937
12.746	64.1135
12.764	64.1197
12.782	64.1102
12.8	64.0858
12.818	64.0505
12.836	64.01
12.854	63.9705
12.872	63.937
12.89	63.9128
12.908	63.8992
12.926	63.8956
12.944	63.8995
12.962	63.9076
12.98	63.9159
12.998	63.9216
13.016	63.9233
13.034	63.9215
13.052	63.9189
13.07	63.9197
13.088	63.9284
13.106	63.9488
13.124	63.9832
13.142	64.0309
13.16	64.0891
13.178	64.1522
13.196	64.214
13.214	64.2667
13.232	64.3036
13.25	64.3186
13.268	64.3077
13.286	64.2697
13.304	64.2059
13.322	64.1216
13.34	64.0244
13.358	63.9249
13.376	63.8345
13.394	63.7646
13.412	63.7241
13.43	63.7181
13.448	63.7467
13.466	63.8049
13.484	63.8834
13.502	63.9707
13.52	64.055
13.538	64.126
13.556	64.1768
13.574	64.2046
13.592	64.2103
13.61	64.1977
13.628	64.1721
13.646	64.1393
13.664	64.104
13.682	64.07
13.7	64.0394
13.718	64.0133
13.736	63.9917
13.754	63.9747
13.772	63.962
13.79	63.9538
13.808	63.9503
13.826	63.9513
13.844	63.9563
13.862	63.9645
13.88	63.9748
13.898	63.986
13.916	63.9969
13.934	64.0065
13.952	64.014
13.97	64.0187
13.988	64.0207
14.006	64.0194
14.024	64.0146
14.042	64.006
14.06	63.9937
14.078	63.9783
14.096	63.9611
14.114	63.9439
14.132	63.9288
14.15	63.9182
14.168	63.9144
14.186	63.9192
14.204	63.9332
14.222	63.9555
14.24	63.9834
14.258	64.0137
14.276	64.0424
14.294	64.0656
14.312	64.0803
14.33	64.0846
14.348	64.0783
14.366	64.0625
14.384	64.0397
14.402	64.0128
14.42	63.9843
14.438	63.9568
14.456	63.9321
14.474	63.9115
14.492	63.8962
14.51	63.8871
14.528	63.8855
14.546	63.8922
14.564	63.9078
14.582	63.9323
14.6	63.9647
14.618	64.0028
14.636	64.0423
14.654	64.0782
14.672	64.1048
14.69	64.1169
14.708	64.1101
14.726	64.082
14.744	64.0327
14.762	63.9659
14.78	63.8871
14.798	63.8032
14.816	63.7215
14.834	63.6493
14.852	63.5929
14.87	63.5556
14.888	63.5386
14.906	63.5409
14.924	63.5595
14.942	63.5898
14.96	63.6267
14.978	63.6651
14.996	63.701
15.014	63.7308
15.032	63.7518
15.05	63.7637
15.068	63.7669
15.086	63.7628
15.104	63.7536
15.122	63.7421
15.14	63.7306
15.158	63.721
15.176	63.7145
15.194	63.7115
15.212	63.7116
15.23	63.7131
15.248	63.7145
15.266	63.7137
15.284	63.7083
15.302	63.6972
15.32	63.6804
15.338	63.659
15.356	63.6357
15.374	63.6148
15.392	63.6006
15.41	63.5972
15.428	63.6084
15.446	63.6368
15.464	63.683
15.482	63.746
15.5	63.8236
15.518	63.9109
15.536	64.0025
15.554	64.0937
15.572	64.1793
15.59	64.2542
15.608	64.3156
15.626	64.3617
15.644	64.3914
15.662	64.4052
15.68	64.4045
15.698	64.391
15.716	64.3677
15.734	64.3379
15.752	64.3038
15.77	64.2681
15.788	64.2335
15.806	64.2016
15.824	64.1733
15.842	64.1497
15.86	64.1307
15.878	64.1149
15.896	64.1012
15.914	64.0868
15.932	64.0689
15.95	64.0453
15.968	64.0141
15.986	63.9743
16.004	63.9271
16.022	63.8739
16.04	63.8195
16.058	63.7689
16.076	63.7266
16.094	63.6997
16.112	63.6932
16.13	63.7098
16.148	63.7524
16.166	63.8192
16.184	63.9069
16.202	64.0113
16.22	64.1223
16.238	64.2321
16.256	64.3328
16.274	64.4127
16.292	64.4664
16.31	64.4886
16.328	64.4755
16.346	64.4287
16.364	64.3495
16.382	64.2445
16.4	64.1215
16.418	63.9869
16.436	63.8526
16.454	63.7269
16.472	63.6161
16.49	63.5293
16.508	63.47
16.526	63.4409
16.544	63.443
16.562	63.4739
16.58	63.5317
16.598	63.6099
16.616	63.7032
16.634	63.8066
16.652	63.9109
16.67	64.0115
16.688	64.1033
16.706	64.1798
16.724	64.2393
16.742	64.2792
16.76	64.2996
16.778	64.3016
16.796	64.2874
16.814	64.261
16.832	64.2247
16.85	64.1836
16.868	64.1411
16.886	64.1005
16.904	64.0649
16.922	64.0349
16.94	64.0116
16.958	63.9932
16.976	63.9789
16.994	63.9659
17.012	63.9519
17.03	63.9351
17.048	63.9131
17.066	63.886
17.084	63.8532
17.102	63.8167
17.12	63.7776
17.138	63.7398
17.156	63.7061
17.174	63.6793
17.192	63.6633
17.21	63.6586
17.228	63.6669
17.246	63.6863
17.264	63.7162
17.282	63.7512
17.3	63.7887
17.318	63.8226
17.336	63.848
17.354	63.8618
17.372	63.8585
17.39	63.8378
17.408	63.7978
17.426	63.7417
17.444	63.6703
17.462	63.5916
17.48	63.5088
17.498	63.4311
17.516	63.3649
17.534	63.3162
17.552	63.2928
17.57	63.2967
17.588	63.3325
17.606	63.3993
17.624	63.4978
17.642	63.6226
17.66	63.772
17.678	63.9362
17.696	64.1123
17.714	64.2893
17.732	64.4621
17.75	64.6239
17.768	64.7676
17.786	64.8905
17.804	64.9874
17.822	65.0581
17.84	65.1012
17.858	65.1181
17.876	65.1097
17.894	65.08
17.912	65.0303
17.93	64.9668
17.948	64.8907
17.966	64.8081
17.984	64.7204
18.002	64.6318
18.02	64.5443
18.038	64.4599
18.056	64.3807
18.074	64.3074
18.092	64.2412
18.11	64.182
18.128	64.1301
18.146	64.0851
18.164	64.0464
18.182	64.0136
18.2	63.986
18.218	63.9629
18.236	63.9438
18.254	63.9279
18.272	63.9151
18.29	63.9044
18.308	63.8958
18.326	63.8885
18.344	63.8823
18.362	63.8764
18.38	63.8706
18.398	63.864
18.416	63.8561
18.434	63.8458
18.452	63.8324
18.47	63.8153
18.488	63.7938
18.506	63.7671
18.524	63.7355
18.542	63.6988
18.56	63.6576
18.578	63.6117
18.596	63.5636
18.614	63.5132
18.632	63.4637
18.65	63.4152
18.668	63.3717
18.686	63.3334
18.704	63.304
18.722	63.2836
18.74	63.2753
18.758	63.2791
18.776	63.2968
18.794	63.3278
18.812	63.3725
18.83	63.4298
18.848	63.4982
18.866	63.5762
18.884	63.6612
18.902	63.7511
18.92	63.8427
18.938	63.934
18.956	64.0214
18.974	64.1032
18.992	64.1764
19.01	64.24
19.028	64.2913
19.046	64.3304
19.064	64.3557
19.082	64.3681
19.1	64.3674
19.118	64.3548
19.136	64.3319
19.154	64.2998
19.172	64.2612
19.19	64.2168
19.208	64.1698
19.226	64.1205
19.244	64.0725
19.262	64.0258
19.28	63.9828
19.298	63.9433
19.316	63.9087
19.334	63.8789
19.352	63.8535
19.37	63.8325
19.388	63.8145
19.406	63.7994
19.424	63.7854
19.442	63.7724
19.46	63.7587
19.478	63.7438
19.496	63.7273
19.514	63.7087
19.532	63.6882
19.55	63.6655
19.568	63.6418
19.586	63.6176
19.604	63.5939
19.622	63.5722
19.64	63.5529
19.658	63.5387
19.676	63.5295
19.694	63.5276
19.712	63.533
19.73	63.5471
19.748	63.5701
19.766	63.6018
19.784	63.6424
19.802	63.6906
19.82	63.7462
19.838	63.8075
19.856	63.8727
19.874	63.9413
19.892	64.01
19.91	64.0792
19.928	64.1451
19.946	64.2082
19.964	64.2659
19.982	64.3178
20	64.3632
20.018	64.401
20.036	64.4318
20.054	64.4556
20.072	64.4727
20.09	64.4848
20.108	64.4916
20.126	64.496
20.144	64.4977
20.162	64.4989
20.18	64.5005
20.198	64.5031
20.216	64.5087
20.234	64.5167
20.252	64.5281
20.27	64.5429
20.288	64.5604
20.306	64.5812
20.324	64.6036
20.342	64.6271
20.36	64.651
20.378	64.6728
20.396	64.6931
20.414	64.7089
20.432	64.7205
20.45	64.7263
20.468	64.7252
20.486	64.7177
20.504	64.7029
20.522	64.6812
20.54	64.6535
20.558	64.6194
20.576	64.5812
20.594	64.5398
20.612	64.4962
20.63	64.4534
20.648	64.4109
20.666	64.3731
20.684	64.3395
20.702	64.3128
20.72	64.2951
20.738	64.2861
20.756	64.2885
20.774	64.3016
20.792	64.3262
20.81	64.3628
20.828	64.4101
20.846	64.467
20.864	64.5335
20.882	64.6058
20.9	64.6849
20.918	64.7665
20.936	64.8479
20.954	64.9292
20.972	65.004
20.99	65.074
21.008	65.1342
21.026	65.1827
21.044	65.2194
21.062	65.2403
21.08	65.2464
21.098	65.2364
21.116	65.2094
21.134	65.1665
21.152	65.1085
21.17	65.0348
21.188	64.9497
21.206	64.8527
21.224	64.7466
21.242	64.6364
21.26	64.5203
21.278	64.4053
21.296	64.2919
21.314	64.1821
21.332	64.0815
21.35	63.9885
21.368	63.9078
21.386	63.8409
21.404	63.7877
21.422	63.7511
21.44	63.7304
21.458	63.7257
21.476	63.7379
21.494	63.7657
21.512	63.8068
21.53	63.8624
21.548	63.9286
21.566	64.0034
21.584	64.0871
21.602	64.1734
21.62	64.2635
21.638	64.3539
21.656	64.4397
21.674	64.523
21.692	64.5984
21.71	64.6647
21.728	64.722
21.746	64.7663
21.764	64.7985
21.782	64.8178
21.8	64.8231
21.818	64.815
21.836	64.7943
21.854	64.7604
21.872	64.7149
21.89	64.66
21.908	64.5947
21.926	64.5222
21.944	64.4445
21.962	64.3608
21.98	64.2757
21.998	64.1888
22.016	64.1013
22.034	64.0169
22.052	63.9343
22.07	63.8556
22.088	63.7823
22.106	63.7138
22.124	63.6515
22.142	63.596
22.16	63.5468
22.178	63.5041
22.196	63.468
22.214	63.4377
22.232	63.4127
22.25	63.3935
22.268	63.378
22.286	63.3656
22.304	63.3566
22.322	63.3486
22.34	63.3414
22.358	63.3348
22.376	63.3262
22.394	63.3162
22.412	63.3039
22.43	63.2876
22.448	63.268
22.466	63.2442
22.484	63.2154
22.502	63.1821
22.52	63.144
22.538	63.101
22.556	63.0534
22.574	63.0021
22.592	62.9469
22.61	62.8884
22.628	62.8286
22.646	62.7669
22.664	62.7044
22.682	62.6433
22.7	62.5826
22.718	62.5238
22.736	62.4688
22.754	62.4164
22.772	62.3685
22.79	62.3267
22.808	62.2899
22.826	62.2595
22.844	62.2366
22.862	62.2204
22.88	62.211
22.898	62.2085
22.916	62.2128
22.934	62.2226
22.952	62.2377
22.97	62.2583
22.988	62.2824
23.006	62.3099
23.024	62.3409
23.042	62.373
23.06	62.4064
23.078	62.4409
23.096	62.4748
23.114	62.5081
23.132	62.5408
23.15	62.5714
23.168	62.6
23.186	62.6266
23.204	62.6504
23.222	62.6716
23.24	62.69
23.258	62.7052
23.276	62.7173
23.294	62.7261
23.312	62.7315
23.33	62.7334
23.348	62.7318
23.366	62.7261
23.384	62.7167
23.402	62.7032
23.42	62.6848
23.438	62.6616
23.456	62.6336
23.474	62.6001
23.492	62.561
23.51	62.5166
23.528	62.4665
23.546	62.4105
23.564	62.3487
23.582	62.2823
23.6	62.211
23.618	62.1349
23.636	62.0561
23.654	61.9753
23.672	61.8916
23.69	61.8082
23.708	61.7269
23.726	61.6458
23.744	61.5685
23.762	61.498
23.78	61.4322
23.798	61.3735
23.816	61.3247
23.834	61.2846
23.852	61.254
23.87	61.2345
23.888	61.2259
23.906	61.228
23.924	61.2417
23.942	61.267
23.96	61.3036
23.978	61.3514
23.996	61.4107
24.014	61.4813
24.032	61.5619
24.05	61.6516
24.068	61.7513
24.086	61.8593
24.104	61.9742
24.122	62.0969
24.14	62.2265
24.158	62.3615
24.176	62.5023
24.194	62.6487
24.212	62.8002
24.23	62.9564
24.248	63.1175
24.266	63.2843
24.284	63.4569
24.302	63.6349
24.32	63.8192
24.338	64.0106
24.356	64.2085
24.374	64.4132
24.392	64.625
24.41	64.8447
24.428	65.0714
24.446	65.3037
24.464	65.5418
24.482	65.7862
24.5	66.0337
24.518	66.2819
24.536	66.5339
24.554	66.7855
24.572	67.0307
24.59	67.2719
24.608	67.5082
24.626	67.7332
24.644	67.9447
24.662	68.1462
24.68	68.3317
24.698	68.4958
24.716	68.6429
24.734	68.7694
24.752	68.8687
24.77	68.94
24.788	68.9856
24.806	69.0026
24.824	68.9883
24.842	68.9432
24.86	68.8701
24.878	68.7714
24.896	68.6442
24.914	68.4909
24.932	68.3191
24.95	68.131
24.968	67.9211
24.986	67.7004
25.004	67.4799
25.022	67.2533
25.04	67.0239
25.058	66.8032
25.076	66.5962
25.094	66.3963
25.112	66.2109
25.13	66.0479
25.148	65.9047
25.166	65.7809
25.184	65.6798
25.202	65.6033
25.22	65.55
25.238	65.5189
25.256	65.5089
25.274	65.5246
25.292	65.5614
25.31	65.6102
25.328	65.6675
25.346	65.7416
25.364	65.819
25.382	65.8847
25.4	65.9439
25.418	65.9971
25.436	66.0295
25.454	66.0301
25.472	66.0085
25.49	65.9591
25.508	65.8729
25.526	65.7487
25.544	65.591
25.562	65.3927
25.58	65.1473
25.598	64.8566
25.616	64.522
25.634	64.1425
25.652	63.7157
25.67	63.2398
25.688	62.7228
25.706	62.1735
25.724	61.5886
25.742	60.966
25.76	60.3211
25.778	59.6668
25.796	58.9825
25.814	58.2849
25.832	57.6076
25.85	56.9701
25.868	56.3423
25.886	55.7536
25.904	55.2415
25.922	54.8226
25.94	54.4769
25.958	54.2035
25.976	54.002
25.994	53.8818
26.012	53.8354
26.03	53.8442
26.048	53.8925
26.066	53.9952
26.084	54.1435
26.102	54.3191
26.12	54.5119
26.138	54.7388
26.156	54.9832
26.174	55.2243
26.192	55.4427
26.21	55.646
26.228	55.8603
26.246	56.1119
26.264	56.4015
26.282	56.7175
26.3	57.0739
26.318	57.4848
26.336	57.9639
26.354	58.4954
26.372	59.0533
26.39	59.615
26.408	60.2133
26.426	60.8275
26.444	61.4101
26.462	61.9313
26.48	62.4822
26.498	62.9748
26.516	63.2745
26.534	63.282
26.552	63.0994
26.57	62.6839
26.588	61.9578
26.606	60.8562
26.624	59.4046
26.642	57.6473
26.66	55.6249
26.678	53.3378
26.696	50.7171
26.714	47.877
26.732	44.9466
26.75	41.9412
26.768	38.6949
26.786	35.456
26.804	32.5013
26.822	29.9559
26.84	27.5974
26.858	25.581
26.876	24.0904
26.894	23.2437
26.912	22.9335
26.93	23.135
26.948	23.8341
26.966	25.2049
26.984	27.5241
27.002	30.1012
27.02	32.1855
27.028	32.7042