File: Bakgrunnsmateriale/MATLAB/FTIR/ftir_data/subAa/Mapping_121/BZ1503107-1_t61_cm-1.asc
PE IR       SPECTRUM    SPECTRUM    ASCII       PEDS        1.60
  -1
BZ6921~1.ASC
17/04/07
18:13:35.00
17/04/07
18:13:35.00
tln
$BZ1503107-1_t0061$<tbV0>[0.0,0.0,8.0,0.0,27,1,0]
370
64

2002,4.07
MIRTGS : RIGHTBACK : INTERNAL 2
MIR : ON : INTERNAL 2
OPTKBR

0.200000
8
8.000000
FILLER
RATIO
SPECTRUM
UNLOCKED 256

DOUBLE
64
COMBINED
1
0
0

1.000000
RATIO

1
0
TRUE
51149
0
LEFT NOT FITTED RIGHT NOT FITTED 0
NONE
NONE
15600
12
4.427000
51148
TRUE
1 0 8 72 0 0 0 0

15798

#HDR
-1
-1
#GR
CM-1
%T
2.38419e-05
0.0
5000
-1.000000
4631
8
74.5521
50.5408
#DATA
5000	64.7628
4996	65.578
4992	65.4225
4988	64.8344
4984	65.1053
4980	66.0036
4976	66.2273
4972	66.2172
4968	66.9316
4964	66.6047
4960	64.2523
4956	62.1732
4952	61.7058
4948	62.6137
4944	64.1017
4940	64.5202
4936	64.067
4932	64.7371
4928	65.1612
4924	64.2311
4920	64.2675
4916	64.9404
4912	64.779
4908	64.5099
4904	64.6344
4900	64.7985
4896	64.7261
4892	64.4926
4888	64.4383
4884	64.7161
4880	64.9317
4876	64.753
4872	64.5339
4868	64.6137
4864	64.8265
4860	64.7658
4856	64.4447
4852	64.3462
4848	64.5962
4844	64.8666
4840	64.829
4836	64.3791
4832	64.0887
4828	64.2584
4824	64.3534
4820	64.3124
4816	64.3514
4812	64.5498
4808	64.7069
4804	64.5371
4800	64.405
4796	64.6195
4792	64.7857
4788	64.6793
4784	64.7001
4780	64.9515
4776	65.0759
4772	65.0578
4768	65.0208
4764	64.8648
4760	64.7146
4756	64.6165
4752	64.4318
4748	64.3717
4744	64.5665
4740	64.7275
4736	64.7556
4732	64.7224
4728	64.6347
4724	64.4758
4720	64.35
4716	64.3769
4712	64.5305
4708	64.7614
4704	64.8761
4700	64.9951
4696	65.278
4692	65.3861
4688	65.1585
4684	65.0473
4680	65.2966
4676	65.3399
4672	65.0763
4668	64.9114
4664	64.8047
4660	64.8408
4656	65.0359
4652	65.2438
4648	65.3908
4644	65.3132
4640	65.1834
4636	65.1634
4632	65.1802
4628	65.1415
4624	64.9466
4620	64.6968
4616	64.6044
4612	64.7035
4608	64.8333
4604	65.0016
4600	65.2053
4596	65.3003
4592	65.36
4588	65.4385
4584	65.3277
4580	65.0898
4576	65.0151
4572	65.0045
4568	65.0411
4564	65.2001
4560	65.3745
4556	65.4174
4552	65.3115
4548	65.256
4544	65.3454
4540	65.3948
4536	65.1842
4532	64.9885
4528	65.1087
4524	65.4142
4520	65.6314
4516	65.5878
4512	65.6667
4508	65.7257
4504	65.4508
4500	65.2732
4496	65.2102
4492	65.0956
4488	64.8317
4484	64.7517
4480	64.89
4476	64.7774
4472	64.9046
4468	65.7092
4464	65.9442
4460	65.807
4456	65.3067
4452	63.3117
4448	59.7901
4444	54.4126
4440	54.6667
4436	63.699
4432	67.633
4428	62.6562
4424	59.5782
4420	60.2217
4416	61.647
4412	63.4118
4408	64.7936
4404	65.2401
4400	65.5084
4396	65.7887
4392	65.5266
4388	64.9064
4384	64.6794
4380	64.7999
4376	65.0562
4372	65.2887
4368	65.3901
4364	65.5164
4360	65.7257
4356	65.6712
4352	65.2434
4348	65.01
4344	64.9861
4340	64.9
4336	65.0944
4332	65.2977
4328	65.1645
4324	65.1015
4320	65.2394
4316	65.2622
4312	65.1586
4308	65.1309
4304	65.0684
4300	65.0803
4296	65.1713
4292	65.0486
4288	64.8942
4284	64.9856
4280	65.1065
4276	65.0392
4272	64.967
4268	64.9417
4264	64.9495
4260	65.0107
4256	64.9904
4252	64.9317
4248	64.9206
4244	64.9701
4240	65.1196
4236	65.2896
4232	65.1953
4228	64.8639
4224	64.7965
4220	64.9486
4216	64.9872
4212	64.9945
4208	65.1311
4204	65.3517
4200	65.4003
4196	65.3385
4192	65.3645
4188	65.2327
4184	64.9325
4180	64.7166
4176	64.6508
4172	64.7182
4168	64.8179
4164	64.9897
4160	65.1718
4156	65.1642
4152	65.0265
4148	65.0015
4144	65.0609
4140	64.9809
4136	64.9092
4132	65.001
4128	65.1006
4124	65.1178
4120	65.105
4116	65.0532
4112	64.9871
4108	64.9432
4104	64.904
4100	64.917
4096	64.9837
4092	65.0687
4088	65.0984
4084	64.9974
4080	64.8966
4076	64.9246
4072	64.9961
4068	64.9577
4064	64.8728
4060	64.9578
4056	65.0648
4052	65.0377
4048	65.0554
4044	65.1028
4040	65.0537
4036	65.037
4032	65.1242
4028	65.1174
4024	65.0387
4020	65.0774
4016	65.1526
4012	65.1464
4008	65.069
4004	65.047
4000	65.0926
3996	65.0563
3992	65.0667
3988	65.187
3984	65.2203
3980	65.1608
3976	65.1502
3972	65.1118
3968	64.9483
3964	64.8988
3960	65.015
3956	65.0306
3952	64.8812
3948	64.7127
3944	64.6575
3940	64.7632
3936	64.9709
3932	65.0352
3928	64.9818
3924	65.0882
3920	65.1124
3916	64.9387
3912	64.9871
3908	65.1162
3904	65.0262
3900	64.931
3896	65.0258
3892	65.2848
3888	65.3814
3884	65.1744
3880	64.9577
3876	64.9218
3872	64.9892
3868	65.0352
3864	65.0805
3860	65.0733
3856	64.9915
3852	65.0498
3848	65.1768
3844	65.109
3840	65.0143
3836	65.0456
3832	65.0517
3828	64.9606
3824	64.9003
3820	65.0194
3816	65.1147
3812	65.0537
3808	65.0641
3804	65.1607
3800	65.209
3796	65.0973
3792	64.8617
3788	64.8316
3784	65.0824
3780	65.2471
3776	65.2324
3772	65.2372
3768	65.2287
3764	65.1612
3760	65.0959
3756	65.0255
3752	64.946
3748	64.8962
3744	64.8959
3740	64.9876
3736	65.1092
3732	65.1184
3728	65.0744
3724	65.078
3720	65.0901
3716	65.1402
3712	65.2451
3708	65.3054
3704	65.2771
3700	65.1455
3696	65.0626
3692	65.0957
3688	65.1022
3684	65.1342
3680	65.1996
3676	65.1631
3672	65.0284
3668	64.9647
3664	65.0287
3660	65.0674
3656	65.039
3652	64.9926
3648	64.9737
3644	65.0585
3640	65.1856
3636	65.2106
3632	65.0682
3628	64.9077
3624	64.9296
3620	65.0662
3616	65.1674
3612	65.1663
3608	65.0838
3604	65.0429
3600	65.0764
3596	65.1222
3592	65.1469
3588	65.1346
3584	65.0764
3580	65.0531
3576	65.1423
3572	65.2096
3568	65.1449
3564	65.0284
3560	64.9339
3556	64.9426
3552	65.0273
3548	65.0243
3544	65.0067
3540	65.053
3536	65.0975
3532	65.1298
3528	65.1345
3524	65.1494
3520	65.2098
3516	65.2431
3512	65.218
3508	65.1886
3504	65.1846
3500	65.2288
3496	65.2335
3492	65.187
3488	65.2528
3484	65.3367
3480	65.299
3476	65.212
3472	65.1304
3468	65.0741
3464	65.0892
3460	65.1696
3456	65.1882
3452	65.1127
3448	65.0779
3444	65.1258
3440	65.1635
3436	65.1152
3432	65.0169
3428	64.9513
3424	64.9534
3420	65.0619
3416	65.1965
3412	65.2546
3408	65.255
3404	65.1248
3400	64.9551
3396	64.9168
3392	64.9339
3388	64.9639
3384	64.998
3380	64.9955
3376	65.006
3372	65.077
3368	65.1119
3364	65.0586
3360	64.9595
3356	64.8223
3352	64.8109
3348	64.9853
3344	65.1003
3340	65.1134
3336	65.1566
3332	65.1429
3328	65.0456
3324	64.9691
3320	64.9066
3316	64.9058
3312	65.0132
3308	65.0996
3304	65.1024
3300	65.0851
3296	65.0032
3292	64.9
3288	64.9455
3284	65.0753
3280	65.1021
3276	64.9754
3272	64.8538
3268	64.8806
3264	64.9924
3260	65.0787
3256	65.0736
3252	64.9736
3248	64.8774
3244	64.864
3240	64.8603
3236	64.8597
3232	64.9366
3228	65.0357
3224	65.0285
3220	64.9168
3216	64.8589
3212	64.868
3208	64.8956
3204	64.9803
3200	65.0625
3196	65.0698
3192	65.0515
3188	65.0362
3184	65.0233
3180	65.0374
3176	65.0334
3172	65.0315
3168	65.0531
3164	65.0299
3160	64.9582
3156	64.9014
3152	64.8652
3148	64.8145
3144	64.8051
3140	64.8526
3136	64.9263
3132	64.9937
3128	65.0503
3124	65.0943
3120	65.012
3116	64.8793
3112	64.8705
3108	64.9599
3104	65.0859
3100	65.1577
3096	65.0712
3092	64.9036
3088	64.8029
3084	64.7833
3080	64.852
3076	64.9537
3072	64.9386
3068	64.8861
3064	64.9629
3060	65.0517
3056	65.005
3052	64.9077
3048	64.8628
3044	64.9104
3040	64.9847
3036	64.9564
3032	64.8649
3028	64.8328
3024	64.8623
3020	64.9175
3016	65.0249
3012	65.0794
3008	65.0551
3004	65.0765
3000	65.0584
2996	64.9918
2992	64.9384
2988	64.8945
2984	64.9136
2980	64.9271
2976	64.8853
2972	64.8273
2968	64.8287
2964	64.8937
2960	64.8992
2956	64.8709
2952	64.8354
2948	64.8124
2944	64.8638
2940	64.9188
2936	64.9166
2932	64.8677
2928	64.8197
2924	64.8113
2920	64.8165
2916	64.8408
2912	64.8903
2908	64.8941
2904	64.8791
2900	64.9048
2896	64.9417
2892	64.989
2888	64.9918
2884	64.9131
2880	64.8473
2876	64.8376
2872	64.8778
2868	64.9732
2864	65.0626
2860	65.0516
2856	64.9601
2852	64.9214
2848	64.9675
2844	65.0081
2840	64.9737
2836	64.8831
2832	64.83
2828	64.8621
2824	64.9215
2820	64.9414
2816	64.9347
2812	64.942
2808	64.965
2804	64.994
2800	65.0182
2796	65.0088
2792	65.0134
2788	65.066
2784	65.0642
2780	65.0212
2776	65.0283
2772	65.0205
2768	64.9966
2764	64.9794
2760	64.9405
2756	64.9551
2752	65.0034
2748	64.9913
2744	64.9047
2740	64.7922
2736	64.783
2732	64.8785
2728	64.9611
2724	64.9992
2720	64.9912
2716	64.9651
2712	64.9507
2708	64.9782
2704	65.0006
2700	64.94
2696	64.8853
2692	64.9248
2688	64.9777
2684	64.9872
2680	64.9743
2676	64.9347
2672	64.8995
2668	64.8858
2664	64.878
2660	64.8631
2656	64.8396
2652	64.8421
2648	64.8731
2644	64.925
2640	64.9622
2636	64.9696
2632	64.9603
2628	64.9346
2624	64.8775
2620	64.8529
2616	64.9383
2612	65.0108
2608	65.0039
2604	64.9779
2600	64.9365
2596	64.9491
2592	64.9984
2588	64.9465
2584	64.9059
2580	64.958
2576	64.9546
2572	64.8719
2568	64.7605
2564	64.7072
2560	64.7512
2556	64.7775
2552	64.7919
2548	64.8125
2544	64.7944
2540	64.7627
2536	64.7216
2532	64.7202
2528	64.7867
2524	64.8547
2520	64.8822
2516	64.9
2512	64.899
2508	64.8407
2504	64.7834
2500	64.8073
2496	64.879
2492	64.8916
2488	64.8856
2484	64.9374
2480	64.9425
2476	64.853
2472	64.7762
2468	64.7451
2464	64.7341
2460	64.7561
2456	64.7755
2452	64.794
2448	64.8674
2444	64.9313
2440	64.9228
2436	64.8864
2432	64.8864
2428	64.9283
2424	64.9378
2420	64.8819
2416	64.7958
2412	64.7353
2408	64.7389
2404	64.7293
2400	64.7089
2396	64.7804
2392	64.8451
2388	64.8051
2384	64.7359
2380	64.6712
2376	64.6389
2372	64.6843
2368	64.7397
2364	64.7781
2360	64.7998
2356	64.7521
2352	64.6875
2348	64.6739
2344	64.6825
2340	64.6992
2336	64.7385
2332	64.7882
2328	64.8562
2324	64.8624
2320	64.7646
2316	64.6942
2312	64.698
2308	64.7437
2304	64.8094
2300	64.8558
2296	64.8293
2292	64.7316
2288	64.6708
2284	64.6884
2280	64.7053
2276	64.7032
2272	64.7289
2268	64.7599
2264	64.7879
2260	64.817
2256	64.7848
2252	64.6803
2248	64.5924
2244	64.5854
2240	64.6049
2236	64.6193
2232	64.6268
2228	64.6168
2224	64.6517
2220	64.7211
2216	64.7504
2212	64.7672
2208	64.8125
2204	64.82
2200	64.7496
2196	64.6871
2192	64.6694
2188	64.6394
2184	64.5952
2180	64.5903
2176	64.6115
2172	64.597
2168	64.6065
2164	64.6515
2160	64.7167
2156	64.7439
2152	64.6826
2148	64.6466
2144	64.6749
2140	64.675
2136	64.6046
2132	64.5625
2128	64.61
2124	64.6277
2120	64.6077
2116	64.6056
2112	64.5849
2108	64.5576
2104	64.5677
2100	64.6031
2096	64.6177
2092	64.6085
2088	64.5976
2084	64.6106
2080	64.6361
2076	64.6577
2072	64.6853
2068	64.6772
2064	64.661
2060	64.6395
2056	64.5732
2052	64.5297
2048	64.5473
2044	64.573
2040	64.5457
2036	64.5001
2032	64.5118
2028	64.5663
2024	64.6166
2020	64.6753
2016	64.6973
2012	64.6395
2008	64.5957
2004	64.6052
2000	64.6039
1996	64.5684
1992	64.5476
1988	64.5611
1984	64.5676
1980	64.5608
1976	64.5797
1972	64.6125
1968	64.5922
1964	64.524
1960	64.4782
1956	64.4926
1952	64.5304
1948	64.544
1944	64.5311
1940	64.5045
1936	64.4978
1932	64.5101
1928	64.4922
1924	64.4615
1920	64.4438
1916	64.408
1912	64.397
1908	64.4377
1904	64.4635
1900	64.449
1896	64.4052
1892	64.3512
1888	64.3393
1884	64.3624
1880	64.3703
1876	64.4145
1872	64.4806
1868	64.4692
1864	64.4372
1860	64.4612
1856	64.5083
1852	64.5207
1848	64.4714
1844	64.4353
1840	64.4476
1836	64.4539
1832	64.451
1828	64.4448
1824	64.4202
1820	64.4059
1816	64.4501
1812	64.4661
1808	64.4076
1804	64.3791
1800	64.3947
1796	64.4289
1792	64.447
1788	64.4146
1784	64.4133
1780	64.4579
1776	64.4798
1772	64.474
1768	64.3974
1764	64.291
1760	64.2856
1756	64.3002
1752	64.2395
1748	64.1779
1744	64.1409
1740	64.1015
1736	64.0786
1732	64.1006
1728	64.1389
1724	64.1617
1720	64.1828
1716	64.2515
1712	64.3595
1708	64.3433
1704	64.2063
1700	64.1243
1696	64.1419
1692	64.2132
1688	64.227
1684	64.1632
1680	64.1565
1676	64.2181
1672	64.2222
1668	64.2021
1664	64.2539
1660	64.2756
1656	64.2216
1652	64.2007
1648	64.2406
1644	64.2538
1640	64.1799
1636	64.1083
1632	64.1154
1628	64.1582
1624	64.1823
1620	64.2001
1616	64.2583
1612	64.2698
1608	64.171
1604	64.0993
1600	64.0927
1596	64.1002
1592	64.1342
1588	64.1338
1584	64.0722
1580	64.0141
1576	64.0333
1572	64.1334
1568	64.1771
1564	64.1062
1560	64.0981
1556	64.2067
1552	64.218
1548	64.0995
1544	64.03
1540	64.0334
1536	64.0008
1532	63.9679
1528	64.0119
1524	64.073
1520	64.1165
1516	64.1358
1512	64.1217
1508	64.1474
1504	64.2242
1500	64.219
1496	64.1481
1492	64.1645
1488	64.1936
1484	64.1668
1480	64.1081
1476	64.0554
1472	64.047
1468	64.0455
1464	64.0282
1460	63.9809
1456	63.9107
1452	63.866
1448	63.8829
1444	63.9313
1440	63.9719
1436	64.0228
1432	64.0354
1428	64.012
1424	64.0456
1420	64.1036
1416	64.0986
1412	64.0616
1408	64.0338
1404	63.9856
1400	63.9464
1396	63.9512
1392	63.9818
1388	64.0022
1384	63.9891
1380	63.9422
1376	63.8787
1372	63.8808
1368	63.9251
1364	63.9371
1360	63.9361
1356	63.8884
1352	63.8021
1348	63.7482
1344	63.7648
1340	63.8194
1336	63.8498
1332	63.8753
1328	63.8839
1324	63.8475
1320	63.8086
1316	63.8075
1312	63.7901
1308	63.7837
1304	63.8747
1300	63.9796
1296	63.9919
1292	63.9048
1288	63.8117
1284	63.736
1280	63.6794
1276	63.6995
1272	63.7299
1268	63.7645
1264	63.8248
1260	63.8368
1256	63.8195
1252	63.7826
1248	63.6904
1244	63.6277
1240	63.6442
1236	63.6683
1232	63.6756
1228	63.6905
1224	63.7226
1220	63.7726
1216	63.797
1212	63.7666
1208	63.7512
1204	63.7647
1200	63.725
1196	63.6535
1192	63.6744
1188	63.7552
1184	63.7769
1180	63.7375
1176	63.7165
1172	63.7461
1168	63.7165
1164	63.6141
1160	63.5506
1156	63.564
1152	63.5841
1148	63.5664
1144	63.5822
1140	63.6926
1136	63.8043
1132	63.7727
1128	63.6356
1124	63.6143
1120	63.6782
1116	63.6901
1112	63.6902
1108	63.6814
1104	63.6582
1100	63.6841
1096	63.7133
1092	63.6451
1088	63.5465
1084	63.5183
1080	63.5947
1076	63.7288
1072	63.7656
1068	63.7133
1064	63.6878
1060	63.6708
1056	63.6361
1052	63.6003
1048	63.5513
1044	63.5165
1040	63.5213
1036	63.4807
1032	63.4174
1028	63.4799
1024	63.5856
1020	63.5978
1016	63.6389
1012	63.7205
1008	63.7282
1004	63.6698
1000	63.6413
996	 63.6459
992	 63.5795
988	 63.584
984	 63.7305
980	 63.8371
976	 63.8505
972	 63.7945
968	 63.6648
964	 63.5414
960	 63.4806
956	 63.4334
952	 63.4469
948	 63.488
944	 63.4856
940	 63.5196
936	 63.5755
932	 63.5813
928	 63.5922
924	 63.6267
920	 63.61
916	 63.5173
912	 63.4495
908	 63.508
904	 63.5879
900	 63.6116
896	 63.5915
892	 63.5068
888	 63.4605
884	 63.497
880	 63.543
876	 63.589
872	 63.5703
868	 63.5168
864	 63.5772
860	 63.7315
856	 63.8564
852	 63.856
848	 63.7299
844	 63.5807
840	 63.4887
836	 63.4941
832	 63.5298
828	 63.6019
824	 63.798
820	 63.9121
816	 63.8252
812	 63.6524
808	 63.4833
804	 63.4122
800	 63.4181
796	 63.4623
792	 63.5048
788	 63.4517
784	 63.3449
780	 63.2377
776	 63.1548
772	 63.2128
768	 63.365
764	 63.4223
760	 63.4163
756	 63.3771
752	 63.3207
748	 63.3897
744	 63.4519
740	 63.3609
736	 63.2417
732	 63.1855
728	 63.2407
724	 63.3249
720	 63.2968
716	 63.2604
712	 63.2454
708	 63.0984
704	 62.9148
700	 62.921
696	 63.0722
692	 63.3562
688	 63.6307
684	 63.5136
680	 63.4087
676	 63.4787
672	 63.2509
668	 63.0015
664	 63.1055
660	 63.3841
656	 63.4605
652	 63.3871
648	 63.3024
644	 62.9352
640	 62.702
636	 62.8523
632	 62.8491
628	 62.9802
624	 63.676
620	 64.1774
616	 63.6456
612	 62.6242
608	 62.4081
604	 62.9249
600	 63.1461
596	 63.0452
592	 62.787
588	 62.4675
584	 62.6195
580	 63.0453
576	 63.0904
572	 62.9928
568	 63.2808
564	 63.5653
560	 63.3989
556	 62.9107
552	 62.5347
548	 62.657
544	 62.7316
540	 62.3232
536	 62.3467
532	 62.4839
528	 61.8447
524	 61.6858
520	 62.492
516	 63.1635
512	 63.0891
508	 62.2332
504	 62.2668
500	 63.7997
496	 64.5295
492	 63.7681
488	 62.7394
484	 61.89
480	 61.5214
476	 61.711
472	 62.0661
468	 62.5999
464	 63.1008
460	 63.219
456	 63.5368
452	 63.4323
448	 62.5818
444	 62.795
440	 63.5539
436	 63.5447
432	 63.4073
428	 63.5018
424	 64.3354
420	 64.7901
416	 61.8295
412	 58.2578
408	 57.1328
404	 54.1219
400	 50.5408
396	 54.2883
392	 64.4786
388	 69.0444
384	 62.7742
380	 59.1358
376	 68.8502
372	 74.5521
370	 72.9014