File: Bakgrunnsmateriale/MATLAB/FTIR/ftir_data/subAa/Mapping_121/BZ1503107-1_t46.asc
PE IR       SPECTRUM    SPECTRUM    ASCII       PEDS        1.60
  -1
BZ216D~1.ASC
17/04/07
17:03:40.00
17/04/07
17:04:06.00
tln
$BZ1503107-1_t0046$<tbV0>[10.4,-2.6,8.0,0.0,27,1,0]
27.028
64

2002,4.07
MIRTGS : RIGHTBACK : INTERNAL 2
MIR : ON : INTERNAL 2
OPTKBR

0.200000
8
8.000000
FILLER
RATIO
SPECTRUM
UNLOCKED 256

DOUBLE
64
COMBINED
1
0
0

0.002000
RATIO

1
0
TRUE
51149
0
LEFT NOT FITTED RIGHT NOT FITTED 0
NONE
NONE
15600
12
4.427000
51148
TRUE
1 0 8 72 0 0 0 0

15798

#HDR
-1
-1
#GR
µM
%T
2.38419e-05
0.0
2.000000
0.002000
12515
8
66.4464
45.7127
#DATA
2.000000	 65.7518
2.018000	 64.485
2.036000	 65.5133
2.054000	 64.6352
2.072000	 64.3952
2.090000	 64.6048
2.108000	 64.6943
2.126000	 64.4994
2.144000	 64.6022
2.162000	 65.1391
2.180000	 65.0357
2.198000	 65.3124
2.216000	 65.582
2.234000	 65.2524
2.252000	 66.4194
2.270000	 65.4467
2.288000	 65.2999
2.306000	 65.6092
2.324000	 65.4126
2.342000	 65.1395
2.360000	 65.123
2.378000	 64.965
2.396000	 64.7478
2.414000	 64.7511
2.432000	 64.8899
2.450000	 64.9498
2.468000	 64.7576
2.486000	 64.8464
2.504000	 65.0716
2.522000	 64.8866
2.540000	 64.8406
2.558000	 65.1146
2.576000	 65.1144
2.594000	 65.0946
2.612000	 65.0967
2.630000	 65.0653
2.648000	 64.9947
2.666000	 64.8333
2.684000	 64.9788
2.702000	 65.0114
2.720000	 64.9848
2.738000	 65.0016
2.756000	 64.7774
2.774000	 64.9515
2.792000	 64.9765
2.810000	 65.1031
2.828000	 65.101
2.846000	 65.179
2.864000	 65.103
2.882000	 65.016
2.900000	 65.1142
2.918000	 64.9106
2.936000	 64.9531
2.954000	 64.9052
2.972000	 65.0071
2.990000	 64.8522
3.008000	 65.047
3.026000	 64.9042
3.044000	 65.0773
3.062000	 64.875
3.080000	 64.8102
3.098000	 65.0101
3.116000	 64.7173
3.134000	 64.8992
3.152000	 65.0385
3.170000	 65.0045
3.188000	 65.0135
3.206000	 64.9214
3.224000	 64.9875
3.242000	 64.7355
3.260000	 64.831
3.278000	 64.866
3.296000	 64.9357
3.314000	 64.9581
3.332000	 65.1558
3.350000	 64.9392
3.368000	 64.7929
3.386000	 64.8075
3.404000	 64.8455
3.422000	 64.8753
3.440000	 64.8337
3.458000	 64.7966
3.476000	 64.8153
3.494000	 64.8164
3.512000	 64.9853
3.530000	 64.7547
3.548000	 64.7793
3.566000	 64.9027
3.584000	 64.8866
3.602000	 64.8504
3.620000	 64.7924
3.638000	 64.8864
3.656000	 64.7486
3.674000	 64.7339
3.692000	 64.8611
3.710000	 64.8496
3.728000	 64.8129
3.746000	 64.8801
3.764000	 64.8504
3.782000	 64.8084
3.800000	 64.9453
3.818000	 64.8307
3.836000	 64.863
3.854000	 64.9786
3.872000	 64.8112
3.890000	 64.8195
3.908000	 64.7607
3.926000	 64.8162
3.944000	 64.7849
3.962000	 64.7981
3.980000	 65.013
3.998000	 64.7912
4.016000	 64.7881
4.034000	 64.8113
4.052000	 64.6884
4.070000	 64.7638
4.088000	 64.7773
4.106000	 64.777
4.124000	 64.5842
4.141999	 64.6777
4.160000	 64.7851
4.178000	 64.7385
4.196000	 64.7432
4.214000	 64.6181
4.232000	 64.6196
4.250000	 64.5729
4.268000	 64.606
4.286000	 64.7303
4.304000	 64.6315
4.322000	 64.7056
4.340000	 64.6594
4.358000	 64.6153
4.375999	 64.6116
4.394000	 64.6707
4.412000	 64.782
4.430000	 64.7032
4.448000	 64.6761
4.466000	 64.5941
4.484000	 64.6007
4.502000	 64.5958
4.520000	 64.5748
4.538000	 64.592
4.556000	 64.5569
4.574000	 64.5255
4.592000	 64.5878
4.609999	 64.5199
4.628000	 64.5573
4.646000	 64.532
4.664000	 64.5769
4.682000	 64.5463
4.700000	 64.6082
4.718000	 64.4985
4.736000	 64.4541
4.754000	 64.4952
4.772000	 64.6954
4.790000	 64.6356
4.808000	 64.6195
4.826000	 64.5501
4.843999	 64.4401
4.862000	 64.5621
4.880000	 64.553
4.898000	 64.4976
4.916000	 64.4386
4.934000	 64.6188
4.952000	 64.6069
4.970000	 64.4844
4.988000	 64.4668
5.006000	 64.4719
5.024000	 64.5287
5.042000	 64.568
5.060000	 64.4477
5.077999	 64.5157
5.096000	 64.4505
5.114000	 64.2963
5.132000	 64.4468
5.150000	 64.4845
5.168000	 64.4493
5.186000	 64.4048
5.204000	 64.4988
5.222000	 64.4528
5.240000	 64.4209
5.258000	 64.4126
5.276000	 64.3575
5.294000	 64.3165
5.312000	 64.3797
5.330000	 64.4182
5.348000	 64.4859
5.366000	 64.4033
5.384000	 64.346
5.402000	 64.4853
5.420000	 64.5114
5.438000	 64.4733
5.456000	 64.5075
5.474000	 64.479
5.492000	 64.4029
5.510000	 64.3635
5.528000	 64.3276
5.546000	 64.3079
5.564000	 64.3026
5.582000	 64.4165
5.600000	 64.4057
5.618000	 64.3545
5.636000	 64.3075
5.654000	 64.3475
5.672000	 64.3283
5.690000	 64.2752
5.708000	 64.2579
5.726000	 64.1778
5.744000	 64.1481
5.762000	 64.009
5.780000	 64.0619
5.798000	 64.1864
5.816000	 64.1845
5.834000	 64.1878
5.852000	 64.2055
5.870000	 64.2663
5.888000	 64.3824
5.906000	 64.436
5.923999	 64.3686
5.942000	 64.2974
5.960000	 64.232
5.978000	 64.2376
5.996000	 64.2551
6.014000	 64.2552
6.032000	 64.1935
6.050000	 64.1118
6.068000	 64.1552
6.086000	 64.2566
6.104000	 64.301
6.122000	 64.2948
6.140000	 64.2509
6.158000	 64.1361
6.176000	 64.0774
6.194000	 64.1981
6.212000	 64.2345
6.230000	 64.1835
6.248000	 64.1697
6.266000	 64.1516
6.284000	 64.1594
6.302000	 64.172
6.320000	 64.148
6.338000	 64.1249
6.356000	 64.1433
6.374000	 64.1814
6.392000	 64.2353
6.410000	 64.257
6.428000	 64.2131
6.446000	 64.1733
6.464000	 64.1896
6.482000	 64.1734
6.500000	 64.1198
6.518000	 64.1226
6.536000	 64.1097
6.554000	 64.0426
6.572000	 64.0284
6.590000	 64.0908
6.608000	 64.1352
6.626000	 64.148
6.644000	 64.1571
6.662000	 64.1748
6.680000	 64.1896
6.698000	 64.1828
6.716000	 64.2221
6.734000	 64.2729
6.752000	 64.2227
6.770000	 64.1456
6.788000	 64.1169
6.806000	 64.1432
6.824000	 64.1593
6.842000	 64.0934
6.860000	 64.0119
6.878000	 63.958
6.896000	 63.9311
6.914000	 63.8976
6.932000	 63.8211
6.950000	 63.8001
6.968000	 63.9056
6.986000	 64.0159
7.004000	 64.0477
7.022000	 64.0825
7.040000	 64.1332
7.058000	 64.1456
7.076000	 64.1513
7.094000	 64.16
7.112000	 64.135
7.130000	 64.1031
7.148000	 64.0948
7.166000	 64.0831
7.184000	 64.0602
7.202000	 64.0477
7.220000	 64.0321
7.238000	 63.9943
7.256000	 63.958
7.274000	 63.9446
7.292000	 63.9473
7.310000	 63.9599
7.328000	 63.9856
7.346000	 64.0205
7.364000	 64.0467
7.382000	 64.0368
7.400000	 63.9787
7.418000	 63.9196
7.436000	 63.9211
7.454000	 63.9575
7.472000	 63.962
7.490000	 63.9428
7.508000	 63.9516
7.526000	 63.991
7.544000	 64.0125
7.562000	 63.9809
7.580000	 63.9219
7.598000	 63.8836
7.616000	 63.8783
7.634000	 63.8997
7.652000	 63.9382
7.670000	 63.9607
7.688000	 63.9506
7.706000	 63.9399
7.724000	 63.9478
7.742000	 63.9613
7.760000	 63.9808
7.778000	 64.0002
7.796000	 63.9852
7.814000	 63.9421
7.832000	 63.9246
7.850000	 63.9505
7.868000	 63.994
7.886000	 64.038
7.904000	 64.0722
7.922000	 64.0678
7.940000	 64.007
7.958000	 63.9117
7.976000	 63.82
7.994000	 63.7609
8.012000	 63.7536
8.030000	 63.7952
8.048000	 63.8409
8.065999	 63.8424
8.084000	 63.8113
8.102000	 63.8052
8.120000	 63.8456
8.138000	 63.8938
8.155999	 63.9106
8.173999	 63.9
8.192000	 63.8784
8.210000	 63.8417
8.228000	 63.7872
8.246000	 63.7482
8.263999	 63.7708
8.282000	 63.8565
8.300000	 63.947
8.318000	 63.9795
8.336000	 63.9438
8.353999	 63.8855
8.372000	 63.8527
8.390000	 63.85
8.408000	 63.854
8.426000	 63.8515
8.443999	 63.8472
8.462000	 63.8489
8.480000	 63.863
8.498000	 63.8914
8.516000	 63.9172
8.533999	 63.9097
8.552000	 63.8622
8.570000	 63.8034
8.588000	 63.7603
8.606000	 63.7299
8.624000	 63.7008
8.641999	 63.6811
8.660000	 63.6878
8.678000	 63.7155
8.696000	 63.738
8.714000	 63.7424
8.731999	 63.747
8.750000	 63.7806
8.768000	 63.8448
8.786000	 63.9048
8.804000	 63.9201
8.821999	 63.8797
8.840000	 63.802
8.858000	 63.7187
8.876000	 63.6604
8.894000	 63.6492
8.911999	 63.6859
8.930000	 63.7465
8.948000	 63.7965
8.966000	 63.814
8.984000	 63.7992
9.001999	 63.7643
9.020000	 63.7255
9.038000	 63.6978
9.056000	 63.6895
9.074000	 63.6979
9.092000	 63.7127
9.109999	 63.7218
9.128000	 63.7182
9.146000	 63.7031
9.164000	 63.6852
9.182000	 63.6722
9.199999	 63.6647
9.218000	 63.6582
9.236000	 63.6529
9.254000	 63.6593
9.272000	 63.6853
9.289999	 63.7245
9.308000	 63.76
9.326000	 63.7822
9.344000	 63.7999
9.362000	 63.8302
9.379999	 63.8789
9.398000	 63.9319
9.416000	 63.9649
9.434000	 63.9582
9.452000	 63.908
9.469999	 63.8301
9.488000	 63.7553
9.506000	 63.7118
9.524000	 63.7047
9.542000	 63.7166
9.560000	 63.7252
9.577999	 63.7232
9.596000	 63.7192
9.614000	 63.721
9.632000	 63.721
9.650000	 63.7025
9.667999	 63.6603
9.686000	 63.6142
9.704000	 63.5993
9.722000	 63.6391
9.740000	 63.7254
9.757999	 63.819
9.776000	 63.8743
9.794000	 63.8668
9.812000	 63.8069
9.830000	 63.7287
9.847999	 63.6681
9.866000	 63.6441
9.884000	 63.6554
9.902000	 63.6856
9.920000	 63.7138
9.937999	 63.7252
9.956000	 63.7189
9.974000	 63.7053
9.992000	 63.6983
10.01	63.7052
10.028	63.7217
10.046	63.7358
10.064	63.738
10.082	63.7267
10.1	63.7077
10.118	63.6893
10.136	63.6764
10.154	63.6718
10.172	63.6772
10.19	63.6941
10.208	63.7223
10.226	63.7593
10.244	63.7975
10.262	63.8256
10.28	63.833
10.298	63.8149
10.316	63.776
10.334	63.7283
10.352	63.6831
10.37	63.6462
10.388	63.6156
10.406	63.5873
10.424	63.5612
10.442	63.5431
10.46	63.5388
10.478	63.5461
10.496	63.5541
10.514	63.55
10.532	63.5275
10.55	63.4933
10.568	63.4617
10.586	63.4476
10.604	63.4584
10.622	63.4907
10.64	63.5331
10.658	63.5733
10.676	63.6017
10.694	63.6159
10.712	63.6203
10.73	63.6242
10.748	63.638
10.766	63.6678
10.784	63.7126
10.802	63.7632
10.82	63.807
10.838	63.8323
10.856	63.8329
10.874	63.8092
10.892	63.7669
10.91	63.7152
10.928	63.6654
10.946	63.6304
10.964	63.6212
10.982	63.645
11	63.6999
11.018	63.773
11.036	63.8443
11.054	63.8922
11.072	63.9034
11.09	63.8775
11.108	63.8261
11.126	63.7684
11.144	63.7211
11.162	63.6946
11.18	63.6908
11.198	63.7055
11.216	63.7324
11.234	63.7649
11.252	63.796
11.27	63.8188
11.288	63.8258
11.306	63.812
11.324	63.7771
11.342	63.7264
11.36	63.6698
11.378	63.6182
11.396	63.5786
11.414	63.5518
11.432	63.5332
11.45	63.5163
11.468	63.4966
11.486	63.4755
11.504	63.4594
11.522	63.4577
11.54	63.478
11.558	63.5233
11.576	63.5905
11.594	63.6713
11.612	63.7548
11.63	63.8301
11.648	63.8894
11.666	63.9276
11.684	63.9427
11.702	63.9362
11.72	63.9125
11.738	63.8796
11.756	63.8467
11.774	63.8234
11.792	63.8154
11.81	63.8228
11.828	63.8399
11.846	63.8569
11.864	63.8637
11.882	63.8549
11.9	63.8317
11.918	63.8016
11.936	63.7752
11.954	63.7618
11.972	63.7663
11.99	63.7871
12.008	63.8176
12.026	63.8491
12.044	63.8737
12.062	63.8867
12.08	63.8879
12.098	63.8791
12.116	63.864
12.134	63.8461
12.152	63.8281
12.17	63.8112
12.188	63.796
12.206	63.7828
12.224	63.7716
12.242	63.7619
12.26	63.7527
12.278	63.742
12.296	63.728
12.314	63.709
12.332	63.685
12.35	63.6573
12.368	63.6292
12.386	63.6049
12.404	63.5883
12.422	63.5827
12.44	63.5888
12.458	63.6049
12.476	63.6274
12.494	63.6509
12.512	63.6704
12.53	63.683
12.548	63.6881
12.566	63.6879
12.584	63.6861
12.602	63.6866
12.62	63.6921
12.638	63.7034
12.656	63.7186
12.674	63.7339
12.692	63.7453
12.71	63.749
12.728	63.7427
12.746	63.7262
12.764	63.7009
12.782	63.67
12.8	63.637
12.818	63.6057
12.836	63.579
12.854	63.5592
12.872	63.5474
12.89	63.5441
12.908	63.5487
12.926	63.56
12.944	63.5768
12.962	63.598
12.98	63.6228
12.998	63.6507
13.016	63.6809
13.034	63.7128
13.052	63.7449
13.07	63.7748
13.088	63.8001
13.106	63.8179
13.124	63.8259
13.142	63.8224
13.16	63.8069
13.178	63.7798
13.196	63.7428
13.214	63.6981
13.232	63.6482
13.25	63.596
13.268	63.5446
13.286	63.4973
13.304	63.4576
13.322	63.4288
13.34	63.4133
13.358	63.4122
13.376	63.4247
13.394	63.4477
13.412	63.4771
13.43	63.5078
13.448	63.5351
13.466	63.5552
13.484	63.5665
13.502	63.569
13.52	63.5643
13.538	63.5545
13.556	63.5415
13.574	63.5267
13.592	63.5109
13.61	63.494
13.628	63.4759
13.646	63.4572
13.664	63.4392
13.682	63.4241
13.7	63.4145
13.718	63.4115
13.736	63.4158
13.754	63.4255
13.772	63.4382
13.79	63.4507
13.808	63.4602
13.826	63.4656
13.844	63.4674
13.862	63.4675
13.88	63.4688
13.898	63.4741
13.916	63.4858
13.934	63.5044
13.952	63.5287
13.97	63.5559
13.988	63.5816
14.006	63.6009
14.024	63.6084
14.042	63.6001
14.06	63.5741
14.078	63.5302
14.096	63.4708
14.114	63.4002
14.132	63.3246
14.15	63.2508
14.168	63.1854
14.186	63.1342
14.204	63.1012
14.222	63.0879
14.24	63.0936
14.258	63.1153
14.276	63.1484
14.294	63.1876
14.312	63.2282
14.33	63.2659
14.348	63.2983
14.366	63.3244
14.384	63.345
14.402	63.3619
14.42	63.3773
14.438	63.3929
14.456	63.4099
14.474	63.4283
14.492	63.4477
14.51	63.4671
14.528	63.4859
14.546	63.5042
14.564	63.5234
14.582	63.5459
14.6	63.575
14.618	63.6142
14.636	63.6665
14.654	63.7328
14.672	63.8118
14.69	63.9001
14.708	63.9922
14.726	64.0809
14.744	64.1576
14.762	64.2154
14.78	64.2491
14.798	64.2559
14.816	64.2354
14.834	64.1897
14.852	64.1242
14.87	64.0448
14.888	63.9579
14.906	63.8696
14.924	63.7845
14.942	63.706
14.96	63.6353
14.978	63.5724
14.996	63.517
15.014	63.4681
15.032	63.4246
15.05	63.3863
15.068	63.3538
15.086	63.3285
15.104	63.3119
15.122	63.3059
15.14	63.3114
15.158	63.3287
15.176	63.3575
15.194	63.3967
15.212	63.4443
15.23	63.498
15.248	63.5556
15.266	63.6149
15.284	63.6743
15.302	63.7327
15.32	63.7894
15.338	63.8434
15.356	63.8939
15.374	63.9393
15.392	63.9781
15.41	64.0082
15.428	64.0279
15.446	64.0343
15.464	64.026
15.482	64.0022
15.5	63.9618
15.518	63.9058
15.536	63.8352
15.554	63.7518
15.572	63.6581
15.59	63.5572
15.608	63.4514
15.626	63.3433
15.644	63.2353
15.662	63.1301
15.68	63.0297
15.698	62.9364
15.716	62.8531
15.734	62.7829
15.752	62.7287
15.77	62.6932
15.788	62.6802
15.806	62.6925
15.824	62.732
15.842	62.8
15.86	62.8959
15.878	63.0178
15.896	63.1634
15.914	63.3276
15.932	63.5045
15.95	63.6886
15.968	63.873
15.986	64.0493
16.004	64.2121
16.022	64.3559
16.04	64.4746
16.058	64.5659
16.076	64.6281
16.094	64.6607
16.112	64.6661
16.13	64.6468
16.148	64.6072
16.166	64.5529
16.184	64.4883
16.202	64.4188
16.22	64.3495
16.238	64.2836
16.256	64.2244
16.274	64.1734
16.292	64.1305
16.31	64.0953
16.328	64.0651
16.346	64.0377
16.364	64.011
16.382	63.9811
16.4	63.9455
16.418	63.9023
16.436	63.8488
16.454	63.785
16.472	63.7104
16.49	63.6261
16.508	63.5342
16.526	63.4366
16.544	63.3371
16.562	63.239
16.58	63.1451
16.598	63.0605
16.616	62.988
16.634	62.9303
16.652	62.8905
16.67	62.8692
16.688	62.8672
16.706	62.8833
16.724	62.916
16.742	62.9632
16.76	63.0196
16.778	63.0822
16.796	63.1458
16.814	63.2051
16.832	63.2573
16.85	63.2977
16.868	63.3246
16.886	63.3362
16.904	63.333
16.922	63.3169
16.94	63.2898
16.958	63.2575
16.976	63.2227
16.994	63.1921
17.012	63.1699
17.03	63.1593
17.048	63.1648
17.066	63.1865
17.084	63.2257
17.102	63.2798
17.12	63.3475
17.138	63.4234
17.156	63.5028
17.174	63.5816
17.192	63.652
17.21	63.7116
17.228	63.7545
17.246	63.7787
17.264	63.7824
17.282	63.7651
17.3	63.7277
17.318	63.6723
17.336	63.6028
17.354	63.5213
17.372	63.4339
17.39	63.3428
17.408	63.253
17.426	63.1677
17.444	63.0893
17.462	63.0214
17.48	62.9647
17.498	62.9216
17.516	62.8921
17.534	62.877
17.552	62.876
17.57	62.889
17.588	62.9149
17.606	62.953
17.624	63.0021
17.642	63.0606
17.66	63.1277
17.678	63.1998
17.696	63.276
17.714	63.3531
17.732	63.4294
17.75	63.5026
17.768	63.5707
17.786	63.6329
17.804	63.6872
17.822	63.7338
17.84	63.7722
17.858	63.8033
17.876	63.8276
17.894	63.8471
17.912	63.8623
17.93	63.876
17.948	63.8888
17.966	63.9029
17.984	63.9185
18.002	63.9366
18.02	63.9569
18.038	63.9795
18.056	64.0036
18.074	64.0287
18.092	64.0538
18.11	64.0787
18.128	64.1024
18.146	64.1251
18.164	64.1468
18.182	64.1679
18.2	64.1888
18.218	64.2103
18.236	64.233
18.254	64.257
18.272	64.2826
18.29	64.3089
18.308	64.3358
18.326	64.3607
18.344	64.383
18.362	64.3988
18.38	64.4071
18.398	64.4037
18.416	64.3874
18.434	64.3554
18.452	64.3069
18.47	64.2404
18.488	64.1571
18.506	64.0567
18.524	63.9431
18.542	63.8166
18.56	63.6839
18.578	63.5454
18.596	63.4095
18.614	63.2768
18.632	63.1554
18.65	63.0455
18.668	62.9541
18.686	62.8809
18.704	62.8295
18.722	62.7993
18.74	62.7912
18.758	62.804
18.776	62.8363
18.794	62.8864
18.812	62.9511
18.83	63.0286
18.848	63.1147
18.866	63.2078
18.884	63.3037
18.902	63.401
18.92	63.4963
18.938	63.5886
18.956	63.6751
18.974	63.7554
18.992	63.8275
19.01	63.8913
19.028	63.9461
19.046	63.9922
19.064	64.0294
19.082	64.0585
19.1	64.0801
19.118	64.0949
19.136	64.1041
19.154	64.1081
19.172	64.1085
19.19	64.1054
19.208	64.1001
19.226	64.0926
19.244	64.0842
19.262	64.0746
19.28	64.0644
19.298	64.0533
19.316	64.0415
19.334	64.0289
19.352	64.015
19.37	63.9998
19.388	63.9829
19.406	63.9644
19.424	63.9439
19.442	63.9213
19.46	63.897
19.478	63.871
19.496	63.8439
19.514	63.8157
19.532	63.7871
19.55	63.7586
19.568	63.7306
19.586	63.7038
19.604	63.6782
19.622	63.6547
19.64	63.6329
19.658	63.6133
19.676	63.5958
19.694	63.58
19.712	63.566
19.73	63.5528
19.748	63.5406
19.766	63.5283
19.784	63.5157
19.802	63.502
19.82	63.4869
19.838	63.4701
19.856	63.4514
19.874	63.4308
19.892	63.4082
19.91	63.3837
19.928	63.3577
19.946	63.3301
19.964	63.3019
19.982	63.2729
20	63.244
20.018	63.2156
20.036	63.188
20.054	63.1624
20.072	63.1387
20.09	63.1183
20.108	63.1008
20.126	63.0877
20.144	63.0788
20.162	63.0748
20.18	63.0761
20.198	63.0826
20.216	63.0947
20.234	63.1122
20.252	63.1348
20.27	63.1626
20.288	63.1945
20.306	63.2307
20.324	63.2699
20.342	63.3115
20.36	63.3548
20.378	63.398
20.396	63.4414
20.414	63.4823
20.432	63.5209
20.45	63.5554
20.468	63.5849
20.486	63.6091
20.504	63.6261
20.522	63.6363
20.54	63.6386
20.558	63.6328
20.576	63.619
20.594	63.5967
20.612	63.5666
20.63	63.529
20.648	63.4838
20.666	63.433
20.684	63.376
20.702	63.3149
20.72	63.2508
20.738	63.1839
20.756	63.1173
20.774	63.0502
20.792	62.9857
20.81	62.924
20.828	62.8663
20.846	62.8147
20.864	62.7687
20.882	62.7304
20.9	62.6997
20.918	62.6772
20.936	62.6637
20.954	62.6587
20.972	62.6623
20.99	62.6746
21.008	62.6945
21.026	62.7218
21.044	62.7559
21.062	62.7952
21.08	62.84
21.098	62.888
21.116	62.9388
21.134	62.9918
21.152	63.0447
21.17	63.098
21.188	63.1501
21.206	63.2006
21.224	63.2493
21.242	63.2957
21.26	63.3399
21.278	63.3821
21.296	63.4223
21.314	63.461
21.332	63.4991
21.35	63.5362
21.368	63.5741
21.386	63.6131
21.404	63.6535
21.422	63.6968
21.44	63.7425
21.458	63.7916
21.476	63.8445
21.494	63.901
21.512	63.9605
21.53	64.0236
21.548	64.0889
21.566	64.156
21.584	64.2249
21.602	64.2926
21.62	64.3597
21.638	64.4246
21.656	64.4848
21.674	64.5415
21.692	64.5912
21.71	64.6334
21.728	64.668
21.746	64.692
21.764	64.7064
21.782	64.7099
21.8	64.7013
21.818	64.6813
21.836	64.6501
21.854	64.6072
21.872	64.5536
21.89	64.491
21.908	64.4184
21.926	64.3385
21.944	64.2528
21.962	64.1606
21.98	64.0661
21.998	63.9689
22.016	63.8706
22.034	63.7751
22.052	63.6812
22.07	63.5914
22.088	63.5082
22.106	63.4303
22.124	63.36
22.142	63.298
22.16	63.244
22.178	63.1983
22.196	63.1613
22.214	63.1321
22.232	63.11
22.25	63.0955
22.268	63.0866
22.286	63.0822
22.304	63.0827
22.322	63.0852
22.34	63.0897
22.358	63.0956
22.376	63.0999
22.394	63.1032
22.412	63.1044
22.43	63.1011
22.448	63.0942
22.466	63.0827
22.484	63.0655
22.502	63.0431
22.52	63.0155
22.538	62.9826
22.556	62.9446
22.574	62.902
22.592	62.8546
22.61	62.8029
22.628	62.7477
22.646	62.6888
22.664	62.6268
22.682	62.5631
22.7	62.4971
22.718	62.43
22.736	62.3632
22.754	62.2962
22.772	62.2297
22.79	62.1646
22.808	62.1004
22.826	62.0379
22.844	61.9778
22.862	61.9197
22.88	61.8645
22.898	61.8124
22.916	61.7632
22.934	61.7184
22.952	61.6782
22.97	61.6423
22.988	61.6124
23.006	61.5882
23.024	61.57
23.042	61.5596
23.06	61.5571
23.078	61.5626
23.096	61.5774
23.114	61.6015
23.132	61.6349
23.15	61.6792
23.168	61.7344
23.186	61.8004
23.204	61.8775
23.222	61.9661
23.24	62.0657
23.258	62.1761
23.276	62.2977
23.294	62.4298
23.312	62.5709
23.33	62.7217
23.348	62.8813
23.366	63.0469
23.384	63.2192
23.402	63.3974
23.42	63.5778
23.438	63.7611
23.456	63.9467
23.474	64.1298
23.492	64.3105
23.51	64.489
23.528	64.6605
23.546	64.8242
23.564	64.9811
23.582	65.1265
23.6	65.2587
23.618	65.3794
23.636	65.4851
23.654	65.5739
23.672	65.6476
23.69	65.7036
23.708	65.74
23.726	65.7582
23.744	65.7571
23.762	65.7358
23.78	65.6948
23.798	65.6342
23.816	65.5537
23.834	65.4531
23.852	65.3334
23.87	65.1955
23.888	65.0387
23.906	64.864
23.924	64.6737
23.942	64.4672
23.96	64.2449
23.978	64.0098
23.996	63.7627
24.014	63.5027
24.032	63.2326
24.05	62.9541
24.068	62.6657
24.086	62.3699
24.104	62.0693
24.122	61.762
24.14	61.45
24.158	61.1363
24.176	60.8192
24.194	60.5002
24.212	60.1828
24.23	59.8669
24.248	59.552
24.266	59.2421
24.284	58.939
24.302	58.6402
24.32	58.3503
24.338	58.0734
24.356	57.8062
24.374	57.552
24.392	57.3156
24.41	57.0956
24.428	56.8925
24.446	56.7113
24.464	56.554
24.482	56.4181
24.5	56.3071
24.518	56.224
24.536	56.1668
24.554	56.1364
24.572	56.1346
24.59	56.1618
24.608	56.217
24.626	56.2991
24.644	56.4084
24.662	56.5456
24.68	56.7069
24.698	56.8891
24.716	57.0962
24.734	57.3233
24.752	57.5626
24.77	57.8152
24.788	58.0823
24.806	58.3545
24.824	58.6262
24.842	58.904
24.86	59.1801
24.878	59.4448
24.896	59.7013
24.914	59.9491
24.932	60.1807
24.95	60.3919
24.968	60.5871
24.986	60.7628
25.004	60.915
25.022	61.0442
25.04	61.1516
25.058	61.237
25.076	61.2997
25.094	61.3393
25.112	61.3593
25.13	61.3629
25.148	61.3471
25.166	61.3143
25.184	61.2701
25.202	61.2165
25.22	61.1498
25.238	61.0757
25.256	60.9996
25.274	60.9196
25.292	60.8358
25.31	60.752
25.328	60.6706
25.346	60.5895
25.364	60.5096
25.382	60.4318
25.4	60.3582
25.418	60.2869
25.436	60.2141
25.454	60.1374
25.472	60.0613
25.49	59.9805
25.508	59.8877
25.526	59.7827
25.544	59.6688
25.562	59.5385
25.58	59.385
25.598	59.212
25.616	59.0186
25.634	58.8003
25.652	58.5536
25.67	58.2807
25.688	57.9827
25.706	57.6599
25.724	57.3099
25.742	56.9334
25.76	56.5374
25.778	56.1278
25.796	55.6968
25.814	55.2504
25.832	54.8009
25.85	54.3554
25.868	53.9023
25.886	53.4538
25.904	53.0248
25.922	52.6173
25.94	52.2225
25.958	51.8547
25.976	51.5279
25.994	51.2376
26.012	50.9818
26.03	50.7696
26.048	50.6092
26.066	50.4965
26.084	50.4308
26.102	50.4138
26.12	50.4483
26.138	50.5357
26.156	50.6695
26.174	50.8423
26.192	51.055
26.21	51.3136
26.228	51.6032
26.246	51.9083
26.264	52.2332
26.282	52.5831
26.3	52.9386
26.318	53.2808
26.336	53.6214
26.354	53.9596
26.372	54.2743
26.39	54.5467
26.408	54.7891
26.426	54.9997
26.444	55.165
26.462	55.2734
26.48	55.3319
26.498	55.3411
26.516	55.2982
26.534	55.1996
26.552	55.0423
26.57	54.8346
26.588	54.5863
26.606	54.3013
26.624	53.9667
26.642	53.5979
26.66	53.2137
26.678	52.8218
26.696	52.4032
26.714	51.9776
26.732	51.5685
26.75	51.1854
26.768	50.807
26.786	50.453
26.804	50.1467
26.822	49.8991
26.84	49.6921
26.858	49.5365
26.876	49.4456
26.894	49.4274
26.912	49.474
26.93	49.5841
26.948	49.7574
26.966	50.0211
26.984	50.4151
27.002	50.8369
27.02	51.1755
27.028	51.2612