File: Bakgrunnsmateriale/MATLAB/FTIR/ftir_data/subAa/Mapping_121/BZ1503107-1_t27.asc
PE IR       SPECTRUM    SPECTRUM    ASCII       PEDS        1.60
  -1
BZ2569~1.ASC
17/04/07
15:28:19.00
17/04/07
15:28:46.00
tln
$BZ1503107-1_t0027$<tbV0>[2.6,-7.8,8.0,0.0,27,1,0]
27.028
64

2002,4.07
MIRTGS : RIGHTBACK : INTERNAL 2
MIR : ON : INTERNAL 2
OPTKBR

0.200000
8
8.000000
FILLER
RATIO
SPECTRUM
UNLOCKED 256

DOUBLE
64
COMBINED
1
0
0

0.002000
RATIO

1
0
TRUE
51149
0
LEFT NOT FITTED RIGHT NOT FITTED 0
NONE
NONE
15600
12
4.427000
51148
TRUE
1 0 8 72 0 0 0 0

15798

#HDR
-1
-1
#GR
µM
%T
2.38419e-05
0.0
2.000000
0.002000
12515
8
81.245
24.9181
#DATA
2.000000	 64.9051
2.018000	 64.2594
2.036000	 64.6268
2.054000	 64.8457
2.072000	 65.0231
2.090000	 64.9851
2.108000	 65.2662
2.126000	 65.2326
2.144000	 64.9381
2.162000	 64.3627
2.180000	 64.266
2.198000	 64.2311
2.216000	 64.1969
2.234000	 63.8665
2.252000	 64.5078
2.270000	 66.1157
2.288000	 64.5832
2.306000	 64.3372
2.324000	 64.617
2.342000	 64.3343
2.360000	 64.821
2.378000	 65.0035
2.396000	 64.6091
2.414000	 65.2798
2.432000	 65.2893
2.450000	 64.9603
2.468000	 65.1778
2.486000	 65.2241
2.504000	 65.1382
2.522000	 65.2123
2.540000	 65.0213
2.558000	 65.0991
2.576000	 65.0257
2.594000	 64.9691
2.612000	 64.9191
2.630000	 65.2821
2.648000	 65.2125
2.666000	 65.1125
2.684000	 65.205
2.702000	 65.175
2.720000	 65.2911
2.738000	 65.428
2.756000	 65.2275
2.774000	 65.1559
2.792000	 65.2247
2.810000	 65.1266
2.828000	 65.0001
2.846000	 65.1636
2.864000	 64.9809
2.882000	 65.2227
2.900000	 64.8988
2.918000	 65.2364
2.936000	 65.1188
2.954000	 65.2686
2.972000	 65.0017
2.990000	 65.138
3.008000	 65.1609
3.026000	 64.9936
3.044000	 65.1029
3.062000	 65.0937
3.080000	 65.1574
3.098000	 65.1419
3.116000	 65.0367
3.134000	 65.0455
3.152000	 65.1062
3.170000	 65.1291
3.188000	 65.1048
3.206000	 65.1634
3.224000	 65.0539
3.242000	 65.1138
3.260000	 65.2456
3.278000	 65.1187
3.296000	 64.9135
3.314000	 65.0024
3.332000	 65.1074
3.350000	 65.0151
3.368000	 64.7842
3.386000	 64.9614
3.404000	 64.8373
3.422000	 64.954
3.440000	 64.9188
3.458000	 64.8615
3.476000	 64.9838
3.494000	 65.1335
3.512000	 64.9408
3.530000	 64.9669
3.548000	 64.9447
3.566000	 64.9421
3.584000	 65.1788
3.602000	 65.0358
3.620000	 65.1073
3.638000	 65.1207
3.656000	 64.9947
3.674000	 65.0289
3.692000	 65.055
3.710000	 65.0438
3.728000	 65.0916
3.746000	 64.9901
3.764000	 65.0059
3.782000	 64.9945
3.800000	 64.9856
3.818000	 64.9437
3.836000	 64.852
3.854000	 65.049
3.872000	 64.9961
3.890000	 64.9445
3.908000	 65.152
3.926000	 64.9141
3.944000	 65.0347
3.962000	 64.9176
3.980000	 64.9383
3.998000	 64.8507
4.016000	 65.0817
4.034000	 64.8712
4.052000	 64.8813
4.070000	 64.826
4.088000	 64.8257
4.106000	 64.9366
4.124000	 65.1338
4.141999	 64.9965
4.160000	 64.9681
4.178000	 64.9162
4.196000	 64.8786
4.214000	 64.8073
4.232000	 64.9534
4.250000	 64.9037
4.268000	 64.883
4.286000	 64.9099
4.304000	 64.8451
4.322000	 64.9329
4.340000	 64.7449
4.358000	 64.8454
4.375999	 64.843
4.394000	 64.8427
4.412000	 64.8519
4.430000	 64.828
4.448000	 64.8034
4.466000	 64.8495
4.484000	 64.9386
4.502000	 64.9144
4.520000	 64.9344
4.538000	 64.9027
4.556000	 64.9382
4.574000	 64.971
4.592000	 64.8186
4.609999	 64.8477
4.628000	 64.8614
4.646000	 64.7825
4.664000	 64.7267
4.682000	 64.7163
4.700000	 64.8259
4.718000	 64.8472
4.736000	 64.8307
4.754000	 64.825
4.772000	 64.8038
4.790000	 64.7357
4.808000	 64.8189
4.826000	 64.7769
4.843999	 64.7112
4.862000	 64.7798
4.880000	 64.8289
4.898000	 64.8857
4.916000	 64.8014
4.934000	 64.8152
4.952000	 64.8587
4.970000	 64.892
4.988000	 64.8745
5.006000	 64.8012
5.024000	 64.7719
5.042000	 64.7163
5.060000	 64.7727
5.077999	 64.7865
5.096000	 64.7543
5.114000	 64.7966
5.132000	 64.7989
5.150000	 64.752
5.168000	 64.7099
5.186000	 64.6511
5.204000	 64.7033
5.222000	 64.6982
5.240000	 64.745
5.258000	 64.6537
5.276000	 64.563
5.294000	 64.6354
5.312000	 64.6379
5.330000	 64.6267
5.348000	 64.709
5.366000	 64.6224
5.384000	 64.5885
5.402000	 64.6959
5.420000	 64.7097
5.438000	 64.7727
5.456000	 64.6715
5.474000	 64.6713
5.492000	 64.7233
5.510000	 64.7439
5.528000	 64.701
5.546000	 64.6699
5.564000	 64.625
5.582000	 64.4739
5.600000	 64.4781
5.618000	 64.5425
5.636000	 64.6113
5.654000	 64.5325
5.672000	 64.4858
5.690000	 64.4999
5.708000	 64.4698
5.726000	 64.3795
5.744000	 64.2529
5.762000	 64.082
5.780000	 64.0847
5.798000	 64.1424
5.816000	 64.1947
5.834000	 64.3651
5.852000	 64.4342
5.870000	 64.5722
5.888000	 64.6916
5.906000	 64.6089
5.923999	 64.5805
5.942000	 64.5554
5.960000	 64.5312
5.978000	 64.5703
5.996000	 64.6122
6.014000	 64.5617
6.032000	 64.4416
6.050000	 64.3751
6.068000	 64.3543
6.086000	 64.3783
6.104000	 64.4808
6.122000	 64.5163
6.140000	 64.448
6.158000	 64.3607
6.176000	 64.3003
6.194000	 64.3376
6.212000	 64.4483
6.230000	 64.5223
6.248000	 64.4467
6.266000	 64.4015
6.284000	 64.4217
6.302000	 64.4013
6.320000	 64.4462
6.338000	 64.5027
6.356000	 64.4618
6.374000	 64.4287
6.392000	 64.4879
6.410000	 64.5257
6.428000	 64.468
6.446000	 64.4252
6.464000	 64.3863
6.482000	 64.3457
6.500000	 64.3914
6.518000	 64.5092
6.536000	 64.5727
6.554000	 64.5085
6.572000	 64.4563
6.590000	 64.5191
6.608000	 64.578
6.626000	 64.5546
6.644000	 64.4895
6.662000	 64.4349
6.680000	 64.4047
6.698000	 64.3906
6.716000	 64.405
6.734000	 64.4446
6.752000	 64.4709
6.770000	 64.4605
6.788000	 64.3895
6.806000	 64.296
6.824000	 64.2579
6.842000	 64.2453
6.860000	 64.2355
6.878000	 64.2621
6.896000	 64.2688
6.914000	 64.248
6.932000	 64.2779
6.950000	 64.3362
6.968000	 64.3927
6.986000	 64.4442
7.004000	 64.4776
7.022000	 64.4817
7.040000	 64.4359
7.058000	 64.3571
7.076000	 64.3131
7.094000	 64.3593
7.112000	 64.3988
7.130000	 64.3188
7.148000	 64.2342
7.166000	 64.2364
7.184000	 64.2398
7.202000	 64.222
7.220000	 64.217
7.238000	 64.2262
7.256000	 64.2529
7.274000	 64.2962
7.292000	 64.3195
7.310000	 64.2818
7.328000	 64.1995
7.346000	 64.151
7.364000	 64.1884
7.382000	 64.2629
7.400000	 64.2862
7.418000	 64.2656
7.436000	 64.2878
7.454000	 64.3634
7.472000	 64.405
7.490000	 64.3671
7.508000	 64.2939
7.526000	 64.2336
7.544000	 64.1959
7.562000	 64.1945
7.580000	 64.2416
7.598000	 64.2803
7.616000	 64.2339
7.634000	 64.1445
7.652000	 64.1143
7.670000	 64.1421
7.688000	 64.1558
7.706000	 64.1432
7.724000	 64.1479
7.742000	 64.1893
7.760000	 64.24
7.778000	 64.2575
7.796000	 64.2281
7.814000	 64.1805
7.832000	 64.1427
7.850000	 64.1036
7.868000	 64.0535
7.886000	 64.034
7.904000	 64.0797
7.922000	 64.1364
7.940000	 64.1319
7.958000	 64.0941
7.976000	 64.0937
7.994000	 64.1274
8.012000	 64.1477
8.030000	 64.1437
8.048000	 64.1288
8.065999	 64.1106
8.084000	 64.1041
8.102000	 64.1244
8.120000	 64.1505
8.138000	 64.1408
8.155999	 64.0862
8.173999	 64.0235
8.192000	 63.9951
8.210000	 64.009
8.228000	 64.0374
8.246000	 64.0468
8.263999	 64.0331
8.282000	 64.0219
8.300000	 64.0325
8.318000	 64.054
8.336000	 64.0687
8.353999	 64.0784
8.372000	 64.0894
8.390000	 64.0902
8.408000	 64.0676
8.426000	 64.037
8.443999	 64.0299
8.462000	 64.0513
8.480000	 64.0667
8.498000	 64.0451
8.516000	 63.9984
8.533999	 63.9666
8.552000	 63.9716
8.570000	 64.0025
8.588000	 64.0349
8.606000	 64.0484
8.624000	 64.0296
8.641999	 63.9739
8.660000	 63.8956
8.678000	 63.8287
8.696000	 63.8077
8.714000	 63.844
8.731999	 63.9179
8.750000	 63.9888
8.768000	 64.0264
8.786000	 64.0345
8.804000	 64.0345
8.821999	 64.0303
8.840000	 64.006
8.858000	 63.9537
8.876000	 63.8891
8.894000	 63.845
8.911999	 63.8484
8.930000	 63.8958
8.948000	 63.957
8.966000	 63.999
8.984000	 64.0069
9.001999	 63.9875
9.020000	 63.9676
9.038000	 63.9784
9.056000	 64.0249
9.074000	 64.0752
9.092000	 64.0921
9.109999	 64.0716
9.128000	 64.0461
9.146000	 64.0513
9.164000	 64.0901
9.182000	 64.1332
9.199999	 64.1489
9.218000	 64.1308
9.236000	 64.0955
9.254000	 64.0616
9.272000	 64.0351
9.289999	 64.0132
9.308000	 63.9972
9.326000	 63.9947
9.344000	 64.0104
9.362000	 64.0344
9.379999	 64.0459
9.398000	 64.0287
9.416000	 63.9863
9.434000	 63.9417
9.452000	 63.9208
9.469999	 63.9352
9.488000	 63.9766
9.506000	 64.0239
9.524000	 64.0566
9.542000	 64.0631
9.560000	 64.0426
9.577999	 64.0043
9.596000	 63.964
9.614000	 63.9406
9.632000	 63.9465
9.650000	 63.9808
9.667999	 64.029
9.686000	 64.0749
9.704000	 64.112
9.722000	 64.1424
9.740000	 64.168
9.757999	 64.1837
9.776000	 64.1811
9.794000	 64.1593
9.812000	 64.1281
9.830000	 64.0993
9.847999	 64.0747
9.866000	 64.0435
9.884000	 63.9934
9.902000	 63.9255
9.920000	 63.8577
9.937999	 63.8172
9.956000	 63.8236
9.974000	 63.8773
9.992000	 63.9621
10.01	64.0529
10.028	64.1263
10.046	64.1664
10.064	64.1652
10.082	64.1244
10.1	64.0564
10.118	63.9859
10.136	63.9425
10.154	63.9468
10.172	63.9989
10.19	64.0732
10.208	64.1346
10.226	64.1588
10.244	64.1453
10.262	64.115
10.28	64.0911
10.298	64.0851
10.316	64.0928
10.334	64.1044
10.352	64.1155
10.37	64.1296
10.388	64.1512
10.406	64.1784
10.424	64.203
10.442	64.2181
10.46	64.2258
10.478	64.2363
10.496	64.259
10.514	64.2924
10.532	64.3212
10.55	64.3246
10.568	64.2882
10.586	64.2132
10.604	64.1157
10.622	64.021
10.64	63.9518
10.658	63.9212
10.676	63.9298
10.694	63.9672
10.712	64.016
10.73	64.0602
10.748	64.0884
10.766	64.0982
10.784	64.0942
10.802	64.0846
10.82	64.076
10.838	64.0715
10.856	64.072
10.874	64.0776
10.892	64.0888
10.91	64.1049
10.928	64.122
10.946	64.1329
10.964	64.1307
10.982	64.1118
11	64.0783
11.018	64.0377
11.036	63.999
11.054	63.9694
11.072	63.9515
11.09	63.9454
11.108	63.9498
11.126	63.9636
11.144	63.9854
11.162	64.0119
11.18	64.0377
11.198	64.0564
11.216	64.0633
11.234	64.0583
11.252	64.0467
11.27	64.0377
11.288	64.0418
11.306	64.0655
11.324	64.1081
11.342	64.161
11.36	64.2107
11.378	64.2429
11.396	64.2489
11.414	64.2276
11.432	64.186
11.45	64.1359
11.468	64.0909
11.486	64.0606
11.504	64.0497
11.522	64.0569
11.54	64.0763
11.558	64.099
11.576	64.1156
11.594	64.119
11.612	64.1045
11.63	64.0717
11.648	64.0241
11.666	63.9682
11.684	63.9117
11.702	63.8604
11.72	63.8177
11.738	63.7844
11.756	63.7589
11.774	63.7395
11.792	63.7272
11.81	63.7256
11.828	63.7401
11.846	63.7768
11.864	63.8385
11.882	63.9225
11.9	64.0187
11.918	64.1118
11.936	64.1853
11.954	64.2269
11.972	64.231
11.99	64.2018
12.008	64.151
12.026	64.0935
12.044	64.0436
12.062	64.009
12.08	63.9891
12.098	63.9781
12.116	63.9674
12.134	63.95
12.152	63.924
12.17	63.8918
12.188	63.8581
12.206	63.8281
12.224	63.806
12.242	63.7941
12.26	63.7934
12.278	63.8028
12.296	63.8201
12.314	63.8407
12.332	63.8591
12.35	63.8709
12.368	63.8741
12.386	63.8697
12.404	63.8628
12.422	63.8613
12.44	63.8726
12.458	63.9019
12.476	63.9499
12.494	64.0126
12.512	64.0824
12.53	64.1504
12.548	64.2097
12.566	64.2568
12.584	64.2915
12.602	64.3158
12.62	64.3325
12.638	64.344
12.656	64.3513
12.674	64.3539
12.692	64.3504
12.71	64.3385
12.728	64.316
12.746	64.2815
12.764	64.235
12.782	64.1788
12.8	64.117
12.818	64.0551
12.836	63.9983
12.854	63.9509
12.872	63.9146
12.89	63.8891
12.908	63.872
12.926	63.8601
12.944	63.8508
12.962	63.8436
12.98	63.8407
12.998	63.8462
13.016	63.8642
13.034	63.8973
13.052	63.9448
13.07	64.0019
13.088	64.0613
13.106	64.1138
13.124	64.151
13.142	64.167
13.16	64.1594
13.178	64.1297
13.196	64.0828
13.214	64.026
13.232	63.968
13.25	63.9174
13.268	63.8811
13.286	63.8633
13.304	63.865
13.322	63.8839
13.34	63.9146
13.358	63.9497
13.376	63.9809
13.394	64.0012
13.412	64.0061
13.43	63.9951
13.448	63.9718
13.466	63.9433
13.484	63.9186
13.502	63.9063
13.52	63.9124
13.538	63.9395
13.556	63.9855
13.574	64.0443
13.592	64.1071
13.61	64.1641
13.628	64.2066
13.646	64.2279
13.664	64.2245
13.682	64.1958
13.7	64.1437
13.718	64.0725
13.736	63.9875
13.754	63.8946
13.772	63.7995
13.79	63.7074
13.808	63.6223
13.826	63.548
13.844	63.4867
13.862	63.4387
13.88	63.403
13.898	63.3772
13.916	63.3583
13.934	63.3439
13.952	63.3326
13.97	63.3243
13.988	63.3208
14.006	63.3253
14.024	63.3424
14.042	63.3758
14.06	63.4272
14.078	63.4961
14.096	63.5792
14.114	63.6706
14.132	63.7621
14.15	63.845
14.168	63.9109
14.186	63.9534
14.204	63.9692
14.222	63.959
14.24	63.927
14.258	63.8813
14.276	63.8323
14.294	63.7909
14.312	63.7681
14.33	63.7725
14.348	63.81
14.366	63.8833
14.384	63.9892
14.402	64.1204
14.42	64.2654
14.438	64.411
14.456	64.5431
14.474	64.6483
14.492	64.7157
14.51	64.7377
14.528	64.7121
14.546	64.641
14.564	64.5299
14.582	64.387
14.6	64.2218
14.618	64.0447
14.636	63.8661
14.654	63.6946
14.672	63.537
14.69	63.3988
14.708	63.2839
14.726	63.1948
14.744	63.1334
14.762	63.0993
14.78	63.0923
14.798	63.1114
14.816	63.1546
14.834	63.2201
14.852	63.3043
14.87	63.4039
14.888	63.5146
14.906	63.6317
14.924	63.7503
14.942	63.8649
14.96	63.9703
14.978	64.0616
14.996	64.1341
15.014	64.1841
15.032	64.2088
15.05	64.2068
15.068	64.1784
15.086	64.1247
15.104	64.0484
15.122	63.954
15.14	63.8464
15.158	63.7307
15.176	63.6119
15.194	63.4947
15.212	63.3841
15.23	63.2828
15.248	63.1932
15.266	63.1171
15.284	63.0554
15.302	63.0093
15.32	62.9792
15.338	62.9657
15.356	62.9698
15.374	62.9917
15.392	63.0319
15.41	63.0905
15.428	63.1668
15.446	63.2595
15.464	63.3659
15.482	63.4828
15.5	63.6068
15.518	63.7324
15.536	63.8557
15.554	63.9729
15.572	64.0802
15.59	64.1749
15.608	64.2564
15.626	64.3248
15.644	64.3812
15.662	64.4282
15.68	64.4682
15.698	64.5037
15.716	64.5377
15.734	64.5721
15.752	64.6081
15.77	64.6465
15.788	64.6871
15.806	64.7288
15.824	64.7706
15.842	64.8112
15.86	64.849
15.878	64.8826
15.896	64.9109
15.914	64.9321
15.932	64.945
15.95	64.9487
15.968	64.942
15.986	64.924
16.004	64.894
16.022	64.8514
16.04	64.7966
16.058	64.7303
16.076	64.6538
16.094	64.5695
16.112	64.4809
16.13	64.3905
16.148	64.3021
16.166	64.2198
16.184	64.1458
16.202	64.0829
16.22	64.0329
16.238	63.9956
16.256	63.9706
16.274	63.956
16.292	63.9497
16.31	63.9497
16.328	63.9532
16.346	63.9584
16.364	63.964
16.382	63.9692
16.4	63.975
16.418	63.982
16.436	63.9926
16.454	64.0087
16.472	64.0316
16.49	64.0633
16.508	64.1041
16.526	64.1541
16.544	64.2116
16.562	64.274
16.58	64.3391
16.598	64.4022
16.616	64.4601
16.634	64.5096
16.652	64.5468
16.67	64.57
16.688	64.5774
16.706	64.5686
16.724	64.5442
16.742	64.5049
16.76	64.4534
16.778	64.3913
16.796	64.3217
16.814	64.2475
16.832	64.1706
16.85	64.0942
16.868	64.0202
16.886	63.9502
16.904	63.8864
16.922	63.8292
16.94	63.7797
16.958	63.7381
16.976	63.7046
16.994	63.679
17.012	63.6612
17.03	63.6511
17.048	63.6478
17.066	63.6513
17.084	63.6611
17.102	63.6767
17.12	63.6977
17.138	63.7237
17.156	63.7539
17.174	63.7878
17.192	63.8241
17.21	63.8621
17.228	63.9006
17.246	63.9379
17.264	63.9733
17.282	64.0045
17.3	64.0307
17.318	64.05
17.336	64.0612
17.354	64.0636
17.372	64.0564
17.39	64.0397
17.408	64.0136
17.426	63.9794
17.444	63.9376
17.462	63.8908
17.48	63.8398
17.498	63.7878
17.516	63.7368
17.534	63.6885
17.552	63.646
17.57	63.6099
17.588	63.5825
17.606	63.5641
17.624	63.5558
17.642	63.5571
17.66	63.5681
17.678	63.5876
17.696	63.6149
17.714	63.6482
17.732	63.686
17.75	63.7267
17.768	63.7681
17.786	63.8096
17.804	63.8486
17.822	63.8848
17.84	63.9171
17.858	63.9457
17.876	63.9702
17.894	63.9919
17.912	64.0111
17.93	64.0298
17.948	64.0484
17.966	64.0694
17.984	64.093
18.002	64.1208
18.02	64.1528
18.038	64.1897
18.056	64.2303
18.074	64.2746
18.092	64.32
18.11	64.3663
18.128	64.4098
18.146	64.4498
18.164	64.483
18.182	64.5082
18.2	64.5229
18.218	64.526
18.236	64.5164
18.254	64.4936
18.272	64.4574
18.29	64.4091
18.308	64.349
18.326	64.2801
18.344	64.2032
18.362	64.1223
18.38	64.0386
18.398	63.9562
18.416	63.8769
18.434	63.8041
18.452	63.7396
18.47	63.6854
18.488	63.6429
18.506	63.6128
18.524	63.5948
18.542	63.589
18.56	63.5932
18.578	63.6074
18.596	63.6278
18.614	63.6542
18.632	63.6817
18.65	63.7103
18.668	63.7355
18.686	63.7574
18.704	63.7722
18.722	63.7803
18.74	63.7801
18.758	63.7722
18.776	63.7569
18.794	63.7351
18.812	63.7088
18.83	63.6788
18.848	63.6478
18.866	63.6167
18.884	63.5879
18.902	63.5619
18.92	63.5407
18.938	63.5238
18.956	63.5121
18.974	63.5046
18.992	63.5007
19.01	63.4993
19.028	63.4991
19.046	63.4993
19.064	63.4982
19.082	63.4957
19.1	63.4904
19.118	63.4827
19.136	63.4725
19.154	63.4604
19.172	63.4474
19.19	63.4344
19.208	63.4236
19.226	63.4154
19.244	63.4125
19.262	63.4149
19.28	63.4253
19.298	63.4433
19.316	63.4705
19.334	63.5064
19.352	63.5508
19.37	63.6037
19.388	63.6634
19.406	63.7299
19.424	63.8002
19.442	63.8745
19.46	63.9492
19.478	64.0242
19.496	64.0964
19.514	64.165
19.532	64.2282
19.55	64.2851
19.568	64.3349
19.586	64.3763
19.604	64.4095
19.622	64.4338
19.64	64.4493
19.658	64.456
19.676	64.4542
19.694	64.4448
19.712	64.4277
19.73	64.4043
19.748	64.3745
19.766	64.34
19.784	64.301
19.802	64.2587
19.82	64.2137
19.838	64.1667
19.856	64.1189
19.874	64.0702
19.892	64.0217
19.91	63.9734
19.928	63.9261
19.946	63.8797
19.964	63.8345
19.982	63.7905
20	63.7477
20.018	63.7061
20.036	63.6656
20.054	63.6262
20.072	63.5879
20.09	63.5507
20.108	63.5147
20.126	63.4805
20.144	63.4478
20.162	63.4175
20.18	63.39
20.198	63.3656
20.216	63.3452
20.234	63.3287
20.252	63.3173
20.27	63.3109
20.288	63.3102
20.306	63.3151
20.324	63.3259
20.342	63.343
20.36	63.366
20.378	63.3945
20.396	63.4287
20.414	63.4677
20.432	63.5115
20.45	63.5592
20.468	63.6103
20.486	63.6645
20.504	63.7204
20.522	63.7783
20.54	63.8369
20.558	63.8963
20.576	63.9555
20.594	64.014
20.612	64.0716
20.63	64.1275
20.648	64.1818
20.666	64.2331
20.684	64.2816
20.702	64.3264
20.72	64.367
20.738	64.4033
20.756	64.4339
20.774	64.4591
20.792	64.4775
20.81	64.489
20.828	64.4932
20.846	64.4891
20.864	64.4772
20.882	64.4572
20.9	64.429
20.918	64.3934
20.936	64.3504
20.954	64.3003
20.972	64.2449
20.99	64.1835
21.008	64.1183
21.026	64.0499
21.044	63.9789
21.062	63.9081
21.08	63.8366
21.098	63.7671
21.116	63.7
21.134	63.6356
21.152	63.576
21.17	63.5205
21.188	63.4704
21.206	63.4261
21.224	63.3876
21.242	63.3556
21.26	63.3301
21.278	63.3111
21.296	63.2988
21.314	63.293
21.332	63.2937
21.35	63.3009
21.368	63.3144
21.386	63.3341
21.404	63.36
21.422	63.3917
21.44	63.4293
21.458	63.4723
21.476	63.5206
21.494	63.574
21.512	63.6314
21.53	63.6932
21.548	63.758
21.566	63.8247
21.584	63.8935
21.602	63.9619
21.62	64.0301
21.638	64.0969
21.656	64.16
21.674	64.2203
21.692	64.2754
21.71	64.3246
21.728	64.368
21.746	64.4035
21.764	64.4315
21.782	64.4515
21.8	64.4627
21.818	64.4654
21.836	64.4606
21.854	64.448
21.872	64.4283
21.89	64.4029
21.908	64.3712
21.926	64.3352
21.944	64.2962
21.962	64.2538
21.98	64.2097
21.998	64.164
22.016	64.1171
22.034	64.0699
22.052	64.0225
22.07	63.9743
22.088	63.9252
22.106	63.8753
22.124	63.8232
22.142	63.7691
22.16	63.7124
22.178	63.6509
22.196	63.5851
22.214	63.5139
22.232	63.4356
22.25	63.3508
22.268	63.2585
22.286	63.1575
22.304	63.0485
22.322	62.9316
22.34	62.8061
22.358	62.673
22.376	62.5338
22.394	62.3875
22.412	62.2362
22.43	62.0826
22.448	61.9251
22.466	61.7671
22.484	61.611
22.502	61.4553
22.52	61.3038
22.538	61.1581
22.556	61.0174
22.574	60.8849
22.592	60.7609
22.61	60.6453
22.628	60.5405
22.646	60.4464
22.664	60.3627
22.682	60.29
22.7	60.2282
22.718	60.1771
22.736	60.1364
22.754	60.1066
22.772	60.0865
22.79	60.0754
22.808	60.0737
22.826	60.0809
22.844	60.0967
22.862	60.1212
22.88	60.1543
22.898	60.1956
22.916	60.2453
22.934	60.3042
22.952	60.3724
22.97	60.4498
22.988	60.5375
23.006	60.6359
23.024	60.7446
23.042	60.8645
23.06	60.9962
23.078	61.1388
23.096	61.2919
23.114	61.4561
23.132	61.6304
23.15	61.8117
23.168	62.0013
23.186	62.1976
23.204	62.3959
23.222	62.598
23.24	62.8017
23.258	63.0003
23.276	63.1956
23.294	63.3856
23.312	63.5623
23.33	63.7272
23.348	63.8788
23.366	64.0101
23.384	64.1212
23.402	64.2123
23.42	64.2792
23.438	64.321
23.456	64.3389
23.474	64.3319
23.492	64.2988
23.51	64.2409
23.528	64.1607
23.546	64.0574
23.564	63.9314
23.582	63.7891
23.6	63.6314
23.618	63.4568
23.636	63.2739
23.654	63.0866
23.672	62.8908
23.69	62.6957
23.708	62.5071
23.726	62.3201
23.744	62.1418
23.762	61.9789
23.78	61.827
23.798	61.6904
23.816	61.5744
23.834	61.477
23.852	61.399
23.87	61.3433
23.888	61.3104
23.906	61.2986
23.924	61.3065
23.942	61.3355
23.96	61.3841
23.978	61.4477
23.996	61.5254
24.014	61.6187
24.032	61.7213
24.05	61.8295
24.068	61.9469
24.086	62.068
24.104	62.1878
24.122	62.3095
24.14	62.4301
24.158	62.5449
24.176	62.6546
24.194	62.7595
24.212	62.8573
24.23	62.9473
24.248	63.0302
24.266	63.106
24.284	63.1738
24.302	63.2336
24.32	63.2874
24.338	63.3368
24.356	63.38
24.374	63.4194
24.392	63.4586
24.41	63.4961
24.428	63.5326
24.446	63.5728
24.464	63.6186
24.482	63.6678
24.5	63.7229
24.518	63.7858
24.536	63.855
24.554	63.9318
24.572	64.018
24.59	64.1131
24.608	64.217
24.626	64.3311
24.644	64.4559
24.662	64.5907
24.68	64.7363
24.698	64.8937
24.716	65.0632
24.734	65.2436
24.752	65.4341
24.77	65.6345
24.788	65.8451
24.806	66.0653
24.824	66.2944
24.842	66.5321
24.86	66.78
24.878	67.04
24.896	67.3119
24.914	67.5953
24.932	67.8913
24.95	68.2009
24.968	68.5238
24.986	68.8586
25.004	69.2039
25.022	69.5616
25.04	69.9299
25.058	70.305
25.076	70.6861
25.094	71.0756
25.112	71.4681
25.13	71.8584
25.148	72.2508
25.166	72.6423
25.184	73.0255
25.202	73.3978
25.22	73.7641
25.238	74.117
25.256	74.4488
25.274	74.7626
25.292	75.0581
25.31	75.3302
25.328	75.5753
25.346	75.7964
25.364	75.9929
25.382	76.1636
25.4	76.3063
25.418	76.4233
25.436	76.5193
25.454	76.5974
25.472	76.652
25.49	76.6901
25.508	76.7214
25.526	76.7457
25.544	76.7588
25.562	76.7722
25.58	76.7966
25.598	76.8251
25.616	76.8605
25.634	76.9125
25.652	76.9875
25.67	77.0794
25.688	77.191
25.706	77.3265
25.724	77.4886
25.742	77.6746
25.76	77.8806
25.778	78.1034
25.796	78.349
25.814	78.6121
25.832	78.8823
25.85	79.1544
25.868	79.439
25.886	79.7236
25.904	79.9925
25.922	80.2445
25.94	80.4882
25.958	80.7084
25.976	80.8895
25.994	81.0385
26.012	81.1561
26.03	81.2285
26.048	81.2436
26.066	81.209
26.084	81.1237
26.102	80.9818
26.12	80.779
26.138	80.5187
26.156	80.2014
26.174	79.8267
26.192	79.3924
26.21	78.8978
26.228	78.3502
26.246	77.7569
26.264	77.1161
26.282	76.4258
26.3	75.6942
26.318	74.9297
26.336	74.127
26.354	73.287
26.372	72.4193
26.39	71.5328
26.408	70.6232
26.426	69.6903
26.444	68.7383
26.462	67.7709
26.48	66.7862
26.498	65.7839
26.516	64.7651
26.534	63.7309
26.552	62.6835
26.57	61.6189
26.588	60.5323
26.606	59.4219
26.624	58.2943
26.642	57.142
26.66	55.956
26.678	54.7312
26.696	53.475
26.714	52.1833
26.732	50.8508
26.75	49.4736
26.768	48.0547
26.786	46.5959
26.804	45.0992
26.822	43.562
26.84	41.9791
26.858	40.3637
26.876	38.73
26.894	37.0809
26.912	35.4001
26.93	33.7094
26.948	32.0331
26.966	30.3168
26.984	28.4422
27.002	26.6712
27.02	25.29
27.028	24.9181