File: Bakgrunnsmateriale/MATLAB/FTIR/ftir_data/subAa/Mapping_121/BZ1503107-1_t66_cm-1.asc
PE IR       SPECTRUM    SPECTRUM    ASCII       PEDS        1.60
  -1
BZ6E21~1.ASC
17/04/07
18:36:41.00
17/04/07
18:36:41.00
tln
$BZ1503107-1_t0066$<tbV0>[-13.0,0.0,8.0,0.0,27,1,0]
370
64

2002,4.07
MIRTGS : RIGHTBACK : INTERNAL 2
MIR : ON : INTERNAL 2
OPTKBR

0.200000
8
8.000000
FILLER
RATIO
SPECTRUM
UNLOCKED 256

DOUBLE
64
COMBINED
1
0
0

1.000000
RATIO

1
0
TRUE
51149
0
LEFT NOT FITTED RIGHT NOT FITTED 0
NONE
NONE
15600
12
4.427000
51148
TRUE
1 0 8 72 0 0 0 0

15798

#HDR
-1
-1
#GR
CM-1
%T
2.38419e-05
0.0
5000
-1.000000
4631
8
79.5573
54.8076
#DATA
5000	65.6723
4996	66.629
4992	66.8592
4988	66.5523
4984	65.9544
4980	65.1342
4976	64.7105
4972	64.8271
4968	65.1518
4964	65.2378
4960	65.0687
4956	65.0267
4952	64.9275
4948	64.8427
4944	64.9189
4940	65.1826
4936	65.5577
4932	65.8716
4928	65.8652
4924	65.4598
4920	65.0018
4916	64.6326
4912	64.4281
4908	64.3799
4904	64.5517
4900	64.9054
4896	65.0394
4892	64.7285
4888	64.5713
4884	64.9144
4880	65.1605
4876	65.0738
4872	64.9878
4868	64.9439
4864	64.9165
4860	65.114
4856	65.2067
4852	65.0626
4848	65.0654
4844	65.2844
4840	65.3412
4836	65.1636
4832	65.0962
4828	65.0641
4824	64.9812
4820	65.0157
4816	65.1403
4812	65.248
4808	65.2705
4804	65.2949
4800	65.4266
4796	65.4234
4792	65.2037
4788	65.0697
4784	65.2192
4780	65.498
4776	65.6732
4772	65.6619
4768	65.4925
4764	65.3154
4760	65.2619
4756	65.1948
4752	65.0667
4748	65.1117
4744	65.343
4740	65.5395
4736	65.5273
4732	65.431
4728	65.5355
4724	65.575
4720	65.328
4716	65.1871
4712	65.2564
4708	65.3005
4704	65.2926
4700	65.2882
4696	65.3455
4692	65.5055
4688	65.5629
4684	65.5626
4680	65.684
4676	65.6261
4672	65.4403
4668	65.4647
4664	65.5759
4660	65.5826
4656	65.4577
4652	65.2741
4648	65.1321
4644	65.069
4640	65.0966
4636	65.2256
4632	65.4327
4628	65.4723
4624	65.2217
4620	64.9262
4616	64.6271
4612	64.5315
4608	64.8763
4604	65.1906
4600	65.0742
4596	64.8717
4592	65.0432
4588	65.2821
4584	65.1295
4580	64.9863
4576	65.1389
4572	65.1008
4568	64.7948
4564	64.6245
4560	64.7337
4556	64.9978
4552	65.1691
4548	65.0527
4544	64.8583
4540	64.8406
4536	64.9065
4532	65.0215
4528	64.9863
4524	64.7178
4520	64.5396
4516	64.568
4512	64.6648
4508	64.8106
4504	64.8807
4500	64.8256
4496	64.8126
4492	64.8367
4488	64.7587
4484	64.6757
4480	64.6924
4476	64.6285
4472	64.4706
4468	64.5132
4464	64.456
4460	64.4119
4456	64.605
4452	64.5258
4448	63.9578
4444	63.2448
4440	64.1655
4436	66.7424
4432	64.6497
4428	60.6341
4424	65.0279
4420	69.8203
4416	68.09
4412	67.2404
4408	66.5058
4404	64.7493
4400	64.5635
4396	65.0626
4392	65.2167
4388	64.8489
4384	64.5193
4380	64.4943
4376	64.6824
4372	64.872
4368	64.9889
4364	65.3108
4360	65.6121
4356	65.5906
4352	65.3112
4348	64.9146
4344	64.6617
4340	64.6323
4336	64.8633
4332	65.1257
4328	65.1409
4324	65.0763
4320	65.0756
4316	64.9397
4312	64.7512
4308	64.8165
4304	64.9817
4300	64.9992
4296	64.8422
4292	64.787
4288	64.9967
4284	65.1911
4280	65.1732
4276	65.0528
4272	65.0857
4268	65.1862
4264	65.1516
4260	65.1212
4256	65.1625
4252	65.1177
4248	65.013
4244	65.023
4240	65.1158
4236	65.136
4232	65.0577
4228	65.0223
4224	65.0702
4220	65.0878
4216	65.0569
4212	65.0798
4208	65.1961
4204	65.3705
4200	65.5075
4196	65.4785
4192	65.3448
4188	65.2275
4184	65.1765
4180	65.1378
4176	65.164
4172	65.3216
4168	65.2949
4164	65.0375
4160	64.9224
4156	64.9916
4152	65.0915
4148	65.1928
4144	65.1853
4140	65.0752
4136	65.1649
4132	65.4214
4128	65.5167
4124	65.4931
4120	65.4225
4116	65.3135
4112	65.2381
4108	65.1566
4104	65.1558
4100	65.2841
4096	65.407
4092	65.4359
4088	65.4757
4084	65.4805
4080	65.4
4076	65.4148
4072	65.4353
4068	65.3762
4064	65.2724
4060	65.1881
4056	65.2196
4052	65.2821
4048	65.3258
4044	65.347
4040	65.3581
4036	65.3933
4032	65.4276
4028	65.3951
4024	65.253
4020	65.1363
4016	65.2106
4012	65.3712
4008	65.3888
4004	65.257
4000	65.1793
3996	65.3107
3992	65.5209
3988	65.6006
3984	65.5588
3980	65.4465
3976	65.3687
3972	65.3623
3968	65.3806
3964	65.4129
3960	65.3407
3956	65.2469
3952	65.2506
3948	65.2512
3944	65.2248
3940	65.1676
3936	65.1485
3932	65.1929
3928	65.1771
3924	65.1964
3920	65.3056
3916	65.3572
3912	65.3842
3908	65.3911
3904	65.3318
3900	65.2431
3896	65.2066
3892	65.2813
3888	65.2981
3884	65.1701
3880	65.1207
3876	65.2767
3872	65.3616
3868	65.3564
3864	65.4148
3860	65.3302
3856	65.1644
3852	65.1396
3848	65.0973
3844	65.0075
3840	65.1479
3836	65.3349
3832	65.295
3828	65.2097
3824	65.1382
3820	65.1463
3816	65.2867
3812	65.3458
3808	65.3316
3804	65.2857
3800	65.209
3796	65.1294
3792	65.0318
3788	65.131
3784	65.3777
3780	65.4099
3776	65.2924
3772	65.2579
3768	65.2949
3764	65.3593
3760	65.4241
3756	65.4147
3752	65.3025
3748	65.1921
3744	65.1883
3740	65.2184
3736	65.175
3732	65.1869
3728	65.2849
3724	65.2828
3720	65.3301
3716	65.5311
3712	65.6244
3708	65.5584
3704	65.4061
3700	65.2589
3696	65.2337
3692	65.2708
3688	65.3552
3684	65.4454
3680	65.459
3676	65.4552
3672	65.4339
3668	65.3445
3664	65.2687
3660	65.3381
3656	65.4346
3652	65.4007
3648	65.317
3644	65.2393
3640	65.249
3636	65.3417
3632	65.3311
3628	65.2696
3624	65.2413
3620	65.1731
3616	65.1173
3612	65.1257
3608	65.205
3604	65.3234
3600	65.3113
3596	65.1936
3592	65.1619
3588	65.214
3584	65.2171
3580	65.1811
3576	65.2122
3572	65.275
3568	65.3411
3564	65.3675
3560	65.333
3556	65.3529
3552	65.4225
3548	65.4148
3544	65.3526
3540	65.3701
3536	65.394
3532	65.3076
3528	65.2073
3524	65.1861
3520	65.2475
3516	65.3339
3512	65.3679
3508	65.3606
3504	65.3345
3500	65.3342
3496	65.3744
3492	65.422
3488	65.4241
3484	65.3064
3480	65.1978
3476	65.21
3472	65.2208
3468	65.1392
3464	65.0345
3460	65.0445
3456	65.1806
3452	65.3053
3448	65.3229
3444	65.2846
3440	65.2172
3436	65.1103
3432	65.0378
3428	65.0259
3424	65.1135
3420	65.243
3416	65.1868
3412	65.0433
3408	65.0235
3404	65.0212
3400	64.9985
3396	65.0609
3392	65.1344
3388	65.1447
3384	65.1506
3380	65.1538
3376	65.203
3372	65.3145
3368	65.3141
3364	65.2364
3360	65.2179
3356	65.1189
3352	65.0184
3348	65.0735
3344	65.1413
3340	65.2088
3336	65.2991
3332	65.3607
3328	65.3678
3324	65.2888
3320	65.2237
3316	65.2276
3312	65.287
3308	65.3324
3304	65.2477
3300	65.1475
3296	65.1457
3292	65.2183
3288	65.3465
3284	65.4239
3280	65.3492
3276	65.2201
3272	65.1533
3268	65.1464
3264	65.1827
3260	65.2322
3256	65.2472
3252	65.1993
3248	65.1744
3244	65.2405
3240	65.2594
3236	65.1657
3232	65.1265
3228	65.2688
3224	65.4143
3220	65.3829
3216	65.3007
3212	65.2788
3208	65.2384
3204	65.1413
3200	65.1243
3196	65.2463
3192	65.3612
3188	65.3768
3184	65.3042
3180	65.2232
3176	65.2056
3172	65.2256
3168	65.2565
3164	65.2848
3160	65.2686
3156	65.2051
3152	65.158
3148	65.1431
3144	65.1638
3140	65.2253
3136	65.2432
3132	65.171
3128	65.0937
3124	65.0646
3120	65.0169
3116	65.0462
3112	65.1849
3108	65.2261
3104	65.2057
3100	65.2126
3096	65.1266
3092	64.9471
3088	64.8494
3084	64.9275
3080	65.1024
3076	65.2008
3072	65.1494
3068	65.09
3064	65.165
3060	65.2608
3056	65.1825
3052	65.0446
3048	65.0308
3044	65.1034
3040	65.1704
3036	65.173
3032	65.1387
3028	65.1108
3024	65.0841
3020	65.0583
3016	65.0437
3012	65.0807
3008	65.1037
3004	64.9962
3000	64.8886
2996	64.9444
2992	65.0355
2988	65.0182
2984	64.9602
2980	64.9245
2976	64.8626
2972	64.7478
2968	64.6493
2964	64.5985
2960	64.5669
2956	64.5904
2952	64.6748
2948	64.7438
2944	64.7557
2940	64.7675
2936	64.8298
2932	64.8922
2928	64.9211
2924	64.9233
2920	64.9481
2916	65.0075
2912	65.0115
2908	64.9661
2904	64.9425
2900	64.9377
2896	64.9499
2892	64.9769
2888	65.0083
2884	65.0098
2880	64.9137
2876	64.8044
2872	64.8633
2868	65.0264
2864	65.0941
2860	65.0798
2856	65.0781
2852	65.1012
2848	65.1196
2844	65.1267
2840	65.1369
2836	65.1282
2832	65.0996
2828	65.1143
2824	65.1698
2820	65.1742
2816	65.1139
2812	65.0526
2808	65.0421
2804	65.0692
2800	65.0998
2796	65.1473
2792	65.1836
2788	65.1622
2784	65.086
2780	64.9901
2776	64.9818
2772	65.0419
2768	65.0645
2764	65.0541
2760	64.9945
2756	64.9647
2752	65.0315
2748	65.0986
2744	65.136
2740	65.1565
2736	65.1706
2732	65.1954
2728	65.2002
2724	65.1655
2720	65.1463
2716	65.1551
2712	65.1575
2708	65.1645
2704	65.1312
2700	65.0668
2696	65.0416
2692	65.0548
2688	65.0559
2684	65.0458
2680	65.0947
2676	65.1236
2672	65.0812
2668	65.0543
2664	65.0819
2660	65.1546
2656	65.1751
2652	65.1245
2648	65.098
2644	65.0368
2640	64.9102
2636	64.8872
2632	64.9568
2628	64.9569
2624	64.9014
2620	64.8954
2616	64.9512
2612	64.9396
2608	64.8637
2604	64.8677
2600	64.9367
2596	65.0148
2592	65.0689
2588	65.0739
2584	65.0387
2580	65.0031
2576	65.0483
2572	65.069
2568	64.9605
2564	64.8754
2560	64.8969
2556	64.9452
2552	64.9751
2548	65.0074
2544	64.99
2540	64.8771
2536	64.8251
2532	64.9078
2528	65.0159
2524	65.0739
2520	65.0518
2516	64.9857
2512	64.931
2508	64.8831
2504	64.8568
2500	64.889
2496	64.9672
2492	65.0441
2488	65.0504
2484	65.0061
2480	64.9901
2476	64.9812
2472	64.9453
2468	64.8753
2464	64.8098
2460	64.8082
2456	64.8191
2452	64.8268
2448	64.8794
2444	64.9258
2440	64.9559
2436	64.976
2432	64.9319
2428	64.8796
2424	64.8622
2420	64.8353
2416	64.8405
2412	64.9608
2408	65.0764
2404	65.0121
2400	64.9095
2396	64.91
2392	64.9129
2388	64.8962
2384	64.8764
2380	64.8364
2376	64.8374
2372	64.8795
2368	64.8876
2364	64.8798
2360	64.8985
2356	64.8807
2352	64.8611
2348	64.8838
2344	64.8516
2340	64.8054
2336	64.7939
2332	64.7991
2328	64.8972
2324	64.9459
2320	64.8073
2316	64.6989
2312	64.7289
2308	64.7488
2304	64.7688
2300	64.8748
2296	64.9304
2292	64.8841
2288	64.8626
2284	64.8905
2280	64.8952
2276	64.8679
2272	64.8497
2268	64.8533
2264	64.885
2260	64.9016
2256	64.8722
2252	64.8237
2248	64.7642
2244	64.7189
2240	64.7207
2236	64.7729
2232	64.8379
2228	64.8538
2224	64.8724
2220	64.9129
2216	64.8617
2212	64.7703
2208	64.7661
2204	64.8145
2200	64.844
2196	64.8535
2192	64.8446
2188	64.7961
2184	64.7136
2180	64.6772
2176	64.7208
2172	64.7372
2168	64.6991
2164	64.6903
2160	64.7141
2156	64.7279
2152	64.7404
2148	64.7305
2144	64.6955
2140	64.6931
2136	64.6972
2132	64.7176
2128	64.7675
2124	64.7684
2120	64.7631
2116	64.7729
2112	64.7217
2108	64.654
2104	64.648
2100	64.7066
2096	64.7473
2092	64.6895
2088	64.6124
2084	64.5584
2080	64.5132
2076	64.5297
2072	64.581
2068	64.6187
2064	64.667
2060	64.7282
2056	64.7633
2052	64.7494
2048	64.7109
2044	64.6883
2040	64.7016
2036	64.7418
2032	64.761
2028	64.7235
2024	64.678
2020	64.6963
2016	64.7241
2012	64.7126
2008	64.6789
2004	64.6334
2000	64.6498
1996	64.7045
1992	64.7108
1988	64.7058
1984	64.6927
1980	64.6624
1976	64.6751
1972	64.7129
1968	64.6756
1964	64.5485
1960	64.4506
1956	64.469
1952	64.5488
1948	64.6302
1944	64.7106
1940	64.7688
1936	64.8103
1932	64.8037
1928	64.7177
1924	64.6163
1920	64.551
1916	64.5532
1912	64.6142
1908	64.6538
1904	64.6594
1900	64.6774
1896	64.6572
1892	64.5868
1888	64.5525
1884	64.5535
1880	64.5592
1876	64.5818
1872	64.6228
1868	64.6462
1864	64.6354
1860	64.6305
1856	64.6177
1852	64.5994
1848	64.5795
1844	64.5562
1840	64.5776
1836	64.5954
1832	64.5603
1828	64.5116
1824	64.5128
1820	64.5476
1816	64.5198
1812	64.4757
1808	64.475
1804	64.4749
1800	64.4626
1796	64.4658
1792	64.4922
1788	64.5103
1784	64.5208
1780	64.4972
1776	64.4208
1772	64.3734
1768	64.3638
1764	64.3383
1760	64.3224
1756	64.2899
1752	64.1602
1748	63.971
1744	63.767
1740	63.5698
1736	63.45
1732	63.4692
1728	63.6561
1724	63.8994
1720	64.0622
1716	64.1497
1712	64.1727
1708	64.1501
1704	64.1192
1700	64.079
1696	64.092
1692	64.189
1688	64.288
1684	64.3299
1680	64.2966
1676	64.2268
1672	64.2154
1668	64.2917
1664	64.3586
1660	64.3096
1656	64.2205
1652	64.2209
1648	64.2872
1644	64.3211
1640	64.2538
1636	64.1812
1632	64.2261
1628	64.2936
1624	64.2664
1620	64.1836
1616	64.1591
1612	64.1998
1608	64.201
1604	64.1777
1600	64.1907
1596	64.1916
1592	64.2102
1588	64.2606
1584	64.2419
1580	64.1824
1576	64.1937
1572	64.2389
1568	64.2432
1564	64.2545
1560	64.2999
1556	64.2794
1552	64.2007
1548	64.1754
1544	64.2093
1540	64.2565
1536	64.2357
1532	64.17
1528	64.1593
1524	64.1656
1520	64.1838
1516	64.2329
1512	64.2611
1508	64.2503
1504	64.2474
1500	64.3053
1496	64.3955
1492	64.4028
1488	64.292
1484	64.2321
1480	64.2626
1476	64.2531
1472	64.1784
1468	64.1204
1464	64.1251
1460	64.1542
1456	64.1308
1452	64.0498
1448	64.0064
1444	64.0419
1440	64.073
1436	64.0778
1432	64.0882
1428	64.0833
1424	64.0728
1420	64.0863
1416	64.0899
1412	64.0868
1408	64.1307
1404	64.169
1400	64.1026
1396	63.9816
1392	63.9439
1388	63.9649
1384	63.944
1380	63.9239
1376	63.9655
1372	64.0256
1368	64.0306
1364	63.9944
1360	63.9834
1356	64.0063
1352	63.9822
1348	63.905
1344	63.9233
1340	64.0115
1336	64.0124
1332	63.9456
1328	63.9316
1324	63.9558
1320	63.8993
1316	63.8078
1312	63.7726
1308	63.8037
1304	63.893
1300	63.988
1296	64.0337
1292	64.0221
1288	64.0004
1284	63.9476
1280	63.862
1276	63.8426
1272	63.8455
1268	63.7889
1264	63.7328
1260	63.7006
1256	63.6743
1252	63.6544
1248	63.6485
1244	63.6708
1240	63.6987
1236	63.7012
1232	63.6771
1228	63.6622
1224	63.6412
1220	63.6031
1216	63.6156
1212	63.6756
1208	63.7293
1204	63.7395
1200	63.7306
1196	63.7271
1192	63.6727
1188	63.5792
1184	63.5463
1180	63.5304
1176	63.4842
1172	63.4791
1168	63.4088
1164	63.2551
1160	63.2339
1156	63.3781
1152	63.5502
1148	63.6444
1144	63.6993
1140	63.7874
1136	63.8118
1132	63.7492
1128	63.7261
1124	63.7721
1120	63.7757
1116	63.6739
1112	63.6033
1108	63.6768
1104	63.8167
1100	63.8317
1096	63.7488
1092	63.7345
1088	63.7424
1084	63.731
1080	63.6709
1076	63.5574
1072	63.5752
1068	63.7549
1064	63.8918
1060	63.8828
1056	63.7415
1052	63.6612
1048	63.7506
1044	63.7621
1040	63.6273
1036	63.4822
1032	63.4382
1028	63.5416
1024	63.655
1020	63.6743
1016	63.6537
1012	63.7108
1008	63.8367
1004	63.8819
1000	63.8815
996	 63.8965
992	 63.8792
988	 63.8602
984	 63.8491
980	 63.8465
976	 63.8678
972	 63.8956
968	 63.9008
964	 63.8427
960	 63.7446
956	 63.6857
952	 63.683
948	 63.6795
944	 63.6863
940	 63.7503
936	 63.7908
932	 63.7793
928	 63.8393
924	 63.978
920	 63.9823
916	 63.7717
912	 63.6354
908	 63.712
904	 63.7825
900	 63.7049
896	 63.5778
892	 63.5194
888	 63.6044
884	 63.772
880	 63.8038
876	 63.7436
872	 63.763
868	 63.8014
864	 63.7683
860	 63.7369
856	 63.7717
852	 63.7678
848	 63.7297
844	 63.7863
840	 63.7802
836	 63.6212
832	 63.632
828	 63.8171
824	 63.7273
820	 63.5213
816	 63.5802
812	 63.6691
808	 63.6263
804	 63.5539
800	 63.4923
796	 63.4323
792	 63.4357
788	 63.5374
784	 63.6387
780	 63.615
776	 63.4914
772	 63.3949
768	 63.3896
764	 63.4047
760	 63.3802
756	 63.3375
752	 63.3101
748	 63.3121
744	 63.4299
740	 63.5364
736	 63.394
732	 63.2706
728	 63.3622
724	 63.4317
720	 63.3402
716	 63.3741
712	 63.5717
708	 63.4956
704	 63.3915
700	 63.6324
696	 63.8169
692	 63.8392
688	 64.0203
684	 64.0947
680	 63.8692
676	 63.6848
672	 63.4806
668	 63.1901
664	 63.3836
660	 63.861
656	 63.8485
652	 63.8131
648	 64.1369
644	 63.8838
640	 63.2045
636	 63.084
632	 62.8571
628	 62.4167
624	 62.8706
620	 63.8396
616	 63.8927
612	 62.9864
608	 62.6689
604	 63.3107
600	 63.6711
596	 63.6728
592	 63.8391
588	 63.9618
584	 64.0897
580	 64.027
576	 63.7326
572	 63.6998
568	 63.8876
564	 63.8268
560	 63.5813
556	 63.4985
552	 63.5086
548	 63.4718
544	 63.1363
540	 62.7778
536	 63.0656
532	 63.6488
528	 64.1172
524	 64.3445
520	 64.0178
516	 63.606
512	 63.4217
508	 63.2544
504	 63.2029
500	 63.2609
496	 63.3609
492	 63.4246
488	 63.5473
484	 63.7706
480	 63.7575
476	 63.7761
472	 63.8121
468	 63.4304
464	 63.2022
460	 63.1183
456	 62.7792
452	 62.8003
448	 62.7099
444	 62.0247
440	 61.7226
436	 61.5085
432	 61.7456
428	 63.0941
424	 64.0465
420	 64.1529
416	 63.9561
412	 63.5051
408	 61.717
404	 59.0144
400	 59.0283
396	 59.1054
392	 55.8412
388	 55.3447
384	 61.9945
380	 74.5025
376	 78.7421
372	 66.2673
370	 61.9095