File: Bakgrunnsmateriale/MATLAB/FTIR/ftir_data/subAa/Mapping_121/BZ1503107-1_t44_cm-1.asc
PE IR       SPECTRUM    SPECTRUM    ASCII       PEDS        1.60
  -1
BZ6C24~1.ASC
17/04/07
16:47:28.00
17/04/07
16:47:28.00
tln
$BZ1503107-1_t0044$<tbV0>[-13.0,-5.2,8.0,0.0,27,1,0]
370
64

2002,4.07
MIRTGS : RIGHTBACK : INTERNAL 2
MIR : ON : INTERNAL 2
OPTKBR

0.200000
8
8.000000
FILLER
RATIO
SPECTRUM
UNLOCKED 256

DOUBLE
64
COMBINED
1
0
0

1.000000
RATIO

1
0
TRUE
51149
0
LEFT NOT FITTED RIGHT NOT FITTED 0
NONE
NONE
15600
12
4.427000
51148
TRUE
1 0 8 72 0 0 0 0

15798

#HDR
-1
-1
#GR
CM-1
%T
2.38419e-05
0.0
5000
-1.000000
4631
8
71.0333
40.3922
#DATA
5000	65.1152
4996	64.7601
4992	64.4167
4988	64.2906
4984	64.484
4980	64.4676
4976	64.2541
4972	64.1253
4968	63.9699
4964	63.9403
4960	64.0709
4956	64.0793
4952	64.0205
4948	64.2561
4944	64.6713
4940	64.7394
4936	64.4538
4932	64.3842
4928	64.6489
4924	64.8356
4920	64.5592
4916	63.9622
4912	63.9714
4908	64.4479
4904	64.6137
4900	64.7055
4896	64.7292
4892	64.6672
4888	64.7959
4884	64.986
4880	65.1501
4876	65.2271
4872	64.9601
4868	64.6315
4864	64.6244
4860	64.762
4856	64.8065
4852	64.6829
4848	64.7101
4844	64.9555
4840	64.9601
4836	64.7942
4832	64.8173
4828	64.9049
4824	64.7959
4820	64.5286
4816	64.4262
4812	64.6414
4808	64.8618
4804	64.9789
4800	64.9505
4796	64.6951
4792	64.7074
4788	64.864
4784	64.6021
4780	64.4246
4776	64.6962
4772	64.8732
4768	64.7887
4764	64.7938
4760	64.8436
4756	64.8928
4752	65.0232
4748	65.0697
4744	65.0898
4740	65.1275
4736	65.0451
4732	64.9884
4728	64.9266
4724	64.7532
4720	64.7688
4716	64.9873
4712	65.2708
4708	65.4808
4704	65.2685
4700	64.7315
4696	64.4692
4692	64.5772
4688	64.6495
4684	64.6512
4680	64.6525
4676	64.5737
4672	64.4646
4668	64.4316
4664	64.4489
4660	64.5355
4656	64.841
4652	65.1074
4648	65.1357
4644	65.1355
4640	65.0707
4636	64.8812
4632	64.6948
4628	64.5649
4624	64.51
4620	64.5957
4616	64.6923
4612	64.5879
4608	64.4387
4604	64.3326
4600	64.1917
4596	64.2912
4592	64.5756
4588	64.6072
4584	64.5233
4580	64.5782
4576	64.6065
4572	64.4419
4568	64.2736
4564	64.2761
4560	64.2713
4556	64.2507
4552	64.3498
4548	64.4291
4544	64.496
4540	64.4416
4536	64.2006
4532	64.272
4528	64.5636
4524	64.6546
4520	64.7086
4516	64.7803
4512	64.7611
4508	64.5818
4504	64.3026
4500	64.1012
4496	63.9681
4492	63.946
4488	64.0945
4484	64.2556
4480	64.3062
4476	64.2622
4472	64.1639
4468	64.1837
4464	64.3087
4460	64.4932
4456	64.4732
4452	64.4061
4448	64.6977
4444	65.1419
4440	66.203
4436	67.3462
4432	69.1018
4428	71.0131
4424	69.2825
4420	64.5343
4416	62.9336
4412	66.0335
4408	67.259
4404	65.7512
4400	65.1544
4396	64.4943
4392	63.8064
4388	63.4578
4384	63.5777
4380	64.0701
4376	64.2493
4372	64.3036
4368	64.4319
4364	64.3624
4360	64.1907
4356	64.1995
4352	64.3195
4348	64.3214
4344	64.2594
4340	64.3892
4336	64.6161
4332	64.6413
4328	64.4068
4324	64.1981
4320	64.2032
4316	64.298
4312	64.358
4308	64.4951
4304	64.785
4300	64.9067
4296	64.7815
4292	64.7767
4288	64.953
4284	65.034
4280	64.8477
4276	64.6055
4272	64.6076
4268	64.7403
4264	64.8278
4260	64.8969
4256	64.953
4252	64.8876
4248	64.7148
4244	64.766
4240	64.9376
4236	64.867
4232	64.7909
4228	64.8458
4224	64.8481
4220	64.8135
4216	64.8512
4212	65.0264
4208	65.1493
4204	65.0527
4200	64.9428
4196	64.8792
4192	64.8989
4188	65.069
4184	65.0993
4180	64.9351
4176	64.7974
4172	64.8053
4168	64.9505
4164	65.1058
4160	65.1428
4156	65.0424
4152	64.9675
4148	65.0338
4144	65.0675
4140	64.901
4136	64.8176
4132	64.8769
4128	64.8894
4124	64.9987
4120	65.2062
4116	65.3169
4112	65.2419
4108	65.03
4104	64.7964
4100	64.6654
4096	64.6966
4092	64.7955
4088	64.8461
4084	64.7673
4080	64.7135
4076	64.854
4072	65.0711
4068	65.1413
4064	65.0121
4060	64.9304
4056	64.9151
4052	64.8411
4048	64.7656
4044	64.7567
4040	64.8815
4036	64.9408
4032	64.7902
4028	64.7376
4024	64.8219
4020	64.7904
4016	64.6817
4012	64.6931
4008	64.8609
4004	64.9473
4000	64.8949
3996	64.8869
3992	64.9075
3988	64.8564
3984	64.7541
3980	64.7625
3976	64.9078
3972	64.9921
3968	64.9515
3964	64.907
3960	64.8756
3956	64.8498
3952	64.8839
3948	64.9299
3944	64.941
3940	64.8849
3936	64.7603
3932	64.6975
3928	64.7411
3924	64.7924
3920	64.8941
3916	64.9971
3912	64.919
3908	64.8572
3904	64.9505
3900	64.9213
3896	64.8414
3892	64.8935
3888	64.9036
3884	64.8309
3880	64.7785
3876	64.8075
3872	64.8636
3868	64.8576
3864	64.8177
3860	64.8156
3856	64.9441
3852	65.097
3848	64.9996
3844	64.806
3840	64.8428
3836	65.0354
3832	65.1523
3828	65.1005
3824	65.0225
3820	65.0574
3816	65.0831
3812	64.953
3808	64.8566
3804	65.0016
3800	65.207
3796	65.3002
3792	65.2532
3788	65.1262
3784	65.0514
3780	65.0754
3776	65.135
3772	65.1563
3768	65.1463
3764	65.0999
3760	64.9921
3756	64.8334
3752	64.694
3748	64.6511
3744	64.7641
3740	64.8948
3736	64.8604
3732	64.8241
3728	64.8024
3724	64.7247
3720	64.801
3716	65.057
3712	65.2301
3708	65.1874
3704	65.0964
3700	65.0434
3696	64.9004
3692	64.7893
3688	64.8484
3684	64.9188
3680	64.9383
3676	64.9536
3672	65.0218
3668	65.1101
3664	65.0735
3660	64.9749
3656	65.0083
3652	65.101
3648	65.0474
3644	64.9492
3640	64.9095
3636	64.933
3632	65.0467
3628	65.1237
3624	65.1689
3620	65.2562
3616	65.3201
3612	65.2834
3608	65.1202
3604	64.9451
3600	64.8969
3596	64.975
3592	65.0744
3588	65.0721
3584	64.9747
3580	64.8425
3576	64.783
3572	64.9041
3568	65.0192
3564	64.9951
3560	64.9488
3556	64.9215
3552	64.8795
3548	64.8128
3544	64.7771
3540	64.78
3536	64.8127
3532	64.8992
3528	64.9722
3524	65.0493
3520	65.1133
3516	65.0526
3512	64.9151
3508	64.8308
3504	64.8593
3500	64.9466
3496	65.0444
3492	65.1091
3488	65.0191
3484	64.8343
3480	64.7182
3476	64.7099
3472	64.7945
3468	64.9019
3464	64.9476
3460	64.9302
3456	64.9129
3452	64.9362
3448	64.9667
3444	64.9105
3440	64.7999
3436	64.7844
3432	64.801
3428	64.7626
3424	64.7828
3420	64.8054
3416	64.7824
3412	64.8856
3408	65.0554
3404	65.1322
3400	65.124
3396	65.1133
3392	65.1284
3388	65.0942
3384	65.0668
3380	65.0962
3376	65.1395
3372	65.1561
3368	65.0879
3364	65.015
3360	65.035
3356	65.0572
3352	64.9683
3348	64.9106
3344	65.0321
3340	65.1891
3336	65.2368
3332	65.1809
3328	65.0899
3324	65.0141
3320	64.931
3316	64.8607
3312	64.8545
3308	64.8939
3304	64.8868
3300	64.8762
3296	64.9269
3292	64.9134
3288	64.8174
3284	64.7562
3280	64.8213
3276	64.991
3272	65.0755
3268	65.0484
3264	65.0028
3260	64.9704
3256	64.9945
3252	65.0447
3248	65.0865
3244	65.0952
3240	65.021
3236	64.8958
3232	64.841
3228	64.9176
3224	65.0141
3220	65.0055
3216	64.9448
3212	64.944
3208	64.9953
3204	65.0123
3200	64.967
3196	64.885
3192	64.8298
3188	64.8474
3184	64.8932
3180	64.9741
3176	65.064
3172	65.0283
3168	64.9472
3164	64.9624
3160	64.9861
3156	64.9542
3152	64.9008
3148	64.8661
3144	64.9013
3140	64.8923
3136	64.8054
3132	64.8981
3128	65.0684
3124	65.0553
3120	65.0112
3116	65.059
3112	65.0787
3108	64.9942
3104	64.9067
3100	64.9424
3096	65.042
3092	65.0211
3088	64.9441
3084	64.9471
3080	64.9001
3076	64.8104
3072	64.8219
3068	64.9024
3064	64.9643
3060	64.991
3056	64.9999
3052	64.9705
3048	64.9069
3044	64.8623
3040	64.8512
3036	64.8551
3032	64.8606
3028	64.8079
3024	64.739
3020	64.7993
3016	64.9033
3012	64.9238
3008	64.9477
3004	64.9892
3000	64.9488
2996	64.8432
2992	64.7896
2988	64.8158
2984	64.8336
2980	64.8039
2976	64.7643
2972	64.6761
2968	64.539
2964	64.5323
2960	64.6778
2956	64.8114
2952	64.8713
2948	64.8636
2944	64.8276
2940	64.7932
2936	64.7373
2932	64.6963
2928	64.7255
2924	64.7609
2920	64.7565
2916	64.7372
2912	64.7204
2908	64.7184
2904	64.7775
2900	64.8603
2896	64.8408
2892	64.7461
2888	64.7044
2884	64.6914
2880	64.6989
2876	64.8023
2872	64.9178
2868	64.9372
2864	64.9287
2860	64.9441
2856	64.9538
2852	64.9309
2848	64.8795
2844	64.8601
2840	64.8468
2836	64.8056
2832	64.795
2828	64.8529
2824	64.8979
2820	64.87
2816	64.8841
2812	64.9257
2808	64.9379
2804	64.9728
2800	65.0082
2796	65.0258
2792	64.9994
2788	64.924
2784	64.8666
2780	64.9011
2776	65.0035
2772	65.0359
2768	64.9859
2764	64.9333
2760	64.9313
2756	64.9658
2752	64.9582
2748	64.9773
2744	65.0392
2740	64.9939
2736	64.8817
2732	64.8519
2728	64.8919
2724	64.9524
2720	65.0098
2716	64.9893
2712	64.9132
2708	64.8891
2704	64.9054
2700	64.9337
2696	64.9569
2692	64.9265
2688	64.9279
2684	64.9976
2680	65.0051
2676	64.942
2672	64.8921
2668	64.8714
2664	64.8665
2660	64.8884
2656	64.9288
2652	64.9407
2648	64.9258
2644	64.9291
2640	64.9579
2636	64.928
2632	64.8692
2628	64.9145
2624	64.9563
2620	64.8709
2616	64.7832
2612	64.8006
2608	64.823
2604	64.7812
2600	64.7759
2596	64.7809
2592	64.7566
2588	64.7834
2584	64.8077
2580	64.8129
2576	64.8432
2572	64.8531
2568	64.8898
2564	64.957
2560	64.9392
2556	64.8538
2552	64.7707
2548	64.7052
2544	64.7479
2540	64.8496
2536	64.8784
2532	64.8756
2528	64.8549
2524	64.8007
2520	64.7316
2516	64.7212
2512	64.8198
2508	64.9108
2504	64.9063
2500	64.89
2496	64.8789
2492	64.8388
2488	64.8502
2484	64.8778
2480	64.8653
2476	64.8593
2472	64.8403
2468	64.8059
2464	64.8164
2460	64.8278
2456	64.7892
2452	64.7885
2448	64.8213
2444	64.8108
2440	64.801
2436	64.8257
2432	64.8464
2428	64.8221
2424	64.7531
2420	64.7145
2416	64.7398
2412	64.7365
2408	64.701
2404	64.7117
2400	64.7457
2396	64.8163
2392	64.9195
2388	64.9326
2384	64.8309
2380	64.731
2376	64.7023
2372	64.7264
2368	64.7442
2364	64.7304
2360	64.7438
2356	64.8181
2352	64.8893
2348	64.9078
2344	64.9058
2340	64.8938
2336	64.8682
2332	64.8721
2328	64.89
2324	64.8512
2320	64.7816
2316	64.7728
2312	64.7915
2308	64.797
2304	64.8331
2300	64.8092
2296	64.7215
2292	64.7414
2288	64.8041
2284	64.791
2280	64.7936
2276	64.8511
2272	64.879
2268	64.8091
2264	64.7305
2260	64.7328
2256	64.7571
2252	64.7834
2248	64.7878
2244	64.7267
2240	64.6695
2236	64.6888
2232	64.7457
2228	64.7685
2224	64.7492
2220	64.7216
2216	64.6948
2212	64.6782
2208	64.6816
2204	64.7124
2200	64.7864
2196	64.8459
2192	64.8373
2188	64.8046
2184	64.8302
2180	64.8951
2176	64.8597
2172	64.7643
2168	64.7411
2164	64.7242
2160	64.6846
2156	64.6964
2152	64.7186
2148	64.6751
2144	64.6322
2140	64.6622
2136	64.7066
2132	64.6807
2128	64.6109
2124	64.612
2120	64.6211
2116	64.5658
2112	64.509
2108	64.4825
2104	64.5342
2100	64.6372
2096	64.6965
2092	64.7167
2088	64.7126
2084	64.6382
2080	64.5617
2076	64.5501
2072	64.5746
2068	64.6041
2064	64.5858
2060	64.5583
2056	64.6013
2052	64.6652
2048	64.6791
2044	64.6545
2040	64.6453
2036	64.63
2032	64.6256
2028	64.6948
2024	64.7404
2020	64.7315
2016	64.7265
2012	64.6973
2008	64.7102
2004	64.7775
2000	64.7599
1996	64.6794
1992	64.6384
1988	64.6395
1984	64.6497
1980	64.6515
1976	64.636
1972	64.6436
1968	64.6931
1964	64.73
1960	64.739
1956	64.728
1952	64.7193
1948	64.6723
1944	64.6156
1940	64.6318
1936	64.6307
1932	64.6013
1928	64.6299
1924	64.672
1920	64.6435
1916	64.5949
1912	64.6174
1908	64.6685
1904	64.6634
1900	64.6037
1896	64.518
1892	64.487
1888	64.5746
1884	64.6171
1880	64.536
1876	64.5109
1872	64.5883
1868	64.6641
1864	64.6303
1860	64.5495
1856	64.5736
1852	64.6432
1848	64.6642
1844	64.6585
1840	64.6382
1836	64.5682
1832	64.5174
1828	64.5318
1824	64.5291
1820	64.5209
1816	64.5385
1812	64.5284
1808	64.5317
1804	64.5987
1800	64.6068
1796	64.5356
1792	64.4816
1788	64.462
1784	64.4536
1780	64.4357
1776	64.4748
1772	64.5372
1768	64.5016
1764	64.4076
1760	64.3167
1756	64.2767
1752	64.334
1748	64.3533
1744	64.2063
1740	64.0501
1736	64.0183
1732	64.0301
1728	64.0561
1724	64.1112
1720	64.185
1716	64.2287
1712	64.2175
1708	64.2482
1704	64.3138
1700	64.3365
1696	64.3589
1692	64.4184
1688	64.4252
1684	64.3652
1680	64.3467
1676	64.3822
1672	64.4093
1668	64.3778
1664	64.3403
1660	64.3494
1656	64.3649
1652	64.3801
1648	64.3701
1644	64.3181
1640	64.3089
1636	64.3409
1632	64.3125
1628	64.238
1624	64.1931
1620	64.1999
1616	64.2314
1612	64.2951
1608	64.3657
1604	64.3576
1600	64.313
1596	64.3154
1592	64.3428
1588	64.3233
1584	64.2695
1580	64.2283
1576	64.2249
1572	64.2955
1568	64.3704
1564	64.3982
1560	64.4215
1556	64.3949
1552	64.2417
1548	64.0709
1544	64.0465
1540	64.1264
1536	64.2033
1532	64.2834
1528	64.3643
1524	64.3998
1520	64.4275
1516	64.4452
1512	64.3983
1508	64.3524
1504	64.3768
1500	64.4223
1496	64.4353
1492	64.4169
1488	64.3785
1484	64.3303
1480	64.2933
1476	64.2792
1472	64.2542
1468	64.2075
1464	64.1965
1460	64.2367
1456	64.2604
1452	64.2134
1448	64.1155
1444	64.1073
1440	64.2574
1436	64.3568
1432	64.2951
1428	64.2416
1424	64.2388
1420	64.2322
1416	64.2385
1412	64.1946
1408	64.1109
1404	64.0903
1400	64.1356
1396	64.1887
1392	64.1921
1388	64.1861
1384	64.1824
1380	64.1076
1376	64.0656
1372	64.133
1368	64.1733
1364	64.1593
1360	64.1306
1356	64.1122
1352	64.1281
1348	64.1181
1344	64.0897
1340	64.1372
1336	64.2278
1332	64.2172
1328	64.1814
1324	64.2005
1320	64.1787
1316	64.1515
1312	64.1249
1308	64.0987
1304	64.1251
1300	64.1108
1296	64.0557
1292	64.0749
1288	64.1241
1284	64.0782
1280	64.0167
1276	64.0268
1272	64.0009
1268	63.9879
1264	64.0388
1260	64.0573
1256	64.0909
1252	64.1261
1248	64.0643
1244	63.9897
1240	63.9577
1236	63.916
1232	63.8887
1228	63.9176
1224	63.973
1220	64.0254
1216	64.0346
1212	63.979
1208	63.9314
1204	63.9331
1200	63.9129
1196	63.8739
1192	63.8384
1188	63.8157
1184	63.8577
1180	63.9143
1176	63.9153
1172	63.87
1168	63.8182
1164	63.8402
1160	63.9104
1156	63.8904
1152	63.8311
1148	63.8345
1144	63.8588
1140	63.7831
1136	63.6969
1132	63.6794
1128	63.6743
1124	63.7607
1120	63.9061
1116	63.9708
1112	63.9893
1108	64.0239
1104	64.073
1100	64.0528
1096	63.9429
1092	63.8108
1088	63.7613
1084	63.8303
1080	63.8674
1076	63.8382
1072	63.8784
1068	63.9809
1064	64.0009
1060	63.9395
1056	63.9212
1052	63.9246
1048	63.8859
1044	63.8463
1040	63.854
1036	63.937
1032	64.0161
1028	63.9893
1024	63.9211
1020	63.9279
1016	64.0256
1012	64.1075
1008	64.0529
1004	63.8886
1000	63.8106
996	 63.8839
992	 63.9458
988	 63.9374
984	 63.9705
980	 64.0325
976	 64.0211
972	 64.0234
968	 64.0642
964	 64.0682
960	 64.0944
956	 64.1274
952	 64.1132
948	 64.045
944	 63.9467
940	 63.8859
936	 63.9457
932	 64.0684
928	 64.1013
924	 64.0702
920	 64.035
916	 64.0074
912	 63.9778
908	 63.9142
904	 63.9148
900	 63.9929
896	 64.0607
892	 64.08
888	 63.9969
884	 63.94
880	 64.0131
876	 63.9942
872	 63.8739
868	 63.9192
864	 63.9794
860	 63.9067
856	 63.9157
852	 63.9963
848	 64.0614
844	 64.1778
840	 64.2633
836	 64.1765
832	 63.9805
828	 63.8747
824	 63.8863
820	 63.8861
816	 63.9108
812	 64.0425
808	 64.1166
804	 64.0252
800	 63.9764
796	 64.0005
792	 63.9381
788	 63.8438
784	 63.7584
780	 63.7159
776	 63.8029
772	 63.9017
768	 63.9122
764	 63.8496
760	 63.8048
756	 63.8317
752	 63.8144
748	 63.7902
744	 63.7409
740	 63.6352
736	 63.6114
732	 63.6702
728	 63.6632
724	 63.7342
720	 64.0879
716	 64.1672
712	 63.8305
708	 63.581
704	 63.4053
700	 63.4494
696	 63.8053
692	 63.9741
688	 63.7906
684	 63.7116
680	 63.771
676	 63.4763
672	 63.2973
668	 63.6184
664	 63.5742
660	 63.2594
656	 63.5444
652	 63.9424
648	 63.7118
644	 63.334
640	 63.1366
636	 63.0454
632	 63.1486
628	 63.4923
624	 64.2391
620	 64.7017
616	 64.3165
612	 63.9751
608	 63.9758
604	 63.9418
600	 63.9874
596	 63.991
592	 63.7555
588	 63.487
584	 63.529
580	 63.8613
576	 64.0752
572	 64.2136
568	 64.2027
564	 63.9853
560	 64.0891
556	 64.4402
552	 64.6359
548	 64.372
544	 63.965
540	 63.7564
536	 63.5135
532	 63.2814
528	 63.4944
524	 63.9357
520	 63.9015
516	 63.5754
512	 63.6706
508	 64.0041
504	 64.1083
500	 63.9269
496	 63.6026
492	 63.5731
488	 63.9934
484	 64.6553
480	 65.0829
476	 64.4274
472	 63.3888
468	 63.1567
464	 63.0646
460	 62.5466
456	 62.586
452	 63.4762
448	 64.2096
444	 63.8661
440	 62.3751
436	 61.7073
432	 62.8618
428	 63.4221
424	 62.8661
420	 62.9393
416	 63.8301
412	 65.7936
408	 67.9108
404	 66.7772
400	 63.6153
396	 63.3574
392	 62.6054
388	 59.4788
384	 54.1844
380	 43.6494
376	 41.4015
372	 51.0012
370	 55.588