File: Bakgrunnsmateriale/MATLAB/FTIR/ftir_data/subAa/Mapping_121/BZ1503107-1_t26_cm-1.asc
PE IR       SPECTRUM    SPECTRUM    ASCII       PEDS        1.60
  -1
BZ6E23~1.ASC
17/04/07
15:23:42.00
17/04/07
15:23:42.00
tln
$BZ1503107-1_t0026$<tbV0>[5.2,-7.8,8.0,0.0,27,1,0]
370
64

2002,4.07
MIRTGS : RIGHTBACK : INTERNAL 2
MIR : ON : INTERNAL 2
OPTKBR

0.200000
8
8.000000
FILLER
RATIO
SPECTRUM
UNLOCKED 256

DOUBLE
64
COMBINED
1
0
0

1.000000
RATIO

1
0
TRUE
51149
0
LEFT NOT FITTED RIGHT NOT FITTED 0
NONE
NONE
15600
12
4.427000
51148
TRUE
1 0 8 72 0 0 0 0

15798

#HDR
-1
-1
#GR
CM-1
%T
2.38419e-05
0.0
5000
-1.000000
4631
8
83.3973
41.6247
#DATA
5000	66.1422
4996	65.1837
4992	64.796
4988	64.9225
4984	64.9889
4980	64.858
4976	64.757
4972	64.7548
4968	64.3999
4964	63.8847
4960	64.1267
4956	64.6035
4952	64.6713
4948	64.6373
4944	64.6853
4940	64.627
4936	64.2865
4932	64.3221
4928	64.9013
4924	65.4269
4920	65.4585
4916	65.1701
4912	65.1912
4908	65.2934
4904	65.2072
4900	65.1584
4896	65.0004
4892	64.7404
4888	64.6235
4884	64.791
4880	65.1813
4876	65.2221
4872	64.8214
4868	64.7364
4864	65.0616
4860	65.1742
4856	65.0988
4852	65.0431
4848	64.8593
4844	64.7156
4840	64.7674
4836	64.8075
4832	64.846
4828	64.9783
4824	64.9641
4820	64.7229
4816	64.493
4812	64.5262
4808	64.6814
4804	64.6844
4800	64.6775
4796	64.7689
4792	64.7953
4788	64.6913
4784	64.589
4780	64.5287
4776	64.5243
4772	64.5581
4768	64.5705
4764	64.6395
4760	64.8147
4756	65.0083
4752	65.1237
4748	65.08
4744	64.7686
4740	64.5793
4736	64.7684
4732	64.9336
4728	64.8746
4724	64.6689
4720	64.6052
4716	64.8449
4712	65.2853
4708	65.6844
4704	65.6435
4700	65.2155
4696	64.9669
4692	65.0216
4688	65.0459
4684	65.1101
4680	65.1511
4676	65.0406
4672	64.9544
4668	64.8021
4664	64.7142
4660	64.9389
4656	65.1173
4652	64.9774
4648	64.8419
4644	64.8642
4640	64.936
4636	64.914
4632	64.7975
4628	64.8542
4624	64.929
4620	64.8027
4616	64.7352
4612	64.8388
4608	64.9536
4604	64.9418
4600	64.9343
4596	65.1172
4592	65.1632
4588	64.9005
4584	64.7747
4580	64.9572
4576	65.1411
4572	65.2797
4568	65.4653
4564	65.6044
4560	65.601
4556	65.344
4552	65.057
4548	65.1222
4544	65.5015
4540	65.7979
4536	65.7961
4532	65.4861
4528	65.1277
4524	65.2236
4520	65.6137
4516	65.9535
4512	66.1598
4508	66.0659
4504	65.8799
4500	65.8104
4496	65.7152
4492	65.6126
4488	65.6463
4484	65.8152
4480	65.7227
4476	65.3858
4472	65.3671
4468	65.7019
4464	65.8854
4460	65.8275
4456	65.7736
4452	65.9991
4448	66.2122
4444	65.42
4440	65.1745
4436	63.564
4432	57.551
4428	48.4447
4424	41.6247
4420	51.5013
4416	67.2996
4412	70.5352
4408	67.4942
4404	66.8947
4400	67.1041
4396	66.4832
4392	65.9714
4388	66.0586
4384	66.3393
4380	66.3091
4376	65.7782
4372	65.2242
4368	64.8692
4364	64.6712
4360	64.8254
4356	65.1576
4352	65.2735
4348	65.3382
4344	65.5297
4340	65.5292
4336	65.2712
4332	65.0299
4328	64.9164
4324	64.996
4320	65.2011
4316	65.3812
4312	65.449
4308	65.4288
4304	65.3941
4300	65.3263
4296	65.2967
4292	65.2832
4288	65.2192
4284	65.1824
4280	65.0876
4276	65.0545
4272	65.201
4268	65.2524
4264	65.2575
4260	65.2811
4256	65.1515
4252	65.0226
4248	65.0223
4244	65.1307
4240	65.1966
4236	65.1073
4232	65.0663
4228	65.1411
4224	65.1688
4220	65.0748
4216	64.9348
4212	64.9069
4208	65.1335
4204	65.3388
4200	65.1859
4196	64.9886
4192	64.9448
4188	64.9197
4184	64.9541
4180	64.8349
4176	64.7671
4172	65.1461
4168	65.4192
4164	65.3231
4160	65.2176
4156	65.1188
4152	65.0425
4148	65.0928
4144	65.1262
4140	64.9809
4136	64.6941
4132	64.6382
4128	64.8422
4124	64.9
4120	64.9264
4116	65.0716
4112	65.1995
4108	65.2666
4104	65.173
4100	65.0335
4096	65.0576
4092	64.9855
4088	64.7104
4084	64.6237
4080	64.7722
4076	64.9159
4072	64.96
4068	64.8952
4064	64.8595
4060	64.9165
4056	64.9136
4052	64.8714
4048	65.0451
4044	65.2958
4040	65.3328
4036	65.2443
4032	65.1188
4028	64.986
4024	64.9464
4020	65.0018
4016	65.1293
4012	65.2675
4008	65.3055
4004	65.2828
4000	65.3424
3996	65.5078
3992	65.5057
3988	65.2611
3984	65.0587
3980	65.0335
3976	65.0831
3972	65.0864
3968	65.0913
3964	65.1271
3960	65.1234
3956	65.0878
3952	65.0732
3948	65.0634
3944	65.0575
3940	65.0364
3936	64.966
3932	64.937
3928	64.9919
3924	65.1009
3920	65.2882
3916	65.4601
3912	65.4866
3908	65.4226
3904	65.3313
3900	65.2035
3896	65.0971
3892	65.0675
3888	65.0708
3884	65.0588
3880	65.0558
3876	65.039
3872	64.9504
3868	64.8985
3864	64.9625
3860	65.091
3856	65.2394
3852	65.2882
3848	65.1541
3844	65.0759
3840	65.0987
3836	65.0092
3832	65.0208
3828	65.2466
3824	65.3933
3820	65.3798
3816	65.2975
3812	65.0906
3808	64.9124
3804	64.9962
3800	65.1654
3796	65.1708
3792	65.1001
3788	65.0694
3784	64.9975
3780	64.9823
3776	65.0214
3772	65.0008
3768	65.0581
3764	65.2163
3760	65.2761
3756	65.1657
3752	65.0553
3748	65.1168
3744	65.266
3740	65.2463
3736	65.1118
3732	65.0771
3728	65.1943
3724	65.3701
3720	65.354
3716	65.2375
3712	65.2565
3708	65.2287
3704	65.1073
3700	65.1579
3696	65.2472
3692	65.1124
3688	65.0462
3684	65.1794
3680	65.2178
3676	65.1464
3672	65.0828
3668	65.0494
3664	65.0712
3660	65.1246
3656	65.1744
3652	65.2447
3648	65.2645
3644	65.1659
3640	65.0815
3636	65.1189
3632	65.2018
3628	65.2209
3624	65.2495
3620	65.3105
3616	65.3468
3612	65.3979
3608	65.401
3604	65.3172
3600	65.256
3596	65.2874
3592	65.2745
3588	65.1414
3584	65.0733
3580	65.0752
3576	65.0685
3572	65.1085
3568	65.1774
3564	65.1422
3560	65.0118
3556	65.0286
3552	65.1697
3548	65.2518
3544	65.3113
3540	65.2771
3536	65.1092
3532	65.0198
3528	65.0695
3524	65.1311
3520	65.1268
3516	65.1182
3512	65.1955
3508	65.2585
3504	65.2007
3500	65.1104
3496	65.1095
3492	65.1139
3488	65.01
3484	65.0103
3480	65.158
3476	65.2133
3472	65.1798
3468	65.1265
3464	65.0675
3460	65.1078
3456	65.2037
3452	65.2029
3448	65.0854
3444	64.9143
3440	64.9052
3436	65.1024
3432	65.2233
3428	65.2487
3424	65.3342
3420	65.3361
3416	65.1817
3412	65.0881
3408	65.1444
3404	65.248
3400	65.3484
3396	65.4304
3392	65.4334
3388	65.377
3384	65.3289
3380	65.2555
3376	65.135
3372	65.0681
3368	65.0871
3364	65.0702
3360	65.1028
3356	65.2914
3352	65.3792
3348	65.2989
3344	65.2971
3340	65.3426
3336	65.2959
3332	65.2613
3328	65.2717
3324	65.2447
3320	65.1219
3316	64.971
3312	64.9647
3308	65.0391
3304	64.9916
3300	64.8717
3296	64.889
3292	65.0086
3288	65.0246
3284	64.9576
3280	64.9659
3276	65.0371
3272	65.0165
3268	64.9868
3264	65.0712
3260	65.1035
3256	65.0505
3252	65.0522
3248	65.0882
3244	65.1001
3240	65.1375
3236	65.1428
3232	65.0838
3228	65.0799
3224	65.1014
3220	65.0774
3216	65.0233
3212	65.0281
3208	65.0992
3204	65.0377
3200	64.9333
3196	64.9416
3192	64.9435
3188	64.9692
3184	65.0562
3180	65.0945
3176	65.0581
3172	65.0078
3168	65.0263
3164	65.1363
3160	65.2691
3156	65.3389
3152	65.2766
3148	65.0877
3144	64.9518
3140	64.9551
3136	64.9535
3132	64.9363
3128	64.9475
3124	64.9702
3120	65.037
3116	65.0844
3112	65.077
3108	65.1344
3104	65.218
3100	65.232
3096	65.221
3092	65.1609
3088	65.0734
3084	65.1042
3080	65.2051
3076	65.2026
3072	65.1428
3068	65.1377
3064	65.1869
3060	65.2274
3056	65.2284
3052	65.2055
3048	65.1168
3044	65.0814
3040	65.1463
3036	65.0902
3032	64.9768
3028	65.0079
3024	65.099
3020	65.1648
3016	65.2131
3012	65.2301
3008	65.2351
3004	65.1909
3000	65.1093
2996	65.0774
2992	65.0967
2988	65.0837
2984	65.0308
2980	65.0076
2976	65.0084
2972	64.994
2968	64.9127
2964	64.8282
2960	64.8882
2956	65.0384
2952	65.1044
2948	65.0525
2944	64.9913
2940	64.9696
2936	64.9305
2932	64.9199
2928	64.9369
2924	64.9539
2920	64.9826
2916	64.9865
2912	65.0632
2908	65.1498
2904	65.1498
2900	65.1432
2896	65.1066
2892	65.0606
2888	65.0454
2884	65.008
2880	64.9762
2876	65.0206
2872	65.0936
2868	65.1214
2864	65.1178
2860	65.0699
2856	64.9682
2852	64.8616
2848	64.8319
2844	64.9227
2840	65.0311
2836	65.0603
2832	65.0688
2828	65.1435
2824	65.189
2820	65.1004
2816	65.0323
2812	65.0558
2808	65.0514
2804	65.0151
2800	65.0201
2796	65.0656
2792	65.1037
2788	65.097
2784	65.0329
2780	64.9954
2776	65.0535
2772	65.1286
2768	65.126
2764	65.0758
2760	65.0672
2756	65.0702
2752	65.0331
2748	65.0228
2744	65.0552
2740	65.0407
2736	64.9628
2732	64.9176
2728	64.9628
2724	65.0382
2720	65.0754
2716	65.0265
2712	64.9265
2708	64.9237
2704	65.0192
2700	65.0799
2696	65.0942
2692	65.1038
2688	65.1018
2684	65.0885
2680	65.0213
2676	64.939
2672	64.941
2668	64.9927
2664	65.0641
2660	65.1093
2656	65.0692
2652	65.0666
2648	65.1022
2644	65.0491
2640	65.0163
2636	65.0184
2632	64.9849
2628	64.9813
2624	64.9954
2620	64.9837
2616	64.9772
2612	65.0147
2608	65.0148
2604	64.9689
2600	64.9979
2596	65.0306
2592	64.9831
2588	64.9459
2584	64.9606
2580	64.9595
2576	64.9393
2572	64.9729
2568	65.029
2564	65.0822
2560	65.1272
2556	65.1118
2552	65.094
2548	65.094
2544	65.0816
2540	65.0963
2536	65.0851
2532	64.9825
2528	64.8807
2524	64.8788
2520	64.947
2516	65.0538
2512	65.1351
2508	65.1236
2504	65.1408
2500	65.1799
2496	65.1065
2492	64.9864
2488	64.9328
2484	64.9275
2480	64.9042
2476	64.9219
2472	64.9359
2468	64.8243
2464	64.7283
2460	64.7642
2456	64.8784
2452	64.9873
2448	65.0053
2444	64.9522
2440	64.908
2436	64.9009
2432	64.9094
2428	64.878
2424	64.8588
2420	64.984
2416	65.0913
2412	65.0004
2408	64.8804
2404	64.8446
2400	64.8395
2396	64.9064
2392	65.0508
2388	65.0861
2384	64.9755
2380	64.867
2376	64.8055
2372	64.7762
2368	64.8035
2364	64.8733
2360	64.9441
2356	64.9782
2352	64.9617
2348	64.937
2344	64.9146
2340	64.9189
2336	64.9322
2332	64.9015
2328	64.8802
2324	64.9148
2320	64.967
2316	64.99
2312	64.9565
2308	64.8949
2304	64.8588
2300	64.8427
2296	64.8444
2292	64.8569
2288	64.8613
2284	64.868
2280	64.8691
2276	64.8695
2272	64.8813
2268	64.8818
2264	64.8704
2260	64.8669
2256	64.8703
2252	64.9004
2248	64.9562
2244	64.9709
2240	64.9226
2236	64.8877
2232	64.9247
2228	64.9487
2224	64.9098
2220	64.8876
2216	64.9009
2212	64.9207
2208	64.9366
2204	64.9684
2200	65.0227
2196	65.0317
2192	64.9544
2188	64.8793
2184	64.8897
2180	64.9224
2176	64.9322
2172	64.9646
2168	65.0203
2164	65.0223
2160	64.9387
2156	64.8776
2152	64.8929
2148	64.9361
2144	64.981
2140	64.9519
2136	64.8995
2132	64.9126
2128	64.8888
2124	64.8542
2120	64.8941
2116	64.9221
2112	64.8725
2108	64.794
2104	64.7737
2100	64.818
2096	64.825
2092	64.7861
2088	64.8133
2084	64.8502
2080	64.8319
2076	64.8849
2072	64.9351
2068	64.8453
2064	64.7397
2060	64.6894
2056	64.7199
2052	64.8115
2048	64.8058
2044	64.7266
2040	64.7085
2036	64.7299
2032	64.7454
2028	64.79
2024	64.8493
2020	64.8533
2016	64.8289
2012	64.8383
2008	64.8613
2004	64.864
2000	64.8642
1996	64.8199
1992	64.7433
1988	64.7551
1984	64.8047
1980	64.8164
1976	64.8201
1972	64.823
1968	64.8083
1964	64.7595
1960	64.7283
1956	64.7679
1952	64.8221
1948	64.8227
1944	64.831
1940	64.8267
1936	64.7438
1932	64.6942
1928	64.7437
1924	64.8247
1920	64.83
1916	64.7773
1912	64.7784
1908	64.7705
1904	64.7181
1900	64.7156
1896	64.7367
1892	64.7563
1888	64.7692
1884	64.7228
1880	64.6831
1876	64.7318
1872	64.7901
1868	64.8168
1864	64.8135
1860	64.7629
1856	64.7475
1852	64.7904
1848	64.773
1844	64.7258
1840	64.7584
1836	64.7721
1832	64.7405
1828	64.7414
1824	64.7206
1820	64.676
1816	64.6641
1812	64.6745
1808	64.6975
1804	64.7324
1800	64.7581
1796	64.7766
1792	64.79
1788	64.7762
1784	64.7291
1780	64.6829
1776	64.6254
1772	64.5699
1768	64.5631
1764	64.5458
1760	64.5115
1756	64.5142
1752	64.5416
1748	64.5065
1744	64.3791
1740	64.253
1736	64.1788
1732	64.1964
1728	64.3318
1724	64.4443
1720	64.4127
1716	64.3528
1712	64.4009
1708	64.5003
1704	64.603
1700	64.6897
1696	64.6886
1692	64.685
1688	64.7526
1684	64.7693
1680	64.6989
1676	64.6368
1672	64.6335
1668	64.6427
1664	64.6314
1660	64.5905
1656	64.4935
1652	64.4011
1648	64.3427
1644	64.3476
1640	64.4679
1636	64.5792
1632	64.5706
1628	64.5035
1624	64.4447
1620	64.3978
1616	64.3966
1612	64.4489
1608	64.5339
1604	64.5957
1600	64.569
1596	64.5024
1592	64.421
1588	64.3688
1584	64.3939
1580	64.4607
1576	64.5365
1572	64.5926
1568	64.6254
1564	64.6707
1560	64.6796
1556	64.5783
1552	64.4764
1548	64.461
1544	64.4447
1540	64.4252
1536	64.4428
1532	64.4439
1528	64.4158
1524	64.422
1520	64.4967
1516	64.5356
1512	64.5133
1508	64.5272
1504	64.5243
1500	64.4822
1496	64.4725
1492	64.4544
1488	64.3908
1484	64.4159
1480	64.5354
1476	64.5732
1472	64.4841
1468	64.385
1464	64.3341
1460	64.3234
1456	64.336
1452	64.3842
1448	64.4713
1444	64.4765
1440	64.3644
1436	64.2894
1432	64.2778
1428	64.2421
1424	64.2531
1420	64.3465
1416	64.4205
1412	64.4361
1408	64.4473
1404	64.4076
1400	64.3109
1396	64.2879
1392	64.2802
1388	64.2597
1384	64.2668
1380	64.2549
1376	64.2778
1372	64.3184
1368	64.2764
1364	64.2576
1360	64.3203
1356	64.3357
1352	64.2493
1348	64.1775
1344	64.251
1340	64.3641
1336	64.3524
1332	64.3017
1328	64.352
1324	64.4336
1320	64.4509
1316	64.42
1312	64.3418
1308	64.2732
1304	64.2512
1300	64.2222
1296	64.2008
1292	64.2478
1288	64.3186
1284	64.3009
1280	64.2393
1276	64.209
1272	64.1851
1268	64.1493
1264	64.0806
1260	64.054
1256	64.1535
1252	64.2294
1248	64.1881
1244	64.1506
1240	64.1574
1236	64.1748
1232	64.176
1228	64.0872
1224	63.9676
1220	63.9982
1216	64.1508
1212	64.2212
1208	64.172
1204	64.1351
1200	64.1227
1196	64.1267
1192	64.161
1188	64.165
1184	64.1462
1180	64.153
1176	64.145
1172	64.0979
1168	64.0584
1164	64.0303
1160	64.0326
1156	64.0753
1152	64.0838
1148	64.0527
1144	64.0474
1140	64.0513
1136	64.0162
1132	63.9405
1128	63.8727
1124	63.9093
1120	64.0604
1116	64.1648
1112	64.2135
1108	64.2954
1104	64.2737
1100	64.1181
1096	63.9705
1092	63.9102
1088	63.9718
1084	64.0323
1080	64.0371
1076	64.063
1072	64.1062
1068	64.1364
1064	64.1315
1060	64.1318
1056	64.2013
1052	64.3032
1048	64.2927
1044	64.1745
1040	64.1029
1036	64.0696
1032	64.0449
1028	64.053
1024	64.1364
1020	64.2301
1016	64.1834
1012	64.0523
1008	63.9791
1004	64.0386
1000	64.258
996	 64.4595
992	 64.3838
988	 64.2089
984	 64.2524
980	 64.3543
976	 64.3128
972	 64.2758
968	 64.2691
964	 64.1796
960	 64.1079
956	 64.1499
952	 64.2786
948	 64.3712
944	 64.3122
940	 64.2572
936	 64.3608
932	 64.4242
928	 64.3387
924	 64.2171
920	 64.1017
916	 64.0451
912	 64.0411
908	 64.0414
904	 64.0507
900	 64.0426
896	 64.0819
892	 64.1399
888	 64.1461
884	 64.247
880	 64.3386
876	 64.2499
872	 64.2171
868	 64.2965
864	 64.2839
860	 64.2821
856	 64.4098
852	 64.3971
848	 64.2037
844	 64.1062
840	 64.1264
836	 64.1884
832	 64.206
828	 64.2302
824	 64.2818
820	 64.137
816	 63.9029
812	 63.7738
808	 63.8015
804	 63.9255
800	 63.9763
796	 64.0247
792	 64.2049
788	 64.36
784	 64.2819
780	 64.1395
776	 64.1092
772	 64.0192
768	 63.8642
764	 63.829
760	 63.7132
756	 63.3918
752	 63.3074
748	 63.6034
744	 63.799
740	 63.857
736	 64.1041
732	 64.3004
728	 64.2185
724	 64.1814
720	 64.368
716	 64.2654
712	 63.7659
708	 63.3022
704	 63.1541
700	 63.4469
696	 63.5612
692	 63.3617
688	 63.2336
684	 63.2038
680	 63.5832
676	 64.0702
672	 64.0272
668	 63.7329
664	 63.622
660	 63.5379
656	 63.2524
652	 62.9172
648	 62.7597
644	 62.8372
640	 63.2318
636	 63.8736
632	 64.4327
628	 64.4059
624	 63.802
620	 63.2584
616	 62.9373
612	 62.9543
608	 63.053
604	 63.0348
600	 63.6469
596	 64.3518
592	 64.2511
588	 63.8851
584	 63.8394
580	 64.1918
576	 64.6185
572	 64.7653
568	 64.5642
564	 64.1668
560	 63.9967
556	 64.0325
552	 63.9965
548	 63.7212
544	 63.2697
540	 63.0995
536	 63.1599
532	 63.0977
528	 63.2681
524	 63.5701
520	 63.45
516	 63.4298
512	 63.9076
508	 64.3861
504	 64.5252
500	 64.3516
496	 64.0858
492	 64.1269
488	 64.3897
484	 64.5389
480	 64.6145
476	 64.3644
472	 63.9306
468	 63.8189
464	 64.2063
460	 64.2908
456	 63.8206
452	 64.1548
448	 64.7846
444	 64.0651
440	 62.5307
436	 62.7292
432	 64.7447
428	 65.5134
424	 64.3603
420	 63.3035
416	 63.5837
412	 63.9385
408	 64.8359
404	 68.8948
400	 74.8747
396	 80.5591
392	 81.2775
388	 76.1584
384	 76.6323
380	 82.7529
376	 80.723
372	 71.596
370	 70.744