File: Bakgrunnsmateriale/MATLAB/FTIR/ftir_data/subAa/Mapping_121/BZ1503107-1_t25.asc
PE IR       SPECTRUM    SPECTRUM    ASCII       PEDS        1.60
  -1
BZ2D59~1.ASC
17/04/07
15:19:05.00
17/04/07
15:19:31.00
tln
$BZ1503107-1_t0025$<tbV0>[7.8,-7.8,8.0,0.0,27,1,0]
27.028
64

2002,4.07
MIRTGS : RIGHTBACK : INTERNAL 2
MIR : ON : INTERNAL 2
OPTKBR

0.200000
8
8.000000
FILLER
RATIO
SPECTRUM
UNLOCKED 256

DOUBLE
64
COMBINED
1
0
0

0.002000
RATIO

1
0
TRUE
51149
0
LEFT NOT FITTED RIGHT NOT FITTED 0
NONE
NONE
15600
12
4.427000
51148
TRUE
1 0 8 72 0 0 0 0

15798

#HDR
-1
-1
#GR
µM
%T
2.38419e-05
0.0
2.000000
0.002000
12515
8
81.5283
40.149
#DATA
2.000000	 65.7369
2.018000	 64.3261
2.036000	 64.5426
2.054000	 64.7236
2.072000	 64.8176
2.090000	 65.3753
2.108000	 65.4406
2.126000	 65.4359
2.144000	 64.9683
2.162000	 64.7768
2.180000	 64.5809
2.198000	 64.3478
2.216000	 64.2562
2.234000	 64.2988
2.252000	 64.4682
2.270000	 66.5039
2.288000	 64.4759
2.306000	 64.2879
2.324000	 64.3045
2.342000	 64.6532
2.360000	 64.8279
2.378000	 64.9448
2.396000	 65.0267
2.414000	 65.149
2.432000	 65.4326
2.450000	 65.4288
2.468000	 65.3455
2.486000	 65.1691
2.504000	 65.4639
2.522000	 65.0322
2.540000	 65.0761
2.558000	 65.2046
2.576000	 65.0624
2.594000	 65.0816
2.612000	 65.133
2.630000	 65.2846
2.648000	 65.0294
2.666000	 65.1241
2.684000	 65.4802
2.702000	 65.4621
2.720000	 65.2698
2.738000	 65.2449
2.756000	 65.4316
2.774000	 65.3124
2.792000	 65.2128
2.810000	 65.1968
2.828000	 65.1203
2.846000	 65.181
2.864000	 65.1823
2.882000	 65.0463
2.900000	 64.95
2.918000	 64.9589
2.936000	 65.1431
2.954000	 65.2959
2.972000	 65.0948
2.990000	 65.1759
3.008000	 65.1301
3.026000	 65.1222
3.044000	 65.0528
3.062000	 65.1916
3.080000	 65.0409
3.098000	 65.133
3.116000	 65.0425
3.134000	 64.8895
3.152000	 65.294
3.170000	 65.257
3.188000	 65.0364
3.206000	 65.1216
3.224000	 65.1984
3.242000	 65.1042
3.260000	 65.206
3.278000	 65.1073
3.296000	 65.1302
3.314000	 65.1119
3.332000	 65.1811
3.350000	 65.1787
3.368000	 64.9057
3.386000	 65.1395
3.404000	 64.9535
3.422000	 65.1056
3.440000	 65.0273
3.458000	 65.045
3.476000	 64.9646
3.494000	 65.0475
3.512000	 64.914
3.530000	 65.0623
3.548000	 65.0816
3.566000	 65.0933
3.584000	 65.2383
3.602000	 65.1335
3.620000	 65.1095
3.638000	 65.1986
3.656000	 65.1126
3.674000	 65.0972
3.692000	 64.9457
3.710000	 65.2356
3.728000	 65.0888
3.746000	 65.0151
3.764000	 65.1519
3.782000	 64.9907
3.800000	 65.0402
3.818000	 64.971
3.836000	 64.9382
3.854000	 65.1208
3.872000	 64.9592
3.890000	 64.972
3.908000	 65.1042
3.926000	 65.0042
3.944000	 65.0074
3.962000	 64.9453
3.980000	 64.9111
3.998000	 64.9896
4.016000	 64.9569
4.034000	 65.068
4.052000	 64.9395
4.070000	 64.865
4.088000	 64.9788
4.106000	 64.9066
4.124000	 65.027
4.141999	 64.897
4.160000	 64.947
4.178000	 65.0203
4.196000	 65.0045
4.214000	 64.9529
4.232000	 64.9356
4.250000	 64.8525
4.268000	 64.9662
4.286000	 64.8807
4.304000	 64.9062
4.322000	 64.9849
4.340000	 64.9867
4.358000	 64.9076
4.375999	 64.9786
4.394000	 64.8996
4.412000	 64.907
4.430000	 64.8634
4.448000	 64.8539
4.466000	 64.905
4.484000	 65.0215
4.502000	 64.8799
4.520000	 64.8764
4.538000	 64.8633
4.556000	 64.8719
4.574000	 64.9154
4.592000	 64.9015
4.609999	 64.8983
4.628000	 64.9115
4.646000	 64.8537
4.664000	 64.6368
4.682000	 64.831
4.700000	 64.863
4.718000	 64.8203
4.736000	 64.8771
4.754000	 64.8169
4.772000	 64.7978
4.790000	 64.9657
4.808000	 64.7357
4.826000	 64.5679
4.843999	 64.7948
4.862000	 64.8219
4.880000	 64.8516
4.898000	 64.8204
4.916000	 64.8583
4.934000	 64.8775
4.952000	 64.8299
4.970000	 64.8859
4.988000	 64.8866
5.006000	 64.8665
5.024000	 64.7837
5.042000	 64.8256
5.060000	 64.787
5.077999	 64.8747
5.096000	 64.8577
5.114000	 64.7999
5.132000	 64.8708
5.150000	 64.8903
5.168000	 64.8898
5.186000	 64.7416
5.204000	 64.6901
5.222000	 64.7051
5.240000	 64.8137
5.258000	 64.751
5.276000	 64.7216
5.294000	 64.785
5.312000	 64.7172
5.330000	 64.6808
5.348000	 64.7731
5.366000	 64.7594
5.384000	 64.722
5.402000	 64.8252
5.420000	 64.8004
5.438000	 64.7992
5.456000	 64.7218
5.474000	 64.6329
5.492000	 64.6432
5.510000	 64.6255
5.528000	 64.5959
5.546000	 64.6678
5.564000	 64.6648
5.582000	 64.6237
5.600000	 64.6338
5.618000	 64.5861
5.636000	 64.5927
5.654000	 64.6228
5.672000	 64.6029
5.690000	 64.4968
5.708000	 64.4328
5.726000	 64.44
5.744000	 64.4942
5.762000	 64.4178
5.780000	 64.3839
5.798000	 64.3369
5.816000	 64.294
5.834000	 64.4071
5.852000	 64.5124
5.870000	 64.5838
5.888000	 64.5696
5.906000	 64.4941
5.923999	 64.5631
5.942000	 64.5658
5.960000	 64.5209
5.978000	 64.5925
5.996000	 64.6397
6.014000	 64.5707
6.032000	 64.4849
6.050000	 64.421
6.068000	 64.3947
6.086000	 64.4622
6.104000	 64.4905
6.122000	 64.5029
6.140000	 64.5077
6.158000	 64.4612
6.176000	 64.4752
6.194000	 64.4572
6.212000	 64.4686
6.230000	 64.525
6.248000	 64.4919
6.266000	 64.4761
6.284000	 64.4662
6.302000	 64.443
6.320000	 64.4996
6.338000	 64.5924
6.356000	 64.6075
6.374000	 64.5527
6.392000	 64.542
6.410000	 64.6108
6.428000	 64.6157
6.446000	 64.5389
6.464000	 64.472
6.482000	 64.4303
6.500000	 64.4331
6.518000	 64.4454
6.536000	 64.4189
6.554000	 64.4114
6.572000	 64.4649
6.590000	 64.5458
6.608000	 64.6098
6.626000	 64.653
6.644000	 64.6654
6.662000	 64.6564
6.680000	 64.6167
6.698000	 64.5663
6.716000	 64.5606
6.734000	 64.5248
6.752000	 64.4722
6.770000	 64.4725
6.788000	 64.4736
6.806000	 64.4709
6.824000	 64.5247
6.842000	 64.5709
6.860000	 64.5462
6.878000	 64.523
6.896000	 64.5254
6.914000	 64.5123
6.932000	 64.5029
6.950000	 64.5222
6.968000	 64.5217
6.986000	 64.4429
7.004000	 64.3754
7.022000	 64.383
7.040000	 64.3723
7.058000	 64.3255
7.076000	 64.3076
7.094000	 64.3501
7.112000	 64.4378
7.130000	 64.4857
7.148000	 64.4604
7.166000	 64.4105
7.184000	 64.3609
7.202000	 64.3462
7.220000	 64.3714
7.238000	 64.3658
7.256000	 64.3215
7.274000	 64.3057
7.292000	 64.3309
7.310000	 64.3697
7.328000	 64.3917
7.346000	 64.3724
7.364000	 64.3372
7.382000	 64.3072
7.400000	 64.2588
7.418000	 64.2235
7.436000	 64.2582
7.454000	 64.3576
7.472000	 64.4769
7.490000	 64.5468
7.508000	 64.5199
7.526000	 64.4401
7.544000	 64.3607
7.562000	 64.2954
7.580000	 64.2827
7.598000	 64.339
7.616000	 64.401
7.634000	 64.42
7.652000	 64.4009
7.670000	 64.3503
7.688000	 64.2939
7.706000	 64.2809
7.724000	 64.3119
7.742000	 64.3438
7.760000	 64.3739
7.778000	 64.4142
7.796000	 64.4148
7.814000	 64.325
7.832000	 64.1942
7.850000	 64.1172
7.868000	 64.1186
7.886000	 64.1549
7.904000	 64.1845
7.922000	 64.1957
7.940000	 64.2025
7.958000	 64.2339
7.976000	 64.2964
7.994000	 64.3482
8.012000	 64.3469
8.030000	 64.3125
8.048000	 64.2957
8.065999	 64.3067
8.084000	 64.3164
8.102000	 64.309
8.120000	 64.2882
8.138000	 64.2515
8.155999	 64.1978
8.173999	 64.1487
8.192000	 64.1345
8.210000	 64.1587
8.228000	 64.1928
8.246000	 64.2017
8.263999	 64.1739
8.282000	 64.1286
8.300000	 64.0941
8.318000	 64.0821
8.336000	 64.0909
8.353999	 64.1174
8.372000	 64.1547
8.390000	 64.1843
8.408000	 64.1853
8.426000	 64.1603
8.443999	 64.1429
8.462000	 64.1598
8.480000	 64.1909
8.498000	 64.1914
8.516000	 64.1488
8.533999	 64.0961
8.552000	 64.0704
8.570000	 64.0809
8.588000	 64.1145
8.606000	 64.1481
8.624000	 64.16
8.641999	 64.1456
8.660000	 64.1229
8.678000	 64.111
8.696000	 64.1064
8.714000	 64.0915
8.731999	 64.0636
8.750000	 64.0432
8.768000	 64.052
8.786000	 64.0907
8.804000	 64.1302
8.821999	 64.1327
8.840000	 64.0883
8.858000	 64.0259
8.876000	 63.9825
8.894000	 63.977
8.911999	 64.01
8.930000	 64.0659
8.948000	 64.117
8.966000	 64.1345
8.984000	 64.103
9.001999	 64.0318
9.020000	 63.9578
9.038000	 63.9248
9.056000	 63.9434
9.074000	 63.9861
9.092000	 64.0232
9.109999	 64.0494
9.128000	 64.076
9.146000	 64.1083
9.164000	 64.1391
9.182000	 64.1566
9.199999	 64.154
9.218000	 64.133
9.236000	 64.1059
9.254000	 64.0941
9.272000	 64.1143
9.289999	 64.1626
9.308000	 64.2144
9.326000	 64.2431
9.344000	 64.2391
9.362000	 64.2097
9.379999	 64.1663
9.398000	 64.1154
9.416000	 64.0638
9.434000	 64.0266
9.452000	 64.0217
9.469999	 64.0541
9.488000	 64.108
9.506000	 64.1533
9.524000	 64.1647
9.542000	 64.138
9.560000	 64.0911
9.577999	 64.0507
9.596000	 64.0354
9.614000	 64.0496
9.632000	 64.0872
9.650000	 64.137
9.667999	 64.1863
9.686000	 64.2231
9.704000	 64.2402
9.722000	 64.2368
9.740000	 64.2186
9.757999	 64.1959
9.776000	 64.1794
9.794000	 64.177
9.812000	 64.19
9.830000	 64.2121
9.847999	 64.2326
9.866000	 64.2409
9.884000	 64.2323
9.902000	 64.2118
9.920000	 64.1917
9.937999	 64.186
9.956000	 64.2023
9.974000	 64.2364
9.992000	 64.2758
10.01	64.3047
10.028	64.3123
10.046	64.2953
10.064	64.2578
10.082	64.2089
10.1	64.1605
10.118	64.1276
10.136	64.1235
10.154	64.1545
10.172	64.2146
10.19	64.2838
10.208	64.3376
10.226	64.3595
10.244	64.3476
10.262	64.3121
10.28	64.2646
10.298	64.2107
10.316	64.1502
10.334	64.0844
10.352	64.0228
10.37	63.9815
10.388	63.973
10.406	63.9973
10.424	64.0413
10.442	64.0869
10.46	64.1222
10.478	64.1453
10.496	64.1625
10.514	64.1801
10.532	64.1982
10.55	64.2112
10.568	64.2123
10.586	64.2002
10.604	64.1806
10.622	64.1638
10.64	64.1575
10.658	64.1621
10.676	64.17
10.694	64.1715
10.712	64.1609
10.73	64.1408
10.748	64.1209
10.766	64.1115
10.784	64.1177
10.802	64.1371
10.82	64.164
10.838	64.1924
10.856	64.22
10.874	64.2454
10.892	64.2661
10.91	64.2771
10.928	64.2729
10.946	64.2506
10.964	64.2142
10.982	64.1751
11	64.1463
11.018	64.139
11.036	64.1561
11.054	64.1917
11.072	64.2348
11.09	64.2725
11.108	64.2964
11.126	64.3021
11.144	64.2895
11.162	64.26
11.18	64.2148
11.198	64.1552
11.216	64.0842
11.234	64.0086
11.252	63.9405
11.27	63.8939
11.288	63.882
11.306	63.9117
11.324	63.9808
11.342	64.0778
11.36	64.1852
11.378	64.2827
11.396	64.355
11.414	64.3936
11.432	64.3986
11.45	64.377
11.468	64.3389
11.486	64.2922
11.504	64.2413
11.522	64.1877
11.54	64.1323
11.558	64.079
11.576	64.0364
11.594	64.0153
11.612	64.0254
11.63	64.0697
11.648	64.1416
11.666	64.2257
11.684	64.3017
11.702	64.3521
11.72	64.3663
11.738	64.3436
11.756	64.2918
11.774	64.2239
11.792	64.1553
11.81	64.0984
11.828	64.0613
11.846	64.0467
11.864	64.0519
11.882	64.0698
11.9	64.091
11.918	64.1058
11.936	64.1073
11.954	64.0932
11.972	64.0667
11.99	64.0356
12.008	64.0097
12.026	63.9981
12.044	64.0064
12.062	64.0349
12.08	64.0788
12.098	64.1308
12.116	64.1824
12.134	64.227
12.152	64.2612
12.17	64.2845
12.188	64.298
12.206	64.3035
12.224	64.3021
12.242	64.2936
12.26	64.2777
12.278	64.2541
12.296	64.2238
12.314	64.1893
12.332	64.1542
12.35	64.1231
12.368	64.1004
12.386	64.0893
12.404	64.0905
12.422	64.1034
12.44	64.1253
12.458	64.1535
12.476	64.186
12.494	64.2219
12.512	64.2612
12.53	64.3039
12.548	64.349
12.566	64.3942
12.584	64.4354
12.602	64.4676
12.62	64.4868
12.638	64.4904
12.656	64.4785
12.674	64.4535
12.692	64.4193
12.71	64.3794
12.728	64.3358
12.746	64.2891
12.764	64.2386
12.782	64.1833
12.8	64.1236
12.818	64.0614
12.836	63.9995
12.854	63.9418
12.872	63.8917
12.89	63.8518
12.908	63.8229
12.926	63.805
12.944	63.7973
12.962	63.7991
12.98	63.8103
12.998	63.8305
13.016	63.8595
13.034	63.8968
13.052	63.9405
13.07	63.9878
13.088	64.036
13.106	64.0828
13.124	64.1264
13.142	64.1659
13.16	64.1999
13.178	64.227
13.196	64.2452
13.214	64.2532
13.232	64.2499
13.25	64.2364
13.268	64.2162
13.286	64.1944
13.304	64.1773
13.322	64.1703
13.34	64.1774
13.358	64.1993
13.376	64.2336
13.394	64.2748
13.412	64.3159
13.43	64.3503
13.448	64.3729
13.466	64.3809
13.484	64.3741
13.502	64.3539
13.52	64.3232
13.538	64.285
13.556	64.2423
13.574	64.1988
13.592	64.1582
13.61	64.1244
13.628	64.1014
13.646	64.0922
13.664	64.0985
13.682	64.1194
13.7	64.1519
13.718	64.191
13.736	64.231
13.754	64.2663
13.772	64.2925
13.79	64.3072
13.808	64.3095
13.826	64.3007
13.844	64.2823
13.862	64.2558
13.88	64.2214
13.898	64.1787
13.916	64.1263
13.934	64.0631
13.952	63.9892
13.97	63.9065
13.988	63.8194
14.006	63.7336
14.024	63.6562
14.042	63.5933
14.06	63.5494
14.078	63.5257
14.096	63.5208
14.114	63.5305
14.132	63.5487
14.15	63.5691
14.168	63.5862
14.186	63.5966
14.204	63.599
14.222	63.5954
14.24	63.59
14.258	63.588
14.276	63.5941
14.294	63.6117
14.312	63.6414
14.33	63.681
14.348	63.7261
14.366	63.7703
14.384	63.8068
14.402	63.8297
14.42	63.835
14.438	63.8215
14.456	63.7905
14.474	63.7458
14.492	63.6923
14.51	63.6366
14.528	63.585
14.546	63.5419
14.564	63.5101
14.582	63.4902
14.6	63.4818
14.618	63.4827
14.636	63.4905
14.654	63.5023
14.672	63.5153
14.69	63.5271
14.708	63.5347
14.726	63.535
14.744	63.5251
14.762	63.5018
14.78	63.4637
14.798	63.4116
14.816	63.3484
14.834	63.2801
14.852	63.2164
14.87	63.1673
14.888	63.1414
14.906	63.1457
14.924	63.1844
14.942	63.2563
14.96	63.3556
14.978	63.4734
14.996	63.5998
15.014	63.7243
15.032	63.837
15.05	63.933
15.068	64.0116
15.086	64.0752
15.104	64.1289
15.122	64.1811
15.14	64.2383
15.158	64.3044
15.176	64.3807
15.194	64.4649
15.212	64.5493
15.23	64.6246
15.248	64.6812
15.266	64.7094
15.284	64.7013
15.302	64.6543
15.32	64.5698
15.338	64.4523
15.356	64.3113
15.374	64.1587
15.392	64.0063
15.41	63.865
15.428	63.7463
15.446	63.6594
15.464	63.6086
15.482	63.5958
15.5	63.6206
15.518	63.6784
15.536	63.763
15.554	63.8676
15.572	63.9841
15.59	64.1031
15.608	64.2181
15.626	64.3235
15.644	64.4148
15.662	64.4889
15.68	64.5456
15.698	64.5855
15.716	64.6106
15.734	64.6245
15.752	64.6302
15.77	64.631
15.788	64.631
15.806	64.6322
15.824	64.6364
15.842	64.6446
15.86	64.6562
15.878	64.6697
15.896	64.6833
15.914	64.6932
15.932	64.6961
15.95	64.6894
15.968	64.6695
15.986	64.6335
16.004	64.5797
16.022	64.5068
16.04	64.4145
16.058	64.3044
16.076	64.178
16.094	64.039
16.112	63.8923
16.13	63.742
16.148	63.5939
16.166	63.4546
16.184	63.3282
16.202	63.2192
16.22	63.1316
16.238	63.0668
16.256	63.0255
16.274	63.0074
16.292	63.0103
16.31	63.0323
16.328	63.0694
16.346	63.1178
16.364	63.1747
16.382	63.2355
16.4	63.2976
16.418	63.359
16.436	63.4176
16.454	63.4724
16.472	63.5229
16.49	63.5693
16.508	63.6125
16.526	63.6532
16.544	63.6931
16.562	63.7336
16.58	63.7754
16.598	63.8201
16.616	63.8678
16.634	63.9187
16.652	63.9727
16.67	64.0292
16.688	64.0873
16.706	64.1458
16.724	64.2038
16.742	64.2599
16.76	64.3128
16.778	64.362
16.796	64.4061
16.814	64.4442
16.832	64.4758
16.85	64.4998
16.868	64.5159
16.886	64.5238
16.904	64.5231
16.922	64.5136
16.94	64.495
16.958	64.4676
16.976	64.4319
16.994	64.389
17.012	64.3405
17.03	64.2874
17.048	64.2328
17.066	64.1782
17.084	64.126
17.102	64.0797
17.12	64.0406
17.138	64.0119
17.156	63.9947
17.174	63.9903
17.192	63.9993
17.21	64.0213
17.228	64.0556
17.246	64.1007
17.264	64.1557
17.282	64.2178
17.3	64.2857
17.318	64.3568
17.336	64.4286
17.354	64.4996
17.372	64.5665
17.39	64.6282
17.408	64.6822
17.426	64.7267
17.444	64.7601
17.462	64.7804
17.48	64.7871
17.498	64.779
17.516	64.7568
17.534	64.7204
17.552	64.6718
17.57	64.6118
17.588	64.5439
17.606	64.4701
17.624	64.3939
17.642	64.3193
17.66	64.2482
17.678	64.1855
17.696	64.1322
17.714	64.0919
17.732	64.065
17.75	64.0531
17.768	64.0556
17.786	64.0725
17.804	64.1015
17.822	64.1416
17.84	64.1896
17.858	64.2438
17.876	64.3015
17.894	64.3599
17.912	64.4176
17.93	64.472
17.948	64.5223
17.966	64.5667
17.984	64.6048
18.002	64.6355
18.02	64.6587
18.038	64.674
18.056	64.6815
18.074	64.681
18.092	64.6733
18.11	64.6585
18.128	64.6373
18.146	64.6101
18.164	64.5782
18.182	64.5421
18.2	64.5027
18.218	64.4608
18.236	64.4168
18.254	64.3713
18.272	64.3244
18.29	64.2762
18.308	64.2266
18.326	64.1754
18.344	64.1226
18.362	64.0687
18.38	64.0139
18.398	63.9591
18.416	63.9052
18.434	63.8534
18.452	63.8054
18.47	63.7623
18.488	63.7256
18.506	63.6962
18.524	63.6751
18.542	63.663
18.56	63.6594
18.578	63.6644
18.596	63.6765
18.614	63.6957
18.632	63.7192
18.65	63.7468
18.668	63.7758
18.686	63.806
18.704	63.8351
18.722	63.8632
18.74	63.889
18.758	63.9127
18.776	63.934
18.794	63.9533
18.812	63.9711
18.83	63.988
18.848	64.0047
18.866	64.0216
18.884	64.0397
18.902	64.0589
18.92	64.0796
18.938	64.1014
18.956	64.1243
18.974	64.1475
18.992	64.1702
19.01	64.1916
19.028	64.2107
19.046	64.2269
19.064	64.239
19.082	64.2469
19.1	64.2496
19.118	64.2475
19.136	64.2401
19.154	64.228
19.172	64.2114
19.19	64.1907
19.208	64.1669
19.226	64.1402
19.244	64.1121
19.262	64.0824
19.28	64.0529
19.298	64.0233
19.316	63.9951
19.334	63.9681
19.352	63.9436
19.37	63.9213
19.388	63.9025
19.406	63.8869
19.424	63.8753
19.442	63.8678
19.46	63.8648
19.478	63.8662
19.496	63.8721
19.514	63.8827
19.532	63.8975
19.55	63.9166
19.568	63.9396
19.586	63.9661
19.604	63.9958
19.622	64.0278
19.64	64.0619
19.658	64.097
19.676	64.1331
19.694	64.1686
19.712	64.2038
19.73	64.2373
19.748	64.2691
19.766	64.2985
19.784	64.3254
19.802	64.3494
19.82	64.3704
19.838	64.3883
19.856	64.4031
19.874	64.4148
19.892	64.4234
19.91	64.429
19.928	64.4315
19.946	64.431
19.964	64.4276
19.982	64.4212
20	64.4119
20.018	64.3996
20.036	64.3847
20.054	64.3675
20.072	64.3481
20.09	64.3274
20.108	64.3052
20.126	64.2829
20.144	64.2605
20.162	64.2392
20.18	64.2194
20.198	64.2015
20.216	64.1864
20.234	64.1739
20.252	64.1646
20.27	64.1585
20.288	64.1551
20.306	64.1544
20.324	64.1557
20.342	64.1584
20.36	64.1622
20.378	64.1659
20.396	64.1697
20.414	64.1726
20.432	64.1744
20.45	64.1753
20.468	64.1748
20.486	64.1735
20.504	64.1716
20.522	64.1691
20.54	64.1672
20.558	64.1659
20.576	64.1658
20.594	64.1674
20.612	64.1706
20.63	64.1761
20.648	64.1837
20.666	64.1928
20.684	64.2037
20.702	64.215
20.72	64.226
20.738	64.2362
20.756	64.2433
20.774	64.2479
20.792	64.2474
20.81	64.2413
20.828	64.2294
20.846	64.2099
20.864	64.1835
20.882	64.1503
20.9	64.1097
20.918	64.0636
20.936	64.0126
20.954	63.9573
20.972	63.9012
20.99	63.8435
21.008	63.7878
21.026	63.7356
21.044	63.6872
21.062	63.6466
21.08	63.6129
21.098	63.5878
21.116	63.5724
21.134	63.5658
21.152	63.5681
21.17	63.5794
21.188	63.5971
21.206	63.6215
21.224	63.6508
21.242	63.6817
21.26	63.7154
21.278	63.7473
21.296	63.777
21.314	63.8034
21.332	63.8231
21.35	63.8371
21.368	63.8434
21.386	63.841
21.404	63.8306
21.422	63.812
21.44	63.7849
21.458	63.751
21.476	63.7105
21.494	63.664
21.512	63.615
21.53	63.5622
21.548	63.5088
21.566	63.4566
21.584	63.4051
21.602	63.3582
21.62	63.3154
21.638	63.2782
21.656	63.2486
21.674	63.2259
21.692	63.2112
21.71	63.2052
21.728	63.2074
21.746	63.2174
21.764	63.2357
21.782	63.2609
21.8	63.2921
21.818	63.3296
21.836	63.371
21.854	63.4166
21.872	63.4653
21.89	63.5148
21.908	63.566
21.926	63.6169
21.944	63.6661
21.962	63.7142
21.98	63.7594
21.998	63.8014
22.016	63.8403
22.034	63.875
22.052	63.9058
22.07	63.9325
22.088	63.9549
22.106	63.9731
22.124	63.9873
22.142	63.9974
22.16	64.0035
22.178	64.0058
22.196	64.0042
22.214	63.999
22.232	63.9903
22.25	63.9781
22.268	63.9623
22.286	63.9426
22.304	63.9193
22.322	63.8918
22.34	63.8602
22.358	63.8243
22.376	63.7836
22.394	63.7382
22.412	63.6882
22.43	63.6334
22.448	63.5738
22.466	63.5097
22.484	63.4413
22.502	63.3685
22.52	63.2922
22.538	63.2128
22.556	63.1302
22.574	63.0466
22.592	62.9616
22.61	62.8759
22.628	62.7923
22.646	62.7098
22.664	62.6298
22.682	62.5551
22.7	62.4844
22.718	62.4194
22.736	62.3623
22.754	62.3122
22.772	62.2699
22.79	62.2363
22.808	62.211
22.826	62.1939
22.844	62.1851
22.862	62.1847
22.88	62.1915
22.898	62.2055
22.916	62.2266
22.934	62.2534
22.952	62.2859
22.97	62.3241
22.988	62.3654
23.006	62.4093
23.024	62.4561
23.042	62.5039
23.06	62.5524
23.078	62.6018
23.096	62.6511
23.114	62.7001
23.132	62.7492
23.15	62.7986
23.168	62.8481
23.186	62.8981
23.204	62.9495
23.222	63.002
23.24	63.0559
23.258	63.1127
23.276	63.1722
23.294	63.2344
23.312	63.3002
23.33	63.3697
23.348	63.4426
23.366	63.519
23.384	63.599
23.402	63.6822
23.42	63.768
23.438	63.8568
23.456	63.948
23.474	64.0394
23.492	64.1314
23.51	64.2237
23.528	64.3122
23.546	64.3964
23.564	64.4769
23.582	64.5506
23.6	64.6159
23.618	64.6741
23.636	64.7238
23.654	64.7639
23.672	64.7951
23.69	64.8177
23.708	64.8315
23.726	64.8362
23.744	64.8336
23.762	64.8249
23.78	64.8085
23.798	64.7875
23.816	64.7654
23.834	64.7398
23.852	64.7137
23.87	64.6917
23.888	64.6722
23.906	64.6565
23.924	64.649
23.942	64.65
23.96	64.6587
23.978	64.6775
23.996	64.7077
24.014	64.7484
24.032	64.7986
24.05	64.8587
24.068	64.9296
24.086	65.0072
24.104	65.088
24.122	65.1756
24.14	65.2651
24.158	65.3502
24.176	65.4344
24.194	65.5147
24.212	65.583
24.23	65.6389
24.248	65.6841
24.266	65.7104
24.284	65.7133
24.302	65.6973
24.32	65.6566
24.338	65.5854
24.356	65.4862
24.374	65.3584
24.392	65.1997
24.41	65.0091
24.428	64.7884
24.446	64.5394
24.464	64.2621
24.482	63.9556
24.5	63.6247
24.518	63.2728
24.536	62.8957
24.554	62.4993
24.572	62.0916
24.59	61.6693
24.608	61.2342
24.626	60.7955
24.644	60.3564
24.662	59.9116
24.68	59.4713
24.698	59.0447
24.716	58.6258
24.734	58.2186
24.752	57.831
24.77	57.462
24.788	57.1103
24.806	56.7845
24.824	56.4901
24.842	56.2212
24.86	55.9836
24.878	55.7844
24.896	55.6202
24.914	55.4921
24.932	55.4075
24.95	55.3705
24.968	55.3761
24.986	55.4289
25.004	55.5341
25.022	55.6889
25.04	55.8941
25.058	56.1533
25.076	56.4688
25.094	56.8381
25.112	57.2617
25.13	57.7399
25.148	58.2745
25.166	58.8626
25.184	59.4999
25.202	60.1862
25.22	60.9248
25.238	61.7059
25.256	62.5193
25.274	63.3728
25.292	64.2614
25.31	65.1704
25.328	66.0926
25.346	67.0396
25.364	67.996
25.382	68.9447
25.4	69.8926
25.418	70.8396
25.436	71.7662
25.454	72.6586
25.472	73.5322
25.49	74.3742
25.508	75.1658
25.526	75.9045
25.544	76.5993
25.562	77.2362
25.58	77.8016
25.598	78.3027
25.616	78.7385
25.634	79.1002
25.652	79.3823
25.67	79.5898
25.688	79.7219
25.706	79.7767
25.724	79.7525
25.742	79.6512
25.76	79.4763
25.778	79.2311
25.796	78.9106
25.814	78.5195
25.832	78.0669
25.85	77.5579
25.868	76.9845
25.886	76.3557
25.904	75.6827
25.922	74.9663
25.94	74.2008
25.958	73.3978
25.976	72.5695
25.994	71.7108
26.012	70.8214
26.03	69.9117
26.048	68.9904
26.066	68.0491
26.084	67.0927
26.102	66.1319
26.12	65.1733
26.138	64.2086
26.156	63.2437
26.174	62.2863
26.192	61.3386
26.21	60.3954
26.228	59.4624
26.246	58.5458
26.264	57.6455
26.282	56.7589
26.3	55.8898
26.318	55.0418
26.336	54.2141
26.354	53.4056
26.372	52.6179
26.39	51.8523
26.408	51.1077
26.426	50.3843
26.444	49.6829
26.462	49.0044
26.48	48.3478
26.498	47.7133
26.516	47.1017
26.534	46.5133
26.552	45.9467
26.57	45.4032
26.588	44.8845
26.606	44.3918
26.624	43.9237
26.642	43.4806
26.66	43.0633
26.678	42.672
26.696	42.3057
26.714	41.9653
26.732	41.6524
26.75	41.3668
26.768	41.1063
26.786	40.8741
26.804	40.6739
26.822	40.5081
26.84	40.375
26.858	40.2729
26.876	40.2
26.894	40.1578
26.912	40.1498
26.93	40.1677
26.948	40.2023
26.966	40.2539
26.984	40.3372
27.002	40.4288
27.02	40.5028
27.028	40.5212