File: Bakgrunnsmateriale/MATLAB/FTIR/ftir_data/subAa/Mapping_121/BZ1503107-1_t54.asc
PE IR       SPECTRUM    SPECTRUM    ASCII       PEDS        1.60
  -1
BZ2953~1.ASC
17/04/07
17:40:37.00
17/04/07
17:41:04.00
tln
$BZ1503107-1_t0054$<tbV0>[-10.4,-2.6,8.0,0.0,27,1,0]
27.028
64

2002,4.07
MIRTGS : RIGHTBACK : INTERNAL 2
MIR : ON : INTERNAL 2
OPTKBR

0.200000
8
8.000000
FILLER
RATIO
SPECTRUM
UNLOCKED 256

DOUBLE
64
COMBINED
1
0
0

0.002000
RATIO

1
0
TRUE
51149
0
LEFT NOT FITTED RIGHT NOT FITTED 0
NONE
NONE
15600
12
4.427000
51148
TRUE
1 0 8 72 0 0 0 0

15798

#HDR
-1
-1
#GR
µM
%T
2.38419e-05
0.0
2.000000
0.002000
12515
8
67.1027
45.0945
#DATA
2.000000	 64.8395
2.018000	 65.1225
2.036000	 65.0247
2.054000	 64.4671
2.072000	 65.1276
2.090000	 64.9585
2.108000	 64.7199
2.126000	 64.6714
2.144000	 64.9642
2.162000	 64.9279
2.180000	 64.9475
2.198000	 64.8481
2.216000	 65.12
2.234000	 64.8743
2.252000	 67.1027
2.270000	 64.5631
2.288000	 65.1104
2.306000	 64.6807
2.324000	 65.1441
2.342000	 64.9778
2.360000	 65.1319
2.378000	 64.9532
2.396000	 64.8902
2.414000	 64.753
2.432000	 64.8597
2.450000	 65.0498
2.468000	 64.9254
2.486000	 64.9824
2.504000	 65.1215
2.522000	 65.1478
2.540000	 65.1946
2.558000	 65.0491
2.576000	 64.9997
2.594000	 64.971
2.612000	 65.1601
2.630000	 64.9453
2.648000	 65.109
2.666000	 65.1601
2.684000	 65.043
2.702000	 65.1849
2.720000	 65.0329
2.738000	 65.113
2.756000	 65.0354
2.774000	 64.9681
2.792000	 65.0909
2.810000	 65.0469
2.828000	 65.1411
2.846000	 65.1158
2.864000	 64.9681
2.882000	 65.0394
2.900000	 65.0013
2.918000	 64.8133
2.936000	 65.0502
2.954000	 64.9507
2.972000	 65.1905
2.990000	 65.0887
3.008000	 65.1653
3.026000	 65.2322
3.044000	 65.0706
3.062000	 65.0155
3.080000	 64.8834
3.098000	 65.0483
3.116000	 65.0186
3.134000	 65.0435
3.152000	 65.0513
3.170000	 64.9721
3.188000	 65.1363
3.206000	 64.8863
3.224000	 65.0809
3.242000	 64.9545
3.260000	 65.0794
3.278000	 64.9882
3.296000	 64.9334
3.314000	 64.9344
3.332000	 65.1389
3.350000	 65.0059
3.368000	 64.741
3.386000	 64.9486
3.404000	 64.7928
3.422000	 64.8411
3.440000	 64.8308
3.458000	 64.8578
3.476000	 64.9456
3.494000	 64.9866
3.512000	 64.9265
3.530000	 64.8874
3.548000	 64.9783
3.566000	 65.1116
3.584000	 64.963
3.602000	 65.0067
3.620000	 64.9577
3.638000	 65.1061
3.656000	 65.0255
3.674000	 64.9301
3.692000	 65.0303
3.710000	 64.8969
3.728000	 64.9907
3.746000	 64.9408
3.764000	 64.8932
3.782000	 64.9651
3.800000	 64.9798
3.818000	 64.8516
3.836000	 64.9798
3.854000	 64.9255
3.872000	 64.8759
3.890000	 64.8766
3.908000	 64.8387
3.926000	 64.8846
3.944000	 64.8027
3.962000	 64.799
3.980000	 64.9405
3.998000	 64.8816
4.016000	 64.9803
4.034000	 65.0339
4.052000	 64.7434
4.070000	 64.8805
4.088000	 64.9228
4.106000	 64.9284
4.124000	 64.9261
4.141999	 64.8118
4.160000	 64.9447
4.178000	 64.893
4.196000	 64.8084
4.214000	 64.8588
4.232000	 64.8009
4.250000	 64.7997
4.268000	 64.7812
4.286000	 64.6779
4.304000	 64.7648
4.322000	 64.7681
4.340000	 64.7907
4.358000	 64.8166
4.375999	 64.8836
4.394000	 64.7827
4.412000	 64.7773
4.430000	 64.8199
4.448000	 64.7549
4.466000	 64.7287
4.484000	 64.8184
4.502000	 64.8623
4.520000	 64.7478
4.538000	 64.8311
4.556000	 64.7663
4.574000	 64.6155
4.592000	 64.761
4.609999	 64.683
4.628000	 64.7417
4.646000	 64.7898
4.664000	 64.7325
4.682000	 64.7562
4.700000	 64.7719
4.718000	 64.7862
4.736000	 64.7781
4.754000	 64.7099
4.772000	 64.8313
4.790000	 64.7067
4.808000	 64.741
4.826000	 64.6408
4.843999	 64.6854
4.862000	 64.7062
4.880000	 64.6409
4.898000	 64.6
4.916000	 64.6285
4.934000	 64.6463
4.952000	 64.6743
4.970000	 64.69
4.988000	 64.7379
5.006000	 64.6682
5.024000	 64.5911
5.042000	 64.6524
5.060000	 64.6203
5.077999	 64.5791
5.096000	 64.5062
5.114000	 64.5005
5.132000	 64.5409
5.150000	 64.6033
5.168000	 64.6572
5.186000	 64.6576
5.204000	 64.648
5.222000	 64.6505
5.240000	 64.6275
5.258000	 64.5932
5.276000	 64.5654
5.294000	 64.5806
5.312000	 64.5135
5.330000	 64.5444
5.348000	 64.5729
5.366000	 64.5517
5.384000	 64.5901
5.402000	 64.6021
5.420000	 64.6347
5.438000	 64.5906
5.456000	 64.5
5.474000	 64.4979
5.492000	 64.5082
5.510000	 64.5016
5.528000	 64.4991
5.546000	 64.469
5.564000	 64.4597
5.582000	 64.4619
5.600000	 64.4404
5.618000	 64.4693
5.636000	 64.5331
5.654000	 64.5111
5.672000	 64.4515
5.690000	 64.4103
5.708000	 64.3537
5.726000	 64.2387
5.744000	 64.119
5.762000	 64.0889
5.780000	 64.0993
5.798000	 64.1088
5.816000	 64.1244
5.834000	 64.2323
5.852000	 64.3366
5.870000	 64.3938
5.888000	 64.4334
5.906000	 64.4324
5.923999	 64.3966
5.942000	 64.3538
5.960000	 64.2621
5.978000	 64.2609
5.996000	 64.3753
6.014000	 64.4168
6.032000	 64.3804
6.050000	 64.3441
6.068000	 64.3432
6.086000	 64.3573
6.104000	 64.301
6.122000	 64.2542
6.140000	 64.2624
6.158000	 64.2649
6.176000	 64.1763
6.194000	 64.2121
6.212000	 64.3003
6.230000	 64.3052
6.248000	 64.3475
6.266000	 64.3329
6.284000	 64.2985
6.302000	 64.2847
6.320000	 64.2231
6.338000	 64.142
6.356000	 64.1301
6.374000	 64.1832
6.392000	 64.2216
6.410000	 64.2306
6.428000	 64.1949
6.446000	 64.1456
6.464000	 64.1932
6.482000	 64.2868
6.500000	 64.3043
6.518000	 64.2486
6.536000	 64.2299
6.554000	 64.2251
6.572000	 64.2033
6.590000	 64.2322
6.608000	 64.2657
6.626000	 64.2577
6.644000	 64.2345
6.662000	 64.2043
6.680000	 64.1954
6.698000	 64.2506
6.716000	 64.2485
6.734000	 64.1967
6.752000	 64.1843
6.770000	 64.1675
6.788000	 64.1401
6.806000	 64.1365
6.824000	 64.1377
6.842000	 64.1353
6.860000	 64.135
6.878000	 64.1355
6.896000	 64.1078
6.914000	 64.018
6.932000	 63.9331
6.950000	 63.9377
6.968000	 64.0046
6.986000	 64.0813
7.004000	 64.1676
7.022000	 64.252
7.040000	 64.2862
7.058000	 64.2493
7.076000	 64.1806
7.094000	 64.1228
7.112000	 64.1077
7.130000	 64.1456
7.148000	 64.1771
7.166000	 64.1518
7.184000	 64.0957
7.202000	 64.0471
7.220000	 64.0206
7.238000	 64.005
7.256000	 63.9975
7.274000	 64.0225
7.292000	 64.0682
7.310000	 64.0949
7.328000	 64.1225
7.346000	 64.1744
7.364000	 64.2011
7.382000	 64.1635
7.400000	 64.0865
7.418000	 64.0119
7.436000	 63.9692
7.454000	 63.9649
7.472000	 63.9822
7.490000	 64.0096
7.508000	 64.0377
7.526000	 64.0538
7.544000	 64.0652
7.562000	 64.0875
7.580000	 64.1062
7.598000	 64.1053
7.616000	 64.1071
7.634000	 64.1284
7.652000	 64.1461
7.670000	 64.14
7.688000	 64.1261
7.706000	 64.1263
7.724000	 64.1405
7.742000	 64.1487
7.760000	 64.1357
7.778000	 64.102
7.796000	 64.0579
7.814000	 64.0235
7.832000	 64.0074
7.850000	 63.9958
7.868000	 63.9859
7.886000	 63.9982
7.904000	 64.0294
7.922000	 64.0419
7.940000	 64.0165
7.958000	 63.9732
7.976000	 63.944
7.994000	 63.9469
8.012000	 63.9803
8.030000	 64.0241
8.048000	 64.0487
8.065999	 64.0328
8.084000	 63.9821
8.102000	 63.9243
8.120000	 63.8802
8.138000	 63.8492
8.155999	 63.8298
8.173999	 63.834
8.192000	 63.8655
8.210000	 63.9042
8.228000	 63.9305
8.246000	 63.9531
8.263999	 63.9828
8.282000	 63.9937
8.300000	 63.9483
8.318000	 63.8602
8.336000	 63.7926
8.353999	 63.7884
8.372000	 63.8334
8.390000	 63.893
8.408000	 63.9502
8.426000	 63.9958
8.443999	 64.0124
8.462000	 63.9925
8.480000	 63.9633
8.498000	 63.9671
8.516000	 64.008
8.533999	 64.0357
8.552000	 63.998
8.570000	 63.897
8.588000	 63.7848
8.606000	 63.7176
8.624000	 63.7081
8.641999	 63.7219
8.660000	 63.7253
8.678000	 63.7176
8.696000	 63.7084
8.714000	 63.7039
8.731999	 63.7226
8.750000	 63.7833
8.768000	 63.8742
8.786000	 63.9547
8.804000	 63.9884
8.821999	 63.9697
8.840000	 63.9232
8.858000	 63.8842
8.876000	 63.8734
8.894000	 63.8844
8.911999	 63.8895
8.930000	 63.8693
8.948000	 63.8339
8.966000	 63.8141
8.984000	 63.8211
9.001999	 63.83
9.020000	 63.8095
9.038000	 63.7625
9.056000	 63.7275
9.074000	 63.7389
9.092000	 63.7947
9.109999	 63.8581
9.128000	 63.888
9.146000	 63.8666
9.164000	 63.8072
9.182000	 63.7409
9.199999	 63.6968
9.218000	 63.688
9.236000	 63.711
9.254000	 63.7542
9.272000	 63.8037
9.289999	 63.8439
9.308000	 63.8594
9.326000	 63.8434
9.344000	 63.8059
9.362000	 63.7697
9.379999	 63.7537
9.398000	 63.7599
9.416000	 63.7766
9.434000	 63.7901
9.452000	 63.7939
9.469999	 63.7886
9.488000	 63.7775
9.506000	 63.7619
9.524000	 63.7384
9.542000	 63.7044
9.560000	 63.6644
9.577999	 63.6332
9.596000	 63.6288
9.614000	 63.6579
9.632000	 63.7085
9.650000	 63.7563
9.667999	 63.7822
9.686000	 63.7843
9.704000	 63.7753
9.722000	 63.7682
9.740000	 63.7658
9.757999	 63.7616
9.776000	 63.7488
9.794000	 63.7278
9.812000	 63.7057
9.830000	 63.6928
9.847999	 63.6984
9.866000	 63.7283
9.884000	 63.7818
9.902000	 63.8482
9.920000	 63.9071
9.937999	 63.937
9.956000	 63.9294
9.974000	 63.8958
9.992000	 63.8614
10.01	63.8495
10.028	63.8666
10.046	63.8985
10.064	63.9226
10.082	63.9233
10.1	63.9025
10.118	63.8775
10.136	63.8683
10.154	63.8845
10.172	63.9196
10.19	63.955
10.208	63.9738
10.226	63.9716
10.244	63.956
10.262	63.9385
10.28	63.9234
10.298	63.9057
10.316	63.8775
10.334	63.836
10.352	63.7859
10.37	63.736
10.388	63.692
10.406	63.6548
10.424	63.6232
10.442	63.5984
10.46	63.5825
10.478	63.5755
10.496	63.5724
10.514	63.5663
10.532	63.5534
10.55	63.5368
10.568	63.5241
10.586	63.5236
10.604	63.5385
10.622	63.5656
10.64	63.5983
10.658	63.6308
10.676	63.6611
10.694	63.6908
10.712	63.7226
10.73	63.7562
10.748	63.7888
10.766	63.8151
10.784	63.8315
10.802	63.8387
10.82	63.8418
10.838	63.8479
10.856	63.8601
10.874	63.874
10.892	63.8803
10.91	63.8688
10.928	63.8362
10.946	63.7875
10.964	63.7347
10.982	63.6913
11	63.6657
11.018	63.6594
11.036	63.6674
11.054	63.6826
11.072	63.6992
11.09	63.7148
11.108	63.7288
11.126	63.7412
11.144	63.7514
11.162	63.7578
11.18	63.76
11.198	63.7598
11.216	63.7605
11.234	63.766
11.252	63.7789
11.27	63.7994
11.288	63.8254
11.306	63.8546
11.324	63.8851
11.342	63.9163
11.36	63.9477
11.378	63.9772
11.396	64.001
11.414	64.0138
11.432	64.0104
11.45	63.9884
11.468	63.9489
11.486	63.8965
11.504	63.8375
11.522	63.7791
11.54	63.7278
11.558	63.6891
11.576	63.6674
11.594	63.6655
11.612	63.6834
11.63	63.7179
11.648	63.7623
11.666	63.8068
11.684	63.8406
11.702	63.856
11.72	63.8498
11.738	63.8256
11.756	63.7924
11.774	63.7618
11.792	63.7439
11.81	63.7435
11.828	63.7587
11.846	63.7827
11.864	63.8068
11.882	63.824
11.9	63.8305
11.918	63.827
11.936	63.8169
11.954	63.8039
11.972	63.7903
11.99	63.7766
12.008	63.7617
12.026	63.744
12.044	63.7236
12.062	63.7031
12.08	63.6867
12.098	63.6788
12.116	63.6821
12.134	63.6959
12.152	63.7161
12.17	63.7362
12.188	63.7494
12.206	63.7511
12.224	63.7396
12.242	63.7171
12.26	63.6879
12.278	63.6579
12.296	63.6322
12.314	63.6146
12.332	63.6066
12.35	63.6078
12.368	63.6159
12.386	63.6276
12.404	63.6386
12.422	63.6452
12.44	63.6445
12.458	63.6358
12.476	63.6203
12.494	63.6014
12.512	63.584
12.53	63.5731
12.548	63.5724
12.566	63.5834
12.584	63.6052
12.602	63.6347
12.62	63.6676
12.638	63.7009
12.656	63.733
12.674	63.7645
12.692	63.7965
12.71	63.8301
12.728	63.8642
12.746	63.8955
12.764	63.9188
12.782	63.9285
12.8	63.9209
12.818	63.8955
12.836	63.8553
12.854	63.8064
12.872	63.7564
12.89	63.7128
12.908	63.6811
12.926	63.6636
12.944	63.6596
12.962	63.6655
12.98	63.6763
12.998	63.6872
13.016	63.6939
13.034	63.6942
13.052	63.6868
13.07	63.6718
13.088	63.6496
13.106	63.6208
13.124	63.5858
13.142	63.5447
13.16	63.4978
13.178	63.4461
13.196	63.3913
13.214	63.3363
13.232	63.2852
13.25	63.2425
13.268	63.2124
13.286	63.1985
13.304	63.2023
13.322	63.2234
13.34	63.2594
13.358	63.3069
13.376	63.3617
13.394	63.4199
13.412	63.4782
13.43	63.5341
13.448	63.5854
13.466	63.6306
13.484	63.6678
13.502	63.6954
13.52	63.7113
13.538	63.7139
13.556	63.7027
13.574	63.6787
13.592	63.6447
13.61	63.6051
13.628	63.5658
13.646	63.533
13.664	63.5124
13.682	63.5084
13.7	63.5234
13.718	63.5567
13.736	63.6055
13.754	63.6648
13.772	63.7283
13.79	63.7893
13.808	63.8417
13.826	63.8808
13.844	63.9041
13.862	63.911
13.88	63.9032
13.898	63.8842
13.916	63.8586
13.934	63.8313
13.952	63.8064
13.97	63.7869
13.988	63.7737
14.006	63.7658
14.024	63.7604
14.042	63.7533
14.06	63.7403
14.078	63.7178
14.096	63.6839
14.114	63.6392
14.132	63.5862
14.15	63.5294
14.168	63.4744
14.186	63.4273
14.204	63.3926
14.222	63.3731
14.24	63.3689
14.258	63.3777
14.276	63.395
14.294	63.4155
14.312	63.434
14.33	63.4464
14.348	63.4507
14.366	63.4468
14.384	63.4376
14.402	63.4273
14.42	63.4206
14.438	63.4218
14.456	63.4334
14.474	63.4558
14.492	63.4869
14.51	63.5221
14.528	63.5559
14.546	63.5831
14.564	63.5995
14.582	63.6031
14.6	63.5939
14.618	63.5745
14.636	63.5494
14.654	63.5236
14.672	63.5012
14.69	63.4853
14.708	63.477
14.726	63.4754
14.744	63.4772
14.762	63.4782
14.78	63.4742
14.798	63.4614
14.816	63.4375
14.834	63.4017
14.852	63.3551
14.87	63.3005
14.888	63.2416
14.906	63.1824
14.924	63.1275
14.942	63.0807
14.96	63.0454
14.978	63.0241
14.996	63.0187
15.014	63.0305
15.032	63.0603
15.05	63.1078
15.068	63.1719
15.086	63.2507
15.104	63.341
15.122	63.4379
15.14	63.536
15.158	63.6299
15.176	63.7142
15.194	63.7841
15.212	63.8361
15.23	63.8694
15.248	63.8851
15.266	63.8854
15.284	63.8756
15.302	63.8609
15.32	63.8454
15.338	63.8324
15.356	63.8232
15.374	63.817
15.392	63.8106
15.41	63.8003
15.428	63.7813
15.446	63.7482
15.464	63.6986
15.482	63.6314
15.5	63.5471
15.518	63.4499
15.536	63.3453
15.554	63.2388
15.572	63.137
15.59	63.0465
15.608	62.9706
15.626	62.9117
15.644	62.8705
15.662	62.8449
15.68	62.8313
15.698	62.8261
15.716	62.8237
15.734	62.8193
15.752	62.8101
15.77	62.7938
15.788	62.7694
15.806	62.7385
15.824	62.703
15.842	62.6655
15.86	62.6306
15.878	62.6013
15.896	62.5809
15.914	62.5732
15.932	62.5802
15.95	62.6033
15.968	62.6429
15.986	62.6984
16.004	62.7679
16.022	62.8494
16.04	62.9389
16.058	63.0322
16.076	63.1255
16.094	63.2132
16.112	63.2901
16.13	63.3524
16.148	63.3952
16.166	63.4152
16.184	63.4111
16.202	63.3815
16.22	63.3284
16.238	63.2552
16.256	63.165
16.274	63.0661
16.292	62.9651
16.31	62.8684
16.328	62.7862
16.346	62.7249
16.364	62.6897
16.382	62.6866
16.4	62.7161
16.418	62.7785
16.436	62.8706
16.454	62.9865
16.472	63.1214
16.49	63.2646
16.508	63.4078
16.526	63.5444
16.544	63.664
16.562	63.7621
16.58	63.835
16.598	63.8808
16.616	63.9021
16.634	63.9007
16.652	63.8842
16.67	63.858
16.688	63.8276
16.706	63.8018
16.724	63.7831
16.742	63.7755
16.76	63.7795
16.778	63.794
16.796	63.8155
16.814	63.838
16.832	63.8582
16.85	63.8677
16.868	63.8624
16.886	63.8386
16.904	63.7929
16.922	63.7267
16.94	63.6404
16.958	63.5408
16.976	63.4313
16.994	63.3202
17.012	63.2148
17.03	63.1203
17.048	63.0455
17.066	62.9925
17.084	62.9658
17.102	62.9653
17.12	62.9907
17.138	63.0391
17.156	63.1062
17.174	63.1888
17.192	63.2795
17.21	63.3756
17.228	63.4709
17.246	63.5623
17.264	63.6469
17.282	63.7218
17.3	63.7865
17.318	63.8395
17.336	63.8813
17.354	63.9118
17.372	63.9319
17.39	63.9422
17.408	63.9433
17.426	63.9358
17.444	63.9204
17.462	63.8973
17.48	63.8669
17.498	63.8303
17.516	63.7881
17.534	63.7405
17.552	63.6892
17.57	63.6346
17.588	63.5778
17.606	63.5192
17.624	63.4596
17.642	63.3994
17.66	63.339
17.678	63.2786
17.696	63.2182
17.714	63.1584
17.732	63.0994
17.75	63.0416
17.768	62.9864
17.786	62.9339
17.804	62.8865
17.822	62.8446
17.84	62.8106
17.858	62.785
17.876	62.7693
17.894	62.7637
17.912	62.769
17.93	62.7843
17.948	62.8093
17.966	62.8423
17.984	62.8821
18.002	62.926
18.02	62.9722
18.038	63.0191
18.056	63.0647
18.074	63.1081
18.092	63.1484
18.11	63.1857
18.128	63.2202
18.146	63.2523
18.164	63.2833
18.182	63.3138
18.2	63.3448
18.218	63.3763
18.236	63.4087
18.254	63.4404
18.272	63.4713
18.29	63.4977
18.308	63.5191
18.326	63.5306
18.344	63.5319
18.362	63.519
18.38	63.4917
18.398	63.4479
18.416	63.389
18.434	63.3152
18.452	63.2299
18.47	63.1345
18.488	63.0347
18.506	62.9321
18.524	62.8339
18.542	62.7414
18.56	62.6609
18.578	62.5931
18.596	62.5423
18.614	62.5089
18.632	62.4937
18.65	62.4964
18.668	62.5153
18.686	62.5497
18.704	62.5958
18.722	62.6529
18.74	62.7167
18.758	62.7866
18.776	62.8588
18.794	62.9331
18.812	63.0071
18.83	63.0809
18.848	63.1535
18.866	63.2254
18.884	63.2969
18.902	63.3682
18.92	63.4401
18.938	63.5127
18.956	63.5867
18.974	63.6616
18.992	63.7372
19.01	63.8126
19.028	63.8872
19.046	63.9596
19.064	64.0281
19.082	64.0918
19.1	64.1486
19.118	64.1978
19.136	64.2374
19.154	64.2673
19.172	64.2862
19.19	64.2944
19.208	64.2914
19.226	64.2777
19.244	64.2542
19.262	64.2214
19.28	64.1811
19.298	64.1335
19.316	64.0813
19.334	64.0245
19.352	63.9659
19.37	63.9054
19.388	63.8459
19.406	63.7872
19.424	63.7315
19.442	63.6788
19.46	63.6309
19.478	63.588
19.496	63.5508
19.514	63.5196
19.532	63.4947
19.55	63.4765
19.568	63.4644
19.586	63.4584
19.604	63.4578
19.622	63.4618
19.64	63.4699
19.658	63.4803
19.676	63.4931
19.694	63.5053
19.712	63.5173
19.73	63.5266
19.748	63.5333
19.766	63.536
19.784	63.5342
19.802	63.5279
19.82	63.5167
19.838	63.5012
19.856	63.4817
19.874	63.4588
19.892	63.4341
19.91	63.4075
19.928	63.3815
19.946	63.3558
19.964	63.3324
19.982	63.3115
20	63.294
20.018	63.2804
20.036	63.2705
20.054	63.2646
20.072	63.2624
20.09	63.2632
20.108	63.2671
20.126	63.2726
20.144	63.2797
20.162	63.2871
20.18	63.2943
20.198	63.301
20.216	63.306
20.234	63.3096
20.252	63.3112
20.27	63.3108
20.288	63.3086
20.306	63.3045
20.324	63.2992
20.342	63.2928
20.36	63.2857
20.378	63.2789
20.396	63.2721
20.414	63.2665
20.432	63.2619
20.45	63.2588
20.468	63.2575
20.486	63.2578
20.504	63.2598
20.522	63.2633
20.54	63.2677
20.558	63.2734
20.576	63.2792
20.594	63.2846
20.612	63.2894
20.63	63.2925
20.648	63.2941
20.666	63.2924
20.684	63.2877
20.702	63.2789
20.72	63.2654
20.738	63.2472
20.756	63.2233
20.774	63.1937
20.792	63.1579
20.81	63.1156
20.828	63.0671
20.846	63.0124
20.864	62.9515
20.882	62.886
20.9	62.8151
20.918	62.7409
20.936	62.6644
20.954	62.5857
20.972	62.5082
20.99	62.4308
21.008	62.3569
21.026	62.2874
21.044	62.2229
21.062	62.1666
21.08	62.1177
21.098	62.0786
21.116	62.05
21.134	62.0317
21.152	62.0252
21.17	62.03
21.188	62.0459
21.206	62.0731
21.224	62.1108
21.242	62.1575
21.26	62.2138
21.278	62.2768
21.296	62.3466
21.314	62.4218
21.332	62.4997
21.35	62.5812
21.368	62.6629
21.386	62.7443
21.404	62.8246
21.422	62.9012
21.44	62.9748
21.458	63.0436
21.476	63.1065
21.494	63.164
21.512	63.2146
21.53	63.2586
21.548	63.2961
21.566	63.327
21.584	63.3514
21.602	63.37
21.62	63.3825
21.638	63.3898
21.656	63.3931
21.674	63.3918
21.692	63.387
21.71	63.3789
21.728	63.3674
21.746	63.3531
21.764	63.3361
21.782	63.3159
21.8	63.2922
21.818	63.2651
21.836	63.2337
21.854	63.1982
21.872	63.1582
21.89	63.1125
21.908	63.0614
21.926	63.0042
21.944	62.9405
21.962	62.8704
21.98	62.7939
21.998	62.7106
22.016	62.6212
22.034	62.5268
22.052	62.4267
22.07	62.3229
22.088	62.2167
22.106	62.1074
22.124	61.9983
22.142	61.8897
22.16	61.7821
22.178	61.6791
22.196	61.5797
22.214	61.4857
22.232	61.3994
22.25	61.3199
22.268	61.2488
22.286	61.1875
22.304	61.1352
22.322	61.0928
22.34	61.0606
22.358	61.0382
22.376	61.025
22.394	61.0216
22.412	61.0269
22.43	61.0394
22.448	61.06
22.466	61.087
22.484	61.1192
22.502	61.1572
22.52	61.1993
22.538	61.2448
22.556	61.294
22.574	61.3452
22.592	61.3984
22.61	61.4536
22.628	61.5094
22.646	61.5663
22.664	61.6237
22.682	61.6806
22.7	61.7373
22.718	61.7934
22.736	61.848
22.754	61.9018
22.772	61.9533
22.79	62.0016
22.808	62.0472
22.826	62.0889
22.844	62.1255
22.862	62.1578
22.88	62.1852
22.898	62.207
22.916	62.2238
22.934	62.2357
22.952	62.2429
22.97	62.2453
22.988	62.2439
23.006	62.2384
23.024	62.2292
23.042	62.2181
23.06	62.2047
23.078	62.1894
23.096	62.1753
23.114	62.162
23.132	62.1499
23.15	62.1419
23.168	62.1376
23.186	62.1373
23.204	62.1433
23.222	62.1554
23.24	62.1736
23.258	62.1987
23.276	62.231
23.294	62.2699
23.312	62.3146
23.33	62.3656
23.348	62.4222
23.366	62.482
23.384	62.5455
23.402	62.6123
23.42	62.6798
23.438	62.7485
23.456	62.818
23.474	62.8852
23.492	62.95
23.51	63.0125
23.528	63.0698
23.546	63.1212
23.564	63.1675
23.582	63.2061
23.6	63.236
23.618	63.2582
23.636	63.2712
23.654	63.2744
23.672	63.2683
23.69	63.2524
23.708	63.2263
23.726	63.1902
23.744	63.1444
23.762	63.0891
23.78	63.024
23.798	62.95
23.816	62.8682
23.834	62.7778
23.852	62.6799
23.87	62.5765
23.888	62.4661
23.906	62.3503
23.924	62.2321
23.942	62.1111
23.96	61.9874
23.978	61.8647
23.996	61.7436
24.014	61.6231
24.032	61.507
24.05	61.398
24.068	61.2939
24.086	61.1971
24.104	61.11
24.122	61.0315
24.14	60.9621
24.158	60.9026
24.176	60.8541
24.194	60.815
24.212	60.7828
24.23	60.7585
24.248	60.7418
24.266	60.7274
24.284	60.7132
24.302	60.7025
24.32	60.6881
24.338	60.6635
24.356	60.6342
24.374	60.5945
24.392	60.5352
24.41	60.4584
24.428	60.364
24.446	60.2444
24.464	60.0966
24.482	59.9243
24.5	59.7233
24.518	59.4894
24.536	59.2237
24.554	58.9281
24.572	58.6047
24.59	58.2503
24.608	57.8678
24.626	57.4648
24.644	57.0427
24.662	56.5969
24.68	56.1405
24.698	55.6852
24.716	55.2211
24.734	54.7574
24.752	54.3103
24.77	53.878
24.788	53.4577
24.806	53.0665
24.824	52.7156
24.842	52.3936
24.86	52.1116
24.878	51.8839
24.896	51.7071
24.914	51.5802
24.932	51.5114
24.95	51.5064
24.968	51.5608
24.986	51.6742
25.004	51.8465
25.022	52.0816
25.04	52.3745
25.058	52.716
25.076	53.1048
25.094	53.5466
25.112	54.0268
25.13	54.5313
25.148	55.0716
25.166	55.6394
25.184	56.2145
25.202	56.7898
25.22	57.3782
25.238	57.9602
25.256	58.5154
25.274	59.0538
25.292	59.5726
25.31	60.0542
25.328	60.4886
25.346	60.8869
25.364	61.2408
25.382	61.5402
25.4	61.7853
25.418	61.9794
25.436	62.1199
25.454	62.2043
25.472	62.2319
25.49	62.2071
25.508	62.1346
25.526	62.0129
25.544	61.8401
25.562	61.627
25.58	61.3837
25.598	61.1013
25.616	60.7855
25.634	60.4503
25.652	60.1034
25.67	59.7338
25.688	59.3529
25.706	58.9747
25.724	58.5989
25.742	58.2202
25.76	57.8502
25.778	57.4991
25.796	57.1607
25.814	56.8367
25.832	56.535
25.85	56.261
25.868	56.0096
25.886	55.7829
25.904	55.5841
25.922	55.4144
25.94	55.2717
25.958	55.1569
25.976	55.0708
25.994	55.0145
26.012	54.9867
26.03	54.9848
26.048	55.007
26.066	55.0564
26.084	55.1302
26.102	55.2235
26.12	55.3339
26.138	55.4665
26.156	55.6154
26.174	55.774
26.192	55.9405
26.21	56.1197
26.228	56.3053
26.246	56.4909
26.264	56.6779
26.282	56.8686
26.3	57.0558
26.318	57.2325
26.336	57.4031
26.354	57.5672
26.372	57.7172
26.39	57.8462
26.408	57.9601
26.426	58.0568
26.444	58.1295
26.462	58.1723
26.48	58.191
26.498	58.1832
26.516	58.1438
26.534	58.069
26.552	57.9627
26.57	57.8235
26.588	57.6489
26.606	57.4366
26.624	57.1881
26.642	56.9043
26.66	56.586
26.678	56.2331
26.696	55.844
26.714	55.422
26.732	54.9706
26.75	54.4904
26.768	53.9771
26.786	53.4373
26.804	52.8789
26.822	52.3047
26.84	51.7081
26.858	51.0955
26.876	50.4742
26.894	49.8473
26.912	49.2086
26.93	48.5633
26.948	47.9174
26.966	47.2459
26.984	46.5023
27.002	45.7951
27.02	45.2427
27.028	45.0945