File: Bakgrunnsmateriale/MATLAB/FTIR/ftir_data/subAa/Mapping_121/BZ1503107-1_t90.asc
PE IR       SPECTRUM    SPECTRUM    ASCII       PEDS        1.60
  -1
BZ394B~1.ASC
17/04/07
20:41:23.00
17/04/07
20:41:49.00
tln
$BZ1503107-1_t0090$<tbV0>[10.4,7.8,8.0,0.0,27,1,0]
27.028
64

2002,4.07
MIRTGS : RIGHTBACK : INTERNAL 2
MIR : ON : INTERNAL 2
OPTKBR

0.200000
8
8.000000
FILLER
RATIO
SPECTRUM
UNLOCKED 256

DOUBLE
64
COMBINED
1
0
0

0.002000
RATIO

1
0
TRUE
51149
0
LEFT NOT FITTED RIGHT NOT FITTED 0
NONE
NONE
15600
12
4.427000
51148
TRUE
1 0 8 72 0 0 0 0

15798

#HDR
-1
-1
#GR
µM
%T
2.38419e-05
0.0
2.000000
0.002000
12515
8
75.7704
52.6259
#DATA
2.000000	 59.0833
2.018000	 59.7212
2.036000	 59.196
2.054000	 58.5594
2.072000	 59.1849
2.090000	 59.2386
2.108000	 58.8116
2.126000	 59.0964
2.144000	 59.5711
2.162000	 59.2318
2.180000	 59.3949
2.198000	 59.0975
2.216000	 58.9033
2.234000	 58.8166
2.252000	 62.4452
2.270000	 59.3876
2.288000	 58.7327
2.306000	 59.0866
2.324000	 59.2636
2.342000	 58.932
2.360000	 59.2874
2.378000	 59.6564
2.396000	 59.6362
2.414000	 59.498
2.432000	 60.0437
2.450000	 59.6521
2.468000	 59.673
2.486000	 59.5495
2.504000	 59.86
2.522000	 59.9336
2.540000	 59.649
2.558000	 59.6386
2.576000	 59.6164
2.594000	 59.9414
2.612000	 59.9065
2.630000	 59.907
2.648000	 59.9028
2.666000	 60.0273
2.684000	 60.0046
2.702000	 60.016
2.720000	 59.8641
2.738000	 59.927
2.756000	 59.9562
2.774000	 60.0639
2.792000	 60.0059
2.810000	 60.0817
2.828000	 60.1544
2.846000	 60.0186
2.864000	 60.0812
2.882000	 60.3407
2.900000	 59.9378
2.918000	 59.963
2.936000	 60.0968
2.954000	 60.2002
2.972000	 60.2838
2.990000	 60.2358
3.008000	 60.2412
3.026000	 60.1848
3.044000	 60.213
3.062000	 60.2052
3.080000	 60.3839
3.098000	 60.2519
3.116000	 60.3776
3.134000	 60.3824
3.152000	 60.2912
3.170000	 60.2718
3.188000	 60.3313
3.206000	 60.3794
3.224000	 60.4992
3.242000	 60.3185
3.260000	 60.3355
3.278000	 60.6013
3.296000	 60.3919
3.314000	 60.4947
3.332000	 60.4427
3.350000	 60.3411
3.368000	 60.3402
3.386000	 60.2589
3.404000	 60.3257
3.422000	 60.5243
3.440000	 60.6171
3.458000	 60.4509
3.476000	 60.5629
3.494000	 60.4481
3.512000	 60.3605
3.530000	 60.5124
3.548000	 60.5642
3.566000	 60.6631
3.584000	 60.6649
3.602000	 60.6659
3.620000	 60.7147
3.638000	 60.5981
3.656000	 60.7096
3.674000	 60.7794
3.692000	 60.8043
3.710000	 60.5987
3.728000	 60.5553
3.746000	 60.7637
3.764000	 60.6977
3.782000	 60.9186
3.800000	 60.7291
3.818000	 60.7366
3.836000	 60.7335
3.854000	 60.7715
3.872000	 60.9406
3.890000	 60.9429
3.908000	 60.7972
3.926000	 60.7836
3.944000	 60.8601
3.962000	 60.756
3.980000	 60.9073
3.998000	 60.8268
4.016000	 60.9725
4.034000	 60.8357
4.052000	 61.0687
4.070000	 61.0063
4.088000	 60.8679
4.106000	 61.0043
4.124000	 60.9567
4.141999	 61.0063
4.160000	 60.9335
4.178000	 60.9985
4.196000	 61.1196
4.214000	 60.9381
4.232000	 61.1178
4.250000	 61.0673
4.268000	 60.9882
4.286000	 61.0727
4.304000	 61.1751
4.322000	 61.1198
4.340000	 61.1236
4.358000	 61.1599
4.375999	 61.0713
4.394000	 61.1264
4.412000	 61.145
4.430000	 61.1232
4.448000	 61.0848
4.466000	 61.0959
4.484000	 61.1274
4.502000	 61.1152
4.520000	 61.0912
4.538000	 61.0838
4.556000	 61.0686
4.574000	 61.0373
4.592000	 61.0607
4.609999	 61.2037
4.628000	 61.0718
4.646000	 61.1561
4.664000	 61.2726
4.682000	 61.2504
4.700000	 61.2152
4.718000	 61.2816
4.736000	 61.276
4.754000	 61.2946
4.772000	 61.1784
4.790000	 61.2058
4.808000	 61.3489
4.826000	 61.2009
4.843999	 61.1652
4.862000	 61.2604
4.880000	 61.2025
4.898000	 61.1844
4.916000	 61.2919
4.934000	 61.2559
4.952000	 61.1996
4.970000	 61.188
4.988000	 61.2313
5.006000	 61.176
5.024000	 61.2339
5.042000	 61.2179
5.060000	 61.2075
5.077999	 61.294
5.096000	 61.2627
5.114000	 61.3015
5.132000	 61.259
5.150000	 61.2868
5.168000	 61.3717
5.186000	 61.3037
5.204000	 61.2355
5.222000	 61.297
5.240000	 61.317
5.258000	 61.3679
5.276000	 61.4515
5.294000	 61.4811
5.312000	 61.456
5.330000	 61.392
5.348000	 61.3661
5.366000	 61.3842
5.384000	 61.4511
5.402000	 61.4941
5.420000	 61.4561
5.438000	 61.4932
5.456000	 61.4583
5.474000	 61.428
5.492000	 61.4663
5.510000	 61.4072
5.528000	 61.3613
5.546000	 61.4731
5.564000	 61.4914
5.582000	 61.4227
5.600000	 61.4163
5.618000	 61.3839
5.636000	 61.3415
5.654000	 61.4552
5.672000	 61.4437
5.690000	 61.331
5.708000	 61.249
5.726000	 61.165
5.744000	 61.0436
5.762000	 60.9596
5.780000	 61.0287
5.798000	 61.1397
5.816000	 61.2627
5.834000	 61.3642
5.852000	 61.3502
5.870000	 61.3675
5.888000	 61.4017
5.906000	 61.4065
5.923999	 61.3757
5.942000	 61.3753
5.960000	 61.4005
5.978000	 61.3675
5.996000	 61.3554
6.014000	 61.3934
6.032000	 61.4111
6.050000	 61.4253
6.068000	 61.4216
6.086000	 61.4134
6.104000	 61.4581
6.122000	 61.4776
6.140000	 61.3979
6.158000	 61.399
6.176000	 61.4539
6.194000	 61.4682
6.212000	 61.5092
6.230000	 61.5373
6.248000	 61.4817
6.266000	 61.4378
6.284000	 61.4906
6.302000	 61.5373
6.320000	 61.4631
6.338000	 61.3509
6.356000	 61.4039
6.374000	 61.5106
6.392000	 61.5176
6.410000	 61.4763
6.428000	 61.4475
6.446000	 61.4472
6.464000	 61.4671
6.482000	 61.4721
6.500000	 61.4432
6.518000	 61.4511
6.536000	 61.4714
6.554000	 61.4802
6.572000	 61.4726
6.590000	 61.4363
6.608000	 61.4466
6.626000	 61.4837
6.644000	 61.4866
6.662000	 61.4758
6.680000	 61.4932
6.698000	 61.5613
6.716000	 61.5983
6.734000	 61.5692
6.752000	 61.5581
6.770000	 61.5696
6.788000	 61.5273
6.806000	 61.4691
6.824000	 61.4532
6.842000	 61.4344
6.860000	 61.4047
6.878000	 61.4366
6.896000	 61.5163
6.914000	 61.5662
6.932000	 61.5995
6.950000	 61.6416
6.968000	 61.6729
6.986000	 61.6513
7.004000	 61.5885
7.022000	 61.5536
7.040000	 61.5694
7.058000	 61.5875
7.076000	 61.5783
7.094000	 61.6052
7.112000	 61.7023
7.130000	 61.7404
7.148000	 61.6366
7.166000	 61.5386
7.184000	 61.5639
7.202000	 61.6114
7.220000	 61.6007
7.238000	 61.6029
7.256000	 61.6424
7.274000	 61.6618
7.292000	 61.6593
7.310000	 61.6589
7.328000	 61.6405
7.346000	 61.5968
7.364000	 61.5613
7.382000	 61.5603
7.400000	 61.5946
7.418000	 61.6305
7.436000	 61.6137
7.454000	 61.5391
7.472000	 61.4734
7.490000	 61.4828
7.508000	 61.566
7.526000	 61.667
7.544000	 61.7401
7.562000	 61.7861
7.580000	 61.8158
7.598000	 61.8145
7.616000	 61.7714
7.634000	 61.7092
7.652000	 61.653
7.670000	 61.6225
7.688000	 61.6358
7.706000	 61.6765
7.724000	 61.6996
7.742000	 61.6788
7.760000	 61.6283
7.778000	 61.5855
7.796000	 61.5702
7.814000	 61.5655
7.832000	 61.5595
7.850000	 61.5658
7.868000	 61.5826
7.886000	 61.594
7.904000	 61.6167
7.922000	 61.6746
7.940000	 61.7364
7.958000	 61.7481
7.976000	 61.712
7.994000	 61.677
8.012000	 61.6709
8.030000	 61.6869
8.048000	 61.7076
8.065999	 61.7152
8.084000	 61.7032
8.102000	 61.6843
8.120000	 61.6725
8.138000	 61.6683
8.155999	 61.6663
8.173999	 61.6572
8.192000	 61.6296
8.210000	 61.594
8.228000	 61.5887
8.246000	 61.6353
8.263999	 61.7041
8.282000	 61.7488
8.300000	 61.7649
8.318000	 61.7796
8.336000	 61.7985
8.353999	 61.8019
8.372000	 61.7864
8.390000	 61.774
8.408000	 61.7752
8.426000	 61.776
8.443999	 61.7654
8.462000	 61.7505
8.480000	 61.7359
8.498000	 61.7124
8.516000	 61.6686
8.533999	 61.6063
8.552000	 61.5426
8.570000	 61.5017
8.588000	 61.5043
8.606000	 61.5594
8.624000	 61.6501
8.641999	 61.7326
8.660000	 61.7636
8.678000	 61.7384
8.696000	 61.6966
8.714000	 61.6832
8.731999	 61.7101
8.750000	 61.7549
8.768000	 61.7899
8.786000	 61.8019
8.804000	 61.788
8.821999	 61.7526
8.840000	 61.7154
8.858000	 61.7042
8.876000	 61.7273
8.894000	 61.7687
8.911999	 61.8058
8.930000	 61.8202
8.948000	 61.8037
8.966000	 61.7685
8.984000	 61.7413
9.001999	 61.7405
9.020000	 61.7675
9.038000	 61.8125
9.056000	 61.8631
9.074000	 61.9086
9.092000	 61.9417
9.109999	 61.9577
9.128000	 61.9514
9.146000	 61.918
9.164000	 61.8584
9.182000	 61.7839
9.199999	 61.7128
9.218000	 61.6614
9.236000	 61.6355
9.254000	 61.6307
9.272000	 61.6399
9.289999	 61.6607
9.308000	 61.6984
9.326000	 61.7588
9.344000	 61.8363
9.362000	 61.9102
9.379999	 61.955
9.398000	 61.9572
9.416000	 61.9244
9.434000	 61.8792
9.452000	 61.8433
9.469999	 61.8283
9.488000	 61.8341
9.506000	 61.8513
9.524000	 61.8655
9.542000	 61.8669
9.560000	 61.8583
9.577999	 61.8533
9.596000	 61.8637
9.614000	 61.8859
9.632000	 61.9018
9.650000	 61.893
9.667999	 61.8556
9.686000	 61.8041
9.704000	 61.7612
9.722000	 61.7423
9.740000	 61.7475
9.757999	 61.7652
9.776000	 61.7798
9.794000	 61.7792
9.812000	 61.7593
9.830000	 61.7261
9.847999	 61.6948
9.866000	 61.6836
9.884000	 61.7025
9.902000	 61.7446
9.920000	 61.7879
9.937999	 61.8096
9.956000	 61.8031
9.974000	 61.7814
9.992000	 61.767
10.01	61.777
10.028	61.8148
10.046	61.8718
10.064	61.9365
10.082	61.9983
10.1	62.0491
10.118	62.0826
10.136	62.0971
10.154	62.0967
10.172	62.09
10.19	62.0837
10.208	62.0788
10.226	62.072
10.244	62.0606
10.262	62.0457
10.28	62.0299
10.298	62.0132
10.316	61.9914
10.334	61.9594
10.352	61.9173
10.37	61.8731
10.388	61.8398
10.406	61.8262
10.424	61.8327
10.442	61.8508
10.46	61.8693
10.478	61.8803
10.496	61.8831
10.514	61.8825
10.532	61.8848
10.55	61.8931
10.568	61.9075
10.586	61.926
10.604	61.9469
10.622	61.9697
10.64	61.9928
10.658	62.0132
10.676	62.0265
10.694	62.0294
10.712	62.0233
10.73	62.0149
10.748	62.0142
10.766	62.0285
10.784	62.0578
10.802	62.0952
10.82	62.1307
10.838	62.1562
10.856	62.1695
10.874	62.1737
10.892	62.1741
10.91	62.1752
10.928	62.1778
10.946	62.1799
10.964	62.1771
10.982	62.1641
11	62.1372
11.018	62.0958
11.036	62.0451
11.054	61.9974
11.072	61.9672
11.09	61.9663
11.108	61.996
11.126	62.0464
11.144	62.1013
11.162	62.144
11.18	62.1676
11.198	62.1763
11.216	62.1806
11.234	62.1894
11.252	62.2031
11.27	62.2127
11.288	62.2043
11.306	62.1691
11.324	62.1098
11.342	62.0413
11.36	61.9842
11.378	61.9574
11.396	61.9684
11.414	62.011
11.432	62.0677
11.45	62.1189
11.468	62.1485
11.486	62.151
11.504	62.1307
11.522	62.0999
11.54	62.0713
11.558	62.0551
11.576	62.0548
11.594	62.0679
11.612	62.0875
11.63	62.1055
11.648	62.1163
11.666	62.1171
11.684	62.1084
11.702	62.0937
11.72	62.0782
11.738	62.0677
11.756	62.0673
11.774	62.081
11.792	62.1094
11.81	62.1493
11.828	62.1942
11.846	62.2348
11.864	62.2614
11.882	62.2673
11.9	62.2504
11.918	62.214
11.936	62.1652
11.954	62.1121
11.972	62.0621
11.99	62.0197
12.008	61.987
12.026	61.9652
12.044	61.9557
12.062	61.961
12.08	61.9842
12.098	62.0264
12.116	62.0852
12.134	62.1529
12.152	62.2187
12.17	62.2714
12.188	62.3025
12.206	62.3094
12.224	62.2954
12.242	62.2676
12.26	62.2338
12.278	62.201
12.296	62.1731
12.314	62.1512
12.332	62.134
12.35	62.1189
12.368	62.1033
12.386	62.0854
12.404	62.0647
12.422	62.0429
12.44	62.0228
12.458	62.0078
12.476	62.0004
12.494	62.0019
12.512	62.0122
12.53	62.03
12.548	62.0538
12.566	62.0822
12.584	62.1141
12.602	62.1489
12.62	62.1856
12.638	62.2222
12.656	62.2559
12.674	62.2827
12.692	62.298
12.71	62.2982
12.728	62.2808
12.746	62.2464
12.764	62.1978
12.782	62.1401
12.8	62.0793
12.818	62.0217
12.836	61.9732
12.854	61.9382
12.872	61.9192
12.89	61.9171
12.908	61.9309
12.926	61.9586
12.944	61.9969
12.962	62.0426
12.98	62.0922
12.998	62.1426
13.016	62.1905
13.034	62.2324
13.052	62.2646
13.07	62.2839
13.088	62.2885
13.106	62.2779
13.124	62.2544
13.142	62.2222
13.16	62.1873
13.178	62.1561
13.196	62.134
13.214	62.124
13.232	62.1261
13.25	62.1374
13.268	62.1529
13.286	62.1668
13.304	62.1743
13.322	62.1731
13.34	62.1633
13.358	62.1479
13.376	62.1309
13.394	62.1171
13.412	62.1103
13.43	62.1132
13.448	62.1266
13.466	62.1499
13.484	62.1812
13.502	62.2184
13.52	62.2588
13.538	62.2996
13.556	62.338
13.574	62.3713
13.592	62.3967
13.61	62.4116
13.628	62.4138
13.646	62.4017
13.664	62.3749
13.682	62.3348
13.7	62.2837
13.718	62.2256
13.736	62.1647
13.754	62.1058
13.772	62.0534
13.79	62.0105
13.808	61.9793
13.826	61.9603
13.844	61.9531
13.862	61.956
13.88	61.9668
13.898	61.983
13.916	62.0023
13.934	62.0229
13.952	62.0437
13.97	62.0641
13.988	62.0836
14.006	62.1016
14.024	62.1178
14.042	62.131
14.06	62.14
14.078	62.1437
14.096	62.1413
14.114	62.133
14.132	62.1195
14.15	62.1022
14.168	62.0828
14.186	62.0634
14.204	62.0454
14.222	62.0304
14.24	62.0188
14.258	62.0111
14.276	62.007
14.294	62.0065
14.312	62.0094
14.33	62.0158
14.348	62.0255
14.366	62.0388
14.384	62.0556
14.402	62.0754
14.42	62.0971
14.438	62.1195
14.456	62.1407
14.474	62.1584
14.492	62.1701
14.51	62.1732
14.528	62.166
14.546	62.148
14.564	62.1198
14.582	62.083
14.6	62.0406
14.618	61.9963
14.636	61.9543
14.654	61.9187
14.672	61.8924
14.69	61.8778
14.708	61.876
14.726	61.8871
14.744	61.91
14.762	61.9424
14.78	61.9819
14.798	62.0253
14.816	62.0691
14.834	62.1102
14.852	62.1449
14.87	62.1707
14.888	62.1857
14.906	62.1891
14.924	62.1809
14.942	62.1626
14.96	62.1372
14.978	62.1081
14.996	62.0794
15.014	62.0549
15.032	62.0388
15.05	62.0335
15.068	62.0398
15.086	62.0572
15.104	62.0838
15.122	62.1157
15.14	62.1486
15.158	62.1781
15.176	62.2004
15.194	62.2123
15.212	62.2118
15.23	62.1992
15.248	62.1759
15.266	62.144
15.284	62.1074
15.302	62.0696
15.32	62.0332
15.338	62.0008
15.356	61.9738
15.374	61.9527
15.392	61.9367
15.41	61.9249
15.428	61.916
15.446	61.9084
15.464	61.9012
15.482	61.894
15.5	61.8867
15.518	61.8798
15.536	61.8743
15.554	61.8708
15.572	61.87
15.59	61.8722
15.608	61.8773
15.626	61.8851
15.644	61.895
15.662	61.9062
15.68	61.9181
15.698	61.9305
15.716	61.9428
15.734	61.9553
15.752	61.9682
15.77	61.9819
15.788	61.9964
15.806	62.0114
15.824	62.0263
15.842	62.0403
15.86	62.0519
15.878	62.0597
15.896	62.0622
15.914	62.0579
15.932	62.046
15.95	62.0264
15.968	61.9993
15.986	61.9664
16.004	61.9295
16.022	61.8906
16.04	61.8532
16.058	61.8195
16.076	61.7914
16.094	61.7706
16.112	61.7574
16.13	61.7514
16.148	61.7519
16.166	61.7566
16.184	61.7641
16.202	61.7724
16.22	61.7791
16.238	61.7834
16.256	61.7844
16.274	61.7817
16.292	61.776
16.31	61.7675
16.328	61.7579
16.346	61.7482
16.364	61.7393
16.382	61.7329
16.4	61.7297
16.418	61.7304
16.436	61.736
16.454	61.7468
16.472	61.7629
16.49	61.7847
16.508	61.812
16.526	61.8449
16.544	61.8828
16.562	61.9248
16.58	61.9704
16.598	62.0176
16.616	62.065
16.634	62.1112
16.652	62.1537
16.67	62.1913
16.688	62.2226
16.706	62.2466
16.724	62.2632
16.742	62.2722
16.76	62.2754
16.778	62.2736
16.796	62.2688
16.814	62.2629
16.832	62.257
16.85	62.2529
16.868	62.2509
16.886	62.2512
16.904	62.2532
16.922	62.2563
16.94	62.2593
16.958	62.2608
16.976	62.2602
16.994	62.2563
17.012	62.2491
17.03	62.2386
17.048	62.2257
17.066	62.2113
17.084	62.1966
17.102	62.1834
17.12	62.1724
17.138	62.1651
17.156	62.1615
17.174	62.1617
17.192	62.1646
17.21	62.1694
17.228	62.1741
17.246	62.177
17.264	62.1769
17.282	62.1716
17.3	62.1608
17.318	62.1435
17.336	62.1208
17.354	62.0928
17.372	62.0623
17.39	62.0306
17.408	62.001
17.426	61.9761
17.444	61.9577
17.462	61.9487
17.48	61.9497
17.498	61.9622
17.516	61.9853
17.534	62.0189
17.552	62.0602
17.57	62.1084
17.588	62.159
17.606	62.2099
17.624	62.2576
17.642	62.2986
17.66	62.331
17.678	62.3514
17.696	62.3594
17.714	62.3537
17.732	62.3349
17.75	62.3031
17.768	62.2613
17.786	62.2104
17.804	62.1548
17.822	62.096
17.84	62.039
17.858	61.9861
17.876	61.9409
17.894	61.9064
17.912	61.8845
17.93	61.8773
17.948	61.8851
17.966	61.9083
17.984	61.9459
18.002	61.9965
18.02	62.0572
18.038	62.1264
18.056	62.1994
18.074	62.2748
18.092	62.3466
18.11	62.4137
18.128	62.4703
18.146	62.5159
18.164	62.5464
18.182	62.5617
18.2	62.5603
18.218	62.543
18.236	62.5098
18.254	62.4638
18.272	62.4055
18.29	62.3398
18.308	62.2675
18.326	62.1946
18.344	62.1219
18.362	62.0551
18.38	61.9953
18.398	61.9468
18.416	61.9103
18.434	61.8883
18.452	61.8809
18.47	61.8888
18.488	61.9111
18.506	61.9479
18.524	61.9965
18.542	62.0566
18.56	62.1241
18.578	62.1988
18.596	62.2754
18.614	62.3536
18.632	62.428
18.65	62.4984
18.668	62.5596
18.686	62.6116
18.704	62.65
18.722	62.6748
18.74	62.6836
18.758	62.6767
18.776	62.653
18.794	62.6137
18.812	62.5602
18.83	62.4943
18.848	62.4187
18.866	62.3363
18.884	62.2516
18.902	62.1676
18.92	62.0898
18.938	62.0209
18.956	61.9667
18.974	61.9289
18.992	61.9122
19.01	61.917
19.028	61.9463
19.046	61.9986
19.064	62.0743
19.082	62.1705
19.1	62.2846
19.118	62.4133
19.136	62.5508
19.154	62.6942
19.172	62.8354
19.19	62.9726
19.208	63.0967
19.226	63.2073
19.244	63.2965
19.262	63.3647
19.28	63.4068
19.298	63.4235
19.316	63.4138
19.334	63.3782
19.352	63.3196
19.37	63.238
19.388	63.1395
19.406	63.0237
19.424	62.8982
19.442	62.7628
19.46	62.6245
19.478	62.4841
19.496	62.3466
19.514	62.2134
19.532	62.0874
19.55	61.9708
19.568	61.8645
19.586	61.7702
19.604	61.6879
19.622	61.6189
19.64	61.563
19.658	61.5202
19.676	61.4904
19.694	61.4732
19.712	61.4686
19.73	61.4752
19.748	61.4931
19.766	61.5205
19.784	61.5577
19.802	61.6021
19.82	61.6533
19.838	61.7091
19.856	61.7668
19.874	61.8259
19.892	61.8825
19.91	61.937
19.928	61.9851
19.946	62.0273
19.964	62.0608
19.982	62.0852
20	62.1
20.018	62.1038
20.036	62.0982
20.054	62.0836
20.072	62.0609
20.09	62.0336
20.108	62.0012
20.126	61.9694
20.144	61.9379
20.162	61.9111
20.18	61.8909
20.198	61.8785
20.216	61.8774
20.234	61.8866
20.252	61.9078
20.27	61.9408
20.288	61.9837
20.306	62.0374
20.324	62.0978
20.342	62.1635
20.36	62.2328
20.378	62.3002
20.396	62.3665
20.414	62.425
20.432	62.4761
20.45	62.5164
20.468	62.5437
20.486	62.5583
20.504	62.5581
20.522	62.5437
20.54	62.5164
20.558	62.4753
20.576	62.4243
20.594	62.3639
20.612	62.2961
20.63	62.2257
20.648	62.1517
20.666	62.08
20.684	62.0104
20.702	61.9459
20.72	61.889
20.738	61.8392
20.756	61.7987
20.774	61.7672
20.792	61.7446
20.81	61.7317
20.828	61.7266
20.846	61.7273
20.864	61.7342
20.882	61.7426
20.9	61.7535
20.918	61.7628
20.936	61.7676
20.954	61.768
20.972	61.7589
20.99	61.7416
21.008	61.7122
21.026	61.6693
21.044	61.613
21.062	61.5407
21.08	61.453
21.098	61.3497
21.116	61.23
21.134	61.0954
21.152	60.9474
21.17	60.7852
21.188	60.6135
21.206	60.432
21.224	60.2435
21.242	60.0533
21.26	59.8597
21.278	59.6704
21.296	59.4857
21.314	59.3084
21.332	59.1457
21.35	58.9951
21.368	58.8635
21.386	58.7523
21.404	58.6622
21.422	58.598
21.44	58.5586
21.458	58.5454
21.476	58.5598
21.494	58.6005
21.512	58.6663
21.53	58.7583
21.548	58.8723
21.566	59.0059
21.584	59.1596
21.602	59.3255
21.62	59.5054
21.638	59.6942
21.656	59.8849
21.674	60.0804
21.692	60.2724
21.71	60.4593
21.728	60.6405
21.746	60.8094
21.764	60.9674
21.782	61.1121
21.8	61.2407
21.818	61.3545
21.836	61.4523
21.854	61.5335
21.872	61.5993
21.89	61.6507
21.908	61.6871
21.926	61.7111
21.944	61.7239
21.962	61.7251
21.98	61.7185
21.998	61.7039
22.016	61.6824
22.034	61.6572
22.052	61.6272
22.07	61.5944
22.088	61.5605
22.106	61.5247
22.124	61.4889
22.142	61.4535
22.16	61.4185
22.178	61.3853
22.196	61.3534
22.214	61.3237
22.232	61.2975
22.25	61.2741
22.268	61.2546
22.286	61.2394
22.304	61.2283
22.322	61.2224
22.34	61.2218
22.358	61.2263
22.376	61.2365
22.394	61.2523
22.412	61.2736
22.43	61.3002
22.448	61.3323
22.466	61.3693
22.484	61.4106
22.502	61.4566
22.52	61.506
22.538	61.5585
22.556	61.6143
22.574	61.6717
22.592	61.7308
22.61	61.7914
22.628	61.852
22.646	61.9129
22.664	61.9738
22.682	62.0333
22.7	62.092
22.718	62.1493
22.736	62.2044
22.754	62.2575
22.772	62.3087
22.79	62.358
22.808	62.4053
22.826	62.4509
22.844	62.4951
22.862	62.5376
22.88	62.5783
22.898	62.6171
22.916	62.654
22.934	62.6883
22.952	62.7196
22.97	62.7482
22.988	62.7735
23.006	62.7954
23.024	62.814
23.042	62.8285
23.06	62.839
23.078	62.8454
23.096	62.8468
23.114	62.8431
23.132	62.8344
23.15	62.8204
23.168	62.8008
23.186	62.7759
23.204	62.7464
23.222	62.7116
23.24	62.6724
23.258	62.6302
23.276	62.5843
23.294	62.5356
23.312	62.4866
23.33	62.4367
23.348	62.3866
23.366	62.3392
23.384	62.2941
23.402	62.2517
23.42	62.2146
23.438	62.1829
23.456	62.1565
23.474	62.1371
23.492	62.1253
23.51	62.1204
23.528	62.1234
23.546	62.1347
23.564	62.1539
23.582	62.1802
23.6	62.2136
23.618	62.2543
23.636	62.3
23.654	62.3501
23.672	62.4054
23.69	62.4628
23.708	62.5206
23.726	62.5804
23.744	62.6392
23.762	62.6943
23.78	62.7479
23.798	62.7973
23.816	62.8394
23.834	62.8758
23.852	62.9051
23.87	62.9246
23.888	62.935
23.906	62.9361
23.924	62.9265
23.942	62.9057
23.96	62.8744
23.978	62.8332
23.996	62.7819
24.014	62.7205
24.032	62.6511
24.05	62.5745
24.068	62.4894
24.086	62.3994
24.104	62.3078
24.122	62.2116
24.14	62.1149
24.158	62.0234
24.176	61.9339
24.194	61.8491
24.212	61.7765
24.23	61.7165
24.248	61.6673
24.266	61.6359
24.284	61.6259
24.302	61.6333
24.32	61.6633
24.338	61.7206
24.356	61.8022
24.374	61.9103
24.392	62.049
24.41	62.2183
24.428	62.4171
24.446	62.6463
24.464	62.9071
24.482	63.199
24.5	63.5193
24.518	63.8662
24.536	64.2429
24.554	64.6441
24.572	65.063
24.59	65.5034
24.608	65.9628
24.626	66.431
24.644	66.9046
24.662	67.3894
24.68	67.8739
24.698	68.3482
24.716	68.8201
24.734	69.2829
24.752	69.7244
24.77	70.1446
24.788	70.5467
24.806	70.9208
24.824	71.2603
24.842	71.5704
24.86	71.8481
24.878	72.0889
24.896	72.2927
24.914	72.4612
24.932	72.5943
24.95	72.691
24.968	72.7508
24.986	72.778
25.004	72.777
25.022	72.7443
25.04	72.6828
25.058	72.5991
25.076	72.4957
25.094	72.3684
25.112	72.2243
25.13	72.0704
25.148	71.9028
25.166	71.7234
25.184	71.5383
25.202	71.3502
25.22	71.1554
25.238	70.958
25.256	70.7624
25.274	70.5677
25.292	70.3733
25.31	70.1805
25.328	69.9907
25.346	69.8034
25.364	69.6175
25.382	69.432
25.4	69.2472
25.418	69.0631
25.436	68.8792
25.454	68.6946
25.472	68.5093
25.49	68.3241
25.508	68.1402
25.526	67.9575
25.544	67.7756
25.562	67.5956
25.58	67.4188
25.598	67.2444
25.616	67.0727
25.634	66.9047
25.652	66.741
25.67	66.5806
25.688	66.4246
25.706	66.2743
25.724	66.13
25.742	65.9909
25.76	65.8577
25.778	65.731
25.796	65.6126
25.814	65.5002
25.832	65.3898
25.85	65.2795
25.868	65.1734
25.886	65.0666
25.904	64.9531
25.922	64.832
25.94	64.7068
25.958	64.5722
25.976	64.4229
25.994	64.2603
26.012	64.0855
26.03	63.8955
26.048	63.6878
26.066	63.4628
26.084	63.2219
26.102	62.9658
26.12	62.6944
26.138	62.4054
26.156	62.1032
26.174	61.7925
26.192	61.4735
26.21	61.1424
26.228	60.807
26.246	60.4754
26.264	60.1459
26.282	59.8157
26.3	59.4933
26.318	59.1872
26.336	58.8925
26.354	58.6092
26.372	58.346
26.39	58.1106
26.408	57.8993
26.426	57.7115
26.444	57.5503
26.462	57.419
26.48	57.3182
26.498	57.2444
26.516	57.1938
26.534	57.1646
26.552	57.1632
26.57	57.1821
26.588	57.2115
26.606	57.2465
26.624	57.2986
26.642	57.3561
26.66	57.4043
26.678	57.4362
26.696	57.4644
26.714	57.4789
26.732	57.467
26.75	57.4231
26.768	57.3582
26.786	57.2635
26.804	57.1287
26.822	56.9467
26.84	56.7231
26.858	56.4609
26.876	56.1628
26.894	55.8265
26.912	55.4454
26.93	55.0342
26.948	54.6089
26.966	54.157
26.984	53.6354
27.002	53.129
27.02	52.7314
27.028	52.6259