File: Bakgrunnsmateriale/MATLAB/FTIR/ftir_data/subAa/Mapping_121/BZ1503107-1_t57_cm-1.asc
PE IR       SPECTRUM    SPECTRUM    ASCII       PEDS        1.60
  -1
BZ6FA3~1.ASC
17/04/07
17:55:06.00
17/04/07
17:55:06.00
tln
$BZ1503107-1_t0057$<tbV0>[10.4,0.0,8.0,0.0,27,1,0]
370
64

2002,4.07
MIRTGS : RIGHTBACK : INTERNAL 2
MIR : ON : INTERNAL 2
OPTKBR

0.200000
8
8.000000
FILLER
RATIO
SPECTRUM
UNLOCKED 256

DOUBLE
64
COMBINED
1
0
0

1.000000
RATIO

1
0
TRUE
51149
0
LEFT NOT FITTED RIGHT NOT FITTED 0
NONE
NONE
15600
12
4.427000
51148
TRUE
1 0 8 72 0 0 0 0

15798

#HDR
-1
-1
#GR
CM-1
%T
2.38419e-05
0.0
5000
-1.000000
4631
8
73.6914
37.7458
#DATA
5000	64.6047
4996	65.0015
4992	65.2301
4988	65.3893
4984	66.0217
4980	65.7031
4976	63.8045
4972	62.5725
4968	63.5753
4964	64.8835
4960	64.6833
4956	64.3168
4952	64.0452
4948	63.8287
4944	64.406
4940	65.0723
4936	65.6381
4932	65.8779
4928	65.3476
4924	64.8546
4920	64.7748
4916	64.9436
4912	65.1101
4908	65.1492
4904	65.1963
4900	65.2193
4896	65.2608
4892	65.2295
4888	65.1232
4884	65.117
4880	65.0958
4876	65.0327
4872	65.2098
4868	65.35
4864	65.0982
4860	64.9103
4856	64.9838
4852	65.0424
4848	65.0244
4844	64.936
4840	64.9695
4836	65.0564
4832	65.0393
4828	65.1465
4824	65.075
4820	64.8434
4816	64.7682
4812	64.6653
4808	64.6781
4804	64.8985
4800	65.0149
4796	64.9141
4792	64.7169
4788	64.717
4784	64.9946
4780	65.307
4776	65.4908
4772	65.4964
4768	65.4445
4764	65.2162
4760	64.8248
4756	64.5389
4752	64.3838
4748	64.5049
4744	64.8324
4740	64.991
4736	64.9114
4732	64.7875
4728	64.7957
4724	64.7784
4720	64.7359
4716	64.862
4712	65.0436
4708	65.1385
4704	65.0443
4700	64.9206
4696	64.9544
4692	64.9988
4688	64.8813
4684	64.8106
4680	64.9829
4676	65.0841
4672	65.0189
4668	64.9324
4664	64.9066
4660	65.0671
4656	65.0785
4652	64.8772
4648	64.9446
4644	65.1423
4640	65.2008
4636	65.2455
4632	65.3678
4628	65.4561
4624	65.3627
4620	65.2277
4616	65.1463
4612	65.0058
4608	64.9516
4604	65.1055
4600	65.1376
4596	65.0488
4592	65.1735
4588	65.3912
4584	65.3929
4580	65.1754
4576	65.0357
4572	64.9187
4568	64.7642
4564	64.8342
4560	65.0873
4556	65.363
4552	65.6083
4548	65.6731
4544	65.5535
4540	65.4538
4536	65.371
4532	65.3006
4528	65.226
4524	64.9979
4520	64.8466
4516	65.0243
4512	65.2756
4508	65.3272
4504	65.3465
4500	65.3697
4496	65.1746
4492	65.0052
4488	65.2342
4484	65.4195
4480	65.22
4476	65.0008
4472	64.9543
4468	65.2277
4464	65.4278
4460	65.5645
4456	65.4485
4452	63.8181
4448	59.3906
4444	54.0078
4440	57.0001
4436	67.8467
4432	70.6786
4428	64.1265
4424	60.0324
4420	60.4042
4416	62.1118
4412	63.7107
4408	64.7476
4404	64.8999
4400	64.9946
4396	65.0454
4392	64.8344
4388	65.0019
4384	65.3717
4380	65.41
4376	65.4666
4372	65.5769
4368	65.5968
4364	65.7034
4360	65.7083
4356	65.4826
4352	65.1901
4348	65.0171
4344	65.025
4340	65.0854
4336	65.1229
4332	65.0145
4328	64.9137
4324	64.9126
4320	64.9136
4316	65.0074
4312	65.16
4308	65.2783
4304	65.3436
4300	65.37
4296	65.3117
4292	65.1304
4288	64.9745
4284	64.9937
4280	65.1041
4276	65.1111
4272	64.9644
4268	64.8447
4264	65.0058
4260	65.2331
4256	65.0993
4252	64.8806
4248	64.8338
4244	64.8229
4240	64.9697
4236	65.1808
4232	65.0997
4228	64.8248
4224	64.7944
4220	64.9103
4216	64.931
4212	65.0089
4208	65.1602
4204	65.2685
4200	65.1357
4196	64.9165
4192	64.9557
4188	65.0849
4184	65.135
4180	65.0363
4176	64.8052
4172	64.6771
4168	64.7473
4164	64.9386
4160	65.1095
4156	65.195
4152	65.0905
4148	64.825
4144	64.7636
4140	64.875
4136	64.9403
4132	65.005
4128	65.101
4124	65.2161
4120	65.2044
4116	65.0889
4112	65.0843
4108	65.096
4104	65.0164
4100	65.0112
4096	65.0856
4092	65.1029
4088	65.0288
4084	64.9409
4080	64.9546
4076	64.9634
4072	64.9361
4068	64.9767
4064	64.9858
4060	64.9891
4056	65.0124
4052	64.9753
4048	64.9567
4044	64.9733
4040	65.0132
4036	65.056
4032	65.0984
4028	65.1415
4024	65.1235
4020	65.086
4016	64.9966
4012	64.9519
4008	65.0581
4004	65.097
4000	65.0273
3996	65.0478
3992	65.2324
3988	65.3663
3984	65.311
3980	65.2267
3976	65.2168
3972	65.1732
3968	65.0666
3964	65.0622
3960	65.1177
3956	65.0977
3952	65.0923
3948	65.1155
3944	65.0744
3940	65.0575
3936	65.0881
3932	65.0318
3928	64.9579
3924	65.1167
3920	65.3652
3916	65.3718
3912	65.2776
3908	65.1853
3904	65.1172
3900	65.0806
3896	64.9606
3892	64.9432
3888	65.0934
3884	65.2062
3880	65.2154
3876	65.1888
3872	65.2038
3868	65.2113
3864	65.1719
3860	65.1155
3856	65.008
3852	64.9401
3848	64.9624
3844	65.0183
3840	65.1934
3836	65.3073
3832	65.1856
3828	65.0483
3824	64.9922
3820	64.9886
3816	65.0364
3812	65.0641
3808	65.0558
3804	65.0444
3800	64.9842
3796	64.8388
3792	64.7885
3788	65.0092
3784	65.2621
3780	65.2741
3776	65.1743
3772	65.0907
3768	65.0273
3764	65.0515
3760	65.1443
3756	65.18
3752	65.0966
3748	65.046
3744	65.1218
3740	65.1585
3736	65.1133
3732	65.0967
3728	65.1054
3724	65.1433
3720	65.2199
3716	65.3246
3712	65.402
3708	65.3899
3704	65.3359
3700	65.2481
3696	65.1811
3692	65.1844
3688	65.2051
3684	65.2296
3680	65.2429
3676	65.2032
3672	65.1318
3668	65.1001
3664	65.1408
3660	65.1857
3656	65.137
3652	65.0608
3648	65.0888
3644	65.2024
3640	65.2958
3636	65.3231
3632	65.3382
3628	65.3164
3624	65.2052
3620	65.1217
3616	65.126
3612	65.2004
3608	65.3246
3604	65.3675
3600	65.2746
3596	65.1582
3592	65.1454
3588	65.1999
3584	65.1419
3580	65.0663
3576	65.1669
3572	65.3196
3568	65.3234
3564	65.2032
3560	65.1502
3556	65.2088
3552	65.2552
3548	65.2539
3544	65.2667
3540	65.3118
3536	65.2801
3532	65.121
3528	65.0597
3524	65.1663
3520	65.2562
3516	65.267
3512	65.2569
3508	65.2404
3504	65.1391
3500	65.0187
3496	65.0193
3492	65.049
3488	65.0381
3484	65.0313
3480	64.9723
3476	64.8959
3472	64.9368
3468	65.0204
3464	65.0366
3460	65.0748
3456	65.1663
3452	65.2047
3448	65.1339
3444	65.0293
3440	64.9804
3436	64.9567
3432	64.9221
3428	64.9238
3424	64.9837
3420	65.0148
3416	64.9598
3412	64.9271
3408	64.9846
3404	64.9897
3400	64.9872
3396	65.055
3392	65.0256
3388	64.9682
3384	64.9765
3380	65.0017
3376	65.1114
3372	65.2126
3368	65.1379
3364	65.0582
3360	65.0843
3356	64.9709
3352	64.8427
3348	64.9039
3344	64.907
3340	64.8549
3336	64.866
3332	64.9222
3328	64.9927
3324	64.9699
3320	64.8921
3316	64.91
3312	65.0824
3308	65.2409
3304	65.2395
3300	65.152
3296	65.0733
3292	65.0084
3288	64.9646
3284	65.0225
3280	65.1094
3276	65.1148
3272	65.0739
3268	65.0016
3264	64.9485
3260	64.9906
3256	65.0781
3252	65.1206
3248	65.1011
3244	65.0582
3240	65.0264
3236	64.9873
3232	64.9605
3228	65.0586
3224	65.1996
3220	65.2143
3216	65.1512
3212	65.0935
3208	65.1065
3204	65.144
3200	65.1104
3196	65.1486
3192	65.2534
3188	65.2199
3184	65.1227
3180	65.1021
3176	65.1206
3172	65.0999
3168	65.0461
3164	64.9915
3160	64.9446
3156	64.9772
3152	65.0728
3148	65.1336
3144	65.1626
3140	65.1691
3136	65.1316
3132	65.0828
3128	65.0756
3124	65.0795
3120	65.0151
3116	64.9436
3112	64.9616
3108	65.0442
3104	65.1168
3100	65.151
3096	65.1344
3092	65.0271
3088	64.9229
3084	64.9304
3080	65.0308
3076	65.1289
3072	65.1373
3068	65.1149
3064	65.1277
3060	65.1434
3056	65.0886
3052	64.9809
3048	64.9474
3044	64.9476
3040	64.9478
3036	65.0034
3032	65.0339
3028	65.0033
3024	64.9505
3020	64.9113
3016	64.9419
3012	65.0508
3008	65.2046
3004	65.2983
3000	65.2051
2996	65.0508
2992	65.0079
2988	65.0576
2984	65.1097
2980	65.0728
2976	64.9722
2972	64.8686
2968	64.7601
2964	64.7318
2960	64.8496
2956	64.9659
2952	64.9835
2948	64.9302
2944	64.8377
2940	64.816
2936	64.8756
2932	64.9082
2928	64.9176
2924	64.9275
2920	64.9202
2916	64.9396
2912	65.0062
2908	65.0065
2904	64.9311
2900	64.8636
2896	64.8239
2892	64.8669
2888	64.9511
2884	64.9482
2880	64.8898
2876	64.8683
2872	64.8836
2868	64.9167
2864	64.9616
2860	65.0055
2856	65.0248
2852	65.026
2848	64.9843
2844	64.9083
2840	64.8638
2836	64.8499
2832	64.8637
2828	64.8803
2824	64.8881
2820	64.8694
2816	64.7983
2812	64.7806
2808	64.8645
2804	64.9375
2800	64.9696
2796	64.9873
2792	64.9738
2788	64.9655
2784	64.9858
2780	64.9816
2776	64.9435
2772	64.9327
2768	64.9494
2764	64.9506
2760	64.9545
2756	64.9741
2752	64.9395
2748	64.8552
2744	64.8223
2740	64.8583
2736	64.9169
2732	64.9326
2728	64.9069
2724	64.9024
2720	64.9629
2716	65.0593
2712	65.1055
2708	65.0984
2704	65.0418
2700	64.971
2696	64.9454
2692	64.9268
2688	64.888
2684	64.8767
2680	64.899
2676	64.9344
2672	64.9713
2668	64.9734
2664	64.9663
2660	64.9635
2656	64.8984
2652	64.8064
2648	64.8085
2644	64.86
2640	64.8889
2636	64.9245
2632	64.9501
2628	64.9378
2624	64.8994
2620	64.8974
2616	64.9593
2612	65.0115
2608	64.9851
2604	64.9215
2600	64.9136
2596	64.9482
2592	64.9673
2588	64.9553
2584	64.9095
2580	64.867
2576	64.8556
2572	64.84
2568	64.804
2564	64.7876
2560	64.8001
2556	64.8139
2552	64.835
2548	64.8848
2544	64.904
2540	64.8684
2536	64.8673
2532	64.8773
2528	64.8542
2524	64.8417
2520	64.8915
2516	65.0048
2512	65.0522
2508	64.9866
2504	64.8961
2500	64.8768
2496	64.9569
2492	65.042
2488	65.0345
2484	64.9599
2480	64.9312
2476	64.9431
2472	64.8907
2468	64.8385
2464	64.8684
2460	64.8839
2456	64.8474
2452	64.8012
2448	64.7861
2444	64.8414
2440	64.9243
2436	64.9846
2432	64.9972
2428	64.9557
2424	64.9204
2420	64.9206
2416	64.8693
2412	64.7477
2408	64.7099
2404	64.7887
2400	64.8497
2396	64.905
2392	64.9675
2388	64.9082
2384	64.7839
2380	64.7327
2376	64.7412
2372	64.7558
2368	64.7262
2364	64.6988
2360	64.7274
2356	64.7561
2352	64.7721
2348	64.802
2344	64.8375
2340	64.8298
2336	64.7605
2332	64.7212
2328	64.7658
2324	64.8098
2320	64.7765
2316	64.7174
2312	64.7011
2308	64.709
2304	64.7377
2300	64.7786
2296	64.7609
2292	64.7258
2288	64.7296
2284	64.7211
2280	64.7136
2276	64.7443
2272	64.7782
2268	64.816
2264	64.8498
2260	64.8189
2256	64.7595
2252	64.7223
2248	64.6723
2244	64.6434
2240	64.6679
2236	64.7102
2232	64.7737
2228	64.8102
2224	64.7987
2220	64.7863
2216	64.7756
2212	64.783
2208	64.8252
2204	64.8396
2200	64.811
2196	64.8097
2192	64.8008
2188	64.7316
2184	64.6901
2180	64.7325
2176	64.7647
2172	64.6893
2168	64.5863
2164	64.5606
2160	64.6191
2156	64.6636
2152	64.6268
2148	64.6009
2144	64.6448
2140	64.689
2136	64.678
2132	64.6339
2128	64.6576
2124	64.6854
2120	64.6452
2116	64.6594
2112	64.6698
2108	64.628
2104	64.6754
2100	64.7716
2096	64.7999
2092	64.7445
2088	64.6494
2084	64.5806
2080	64.5065
2076	64.4279
2072	64.4525
2068	64.5559
2064	64.636
2060	64.6459
2056	64.6184
2052	64.6196
2048	64.6467
2044	64.6712
2040	64.6886
2036	64.707
2032	64.7057
2028	64.6742
2024	64.6669
2020	64.6996
2016	64.7215
2012	64.72
2008	64.6874
2004	64.6532
2000	64.6499
1996	64.6412
1992	64.6553
1988	64.6972
1984	64.6869
1980	64.6275
1976	64.602
1972	64.6225
1968	64.6298
1964	64.6062
1960	64.5619
1956	64.5268
1952	64.5331
1948	64.5613
1944	64.6115
1940	64.6673
1936	64.6672
1932	64.6047
1928	64.5382
1924	64.5292
1920	64.576
1916	64.6073
1912	64.5993
1908	64.6062
1904	64.6275
1900	64.6136
1896	64.5765
1892	64.5364
1888	64.5182
1884	64.5364
1880	64.5371
1876	64.5323
1872	64.5677
1868	64.5991
1864	64.5919
1860	64.5839
1856	64.5979
1852	64.6011
1848	64.574
1844	64.5448
1840	64.5187
1836	64.4706
1832	64.4361
1828	64.4768
1824	64.5337
1820	64.5105
1816	64.4503
1812	64.4301
1808	64.454
1804	64.4902
1800	64.5041
1796	64.5044
1792	64.5061
1788	64.4927
1784	64.4526
1780	64.4094
1776	64.3745
1772	64.362
1768	64.41
1764	64.4593
1760	64.4246
1756	64.3855
1752	64.403
1748	64.3301
1744	64.1886
1740	64.1378
1736	64.1499
1732	64.1817
1728	64.2231
1724	64.2627
1720	64.3157
1716	64.3687
1712	64.3612
1708	64.3226
1704	64.3099
1700	64.3101
1696	64.3041
1692	64.2548
1688	64.2479
1684	64.3281
1680	64.3523
1676	64.3333
1672	64.3508
1668	64.3454
1664	64.3067
1660	64.2543
1656	64.2037
1652	64.2072
1648	64.2937
1644	64.3505
1640	64.2813
1636	64.2197
1632	64.2261
1628	64.2141
1624	64.1496
1620	64.0999
1616	64.1586
1612	64.2385
1608	64.2517
1604	64.2621
1600	64.2421
1596	64.2079
1592	64.2188
1588	64.2345
1584	64.2392
1580	64.1765
1576	64.104
1572	64.1366
1568	64.1902
1564	64.1987
1560	64.1865
1556	64.19
1552	64.1921
1548	64.163
1544	64.135
1540	64.1407
1536	64.1758
1532	64.1851
1528	64.1676
1524	64.1694
1520	64.2133
1516	64.2551
1512	64.2687
1508	64.2812
1504	64.2632
1500	64.1719
1496	64.1043
1492	64.123
1488	64.1475
1484	64.2149
1480	64.2958
1476	64.2673
1472	64.2036
1468	64.2068
1464	64.2402
1460	64.2418
1456	64.1833
1452	64.149
1448	64.1453
1444	64.1308
1440	64.1291
1436	64.1258
1432	64.107
1428	64.089
1424	64.1455
1420	64.2347
1416	64.2068
1412	64.1064
1408	64.0693
1404	64.0778
1400	64.0714
1396	64.0799
1392	64.1074
1388	64.0913
1384	64.0707
1380	64.0949
1376	64.1128
1372	64.1084
1368	64.08
1364	64.0676
1360	64.1259
1356	64.1448
1352	64.0431
1348	63.9962
1344	64.0316
1340	64.0273
1336	64.0358
1332	64.0586
1328	64.0789
1324	64.117
1320	64.1119
1316	64.0822
1312	64.0789
1308	64.0546
1304	64.0338
1300	64.085
1296	64.1057
1292	64.0516
1288	64.0265
1284	64.0317
1280	64.0213
1276	64.0267
1272	64.0591
1268	64.0692
1264	64.0206
1260	63.9399
1256	63.8741
1252	63.8591
1248	63.8798
1244	63.8879
1240	63.8763
1236	63.8302
1232	63.8293
1228	63.905
1224	63.917
1220	63.8384
1216	63.7889
1212	63.8455
1208	63.9416
1204	63.9936
1200	63.9837
1196	63.9075
1192	63.858
1188	63.8741
1184	63.8942
1180	63.9146
1176	63.9446
1172	63.9748
1168	63.9221
1164	63.8023
1160	63.7528
1156	63.7673
1152	63.7556
1148	63.7295
1144	63.7706
1140	63.8549
1136	63.9096
1132	63.8883
1128	63.7763
1124	63.6905
1120	63.6973
1116	63.7125
1112	63.7491
1108	63.8438
1104	63.9234
1100	63.938
1096	63.8944
1092	63.7794
1088	63.6818
1084	63.6852
1080	63.7657
1076	63.8815
1072	63.8805
1068	63.7845
1064	63.7548
1060	63.7787
1056	63.7981
1052	63.8526
1048	63.9722
1044	63.9961
1040	63.8697
1036	63.7297
1032	63.6619
1028	63.7275
1024	63.8628
1020	63.8815
1016	63.8251
1012	63.8505
1008	63.9048
1004	63.8879
1000	63.847
996	 63.8588
992	 63.9505
988	 64.0266
984	 63.9932
980	 63.9354
976	 63.8438
972	 63.738
968	 63.7156
964	 63.6945
960	 63.5964
956	 63.5513
952	 63.6263
948	 63.6408
944	 63.5701
940	 63.5438
936	 63.5788
932	 63.6803
928	 63.7756
924	 63.7747
920	 63.7774
916	 63.7792
912	 63.7381
908	 63.7573
904	 63.7864
900	 63.7274
896	 63.6974
892	 63.8441
888	 64.0283
884	 64.0179
880	 63.8652
876	 63.7263
872	 63.6161
868	 63.5904
864	 63.6577
860	 63.6883
856	 63.6619
852	 63.6266
848	 63.6161
844	 63.6751
840	 63.7072
836	 63.6965
832	 63.7273
828	 63.8185
824	 63.9411
820	 63.9395
816	 63.8338
812	 63.7377
808	 63.6463
804	 63.6099
800	 63.5901
796	 63.5955
792	 63.7167
788	 63.7802
784	 63.7518
780	 63.676
776	 63.59
772	 63.6633
768	 63.7694
764	 63.763
760	 63.7138
756	 63.619
752	 63.4471
748	 63.327
744	 63.3647
740	 63.4475
736	 63.4809
732	 63.5026
728	 63.5539
724	 63.6131
720	 63.5164
716	 63.333
712	 63.3562
708	 63.4495
704	 63.3878
700	 63.3341
696	 63.3606
692	 63.4794
688	 63.6273
684	 63.5514
680	 63.4912
676	 63.6364
672	 63.7246
668	 63.6134
664	 63.2594
660	 63.1591
656	 63.5631
652	 63.8057
648	 63.6539
644	 63.3257
640	 63.2319
636	 63.3315
632	 63.0044
628	 62.7064
624	 63.1611
620	 63.7094
616	 63.3491
612	 62.4953
608	 62.1497
604	 62.3838
600	 62.6875
596	 62.7882
592	 62.9083
588	 63.2346
584	 63.6163
580	 63.9269
576	 63.9672
572	 63.6681
568	 63.2921
564	 62.8508
560	 62.7002
556	 63.0736
552	 63.2017
548	 62.9235
544	 62.7131
540	 62.7929
536	 63.0094
532	 63.196
528	 63.6683
524	 63.8323
520	 63.5732
516	 63.5478
512	 63.5339
508	 63.7307
504	 64.0512
500	 65.114
496	 66.3599
492	 65.2329
488	 63.4495
484	 63.2298
480	 63.1742
476	 63.1407
472	 63.705
468	 64.0343
464	 63.4333
460	 62.6286
456	 62.7375
452	 63.0774
448	 62.7193
444	 62.2709
440	 62.1708
436	 62.331
432	 63.1267
428	 64.1955
424	 64.72
420	 64.9383
416	 64.3486
412	 63.6859
408	 63.1718
404	 62.9755
400	 66.2657
396	 70.7006
392	 73.4595
388	 71.8189
384	 63.3093
380	 56.6595
376	 56.9575
372	 47.7096
370	 37.7458