File: Bakgrunnsmateriale/MATLAB/FTIR/ftir_data/subAa/Mapping_121/BZ1503107-1_t37_cm-1.asc
PE IR       SPECTRUM    SPECTRUM    ASCII       PEDS        1.60
  -1
BZ6FA0~1.ASC
17/04/07
16:15:08.00
17/04/07
16:15:08.00
tln
$BZ1503107-1_t0037$<tbV0>[5.2,-5.2,8.0,0.0,27,1,0]
370
64

2002,4.07
MIRTGS : RIGHTBACK : INTERNAL 2
MIR : ON : INTERNAL 2
OPTKBR

0.200000
8
8.000000
FILLER
RATIO
SPECTRUM
UNLOCKED 256

DOUBLE
64
COMBINED
1
0
0

1.000000
RATIO

1
0
TRUE
51149
0
LEFT NOT FITTED RIGHT NOT FITTED 0
NONE
NONE
15600
12
4.427000
51148
TRUE
1 0 8 72 0 0 0 0

15798

#HDR
-1
-1
#GR
CM-1
%T
2.38419e-05
0.0
5000
-1.000000
4631
8
77.9148
38.5134
#DATA
5000	65.5849
4996	64.4901
4992	64.0901
4988	64.4993
4984	64.9099
4980	65.0981
4976	65.1904
4972	65.1435
4968	64.9116
4964	64.6036
4960	64.59
4956	64.8811
4952	64.9356
4948	64.6406
4944	64.6718
4940	64.9953
4936	64.9152
4932	64.6869
4928	64.7086
4924	64.8472
4920	65.2215
4916	65.3647
4912	65.1213
4908	65.1458
4904	65.2715
4900	65.1964
4896	64.8052
4892	64.3106
4888	64.0955
4884	64.2786
4880	64.7264
4876	64.9008
4872	64.5876
4868	64.3201
4864	64.4701
4860	64.7195
4856	64.948
4852	65.1724
4848	65.1995
4844	64.9793
4840	64.7612
4836	64.781
4832	64.8844
4828	64.9136
4824	64.9883
4820	65.1232
4816	65.1425
4812	65.0557
4808	64.9908
4804	65.0985
4800	65.2077
4796	64.919
4792	64.581
4788	64.6263
4784	64.7584
4780	64.6592
4776	64.5851
4772	64.6263
4768	64.6433
4764	64.8492
4760	65.1423
4756	65.3166
4752	65.278
4748	65.1061
4744	64.9893
4740	64.9129
4736	64.8883
4732	64.8707
4728	64.8445
4724	64.7745
4720	64.8485
4716	65.099
4712	65.2671
4708	65.4622
4704	65.4817
4700	65.1885
4696	64.9855
4692	64.9186
4688	65.0004
4684	65.2775
4680	65.3038
4676	65.0418
4672	65.0123
4668	65.1841
4664	65.1827
4660	65.0622
4656	65.0292
4652	65.0797
4648	65.1896
4644	65.2143
4640	65.0984
4636	64.9878
4632	64.843
4628	64.7472
4624	64.8222
4620	64.97
4616	65.0389
4612	65.0431
4608	65.0902
4604	65.0712
4600	65.0938
4596	65.2904
4592	65.3443
4588	65.0348
4584	64.7669
4580	64.884
4576	64.9938
4572	64.9492
4568	64.9432
4564	64.9005
4560	64.8709
4556	64.8019
4552	64.6518
4548	64.747
4544	65.0875
4540	65.3059
4536	65.4127
4532	65.3555
4528	65.0268
4524	64.7868
4520	64.8721
4516	65.1592
4512	65.3828
4508	65.2528
4504	64.7906
4500	64.5562
4496	64.7201
4492	64.9015
4488	65.0369
4484	65.1337
4480	65.1055
4476	65.1201
4472	65.1754
4468	65.1664
4464	65.191
4460	65.3888
4456	65.4939
4452	65.5759
4448	65.7468
4444	65.2943
4440	65.0747
4436	66.105
4432	70.7514
4428	77.5075
4424	72.9196
4420	58.0646
4416	51.1497
4412	54.0547
4408	59.7966
4404	63.9609
4400	65.3677
4396	65.0562
4392	65.0323
4388	65.5043
4384	65.8098
4380	65.8804
4376	65.7396
4372	65.5996
4368	65.553
4364	65.3115
4360	64.8783
4356	64.5889
4352	64.5978
4348	64.8688
4344	65.0922
4340	65.1007
4336	65.0436
4332	65.0469
4328	65.0402
4324	64.7896
4320	64.5375
4316	64.6579
4312	64.9706
4308	65.1544
4304	65.2455
4300	65.2898
4296	65.2678
4292	65.2426
4288	65.2636
4284	65.2944
4280	65.1513
4276	65.0843
4272	65.2051
4268	65.1994
4264	65.1766
4260	65.1305
4256	64.9551
4252	64.9039
4248	64.948
4244	64.97
4240	65.0206
4236	65.135
4232	65.3082
4228	65.3988
4224	65.3635
4220	65.3215
4216	65.2986
4212	65.2109
4208	65.1158
4204	65.0702
4200	65.0005
4196	64.8995
4192	64.8565
4188	64.9562
4184	65.1642
4180	65.273
4176	65.1778
4172	65.02
4168	64.9478
4164	65.0424
4160	65.1643
4156	65.1377
4152	65.1284
4148	65.2341
4144	65.2564
4140	65.1451
4136	65.0096
4132	64.9365
4128	64.9858
4124	65.022
4120	65.1031
4116	65.2564
4112	65.2235
4108	65.1035
4104	64.9896
4100	64.9637
4096	65.1617
4092	65.3142
4088	65.2469
4084	65.0878
4080	65.0103
4076	65.0568
4072	65.0482
4068	64.9352
4064	64.8823
4060	64.9853
4056	65.1577
4052	65.2132
4048	65.1178
4044	65.0236
4040	65.0457
4036	65.1288
4032	65.1741
4028	65.2477
4024	65.4115
4020	65.459
4016	65.2563
4012	65.073
4008	65.1116
4004	65.2187
4000	65.1964
3996	65.1479
3992	65.2294
3988	65.2916
3984	65.2364
3980	65.2787
3976	65.4761
3972	65.5302
3968	65.3968
3964	65.2676
3960	65.1656
3956	65.1928
3952	65.34
3948	65.3613
3944	65.2221
3940	65.0258
3936	64.9396
3932	65.044
3928	65.1551
3924	65.1802
3920	65.1817
3916	65.2067
3912	65.2769
3908	65.2822
3904	65.1889
3900	65.1575
3896	65.2148
3892	65.2647
3888	65.224
3884	65.1243
3880	65.1079
3876	65.2033
3872	65.2815
3868	65.3041
3864	65.2575
3860	65.0964
3856	65.0352
3852	65.1343
3848	65.1375
3844	65.115
3840	65.2317
3836	65.383
3832	65.4938
3828	65.5138
3824	65.4178
3820	65.3271
3816	65.2808
3812	65.1427
3808	65.0414
3804	65.1644
3800	65.42
3796	65.6087
3792	65.5149
3788	65.2877
3784	65.2189
3780	65.285
3776	65.3111
3772	65.2633
3768	65.2627
3764	65.3274
3760	65.3605
3756	65.322
3752	65.2377
3748	65.1355
3744	65.177
3740	65.3092
3736	65.2463
3732	65.1925
3728	65.3183
3724	65.4142
3720	65.4219
3716	65.3687
3712	65.3276
3708	65.3193
3704	65.2964
3700	65.3216
3696	65.3423
3692	65.2701
3688	65.2108
3684	65.2107
3680	65.1933
3676	65.1705
3672	65.2291
3668	65.3837
3664	65.5121
3660	65.4894
3656	65.3625
3652	65.2665
3648	65.1973
3644	65.1408
3640	65.0967
3636	65.0831
3632	65.1766
3628	65.2148
3624	65.2362
3620	65.3618
3616	65.4239
3612	65.4108
3608	65.3526
3604	65.2679
3600	65.2171
3596	65.2482
3592	65.3441
3588	65.3264
3584	65.1806
3580	65.0574
3576	64.9916
3572	64.984
3568	65.0032
3564	65.0536
3560	65.1612
3556	65.2076
3552	65.1784
3548	65.1418
3544	65.1093
3540	65.0907
3536	65.073
3532	65.094
3528	65.1111
3524	65.1016
3520	65.1586
3516	65.2599
3512	65.2734
3508	65.2205
3504	65.2115
3500	65.2062
3496	65.1547
3492	65.0744
3488	64.9272
3484	64.7881
3480	64.8724
3476	65.1076
3472	65.1891
3468	65.1198
3464	65.0642
3460	65.0788
3456	65.1339
3452	65.1411
3448	65.1037
3444	65.0947
3440	65.1307
3436	65.1932
3432	65.2541
3428	65.2873
3424	65.3498
3420	65.3934
3416	65.2988
3412	65.2029
3408	65.2267
3404	65.2558
3400	65.2613
3396	65.3271
3392	65.3491
3388	65.2487
3384	65.1956
3380	65.1909
3376	65.125
3372	65.0765
3368	65.0779
3364	65.058
3360	65.0525
3356	65.0646
3352	65.0377
3348	65.1033
3344	65.2591
3340	65.3019
3336	65.2212
3332	65.1574
3328	65.1368
3324	65.1167
3320	65.0857
3316	65.0658
3312	65.1273
3308	65.2025
3304	65.137
3300	65.0067
3296	64.9479
3292	64.9189
3288	64.8949
3284	64.9706
3280	65.0943
3276	65.1729
3272	65.2225
3268	65.2115
3264	65.1599
3260	65.1186
3256	65.1114
3252	65.1753
3248	65.2195
3244	65.1803
3240	65.1356
3236	65.1122
3232	65.0592
3228	64.9662
3224	64.9295
3220	64.9995
3216	65.0896
3212	65.0789
3208	65.0202
3204	64.9932
3200	64.934
3196	64.8743
3192	64.9143
3188	65.0058
3184	65.0334
3180	65.0354
3176	65.0568
3172	65.0519
3168	65.0755
3164	65.1513
3160	65.2039
3156	65.1879
3152	65.1346
3148	65.075
3144	64.9964
3140	64.9613
3136	64.9429
3132	64.8812
3128	64.8809
3124	64.9394
3120	64.9594
3116	64.9633
3112	65.0122
3108	65.1025
3104	65.1658
3100	65.1888
3096	65.1816
3092	65.1107
3088	64.998
3084	65.0077
3080	65.1386
3076	65.1693
3072	65.1235
3068	65.1292
3064	65.1714
3060	65.2513
3056	65.3228
3052	65.3188
3048	65.251
3044	65.1725
3040	65.1643
3036	65.1453
3032	65.0464
3028	65.0004
3024	64.9958
3020	64.9429
3016	64.9279
3012	65.0131
3008	65.1053
3004	65.103
3000	65.0716
2996	65.062
2992	65.0445
2988	65.0999
2984	65.2021
2980	65.2076
2976	65.1165
2972	65.0187
2968	64.9368
2964	64.8798
2960	64.9082
2956	64.9965
2952	65.113
2948	65.196
2944	65.1398
2940	65.0527
2936	64.9972
2932	64.9266
2928	64.9724
2924	65.1097
2920	65.1832
2916	65.1836
2912	65.1294
2908	65.0527
2904	65.0294
2900	65.0939
2896	65.13
2892	65.0665
2888	65.0338
2884	65.0829
2880	65.1376
2876	65.1281
2872	65.0749
2868	65.1098
2864	65.195
2860	65.1403
2856	65.0247
2852	64.9516
2848	64.8857
2844	64.9329
2840	65.0714
2836	65.0908
2832	65.0283
2828	65.0513
2824	65.0671
2820	65.0039
2816	65.0547
2812	65.2115
2808	65.224
2804	65.1458
2800	65.2172
2796	65.3526
2792	65.3516
2788	65.2384
2784	65.0914
2780	65.0204
2776	65.0869
2772	65.1314
2768	65.0675
2764	65.0306
2760	65.0784
2756	65.1291
2752	65.1076
2748	65.0776
2744	65.1291
2740	65.1417
2736	65.0497
2732	65.0342
2728	65.1417
2724	65.222
2720	65.2198
2716	65.143
2712	65.0415
2708	65.0602
2704	65.1663
2700	65.1674
2696	65.1026
2692	65.1111
2688	65.1691
2684	65.1277
2680	64.9836
2676	64.961
2672	65.0502
2668	65.0471
2664	64.9935
2660	65.0275
2656	65.1074
2652	65.1481
2648	65.1196
2644	65.0622
2640	65.0499
2636	65.0577
2632	65.0746
2628	65.0872
2624	65.0856
2620	65.0888
2616	65.0325
2612	64.9682
2608	64.9375
2604	64.9296
2600	65.012
2596	65.0628
2592	64.9974
2588	64.9446
2584	64.9864
2580	65.0683
2576	65.1008
2572	65.0696
2568	64.9904
2564	64.9115
2560	64.9106
2556	64.9857
2552	65.0242
2548	64.9482
2544	64.8844
2540	64.9224
2536	64.9729
2532	65.0339
2528	65.0697
2524	65.0319
2520	65.0177
2516	65.0456
2512	65.0712
2508	65.0727
2504	65.071
2500	65.0604
2496	64.9978
2492	64.9505
2488	64.936
2484	64.9106
2480	64.9322
2476	65.0008
2472	64.9903
2468	64.8916
2464	64.8511
2460	64.8938
2456	64.9067
2452	64.8809
2448	64.8947
2444	64.9026
2440	64.8882
2436	64.8881
2432	64.828
2428	64.7323
2424	64.7318
2420	64.8221
2416	64.8926
2412	64.9599
2408	65.0185
2404	64.9792
2400	64.9228
2396	64.9554
2392	65.0271
2388	65.05
2384	64.9724
2380	64.8341
2376	64.8
2372	64.8701
2368	64.8861
2364	64.8978
2360	64.9879
2356	65.0526
2352	65.0083
2348	64.923
2344	64.9234
2340	64.962
2336	64.9477
2332	64.9366
2328	64.9094
2324	64.8729
2320	64.9221
2316	64.963
2312	64.9041
2308	64.8587
2304	64.9032
2300	64.9354
2296	64.9041
2292	64.8628
2288	64.8351
2284	64.8227
2280	64.8091
2276	64.8174
2272	64.8501
2268	64.8538
2264	64.8241
2260	64.7963
2256	64.779
2252	64.7834
2248	64.7969
2244	64.8211
2240	64.8751
2236	64.9314
2232	64.9827
2228	64.9642
2224	64.9034
2220	64.883
2216	64.8228
2212	64.763
2208	64.8139
2204	64.9138
2200	64.9531
2196	64.9194
2192	64.8779
2188	64.893
2184	64.9391
2180	64.9292
2176	64.8823
2172	64.8523
2168	64.8375
2164	64.823
2160	64.7989
2156	64.7683
2152	64.744
2148	64.7124
2144	64.7197
2140	64.7991
2136	64.8772
2132	64.8867
2128	64.8258
2124	64.8103
2120	64.9091
2116	64.9896
2112	64.9811
2108	64.9467
2104	64.8855
2100	64.8196
2096	64.7991
2092	64.7805
2088	64.7662
2084	64.7776
2080	64.8296
2076	64.9067
2072	64.9214
2068	64.8768
2064	64.84
2060	64.8453
2056	64.8899
2052	64.884
2048	64.8277
2044	64.8182
2040	64.7903
2036	64.7274
2032	64.7604
2028	64.8339
2024	64.8201
2020	64.7609
2016	64.7349
2012	64.7415
2008	64.7929
2004	64.8693
2000	64.8498
1996	64.7509
1992	64.7184
1988	64.7504
1984	64.749
1980	64.7305
1976	64.7675
1972	64.8388
1968	64.8536
1964	64.7807
1960	64.7194
1956	64.7393
1952	64.7902
1948	64.7789
1944	64.7614
1940	64.8269
1936	64.8677
1932	64.8342
1928	64.8034
1924	64.7889
1920	64.7343
1916	64.6698
1912	64.6996
1908	64.7704
1904	64.7882
1900	64.7499
1896	64.6621
1892	64.6139
1888	64.6379
1884	64.6525
1880	64.6386
1876	64.6602
1872	64.7396
1868	64.7871
1864	64.7132
1860	64.6177
1856	64.663
1852	64.7675
1848	64.7886
1844	64.751
1840	64.6955
1836	64.6657
1832	64.6749
1828	64.6876
1824	64.7041
1820	64.7181
1816	64.702
1812	64.6523
1808	64.6158
1804	64.605
1800	64.5998
1796	64.6159
1792	64.6306
1788	64.6164
1784	64.5927
1780	64.5955
1776	64.6069
1772	64.5592
1768	64.4696
1764	64.4233
1760	64.4421
1756	64.4833
1752	64.4947
1748	64.4703
1744	64.4505
1740	64.3929
1736	64.3112
1732	64.301
1728	64.3433
1724	64.4207
1720	64.5325
1716	64.572
1712	64.5313
1708	64.5533
1704	64.611
1700	64.5991
1696	64.5531
1692	64.5692
1688	64.6435
1684	64.6481
1680	64.5931
1676	64.5961
1672	64.6244
1668	64.5916
1664	64.5135
1660	64.4211
1656	64.37
1652	64.4169
1648	64.458
1644	64.4458
1640	64.4669
1636	64.4894
1632	64.4653
1628	64.4269
1624	64.3654
1620	64.2996
1616	64.293
1612	64.3429
1608	64.4237
1604	64.4803
1600	64.4746
1596	64.45
1592	64.4217
1588	64.3802
1584	64.3126
1580	64.2394
1576	64.2027
1572	64.2392
1568	64.3417
1564	64.442
1560	64.4452
1556	64.362
1552	64.3265
1548	64.3683
1544	64.4063
1540	64.3857
1536	64.3566
1532	64.3645
1528	64.3587
1524	64.3372
1520	64.3615
1516	64.4105
1512	64.4425
1508	64.4662
1504	64.4351
1500	64.3212
1496	64.2443
1492	64.3136
1488	64.4191
1484	64.4524
1480	64.411
1476	64.3436
1472	64.286
1468	64.2345
1464	64.2399
1460	64.3186
1456	64.3898
1452	64.4179
1448	64.425
1444	64.431
1440	64.4258
1436	64.331
1432	64.1816
1428	64.1492
1424	64.2317
1420	64.2908
1416	64.2993
1412	64.3352
1408	64.3924
1404	64.3598
1400	64.2512
1396	64.1729
1392	64.1615
1388	64.2339
1384	64.3065
1380	64.3038
1376	64.3082
1372	64.3562
1368	64.355
1364	64.2511
1360	64.1765
1356	64.1951
1352	64.1898
1348	64.1795
1344	64.2073
1340	64.2086
1336	64.1845
1332	64.1981
1328	64.2651
1324	64.3008
1320	64.293
1316	64.2894
1312	64.2587
1308	64.259
1304	64.2959
1300	64.2503
1296	64.1932
1292	64.2403
1288	64.3193
1284	64.3056
1280	64.2349
1276	64.1994
1272	64.1579
1268	64.1111
1264	64.0805
1260	64.0481
1256	64.0776
1252	64.1373
1248	64.131
1244	64.1485
1240	64.1963
1236	64.1672
1232	64.1457
1228	64.1556
1224	64.1556
1220	64.1863
1216	64.2185
1212	64.2119
1208	64.1439
1204	64.0607
1200	63.9926
1196	63.9579
1192	63.98
1188	63.9768
1184	63.9774
1180	64.0174
1176	64.0032
1172	63.958
1168	63.9615
1164	64.0016
1160	64.0273
1156	64.0358
1152	64.0778
1148	64.1172
1144	64.0664
1140	63.9296
1136	63.7934
1132	63.7326
1128	63.7337
1124	63.7899
1120	63.9228
1116	64.0358
1112	64.0242
1108	63.9692
1104	63.9887
1100	63.9706
1096	63.9125
1092	63.9592
1088	64.0119
1084	64.0035
1080	63.9904
1076	63.9365
1072	63.8906
1068	63.9558
1064	64.0295
1060	64.0066
1056	63.9606
1052	63.9785
1048	64.0439
1044	64.0415
1040	63.9463
1036	63.9146
1032	63.989
1028	64.0192
1024	64.0252
1020	64.0964
1016	64.1466
1012	64.1166
1008	64.1012
1004	64.1337
1000	64.145
996	 64.1348
992	 64.113
988	 64.0385
984	 63.9972
980	 64.0798
976	 64.1171
972	 64.0134
968	 63.9107
964	 63.8932
960	 63.9008
956	 63.8828
952	 63.9155
948	 63.9597
944	 63.9868
940	 64.0877
936	 64.1673
932	 64.123
928	 64.0384
924	 64.0677
920	 64.1953
916	 64.2267
912	 64.1484
908	 64.115
904	 64.1083
900	 64.0709
896	 64.1236
892	 64.1596
888	 64.0311
884	 63.9434
880	 63.9822
876	 63.9956
872	 63.9379
868	 63.9536
864	 63.9926
860	 63.9429
856	 63.9762
852	 64.0072
848	 63.8922
844	 63.9029
840	 64.1023
836	 64.2175
832	 64.1001
828	 63.9335
824	 63.8939
820	 63.8503
816	 63.7874
812	 63.8221
808	 63.9779
804	 64.1263
800	 64.1042
796	 64.0163
792	 63.9975
788	 64.0958
784	 64.2446
780	 64.2216
776	 64.0724
772	 63.8982
768	 63.7519
764	 63.7681
760	 63.8432
756	 63.6907
752	 63.4335
748	 63.4806
744	 63.7024
740	 63.7902
736	 63.693
732	 63.4832
728	 63.3624
724	 63.4029
720	 63.4992
716	 63.4961
712	 63.4245
708	 63.4186
704	 63.3846
700	 63.3211
696	 63.3748
692	 63.6448
688	 63.971
684	 64.1305
680	 64.1533
676	 63.9504
672	 63.6369
668	 63.6079
664	 63.6564
660	 63.5963
656	 63.6735
652	 63.7923
648	 63.8029
644	 63.9694
640	 64.2696
636	 64.517
632	 64.8088
628	 64.8525
624	 64.6097
620	 64.0775
616	 63.2794
612	 63.1944
608	 63.8627
604	 64.3366
600	 64.5578
596	 64.5885
592	 64.2369
588	 63.8697
584	 63.8369
580	 63.7875
576	 63.6004
572	 63.498
568	 63.4761
564	 63.7065
560	 63.9846
556	 64.1076
552	 64.3636
548	 64.2498
544	 63.5756
540	 63.2601
536	 63.5806
532	 63.9044
528	 64.05
524	 64.1015
520	 63.9088
516	 63.5359
512	 63.363
508	 63.4984
504	 63.7826
500	 63.9372
496	 63.7114
492	 63.5411
488	 63.4952
484	 63.5854
480	 64.0614
476	 64.3566
472	 64.2084
468	 63.6107
464	 62.7842
460	 62.2805
456	 62.0674
452	 62.3758
448	 63.0388
444	 62.9908
440	 62.7819
436	 63.4923
432	 64.1256
428	 63.917
424	 63.3166
420	 62.7166
416	 63.0008
412	 65.1073
408	 66.3567
404	 65.6508
400	 70.7474
396	 75.5912
392	 63.692
388	 53.8661
384	 65.8773
380	 68.6216
376	 51.6178
372	 39.2463
370	 39.1054