File: Bakgrunnsmateriale/MATLAB/FTIR/ftir_data/subAa/Mapping_121/BZ1503107-1_t68_cm-1.asc
PE IR       SPECTRUM    SPECTRUM    ASCII       PEDS        1.60
  -1
BZ6031~1.ASC
17/04/07
18:52:40.00
17/04/07
18:52:40.00
tln
$BZ1503107-1_t0068$<tbV0>[10.4,2.6,8.0,0.0,27,1,0]
370
64

2002,4.07
MIRTGS : RIGHTBACK : INTERNAL 2
MIR : ON : INTERNAL 2
OPTKBR

0.200000
8
8.000000
FILLER
RATIO
SPECTRUM
UNLOCKED 256

DOUBLE
64
COMBINED
1
0
0

1.000000
RATIO

1
0
TRUE
51149
0
LEFT NOT FITTED RIGHT NOT FITTED 0
NONE
NONE
15600
12
4.427000
51148
TRUE
1 0 8 72 0 0 0 0

15798

#HDR
-1
-1
#GR
CM-1
%T
2.38419e-05
0.0
5000
-1.000000
4631
8
80.1269
50.4947
#DATA
5000	65.2046
4996	65.211
4992	65.037
4988	65.2189
4984	64.9664
4980	64.2515
4976	64.0708
4972	64.4335
4968	64.6374
4964	64.6019
4960	64.6227
4956	64.6287
4952	64.6173
4948	64.5749
4944	64.6253
4940	64.7147
4936	64.6473
4932	64.7594
4928	65.0553
4924	65.0836
4920	64.9829
4916	65.0269
4912	64.9704
4908	64.9112
4904	64.8147
4900	64.5642
4896	64.6494
4892	64.9468
4888	65.0018
4884	64.9151
4880	64.866
4876	64.9457
4872	64.9509
4868	64.6826
4864	64.4603
4860	64.4976
4856	64.6805
4852	64.8668
4848	64.9719
4844	65.1047
4840	65.2917
4836	65.3404
4832	65.116
4828	64.7092
4824	64.4839
4820	64.6061
4816	64.9545
4812	65.2139
4808	65.1548
4804	65.069
4800	64.9926
4796	64.7337
4792	64.5275
4788	64.5497
4784	64.7185
4780	64.8072
4776	64.7574
4772	64.7636
4768	64.8174
4764	64.7997
4760	64.6865
4756	64.6624
4752	64.8242
4748	64.9626
4744	65.0672
4740	65.121
4736	64.9646
4732	64.8913
4728	65.1834
4724	65.4833
4720	65.4327
4716	65.1308
4712	64.7609
4708	64.6254
4704	64.9794
4700	65.3713
4696	65.3495
4692	65.1579
4688	65.0231
4684	64.9571
4680	64.8886
4676	64.7447
4672	64.76
4668	64.9419
4664	64.9094
4660	64.7899
4656	64.8188
4652	64.8076
4648	64.7446
4644	64.788
4640	65.0084
4636	65.2839
4632	65.3469
4628	65.1972
4624	65.0804
4620	64.9919
4616	64.8893
4612	64.8629
4608	64.8819
4604	64.9476
4600	65.0099
4596	65.0677
4592	65.1047
4588	64.9283
4584	64.6173
4580	64.5972
4576	64.8111
4572	64.8511
4568	64.8852
4564	64.9789
4560	64.8493
4556	64.6187
4552	64.5266
4548	64.5708
4544	64.6619
4540	64.777
4536	64.8693
4532	64.8785
4528	64.7884
4524	64.6813
4520	64.7945
4516	65.1501
4512	65.3041
4508	65.1333
4504	64.8758
4500	64.7267
4496	64.7759
4492	64.8102
4488	64.6222
4484	64.511
4480	64.4776
4476	64.2871
4472	63.9842
4468	63.873
4464	63.9692
4460	64.3205
4456	64.7494
4452	64.7071
4448	64.4842
4444	64.3407
4440	64.6189
4436	65.497
4432	65.9545
4428	58.6483
4424	50.7051
4420	54.4667
4416	66.1121
4412	77.9661
4408	78.6129
4404	70.1611
4400	65.7282
4396	65.2703
4392	64.7523
4388	64.8141
4384	65.1776
4380	65.2421
4376	64.975
4372	64.6763
4368	64.7538
4364	64.8682
4360	64.8187
4356	64.815
4352	64.9311
4348	65.0059
4344	64.9713
4340	65.0774
4336	65.1373
4332	64.7732
4328	64.3888
4324	64.453
4320	64.6658
4316	64.6976
4312	64.6735
4308	64.792
4304	64.8746
4300	64.7521
4296	64.5925
4292	64.6551
4288	64.865
4284	64.9127
4280	64.8316
4276	64.7835
4272	64.8154
4268	64.7546
4264	64.5517
4260	64.5572
4256	64.7228
4252	64.808
4248	64.9066
4244	65.0274
4240	65.0008
4236	64.8523
4232	64.8352
4228	64.9264
4224	65.0314
4220	65.0689
4216	64.8555
4212	64.6776
4208	64.733
4204	64.7921
4200	64.8178
4196	64.8231
4192	64.8417
4188	64.8994
4184	64.9919
4180	65.1944
4176	65.3437
4172	65.291
4168	65.1869
4164	65.0914
4160	65.0123
4156	65.0224
4152	65.0043
4148	64.829
4144	64.5784
4140	64.5213
4136	64.7639
4132	65.0549
4128	65.1019
4124	64.9958
4120	65.0819
4116	65.2636
4112	65.3025
4108	65.267
4104	65.2195
4100	65.1165
4096	65.0339
4092	65.0978
4088	65.1374
4084	65.0319
4080	64.9407
4076	64.927
4072	64.9228
4068	64.9419
4064	65.047
4060	65.1637
4056	65.2061
4052	65.2277
4048	65.244
4044	65.21
4040	65.1444
4036	65.0948
4032	65.079
4028	65.0636
4024	65.0586
4020	65.0601
4016	65.0137
4012	65.0663
4008	65.1766
4004	65.1374
4000	65.0756
3996	65.017
3992	64.9991
3988	65.1645
3984	65.3005
3980	65.2614
3976	65.2005
3972	65.1597
3968	65.0852
3964	65.0911
3960	65.1149
3956	64.986
3952	64.9132
3948	65.0347
3944	65.1446
3940	65.0856
3936	64.89
3932	64.703
3928	64.6755
3924	64.6753
3920	64.6693
3916	64.8927
3912	65.0981
3908	65.0993
3904	65.1206
3900	65.2039
3896	65.2458
3892	65.2193
3888	65.1771
3884	65.136
3880	65.1321
3876	65.1541
3872	65.1611
3868	65.1684
3864	65.1791
3860	65.212
3856	65.1988
3852	65.0934
3848	64.985
3844	64.9601
3840	64.9686
3836	64.922
3832	64.8633
3828	64.8951
3824	64.9928
3820	65.0378
3816	65.0812
3812	65.0585
3808	64.9253
3804	64.8846
3800	64.9818
3796	65.1412
3792	65.2919
3788	65.3837
3784	65.342
3780	65.1812
3776	65.0384
3772	65.0223
3768	65.0094
3764	64.8664
3760	64.8587
3756	65.0367
3752	65.1499
3748	65.1606
3744	65.1237
3740	65.127
3736	65.1385
3732	65.1261
3728	65.1696
3724	65.185
3720	65.1598
3716	65.181
3712	65.1826
3708	65.1539
3704	65.2064
3700	65.3059
3696	65.2823
3692	65.1116
3688	64.9791
3684	65.0052
3680	65.124
3676	65.2177
3672	65.1784
3668	65.112
3664	65.1268
3660	65.1253
3656	65.1424
3652	65.1477
3648	65.0632
3644	65.089
3640	65.2797
3636	65.3686
3632	65.2913
3628	65.1556
3624	65.0618
3620	65.1048
3616	65.1934
3612	65.2064
3608	65.175
3604	65.1553
3600	65.1147
3596	65.0884
3592	65.1131
3588	65.1063
3584	65.0889
3580	65.1195
3576	65.1617
3572	65.2075
3568	65.2067
3564	65.17
3560	65.1129
3556	65.0405
3552	65.0656
3548	65.116
3544	65.1354
3540	65.1758
3536	65.2043
3532	65.1682
3528	65.0622
3524	64.978
3520	64.9943
3516	65.0588
3512	65.0914
3508	65.1017
3504	65.1114
3500	65.1324
3496	65.1065
3492	65.029
3488	65.0343
3484	65.104
3480	65.155
3476	65.1503
3472	65.1148
3468	65.1402
3464	65.0941
3460	64.9507
3456	64.984
3452	65.1321
3448	65.1802
3444	65.1326
3440	65.0389
3436	64.9828
3432	64.9686
3428	64.9146
3424	64.8659
3420	64.934
3416	65.0249
3412	65.0197
3408	65.0026
3404	64.9934
3400	64.9695
3396	65.021
3392	65.0978
3388	65.088
3384	65.061
3380	65.0869
3376	65.0901
3372	65.0401
3368	65.0448
3364	65.1227
3360	65.2086
3356	65.2273
3352	65.1393
3348	65.1034
3344	65.1724
3340	65.2072
3336	65.1966
3332	65.1427
3328	65.0592
3324	65.0508
3320	65.0721
3316	65.0488
3312	65.0486
3308	65.0735
3304	65.0931
3300	65.0783
3296	65.0085
3292	64.996
3288	65.0492
3284	65.0444
3280	65.0294
3276	65.0344
3272	64.9451
3268	64.8654
3264	64.9034
3260	64.9218
3256	64.9372
3252	65.0231
3248	65.0866
3244	65.0467
3240	64.9705
3236	64.9994
3232	65.06
3228	65.0356
3224	65.0257
3220	65.0851
3216	65.1482
3212	65.1763
3208	65.1498
3204	65.0961
3200	65.0747
3196	65.0864
3192	65.0654
3188	65.0087
3184	64.9853
3180	64.9681
3176	64.9532
3172	64.9856
3168	65.0416
3164	65.0998
3160	65.1086
3156	65.0307
3152	65.0089
3148	65.0737
3144	65.0768
3140	65.0326
3136	65.022
3132	65.002
3128	65.004
3124	65.1052
3120	65.133
3116	65.0021
3112	64.9053
3108	64.8915
3104	64.8843
3100	64.8882
3096	64.8639
3092	64.8145
3088	64.84
3084	64.9283
3080	64.967
3076	64.9514
3072	64.9823
3068	65.0311
3064	65.0975
3060	65.1521
3056	64.9853
3052	64.7965
3048	64.8823
3044	64.994
3040	64.9682
3036	64.9263
3032	64.882
3028	64.8602
3024	64.9158
3020	64.9607
3016	64.9564
3012	64.9565
3008	64.972
3004	65.0378
3000	65.066
2996	65.0283
2992	65.0409
2988	65.0094
2984	64.9358
2980	64.9697
2976	64.9993
2972	64.9496
2968	64.923
2964	64.9513
2960	64.9656
2956	64.9028
2952	64.8289
2948	64.7881
2944	64.7818
2940	64.83
2936	64.8742
2932	64.8634
2928	64.8457
2924	64.8493
2920	64.866
2916	64.8612
2912	64.8158
2908	64.8007
2904	64.8243
2900	64.8456
2896	64.8803
2892	64.8627
2888	64.8221
2884	64.8589
2880	64.8979
2876	64.8949
2872	64.8734
2868	64.8288
2864	64.7908
2860	64.8058
2856	64.8651
2852	64.8702
2848	64.8018
2844	64.7442
2840	64.7541
2836	64.8239
2832	64.841
2828	64.7783
2824	64.7783
2820	64.8609
2816	64.9423
2812	64.9874
2808	64.9844
2804	64.9549
2800	64.9024
2796	64.8488
2792	64.895
2788	64.9612
2784	64.9396
2780	64.9688
2776	65.0326
2772	64.9984
2768	64.9576
2764	64.9872
2760	64.9557
2756	64.8477
2752	64.8274
2748	64.8875
2744	64.9504
2740	65.0187
2736	65.0395
2732	64.9763
2728	64.9005
2724	64.8904
2720	64.944
2716	65.0111
2712	65.0565
2708	65.0153
2704	64.931
2700	64.9116
2696	64.9092
2692	64.919
2688	64.9703
2684	65.0456
2680	65.0788
2676	65.0043
2672	64.9092
2668	64.8745
2664	64.8741
2660	64.8913
2656	64.9294
2652	64.9642
2648	64.9453
2644	64.8886
2640	64.8846
2636	64.8752
2632	64.8334
2628	64.878
2624	64.9295
2620	64.8808
2616	64.8359
2612	64.8538
2608	64.8526
2604	64.7905
2600	64.7348
2596	64.7783
2592	64.8537
2588	64.8445
2584	64.8031
2580	64.7833
2576	64.7604
2572	64.7329
2568	64.72
2564	64.7375
2560	64.7787
2556	64.8218
2552	64.8514
2548	64.8499
2544	64.8389
2540	64.8223
2536	64.774
2532	64.7605
2528	64.7988
2524	64.8392
2520	64.8612
2516	64.833
2512	64.8031
2508	64.8245
2504	64.8369
2500	64.8012
2496	64.7809
2492	64.8053
2488	64.7961
2484	64.7851
2480	64.8534
2476	64.8919
2472	64.837
2468	64.8154
2464	64.8031
2460	64.756
2456	64.7798
2452	64.823
2448	64.8151
2444	64.7755
2440	64.7393
2436	64.7395
2432	64.7591
2428	64.7655
2424	64.7244
2420	64.7159
2416	64.8077
2412	64.896
2408	64.9085
2404	64.9056
2400	64.8885
2396	64.7769
2392	64.6876
2388	64.6884
2384	64.6881
2380	64.6975
2376	64.7363
2372	64.7591
2368	64.7136
2364	64.6805
2360	64.7397
2356	64.7943
2352	64.7681
2348	64.7308
2344	64.7302
2340	64.766
2336	64.8248
2332	64.8
2328	64.7094
2324	64.6999
2320	64.7547
2316	64.7721
2312	64.7651
2308	64.7454
2304	64.6903
2300	64.6385
2296	64.6218
2292	64.6448
2288	64.6596
2284	64.6628
2280	64.7
2276	64.7229
2272	64.7133
2268	64.7087
2264	64.7293
2260	64.7572
2256	64.7401
2252	64.686
2248	64.6074
2244	64.5289
2240	64.5164
2236	64.5536
2232	64.6088
2228	64.6607
2224	64.6486
2220	64.6196
2216	64.6352
2212	64.6266
2208	64.5904
2204	64.5839
2200	64.5921
2196	64.5835
2192	64.5857
2188	64.6464
2184	64.6683
2180	64.6226
2176	64.6219
2172	64.599
2168	64.5582
2164	64.5681
2160	64.5601
2156	64.536
2152	64.5368
2148	64.5484
2144	64.575
2140	64.5966
2136	64.5858
2132	64.5767
2128	64.572
2124	64.5407
2120	64.509
2116	64.5213
2112	64.5362
2108	64.5217
2104	64.5109
2100	64.497
2096	64.4945
2092	64.5295
2088	64.5559
2084	64.5669
2080	64.564
2076	64.5195
2072	64.4999
2068	64.546
2064	64.5685
2060	64.517
2056	64.4599
2052	64.4333
2048	64.4194
2044	64.4128
2040	64.4221
2036	64.4747
2032	64.4927
2028	64.4565
2024	64.4564
2020	64.4943
2016	64.5392
2012	64.5353
2008	64.5042
2004	64.4956
2000	64.4564
1996	64.3976
1992	64.3919
1988	64.4489
1984	64.5003
1980	64.5035
1976	64.4974
1972	64.5121
1968	64.5248
1964	64.5207
1960	64.5253
1956	64.5407
1952	64.5145
1948	64.4462
1944	64.3843
1940	64.3591
1936	64.3884
1932	64.4419
1928	64.45
1924	64.4227
1920	64.4454
1916	64.5083
1912	64.5365
1908	64.529
1904	64.4899
1900	64.4034
1896	64.3661
1892	64.4114
1888	64.4277
1884	64.4396
1880	64.4918
1876	64.4643
1872	64.369
1868	64.3178
1864	64.3114
1860	64.3419
1856	64.3833
1852	64.3879
1848	64.3529
1844	64.3053
1840	64.2578
1836	64.2147
1832	64.2505
1828	64.3417
1824	64.3435
1820	64.3383
1816	64.4353
1812	64.4983
1808	64.4673
1804	64.4173
1800	64.3788
1796	64.3882
1792	64.4249
1788	64.3862
1784	64.3236
1780	64.3387
1776	64.3525
1772	64.3421
1768	64.3842
1764	64.4129
1760	64.376
1756	64.3168
1752	64.2314
1748	64.133
1744	64.0769
1740	64.0446
1736	64.0247
1732	64.0807
1728	64.1336
1724	64.1066
1720	64.1025
1716	64.1739
1712	64.242
1708	64.2421
1704	64.2246
1700	64.2481
1696	64.2571
1692	64.2436
1688	64.2569
1684	64.2565
1680	64.2544
1676	64.2296
1672	64.1292
1668	64.0504
1664	64.0464
1660	64.0876
1656	64.0991
1652	64.0599
1648	64.0588
1644	64.0915
1640	64.091
1636	64.0658
1632	64.091
1628	64.1743
1624	64.2482
1620	64.2514
1616	64.2007
1612	64.1381
1608	64.079
1604	64.0749
1600	64.0973
1596	64.0629
1592	64.0192
1588	64.0687
1584	64.1176
1580	64.0703
1576	64.0371
1572	64.0487
1568	64.0294
1564	64.0268
1560	64.0584
1556	64.0059
1552	63.9006
1548	63.8951
1544	64.025
1540	64.1178
1536	64.0658
1532	64.0022
1528	64.0073
1524	64.0754
1520	64.121
1516	64.0892
1512	64.049
1508	64.0236
1504	63.9569
1500	63.851
1496	63.858
1492	63.9804
1488	64.0149
1484	64.0009
1480	63.9875
1476	63.9477
1472	63.9066
1468	63.8563
1464	63.8194
1460	63.8839
1456	64.0255
1452	64.1047
1448	64.0492
1444	63.9525
1440	63.9225
1436	63.9817
1432	64.0682
1428	64.0997
1424	64.1046
1420	64.1013
1416	64.0354
1412	63.9125
1408	63.8481
1404	63.8793
1400	63.9166
1396	63.9557
1392	63.9768
1388	63.9292
1384	63.8513
1380	63.7973
1376	63.8296
1372	63.9219
1368	63.9136
1364	63.8266
1360	63.7851
1356	63.7906
1352	63.831
1348	63.8837
1344	63.9316
1340	63.9704
1336	64.0008
1332	63.9888
1328	63.9354
1324	63.9297
1320	63.9604
1316	63.9475
1312	63.8989
1308	63.8453
1304	63.8487
1300	63.9108
1296	63.8982
1292	63.7892
1288	63.6686
1284	63.6108
1280	63.6347
1276	63.6437
1272	63.6406
1268	63.6617
1264	63.6804
1260	63.7454
1256	63.8314
1252	63.8617
1248	63.8762
1244	63.893
1240	63.8558
1236	63.8096
1232	63.7861
1228	63.7591
1224	63.7449
1220	63.723
1216	63.7165
1212	63.7063
1208	63.6231
1204	63.5669
1200	63.6491
1196	63.706
1192	63.6022
1188	63.5569
1184	63.6044
1180	63.5792
1176	63.5614
1172	63.5984
1168	63.5796
1164	63.4933
1160	63.4968
1156	63.5696
1152	63.5973
1148	63.6495
1144	63.6969
1140	63.6748
1136	63.6065
1132	63.5483
1128	63.5875
1124	63.6683
1120	63.682
1116	63.6368
1112	63.5829
1108	63.5991
1104	63.6028
1100	63.5092
1096	63.4145
1092	63.35
1088	63.3966
1084	63.5154
1080	63.6038
1076	63.7117
1072	63.7503
1068	63.6706
1064	63.5409
1060	63.4538
1056	63.4685
1052	63.4909
1048	63.4622
1044	63.4394
1040	63.4556
1036	63.4707
1032	63.4863
1028	63.4831
1024	63.467
1020	63.5235
1016	63.5164
1012	63.4429
1008	63.5566
1004	63.6585
1000	63.5442
996	 63.492
992	 63.5782
988	 63.6275
984	 63.6208
980	 63.6161
976	 63.5513
972	 63.4595
968	 63.4831
964	 63.5712
960	 63.6632
956	 63.7184
952	 63.6061
948	 63.4785
944	 63.5532
940	 63.6404
936	 63.6127
932	 63.6099
928	 63.6933
924	 63.766
920	 63.7717
916	 63.7827
912	 63.69
908	 63.4943
904	 63.4237
900	 63.4466
896	 63.5279
892	 63.5887
888	 63.5306
884	 63.492
880	 63.5391
876	 63.6207
872	 63.6967
868	 63.6817
864	 63.5705
860	 63.5654
856	 63.6109
852	 63.5502
848	 63.4465
844	 63.3569
840	 63.4319
836	 63.5361
832	 63.4392
828	 63.3631
824	 63.4922
820	 63.6487
816	 63.7192
812	 63.7178
808	 63.6889
804	 63.741
800	 63.724
796	 63.5891
792	 63.5382
788	 63.5345
784	 63.5506
780	 63.6366
776	 63.5897
772	 63.3525
768	 63.2497
764	 63.3424
760	 63.4485
756	 63.5838
752	 63.699
748	 63.6147
744	 63.4759
740	 63.4564
736	 63.3773
732	 63.1808
728	 63.0589
724	 63.0438
720	 63.0367
716	 63.107
712	 63.0305
708	 62.7328
704	 62.7191
700	 62.9835
696	 63.2263
692	 63.3763
688	 63.2379
684	 63.0723
680	 63.2868
676	 63.3679
672	 62.7236
668	 62.1637
664	 62.7601
660	 63.8134
656	 64.2159
652	 64.0509
648	 63.6873
644	 63.3012
640	 62.9051
636	 62.4249
632	 62.0877
628	 61.9276
624	 61.8837
620	 62.2191
616	 62.7635
612	 63.0788
608	 63.2759
604	 63.6
600	 63.5604
596	 63.0035
592	 62.6743
588	 62.7672
584	 62.8967
580	 62.962
576	 63.2492
572	 63.5823
568	 63.5328
564	 63.3116
560	 63.2264
556	 63.0764
552	 62.7842
548	 62.7206
544	 62.8632
540	 62.7886
536	 62.5898
532	 62.7107
528	 63.0042
524	 63.1413
520	 63.0932
516	 63.2369
512	 63.2999
508	 63.0076
504	 62.9147
500	 63.0215
496	 63.2196
492	 63.2645
488	 63.1337
484	 63.2362
480	 63.1887
476	 62.9255
472	 62.8455
468	 62.8732
464	 62.85
460	 62.3287
456	 61.6314
452	 61.59
448	 61.9956
444	 62.7287
440	 63.1337
436	 62.3094
432	 61.4417
428	 61.9413
424	 63.8151
420	 65.8409
416	 66.8707
412	 67.3146
408	 67.4087
404	 67.6019
400	 66.7902
396	 63.5013
392	 59.8502
388	 60.1493
384	 59.953
380	 56.1195
376	 57.2824
372	 66.0276
370	 70.6604