File: Bakgrunnsmateriale/MATLAB/FTIR/ftir_data/subAa/Mapping_121/BZ1503107-1_t07.asc
PE IR       SPECTRUM    SPECTRUM    ASCII       PEDS        1.60
  -1
BZ1565~1.ASC
17/04/07
13:48:11.00
17/04/07
13:48:38.00
tln
$BZ1503107-1_t0007$<tbV0>[-2.6,-13.0,8.0,0.0,27,1,0]
27.028
64

2002,4.07
MIRTGS : RIGHTBACK : INTERNAL 2
MIR : ON : INTERNAL 2
OPTKBR

0.200000
8
8.000000
FILLER
RATIO
SPECTRUM
UNLOCKED 256

DOUBLE
64
COMBINED
1
0
0

0.002000
RATIO

1
0
TRUE
51149
0
LEFT NOT FITTED RIGHT NOT FITTED 0
NONE
NONE
15600
12
4.427000
51148
TRUE
1 0 8 72 0 0 0 0

15798

#HDR
-1
-1
#GR
µM
%T
2.38419e-05
0.0
2.000000
0.002000
12515
8
80.6439
48.6151
#DATA
2.000000	 64.4937
2.018000	 63.903
2.036000	 63.4569
2.054000	 63.7288
2.072000	 64.7401
2.090000	 64.7332
2.108000	 64.6483
2.126000	 64.4462
2.144000	 64.6566
2.162000	 64.5779
2.180000	 64.9151
2.198000	 64.3345
2.216000	 64.9559
2.234000	 66.5198
2.252000	 72.9351
2.270000	 64.8423
2.288000	 64.6235
2.306000	 64.8384
2.324000	 64.8916
2.342000	 65.0412
2.360000	 64.6535
2.378000	 65.0428
2.396000	 64.7281
2.414000	 64.713
2.432000	 65.2318
2.450000	 65.1114
2.468000	 65.07
2.486000	 64.8268
2.504000	 65.018
2.522000	 65.0562
2.540000	 65.1518
2.558000	 64.9229
2.576000	 65.0178
2.594000	 65.0421
2.612000	 64.9687
2.630000	 65.2088
2.648000	 64.8561
2.666000	 65.1091
2.684000	 64.9212
2.702000	 65.1087
2.720000	 65.284
2.738000	 65.0098
2.756000	 65.2882
2.774000	 65.1793
2.792000	 64.8839
2.810000	 64.9938
2.828000	 64.9977
2.846000	 64.9423
2.864000	 64.8999
2.882000	 64.8506
2.900000	 64.8701
2.918000	 64.9415
2.936000	 65.0692
2.954000	 65.0251
2.972000	 65.0508
2.990000	 64.9819
3.008000	 64.9662
3.026000	 65.019
3.044000	 65.0307
3.062000	 64.8521
3.080000	 64.8469
3.098000	 64.8028
3.116000	 65.0072
3.134000	 64.9188
3.152000	 64.992
3.170000	 64.9713
3.188000	 64.8443
3.206000	 64.9258
3.224000	 65.0056
3.242000	 64.8599
3.260000	 64.9805
3.278000	 64.7697
3.296000	 65.0589
3.314000	 64.9871
3.332000	 65.0567
3.350000	 64.8669
3.368000	 64.9586
3.386000	 64.8657
3.404000	 64.8693
3.422000	 64.6733
3.440000	 64.889
3.458000	 64.7798
3.476000	 64.9218
3.494000	 64.9139
3.512000	 64.8427
3.530000	 64.8922
3.548000	 64.8059
3.566000	 64.8358
3.584000	 64.9202
3.602000	 64.8676
3.620000	 64.9191
3.638000	 64.8773
3.656000	 64.9655
3.674000	 64.9044
3.692000	 64.8509
3.710000	 64.8804
3.728000	 64.8095
3.746000	 64.7736
3.764000	 64.8357
3.782000	 64.8945
3.800000	 64.9126
3.818000	 64.8824
3.836000	 64.8495
3.854000	 64.933
3.872000	 64.8704
3.890000	 64.9677
3.908000	 64.8532
3.926000	 64.9382
3.944000	 65.0699
3.962000	 64.8263
3.980000	 64.9517
3.998000	 64.8988
4.016000	 64.9162
4.034000	 64.9706
4.052000	 64.9469
4.070000	 64.9575
4.088000	 64.854
4.106000	 64.8555
4.124000	 64.8693
4.141999	 64.7129
4.160000	 64.841
4.178000	 64.9318
4.196000	 64.8177
4.214000	 64.8435
4.232000	 64.801
4.250000	 64.8501
4.268000	 64.8453
4.286000	 64.8775
4.304000	 64.8207
4.322000	 64.8398
4.340000	 64.8198
4.358000	 64.8112
4.375999	 64.7692
4.394000	 64.8738
4.412000	 64.8742
4.430000	 64.841
4.448000	 64.9049
4.466000	 64.8743
4.484000	 64.9065
4.502000	 64.8649
4.520000	 64.8364
4.538000	 64.8722
4.556000	 64.8447
4.574000	 64.8171
4.592000	 64.7905
4.609999	 64.8573
4.628000	 64.745
4.646000	 64.5771
4.664000	 64.6921
4.682000	 64.6582
4.700000	 64.8197
4.718000	 64.9338
4.736000	 64.8879
4.754000	 64.789
4.772000	 64.86
4.790000	 64.8883
4.808000	 64.7824
4.826000	 64.7919
4.843999	 64.7778
4.862000	 64.7645
4.880000	 64.7852
4.898000	 64.8248
4.916000	 64.7828
4.934000	 64.7584
4.952000	 64.7342
4.970000	 64.7877
4.988000	 64.7778
5.006000	 64.7534
5.024000	 64.6947
5.042000	 64.7373
5.060000	 64.7975
5.077999	 64.8444
5.096000	 64.7422
5.114000	 64.7199
5.132000	 64.7112
5.150000	 64.7022
5.168000	 64.6934
5.186000	 64.7308
5.204000	 64.6203
5.222000	 64.6983
5.240000	 64.7469
5.258000	 64.7988
5.276000	 64.7868
5.294000	 64.8092
5.312000	 64.7559
5.330000	 64.7339
5.348000	 64.6943
5.366000	 64.6939
5.384000	 64.6919
5.402000	 64.8104
5.420000	 64.8761
5.438000	 64.7856
5.456000	 64.6603
5.474000	 64.5914
5.492000	 64.6568
5.510000	 64.8057
5.528000	 64.7596
5.546000	 64.7265
5.564000	 64.7682
5.582000	 64.7304
5.600000	 64.7295
5.618000	 64.7182
5.636000	 64.688
5.654000	 64.7579
5.672000	 64.7804
5.690000	 64.7156
5.708000	 64.6273
5.726000	 64.5302
5.744000	 64.5307
5.762000	 64.5485
5.780000	 64.4422
5.798000	 64.5019
5.816000	 64.6278
5.834000	 64.5902
5.852000	 64.6011
5.870000	 64.6857
5.888000	 64.745
5.906000	 64.6538
5.923999	 64.6324
5.942000	 64.6469
5.960000	 64.6621
5.978000	 64.6557
5.996000	 64.5721
6.014000	 64.6018
6.032000	 64.7286
6.050000	 64.7704
6.068000	 64.6695
6.086000	 64.6118
6.104000	 64.6042
6.122000	 64.6361
6.140000	 64.6548
6.158000	 64.6848
6.176000	 64.7173
6.194000	 64.6537
6.212000	 64.6286
6.230000	 64.6734
6.248000	 64.6436
6.266000	 64.63
6.284000	 64.6748
6.302000	 64.6329
6.320000	 64.5908
6.338000	 64.5883
6.356000	 64.5687
6.374000	 64.5173
6.392000	 64.4863
6.410000	 64.5932
6.428000	 64.6984
6.446000	 64.6777
6.464000	 64.622
6.482000	 64.6407
6.500000	 64.5542
6.518000	 64.4242
6.536000	 64.4534
6.554000	 64.5767
6.572000	 64.6685
6.590000	 64.6406
6.608000	 64.5679
6.626000	 64.541
6.644000	 64.5737
6.662000	 64.6489
6.680000	 64.7388
6.698000	 64.7509
6.716000	 64.6535
6.734000	 64.5594
6.752000	 64.5615
6.770000	 64.6559
6.788000	 64.6949
6.806000	 64.6195
6.824000	 64.5651
6.842000	 64.604
6.860000	 64.6581
6.878000	 64.6292
6.896000	 64.5351
6.914000	 64.4873
6.932000	 64.5321
6.950000	 64.5896
6.968000	 64.59
6.986000	 64.5656
7.004000	 64.5437
7.022000	 64.5323
7.040000	 64.5118
7.058000	 64.44
7.076000	 64.3736
7.094000	 64.3987
7.112000	 64.4878
7.130000	 64.5378
7.148000	 64.4859
7.166000	 64.3871
7.184000	 64.3344
7.202000	 64.3494
7.220000	 64.4041
7.238000	 64.4434
7.256000	 64.4124
7.274000	 64.3368
7.292000	 64.3124
7.310000	 64.3722
7.328000	 64.4216
7.346000	 64.3904
7.364000	 64.3452
7.382000	 64.3505
7.400000	 64.3765
7.418000	 64.3981
7.436000	 64.427
7.454000	 64.434
7.472000	 64.388
7.490000	 64.3513
7.508000	 64.3891
7.526000	 64.451
7.544000	 64.4582
7.562000	 64.4118
7.580000	 64.3457
7.598000	 64.2868
7.616000	 64.2645
7.634000	 64.2649
7.652000	 64.2493
7.670000	 64.2248
7.688000	 64.2165
7.706000	 64.2204
7.724000	 64.2372
7.742000	 64.2747
7.760000	 64.3137
7.778000	 64.3287
7.796000	 64.3185
7.814000	 64.2969
7.832000	 64.2777
7.850000	 64.2643
7.868000	 64.2473
7.886000	 64.2269
7.904000	 64.2182
7.922000	 64.2241
7.940000	 64.2365
7.958000	 64.2627
7.976000	 64.3045
7.994000	 64.3295
8.012000	 64.3075
8.030000	 64.2603
8.048000	 64.2395
8.065999	 64.2611
8.084000	 64.286
8.102000	 64.2708
8.120000	 64.2256
8.138000	 64.1946
8.155999	 64.19
8.173999	 64.1901
8.192000	 64.1952
8.210000	 64.226
8.228000	 64.2689
8.246000	 64.2794
8.263999	 64.2473
8.282000	 64.215
8.300000	 64.2232
8.318000	 64.2682
8.336000	 64.3176
8.353999	 64.3442
8.372000	 64.3442
8.390000	 64.3375
8.408000	 64.3414
8.426000	 64.3402
8.443999	 64.295
8.462000	 64.1979
8.480000	 64.0931
8.498000	 64.0368
8.516000	 64.0387
8.533999	 64.0654
8.552000	 64.0857
8.570000	 64.0985
8.588000	 64.1196
8.606000	 64.1582
8.624000	 64.2037
8.641999	 64.2268
8.660000	 64.2067
8.678000	 64.157
8.696000	 64.1185
8.714000	 64.1231
8.731999	 64.1698
8.750000	 64.2288
8.768000	 64.2699
8.786000	 64.2814
8.804000	 64.2696
8.821999	 64.2451
8.840000	 64.2149
8.858000	 64.1865
8.876000	 64.1727
8.894000	 64.1798
8.911999	 64.1986
8.930000	 64.2179
8.948000	 64.2411
8.966000	 64.2776
8.984000	 64.322
9.001999	 64.3534
9.020000	 64.3543
9.038000	 64.3228
9.056000	 64.2687
9.074000	 64.2072
9.092000	 64.1623
9.109999	 64.1619
9.128000	 64.2139
9.146000	 64.2861
9.164000	 64.3271
9.182000	 64.3148
9.199999	 64.2788
9.218000	 64.267
9.236000	 64.2949
9.254000	 64.3321
9.272000	 64.3354
9.289999	 64.2888
9.308000	 64.2087
9.326000	 64.124
9.344000	 64.0609
9.362000	 64.0377
9.379999	 64.0585
9.398000	 64.11
9.416000	 64.1675
9.434000	 64.2083
9.452000	 64.2222
9.469999	 64.2122
9.488000	 64.1912
9.506000	 64.1742
9.524000	 64.1712
9.542000	 64.1794
9.560000	 64.1839
9.577999	 64.1704
9.596000	 64.1409
9.614000	 64.1136
9.632000	 64.1065
9.650000	 64.1227
9.667999	 64.1509
9.686000	 64.1764
9.704000	 64.1914
9.722000	 64.194
9.740000	 64.1826
9.757999	 64.1535
9.776000	 64.1076
9.794000	 64.0585
9.812000	 64.0301
9.830000	 64.0415
9.847999	 64.0912
9.866000	 64.1555
9.884000	 64.2032
9.902000	 64.2166
9.920000	 64.2026
9.937999	 64.1855
9.956000	 64.1887
9.974000	 64.2208
9.992000	 64.2746
10.01	64.3339
10.028	64.3819
10.046	64.4068
10.064	64.4038
10.082	64.3765
10.1	64.3367
10.118	64.3005
10.136	64.279
10.154	64.2721
10.172	64.2695
10.19	64.2594
10.208	64.2382
10.226	64.2131
10.244	64.1968
10.262	64.1991
10.28	64.2209
10.298	64.2556
10.316	64.2924
10.334	64.3213
10.352	64.3351
10.37	64.3288
10.388	64.3014
10.406	64.2565
10.424	64.203
10.442	64.1544
10.46	64.1237
10.478	64.1192
10.496	64.1399
10.514	64.176
10.532	64.2128
10.55	64.239
10.568	64.2511
10.586	64.2542
10.604	64.2564
10.622	64.2638
10.64	64.2746
10.658	64.2822
10.676	64.279
10.694	64.2626
10.712	64.2362
10.73	64.2062
10.748	64.1775
10.766	64.1518
10.784	64.1281
10.802	64.1044
10.82	64.0798
10.838	64.0553
10.856	64.0345
10.874	64.0227
10.892	64.0252
10.91	64.0457
10.928	64.0826
10.946	64.128
10.964	64.1695
10.982	64.1942
11	64.1944
11.018	64.1718
11.036	64.1368
11.054	64.1048
11.072	64.0882
11.09	64.0931
11.108	64.1168
11.126	64.1489
11.144	64.1769
11.162	64.1896
11.18	64.1814
11.198	64.1539
11.216	64.1145
11.234	64.0747
11.252	64.0472
11.27	64.0404
11.288	64.0577
11.306	64.0953
11.324	64.143
11.342	64.1879
11.36	64.2188
11.378	64.2286
11.396	64.2176
11.414	64.1922
11.432	64.1628
11.45	64.1396
11.468	64.1303
11.486	64.137
11.504	64.1569
11.522	64.1831
11.54	64.2087
11.558	64.2272
11.576	64.2352
11.594	64.2333
11.612	64.2243
11.63	64.2127
11.648	64.2022
11.666	64.1956
11.684	64.1941
11.702	64.1977
11.72	64.2058
11.738	64.218
11.756	64.234
11.774	64.2532
11.792	64.2739
11.81	64.2928
11.828	64.3052
11.846	64.306
11.864	64.2914
11.882	64.26
11.9	64.2127
11.918	64.1536
11.936	64.0886
11.954	64.0242
11.972	63.9672
11.99	63.9228
12.008	63.894
12.026	63.8816
12.044	63.8836
12.062	63.8964
12.08	63.9162
12.098	63.9395
12.116	63.9644
12.134	63.9908
12.152	64.0192
12.17	64.0498
12.188	64.0809
12.206	64.1088
12.224	64.1289
12.242	64.137
12.26	64.1313
12.278	64.113
12.296	64.0855
12.314	64.054
12.332	64.0235
12.35	63.9974
12.368	63.9775
12.386	63.964
12.404	63.9567
12.422	63.9553
12.44	63.96
12.458	63.9714
12.476	63.9894
12.494	64.0131
12.512	64.0398
12.53	64.066
12.548	64.0883
12.566	64.1035
12.584	64.1106
12.602	64.1101
12.62	64.1041
12.638	64.0958
12.656	64.0885
12.674	64.0848
12.692	64.0863
12.71	64.0932
12.728	64.1051
12.746	64.1206
12.764	64.1377
12.782	64.1536
12.8	64.1657
12.818	64.1713
12.836	64.1682
12.854	64.155
12.872	64.1322
12.89	64.1016
12.908	64.0662
12.926	64.0297
12.944	63.9961
12.962	63.9686
12.98	63.9493
12.998	63.9388
13.016	63.9364
13.034	63.9412
13.052	63.9513
13.07	63.9653
13.088	63.9816
13.106	63.9999
13.124	64.0196
13.142	64.0406
13.16	64.0631
13.178	64.0875
13.196	64.1144
13.214	64.1443
13.232	64.1776
13.25	64.2142
13.268	64.2532
13.286	64.293
13.304	64.3315
13.322	64.3661
13.34	64.3943
13.358	64.4138
13.376	64.4232
13.394	64.4224
13.412	64.4123
13.43	64.3947
13.448	64.372
13.466	64.3466
13.484	64.3209
13.502	64.2959
13.52	64.2721
13.538	64.2495
13.556	64.2283
13.574	64.2086
13.592	64.1913
13.61	64.178
13.628	64.1704
13.646	64.1697
13.664	64.176
13.682	64.188
13.7	64.2026
13.718	64.2152
13.736	64.221
13.754	64.2154
13.772	64.1952
13.79	64.1599
13.808	64.1115
13.826	64.0542
13.844	63.994
13.862	63.9369
13.88	63.8884
13.898	63.8525
13.916	63.8309
13.934	63.8238
13.952	63.8294
13.97	63.8452
13.988	63.8683
14.006	63.8961
14.024	63.9269
14.042	63.959
14.06	63.9913
14.078	64.0229
14.096	64.0528
14.114	64.08
14.132	64.1034
14.15	64.1221
14.168	64.1355
14.186	64.1436
14.204	64.1472
14.222	64.1474
14.24	64.1453
14.258	64.1417
14.276	64.1373
14.294	64.1324
14.312	64.1271
14.33	64.1216
14.348	64.1165
14.366	64.113
14.384	64.1125
14.402	64.1169
14.42	64.1277
14.438	64.1462
14.456	64.1725
14.474	64.2057
14.492	64.2435
14.51	64.2826
14.528	64.319
14.546	64.3482
14.564	64.3663
14.582	64.3701
14.6	64.3576
14.618	64.3281
14.636	64.2833
14.654	64.2264
14.672	64.1618
14.69	64.0949
14.708	64.0308
14.726	63.9752
14.744	63.9329
14.762	63.9066
14.78	63.8978
14.798	63.9059
14.816	63.9292
14.834	63.9646
14.852	64.0074
14.87	64.0534
14.888	64.0985
14.906	64.1395
14.924	64.174
14.942	64.2007
14.96	64.2199
14.978	64.2325
14.996	64.24
15.014	64.244
15.032	64.2461
15.05	64.2473
15.068	64.2481
15.086	64.2484
15.104	64.2477
15.122	64.2453
15.14	64.2402
15.158	64.232
15.176	64.2205
15.194	64.2059
15.212	64.1886
15.23	64.1695
15.248	64.1493
15.266	64.1288
15.284	64.1085
15.302	64.0888
15.32	64.0698
15.338	64.0515
15.356	64.0338
15.374	64.0169
15.392	64.0013
15.41	63.9873
15.428	63.9753
15.446	63.9658
15.464	63.9593
15.482	63.9559
15.5	63.9555
15.518	63.9574
15.536	63.9607
15.554	63.9643
15.572	63.9667
15.59	63.9665
15.608	63.963
15.626	63.9556
15.644	63.9442
15.662	63.9291
15.68	63.9111
15.698	63.891
15.716	63.8702
15.734	63.8499
15.752	63.8307
15.77	63.8134
15.788	63.7985
15.806	63.7858
15.824	63.7754
15.842	63.767
15.86	63.7603
15.878	63.7552
15.896	63.7514
15.914	63.7491
15.932	63.7483
15.95	63.7493
15.968	63.7525
15.986	63.7581
16.004	63.7665
16.022	63.778
16.04	63.7927
16.058	63.8109
16.076	63.8324
16.094	63.857
16.112	63.8842
16.13	63.9136
16.148	63.9446
16.166	63.976
16.184	64.0069
16.202	64.036
16.22	64.0614
16.238	64.0818
16.256	64.0961
16.274	64.1026
16.292	64.1007
16.31	64.09
16.328	64.0705
16.346	64.0431
16.364	64.0086
16.382	63.9689
16.4	63.926
16.418	63.8814
16.436	63.8378
16.454	63.7966
16.472	63.7593
16.49	63.7272
16.508	63.7007
16.526	63.6801
16.544	63.6649
16.562	63.6547
16.58	63.6488
16.598	63.6461
16.616	63.646
16.634	63.6481
16.652	63.6515
16.67	63.6564
16.688	63.6626
16.706	63.6707
16.724	63.6809
16.742	63.6941
16.76	63.7108
16.778	63.7315
16.796	63.7566
16.814	63.7859
16.832	63.8192
16.85	63.8557
16.868	63.8945
16.886	63.9347
16.904	63.9743
16.922	64.0124
16.94	64.0475
16.958	64.078
16.976	64.1031
16.994	64.1218
17.012	64.1337
17.03	64.1385
17.048	64.1363
17.066	64.1276
17.084	64.113
17.102	64.0938
17.12	64.0706
17.138	64.0456
17.156	64.0201
17.174	63.9954
17.192	63.9739
17.21	63.9561
17.228	63.9439
17.246	63.9376
17.264	63.9375
17.282	63.9431
17.3	63.9537
17.318	63.9678
17.336	63.9836
17.354	63.9999
17.372	64.0135
17.39	64.0236
17.408	64.0281
17.426	64.0265
17.444	64.0179
17.462	64.0032
17.48	63.9832
17.498	63.9599
17.516	63.9356
17.534	63.9123
17.552	63.8938
17.57	63.8813
17.588	63.8783
17.606	63.8853
17.624	63.9038
17.642	63.9333
17.66	63.9737
17.678	64.0224
17.696	64.0785
17.714	64.138
17.732	64.1991
17.75	64.2591
17.768	64.3148
17.786	64.3651
17.804	64.4076
17.822	64.4419
17.84	64.467
17.858	64.4834
17.876	64.4911
17.894	64.4912
17.912	64.4841
17.93	64.4709
17.948	64.452
17.966	64.4285
17.984	64.4009
18.002	64.3701
18.02	64.3366
18.038	64.301
18.056	64.2643
18.074	64.2268
18.092	64.1901
18.11	64.1545
18.128	64.1216
18.146	64.092
18.164	64.0674
18.182	64.0485
18.2	64.0364
18.218	64.0315
18.236	64.0342
18.254	64.0438
18.272	64.0604
18.29	64.0823
18.308	64.1093
18.326	64.139
18.344	64.171
18.362	64.2026
18.38	64.233
18.398	64.2602
18.416	64.2834
18.434	64.3014
18.452	64.3138
18.47	64.3202
18.488	64.3211
18.506	64.3164
18.524	64.3074
18.542	64.2945
18.56	64.2792
18.578	64.2617
18.596	64.2438
18.614	64.2254
18.632	64.2082
18.65	64.1922
18.668	64.1778
18.686	64.165
18.704	64.154
18.722	64.1444
18.74	64.1354
18.758	64.1266
18.776	64.1172
18.794	64.1066
18.812	64.0934
18.83	64.0771
18.848	64.0564
18.866	64.0311
18.884	64.0003
18.902	63.9642
18.92	63.9228
18.938	63.8768
18.956	63.827
18.974	63.7747
18.992	63.7213
19.01	63.6688
19.028	63.6197
19.046	63.5761
19.064	63.5411
19.082	63.5165
19.1	63.506
19.118	63.5106
19.136	63.5335
19.154	63.575
19.172	63.6375
19.19	63.7201
19.208	63.8232
19.226	63.9456
19.244	64.0849
19.262	64.2399
19.28	64.405
19.298	64.5794
19.316	64.7549
19.334	64.9316
19.352	65.0994
19.37	65.259
19.388	65.4009
19.406	65.5256
19.424	65.6261
19.442	65.7023
19.46	65.7511
19.478	65.7718
19.496	65.7657
19.514	65.7317
19.532	65.6744
19.55	65.5947
19.568	65.497
19.586	65.3853
19.604	65.2624
19.622	65.1357
19.64	65.0055
19.658	64.8796
19.676	64.7574
19.694	64.6458
19.712	64.5445
19.73	64.4559
19.748	64.3807
19.766	64.3177
19.784	64.2676
19.802	64.2274
19.82	64.1959
19.838	64.1711
19.856	64.1498
19.874	64.1316
19.892	64.1123
19.91	64.0922
19.928	64.0683
19.946	64.0407
19.964	64.0088
19.982	63.9722
20	63.9323
20.018	63.8893
20.036	63.8446
20.054	63.8002
20.072	63.7563
20.09	63.7161
20.108	63.6791
20.126	63.6474
20.144	63.6212
20.162	63.6004
20.18	63.5856
20.198	63.5755
20.216	63.5694
20.234	63.5669
20.252	63.5651
20.27	63.5647
20.288	63.5626
20.306	63.5587
20.324	63.5516
20.342	63.5399
20.36	63.5241
20.378	63.5035
20.396	63.4782
20.414	63.4496
20.432	63.4173
20.45	63.3832
20.468	63.3479
20.486	63.3122
20.504	63.2785
20.522	63.2463
20.54	63.218
20.558	63.1932
20.576	63.1732
20.594	63.1589
20.612	63.1495
20.63	63.1447
20.648	63.1445
20.666	63.1481
20.684	63.1556
20.702	63.1664
20.72	63.1795
20.738	63.1955
20.756	63.2144
20.774	63.2359
20.792	63.2618
20.81	63.2916
20.828	63.3269
20.846	63.3694
20.864	63.4188
20.882	63.4778
20.9	63.5463
20.918	63.6252
20.936	63.7157
20.954	63.8172
20.972	63.9292
20.99	64.0526
21.008	64.1837
21.026	64.3225
21.044	64.467
21.062	64.6114
21.08	64.7577
21.098	64.898
21.116	65.0312
21.134	65.1549
21.152	65.2619
21.17	65.3543
21.188	65.4259
21.206	65.4756
21.224	65.5032
21.242	65.5058
21.26	65.4842
21.278	65.4404
21.296	65.3731
21.314	65.2855
21.332	65.1823
21.35	65.0614
21.368	64.9318
21.386	64.7945
21.404	64.652
21.422	64.5132
21.44	64.3753
21.458	64.246
21.476	64.1287
21.494	64.0224
21.512	63.9327
21.53	63.8591
21.548	63.8013
21.566	63.7606
21.584	63.7361
21.602	63.7236
21.62	63.7247
21.638	63.7352
21.656	63.7503
21.674	63.7718
21.692	63.7927
21.71	63.8116
21.728	63.8277
21.746	63.8348
21.764	63.8339
21.782	63.8236
21.8	63.8014
21.818	63.7685
21.836	63.7259
21.854	63.6723
21.872	63.6104
21.89	63.5446
21.908	63.4727
21.926	63.4007
21.944	63.3319
21.962	63.265
21.98	63.2077
21.998	63.1601
22.016	63.1234
22.034	63.1023
22.052	63.0959
22.07	63.1048
22.088	63.1308
22.106	63.1731
22.124	63.2295
22.142	63.3008
22.16	63.3852
22.178	63.4767
22.196	63.5779
22.214	63.6836
22.232	63.7874
22.25	63.8926
22.268	63.992
22.286	64.0817
22.304	64.1638
22.322	64.2324
22.34	64.2865
22.358	64.3267
22.376	64.3501
22.394	64.3565
22.412	64.3469
22.43	64.3218
22.448	64.2803
22.466	64.2253
22.484	64.1584
22.502	64.0786
22.52	63.9904
22.538	63.8954
22.556	63.7927
22.574	63.6876
22.592	63.5803
22.61	63.4711
22.628	63.3646
22.646	63.2602
22.664	63.1587
22.682	63.0632
22.7	62.9726
22.718	62.8882
22.736	62.8115
22.754	62.7417
22.772	62.6802
22.79	62.6281
22.808	62.5846
22.826	62.5514
22.844	62.5292
22.862	62.5174
22.88	62.5176
22.898	62.5302
22.916	62.5549
22.934	62.593
22.952	62.6449
22.97	62.7102
22.988	62.7893
23.006	62.8828
23.024	62.99
23.042	63.11
23.06	63.2434
23.078	63.3895
23.096	63.5458
23.114	63.7132
23.132	63.8905
23.15	64.0732
23.168	64.2626
23.186	64.4571
23.204	64.6509
23.222	64.8457
23.24	65.0395
23.258	65.2252
23.276	65.4042
23.294	65.5753
23.312	65.7318
23.33	65.8752
23.348	66.0043
23.366	66.1129
23.384	66.2014
23.402	66.2698
23.42	66.3139
23.438	66.3338
23.456	66.3297
23.474	66.2993
23.492	66.2416
23.51	66.1578
23.528	66.048
23.546	65.9115
23.564	65.7489
23.582	65.5627
23.6	65.3527
23.618	65.1188
23.636	64.8654
23.654	64.5941
23.672	64.303
23.69	63.9984
23.708	63.6838
23.726	63.3556
23.744	63.0211
23.762	62.686
23.78	62.3454
23.798	62.0064
23.816	61.6767
23.834	61.3514
23.852	61.0358
23.87	60.7386
23.888	60.4561
23.906	60.1912
23.924	59.9532
23.942	59.7412
23.96	59.5547
23.978	59.4018
23.996	59.2848
24.014	59.2008
24.032	59.1548
24.05	59.1502
24.068	59.1845
24.086	59.2587
24.104	59.3741
24.122	59.5314
24.14	59.7276
24.158	59.9592
24.176	60.2297
24.194	60.5351
24.212	60.8671
24.23	61.2266
24.248	61.6143
24.266	62.0186
24.284	62.4338
24.302	62.8669
24.32	63.3056
24.338	63.7386
24.356	64.1746
24.374	64.605
24.392	65.016
24.41	65.411
24.428	65.7894
24.446	66.1393
24.464	66.4558
24.482	66.7445
24.5	66.9989
24.518	67.2133
24.536	67.391
24.554	67.531
24.572	67.6309
24.59	67.69
24.608	67.7098
24.626	67.6921
24.644	67.6366
24.662	67.5424
24.68	67.4141
24.698	67.2559
24.716	67.0637
24.734	66.8419
24.752	66.5975
24.77	66.3296
24.788	66.0373
24.806	65.7286
24.824	65.4086
24.842	65.0715
24.86	64.7242
24.878	64.375
24.896	64.0206
24.914	63.6619
24.932	63.3069
24.95	62.9588
24.968	62.6128
24.986	62.2758
25.004	61.9549
25.022	61.6471
25.04	61.3533
25.058	61.0785
25.076	60.8253
25.094	60.5906
25.112	60.377
25.13	60.1875
25.148	60.0216
25.166	59.8784
25.184	59.7573
25.202	59.6586
25.22	59.5829
25.238	59.5272
25.256	59.4884
25.274	59.4695
25.292	59.4681
25.31	59.4784
25.328	59.4976
25.346	59.5305
25.364	59.5704
25.382	59.6095
25.4	59.65
25.418	59.6926
25.436	59.7307
25.454	59.7594
25.472	59.7823
25.49	59.798
25.508	59.8037
25.526	59.7998
25.544	59.7877
25.562	59.7627
25.58	59.7206
25.598	59.6641
25.616	59.5923
25.634	59.5011
25.652	59.3872
25.67	59.2514
25.688	59.0971
25.706	58.9278
25.724	58.7413
25.742	58.5373
25.76	58.3231
25.778	58.1047
25.796	57.8685
25.814	57.6267
25.832	57.4021
25.85	57.2074
25.868	57.0213
25.886	56.8658
25.904	56.7691
25.922	56.7479
25.94	56.7876
25.958	56.8751
25.976	56.998
25.994	57.168
26.012	57.3806
26.03	57.6123
26.048	57.8424
26.066	58.0848
26.084	58.3357
26.102	58.5827
26.12	58.8169
26.138	59.0458
26.156	59.2678
26.174	59.4801
26.192	59.6629
26.21	59.8091
26.228	59.9754
26.246	60.2201
26.264	60.5376
26.282	60.9046
26.3	61.3671
26.318	61.9705
26.336	62.7169
26.354	63.5858
26.372	64.5707
26.39	65.6672
26.408	66.9009
26.426	68.2476
26.444	69.6633
26.462	71.1228
26.48	72.7272
26.498	74.3719
26.516	75.8999
26.534	77.1983
26.552	78.3952
26.57	79.4239
26.588	80.1738
26.606	80.5598
26.624	80.6356
26.642	80.4263
26.66	79.9469
26.678	79.1855
26.696	78.0981
26.714	76.7762
26.732	75.322
26.75	73.7348
26.768	71.8666
26.786	69.9619
26.804	68.2916
26.822	66.9827
26.84	65.8232
26.858	64.9493
26.876	64.5241
26.894	64.6629
26.912	65.2834
26.93	66.3265
26.948	67.7404
26.966	69.666
26.984	72.3916
27.002	75.2599
27.02	77.5533
27.028	78.1386