File: Bakgrunnsmateriale/MATLAB/FTIR/ftir_data/subAa/Mapping_121/BZ1503107-1_t02.asc
PE IR       SPECTRUM    SPECTRUM    ASCII       PEDS        1.60
  -1
BZ1155~1.ASC
17/04/07
13:25:07.00
17/04/07
13:25:33.00
tln
$BZ1503107-1_t0002$<tbV0>[10.4,-13.0,8.0,0.0,27,1,0]
27.028
64

2002,4.07
MIRTGS : RIGHTBACK : INTERNAL 2
MIR : ON : INTERNAL 2
OPTKBR

0.200000
8
8.000000
FILLER
RATIO
SPECTRUM
UNLOCKED 256

DOUBLE
64
COMBINED
1
0
0

0.002000
RATIO

1
0
TRUE
51149
0
LEFT NOT FITTED RIGHT NOT FITTED 0
NONE
NONE
15600
12
4.427000
51148
TRUE
1 0 8 72 0 0 0 0

15798

#HDR
-1
-1
#GR
µM
%T
2.38419e-05
0.0
2.000000
0.002000
12515
8
69.6666
6.861902
#DATA
2.000000	 65.1864
2.018000	 64.86
2.036000	 63.9674
2.054000	 61.7606
2.072000	 64.5635
2.090000	 64.7903
2.108000	 64.7735
2.126000	 64.8215
2.144000	 64.9899
2.162000	 64.8152
2.180000	 65.1152
2.198000	 64.3685
2.216000	 64.6279
2.234000	 68.8356
2.252000	 65.8879
2.270000	 65.2596
2.288000	 64.9859
2.306000	 64.9242
2.324000	 65.207
2.342000	 64.9724
2.360000	 65.2371
2.378000	 65.0446
2.396000	 65.2359
2.414000	 64.9692
2.432000	 65.3001
2.450000	 65.3476
2.468000	 65.1083
2.486000	 65.1606
2.504000	 65.2117
2.522000	 65.2604
2.540000	 65.2556
2.558000	 65.1273
2.576000	 65.3253
2.594000	 65.2707
2.612000	 65.2584
2.630000	 65.2663
2.648000	 65.1175
2.666000	 65.5406
2.684000	 65.2056
2.702000	 65.1982
2.720000	 65.4967
2.738000	 65.2662
2.756000	 65.3246
2.774000	 65.2279
2.792000	 65.1675
2.810000	 65.1128
2.828000	 65.1741
2.846000	 64.9338
2.864000	 64.8973
2.882000	 65.1268
2.900000	 64.9356
2.918000	 65.357
2.936000	 65.1579
2.954000	 65.179
2.972000	 65.2748
2.990000	 64.8914
3.008000	 65.2492
3.026000	 65.0417
3.044000	 65.1871
3.062000	 65.0571
3.080000	 65.0424
3.098000	 65.1675
3.116000	 65.2266
3.134000	 65.1672
3.152000	 65.2698
3.170000	 65.2993
3.188000	 65.1354
3.206000	 65.1582
3.224000	 65.0845
3.242000	 65.1338
3.260000	 65.0322
3.278000	 65.1587
3.296000	 65.147
3.314000	 65.2926
3.332000	 65.0457
3.350000	 65.0832
3.368000	 65.0437
3.386000	 65.0702
3.404000	 65.0895
3.422000	 65.1345
3.440000	 64.9968
3.458000	 65.0487
3.476000	 65.1492
3.494000	 64.8579
3.512000	 65.0368
3.530000	 65.2145
3.548000	 65.061
3.566000	 65.0907
3.584000	 65.0551
3.602000	 65.1512
3.620000	 65.0606
3.638000	 65.0254
3.656000	 65.1372
3.674000	 65.078
3.692000	 64.9986
3.710000	 65.101
3.728000	 65.0418
3.746000	 65.1628
3.764000	 65.0852
3.782000	 64.959
3.800000	 64.998
3.818000	 64.9501
3.836000	 65.0888
3.854000	 65.1756
3.872000	 65.0522
3.890000	 65.088
3.908000	 65.0927
3.926000	 65.1229
3.944000	 65.0577
3.962000	 64.9808
3.980000	 65.1083
3.998000	 64.8812
4.016000	 64.9047
4.034000	 65.0447
4.052000	 65.013
4.070000	 64.9587
4.088000	 65.0991
4.106000	 65.0891
4.124000	 64.9479
4.141999	 65.0335
4.160000	 64.8016
4.178000	 64.9224
4.196000	 64.9955
4.214000	 64.9972
4.232000	 65.1269
4.250000	 65.1258
4.268000	 65.0164
4.286000	 64.9295
4.304000	 64.9983
4.322000	 65.0771
4.340000	 64.9292
4.358000	 64.9481
4.375999	 64.9532
4.394000	 64.964
4.412000	 64.9167
4.430000	 64.9982
4.448000	 65.0712
4.466000	 64.9734
4.484000	 64.9544
4.502000	 64.9604
4.520000	 64.9937
4.538000	 65.0395
4.556000	 65.0132
4.574000	 64.8598
4.592000	 64.7971
4.609999	 65.0053
4.628000	 64.9456
4.646000	 64.9615
4.664000	 64.8293
4.682000	 64.8682
4.700000	 64.9732
4.718000	 65.0097
4.736000	 64.9778
4.754000	 64.9326
4.772000	 64.9599
4.790000	 64.9687
4.808000	 64.9427
4.826000	 64.9124
4.843999	 64.7888
4.862000	 64.8334
4.880000	 64.9325
4.898000	 64.9454
4.916000	 64.9303
4.934000	 64.9339
4.952000	 64.8487
4.970000	 64.9138
4.988000	 64.9881
5.006000	 64.8359
5.024000	 64.8518
5.042000	 64.8916
5.060000	 64.8801
5.077999	 64.9606
5.096000	 64.9886
5.114000	 64.9137
5.132000	 64.8526
5.150000	 64.8607
5.168000	 64.8388
5.186000	 64.8206
5.204000	 64.8305
5.222000	 64.9241
5.240000	 64.8402
5.258000	 64.8081
5.276000	 64.8905
5.294000	 64.9393
5.312000	 64.7884
5.330000	 64.7318
5.348000	 64.8273
5.366000	 64.9382
5.384000	 64.9341
5.402000	 64.8721
5.420000	 64.7528
5.438000	 64.7846
5.456000	 64.8961
5.474000	 64.7633
5.492000	 64.777
5.510000	 64.8632
5.528000	 64.8072
5.546000	 64.752
5.564000	 64.7054
5.582000	 64.7141
5.600000	 64.7828
5.618000	 64.7101
5.636000	 64.6662
5.654000	 64.6846
5.672000	 64.7357
5.690000	 64.7729
5.708000	 64.7875
5.726000	 64.7258
5.744000	 64.671
5.762000	 64.6019
5.780000	 64.5522
5.798000	 64.5573
5.816000	 64.6292
5.834000	 64.6112
5.852000	 64.5819
5.870000	 64.7186
5.888000	 64.8672
5.906000	 64.7492
5.923999	 64.79
5.942000	 64.8752
5.960000	 64.7837
5.978000	 64.7993
5.996000	 64.8108
6.014000	 64.774
6.032000	 64.7167
6.050000	 64.6358
6.068000	 64.5837
6.086000	 64.6448
6.104000	 64.7296
6.122000	 64.7455
6.140000	 64.7239
6.158000	 64.7014
6.176000	 64.6537
6.194000	 64.6385
6.212000	 64.6813
6.230000	 64.6899
6.248000	 64.6704
6.266000	 64.6633
6.284000	 64.6944
6.302000	 64.7562
6.320000	 64.8097
6.338000	 64.8508
6.356000	 64.7724
6.374000	 64.6439
6.392000	 64.6998
6.410000	 64.8268
6.428000	 64.7523
6.446000	 64.6687
6.464000	 64.7401
6.482000	 64.7195
6.500000	 64.6164
6.518000	 64.6545
6.536000	 64.7139
6.554000	 64.6816
6.572000	 64.6476
6.590000	 64.6677
6.608000	 64.6869
6.626000	 64.6669
6.644000	 64.6567
6.662000	 64.6535
6.680000	 64.6584
6.698000	 64.6211
6.716000	 64.5354
6.734000	 64.541
6.752000	 64.6216
6.770000	 64.7173
6.788000	 64.7437
6.806000	 64.642
6.824000	 64.552
6.842000	 64.5456
6.860000	 64.5381
6.878000	 64.5242
6.896000	 64.5254
6.914000	 64.5295
6.932000	 64.5948
6.950000	 64.6915
6.968000	 64.7251
6.986000	 64.6993
7.004000	 64.629
7.022000	 64.5683
7.040000	 64.5915
7.058000	 64.6225
7.076000	 64.5816
7.094000	 64.5287
7.112000	 64.5179
7.130000	 64.512
7.148000	 64.4763
7.166000	 64.4535
7.184000	 64.4709
7.202000	 64.4848
7.220000	 64.4786
7.238000	 64.465
7.256000	 64.4386
7.274000	 64.4155
7.292000	 64.43
7.310000	 64.4884
7.328000	 64.5519
7.346000	 64.5736
7.364000	 64.5654
7.382000	 64.5553
7.400000	 64.5281
7.418000	 64.5047
7.436000	 64.525
7.454000	 64.541
7.472000	 64.5057
7.490000	 64.4776
7.508000	 64.4996
7.526000	 64.519
7.544000	 64.4918
7.562000	 64.4483
7.580000	 64.4209
7.598000	 64.3998
7.616000	 64.3768
7.634000	 64.3649
7.652000	 64.3706
7.670000	 64.3929
7.688000	 64.4314
7.706000	 64.471
7.724000	 64.49
7.742000	 64.4847
7.760000	 64.4614
7.778000	 64.4273
7.796000	 64.4007
7.814000	 64.3931
7.832000	 64.3841
7.850000	 64.3486
7.868000	 64.2949
7.886000	 64.258
7.904000	 64.2645
7.922000	 64.3047
7.940000	 64.3383
7.958000	 64.3489
7.976000	 64.3604
7.994000	 64.3762
8.012000	 64.3553
8.030000	 64.2886
8.048000	 64.2363
8.065999	 64.2462
8.084000	 64.2923
8.102000	 64.3228
8.120000	 64.3252
8.138000	 64.3123
8.155999	 64.2916
8.173999	 64.2785
8.192000	 64.3025
8.210000	 64.367
8.228000	 64.435
8.246000	 64.4727
8.263999	 64.4805
8.282000	 64.4693
8.300000	 64.44
8.318000	 64.4009
8.336000	 64.3743
8.353999	 64.3765
8.372000	 64.4021
8.390000	 64.4248
8.408000	 64.414
8.426000	 64.3573
8.443999	 64.2742
8.462000	 64.2
8.480000	 64.1571
8.498000	 64.1532
8.516000	 64.1928
8.533999	 64.2696
8.552000	 64.348
8.570000	 64.3801
8.588000	 64.3556
8.606000	 64.3135
8.624000	 64.2963
8.641999	 64.3089
8.660000	 64.3315
8.678000	 64.3495
8.696000	 64.3529
8.714000	 64.3322
8.731999	 64.2924
8.750000	 64.256
8.768000	 64.2458
8.786000	 64.2684
8.804000	 64.3144
8.821999	 64.365
8.840000	 64.3991
8.858000	 64.4013
8.876000	 64.3726
8.894000	 64.3402
8.911999	 64.3417
8.930000	 64.3871
8.948000	 64.4467
8.966000	 64.4809
8.984000	 64.4685
9.001999	 64.4129
9.020000	 64.3374
9.038000	 64.2755
9.056000	 64.2497
9.074000	 64.2617
9.092000	 64.3024
9.109999	 64.3646
9.128000	 64.4378
9.146000	 64.4993
9.164000	 64.5226
9.182000	 64.5021
9.199999	 64.4642
9.218000	 64.4462
9.236000	 64.4659
9.254000	 64.5116
9.272000	 64.5529
9.289999	 64.5593
9.308000	 64.5104
9.326000	 64.4062
9.344000	 64.2759
9.362000	 64.1697
9.379999	 64.1269
9.398000	 64.1476
9.416000	 64.1965
9.434000	 64.2323
9.452000	 64.2363
9.469999	 64.2172
9.488000	 64.1959
9.506000	 64.1831
9.524000	 64.1713
9.542000	 64.1465
9.560000	 64.1067
9.577999	 64.0693
9.596000	 64.0583
9.614000	 64.0816
9.632000	 64.1235
9.650000	 64.1581
9.667999	 64.1729
9.686000	 64.1751
9.704000	 64.1792
9.722000	 64.1904
9.740000	 64.202
9.757999	 64.2065
9.776000	 64.2055
9.794000	 64.2069
9.812000	 64.2136
9.830000	 64.2187
9.847999	 64.2117
9.866000	 64.1897
9.884000	 64.1601
9.902000	 64.1367
9.920000	 64.1312
9.937999	 64.1476
9.956000	 64.181
9.974000	 64.2218
9.992000	 64.2616
10.01	64.2946
10.028	64.3181
10.046	64.3314
10.064	64.3343
10.082	64.327
10.1	64.3096
10.118	64.2807
10.136	64.2382
10.154	64.1817
10.172	64.1153
10.19	64.0504
10.208	64.0016
10.226	63.9796
10.244	63.9871
10.262	64.0173
10.28	64.0592
10.298	64.1033
10.316	64.1454
10.334	64.185
10.352	64.2226
10.37	64.255
10.388	64.2749
10.406	64.2754
10.424	64.2552
10.442	64.2244
10.46	64.2004
10.478	64.2009
10.496	64.2332
10.514	64.289
10.532	64.3476
10.55	64.3876
10.568	64.3976
10.586	64.3813
10.604	64.3521
10.622	64.3253
10.64	64.3098
10.658	64.3062
10.676	64.3107
10.694	64.3198
10.712	64.3322
10.73	64.3483
10.748	64.3663
10.766	64.3811
10.784	64.386
10.802	64.3777
10.82	64.3595
10.838	64.3417
10.856	64.3369
10.874	64.3544
10.892	64.3944
10.91	64.4467
10.928	64.4954
10.946	64.5241
10.964	64.5246
10.982	64.4977
11	64.4518
11.018	64.3994
11.036	64.3515
11.054	64.3158
11.072	64.2953
11.09	64.2896
11.108	64.2958
11.126	64.3082
11.144	64.3197
11.162	64.323
11.18	64.3138
11.198	64.2929
11.216	64.2655
11.234	64.2391
11.252	64.2197
11.27	64.2099
11.288	64.2085
11.306	64.2133
11.324	64.2221
11.342	64.2332
11.36	64.2457
11.378	64.257
11.396	64.2635
11.414	64.2614
11.432	64.249
11.45	64.228
11.468	64.2036
11.486	64.1818
11.504	64.1661
11.522	64.1573
11.54	64.1536
11.558	64.1516
11.576	64.1491
11.594	64.1454
11.612	64.1425
11.63	64.1445
11.648	64.1566
11.666	64.1835
11.684	64.2275
11.702	64.2871
11.72	64.3567
11.738	64.4278
11.756	64.4918
11.774	64.5408
11.792	64.569
11.81	64.5738
11.828	64.555
11.846	64.5138
11.864	64.453
11.882	64.377
11.9	64.292
11.918	64.2066
11.936	64.1299
11.954	64.0696
11.972	64.0302
11.99	64.0114
12.008	64.0086
12.026	64.0151
12.044	64.0239
12.062	64.0302
12.08	64.033
12.098	64.0341
12.116	64.037
12.134	64.0449
12.152	64.0591
12.17	64.0789
12.188	64.1024
12.206	64.1277
12.224	64.1536
12.242	64.1806
12.26	64.2103
12.278	64.2441
12.296	64.2825
12.314	64.3241
12.332	64.3652
12.35	64.4
12.368	64.4218
12.386	64.4261
12.404	64.4113
12.422	64.3807
12.44	64.3418
12.458	64.3041
12.476	64.2762
12.494	64.2635
12.512	64.2665
12.53	64.2809
12.548	64.2991
12.566	64.3133
12.584	64.3175
12.602	64.3096
12.62	64.291
12.638	64.2661
12.656	64.2404
12.674	64.2181
12.692	64.2017
12.71	64.1918
12.728	64.1876
12.746	64.1878
12.764	64.1909
12.782	64.1966
12.8	64.2047
12.818	64.2156
12.836	64.2301
12.854	64.2489
12.872	64.2728
12.89	64.3012
12.908	64.3327
12.926	64.3646
12.944	64.3931
12.962	64.4138
12.98	64.4221
12.998	64.4155
13.016	64.3931
13.034	64.3564
13.052	64.3091
13.07	64.2564
13.088	64.2036
13.106	64.1549
13.124	64.113
13.142	64.0783
13.16	64.05
13.178	64.0259
13.196	64.0044
13.214	63.984
13.232	63.9638
13.25	63.9437
13.268	63.9238
13.286	63.9051
13.304	63.8885
13.322	63.8756
13.34	63.8682
13.358	63.8685
13.376	63.8786
13.394	63.9002
13.412	63.9336
13.43	63.9782
13.448	64.0315
13.466	64.0894
13.484	64.147
13.502	64.1989
13.52	64.2401
13.538	64.2673
13.556	64.2795
13.574	64.2783
13.592	64.2672
13.61	64.2517
13.628	64.2374
13.646	64.2292
13.664	64.2304
13.682	64.2421
13.7	64.2629
13.718	64.2899
13.736	64.3187
13.754	64.3451
13.772	64.3654
13.79	64.377
13.808	64.3792
13.826	64.3723
13.844	64.3577
13.862	64.3372
13.88	64.3127
13.898	64.2863
13.916	64.2599
13.934	64.2356
13.952	64.2153
13.97	64.201
13.988	64.1942
14.006	64.1957
14.024	64.2051
14.042	64.2204
14.06	64.2382
14.078	64.2546
14.096	64.2658
14.114	64.2688
14.132	64.2615
14.15	64.2436
14.168	64.2162
14.186	64.1818
14.204	64.1432
14.222	64.1036
14.24	64.065
14.258	64.0291
14.276	63.9963
14.294	63.9668
14.312	63.9408
14.33	63.9186
14.348	63.9013
14.366	63.8906
14.384	63.8886
14.402	63.8974
14.42	63.9183
14.438	63.9513
14.456	63.995
14.474	64.0465
14.492	64.1015
14.51	64.1548
14.528	64.2013
14.546	64.2369
14.564	64.2589
14.582	64.2663
14.6	64.2596
14.618	64.2411
14.636	64.2142
14.654	64.1826
14.672	64.1501
14.69	64.1197
14.708	64.0938
14.726	64.074
14.744	64.0611
14.762	64.0551
14.78	64.0558
14.798	64.0625
14.816	64.0745
14.834	64.0908
14.852	64.11
14.87	64.1311
14.888	64.1529
14.906	64.1742
14.924	64.1943
14.942	64.2127
14.96	64.2294
14.978	64.2451
14.996	64.2607
15.014	64.277
15.032	64.2953
15.05	64.3157
15.068	64.3376
15.086	64.3599
15.104	64.3803
15.122	64.396
15.14	64.404
15.158	64.4019
15.176	64.3881
15.194	64.3619
15.212	64.3246
15.23	64.279
15.248	64.2284
15.266	64.1772
15.284	64.1305
15.302	64.0922
15.32	64.0653
15.338	64.0514
15.356	64.0512
15.374	64.0629
15.392	64.084
15.41	64.1112
15.428	64.1407
15.446	64.1682
15.464	64.1907
15.482	64.2059
15.5	64.2122
15.518	64.2092
15.536	64.1978
15.554	64.1792
15.572	64.155
15.59	64.1278
15.608	64.0997
15.626	64.0727
15.644	64.0489
15.662	64.0299
15.68	64.0166
15.698	64.01
15.716	64.0107
15.734	64.0185
15.752	64.0331
15.77	64.0541
15.788	64.0801
15.806	64.1097
15.824	64.1415
15.842	64.1737
15.86	64.2042
15.878	64.2313
15.896	64.2538
15.914	64.2699
15.932	64.2792
15.95	64.2814
15.968	64.2765
15.986	64.2655
16.004	64.2492
16.022	64.2288
16.04	64.2062
16.058	64.1829
16.076	64.1603
16.094	64.1402
16.112	64.1235
16.13	64.1109
16.148	64.1034
16.166	64.101
16.184	64.1035
16.202	64.1105
16.22	64.1207
16.238	64.133
16.256	64.1463
16.274	64.1583
16.292	64.1674
16.31	64.1723
16.328	64.1709
16.346	64.1623
16.364	64.1459
16.382	64.1215
16.4	64.0897
16.418	64.0513
16.436	64.0082
16.454	63.9626
16.472	63.9163
16.49	63.8724
16.508	63.8332
16.526	63.8002
16.544	63.7756
16.562	63.7598
16.58	63.7532
16.598	63.7555
16.616	63.7658
16.634	63.7831
16.652	63.8051
16.67	63.8301
16.688	63.8565
16.706	63.8821
16.724	63.906
16.742	63.9272
16.76	63.9449
16.778	63.959
16.796	63.9698
16.814	63.9778
16.832	63.9835
16.85	63.9882
16.868	63.9928
16.886	63.9978
16.904	64.0047
16.922	64.0139
16.94	64.0261
16.958	64.0418
16.976	64.0612
16.994	64.0848
17.012	64.1123
17.03	64.1438
17.048	64.1786
17.066	64.2164
17.084	64.2564
17.102	64.2976
17.12	64.3396
17.138	64.381
17.156	64.4211
17.174	64.4592
17.192	64.4942
17.21	64.5255
17.228	64.5524
17.246	64.5743
17.264	64.5906
17.282	64.6004
17.3	64.6035
17.318	64.5991
17.336	64.5869
17.354	64.5666
17.372	64.538
17.39	64.501
17.408	64.4558
17.426	64.4033
17.444	64.3437
17.462	64.2792
17.48	64.2106
17.498	64.1402
17.516	64.0699
17.534	64.0013
17.552	63.9376
17.57	63.8797
17.588	63.8307
17.606	63.7911
17.624	63.7626
17.642	63.7458
17.66	63.7411
17.678	63.7477
17.696	63.7654
17.714	63.7927
17.732	63.8286
17.75	63.8717
17.768	63.92
17.786	63.9727
17.804	64.0274
17.822	64.0833
17.84	64.1384
17.858	64.1916
17.876	64.2417
17.894	64.2872
17.912	64.3275
17.93	64.3609
17.948	64.3871
17.966	64.4052
17.984	64.4151
18.002	64.4165
18.02	64.4099
18.038	64.3954
18.056	64.3746
18.074	64.3476
18.092	64.3168
18.11	64.2826
18.128	64.2476
18.146	64.2123
18.164	64.1789
18.182	64.1483
18.2	64.1218
18.218	64.1006
18.236	64.0852
18.254	64.0767
18.272	64.0755
18.29	64.0822
18.308	64.0968
18.326	64.1196
18.344	64.1502
18.362	64.1884
18.38	64.2337
18.398	64.2849
18.416	64.3411
18.434	64.4012
18.452	64.4633
18.47	64.5264
18.488	64.5878
18.506	64.6466
18.524	64.7002
18.542	64.7479
18.56	64.7872
18.578	64.818
18.596	64.8388
18.614	64.8498
18.632	64.8508
18.65	64.8422
18.668	64.8253
18.686	64.8008
18.704	64.7714
18.722	64.7377
18.74	64.7028
18.758	64.6675
18.776	64.6349
18.794	64.6053
18.812	64.5812
18.83	64.5624
18.848	64.5504
18.866	64.5445
18.884	64.5447
18.902	64.5499
18.92	64.5592
18.938	64.5712
18.956	64.5842
18.974	64.5969
18.992	64.6073
19.01	64.6149
19.028	64.6179
19.046	64.6164
19.064	64.6095
19.082	64.598
19.1	64.5818
19.118	64.562
19.136	64.5398
19.154	64.5158
19.172	64.492
19.19	64.4688
19.208	64.4483
19.226	64.4303
19.244	64.4163
19.262	64.406
19.28	64.3998
19.298	64.3975
19.316	64.3984
19.334	64.4023
19.352	64.4078
19.37	64.4149
19.388	64.4218
19.406	64.4287
19.424	64.434
19.442	64.4378
19.46	64.4392
19.478	64.438
19.496	64.4342
19.514	64.4277
19.532	64.4188
19.55	64.4074
19.568	64.3941
19.586	64.3796
19.604	64.3642
19.622	64.3487
19.64	64.3334
19.658	64.3197
19.676	64.3075
19.694	64.2982
19.712	64.2917
19.73	64.2891
19.748	64.2904
19.766	64.2958
19.784	64.3057
19.802	64.3196
19.82	64.3375
19.838	64.3589
19.856	64.3833
19.874	64.4103
19.892	64.4385
19.91	64.4682
19.928	64.4975
19.946	64.5266
19.964	64.5538
19.982	64.5792
20	64.6016
20.018	64.6205
20.036	64.6357
20.054	64.6461
20.072	64.6521
20.09	64.6527
20.108	64.6482
20.126	64.6385
20.144	64.6234
20.162	64.6035
20.18	64.5786
20.198	64.5494
20.216	64.5164
20.234	64.4797
20.252	64.4406
20.27	64.3988
20.288	64.356
20.306	64.3122
20.324	64.2682
20.342	64.225
20.36	64.1826
20.378	64.1422
20.396	64.1036
20.414	64.0679
20.432	64.035
20.45	64.0052
20.468	63.9785
20.486	63.9549
20.504	63.9346
20.522	63.9177
20.54	63.904
20.558	63.8933
20.576	63.8863
20.594	63.8828
20.612	63.8832
20.63	63.8878
20.648	63.8965
20.666	63.9105
20.684	63.9295
20.702	63.9544
20.72	63.9859
20.738	64.0239
20.756	64.0691
20.774	64.1216
20.792	64.1813
20.81	64.2486
20.828	64.3225
20.846	64.4022
20.864	64.4879
20.882	64.5765
20.9	64.6689
20.918	64.7619
20.936	64.8537
20.954	64.9439
20.972	65.0278
20.99	65.1063
21.008	65.1758
21.026	65.2346
21.044	65.2827
21.062	65.3171
21.08	65.3384
21.098	65.3463
21.116	65.34
21.134	65.3209
21.152	65.2905
21.17	65.2481
21.188	65.1981
21.206	65.1405
21.224	65.0774
21.242	65.0136
21.26	64.9474
21.278	64.8842
21.296	64.8247
21.314	64.7699
21.332	64.7232
21.35	64.6836
21.368	64.6531
21.386	64.6324
21.404	64.6209
21.422	64.618
21.44	64.6244
21.458	64.6375
21.476	64.6569
21.494	64.6819
21.512	64.7083
21.53	64.7374
21.548	64.7656
21.566	64.7899
21.584	64.8115
21.602	64.8259
21.62	64.8334
21.638	64.833
21.656	64.8223
21.674	64.802
21.692	64.7723
21.71	64.7326
21.728	64.684
21.746	64.6294
21.764	64.5672
21.782	64.5015
21.8	64.4347
21.818	64.3659
21.836	64.3011
21.854	64.2401
21.872	64.1844
21.89	64.1382
21.908	64.1003
21.926	64.0725
21.944	64.0568
21.962	64.0522
21.98	64.0578
21.998	64.0748
22.016	64.101
22.034	64.1325
22.052	64.1714
22.07	64.2127
22.088	64.2531
22.106	64.2943
22.124	64.3304
22.142	64.3603
22.16	64.384
22.178	64.3975
22.196	64.4011
22.214	64.3947
22.232	64.3775
22.25	64.3493
22.268	64.3122
22.286	64.2669
22.304	64.213
22.322	64.1549
22.34	64.0925
22.358	64.0268
22.376	63.963
22.394	63.8997
22.412	63.8391
22.43	63.7852
22.448	63.7367
22.466	63.6946
22.484	63.6606
22.502	63.6341
22.52	63.6136
22.538	63.5992
22.556	63.5907
22.574	63.5843
22.592	63.5802
22.61	63.5776
22.628	63.5715
22.646	63.5631
22.664	63.5508
22.682	63.531
22.7	63.5045
22.718	63.4707
22.736	63.428
22.754	63.3765
22.772	63.3176
22.79	63.2516
22.808	63.1778
22.826	63.0996
22.844	63.0188
22.862	62.9338
22.88	62.8505
22.898	62.771
22.916	62.6937
22.934	62.6241
22.952	62.5639
22.97	62.512
22.988	62.4716
23.006	62.4441
23.024	62.4284
23.042	62.4238
23.06	62.4315
23.078	62.45
23.096	62.4758
23.114	62.5103
23.132	62.5514
23.15	62.5921
23.168	62.6341
23.186	62.6751
23.204	62.7066
23.222	62.7302
23.24	62.7441
23.258	62.7403
23.276	62.7195
23.294	62.6814
23.312	62.6209
23.33	62.5374
23.348	62.4321
23.366	62.3045
23.384	62.1532
23.402	61.9801
23.42	61.7887
23.438	61.5767
23.456	61.3466
23.474	61.107
23.492	60.857
23.51	60.5972
23.528	60.3389
23.546	60.083
23.564	59.8281
23.582	59.5869
23.6	59.3634
23.618	59.1535
23.636	58.9676
23.654	58.8109
23.672	58.6785
23.69	58.5788
23.708	58.5175
23.726	58.4904
23.744	58.5016
23.762	58.5555
23.78	58.6502
23.798	58.7854
23.816	58.9617
23.834	59.1806
23.852	59.4382
23.87	59.7298
23.888	60.059
23.906	60.4213
23.924	60.8072
23.942	61.2191
23.96	61.6555
23.978	62.1034
23.996	62.5604
24.014	63.0307
24.032	63.4989
24.05	63.9562
24.068	64.4116
24.086	64.851
24.104	65.2612
24.122	65.6508
24.14	66.012
24.158	66.3322
24.176	66.615
24.194	66.8592
24.212	67.0565
24.23	67.2049
24.248	67.3076
24.266	67.3606
24.284	67.3613
24.302	67.3112
24.32	67.2121
24.338	67.0645
24.356	66.8656
24.374	66.6211
24.392	66.3389
24.41	66.0153
24.428	65.6529
24.446	65.2629
24.464	64.8483
24.482	64.404
24.5	63.9421
24.518	63.4726
24.536	62.9875
24.554	62.4945
24.572	62.0048
24.59	61.5156
24.608	61.0271
24.626	60.5488
24.644	60.0847
24.662	59.6302
24.68	59.1901
24.698	58.7691
24.716	58.3639
24.734	57.9766
24.752	57.6118
24.77	57.2704
24.788	56.9506
24.806	56.6528
24.824	56.3774
24.842	56.1252
24.86	55.8934
24.878	55.6789
24.896	55.4839
24.914	55.3069
24.932	55.1423
24.95	54.9876
24.968	54.8464
24.986	54.7134
25.004	54.5832
25.022	54.459
25.04	54.339
25.058	54.2173
25.076	54.0918
25.094	53.9657
25.112	53.8346
25.13	53.6938
25.148	53.5455
25.166	53.3891
25.184	53.2214
25.202	53.0407
25.22	52.849
25.238	52.6451
25.256	52.4276
25.274	52.1967
25.292	51.9529
25.31	51.6966
25.328	51.4276
25.346	51.1456
25.364	50.852
25.382	50.5481
25.4	50.2334
25.418	49.9081
25.436	49.5739
25.454	49.2324
25.472	48.8824
25.49	48.5245
25.508	48.1598
25.526	47.7876
25.544	47.4076
25.562	47.0227
25.58	46.6356
25.598	46.2445
25.616	45.8503
25.634	45.4555
25.652	45.062
25.67	44.6688
25.688	44.2754
25.706	43.8817
25.724	43.4892
25.742	43.0973
25.76	42.7028
25.778	42.3029
25.796	41.9052
25.814	41.5027
25.832	41.0822
25.85	40.6363
25.868	40.1774
25.886	39.6927
25.904	39.1662
25.922	38.5931
25.94	37.9822
25.958	37.3275
25.976	36.6225
25.994	35.8669
26.012	35.0637
26.03	34.2137
26.048	33.3165
26.066	32.3633
26.084	31.3657
26.102	30.3406
26.12	29.2958
26.138	28.2132
26.156	27.1143
26.174	26.0258
26.192	24.9656
26.21	23.9208
26.228	22.8789
26.246	21.8275
26.264	20.7635
26.282	19.6929
26.3	18.616
26.318	17.5326
26.336	16.4281
26.354	15.3132
26.372	14.2144
26.39	13.1551
26.408	12.1037
26.426	11.079
26.444	10.1252
26.462	9.272181
26.48	8.444683
26.498	7.710997
26.516	7.178109
26.534	6.924446
26.552	6.866953
26.57	7.042148
26.588	7.514543
26.606	8.336216
26.624	9.480636
26.642	10.9209
26.66	12.6344
26.678	14.6259
26.696	16.9408
26.714	19.4953
26.732	22.1954
26.75	25.0339
26.768	28.137
26.786	31.3077
26.804	34.3267
26.822	37.0965
26.84	39.7941
26.858	42.2916
26.876	44.4382
26.894	46.1452
26.912	47.5107
26.93	48.5249
26.948	49.1672
26.966	49.3383
26.984	48.9259
27.002	48.2552
27.02	47.678
27.028	47.5534