File: Bakgrunnsmateriale/MATLAB/FTIR/ftir_data/subAa/Mapping_121/BZ1503107-1_t41.asc
PE IR       SPECTRUM    SPECTRUM    ASCII       PEDS        1.60
  -1
BZ2D4D~1.ASC
17/04/07
16:33:37.00
17/04/07
16:34:03.00
tln
$BZ1503107-1_t0041$<tbV0>[-5.2,-5.2,8.0,0.0,27,1,0]
27.028
64

2002,4.07
MIRTGS : RIGHTBACK : INTERNAL 2
MIR : ON : INTERNAL 2
OPTKBR

0.200000
8
8.000000
FILLER
RATIO
SPECTRUM
UNLOCKED 256

DOUBLE
64
COMBINED
1
0
0

0.002000
RATIO

1
0
TRUE
51149
0
LEFT NOT FITTED RIGHT NOT FITTED 0
NONE
NONE
15600
12
4.427000
51148
TRUE
1 0 8 72 0 0 0 0

15798

#HDR
-1
-1
#GR
µM
%T
2.38419e-05
0.0
2.000000
0.002000
12515
8
81.2935
37.7527
#DATA
2.000000	 65.3207
2.018000	 64.3127
2.036000	 64.794
2.054000	 65.0005
2.072000	 64.8283
2.090000	 64.6092
2.108000	 64.7312
2.126000	 65.4832
2.144000	 64.8118
2.162000	 64.9239
2.180000	 64.849
2.198000	 64.731
2.216000	 64.9173
2.234000	 64.441
2.252000	 65.5666
2.270000	 73.5389
2.288000	 64.5183
2.306000	 65.25
2.324000	 65.0676
2.342000	 65.0208
2.360000	 64.7658
2.378000	 65.4623
2.396000	 65.2253
2.414000	 65.262
2.432000	 65.2743
2.450000	 65.1112
2.468000	 65.1729
2.486000	 65.1786
2.504000	 65.2474
2.522000	 65.1876
2.540000	 65.2186
2.558000	 65.1723
2.576000	 64.9471
2.594000	 65.2747
2.612000	 65.1543
2.630000	 65.324
2.648000	 65.2443
2.666000	 65.114
2.684000	 65.0609
2.702000	 65.2844
2.720000	 65.2733
2.738000	 65.3193
2.756000	 65.4185
2.774000	 65.2389
2.792000	 65.1774
2.810000	 65.0888
2.828000	 65.1414
2.846000	 65.3595
2.864000	 65.0423
2.882000	 65.1013
2.900000	 65.1276
2.918000	 65.4274
2.936000	 65.3154
2.954000	 65.4159
2.972000	 65.1485
2.990000	 65.327
3.008000	 65.1122
3.026000	 65.0957
3.044000	 65.1034
3.062000	 65.2121
3.080000	 65.21
3.098000	 65.122
3.116000	 65.0132
3.134000	 65.221
3.152000	 65.2174
3.170000	 65.2379
3.188000	 65.0188
3.206000	 65.0647
3.224000	 65.1441
3.242000	 64.9748
3.260000	 65.0696
3.278000	 65.086
3.296000	 64.8932
3.314000	 65.0617
3.332000	 64.9789
3.350000	 65.094
3.368000	 64.9434
3.386000	 65.0828
3.404000	 64.9892
3.422000	 65.1807
3.440000	 65.0286
3.458000	 65.1029
3.476000	 65.0974
3.494000	 65.0702
3.512000	 64.954
3.530000	 65.0374
3.548000	 64.9085
3.566000	 65.0532
3.584000	 65.1264
3.602000	 65.1478
3.620000	 65.1559
3.638000	 65.0856
3.656000	 65.0034
3.674000	 65.162
3.692000	 64.9857
3.710000	 65.1423
3.728000	 65.0566
3.746000	 64.9964
3.764000	 65.0785
3.782000	 65.0843
3.800000	 64.9125
3.818000	 65.0598
3.836000	 64.9152
3.854000	 64.9726
3.872000	 65.0522
3.890000	 65.0011
3.908000	 65.0748
3.926000	 64.9796
3.944000	 65.0414
3.962000	 64.9751
3.980000	 65.0033
3.998000	 65.0268
4.016000	 64.9422
4.034000	 65.0062
4.052000	 64.9287
4.070000	 64.9218
4.088000	 64.9166
4.106000	 64.8914
4.124000	 64.9721
4.141999	 64.9001
4.160000	 64.986
4.178000	 65.0058
4.196000	 64.9719
4.214000	 64.7851
4.232000	 64.9294
4.250000	 64.9629
4.268000	 65.0308
4.286000	 64.9888
4.304000	 65.0373
4.322000	 64.9482
4.340000	 64.9222
4.358000	 64.8633
4.375999	 64.8902
4.394000	 64.8628
4.412000	 64.7339
4.430000	 64.7614
4.448000	 64.7733
4.466000	 64.7845
4.484000	 64.903
4.502000	 64.8735
4.520000	 64.8397
4.538000	 64.9221
4.556000	 64.9629
4.574000	 64.9206
4.592000	 64.746
4.609999	 64.7279
4.628000	 64.8822
4.646000	 64.7555
4.664000	 64.7918
4.682000	 64.8174
4.700000	 64.8604
4.718000	 64.8498
4.736000	 64.8313
4.754000	 64.8233
4.772000	 64.7924
4.790000	 64.7845
4.808000	 64.707
4.826000	 64.7741
4.843999	 64.7375
4.862000	 64.7517
4.880000	 64.7422
4.898000	 64.7176
4.916000	 64.7242
4.934000	 64.8624
4.952000	 64.862
4.970000	 64.8443
4.988000	 64.8822
5.006000	 64.7739
5.024000	 64.6938
5.042000	 64.7859
5.060000	 64.7636
5.077999	 64.8174
5.096000	 64.7591
5.114000	 64.6954
5.132000	 64.7786
5.150000	 64.7444
5.168000	 64.6969
5.186000	 64.7303
5.204000	 64.7403
5.222000	 64.6184
5.240000	 64.6383
5.258000	 64.6157
5.276000	 64.6073
5.294000	 64.7113
5.312000	 64.745
5.330000	 64.7447
5.348000	 64.6949
5.366000	 64.69
5.384000	 64.6281
5.402000	 64.6774
5.420000	 64.6864
5.438000	 64.6308
5.456000	 64.6611
5.474000	 64.6458
5.492000	 64.5922
5.510000	 64.6439
5.528000	 64.6324
5.546000	 64.6647
5.564000	 64.6861
5.582000	 64.617
5.600000	 64.5547
5.618000	 64.5644
5.636000	 64.6267
5.654000	 64.6416
5.672000	 64.6475
5.690000	 64.5036
5.708000	 64.4015
5.726000	 64.4233
5.744000	 64.3541
5.762000	 64.313
5.780000	 64.3605
5.798000	 64.4311
5.816000	 64.4963
5.834000	 64.5121
5.852000	 64.4975
5.870000	 64.5451
5.888000	 64.5066
5.906000	 64.4646
5.923999	 64.5041
5.942000	 64.4126
5.960000	 64.4202
5.978000	 64.4804
5.996000	 64.4852
6.014000	 64.4998
6.032000	 64.4751
6.050000	 64.4742
6.068000	 64.4741
6.086000	 64.4159
6.104000	 64.4161
6.122000	 64.4203
6.140000	 64.3659
6.158000	 64.3388
6.176000	 64.3061
6.194000	 64.317
6.212000	 64.3855
6.230000	 64.4096
6.248000	 64.4276
6.266000	 64.4182
6.284000	 64.3517
6.302000	 64.3127
6.320000	 64.301
6.338000	 64.2269
6.356000	 64.2045
6.374000	 64.274
6.392000	 64.3763
6.410000	 64.415
6.428000	 64.4013
6.446000	 64.3865
6.464000	 64.2978
6.482000	 64.2377
6.500000	 64.2788
6.518000	 64.338
6.536000	 64.3242
6.554000	 64.243
6.572000	 64.2754
6.590000	 64.4079
6.608000	 64.4599
6.626000	 64.4732
6.644000	 64.532
6.662000	 64.5249
6.680000	 64.4175
6.698000	 64.3732
6.716000	 64.3868
6.734000	 64.3874
6.752000	 64.3991
6.770000	 64.3909
6.788000	 64.3318
6.806000	 64.2679
6.824000	 64.291
6.842000	 64.4069
6.860000	 64.4685
6.878000	 64.4104
6.896000	 64.3309
6.914000	 64.3083
6.932000	 64.3674
6.950000	 64.4427
6.968000	 64.4309
6.986000	 64.3595
7.004000	 64.3176
7.022000	 64.3121
7.040000	 64.3272
7.058000	 64.3475
7.076000	 64.3158
7.094000	 64.2634
7.112000	 64.2873
7.130000	 64.3528
7.148000	 64.3732
7.166000	 64.3348
7.184000	 64.2629
7.202000	 64.2084
7.220000	 64.1825
7.238000	 64.1499
7.256000	 64.1339
7.274000	 64.1714
7.292000	 64.2199
7.310000	 64.2178
7.328000	 64.1828
7.346000	 64.18
7.364000	 64.2072
7.382000	 64.2054
7.400000	 64.182
7.418000	 64.1913
7.436000	 64.2278
7.454000	 64.2554
7.472000	 64.2745
7.490000	 64.2877
7.508000	 64.2893
7.526000	 64.2887
7.544000	 64.2694
7.562000	 64.2257
7.580000	 64.2218
7.598000	 64.2794
7.616000	 64.3249
7.634000	 64.33
7.652000	 64.3226
7.670000	 64.2858
7.688000	 64.201
7.706000	 64.1127
7.724000	 64.08
7.742000	 64.1182
7.760000	 64.1766
7.778000	 64.1786
7.796000	 64.1279
7.814000	 64.1037
7.832000	 64.1326
7.850000	 64.1622
7.868000	 64.1599
7.886000	 64.1429
7.904000	 64.1309
7.922000	 64.1127
7.940000	 64.0698
7.958000	 64.0283
7.976000	 64.038
7.994000	 64.0937
8.012000	 64.1349
8.030000	 64.1313
8.048000	 64.1066
8.065999	 64.0839
8.084000	 64.0639
8.102000	 64.0474
8.120000	 64.0396
8.138000	 64.0406
8.155999	 64.05
8.173999	 64.0665
8.192000	 64.0852
8.210000	 64.1015
8.228000	 64.1091
8.246000	 64.0886
8.263999	 64.0238
8.282000	 63.9378
8.300000	 63.8943
8.318000	 63.9388
8.336000	 64.0474
8.353999	 64.1453
8.372000	 64.1714
8.390000	 64.1278
8.408000	 64.0674
8.426000	 64.0457
8.443999	 64.073
8.462000	 64.1079
8.480000	 64.0978
8.498000	 64.0308
8.516000	 63.9443
8.533999	 63.883
8.552000	 63.8606
8.570000	 63.8684
8.588000	 63.8973
8.606000	 63.9351
8.624000	 63.9577
8.641999	 63.9486
8.660000	 63.926
8.678000	 63.9283
8.696000	 63.9686
8.714000	 64.0172
8.731999	 64.0367
8.750000	 64.0189
8.768000	 63.9869
8.786000	 63.9696
8.804000	 63.9698
8.821999	 63.9631
8.840000	 63.9313
8.858000	 63.8864
8.876000	 63.8575
8.894000	 63.8746
8.911999	 63.9551
8.930000	 64.0833
8.948000	 64.2082
8.966000	 64.2786
8.984000	 64.283
9.001999	 64.2537
9.020000	 64.2333
9.038000	 64.2375
9.056000	 64.2424
9.074000	 64.2124
9.092000	 64.1372
9.109999	 64.0418
9.128000	 63.9639
9.146000	 63.9226
9.164000	 63.9108
9.182000	 63.9122
9.199999	 63.9192
9.218000	 63.9345
9.236000	 63.9584
9.254000	 63.981
9.272000	 63.9866
9.289999	 63.9679
9.308000	 63.9344
9.326000	 63.9086
9.344000	 63.9094
9.362000	 63.9374
9.379999	 63.9714
9.398000	 63.985
9.416000	 63.9694
9.434000	 63.9415
9.452000	 63.9277
9.469999	 63.9408
9.488000	 63.9687
9.506000	 63.9835
9.524000	 63.9635
9.542000	 63.9113
9.560000	 63.855
9.577999	 63.8263
9.596000	 63.8356
9.614000	 63.8672
9.632000	 63.8957
9.650000	 63.9098
9.667999	 63.9184
9.686000	 63.9359
9.704000	 63.9645
9.722000	 63.9894
9.740000	 63.9923
9.757999	 63.9668
9.776000	 63.9235
9.794000	 63.8841
9.812000	 63.8673
9.830000	 63.8767
9.847999	 63.9
9.866000	 63.9173
9.884000	 63.916
9.902000	 63.8993
9.920000	 63.8829
9.937999	 63.885
9.956000	 63.9142
9.974000	 63.9671
9.992000	 64.0332
10.01	64.1003
10.028	64.1572
10.046	64.1921
10.064	64.1951
10.082	64.1629
10.1	64.1046
10.118	64.0436
10.136	64.0087
10.154	64.0202
10.172	64.0787
10.19	64.1615
10.208	64.2345
10.226	64.27
10.244	64.2581
10.262	64.2085
10.28	64.14
10.298	64.0703
10.316	64.0105
10.334	63.9664
10.352	63.9426
10.37	63.9428
10.388	63.9671
10.406	64.0091
10.424	64.0554
10.442	64.091
10.46	64.1058
10.478	64.0969
10.496	64.0696
10.514	64.0334
10.532	63.9983
10.55	63.9712
10.568	63.9555
10.586	63.951
10.604	63.9561
10.622	63.968
10.64	63.9838
10.658	64.0007
10.676	64.0159
10.694	64.0269
10.712	64.0316
10.73	64.0283
10.748	64.0156
10.766	63.9929
10.784	63.961
10.802	63.9241
10.82	63.8894
10.838	63.8661
10.856	63.8606
10.874	63.8729
10.892	63.8953
10.91	63.9149
10.928	63.9212
10.946	63.9105
10.964	63.8893
10.982	63.8703
11	63.8647
11.018	63.8769
11.036	63.9019
11.054	63.9294
11.072	63.9504
11.09	63.9614
11.108	63.9659
11.126	63.9707
11.144	63.9808
11.162	63.9973
11.18	64.0179
11.198	64.0397
11.216	64.0622
11.234	64.0875
11.252	64.1188
11.27	64.1574
11.288	64.2014
11.306	64.2459
11.324	64.2832
11.342	64.3047
11.36	64.3038
11.378	64.2763
11.396	64.2234
11.414	64.1517
11.432	64.0733
11.45	64.0022
11.468	63.952
11.486	63.9296
11.504	63.9338
11.522	63.9545
11.54	63.978
11.558	63.9914
11.576	63.9882
11.594	63.971
11.612	63.9488
11.63	63.9345
11.648	63.9377
11.666	63.9615
11.684	63.9999
11.702	64.0407
11.72	64.0693
11.738	64.0746
11.756	64.0532
11.774	64.0097
11.792	63.9564
11.81	63.9079
11.828	63.8769
11.846	63.8713
11.864	63.892
11.882	63.9343
11.9	63.9884
11.918	64.043
11.936	64.0882
11.954	64.1168
11.972	64.1257
11.99	64.1164
12.008	64.0942
12.026	64.0666
12.044	64.0407
12.062	64.0203
12.08	64.004
12.098	63.9872
12.116	63.963
12.134	63.9268
12.152	63.8782
12.17	63.8222
12.188	63.7674
12.206	63.7237
12.224	63.6986
12.242	63.6957
12.26	63.7133
12.278	63.7462
12.296	63.7863
12.314	63.8247
12.332	63.8546
12.35	63.8717
12.368	63.8748
12.386	63.8649
12.404	63.8461
12.422	63.824
12.44	63.8051
12.458	63.7953
12.476	63.7992
12.494	63.819
12.512	63.8538
12.53	63.9001
12.548	63.9526
12.566	64.0054
12.584	64.053
12.602	64.0915
12.62	64.1194
12.638	64.1369
12.656	64.146
12.674	64.1493
12.692	64.1489
12.71	64.146
12.728	64.1403
12.746	64.1307
12.764	64.1157
12.782	64.0949
12.8	64.0689
12.818	64.0396
12.836	64.0105
12.854	63.9855
12.872	63.9678
12.89	63.9587
12.908	63.9578
12.926	63.9622
12.944	63.9679
12.962	63.9704
12.98	63.966
12.998	63.9528
13.016	63.9309
13.034	63.9026
13.052	63.8716
13.07	63.8422
13.088	63.8184
13.106	63.8034
13.124	63.799
13.142	63.8048
13.16	63.8189
13.178	63.8375
13.196	63.8558
13.214	63.8685
13.232	63.8709
13.25	63.8598
13.268	63.8337
13.286	63.794
13.304	63.7446
13.322	63.6915
13.34	63.6413
13.358	63.6003
13.376	63.5731
13.394	63.5619
13.412	63.5669
13.43	63.5855
13.448	63.6141
13.466	63.6484
13.484	63.6844
13.502	63.7186
13.52	63.7486
13.538	63.7727
13.556	63.7905
13.574	63.8021
13.592	63.8082
13.61	63.8101
13.628	63.8093
13.646	63.8072
13.664	63.804
13.682	63.7998
13.7	63.7931
13.718	63.7816
13.736	63.7625
13.754	63.7334
13.772	63.6934
13.79	63.6435
13.808	63.5878
13.826	63.5325
13.844	63.4853
13.862	63.4532
13.88	63.4418
13.898	63.4535
13.916	63.4874
13.934	63.5396
13.952	63.6034
13.97	63.6716
13.988	63.7371
14.006	63.7953
14.024	63.8447
14.042	63.8862
14.06	63.9225
14.078	63.9573
14.096	63.9938
14.114	64.0334
14.132	64.075
14.15	64.1151
14.168	64.1489
14.186	64.171
14.204	64.177
14.222	64.1643
14.24	64.133
14.258	64.0867
14.276	64.0309
14.294	63.9734
14.312	63.9226
14.33	63.8864
14.348	63.8714
14.366	63.8817
14.384	63.9174
14.402	63.9754
14.42	64.049
14.438	64.1293
14.456	64.2061
14.474	64.2694
14.492	64.3104
14.51	64.3227
14.528	64.3031
14.546	64.2518
14.564	64.1711
14.582	64.0655
14.6	63.941
14.618	63.8047
14.636	63.6645
14.654	63.528
14.672	63.4021
14.69	63.293
14.708	63.2057
14.726	63.1442
14.744	63.1113
14.762	63.1068
14.78	63.1294
14.798	63.1761
14.816	63.2427
14.834	63.324
14.852	63.4134
14.87	63.5045
14.888	63.591
14.906	63.6672
14.924	63.7275
14.942	63.7671
14.96	63.7828
14.978	63.773
14.996	63.7372
15.014	63.6766
15.032	63.5946
15.05	63.497
15.068	63.3905
15.086	63.2826
15.104	63.1819
15.122	63.0977
15.14	63.0374
15.158	63.0058
15.176	63.0059
15.194	63.0384
15.212	63.0995
15.23	63.1832
15.248	63.2818
15.266	63.3869
15.284	63.4882
15.302	63.5778
15.32	63.65
15.338	63.7005
15.356	63.7278
15.374	63.7336
15.392	63.7218
15.41	63.6974
15.428	63.6664
15.446	63.6357
15.464	63.61
15.482	63.5927
15.5	63.5858
15.518	63.5894
15.536	63.601
15.554	63.6178
15.572	63.6363
15.59	63.6515
15.608	63.6606
15.626	63.6615
15.644	63.6528
15.662	63.6354
15.68	63.6115
15.698	63.5837
15.716	63.5562
15.734	63.5334
15.752	63.5181
15.77	63.5133
15.788	63.5213
15.806	63.5421
15.824	63.5753
15.842	63.6197
15.86	63.6723
15.878	63.7308
15.896	63.7927
15.914	63.8545
15.932	63.9141
15.95	63.9695
15.968	64.0188
15.986	64.0601
16.004	64.0924
16.022	64.1142
16.04	64.1236
16.058	64.1192
16.076	64.1
16.094	64.0646
16.112	64.0136
16.13	63.9475
16.148	63.8679
16.166	63.7787
16.184	63.6837
16.202	63.5876
16.22	63.4978
16.238	63.4193
16.256	63.3572
16.274	63.3175
16.292	63.3022
16.31	63.3131
16.328	63.3494
16.346	63.4077
16.364	63.485
16.382	63.5735
16.4	63.6665
16.418	63.7583
16.436	63.8401
16.454	63.9071
16.472	63.9559
16.49	63.9831
16.508	63.9901
16.526	63.9774
16.544	63.9498
16.562	63.912
16.58	63.8679
16.598	63.8245
16.616	63.7847
16.634	63.7517
16.652	63.7277
16.67	63.712
16.688	63.7041
16.706	63.7011
16.724	63.7007
16.742	63.7
16.76	63.6959
16.778	63.6871
16.796	63.6716
16.814	63.6495
16.832	63.6211
16.85	63.5879
16.868	63.5511
16.886	63.5121
16.904	63.4735
16.922	63.4361
16.94	63.4011
16.958	63.3695
16.976	63.3416
16.994	63.3176
17.012	63.2974
17.03	63.281
17.048	63.2685
17.066	63.2601
17.084	63.2561
17.102	63.2578
17.12	63.2657
17.138	63.2813
17.156	63.3053
17.174	63.3386
17.192	63.3816
17.21	63.4342
17.228	63.4959
17.246	63.5652
17.264	63.6411
17.282	63.7205
17.3	63.8019
17.318	63.8821
17.336	63.9582
17.354	64.0283
17.372	64.0892
17.39	64.14
17.408	64.1785
17.426	64.2044
17.444	64.217
17.462	64.2166
17.48	64.2037
17.498	64.1796
17.516	64.146
17.534	64.1038
17.552	64.0562
17.57	64.0039
17.588	63.9502
17.606	63.8961
17.624	63.8439
17.642	63.7949
17.66	63.7502
17.678	63.7113
17.696	63.6786
17.714	63.6528
17.732	63.6338
17.75	63.6218
17.768	63.6162
17.786	63.6168
17.804	63.6227
17.822	63.6334
17.84	63.648
17.858	63.6656
17.876	63.6856
17.894	63.7069
17.912	63.7291
17.93	63.7512
17.948	63.773
17.966	63.7938
17.984	63.8133
18.002	63.8311
18.02	63.847
18.038	63.8608
18.056	63.8721
18.074	63.8809
18.092	63.8871
18.11	63.8907
18.128	63.8915
18.146	63.8896
18.164	63.8849
18.182	63.8773
18.2	63.8669
18.218	63.8534
18.236	63.8368
18.254	63.8167
18.272	63.793
18.29	63.7653
18.308	63.7336
18.326	63.6974
18.344	63.6568
18.362	63.6121
18.38	63.5637
18.398	63.5123
18.416	63.4589
18.434	63.4044
18.452	63.3505
18.47	63.298
18.488	63.2489
18.506	63.2038
18.524	63.1646
18.542	63.1317
18.56	63.1064
18.578	63.0888
18.596	63.0796
18.614	63.0787
18.632	63.0854
18.65	63.0995
18.668	63.1198
18.686	63.1458
18.704	63.1759
18.722	63.2095
18.74	63.2448
18.758	63.2813
18.776	63.3169
18.794	63.3513
18.812	63.3826
18.83	63.4106
18.848	63.4337
18.866	63.4519
18.884	63.4643
18.902	63.471
18.92	63.4719
18.938	63.4673
18.956	63.4575
18.974	63.4432
18.992	63.425
19.01	63.4036
19.028	63.3801
19.046	63.3551
19.064	63.3299
19.082	63.3049
19.1	63.2811
19.118	63.2585
19.136	63.2381
19.154	63.2196
19.172	63.203
19.19	63.188
19.208	63.1741
19.226	63.1612
19.244	63.1481
19.262	63.135
19.28	63.121
19.298	63.1062
19.316	63.0901
19.334	63.0727
19.352	63.0548
19.37	63.0363
19.388	63.0187
19.406	63.002
19.424	62.9886
19.442	62.9785
19.46	62.9738
19.478	62.9748
19.496	62.983
19.514	62.999
19.532	63.023
19.55	63.0558
19.568	63.0966
19.586	63.1455
19.604	63.2013
19.622	63.2628
19.64	63.3293
19.658	63.3977
19.676	63.4683
19.694	63.537
19.712	63.6044
19.73	63.6666
19.748	63.7236
19.766	63.773
19.784	63.8143
19.802	63.8465
19.82	63.8685
19.838	63.8805
19.856	63.8818
19.874	63.873
19.892	63.8541
19.91	63.8255
19.928	63.7885
19.946	63.7431
19.964	63.691
19.982	63.6324
20	63.569
20.018	63.5014
20.036	63.4307
20.054	63.3587
20.072	63.2855
20.09	63.2137
20.108	63.1431
20.126	63.0764
20.144	63.0136
20.162	62.9568
20.18	62.907
20.198	62.8649
20.216	62.8322
20.234	62.8089
20.252	62.7965
20.27	62.7948
20.288	62.8042
20.306	62.825
20.324	62.8565
20.342	62.8986
20.36	62.9506
20.378	63.0107
20.396	63.0791
20.414	63.1527
20.432	63.2322
20.45	63.3144
20.468	63.3982
20.486	63.4827
20.504	63.5651
20.522	63.646
20.54	63.7229
20.558	63.796
20.576	63.8643
20.594	63.9272
20.612	63.9848
20.63	64.0367
20.648	64.0832
20.666	64.1242
20.684	64.1597
20.702	64.19
20.72	64.2154
20.738	64.2357
20.756	64.251
20.774	64.2612
20.792	64.2659
20.81	64.2653
20.828	64.2588
20.846	64.2457
20.864	64.2262
20.882	64.1996
20.9	64.1658
20.918	64.1248
20.936	64.0762
20.954	64.0204
20.972	63.9583
20.99	63.8895
21.008	63.8158
21.026	63.7374
21.044	63.6551
21.062	63.5713
21.08	63.4854
21.098	63.4001
21.116	63.3158
21.134	63.2334
21.152	63.1552
21.17	63.0806
21.188	63.0118
21.206	62.9489
21.224	62.8925
21.242	62.8437
21.26	62.8023
21.278	62.7688
21.296	62.7436
21.314	62.7263
21.332	62.717
21.35	62.7158
21.368	62.7221
21.386	62.7362
21.404	62.7575
21.422	62.7854
21.44	62.8201
21.458	62.8606
21.476	62.9067
21.494	62.958
21.512	63.0128
21.53	63.0718
21.548	63.1329
21.566	63.195
21.584	63.2585
21.602	63.3198
21.62	63.3796
21.638	63.4359
21.656	63.4857
21.674	63.5303
21.692	63.5659
21.71	63.5921
21.728	63.6084
21.746	63.6117
21.764	63.6027
21.782	63.5806
21.8	63.5443
21.818	63.4944
21.836	63.4315
21.854	63.3548
21.872	63.2662
21.89	63.1683
21.908	63.0595
21.926	62.9446
21.944	62.8255
21.962	62.7017
21.98	62.5798
21.998	62.4595
22.016	62.3429
22.034	62.2362
22.052	62.1372
22.07	62.05
22.088	61.9783
22.106	61.9201
22.124	61.8791
22.142	61.8562
22.16	61.8507
22.178	61.863
22.196	61.8939
22.214	61.9414
22.232	62.0039
22.25	62.0826
22.268	62.1729
22.286	62.2728
22.304	62.3833
22.322	62.4976
22.34	62.6157
22.358	62.7365
22.376	62.853
22.394	62.967
22.412	63.0755
22.43	63.1733
22.448	63.2625
22.466	63.3403
22.484	63.4039
22.502	63.4546
22.52	63.4913
22.538	63.513
22.556	63.5204
22.574	63.5148
22.592	63.4954
22.61	63.4634
22.628	63.4218
22.646	63.3694
22.664	63.3082
22.682	63.242
22.7	63.1693
22.718	63.0927
22.736	63.0158
22.754	62.9368
22.772	62.8587
22.79	62.784
22.808	62.7113
22.826	62.6428
22.844	62.5802
22.862	62.5224
22.88	62.4707
22.898	62.4259
22.916	62.3874
22.934	62.3555
22.952	62.3303
22.97	62.3117
22.988	62.299
23.006	62.2924
23.024	62.2916
23.042	62.2958
23.06	62.3049
23.078	62.3189
23.096	62.337
23.114	62.3594
23.132	62.386
23.15	62.4162
23.168	62.4502
23.186	62.4878
23.204	62.5281
23.222	62.5712
23.24	62.617
23.258	62.6646
23.276	62.7141
23.294	62.7655
23.312	62.818
23.33	62.8718
23.348	62.9266
23.366	62.9815
23.384	63.0368
23.402	63.092
23.42	63.1457
23.438	63.198
23.456	63.2487
23.474	63.2964
23.492	63.3408
23.51	63.3823
23.528	63.4194
23.546	63.4519
23.564	63.4801
23.582	63.5032
23.6	63.5208
23.618	63.5332
23.636	63.5406
23.654	63.5431
23.672	63.5406
23.69	63.5332
23.708	63.521
23.726	63.504
23.744	63.4821
23.762	63.4551
23.78	63.4231
23.798	63.386
23.816	63.344
23.834	63.2968
23.852	63.2448
23.87	63.1882
23.888	63.1273
23.906	63.0618
23.924	62.9913
23.942	62.9161
23.96	62.836
23.978	62.7506
23.996	62.6595
24.014	62.5631
24.032	62.4613
24.05	62.354
24.068	62.2411
24.086	62.1234
24.104	62.0016
24.122	61.8747
24.14	61.7444
24.158	61.6129
24.176	61.4787
24.194	61.3433
24.212	61.2099
24.23	61.0786
24.248	60.9487
24.266	60.824
24.284	60.7064
24.302	60.5938
24.32	60.489
24.338	60.3946
24.356	60.3088
24.374	60.2331
24.392	60.1698
24.41	60.1193
24.428	60.0806
24.446	60.0541
24.464	60.0405
24.482	60.0395
24.5	60.0492
24.518	60.0679
24.536	60.0982
24.554	60.1362
24.572	60.1769
24.59	60.2226
24.608	60.2721
24.626	60.3194
24.644	60.3624
24.662	60.4045
24.68	60.4394
24.698	60.461
24.716	60.4741
24.734	60.4749
24.752	60.4566
24.77	60.4188
24.788	60.3636
24.806	60.2864
24.824	60.184
24.842	60.0584
24.86	59.9095
24.878	59.7364
24.896	59.5375
24.914	59.3149
24.932	59.0718
24.95	58.8093
24.968	58.5251
24.986	58.2242
25.004	57.9119
25.022	57.5833
25.04	57.2423
25.058	56.8985
25.076	56.5551
25.094	56.2059
25.112	55.8612
25.13	55.5308
25.148	55.2074
25.166	54.8955
25.184	54.6073
25.202	54.3476
25.22	54.1086
25.238	53.9003
25.256	53.7335
25.274	53.6029
25.292	53.5098
25.31	53.4627
25.328	53.4667
25.346	53.5167
25.364	53.6152
25.382	53.7657
25.4	53.9684
25.418	54.2217
25.436	54.5253
25.454	54.8794
25.472	55.2857
25.49	55.7404
25.508	56.2387
25.526	56.7821
25.544	57.3725
25.562	57.9993
25.58	58.6533
25.598	59.3437
25.616	60.0641
25.634	60.7991
25.652	61.5413
25.67	62.3034
25.688	63.0703
25.706	63.8238
25.724	64.5661
25.742	65.3034
25.76	66.0169
25.778	66.6895
25.796	67.3333
25.814	67.9437
25.832	68.5051
25.85	69.0073
25.868	69.4621
25.886	69.8618
25.904	70.1958
25.922	70.4609
25.94	70.663
25.958	70.7991
25.976	70.8657
25.994	70.8617
26.012	70.7898
26.03	70.653
26.048	70.4536
26.066	70.186
26.084	69.8564
26.102	69.4745
26.12	69.0455
26.138	68.5603
26.156	68.0288
26.174	67.4633
26.192	66.8661
26.21	66.2285
26.228	65.5639
26.246	64.8867
26.264	64.1957
26.282	63.4854
26.3	62.767
26.318	62.0513
26.336	61.3335
26.354	60.6127
26.372	59.8978
26.39	59.1967
26.408	58.506
26.426	57.8247
26.444	57.1555
26.462	56.5006
26.48	55.8591
26.498	55.2303
26.516	54.6138
26.534	54.0099
26.552	53.4207
26.57	52.8428
26.588	52.2719
26.606	51.7062
26.624	51.1512
26.642	50.6006
26.66	50.0471
26.678	49.4863
26.696	48.924
26.714	48.357
26.732	47.7812
26.75	47.1941
26.768	46.5988
26.786	45.9942
26.804	45.3786
26.822	44.7487
26.84	44.1028
26.858	43.4492
26.876	42.7967
26.894	42.1468
26.912	41.4891
26.93	40.8377
26.948	40.2083
26.966	39.5902
26.984	38.9427
27.002	38.3438
27.02	37.8792
27.028	37.7527