File: Bakgrunnsmateriale/MATLAB/FTIR/ftir_data/subAa/Mapping_121/BZ1503107-1_t118_cm-1.asc
PE IR       SPECTRUM    SPECTRUM    ASCII       PEDS        1.60
  -1
BZ4C7C~1.ASC
17/04/07
22:57:36.00
17/04/07
22:57:36.00
tln
$BZ1503107-1_t0118$<tbV0>[-5.2,13.0,8.0,0.0,27,1,0]
370
64

2002,4.07
MIRTGS : RIGHTBACK : INTERNAL 2
MIR : ON : INTERNAL 2
OPTKBR

0.200000
8
8.000000
FILLER
RATIO
SPECTRUM
UNLOCKED 256

DOUBLE
64
COMBINED
1
0
0

1.000000
RATIO

1
0
TRUE
51149
0
LEFT NOT FITTED RIGHT NOT FITTED 0
NONE
NONE
15600
12
4.427000
51148
TRUE
1 0 8 72 0 0 0 0

15798

#HDR
-1
-1
#GR
CM-1
%T
2.38419e-05
0.0
5000
-1.000000
4631
8
73.8115
42.4046
#DATA
5000	64.0428
4996	63.5703
4992	64.297
4988	65.6792
4984	66.168
4980	65.4701
4976	64.8693
4972	65.1913
4968	65.4883
4964	65.3553
4960	65.5687
4956	65.6402
4952	65.1388
4948	64.8311
4944	64.6567
4940	64.6039
4936	65.0679
4932	65.4794
4928	65.3311
4924	64.9315
4920	64.6973
4916	64.7679
4912	65.0176
4908	65.1492
4904	65.02
4900	64.8783
4896	64.9369
4892	65.0571
4888	65.1318
4884	65.1392
4880	64.8156
4876	64.5172
4872	64.8374
4868	65.271
4864	65.3538
4860	65.3218
4856	65.2158
4852	64.9726
4848	64.7771
4844	64.6595
4840	64.5507
4836	64.5144
4832	64.5157
4828	64.5134
4824	64.5297
4820	64.4532
4816	64.2983
4812	64.2514
4808	64.4192
4804	64.6626
4800	64.785
4796	64.863
4792	64.9292
4788	64.9194
4784	64.7968
4780	64.7152
4776	64.7389
4772	64.6639
4768	64.6875
4764	64.8556
4760	64.8741
4756	64.839
4752	64.7938
4748	64.6623
4744	64.6185
4740	64.6842
4736	64.8016
4732	64.9617
4728	64.9931
4724	64.8659
4720	64.7363
4716	64.6978
4712	64.7517
4708	64.7481
4704	64.624
4700	64.5723
4696	64.5432
4692	64.5988
4688	64.791
4684	64.7709
4680	64.6168
4676	64.5537
4672	64.5961
4668	64.7668
4664	64.928
4660	64.9457
4656	64.9905
4652	65.1756
4648	65.3641
4644	65.4595
4640	65.419
4636	65.3414
4632	65.2886
4628	65.1064
4624	64.9353
4620	64.9681
4616	65.0162
4612	65.0401
4608	65.1181
4604	65.2034
4600	65.2362
4596	65.0974
4592	64.9331
4588	64.9365
4584	65.0191
4580	65.1516
4576	65.3263
4572	65.4061
4568	65.2055
4564	64.9508
4560	64.9342
4556	64.9721
4552	65.0527
4548	65.1779
4544	65.1499
4540	65.0595
4536	65.0649
4532	65.0894
4528	65.1131
4524	65.3892
4520	65.7048
4516	65.6795
4512	65.6194
4508	65.5074
4504	65.3951
4500	65.5556
4496	65.5169
4492	65.0965
4488	64.571
4484	64.478
4480	64.7378
4476	64.7888
4472	65.0154
4468	65.9034
4464	66.8248
4460	67.3608
4456	66.9885
4452	65.9842
4448	65.576
4444	65.0578
4440	59.4634
4436	50.131
4432	46.6096
4428	50.7611
4424	61.7069
4420	71.8693
4416	71.4504
4412	67.7098
4408	66.967
4404	67.0189
4400	67.199
4396	66.8013
4392	66.0696
4388	65.7876
4384	65.9026
4380	65.8817
4376	65.6578
4372	65.5379
4368	65.6339
4364	65.683
4360	65.6408
4356	65.6068
4352	65.3957
4348	65.0596
4344	64.8635
4340	64.9314
4336	65.2593
4332	65.5417
4328	65.4008
4324	65.1654
4320	65.1523
4316	65.0919
4312	64.8585
4308	64.633
4304	64.6745
4300	64.9852
4296	65.1734
4292	65.0724
4288	65.0147
4284	65.0194
4280	64.959
4276	64.9533
4272	64.8974
4268	64.825
4264	64.9598
4260	65.1253
4256	65.1425
4252	65.0397
4248	64.8236
4244	64.6925
4240	64.7653
4236	64.9067
4232	64.9966
4228	64.9689
4224	64.8743
4220	64.836
4216	64.8783
4212	64.9576
4208	65.0833
4204	65.2414
4200	65.2343
4196	65.0466
4192	64.9164
4188	64.8719
4184	64.8165
4180	64.7158
4176	64.6399
4172	64.672
4168	64.7564
4164	64.8602
4160	65.0112
4156	65.0775
4152	64.9023
4148	64.6961
4144	64.695
4140	64.7854
4136	64.7963
4132	64.7819
4128	64.8474
4124	64.8857
4120	64.7695
4116	64.5915
4112	64.5682
4108	64.6668
4104	64.7877
4100	64.907
4096	64.8737
4092	64.7562
4088	64.7229
4084	64.7639
4080	64.8683
4076	64.9538
4072	64.9773
4068	65.014
4064	65.0427
4060	64.9862
4056	64.9029
4052	64.8381
4048	64.7496
4044	64.7246
4040	64.7063
4036	64.6159
4032	64.6178
4028	64.6802
4024	64.7088
4020	64.7492
4016	64.8457
4012	65.0075
4008	65.1318
4004	65.1334
4000	65.0838
3996	65.0393
3992	64.9037
3988	64.7007
3984	64.6561
3980	64.7624
3976	64.8229
3972	64.885
3968	64.9691
3964	64.9429
3960	64.8645
3956	64.8778
3952	64.974
3948	65.0906
3944	65.1439
3940	65.0763
3936	65.0922
3932	65.1353
3928	64.9559
3924	64.8225
3920	64.8576
3916	64.8744
3912	64.8854
3908	64.8815
3904	64.8366
3900	64.8602
3896	64.8785
3892	64.7494
3888	64.6898
3884	64.8097
3880	64.8937
3876	64.9937
3872	65.1766
3868	65.1865
3864	65.0891
3860	65.1571
3856	65.2349
3852	65.1182
3848	64.9793
3844	64.9207
3840	64.8591
3836	64.8811
3832	64.9956
3828	65.0362
3824	65.0531
3820	64.9835
3816	64.7913
3812	64.8026
3808	64.9261
3804	64.8944
3800	64.8565
3796	64.9303
3792	64.9367
3788	64.8489
3784	64.852
3780	64.926
3776	65.0538
3772	65.1478
3768	65.0564
3764	64.9298
3760	64.9123
3756	64.8997
3752	64.8643
3748	64.9725
3744	65.0966
3740	65.0386
3736	64.964
3732	64.976
3728	65.0402
3724	65.0564
3720	65.0082
3716	64.996
3712	64.9483
3708	64.9613
3704	65.0897
3700	65.1258
3696	65.1155
3692	65.1141
3688	65.0646
3684	64.9744
3680	64.8623
3676	64.8743
3672	65.0175
3668	65.0913
3664	65.0557
3660	65.0328
3656	65.0127
3652	64.9208
3648	64.8375
3644	64.8729
3640	64.9883
3636	65.0665
3632	65.0981
3628	65.0851
3624	65.0237
3620	65.0171
3616	65.0718
3612	65.1013
3608	65.0557
3604	64.9248
3600	64.8513
3596	64.9188
3592	64.9474
3588	64.9248
3584	64.9815
3580	64.998
3576	64.939
3572	64.9109
3568	64.9057
3564	64.9186
3560	64.9334
3556	64.868
3552	64.7776
3548	64.7803
3544	64.845
3540	64.9118
3536	64.9213
3532	64.8963
3528	64.8738
3524	64.8284
3520	64.7562
3516	64.7269
3512	64.8436
3508	64.9274
3504	64.8484
3500	64.7949
3496	64.8521
3492	64.9245
3488	64.9257
3484	64.913
3480	64.9746
3476	65.0298
3472	65.0286
3468	64.9698
3464	64.8136
3460	64.7092
3456	64.7583
3452	64.7782
3448	64.7365
3444	64.773
3440	64.8701
3436	64.9759
3432	65.0717
3428	65.0627
3424	64.95
3420	64.9306
3416	64.9937
3412	64.954
3408	64.8542
3404	64.7966
3400	64.7545
3396	64.7419
3392	64.776
3388	64.7479
3384	64.6924
3380	64.7373
3376	64.8753
3372	64.987
3368	64.9477
3364	64.8586
3360	64.8278
3356	64.8538
3352	64.9218
3348	64.9585
3344	64.9626
3340	64.9472
3336	64.9573
3332	65.0111
3328	64.9709
3324	64.8518
3320	64.8196
3316	64.8907
3312	64.8979
3308	64.8168
3304	64.7878
3300	64.7765
3296	64.7377
3292	64.7573
3288	64.7949
3284	64.7835
3280	64.7478
3276	64.7549
3272	64.8307
3268	64.829
3264	64.7635
3260	64.8227
3256	64.8966
3252	64.8112
3248	64.7111
3244	64.7301
3240	64.7648
3236	64.748
3232	64.7351
3228	64.7368
3224	64.7155
3220	64.6698
3216	64.6273
3212	64.6824
3208	64.8298
3204	64.8947
3200	64.8452
3196	64.8398
3192	64.929
3188	64.9069
3184	64.7839
3180	64.7862
3176	64.8602
3172	64.8746
3168	64.8504
3164	64.8483
3160	64.8695
3156	64.8712
3152	64.8356
3148	64.7702
3144	64.7279
3140	64.7184
3136	64.7328
3132	64.7643
3128	64.7668
3124	64.8117
3120	64.8775
3116	64.8468
3112	64.7573
3108	64.6808
3104	64.6551
3100	64.6687
3096	64.7074
3092	64.7525
3088	64.7993
3084	64.8387
3080	64.8194
3076	64.7668
3072	64.7176
3068	64.7031
3064	64.7721
3060	64.835
3056	64.8047
3052	64.7478
3048	64.7628
3044	64.8146
3040	64.7924
3036	64.7882
3032	64.8783
3028	64.8851
3024	64.7734
3020	64.7027
3016	64.6701
3012	64.6424
3008	64.6971
3004	64.8005
3000	64.8493
2996	64.8406
2992	64.778
2988	64.7155
2984	64.7135
2980	64.6924
2976	64.615
2972	64.5667
2968	64.5729
2964	64.5663
2960	64.5396
2956	64.5319
2952	64.5313
2948	64.5432
2944	64.5983
2940	64.6609
2936	64.6677
2932	64.5495
2928	64.3917
2924	64.3818
2920	64.3973
2916	64.2869
2912	64.2303
2908	64.3392
2904	64.4619
2900	64.4882
2896	64.4534
2892	64.4978
2888	64.6449
2884	64.7544
2880	64.732
2876	64.5934
2872	64.467
2868	64.4091
2864	64.4054
2860	64.4258
2856	64.4413
2852	64.4582
2848	64.4515
2844	64.4744
2840	64.5048
2836	64.4603
2832	64.4387
2828	64.5046
2824	64.5726
2820	64.5522
2816	64.5009
2812	64.5516
2808	64.6621
2804	64.6927
2800	64.6287
2796	64.563
2792	64.5884
2788	64.647
2784	64.6268
2780	64.6176
2776	64.6595
2772	64.6626
2768	64.6497
2764	64.6169
2760	64.5738
2756	64.598
2752	64.6159
2748	64.6194
2744	64.6888
2740	64.7283
2736	64.6607
2732	64.6237
2728	64.6688
2724	64.6966
2720	64.6901
2716	64.6383
2712	64.5716
2708	64.5451
2704	64.535
2700	64.5068
2696	64.4947
2692	64.5365
2688	64.5959
2684	64.622
2680	64.5801
2676	64.5003
2672	64.4418
2668	64.4148
2664	64.4409
2660	64.4638
2656	64.4131
2652	64.3939
2648	64.4363
2644	64.4721
2640	64.4761
2636	64.4499
2632	64.4674
2628	64.5466
2624	64.5704
2620	64.5139
2616	64.4857
2612	64.5438
2608	64.5736
2604	64.4832
2600	64.4051
2596	64.3899
2592	64.4096
2588	64.4396
2584	64.4333
2580	64.4511
2576	64.492
2572	64.4849
2568	64.4654
2564	64.4718
2560	64.4813
2556	64.5071
2552	64.5302
2548	64.5053
2544	64.456
2540	64.4381
2536	64.45
2532	64.4355
2528	64.3842
2524	64.3945
2520	64.4859
2516	64.5288
2512	64.5116
2508	64.4621
2504	64.3845
2500	64.3652
2496	64.3898
2492	64.4411
2488	64.5043
2484	64.4996
2480	64.4596
2476	64.4236
2472	64.4022
2468	64.4288
2464	64.4788
2460	64.5055
2456	64.4718
2452	64.3785
2448	64.3283
2444	64.3571
2440	64.3632
2436	64.3498
2432	64.3624
2428	64.3247
2424	64.2811
2420	64.3179
2416	64.306
2412	64.281
2408	64.3287
2404	64.3362
2400	64.3469
2396	64.3865
2392	64.3541
2388	64.3054
2384	64.2909
2380	64.2389
2376	64.1725
2372	64.1755
2368	64.1937
2364	64.1814
2360	64.1951
2356	64.2243
2352	64.2146
2348	64.1917
2344	64.205
2340	64.2339
2336	64.2573
2332	64.2747
2328	64.2571
2324	64.2006
2320	64.186
2316	64.2214
2312	64.2575
2308	64.2894
2304	64.2718
2300	64.2533
2296	64.2559
2292	64.1907
2288	64.1284
2284	64.1521
2280	64.1777
2276	64.1564
2272	64.1539
2268	64.1758
2264	64.1863
2260	64.2047
2256	64.2019
2252	64.1588
2248	64.1602
2244	64.2388
2240	64.2738
2236	64.2296
2232	64.1857
2228	64.1407
2224	64.1101
2220	64.1262
2216	64.2052
2212	64.2854
2208	64.2535
2204	64.1879
2200	64.156
2196	64.1367
2192	64.1382
2188	64.1432
2184	64.1822
2180	64.2297
2176	64.2135
2172	64.156
2168	64.1469
2164	64.1981
2160	64.1903
2156	64.1549
2152	64.1693
2148	64.1824
2144	64.1802
2140	64.1633
2136	64.1253
2132	64.0985
2128	64.1376
2124	64.1544
2120	64.0527
2116	64.0328
2112	64.1058
2108	64.1018
2104	64.0791
2100	64.0681
2096	64.0734
2092	64.0943
2088	64.0543
2084	63.9877
2080	63.9803
2076	64.0065
2072	64.0017
2068	63.9995
2064	64.0395
2060	64.0724
2056	64.0942
2052	64.0724
2048	63.9745
2044	63.9333
2040	63.9719
2036	63.971
2032	63.9335
2028	63.887
2024	63.8585
2020	63.8915
2016	63.9327
2012	63.9482
2008	63.9478
2004	63.9203
2000	63.923
1996	63.9542
1992	63.9362
1988	63.8889
1984	63.8462
1980	63.8185
1976	63.8542
1972	63.8998
1968	63.893
1964	63.8939
1960	63.9003
1956	63.9127
1952	63.9177
1948	63.9022
1944	63.913
1940	63.9455
1936	63.9825
1932	63.9607
1928	63.8888
1924	63.8639
1920	63.8647
1916	63.8508
1912	63.8473
1908	63.8888
1904	63.9036
1900	63.8649
1896	63.8486
1892	63.8362
1888	63.8164
1884	63.7958
1880	63.7644
1876	63.7584
1872	63.772
1868	63.7787
1864	63.7883
1860	63.799
1856	63.8084
1852	63.7887
1848	63.7423
1844	63.6981
1840	63.6892
1836	63.7347
1832	63.7524
1828	63.7247
1824	63.7228
1820	63.7689
1816	63.8048
1812	63.8026
1808	63.8076
1804	63.8136
1800	63.793
1796	63.7379
1792	63.6572
1788	63.6094
1784	63.6609
1780	63.7335
1776	63.7085
1772	63.6289
1768	63.5489
1764	63.499
1760	63.5139
1756	63.5576
1752	63.5565
1748	63.4869
1744	63.4134
1740	63.3573
1736	63.2977
1732	63.2742
1728	63.313
1724	63.382
1720	63.4709
1716	63.5269
1712	63.4891
1708	63.4463
1704	63.468
1700	63.5021
1696	63.4952
1692	63.4819
1688	63.5041
1684	63.4992
1680	63.4431
1676	63.4149
1672	63.4589
1668	63.5318
1664	63.5632
1660	63.5316
1656	63.4681
1652	63.405
1648	63.3921
1644	63.4377
1640	63.4605
1636	63.4773
1632	63.4951
1628	63.4419
1624	63.3832
1620	63.4032
1616	63.423
1612	63.3867
1608	63.3378
1604	63.2928
1600	63.2971
1596	63.3553
1592	63.3734
1588	63.3114
1584	63.2431
1580	63.2082
1576	63.187
1572	63.1809
1568	63.2272
1564	63.2931
1560	63.2776
1556	63.2068
1552	63.1516
1548	63.161
1544	63.1939
1540	63.1877
1536	63.1739
1532	63.1654
1528	63.198
1524	63.2486
1520	63.2779
1516	63.2954
1512	63.2737
1508	63.2576
1504	63.2805
1500	63.2321
1496	63.1171
1492	63.1307
1488	63.1824
1484	63.1571
1480	63.1457
1476	63.1226
1472	63.0952
1468	63.0847
1464	63.0639
1460	63.0615
1456	63.1042
1452	63.141
1448	63.1108
1444	63.0549
1440	63.0373
1436	63.0316
1432	63.0007
1428	62.9675
1424	62.9874
1420	63.038
1416	63.0273
1412	62.9901
1408	63.0103
1404	62.995
1400	62.9416
1396	62.9759
1392	62.9947
1388	62.9411
1384	62.9419
1380	62.9989
1376	63.027
1372	63.0414
1368	63.0346
1364	63.0237
1360	63.0285
1356	62.9838
1352	62.9657
1348	63.001
1344	62.9919
1340	62.9766
1336	62.9823
1332	62.9723
1328	62.9884
1324	63.0538
1320	63.0996
1316	63.0714
1312	63.0047
1308	62.9328
1304	62.9001
1300	62.9222
1296	62.9011
1292	62.8587
1288	62.8931
1284	62.9452
1280	62.9367
1276	62.9136
1272	62.9046
1268	62.8629
1264	62.7451
1260	62.5836
1256	62.5166
1252	62.5754
1248	62.6696
1244	62.7646
1240	62.7857
1236	62.7425
1232	62.7278
1228	62.6969
1224	62.6803
1220	62.7098
1216	62.7166
1212	62.7349
1208	62.7536
1204	62.7611
1200	62.7894
1196	62.7751
1192	62.7265
1188	62.7117
1184	62.6951
1180	62.6112
1176	62.5315
1172	62.5029
1168	62.5237
1164	62.6211
1160	62.7064
1156	62.6947
1152	62.6492
1148	62.6427
1144	62.6599
1140	62.6719
1136	62.6528
1132	62.6123
1128	62.581
1124	62.528
1120	62.4605
1116	62.4615
1112	62.5032
1108	62.4791
1104	62.4959
1100	62.5815
1096	62.6202
1092	62.5679
1088	62.4536
1084	62.46
1080	62.5686
1076	62.5932
1072	62.5333
1068	62.5048
1064	62.5394
1060	62.5003
1056	62.3725
1052	62.2842
1048	62.2777
1044	62.2981
1040	62.3028
1036	62.3299
1032	62.4161
1028	62.5539
1024	62.5787
1020	62.411
1016	62.2875
1012	62.3345
1008	62.4281
1004	62.4381
1000	62.4183
996	 62.4457
992	 62.4213
988	 62.35
984	 62.3622
980	 62.4261
976	 62.4327
972	 62.3828
968	 62.3403
964	 62.327
960	 62.3458
956	 62.4245
952	 62.5039
948	 62.4915
944	 62.4165
940	 62.3339
936	 62.3358
932	 62.4044
928	 62.3862
924	 62.3175
920	 62.2907
916	 62.3449
912	 62.4402
908	 62.438
904	 62.3884
900	 62.3684
896	 62.3383
892	 62.3681
888	 62.4201
884	 62.3882
880	 62.3655
876	 62.4323
872	 62.4461
868	 62.3251
864	 62.2582
860	 62.3034
856	 62.3733
852	 62.392
848	 62.3285
844	 62.2543
840	 62.1601
836	 62.1085
832	 62.1854
828	 62.2355
824	 62.1942
820	 62.2818
816	 62.4196
812	 62.344
808	 62.199
804	 62.2241
800	 62.3168
796	 62.3472
792	 62.3071
788	 62.128
784	 61.9907
780	 62.0151
776	 61.9792
772	 61.8062
768	 61.6753
764	 61.6215
760	 61.6592
756	 61.8773
752	 62.0442
748	 62.0327
744	 61.9898
740	 61.9846
736	 62.0313
732	 61.9953
728	 61.8395
724	 61.6998
720	 61.6737
716	 61.7705
712	 61.7947
708	 61.733
704	 61.7282
700	 61.7304
696	 61.7201
692	 61.6364
688	 61.4295
684	 61.3411
680	 61.4268
676	 61.4962
672	 61.5313
668	 61.5956
664	 61.6731
660	 61.5594
656	 61.3225
652	 61.3462
648	 61.4793
644	 61.3265
640	 61.2991
636	 61.4656
632	 61.2422
628	 61.3224
624	 62.0823
620	 62.5059
616	 62.6159
612	 62.9647
608	 62.8075
604	 61.5794
600	 60.2861
596	 59.8391
592	 60.0795
588	 60.0621
584	 59.7889
580	 60.3846
576	 60.918
572	 60.8368
568	 61.34
564	 61.8506
560	 61.4413
556	 60.7319
552	 60.6207
548	 60.8627
544	 61.1619
540	 61.8278
536	 62.1598
532	 61.4064
528	 60.5241
524	 60.4253
520	 60.6044
516	 60.551
512	 60.6829
508	 60.6602
504	 60.2212
500	 60.1351
496	 60.3252
492	 60.4172
488	 60.4774
484	 60.4053
480	 60.1407
476	 60.2909
472	 60.6049
468	 60.4078
464	 60.0331
460	 59.7325
456	 59.6836
452	 60.0898
448	 60.3628
444	 59.855
440	 59.1595
436	 58.8959
432	 59.096
428	 59.8645
424	 60.8082
420	 61.2787
416	 60.6373
412	 59.2974
408	 60.2135
404	 61.7657
400	 59.71
396	 58.2017
392	 59.0139
388	 64.0219
384	 73.0283
380	 68.7517
376	 53.3228
372	 44.4588
370	 42.4046