File: Bakgrunnsmateriale/MATLAB/FTIR/ftir_data/subAa/Mapping_121/BZ1503107-1_t86_cm-1.asc
PE IR       SPECTRUM    SPECTRUM    ASCII       PEDS        1.60
  -1
BZ6E26~1.ASC
17/04/07
20:16:25.00
17/04/07
20:16:25.00
tln
$BZ1503107-1_t0086$<tbV0>[-7.8,5.2,8.0,0.0,27,1,0]
370
64

2002,4.07
MIRTGS : RIGHTBACK : INTERNAL 2
MIR : ON : INTERNAL 2
OPTKBR

0.200000
8
8.000000
FILLER
RATIO
SPECTRUM
UNLOCKED 256

DOUBLE
64
COMBINED
1
0
0

1.000000
RATIO

1
0
TRUE
51149
0
LEFT NOT FITTED RIGHT NOT FITTED 0
NONE
NONE
15600
12
4.427000
51148
TRUE
1 0 8 72 0 0 0 0

15798

#HDR
-1
-1
#GR
CM-1
%T
2.38419e-05
0.0
5000
-1.000000
4631
8
89.9827
56.1762
#DATA
5000	65.0197
4996	65.0259
4992	64.5198
4988	63.8812
4984	63.5672
4980	63.9931
4976	64.8906
4972	64.9477
4968	63.8408
4964	62.6786
4960	62.5954
4956	63.9054
4952	64.9199
4948	64.5101
4944	64.0314
4940	64.2611
4936	64.3385
4932	63.981
4928	64.0898
4924	64.6617
4920	65.0496
4916	65.2007
4912	65.3245
4908	65.1883
4904	64.8782
4900	65.0454
4896	65.5433
4892	65.6775
4888	65.3135
4884	65.0205
4880	65.0375
4876	65.1404
4872	65.0952
4868	64.766
4864	64.5294
4860	64.6191
4856	64.6737
4852	64.5751
4848	64.7614
4844	65.1778
4840	65.2929
4836	65.2429
4832	65.2445
4828	65.0695
4824	64.8496
4820	64.9709
4816	65.2662
4812	65.2592
4808	64.9838
4804	64.8829
4800	64.9503
4796	64.9634
4792	64.9798
4788	64.9967
4784	64.9196
4780	64.8057
4776	64.708
4772	64.5429
4768	64.5357
4764	64.7516
4760	64.7698
4756	64.6616
4752	64.711
4748	64.8103
4744	64.8763
4740	64.8475
4736	64.6615
4732	64.468
4728	64.5352
4724	64.8282
4720	65.0975
4716	65.1646
4712	65.0769
4708	65.006
4704	64.7302
4700	64.4435
4696	64.54
4692	64.7929
4688	64.7941
4684	64.5481
4680	64.4588
4676	64.4774
4672	64.49
4668	64.6493
4664	64.8531
4660	64.9614
4656	64.8047
4652	64.6018
4648	64.8074
4644	65.0604
4640	64.9822
4636	64.8635
4632	64.945
4628	65.0064
4624	64.864
4620	64.6993
4616	64.751
4612	65.0048
4608	64.9955
4604	64.5878
4600	64.3254
4596	64.4809
4592	64.6574
4588	64.5013
4584	64.4366
4580	64.8507
4576	65.2713
4572	65.2792
4568	65.0664
4564	64.9798
4560	65.0832
4556	64.9776
4552	64.6343
4548	64.6603
4544	64.9797
4540	65.0693
4536	64.9895
4532	64.8673
4528	64.7773
4524	64.8612
4520	64.8906
4516	64.7364
4512	64.6558
4508	64.5594
4504	64.3657
4500	64.5126
4496	65.0476
4492	65.5081
4488	65.6999
4484	65.3879
4480	64.8947
4476	64.5125
4472	64.1373
4468	64.2775
4464	64.5262
4460	64.7292
4456	64.7925
4452	63.0585
4448	60.85
4444	64.1228
4440	70.4429
4436	72.1645
4432	73.5108
4428	71.6763
4424	63.3685
4420	61.7814
4416	66.7899
4412	68.5019
4408	66.3928
4404	64.3182
4400	63.7619
4396	64.1125
4392	64.2011
4388	64.3966
4384	64.4587
4380	64.2792
4376	64.2441
4372	64.5798
4368	65.0604
4364	65.1303
4360	65.0647
4356	65.1813
4352	65.2923
4348	65.3446
4344	65.283
4340	65.139
4336	65.0672
4332	64.9121
4328	64.7012
4324	64.7984
4320	65.0273
4316	65.035
4312	64.9508
4308	64.8794
4304	64.7859
4300	64.8092
4296	64.9229
4292	64.9711
4288	64.9232
4284	64.8971
4280	65.0098
4276	65.13
4272	65.1028
4268	64.9478
4264	64.8151
4260	64.7939
4256	64.8324
4252	64.8096
4248	64.814
4244	64.995
4240	65.0636
4236	64.9002
4232	64.8323
4228	64.8838
4224	64.9358
4220	64.9801
4216	64.9471
4212	64.8419
4208	64.8815
4204	65.1234
4200	65.1939
4196	65.0112
4192	64.8868
4188	64.836
4184	64.7629
4180	64.7993
4176	64.8519
4172	64.7933
4168	64.8186
4164	64.9037
4160	64.9403
4156	64.998
4152	64.9689
4148	64.7758
4144	64.5324
4140	64.4258
4136	64.5561
4132	64.8252
4128	65.0463
4124	65.0812
4120	65.0572
4116	65.0902
4112	65.1324
4108	65.1593
4104	65.192
4100	65.2189
4096	65.102
4092	64.9256
4088	64.8457
4084	64.7944
4080	64.7738
4076	64.8137
4072	64.9131
4068	64.9919
4064	64.9975
4060	65.054
4056	65.116
4052	65.1132
4048	65.0698
4044	64.9445
4040	64.8375
4036	64.9274
4032	65.0677
4028	65.012
4024	64.8717
4020	64.814
4016	64.8717
4012	65.0203
4008	65.1283
4004	65.1265
4000	65.0452
3996	64.9625
3992	64.9852
3988	64.9908
3984	64.8226
3980	64.6954
3976	64.8493
3972	65.0253
3968	64.9964
3964	65.0032
3960	65.0522
3956	64.9922
3952	64.994
3948	65.0647
3944	64.9146
3940	64.6685
3936	64.5866
3932	64.5171
3928	64.4373
3924	64.5356
3920	64.7106
3916	64.796
3912	64.8744
3908	64.9585
3904	65.0154
3900	64.9969
3896	64.9053
3892	64.8947
3888	64.9653
3884	65.0619
3880	65.1131
3876	65.0531
3872	65.0577
3868	65.1349
3864	65.0983
3860	65.0977
3856	65.168
3852	65.1083
3848	65.0153
3844	64.9994
3840	64.9515
3836	64.8489
3832	64.833
3828	64.9254
3824	64.952
3820	64.9229
3816	64.9655
3812	65.0023
3808	65.0157
3804	65.0764
3800	65.1617
3796	65.2461
3792	65.2313
3788	65.1064
3784	65.0535
3780	65.1484
3776	65.1939
3772	65.0701
3768	64.9282
3764	64.8564
3760	64.8634
3756	64.9179
3752	64.9542
3748	65.0033
3744	65.0825
3740	65.1298
3736	65.1241
3732	65.1264
3728	65.1167
3724	65.0318
3720	64.9786
3716	64.9793
3712	64.9548
3708	64.9519
3704	64.9678
3700	64.9506
3696	64.9715
3692	65.0203
3688	64.9782
3684	64.9222
3680	64.9718
3676	65.0823
3672	65.1179
3668	65.0732
3664	65.0954
3660	65.1357
3656	65.1213
3652	65.1366
3648	65.1262
3644	65.0481
3640	65.0078
3636	65.0134
3632	65.0281
3628	65.0228
3624	64.9765
3620	64.9844
3616	65.0401
3612	65.0957
3608	65.1762
3604	65.1809
3600	65.0745
3596	65.0099
3592	64.9796
3588	64.9053
3584	64.911
3580	64.9704
3576	64.9589
3572	65.0035
3568	65.1419
3564	65.1946
3560	65.0878
3556	64.9663
3552	64.9627
3548	65.0007
3544	65.0259
3540	65.0889
3536	65.1371
3532	65.1328
3528	65.1749
3524	65.2203
3520	65.1498
3516	65.0312
3512	64.9512
3508	64.9326
3504	64.9729
3500	64.9653
3496	64.931
3492	64.9335
3488	64.9576
3484	65.0131
3480	65.0453
3476	65.0418
3472	65.019
3468	64.9764
3464	64.9277
3460	64.8579
3456	64.8583
3452	64.9926
3448	65.0998
3444	65.0933
3440	65.0011
3436	64.8643
3432	64.8277
3428	64.8443
3424	64.8208
3420	64.8854
3416	64.9729
3412	64.9519
3408	64.9329
3404	64.9705
3400	64.9952
3396	65.0291
3392	65.0516
3388	64.9658
3384	64.8737
3380	64.9539
3376	65.102
3372	65.1084
3368	65.0073
3364	64.8967
3360	64.8869
3356	65.0018
3352	65.0322
3348	64.9285
3344	64.8788
3340	64.9676
3336	65.0333
3332	64.9763
3328	64.9025
3324	64.8348
3320	64.7878
3316	64.7915
3312	64.7847
3308	64.7555
3304	64.7828
3300	64.8511
3296	64.8054
3292	64.7064
3288	64.7154
3284	64.7766
3280	64.8366
3276	64.9036
3272	64.9369
3268	64.9346
3264	64.9078
3260	64.8745
3256	64.9251
3252	64.9995
3248	64.9703
3244	64.8644
3240	64.8029
3236	64.8707
3232	64.9762
3228	65.0167
3224	65.0196
3220	64.9304
3216	64.8111
3212	64.8546
3208	64.9483
3204	64.9062
3200	64.7937
3196	64.7788
3192	64.8559
3188	64.9404
3184	65.0065
3180	64.991
3176	64.922
3172	64.875
3168	64.8609
3164	64.9114
3160	64.9837
3156	64.9457
3152	64.8582
3148	64.8552
3144	64.8677
3140	64.7971
3136	64.7053
3132	64.7198
3128	64.8192
3124	64.8631
3120	64.8627
3116	64.91
3112	64.9049
3108	64.7678
3104	64.7001
3100	64.8329
3096	64.9463
3092	64.8775
3088	64.783
3084	64.7676
3080	64.7947
3076	64.8135
3072	64.8244
3068	64.9109
3064	64.9969
3060	64.9776
3056	64.9208
3052	64.9271
3048	64.9906
3044	65.0047
3040	64.9542
3036	64.8826
3032	64.7903
3028	64.7107
3024	64.707
3020	64.7718
3016	64.8155
3012	64.8032
3008	64.8053
3004	64.8341
3000	64.796
2996	64.7405
2992	64.7534
2988	64.777
2984	64.8054
2980	64.847
2976	64.8229
2972	64.7303
2968	64.747
2964	64.8749
2960	64.8723
2956	64.7428
2952	64.6348
2948	64.5807
2944	64.5712
2940	64.5949
2936	64.6611
2932	64.7339
2928	64.7268
2924	64.7062
2920	64.7547
2916	64.7099
2912	64.6179
2908	64.6894
2904	64.806
2900	64.8328
2896	64.7898
2892	64.6996
2888	64.6442
2884	64.6388
2880	64.6552
2876	64.7195
2872	64.7445
2868	64.7032
2864	64.7106
2860	64.712
2856	64.6804
2852	64.7177
2848	64.7999
2844	64.8514
2840	64.8288
2836	64.7474
2832	64.6798
2828	64.6708
2824	64.7248
2820	64.8025
2816	64.8529
2812	64.8975
2808	64.9282
2804	64.8752
2800	64.745
2796	64.6374
2792	64.6699
2788	64.8177
2784	64.9263
2780	64.9261
2776	64.8735
2772	64.8837
2768	64.9392
2764	64.8965
2760	64.7712
2756	64.6976
2752	64.7382
2748	64.8184
2744	64.8262
2740	64.7886
2736	64.7841
2732	64.8024
2728	64.8221
2724	64.8094
2720	64.7654
2716	64.7701
2712	64.8153
2708	64.8213
2704	64.7759
2700	64.7292
2696	64.6917
2692	64.688
2688	64.7471
2684	64.8246
2680	64.8737
2676	64.8566
2672	64.8072
2668	64.7664
2664	64.7201
2660	64.6873
2656	64.7049
2652	64.7365
2648	64.6998
2644	64.6497
2640	64.6687
2636	64.6977
2632	64.7185
2628	64.7595
2624	64.7701
2620	64.7881
2616	64.8355
2612	64.7917
2608	64.6656
2604	64.5977
2600	64.5893
2596	64.5977
2592	64.6676
2588	64.6751
2584	64.6104
2580	64.6505
2576	64.7294
2572	64.7337
2568	64.6818
2564	64.6381
2560	64.6525
2556	64.6757
2552	64.6451
2548	64.6074
2544	64.6099
2540	64.5918
2536	64.5569
2532	64.5909
2528	64.6622
2524	64.7097
2520	64.728
2516	64.6793
2512	64.5908
2508	64.5978
2504	64.6513
2500	64.6338
2496	64.6402
2492	64.6821
2488	64.6835
2484	64.6855
2480	64.7052
2476	64.6902
2472	64.6658
2468	64.6797
2464	64.6524
2460	64.5976
2456	64.5669
2452	64.5392
2448	64.5901
2444	64.688
2440	64.6764
2436	64.5966
2432	64.5483
2428	64.5013
2424	64.5579
2420	64.6922
2416	64.6558
2412	64.5477
2408	64.5499
2404	64.5923
2400	64.6204
2396	64.5938
2392	64.53
2388	64.5288
2384	64.5495
2380	64.5156
2376	64.4944
2372	64.5285
2368	64.5401
2364	64.5169
2360	64.5039
2356	64.4712
2352	64.4317
2348	64.4485
2344	64.5086
2340	64.5645
2336	64.5817
2332	64.5596
2328	64.5495
2324	64.5967
2320	64.6497
2316	64.6164
2312	64.5454
2308	64.5086
2304	64.4689
2300	64.4066
2296	64.3483
2292	64.3639
2288	64.4251
2284	64.4506
2280	64.4929
2276	64.53
2272	64.5009
2268	64.4899
2264	64.526
2260	64.5497
2256	64.5298
2252	64.4612
2248	64.3953
2244	64.3801
2240	64.3973
2236	64.4214
2232	64.4624
2228	64.4822
2224	64.4457
2220	64.4405
2216	64.464
2212	64.4463
2208	64.4341
2204	64.4105
2200	64.3614
2196	64.3782
2192	64.4413
2188	64.4891
2184	64.5046
2180	64.4776
2176	64.4239
2172	64.3515
2168	64.3439
2164	64.3986
2160	64.3968
2156	64.382
2152	64.3773
2148	64.3617
2144	64.4143
2140	64.4507
2136	64.3882
2132	64.3357
2128	64.3377
2124	64.3173
2120	64.2763
2116	64.3246
2112	64.4573
2108	64.5213
2104	64.4604
2100	64.3596
2096	64.3114
2092	64.3149
2088	64.2947
2084	64.225
2080	64.1896
2076	64.2422
2072	64.3059
2068	64.3112
2064	64.2787
2060	64.2543
2056	64.242
2052	64.2209
2048	64.2255
2044	64.2473
2040	64.2429
2036	64.2478
2032	64.2449
2028	64.2064
2024	64.1899
2020	64.2287
2016	64.2622
2012	64.2414
2008	64.2265
2004	64.2422
2000	64.2325
1996	64.2254
1992	64.207
1988	64.1517
1984	64.1647
1980	64.264
1976	64.3317
1972	64.2919
1968	64.2215
1964	64.1968
1960	64.1857
1956	64.1792
1952	64.169
1948	64.1531
1944	64.1998
1940	64.2544
1936	64.2212
1932	64.1426
1928	64.0937
1924	64.1212
1920	64.1665
1916	64.1596
1912	64.1214
1908	64.1067
1904	64.1096
1900	64.0609
1896	64.0352
1892	64.1405
1888	64.2341
1884	64.1957
1880	64.1418
1876	64.1529
1872	64.192
1868	64.2021
1864	64.1904
1860	64.1721
1856	64.1476
1852	64.161
1848	64.1637
1844	64.1133
1840	64.0529
1836	64.0027
1832	64.0141
1828	64.0944
1824	64.1284
1820	64.0896
1816	64.0907
1812	64.1046
1808	64.0407
1804	63.9976
1800	64.0518
1796	64.0932
1792	64.0669
1788	64.028
1784	64.0058
1780	64.0283
1776	64.0873
1772	64.132
1768	64.114
1764	64.0629
1760	64.048
1756	63.9818
1752	63.8414
1748	63.7907
1744	63.8378
1740	63.8539
1736	63.8006
1732	63.749
1728	63.7616
1724	63.7954
1720	63.8462
1716	63.9088
1712	63.9138
1708	63.881
1704	63.851
1700	63.835
1696	63.8605
1692	63.9143
1688	63.9372
1684	63.9534
1680	63.9785
1676	63.923
1672	63.8268
1668	63.8225
1664	63.8947
1660	63.9359
1656	63.9161
1652	63.9001
1648	63.9371
1644	63.9547
1640	63.889
1636	63.8557
1632	63.9273
1628	64.0123
1624	64.0515
1620	64.0562
1616	64.0028
1612	63.9078
1608	63.8393
1604	63.8037
1600	63.8259
1596	63.83
1592	63.7947
1588	63.8564
1584	63.9438
1580	63.9111
1576	63.8015
1572	63.7356
1568	63.6946
1564	63.6431
1560	63.6882
1556	63.772
1552	63.8031
1548	63.8287
1544	63.8702
1540	63.91
1536	63.8699
1532	63.7734
1528	63.7188
1524	63.7451
1520	63.8189
1516	63.89
1512	63.9302
1508	63.9158
1504	63.8414
1500	63.7515
1496	63.7116
1492	63.7356
1488	63.774
1484	63.7612
1480	63.7443
1476	63.7422
1472	63.7057
1468	63.6515
1464	63.6184
1460	63.697
1456	63.7952
1452	63.7666
1448	63.6786
1444	63.6311
1440	63.7167
1436	63.8662
1432	63.9236
1428	63.8767
1424	63.7958
1420	63.7098
1416	63.6321
1412	63.5837
1408	63.5859
1404	63.6405
1400	63.6775
1396	63.6787
1392	63.6572
1388	63.5964
1384	63.5495
1380	63.5759
1376	63.6057
1372	63.5954
1368	63.5422
1364	63.477
1360	63.4938
1356	63.5335
1352	63.5139
1348	63.5054
1344	63.5515
1340	63.6397
1336	63.7249
1332	63.7143
1328	63.6482
1324	63.6156
1320	63.5826
1316	63.5155
1312	63.4625
1308	63.4369
1304	63.4437
1300	63.494
1296	63.5082
1292	63.449
1288	63.3424
1284	63.2909
1280	63.3385
1276	63.3828
1272	63.4385
1268	63.481
1264	63.4169
1260	63.3563
1256	63.4045
1252	63.4549
1248	63.4028
1244	63.3481
1240	63.3528
1236	63.3387
1232	63.3425
1228	63.4173
1224	63.4774
1220	63.459
1216	63.4473
1212	63.4403
1208	63.3693
1204	63.3415
1200	63.3998
1196	63.4642
1192	63.4232
1188	63.2818
1184	63.2222
1180	63.2303
1176	63.166
1172	63.1036
1168	63.1176
1164	63.1488
1160	63.2002
1156	63.2404
1152	63.2262
1148	63.2323
1144	63.2919
1140	63.3528
1136	63.3447
1132	63.2306
1128	63.0675
1124	63.0167
1120	63.1068
1116	63.1885
1112	63.2057
1108	63.2073
1104	63.2299
1100	63.2498
1096	63.2302
1092	63.212
1088	63.2344
1084	63.2467
1080	63.2359
1076	63.2793
1072	63.332
1068	63.2935
1064	63.2391
1060	63.2391
1056	63.2252
1052	63.162
1048	63.2034
1044	63.3565
1040	63.3476
1036	63.219
1032	63.166
1028	63.1638
1024	63.1635
1020	63.1046
1016	63.0136
1012	63.0209
1008	63.0629
1004	63.0322
1000	62.9693
996	 62.987
992	 63.0658
988	 63.1241
984	 63.2743
980	 63.4562
976	 63.3998
972	 63.2448
968	 63.2774
964	 63.3399
960	 63.2658
956	 63.1937
952	 63.2151
948	 63.2325
944	 63.2758
940	 63.3204
936	 63.1981
932	 63.0722
928	 63.0965
924	 63.1609
920	 63.2359
916	 63.2906
912	 63.2088
908	 63.0671
904	 63.0616
900	 63.1316
896	 63.1593
892	 63.183
888	 63.2548
884	 63.2756
880	 63.1604
876	 63.1726
872	 63.3251
868	 63.3126
864	 63.1795
860	 63.1526
856	 63.1856
852	 63.1232
848	 63.1208
844	 63.1841
840	 63.1397
836	 63.0317
832	 62.9294
828	 62.9376
824	 63.1027
820	 63.2625
816	 63.2108
812	 62.9574
808	 62.8821
804	 63.0756
800	 63.1325
796	 63.0093
792	 62.8947
788	 62.8013
784	 62.7708
780	 62.8975
776	 63.0767
772	 63.1177
768	 63.0722
764	 62.9869
760	 62.9392
756	 63.0294
752	 63.046
748	 62.8689
744	 62.6942
740	 62.6866
736	 62.7339
732	 62.6503
728	 62.495
724	 62.4875
720	 62.6813
716	 62.8523
712	 62.8628
708	 62.7022
704	 62.4969
700	 62.4438
696	 62.4604
692	 62.5072
688	 62.7129
684	 62.9695
680	 63.1441
676	 63.1711
672	 63.024
668	 62.7632
664	 62.7254
660	 63.025
656	 63.0607
652	 62.7368
648	 62.4814
644	 62.3038
640	 62.0498
636	 61.8824
632	 62.11
628	 62.3237
624	 62.0961
620	 61.921
616	 62.1022
612	 62.2211
608	 62.3183
604	 62.8424
600	 62.8826
596	 62.0337
592	 61.454
588	 61.4308
584	 61.7451
580	 62.1614
576	 62.3299
572	 62.3305
568	 62.259
564	 62.2441
560	 62.534
556	 62.5595
552	 62.2906
548	 62.4253
544	 62.8736
540	 63.4524
536	 63.6055
532	 62.7153
528	 61.6758
524	 61.9485
520	 63.1462
516	 63.3729
512	 62.3675
508	 62.0217
504	 62.8299
500	 63.0656
496	 62.3699
492	 62.1995
488	 62.8456
484	 63.2918
480	 62.9393
476	 62.0823
472	 61.7565
468	 62.5432
464	 63.2349
460	 62.5695
456	 61.2421
452	 60.6697
448	 61.1989
444	 61.7959
440	 62.2816
436	 62.588
432	 61.5082
428	 60.0552
424	 59.3374
420	 58.3321
416	 58.3522
412	 60.7286
408	 63.7451
404	 64.6793
400	 62.9215
396	 59.3165
392	 57.8767
388	 58.4672
384	 56.1762
380	 62.7277
376	 75.0309
372	 82.0478
370	 89.9827