File: Bakgrunnsmateriale/MATLAB/FTIR/ftir_data/subAa/Mapping_121/BZ1503107-1_t19_cm-1.asc
PE IR       SPECTRUM    SPECTRUM    ASCII       PEDS        1.60
  -1
BZ61B1~1.ASC
17/04/07
14:44:13.00
17/04/07
14:44:13.00
tln
$BZ1503107-1_t0019$<tbV0>[-5.2,-10.4,8.0,0.0,27,1,0]
370
64

2002,4.07
MIRTGS : RIGHTBACK : INTERNAL 2
MIR : ON : INTERNAL 2
OPTKBR

0.200000
8
8.000000
FILLER
RATIO
SPECTRUM
UNLOCKED 256

DOUBLE
64
COMBINED
1
0
0

1.000000
RATIO

1
0
TRUE
51149
0
LEFT NOT FITTED RIGHT NOT FITTED 0
NONE
NONE
15600
12
4.427000
51148
TRUE
1 0 8 72 0 0 0 0

15798

#HDR
-1
-1
#GR
CM-1
%T
2.38419e-05
0.0
5000
-1.000000
4631
8
73.3686
50.8446
#DATA
5000	64.1699
4996	64.0582
4992	64.8382
4988	65.3272
4984	65.6172
4980	65.6936
4976	65.4347
4972	65.1939
4968	65.1907
4964	64.9066
4960	64.5096
4956	64.3753
4952	64.4742
4948	64.8597
4944	65.2824
4940	65.4507
4936	65.238
4932	64.7305
4928	64.4303
4924	64.5722
4920	64.8134
4916	64.8066
4912	64.6913
4908	64.9106
4904	65.2217
4900	65.2267
4896	65.0829
4892	64.8809
4888	64.6848
4884	64.7179
4880	64.7964
4876	64.5685
4872	64.3658
4868	64.6281
4864	65.1103
4860	65.2672
4856	64.9197
4852	64.7126
4848	65.2199
4844	65.7634
4840	65.7259
4836	65.3952
4832	65.0046
4828	64.8774
4824	64.814
4820	64.4377
4816	64.7124
4812	65.2282
4808	65.0334
4804	65.2975
4800	65.7918
4796	65.6122
4792	65.4701
4788	65.5752
4784	65.3255
4780	64.7577
4776	64.6312
4772	64.687
4768	64.3165
4764	64.3978
4760	65.1662
4756	65.4113
4752	65.0862
4748	64.8588
4744	64.8294
4740	64.7622
4736	64.5272
4732	64.5654
4728	64.7578
4724	64.6039
4720	64.3118
4716	64.4266
4712	64.6952
4708	64.5524
4704	64.4709
4700	64.6803
4696	64.8327
4692	64.9435
4688	64.9936
4684	64.9743
4680	64.9966
4676	64.9602
4672	64.935
4668	65.1074
4664	65.2459
4660	65.1994
4656	65.0292
4652	64.8356
4648	64.95
4644	65.1195
4640	64.9922
4636	64.9456
4632	65.0185
4628	64.9717
4624	64.8547
4620	64.78
4616	64.7129
4612	64.5615
4608	64.4948
4604	64.7137
4600	65.0126
4596	65.0889
4592	65.1162
4588	65.2822
4584	65.246
4580	64.9436
4576	64.7564
4572	64.6647
4568	64.5947
4564	64.6398
4560	64.7323
4556	64.7859
4552	64.7211
4548	64.7092
4544	64.7691
4540	64.8064
4536	64.9648
4532	64.8306
4528	64.4062
4524	64.107
4520	64.0696
4516	64.3499
4512	64.787
4508	65.178
4504	65.3418
4500	65.4384
4496	66.0899
4492	67.3969
4488	67.7114
4484	68.3856
4480	69.4211
4476	67.5658
4472	65.3156
4468	64.4478
4464	63.4598
4460	62.6719
4456	62.5337
4452	63.4794
4448	64.2906
4444	64.6658
4440	68.8389
4436	71.0543
4432	60.229
4428	51.5316
4424	60.9004
4420	70.2356
4416	68.5947
4412	65.7647
4408	64.8705
4404	64.8233
4400	65.348
4396	65.7981
4392	65.827
4388	65.4704
4384	65.0584
4380	64.7694
4376	64.5797
4372	64.6228
4368	64.9017
4364	65.0796
4360	65.0884
4356	65.1267
4352	65.2265
4348	65.2178
4344	65.1134
4340	65.052
4336	65.0714
4332	65.0383
4328	64.9345
4324	64.9394
4320	64.9763
4316	65.0733
4312	65.2296
4308	65.2528
4304	65.223
4300	65.093
4296	64.924
4292	64.9557
4288	64.9538
4284	64.811
4280	64.8188
4276	65.0292
4272	65.1607
4268	65.0865
4264	64.9129
4260	64.6977
4256	64.5922
4252	64.7513
4248	64.9227
4244	64.9246
4240	64.9896
4236	65.144
4232	65.2022
4228	65.1031
4224	64.9925
4220	64.9534
4216	64.8236
4212	64.7599
4208	64.9171
4204	65.0931
4200	65.1168
4196	64.8895
4192	64.6729
4188	64.5598
4184	64.4664
4180	64.6479
4176	64.9737
4172	65.081
4168	64.9718
4164	64.9099
4160	64.9953
4156	65.0402
4152	64.9339
4148	64.7276
4144	64.6286
4140	64.6662
4136	64.7701
4132	64.9448
4128	65.1058
4124	65.1868
4120	65.0436
4116	64.9228
4112	65.1135
4108	65.3156
4104	65.3116
4100	65.2255
4096	65.2148
4092	65.2728
4088	65.2502
4084	65.209
4080	65.2466
4076	65.2817
4072	65.2805
4068	65.2752
4064	65.2658
4060	65.2339
4056	65.2245
4052	65.2453
4048	65.225
4044	65.0748
4040	64.9442
4036	65.0201
4032	65.1517
4028	65.122
4024	64.9169
4020	64.7501
4016	64.769
4012	64.8943
4008	65.0101
4004	65.0398
4000	65.0218
3996	64.9976
3992	64.9811
3988	64.9901
3984	65.0325
3980	65.1327
3976	65.1469
3972	65.093
3968	65.1489
3964	65.2016
3960	65.0684
3956	64.906
3952	64.9562
3948	65.1077
3944	65.1361
3940	65.1264
3936	65.2525
3932	65.2842
3928	65.0562
3924	64.9187
3920	65.0543
3916	65.1245
3912	64.934
3908	64.7537
3904	64.8055
3900	64.9569
3896	65.0623
3892	65.117
3888	65.1366
3884	65.0577
3880	64.8534
3876	64.7347
3872	64.8251
3868	65.0493
3864	65.2421
3860	65.372
3856	65.5117
3852	65.5095
3848	65.4066
3844	65.4103
3840	65.4166
3836	65.3176
3832	65.1891
3828	65.1503
3824	65.1886
3820	65.2087
3816	65.2277
3812	65.2946
3808	65.3348
3804	65.3448
3800	65.2969
3796	65.1397
3792	65.1286
3788	65.2756
3784	65.3242
3780	65.2759
3776	65.2246
3772	65.2122
3768	65.1801
3764	65.0973
3760	65.0535
3756	65.1343
3752	65.2875
3748	65.3683
3744	65.4147
3740	65.4602
3736	65.4158
3732	65.2876
3728	65.1696
3724	65.1351
3720	65.1847
3716	65.2874
3712	65.3516
3708	65.3065
3704	65.2255
3700	65.1953
3696	65.2368
3692	65.3051
3688	65.3103
3684	65.2435
3680	65.2454
3676	65.3882
3672	65.4737
3668	65.3864
3664	65.2862
3660	65.2597
3656	65.2556
3652	65.3312
3648	65.4816
3644	65.5142
3640	65.3716
3636	65.2106
3632	65.2281
3628	65.3569
3624	65.3262
3620	65.1636
3616	65.1562
3612	65.275
3608	65.1875
3604	65.03
3600	65.0423
3596	65.0429
3592	65.0934
3588	65.2645
3584	65.33
3580	65.2448
3576	65.1863
3572	65.2203
3568	65.1803
3564	65.0452
3560	65.0054
3556	65.0927
3552	65.1747
3548	65.2189
3544	65.2258
3540	65.1943
3536	65.1874
3532	65.1765
3528	65.1567
3524	65.1551
3520	65.1227
3516	65.0969
3512	65.2056
3508	65.3889
3504	65.4546
3500	65.3939
3496	65.3117
3492	65.1832
3488	65.1048
3484	65.1675
3480	65.1978
3476	65.165
3472	65.0797
3468	64.9397
3464	64.9564
3460	65.1112
3456	65.1418
3452	65.0444
3448	64.9932
3444	65.0664
3440	65.2188
3436	65.3359
3432	65.3382
3428	65.2795
3424	65.2604
3420	65.2731
3416	65.2076
3412	65.0702
3408	65.0865
3404	65.2344
3400	65.2375
3396	65.141
3392	65.08
3388	65.074
3384	65.1952
3380	65.2948
3376	65.2182
3372	65.1778
3368	65.2221
3364	65.1548
3360	65.0318
3356	65.0264
3352	65.0981
3348	65.1912
3344	65.3292
3340	65.3856
3336	65.3355
3332	65.3075
3328	65.2816
3324	65.2226
3320	65.1655
3316	65.1482
3312	65.191
3308	65.2149
3304	65.1295
3300	64.9923
3296	64.9529
3292	65.004
3288	65.0394
3284	65.1039
3280	65.2173
3276	65.2665
3272	65.2232
3268	65.1633
3264	65.1127
3260	65.0858
3256	65.133
3252	65.1583
3248	65.1145
3244	65.087
3240	65.0246
3236	64.9701
3232	64.9399
3228	64.914
3224	65.0244
3220	65.1721
3216	65.1875
3212	65.154
3208	65.1983
3204	65.2565
3200	65.2447
3196	65.2413
3192	65.2618
3188	65.2539
3184	65.2682
3180	65.27
3176	65.2366
3172	65.2693
3168	65.2482
3164	65.1178
3160	65.0678
3156	65.1297
3152	65.1927
3148	65.196
3144	65.1519
3140	65.1037
3136	65.1151
3132	65.1809
3128	65.1716
3124	65.1434
3120	65.1563
3116	65.1415
3112	65.1625
3108	65.1812
3104	65.132
3100	65.1006
3096	65.134
3092	65.1835
3088	65.1853
3084	65.1774
3080	65.1813
3076	65.1704
3072	65.1767
3068	65.1836
3064	65.1812
3060	65.1796
3056	65.1711
3052	65.201
3048	65.1882
3044	65.1141
3040	65.0892
3036	65.0264
3032	64.9822
3028	65.1208
3024	65.2833
3020	65.3532
3016	65.377
3012	65.352
3008	65.3338
3004	65.3129
3000	65.1961
2996	65.0879
2992	65.0799
2988	65.0778
2984	65.0891
2980	65.1122
2976	65.0776
2972	65.0358
2968	65.0142
2964	64.9992
2960	64.999
2956	64.9975
2952	64.9973
2948	65.0216
2944	65.0684
2940	65.1067
2936	65.1103
2932	65.095
2928	65.0958
2924	65.1116
2920	65.0856
2916	65.0131
2912	65.0141
2908	65.0624
2904	65.0421
2900	65.0074
2896	64.9629
2892	64.941
2888	64.9989
2884	65.0466
2880	65.0389
2876	64.9985
2872	65.009
2868	65.1055
2864	65.1769
2860	65.1748
2856	65.147
2852	65.1223
2848	65.0801
2844	65.0504
2840	65.1104
2836	65.1951
2832	65.2157
2828	65.186
2824	65.1201
2820	65.0804
2816	65.0763
2812	65.0461
2808	65.0377
2804	65.0585
2800	65.0519
2796	65.027
2792	64.9777
2788	64.9271
2784	64.9657
2780	65.0699
2776	65.0956
2772	65.0542
2768	65.0594
2764	65.0584
2760	65.0243
2756	64.9995
2752	64.9627
2748	64.9593
2744	64.977
2740	65.0195
2736	65.1212
2732	65.163
2728	65.1267
2724	65.0952
2720	65.0601
2716	65.0105
2712	64.9626
2708	64.9652
2704	65.0856
2700	65.2196
2696	65.2007
2692	65.0996
2688	65.078
2684	65.1233
2680	65.1216
2676	65.0466
2672	65.0165
2668	65.0911
2664	65.1135
2660	65.039
2656	64.9948
2652	65.0215
2648	65.0666
2644	65.0522
2640	64.9787
2636	64.8918
2632	64.8333
2628	64.8718
2624	64.974
2620	65.0286
2616	65.0231
2612	65.0181
2608	65.0271
2604	65.0334
2600	65.067
2596	65.1316
2592	65.1623
2588	65.1292
2584	65.1229
2580	65.1314
2576	65.0869
2572	65.0353
2568	65.0145
2564	65.0357
2560	65.0753
2556	65.1108
2552	65.1292
2548	65.0942
2544	65.0269
2540	65.0261
2536	65.0888
2532	65.117
2528	65.1039
2524	65.0519
2520	65.0052
2516	65.033
2512	65.0444
2508	64.9692
2504	64.9312
2500	64.9861
2496	65.0168
2492	65.0182
2488	65.0493
2484	65.0538
2480	65.0593
2476	65.0986
2472	65.094
2468	65.0637
2464	65.0138
2460	64.8996
2456	64.8553
2452	64.9546
2448	65.0528
2444	65.0605
2440	65.0132
2436	64.9558
2432	64.8782
2428	64.7723
2424	64.7456
2420	64.894
2416	65.0675
2412	65.1053
2408	65.0796
2404	65.0661
2400	65.028
2396	64.9849
2392	64.9779
2388	64.9753
2384	64.9761
2380	64.9947
2376	64.9944
2372	64.9916
2368	65.0392
2364	65.0887
2360	65.0582
2356	64.9913
2352	64.9827
2348	64.9912
2344	64.9393
2340	64.9152
2336	64.9819
2332	65.0357
2328	65.0315
2324	64.9685
2320	64.9082
2316	64.9525
2312	65.0347
2308	65.0107
2304	64.9125
2300	64.9022
2296	64.9745
2292	65.0236
2288	65.008
2284	64.9514
2280	64.938
2276	64.9654
2272	64.9779
2268	64.9882
2264	64.9794
2260	64.9321
2256	64.9183
2252	64.9561
2248	64.9885
2244	65.0113
2240	65.0052
2236	64.9433
2232	64.9044
2228	64.953
2224	65.0102
2220	65.0278
2216	65.0054
2212	64.969
2208	65.0093
2204	65.0507
2200	65.021
2196	64.9989
2192	64.9807
2188	64.9038
2184	64.8482
2180	64.9081
2176	64.9704
2172	64.9592
2168	64.9447
2164	64.9624
2160	64.9225
2156	64.8475
2152	64.8421
2148	64.8685
2144	64.8575
2140	64.8102
2136	64.7989
2132	64.8834
2128	64.9917
2124	65.0176
2120	65.0195
2116	65.0269
2112	65.0108
2108	64.9738
2104	64.8767
2100	64.816
2096	64.8763
2092	64.9417
2088	64.9666
2084	64.9762
2080	64.9432
2076	64.8662
2072	64.7868
2068	64.8122
2064	64.9072
2060	64.8922
2056	64.8164
2052	64.8487
2048	64.9432
2044	64.9514
2040	64.8973
2036	64.8584
2032	64.8523
2028	64.8897
2024	64.9327
2020	64.9714
2016	64.9949
2012	64.9529
2008	64.8659
2004	64.8299
2000	64.8566
1996	64.8278
1992	64.7658
1988	64.7765
1984	64.8221
1980	64.8499
1976	64.8548
1972	64.8731
1968	64.9326
1964	64.9567
1960	64.9034
1956	64.8671
1952	64.8611
1948	64.82
1944	64.8273
1940	64.8659
1936	64.8668
1932	64.8739
1928	64.8439
1924	64.7825
1920	64.7709
1916	64.8276
1912	64.8917
1908	64.8713
1904	64.8218
1900	64.8159
1896	64.8274
1892	64.8476
1888	64.8306
1884	64.8024
1880	64.8148
1876	64.8508
1872	64.8818
1868	64.8756
1864	64.846
1860	64.8369
1856	64.8418
1852	64.8359
1848	64.8431
1844	64.8202
1840	64.7615
1836	64.7539
1832	64.7843
1828	64.7898
1824	64.793
1820	64.8543
1816	64.9213
1812	64.8838
1808	64.7799
1804	64.7304
1800	64.7639
1796	64.7882
1792	64.7398
1788	64.7509
1784	64.8084
1780	64.7676
1776	64.7181
1772	64.702
1768	64.6798
1764	64.7036
1760	64.717
1756	64.6656
1752	64.6155
1748	64.5474
1744	64.4448
1740	64.4197
1736	64.4983
1732	64.5601
1728	64.5654
1724	64.5613
1720	64.5807
1716	64.6421
1712	64.6784
1708	64.6646
1704	64.7367
1700	64.9312
1696	64.9967
1692	64.8822
1688	64.8895
1684	64.943
1680	64.8453
1676	64.7501
1672	64.7013
1668	64.6714
1664	64.7079
1660	64.7551
1656	64.7834
1652	64.7198
1648	64.5903
1644	64.5826
1640	64.6443
1636	64.6435
1632	64.6026
1628	64.5904
1624	64.6085
1620	64.6672
1616	64.7356
1612	64.7008
1608	64.6236
1604	64.5982
1600	64.6269
1596	64.7085
1592	64.7761
1588	64.7698
1584	64.7785
1580	64.8752
1576	64.898
1572	64.7654
1568	64.6432
1564	64.6945
1560	64.8674
1556	64.8472
1552	64.646
1548	64.5755
1544	64.6353
1540	64.6548
1536	64.6274
1532	64.6069
1528	64.637
1524	64.7056
1520	64.699
1516	64.6574
1512	64.7047
1508	64.7549
1504	64.6831
1500	64.6257
1496	64.6497
1492	64.5971
1488	64.5446
1484	64.5686
1480	64.6284
1476	64.7152
1472	64.737
1468	64.6899
1464	64.6353
1460	64.5675
1456	64.4986
1452	64.4784
1448	64.5068
1444	64.5399
1440	64.5563
1436	64.5072
1432	64.4538
1428	64.4426
1424	64.4424
1420	64.4771
1416	64.4454
1412	64.3439
1408	64.3374
1404	64.4073
1400	64.4325
1396	64.3946
1392	64.3578
1388	64.3872
1384	64.4264
1380	64.4136
1376	64.3742
1372	64.3456
1368	64.4189
1364	64.5388
1360	64.5286
1356	64.4783
1352	64.484
1348	64.4659
1344	64.416
1340	64.3673
1336	64.3458
1332	64.3552
1328	64.3882
1324	64.4473
1320	64.4603
1316	64.3707
1312	64.3217
1308	64.3472
1304	64.3419
1300	64.3333
1296	64.3429
1292	64.383
1288	64.392
1284	64.2841
1280	64.2232
1276	64.2981
1272	64.3306
1268	64.2889
1264	64.2806
1260	64.2938
1256	64.3127
1252	64.3694
1248	64.4088
1244	64.3513
1240	64.2394
1236	64.1627
1232	64.1259
1228	64.1423
1224	64.2166
1220	64.2275
1216	64.2009
1212	64.244
1208	64.2878
1204	64.2874
1200	64.3096
1196	64.3264
1192	64.2939
1188	64.2769
1184	64.2656
1180	64.1779
1176	64.1201
1172	64.2241
1168	64.2963
1164	64.2436
1160	64.2212
1156	64.2071
1152	64.1295
1148	64.0946
1144	64.1682
1140	64.2793
1136	64.3288
1132	64.3298
1128	64.3249
1124	64.2799
1120	64.2111
1116	64.219
1112	64.2776
1108	64.2187
1104	64.1272
1100	64.1584
1096	64.2452
1092	64.3531
1088	64.3918
1084	64.367
1080	64.2795
1076	64.1301
1072	64.0851
1068	64.0448
1064	64.0236
1060	64.1452
1056	64.2357
1052	64.2448
1048	64.1727
1044	64.0112
1040	63.9922
1036	64.0364
1032	63.9645
1028	63.9748
1024	64.1058
1020	64.2161
1016	64.2218
1012	64.1211
1008	64.0666
1004	64.058
1000	64.0258
996	 64.0426
992	 64.0883
988	 64.1079
984	 64.1257
980	 64.1485
976	 64.0957
972	 64.0043
968	 64.0663
964	 64.2072
960	 64.2743
956	 64.2691
952	 64.196
948	 64.1677
944	 64.2427
940	 64.2949
936	 64.2735
932	 64.3042
928	 64.4351
924	 64.4678
920	 64.402
916	 64.3749
912	 64.2789
908	 64.1497
904	 64.1036
900	 64.0935
896	 64.0694
892	 63.9904
888	 63.9744
884	 64.1138
880	 64.2214
876	 64.2452
872	 64.2467
868	 64.2221
864	 64.2279
860	 64.1773
856	 64.0939
852	 64.1625
848	 64.3052
844	 64.3387
840	 64.2983
836	 64.2638
832	 64.1865
828	 64.0374
824	 63.8846
820	 63.8645
816	 63.9792
812	 64.1368
808	 64.2234
804	 64.1559
800	 64.1078
796	 64.18
792	 64.2033
788	 64.1603
784	 64.1386
780	 64.0984
776	 64.0644
772	 64.0355
768	 63.9284
764	 63.9431
760	 64.1823
756	 64.2108
752	 64.0167
748	 64.0074
744	 64.012
740	 63.8316
736	 63.6278
732	 63.6939
728	 64.0409
724	 64.2419
720	 64.1294
716	 63.9639
712	 63.9123
708	 63.8564
704	 63.903
700	 64.0639
696	 64.0455
692	 63.9572
688	 64.0366
684	 64.0857
680	 63.9665
676	 64.0071
672	 64.1129
668	 63.8509
664	 63.5834
660	 63.7642
656	 63.879
652	 63.731
648	 63.811
644	 63.8973
640	 63.9126
636	 64.0282
632	 63.8704
628	 63.6332
624	 63.7962
620	 64.113
616	 63.9963
612	 63.5858
608	 63.3817
604	 63.427
600	 63.0256
596	 61.8332
592	 61.6144
588	 62.6046
584	 63.1305
580	 63.3683
576	 63.4102
572	 63.2372
568	 63.6316
564	 64.1558
560	 63.7999
556	 63.1622
552	 63.2615
548	 63.7326
544	 64.1733
540	 64.4627
536	 64.2109
532	 64.0773
528	 64.4083
524	 64.334
520	 63.8835
516	 63.9151
512	 63.9142
508	 63.564
504	 63.3741
500	 63.3932
496	 63.816
492	 64.3323
488	 64.3251
484	 64.258
480	 64.6576
476	 65.1194
472	 64.7893
468	 63.4675
464	 62.5461
460	 63.2907
456	 64.4236
452	 64.6958
448	 64.6042
444	 64.1643
440	 63.7063
436	 63.9668
432	 64.1224
428	 63.8269
424	 63.6895
420	 63.4925
416	 62.9594
412	 62.2426
408	 61.0443
404	 61.4967
400	 66.87
396	 70.52
392	 66.0058
388	 59.3772
384	 56.6538
380	 54.5069
376	 63.7602
372	 50.8446
370	 73.3686