File: Bakgrunnsmateriale/MATLAB/FTIR/ftir_data/subAa/Mapping_121/BZ1503107-1_t40_cm-1.asc
PE IR       SPECTRUM    SPECTRUM    ASCII       PEDS        1.60
  -1
BZ6824~1.ASC
17/04/07
16:29:00.00
17/04/07
16:29:00.00
tln
$BZ1503107-1_t0040$<tbV0>[-2.6,-5.2,8.0,0.0,27,1,0]
370
64

2002,4.07
MIRTGS : RIGHTBACK : INTERNAL 2
MIR : ON : INTERNAL 2
OPTKBR

0.200000
8
8.000000
FILLER
RATIO
SPECTRUM
UNLOCKED 256

DOUBLE
64
COMBINED
1
0
0

1.000000
RATIO

1
0
TRUE
51149
0
LEFT NOT FITTED RIGHT NOT FITTED 0
NONE
NONE
15600
12
4.427000
51148
TRUE
1 0 8 72 0 0 0 0

15798

#HDR
-1
-1
#GR
CM-1
%T
2.38419e-05
0.0
5000
-1.000000
4631
8
76.0082
46.2908
#DATA
5000	65.4353
4996	65.2947
4992	65.0539
4988	65.1323
4984	65.2116
4980	65.0719
4976	64.9823
4972	64.8456
4968	64.7333
4964	64.9375
4960	65.0229
4956	64.6559
4952	64.3918
4948	64.4969
4944	64.7416
4940	64.8006
4936	64.5999
4932	64.4943
4928	64.5344
4924	64.4776
4920	64.2943
4916	64.0533
4912	64.1978
4908	64.6868
4904	64.7498
4900	64.5737
4896	64.6434
4892	64.8182
4888	64.9598
4884	65.1247
4880	65.2109
4876	65.2269
4872	65.1396
4868	64.9345
4864	65.0239
4860	65.257
4856	65.2569
4852	65.0575
4848	64.7585
4844	64.6419
4840	64.8201
4836	65.0097
4832	65.074
4828	65.1606
4824	65.1222
4820	64.8173
4816	64.679
4812	64.9179
4808	65.0732
4804	64.9082
4800	64.6545
4796	64.5415
4792	64.7567
4788	65.0718
4784	65.2769
4780	65.4506
4776	65.527
4772	65.4453
4768	65.2127
4764	65.0959
4760	65.273
4756	65.4734
4752	65.4511
4748	65.2944
4744	65.1141
4740	64.9837
4736	65.0412
4732	65.1517
4728	65.0752
4724	65.0353
4720	65.2867
4716	65.5017
4712	65.5567
4708	65.6377
4704	65.5298
4700	65.3239
4696	65.2892
4692	65.1733
4688	65.0702
4684	65.0633
4680	64.9841
4676	64.9482
4672	64.9665
4668	64.974
4664	64.938
4660	64.9329
4656	65.058
4652	65.1824
4648	65.0985
4644	64.9551
4640	64.9518
4636	65.0027
4632	65.0477
4628	65.1002
4624	65.1327
4620	65.0857
4616	64.8848
4612	64.6178
4608	64.604
4604	64.6466
4600	64.4896
4596	64.49
4592	64.6369
4588	64.6281
4584	64.5623
4580	64.7176
4576	64.9532
4572	64.9136
4568	64.8014
4564	64.8351
4560	64.842
4556	64.8055
4552	64.8574
4548	65.0228
4544	65.1245
4540	64.9444
4536	64.7147
4532	64.7043
4528	64.5747
4524	64.1299
4520	63.9122
4516	64.2463
4512	64.5777
4508	64.5606
4504	64.4098
4500	64.2653
4496	64.189
4492	64.237
4488	64.4262
4484	64.613
4480	64.4387
4476	64.2068
4472	64.3842
4468	64.533
4464	64.6289
4460	65.0482
4456	65.1298
4452	64.5228
4448	64.2544
4444	64.1195
4440	65.1827
4436	66.7903
4432	68.0947
4428	71.5533
4424	73.2977
4420	67.5943
4416	60.474
4412	63.0514
4408	69.5192
4404	68.9692
4400	66.7306
4396	65.923
4392	64.9069
4388	64.7431
4384	65.0155
4380	65.1149
4376	65.0719
4372	65.1421
4368	65.2214
4364	65.0642
4360	64.9196
4356	64.8668
4352	64.783
4348	64.7029
4344	64.6039
4340	64.6252
4336	64.7271
4332	64.509
4328	64.1841
4324	64.2644
4320	64.3949
4316	64.3841
4312	64.5062
4308	64.6558
4304	64.7774
4300	64.8965
4296	65.0131
4292	64.9713
4288	64.768
4284	64.7224
4280	64.7175
4276	64.6921
4272	64.8235
4268	64.9813
4264	65.0533
4260	65.0509
4256	64.969
4252	64.9225
4248	64.9076
4244	64.9058
4240	64.9717
4236	65.05
4232	65.1292
4228	65.1337
4224	65.131
4220	65.208
4216	65.1672
4212	65.0333
4208	65.0032
4204	65.0081
4200	65.0658
4196	65.3021
4192	65.5134
4188	65.4325
4184	65.1055
4180	64.8742
4176	64.9505
4172	65.102
4168	65.1176
4164	65.0751
4160	65.1136
4156	65.2096
4152	65.1598
4148	65.1201
4144	65.1871
4140	65.1528
4136	65.2173
4132	65.3447
4128	65.2496
4124	65.0858
4120	65.0499
4116	65.1663
4112	65.4001
4108	65.487
4104	65.2374
4100	64.9834
4096	65.0554
4092	65.2423
4088	65.2735
4084	65.2462
4080	65.2801
4076	65.3213
4072	65.3294
4068	65.2465
4064	65.089
4060	65.0089
4056	64.9843
4052	64.9719
4048	65.0515
4044	65.0809
4040	65.0352
4036	65.0576
4032	65.0008
4028	64.9438
4024	65.1005
4020	65.2384
4016	65.2102
4012	65.2651
4008	65.3898
4004	65.3804
4000	65.3309
3996	65.3703
3992	65.4428
3988	65.4418
3984	65.3871
3980	65.3258
3976	65.2859
3972	65.195
3968	65.0622
3964	65.0698
3960	65.1429
3956	65.0974
3952	65.0105
3948	65.1049
3944	65.2946
3940	65.269
3936	65.081
3932	64.9
3928	64.7032
3924	64.6988
3920	64.9031
3916	65.0272
3912	65.0971
3908	65.1738
3904	65.2566
3900	65.3432
3896	65.3042
3892	65.1749
3888	65.0929
3884	64.991
3880	64.9765
3876	65.1401
3872	65.2291
3868	65.2172
3864	65.1753
3860	65.0827
3856	65.1329
3852	65.2685
3848	65.1461
3844	64.9635
3840	65.0147
3836	65.1341
3832	65.2383
3828	65.3515
3824	65.3817
3820	65.2801
3816	65.1555
3812	65.0897
3808	65.1042
3804	65.2449
3800	65.3879
3796	65.3314
3792	65.1686
3788	65.0803
3784	65.0475
3780	65.1264
3776	65.2699
3772	65.323
3768	65.3209
3764	65.4365
3760	65.5576
3756	65.4077
3752	65.1915
3748	65.0859
3744	65.0459
3740	65.1735
3736	65.3438
3732	65.3593
3728	65.3031
3724	65.2806
3720	65.3538
3716	65.4086
3712	65.2913
3708	65.2403
3704	65.4109
3700	65.4953
3696	65.3162
3692	65.133
3688	65.1626
3684	65.3004
3680	65.3723
3676	65.3536
3672	65.3358
3668	65.3921
3664	65.3863
3660	65.2576
3656	65.2069
3652	65.2083
3648	65.1441
3644	65.1378
3640	65.2168
3636	65.281
3632	65.2674
3628	65.1475
3624	65.0777
3620	65.1177
3616	65.1533
3612	65.1978
3608	65.2348
3604	65.2515
3600	65.2988
3596	65.3419
3592	65.3661
3588	65.3347
3584	65.2181
3580	65.1534
3576	65.2003
3572	65.2433
3568	65.291
3564	65.3358
3560	65.2822
3556	65.2164
3552	65.178
3548	65.1494
3544	65.1632
3540	65.1056
3536	64.9899
3532	64.9563
3528	64.9229
3524	64.8981
3520	65.0183
3516	65.1799
3512	65.212
3508	65.1856
3504	65.194
3500	65.1924
3496	65.1773
3492	65.129
3488	65.0485
3484	65.0104
3480	65.0685
3476	65.1974
3472	65.245
3468	65.2267
3464	65.1961
3460	65.0809
3456	65.0196
3452	65.0993
3448	65.1366
3444	65.0704
3440	65.0408
3436	65.0846
3432	65.1357
3428	65.1694
3424	65.1491
3420	65.1015
3416	65.1137
3412	65.1645
3408	65.2283
3404	65.2947
3400	65.29
3396	65.2439
3392	65.1863
3388	65.1711
3384	65.243
3380	65.204
3376	65.1255
3372	65.2006
3368	65.238
3364	65.1421
3360	65.1321
3356	65.2548
3352	65.2669
3348	65.1712
3344	65.1294
3340	65.1468
3336	65.2176
3332	65.2964
3328	65.2756
3324	65.1553
3320	65.0902
3316	65.0711
3312	65.0222
3308	65.0568
3304	65.1067
3300	65.1166
3296	65.1441
3292	65.1126
3288	65.0537
3284	65.0168
3280	65.0398
3276	65.1792
3272	65.2834
3268	65.3202
3264	65.3104
3260	65.1624
3256	65.0402
3252	65.1136
3248	65.2224
3244	65.1751
3240	65.0486
3236	64.9575
3232	64.9373
3228	65.0551
3224	65.2168
3220	65.2075
3216	65.078
3212	65.0498
3208	65.136
3204	65.1996
3200	65.1967
3196	65.0905
3192	64.9209
3188	64.8901
3184	64.9881
3180	65.0785
3176	65.1575
3172	65.1925
3168	65.1741
3164	65.1509
3160	65.1796
3156	65.2104
3152	65.1049
3148	64.9409
3144	64.9022
3140	64.9949
3136	65.0943
3132	65.1659
3128	65.135
3124	64.9818
3120	64.9776
3116	65.1153
3112	65.1603
3108	65.1743
3104	65.2376
3100	65.2877
3096	65.2603
3092	65.1574
3088	65.0548
3084	65.0495
3080	65.1248
3076	65.1083
3072	65.0482
3068	65.0826
3064	65.1106
3060	65.1261
3056	65.2014
3052	65.2333
3048	65.1527
3044	65.099
3040	65.0957
3036	65.0066
3032	64.9313
3028	64.9399
3024	64.938
3020	64.9539
3016	64.9734
3012	64.9882
3008	65.0939
3004	65.2304
3000	65.2499
2996	65.1883
2992	65.1828
2988	65.1879
2984	65.1597
2980	65.1395
2976	65.1018
2972	65.0736
2968	65.0275
2964	64.9642
2960	64.9487
2956	64.9932
2952	65.0793
2948	65.0764
2944	64.9553
2940	64.9231
2936	64.9821
2932	64.9802
2928	65.0194
2924	65.1169
2920	65.1329
2916	65.1085
2912	65.1188
2908	65.1341
2904	65.1785
2900	65.2258
2896	65.1643
2892	65.0768
2888	65.0999
2884	65.1361
2880	65.0848
2876	65.0624
2872	65.1299
2868	65.1656
2864	65.0936
2860	65.0065
2856	64.9981
2852	64.9664
2848	64.871
2844	64.8786
2840	64.9894
2836	65.0533
2832	65.067
2828	65.0785
2824	65.0373
2820	64.942
2816	64.9226
2812	64.9787
2808	65.0367
2804	65.1168
2800	65.1818
2796	65.1759
2792	65.1476
2788	65.1197
2784	65.0505
2780	65.0083
2776	65.0743
2772	65.1753
2768	65.2204
2764	65.2196
2760	65.1935
2756	65.1675
2752	65.165
2748	65.1796
2744	65.2012
2740	65.174
2736	65.0925
2732	65.0538
2728	65.1051
2724	65.1874
2720	65.2097
2716	65.1622
2712	65.1117
2708	65.103
2704	65.1281
2700	65.12
2696	65.0776
2692	65.0502
2688	65.0487
2684	65.0417
2680	65.0075
2676	65.0001
2672	65.0209
2668	65.013
2664	65.0058
2660	65.0715
2656	65.1287
2652	65.1039
2648	65.0742
2644	65.0568
2640	65.0358
2636	65.0364
2632	65.0528
2628	65.0598
2624	65.0739
2620	65.0628
2616	64.9847
2612	64.9218
2608	64.9019
2604	64.9131
2600	64.9498
2596	64.9239
2592	64.8758
2588	64.9002
2584	64.952
2580	64.9644
2576	64.921
2572	64.894
2568	64.9321
2564	64.9502
2560	64.9225
2556	64.9067
2552	64.9106
2548	64.9336
2544	64.9664
2540	64.9796
2536	64.9987
2532	65.0107
2528	64.9987
2524	65.003
2520	64.9918
2516	64.9493
2512	64.9221
2508	64.9278
2504	64.936
2500	64.9293
2496	64.9125
2492	64.8889
2488	64.8696
2484	64.8679
2480	64.9066
2476	64.934
2472	64.8934
2468	64.8733
2464	64.925
2460	64.9131
2456	64.8092
2452	64.7788
2448	64.8378
2444	64.9324
2440	65.0178
2436	65.0088
2432	64.9575
2428	64.8721
2424	64.8019
2420	64.917
2416	65.0858
2412	65.1084
2408	65.0544
2404	64.9794
2400	64.8847
2396	64.8684
2392	64.9289
2388	64.9661
2384	64.9785
2380	64.9664
2376	64.9216
2372	64.8969
2368	64.8883
2364	64.8665
2360	64.8793
2356	64.9316
2352	64.9482
2348	64.9307
2344	64.9543
2340	65.0026
2336	65.0157
2332	64.9609
2328	64.8777
2324	64.9109
2320	65.0088
2316	64.9875
2312	64.8758
2308	64.8042
2304	64.8261
2300	64.8686
2296	64.8687
2292	64.8756
2288	64.9343
2284	64.9941
2280	64.9843
2276	64.9384
2272	64.8993
2268	64.8595
2264	64.8459
2260	64.8857
2256	64.9455
2252	64.9352
2248	64.8525
2244	64.8159
2240	64.8314
2236	64.8875
2232	64.9727
2228	64.9511
2224	64.8415
2220	64.8012
2216	64.8235
2212	64.8473
2208	64.8617
2204	64.8878
2200	64.9538
2196	64.9637
2192	64.8855
2188	64.8357
2184	64.8611
2180	64.8701
2176	64.7909
2172	64.7054
2168	64.6772
2164	64.6747
2160	64.7007
2156	64.7429
2152	64.724
2148	64.6781
2144	64.6962
2140	64.724
2136	64.713
2132	64.7058
2128	64.7451
2124	64.8223
2120	64.8292
2116	64.7845
2112	64.7894
2108	64.7929
2104	64.7459
2100	64.7101
2096	64.7115
2092	64.6827
2088	64.6705
2084	64.6824
2080	64.6607
2076	64.6745
2072	64.7212
2068	64.7477
2064	64.7776
2060	64.7925
2056	64.783
2052	64.7745
2048	64.7805
2044	64.7954
2040	64.7782
2036	64.7175
2032	64.6721
2028	64.7269
2024	64.8199
2020	64.8417
2016	64.8348
2012	64.8339
2008	64.8216
2004	64.7969
2000	64.7616
1996	64.6951
1992	64.6154
1988	64.6238
1984	64.7019
1980	64.7177
1976	64.6864
1972	64.7371
1968	64.8185
1964	64.8189
1960	64.7797
1956	64.7672
1952	64.7871
1948	64.7432
1944	64.6799
1940	64.7195
1936	64.7729
1932	64.746
1928	64.7146
1924	64.7339
1920	64.7434
1916	64.7427
1912	64.7369
1908	64.6841
1904	64.6237
1900	64.6372
1896	64.6925
1892	64.7272
1888	64.731
1884	64.704
1880	64.6927
1876	64.681
1872	64.6316
1868	64.6097
1864	64.615
1860	64.6397
1856	64.6946
1852	64.6873
1848	64.6446
1844	64.6579
1840	64.6746
1836	64.6724
1832	64.6944
1828	64.7316
1824	64.7289
1820	64.7047
1816	64.7031
1812	64.6735
1808	64.6276
1804	64.6394
1800	64.6549
1796	64.6402
1792	64.6318
1788	64.6147
1784	64.5923
1780	64.5863
1776	64.5982
1772	64.5946
1768	64.5468
1764	64.4984
1760	64.4629
1756	64.4333
1752	64.429
1748	64.4117
1744	64.367
1740	64.3095
1736	64.218
1732	64.1545
1728	64.2007
1724	64.2757
1720	64.3349
1716	64.4065
1712	64.4354
1708	64.4516
1704	64.4789
1700	64.4935
1696	64.5146
1692	64.5405
1688	64.5684
1684	64.5452
1680	64.5249
1676	64.5443
1672	64.4988
1668	64.4383
1664	64.4386
1660	64.4913
1656	64.5695
1652	64.5733
1648	64.4841
1644	64.4314
1640	64.4647
1636	64.4994
1632	64.4606
1628	64.3774
1624	64.3158
1620	64.2554
1616	64.2087
1612	64.2576
1608	64.3953
1604	64.4734
1600	64.4265
1596	64.3896
1592	64.3691
1588	64.3481
1584	64.348
1580	64.2361
1576	64.1243
1572	64.2161
1568	64.3521
1564	64.3759
1560	64.3247
1556	64.2942
1552	64.2766
1548	64.2606
1544	64.2898
1540	64.3058
1536	64.3211
1532	64.4002
1528	64.426
1524	64.368
1520	64.4047
1516	64.4809
1512	64.42
1508	64.3404
1504	64.3759
1500	64.4125
1496	64.4029
1492	64.422
1488	64.4452
1484	64.4507
1480	64.3986
1476	64.2694
1472	64.179
1468	64.2142
1464	64.3294
1460	64.396
1456	64.3574
1452	64.3481
1448	64.3719
1444	64.3391
1440	64.3244
1436	64.3053
1432	64.2669
1428	64.3277
1424	64.4392
1420	64.4618
1416	64.3715
1412	64.2261
1408	64.1703
1404	64.2553
1400	64.304
1396	64.2279
1392	64.1345
1388	64.1241
1384	64.178
1380	64.2085
1376	64.2476
1372	64.3226
1368	64.3073
1364	64.209
1360	64.1862
1356	64.2152
1352	64.1641
1348	64.0826
1344	64.0896
1340	64.183
1336	64.2596
1332	64.2842
1328	64.2931
1324	64.2455
1320	64.1738
1316	64.1237
1312	64.1064
1308	64.1565
1304	64.1851
1300	64.1453
1296	64.1142
1292	64.1264
1288	64.1337
1284	64.0637
1280	63.992
1276	64.001
1272	64.0214
1268	64.0376
1264	64.0809
1260	64.122
1256	64.1125
1252	64.0846
1248	64.0572
1244	64.0133
1240	64.0339
1236	64.1214
1232	64.1576
1228	64.0745
1224	64.0148
1220	64.093
1216	64.1848
1212	64.1894
1208	64.1115
1204	64.0407
1200	64.0278
1196	64.0382
1192	64.0222
1188	63.9981
1184	64.0563
1180	64.1344
1176	64.0792
1172	63.9768
1168	63.9741
1164	64.0318
1160	64.0798
1156	64.0911
1152	64.0572
1148	64.0454
1144	64.0592
1140	64.0224
1136	64.0002
1132	63.9366
1128	63.8157
1124	63.8176
1120	63.9542
1116	64.0827
1112	64.0658
1108	63.9677
1104	63.9352
1100	63.9381
1096	63.9304
1092	63.9488
1088	63.9729
1084	63.9436
1080	63.9313
1076	63.9379
1072	63.8966
1068	63.8809
1064	63.8902
1060	63.8878
1056	63.929
1052	63.972
1048	63.8899
1044	63.7551
1040	63.7543
1036	63.8046
1032	63.8313
1028	63.9465
1024	64.026
1020	63.9123
1016	63.7899
1012	63.7921
1008	63.8308
1004	63.8936
1000	63.9946
996	 64.052
992	 64.0432
988	 64.0038
984	 63.9755
980	 63.9599
976	 63.9173
972	 63.9071
968	 63.878
964	 63.858
960	 63.9807
956	 64.025
952	 63.8624
948	 63.7225
944	 63.7796
940	 63.9025
936	 63.9533
932	 63.9802
928	 64.0526
924	 64.1431
920	 64.1654
916	 64.1021
912	 63.9511
908	 63.819
904	 63.8121
900	 63.8626
896	 63.9019
892	 63.8983
888	 63.8472
884	 63.8535
880	 64.0046
876	 64.1427
872	 64.155
868	 64.1104
864	 63.9931
860	 63.9313
856	 64.0059
852	 63.9854
848	 63.8262
844	 63.743
840	 63.8541
836	 63.9363
832	 63.8435
828	 63.8498
824	 63.9276
820	 63.8514
816	 63.7334
812	 63.6823
808	 63.7437
804	 63.9285
800	 64.0902
796	 64.0577
792	 63.9297
788	 63.9837
784	 64.1522
780	 64.163
776	 64.0047
772	 63.7826
768	 63.6657
764	 63.6433
760	 63.626
756	 63.626
752	 63.6173
748	 63.6524
744	 63.8676
740	 64.0717
736	 63.9235
732	 63.7299
728	 63.8322
724	 63.9585
720	 63.9058
716	 63.7392
712	 63.495
708	 63.5949
704	 64.0634
700	 64.0521
696	 63.5897
692	 63.4347
688	 63.6111
684	 63.6269
680	 63.5443
676	 63.6819
672	 63.6986
668	 63.4863
664	 63.1693
660	 63.1033
656	 63.44
652	 63.5579
648	 63.4926
644	 63.5309
640	 63.508
636	 63.2817
632	 62.9467
628	 62.9988
624	 63.5834
620	 63.692
616	 63.0175
612	 62.6154
608	 62.7246
604	 63.0355
600	 63.6331
596	 64.1263
592	 64.0772
588	 63.7202
584	 63.4786
580	 63.6777
576	 64.0655
572	 63.8475
568	 63.09
564	 62.7586
560	 63.0787
556	 63.5066
552	 63.8815
548	 63.9475
544	 63.6996
540	 63.5372
536	 63.4955
532	 63.4466
528	 63.5439
524	 63.7959
520	 63.7904
516	 63.4919
512	 63.3606
508	 63.6102
504	 64.0608
500	 64.2248
496	 64.0048
492	 63.7161
488	 63.5741
484	 63.5092
480	 63.2372
476	 62.8291
472	 62.901
468	 63.3125
464	 63.6129
460	 63.7761
456	 63.2223
452	 62.1907
448	 61.9089
444	 62.3864
440	 62.7785
436	 62.7495
432	 62.9777
428	 63.1933
424	 62.9765
420	 63.6415
416	 64.8821
412	 64.9099
408	 62.5715
404	 58.0718
400	 53.4318
396	 50.4228
392	 47.3956
388	 48.4667
384	 64.4038
380	 76.0082
376	 62.3746
372	 46.6386
370	 47.9493