File: Bakgrunnsmateriale/MATLAB/FTIR/ftir_data/subAa/Mapping_121/BZ1503107-1_t17_cm-1.asc
PE IR       SPECTRUM    SPECTRUM    ASCII       PEDS        1.60
  -1
BZ6FA1~1.ASC
17/04/07
14:34:59.00
17/04/07
14:34:59.00
tln
$BZ1503107-1_t0017$<tbV0>[0.0,-10.4,8.0,0.0,27,1,0]
370
64

2002,4.07
MIRTGS : RIGHTBACK : INTERNAL 2
MIR : ON : INTERNAL 2
OPTKBR

0.200000
8
8.000000
FILLER
RATIO
SPECTRUM
UNLOCKED 256

DOUBLE
64
COMBINED
1
0
0

1.000000
RATIO

1
0
TRUE
51149
0
LEFT NOT FITTED RIGHT NOT FITTED 0
NONE
NONE
15600
12
4.427000
51148
TRUE
1 0 8 72 0 0 0 0

15798

#HDR
-1
-1
#GR
CM-1
%T
2.38419e-05
0.0
5000
-1.000000
4631
8
75.2573
45.2211
#DATA
5000	66.7837
4996	67.6537
4992	67.6171
4988	66.0249
4984	64.2121
4980	64.0691
4976	65.0439
4972	66.0152
4968	66.154
4964	65.4194
4960	64.5762
4956	64.31
4952	64.6622
4948	64.9553
4944	64.4365
4940	64.1001
4936	64.7569
4932	65.036
4928	64.6865
4924	64.2797
4920	64.21
4916	64.7588
4912	65.1317
4908	65.0327
4904	64.8913
4900	64.8542
4896	64.9237
4892	64.9683
4888	64.9409
4884	65.0364
4880	65.1054
4876	65.0552
4872	65.2529
4868	65.6289
4864	65.8143
4860	65.7173
4856	65.3574
4852	65.0807
4848	65.2903
4844	65.4747
4840	65.2614
4836	64.9946
4832	64.8283
4828	64.9542
4824	65.135
4820	65.0397
4816	65.1731
4812	65.2445
4808	65.0732
4804	65.6513
4800	66.2266
4796	65.7788
4792	65.4319
4788	65.6208
4784	65.4669
4780	64.9504
4776	64.8033
4772	64.6729
4768	64.171
4764	64.4376
4760	65.3308
4756	65.2374
4752	64.535
4748	64.4263
4744	64.7377
4740	64.8322
4736	64.6943
4732	64.7394
4728	64.853
4724	64.7072
4720	64.5519
4716	64.8112
4712	64.9737
4708	64.6436
4704	64.5914
4700	64.798
4696	64.8368
4692	64.993
4688	65.1738
4684	65.1202
4680	65.1343
4676	65.1179
4672	64.8723
4668	64.8348
4664	65.134
4660	65.4112
4656	65.2676
4652	65.0143
4648	65.1867
4644	65.3246
4640	65.0094
4636	64.7033
4632	64.7381
4628	64.8602
4624	64.7732
4620	64.6
4616	64.7008
4612	64.9146
4608	64.9071
4604	64.8661
4600	64.7158
4596	64.4009
4592	64.4184
4588	64.7369
4584	64.8711
4580	64.8014
4576	64.7107
4572	64.5779
4568	64.6327
4564	64.9467
4560	65.1574
4556	65.0113
4552	64.6081
4548	64.4112
4544	64.5606
4540	64.658
4536	64.6632
4532	64.7652
4528	64.8531
4524	64.6252
4520	64.3162
4516	64.3894
4512	64.8165
4508	65.2173
4504	65.2954
4500	65.2947
4496	65.9341
4492	67.4299
4488	68.0326
4484	68.5623
4480	69.4774
4476	67.7942
4472	65.5201
4468	64.8105
4464	64.3374
4460	63.9463
4456	63.3796
4452	62.219
4448	58.1281
4444	51.3327
4440	52.3626
4436	62.2155
4432	68.1601
4428	68.2606
4424	66.4053
4420	64.811
4416	65.5232
4412	66.2752
4408	65.7962
4404	65.2227
4400	65.1128
4396	65.3373
4392	65.4438
4388	65.2122
4384	64.9254
4380	64.835
4376	64.8602
4372	64.8801
4368	64.863
4364	64.8294
4360	64.8838
4356	64.9231
4352	64.7695
4348	64.7412
4344	65.0095
4340	65.0291
4336	64.7506
4332	64.7266
4328	64.8429
4324	64.7994
4320	64.7408
4316	64.7793
4312	64.845
4308	64.8529
4304	64.7951
4300	64.7843
4296	64.8148
4292	64.8204
4288	64.9297
4284	65.1177
4280	65.1992
4276	65.1942
4272	65.1754
4268	65.1348
4264	65.0481
4260	64.9345
4256	64.8782
4252	64.9317
4248	64.9743
4244	64.9499
4240	64.9439
4236	64.9222
4232	64.9604
4228	65.092
4224	65.1579
4220	65.1398
4216	65.0451
4212	64.9529
4208	65.0195
4204	65.2236
4200	65.3382
4196	65.1896
4192	65.1223
4188	65.222
4184	65.1214
4180	65.0289
4176	65.0193
4172	64.8759
4168	64.7625
4164	64.8983
4160	65.1487
4156	65.1753
4152	65.025
4148	64.9786
4144	65.1614
4140	65.351
4136	65.2213
4132	65.0147
4128	65.0836
4124	65.1865
4120	65.0791
4116	65.0266
4112	65.1131
4108	65.1033
4104	65.0765
4100	65.1209
4096	65.1763
4092	65.2772
4088	65.3577
4084	65.3477
4080	65.2962
4076	65.245
4072	65.2465
4068	65.2984
4064	65.3274
4060	65.3123
4056	65.3198
4052	65.3233
4048	65.2746
4044	65.1549
4040	65.0401
4036	65.1177
4032	65.2903
4028	65.2507
4024	65.0261
4020	64.9436
4016	65.0304
4012	65.1206
4008	65.1307
4004	65.025
4000	64.916
3996	64.8935
3992	64.8888
3988	64.906
3984	65.077
3980	65.2308
3976	65.269
3972	65.3567
3968	65.3102
3964	65.0932
3960	65.0285
3956	65.088
3952	65.0902
3948	65.0762
3944	65.0167
3940	64.8968
3936	64.8333
3932	64.8314
3928	64.8213
3924	64.8455
3920	64.9848
3916	65.089
3912	65.0615
3908	65.0404
3904	65.0366
3900	65.0407
3896	65.0547
3892	65.043
3888	65.1824
3884	65.419
3880	65.454
3876	65.2524
3872	64.9559
3868	64.8822
3864	65.0303
3860	65.1425
3856	65.3201
3852	65.4138
3848	65.2706
3844	65.1593
3840	65.1835
3836	65.2535
3832	65.2432
3828	65.1632
3824	65.1153
3820	65.1214
3816	65.0962
3812	65.0996
3808	65.219
3804	65.287
3800	65.2132
3796	65.0915
3792	65.0566
3788	65.1611
3784	65.1932
3780	65.0726
3776	65.0446
3772	65.1299
3768	65.175
3764	65.1166
3760	65.0528
3756	65.1849
3752	65.4334
3748	65.5572
3744	65.4813
3740	65.3356
3736	65.2576
3732	65.1685
3728	65.0734
3724	65.1034
3720	65.1531
3716	65.1918
3712	65.3083
3708	65.3845
3704	65.3539
3700	65.2797
3696	65.241
3692	65.2493
3688	65.2863
3684	65.326
3680	65.3711
3676	65.4618
3672	65.4303
3668	65.1899
3664	65.0638
3660	65.1905
3656	65.3361
3652	65.4239
3648	65.4672
3644	65.4127
3640	65.3085
3636	65.2756
3632	65.3489
3628	65.4423
3624	65.4815
3620	65.4555
3616	65.3964
3612	65.3852
3608	65.4286
3604	65.4346
3600	65.3708
3596	65.2867
3592	65.2779
3588	65.3371
3584	65.3606
3580	65.335
3576	65.3026
3572	65.2508
3568	65.2269
3564	65.2582
3560	65.2424
3556	65.2573
3552	65.2876
3548	65.2112
3544	65.1602
3540	65.1919
3536	65.2686
3532	65.3327
3528	65.2944
3524	65.2025
3520	65.1091
3516	65.0475
3512	65.1201
3508	65.2431
3504	65.2329
3500	65.1809
3496	65.1216
3492	64.965
3488	64.94
3484	65.0674
3480	65.1064
3476	65.0884
3472	65.0915
3468	65.1045
3464	65.1125
3460	65.1864
3456	65.2988
3452	65.2811
3448	65.129
3444	64.9881
3440	64.9944
3436	65.0691
3432	65.1337
3428	65.2531
3424	65.2989
3420	65.2469
3416	65.2403
3412	65.231
3408	65.1688
3404	65.1092
3400	65.1284
3396	65.1827
3392	65.1137
3388	65.0343
3384	65.1098
3380	65.1762
3376	65.1603
3372	65.1353
3368	65.0887
3364	65.0554
3360	65.0407
3356	65.0199
3352	65.0386
3348	65.0503
3344	65.0449
3340	65.1141
3336	65.2101
3332	65.2206
3328	65.1948
3324	65.2224
3320	65.2502
3316	65.1936
3312	65.0632
3308	64.996
3304	65.096
3300	65.1559
3296	65.0468
3292	65.0083
3288	65.0923
3284	65.1523
3280	65.1466
3276	65.1191
3272	65.1449
3268	65.1616
3264	65.1254
3260	65.0746
3256	65.0794
3252	65.1273
3248	65.1002
3244	65.0273
3240	65.0063
3236	65.0709
3232	65.1303
3228	65.1511
3224	65.194
3220	65.2151
3216	65.1992
3212	65.2134
3208	65.2098
3204	65.0811
3200	65.0099
3196	65.1057
3192	65.0849
3188	64.9829
3184	65.0635
3180	65.1759
3176	65.177
3172	65.1737
3168	65.1734
3164	65.1793
3160	65.248
3156	65.2719
3152	65.1839
3148	65.1155
3144	65.0774
3140	65.0569
3136	65.1347
3132	65.1982
3128	65.1711
3124	65.1725
3120	65.1496
3116	65.0727
3112	65.0819
3108	65.1657
3104	65.179
3100	65.1068
3096	65.1324
3092	65.2109
3088	65.1714
3084	65.1284
3080	65.1448
3076	65.159
3072	65.2071
3068	65.2653
3064	65.2578
3060	65.1744
3056	65.0806
3052	65.1104
3048	65.2021
3044	65.2026
3040	65.1987
3036	65.2174
3032	65.1578
3028	65.0957
3024	65.1402
3020	65.2413
3016	65.2834
3012	65.2617
3008	65.2689
3004	65.2669
3000	65.1883
2996	65.0921
2992	65.0208
2988	65.001
2984	65.0262
2980	65.0221
2976	65.006
2972	65.0358
2968	65.0097
2964	64.898
2960	64.835
2956	64.8687
2952	64.9308
2948	64.9937
2944	65.0493
2940	64.9837
2936	64.8752
2932	64.8888
2928	64.9423
2924	64.9299
2920	64.9127
2916	64.9227
2912	64.932
2908	64.9714
2904	65.0086
2900	65.0066
2896	65.0123
2892	65.0558
2888	65.0829
2884	65.0534
2880	65.0342
2876	65.0467
2872	65.08
2868	65.1143
2864	65.0738
2860	65.0146
2856	64.9998
2852	64.9809
2848	64.9762
2844	65.0439
2840	65.1046
2836	65.0937
2832	65.0883
2828	65.0544
2824	64.9896
2820	64.9924
2816	64.9915
2812	64.9539
2808	64.9469
2804	64.9935
2800	65.0509
2796	65.0602
2792	65.0259
2788	64.9768
2784	65.0074
2780	65.1107
2776	65.1192
2772	65.0524
2768	65.0272
2764	65.0276
2760	65.0216
2756	65.0233
2752	65.035
2748	65.0584
2744	65.0905
2740	65.1579
2736	65.2407
2732	65.2233
2728	65.1138
2724	65.0326
2720	65.0428
2716	65.1325
2712	65.2013
2708	65.1568
2704	65.133
2700	65.1868
2696	65.1367
2692	65.0734
2688	65.1022
2684	65.0627
2680	65.0158
2676	65.0418
2672	65.0282
2668	64.9954
2664	64.9843
2660	64.993
2656	65.0698
2652	65.1246
2648	65.0719
2644	65.0182
2640	65.0543
2636	65.1144
2632	65.0953
2628	65.0459
2624	65.0534
2620	65.075
2616	65.0857
2612	65.1196
2608	65.1192
2604	65.0684
2600	65.0365
2596	65.0312
2592	65.0652
2588	65.1281
2584	65.1607
2580	65.1627
2576	65.1356
2572	65.0675
2568	65.0376
2564	65.0961
2560	65.1629
2556	65.1763
2552	65.1327
2548	65.0576
2544	65.0307
2540	65.0461
2536	65.044
2532	65.0553
2528	65.0876
2524	65.1166
2520	65.1495
2516	65.1722
2512	65.1745
2508	65.1103
2504	65.0172
2500	64.9992
2496	65.0052
2492	65.0198
2488	65.0441
2484	65.0277
2480	64.9969
2476	64.9822
2472	64.9909
2468	65.0122
2464	64.9962
2460	64.9412
2456	64.924
2452	64.9662
2448	65.0349
2444	65.0414
2440	64.9703
2436	64.9383
2432	64.9246
2428	64.8714
2424	64.8577
2420	64.8928
2416	64.9285
2412	64.9915
2408	65.0552
2404	65.0871
2400	65.0948
2396	65.0781
2392	65.0782
2388	65.0809
2384	65.0553
2380	65.0278
2376	64.9844
2372	64.9368
2368	64.9428
2364	64.9876
2360	65.0023
2356	64.9668
2352	64.9831
2348	65.0591
2344	65.0552
2340	65.0115
2336	65.0085
2332	64.9791
2328	64.93
2324	64.9196
2320	64.9337
2316	64.9625
2312	64.9959
2308	64.9907
2304	64.9721
2300	64.9676
2296	64.9483
2292	64.8991
2288	64.8501
2284	64.8696
2280	64.9581
2276	64.9835
2272	64.8981
2268	64.8703
2264	64.962
2260	65.0478
2256	65.0447
2252	64.9928
2248	64.9934
2244	65.0295
2240	64.9647
2236	64.8478
2232	64.8414
2228	64.9082
2224	64.9501
2220	64.9522
2216	64.9204
2212	64.9013
2208	64.9281
2204	64.933
2200	64.8981
2196	64.8697
2192	64.8659
2188	64.8838
2184	64.8959
2180	64.8677
2176	64.8532
2172	64.947
2168	65.0596
2164	65.0387
2160	64.8987
2156	64.8041
2152	64.7663
2148	64.7221
2144	64.7616
2140	64.8334
2136	64.8681
2132	64.9197
2128	64.978
2124	65.0046
2120	64.9542
2116	64.8568
2112	64.8428
2108	64.8423
2104	64.809
2100	64.8497
2096	64.8521
2092	64.7897
2088	64.8177
2084	64.8988
2080	64.9282
2076	64.8649
2072	64.7992
2068	64.823
2064	64.8774
2060	64.9362
2056	64.9784
2052	64.982
2048	64.9635
2044	64.9053
2040	64.8357
2036	64.8276
2032	64.8705
2028	64.9023
2024	64.913
2020	64.8692
2016	64.8047
2012	64.8249
2008	64.868
2004	64.8684
2000	64.834
1996	64.7834
1992	64.8082
1988	64.8687
1984	64.8517
1980	64.8168
1976	64.8533
1972	64.9294
1968	64.9631
1964	64.9551
1960	64.9464
1956	64.9246
1952	64.9035
1948	64.8823
1944	64.8443
1940	64.8118
1936	64.7849
1932	64.7802
1928	64.7925
1924	64.7913
1920	64.776
1916	64.8005
1912	64.8743
1908	64.8888
1904	64.8547
1900	64.8226
1896	64.8062
1892	64.8379
1888	64.8506
1884	64.7988
1880	64.7814
1876	64.8414
1872	64.8881
1868	64.9033
1864	64.858
1860	64.7575
1856	64.7395
1852	64.7812
1848	64.8055
1844	64.8366
1840	64.8314
1836	64.7736
1832	64.7563
1828	64.7791
1824	64.7661
1820	64.7404
1816	64.7766
1812	64.8224
1808	64.7898
1804	64.7538
1800	64.7506
1796	64.7281
1792	64.755
1788	64.8405
1784	64.8612
1780	64.8262
1776	64.8078
1772	64.7759
1768	64.708
1764	64.6785
1760	64.6788
1756	64.6532
1752	64.6408
1748	64.5829
1744	64.452
1740	64.3428
1736	64.2598
1732	64.1885
1728	64.2055
1724	64.3547
1720	64.525
1716	64.593
1712	64.5858
1708	64.5937
1704	64.696
1700	64.8586
1696	64.8947
1692	64.7977
1688	64.7723
1684	64.7888
1680	64.7449
1676	64.7194
1672	64.7058
1668	64.6785
1664	64.6836
1660	64.7155
1656	64.7426
1652	64.7085
1648	64.6708
1644	64.693
1640	64.7381
1636	64.7678
1632	64.742
1628	64.7174
1624	64.7089
1620	64.6981
1616	64.6769
1612	64.6634
1608	64.7033
1604	64.7101
1600	64.7013
1596	64.7217
1592	64.6891
1588	64.6523
1584	64.6864
1580	64.7418
1576	64.7418
1572	64.6767
1568	64.6274
1564	64.7169
1560	64.8991
1556	64.8987
1552	64.7395
1548	64.6584
1544	64.6768
1540	64.6737
1536	64.6092
1532	64.5897
1528	64.6391
1524	64.6917
1520	64.7013
1516	64.6671
1512	64.6966
1508	64.752
1504	64.7081
1500	64.7199
1496	64.7848
1492	64.6598
1488	64.5457
1484	64.5845
1480	64.6271
1476	64.6477
1472	64.6194
1468	64.5508
1464	64.5101
1460	64.5225
1456	64.5295
1452	64.5152
1448	64.5337
1444	64.5492
1440	64.5539
1436	64.5959
1432	64.6162
1428	64.5337
1424	64.4501
1420	64.4443
1416	64.4111
1412	64.3583
1408	64.4063
1404	64.4724
1400	64.4149
1396	64.3484
1392	64.3991
1388	64.468
1384	64.4328
1380	64.3679
1376	64.3523
1372	64.3602
1368	64.4324
1364	64.5279
1360	64.5226
1356	64.5066
1352	64.5648
1348	64.5716
1344	64.5027
1340	64.4364
1336	64.405
1332	64.4146
1328	64.4246
1324	64.4154
1320	64.3767
1316	64.335
1312	64.3393
1308	64.3234
1304	64.2889
1300	64.3026
1296	64.3283
1292	64.3598
1288	64.3828
1284	64.3262
1280	64.2426
1276	64.196
1272	64.179
1268	64.1709
1264	64.1494
1260	64.1733
1256	64.2165
1252	64.1868
1248	64.1329
1244	64.1235
1240	64.1566
1236	64.1951
1232	64.187
1228	64.1743
1224	64.2172
1220	64.2267
1216	64.1977
1212	64.2336
1208	64.2903
1204	64.2812
1200	64.2479
1196	64.2492
1192	64.2528
1188	64.1876
1184	64.0817
1180	64.0085
1176	64.0378
1172	64.1905
1168	64.2573
1164	64.1737
1160	64.1017
1156	64.0374
1152	63.9835
1148	64.0033
1144	64.0199
1140	64.046
1136	64.1308
1132	64.2067
1128	64.2252
1124	64.1743
1120	64.1197
1116	64.1564
1112	64.2092
1108	64.1681
1104	64.1399
1100	64.174
1096	64.2101
1092	64.2667
1088	64.2506
1084	64.2733
1080	64.4108
1076	64.3923
1072	64.2095
1068	64.0846
1064	64.0614
1060	64.0605
1056	64.0949
1052	64.1178
1048	64.0635
1044	63.9939
1040	63.9843
1036	64.0267
1032	64.0514
1028	64.0505
1024	63.9869
1020	63.9498
1016	64.0457
1012	64.1306
1008	64.1477
1004	64.1716
1000	64.2437
996	 64.2911
992	 64.2057
988	 64.1121
984	 64.0738
980	 64.0275
976	 63.9985
972	 64.0119
968	 64.1009
964	 64.1653
960	 64.1291
956	 64.1109
952	 64.1655
948	 64.2292
944	 64.239
940	 64.2354
936	 64.235
932	 64.1706
928	 64.1784
924	 64.286
920	 64.3322
916	 64.3452
912	 64.2689
908	 64.1562
904	 64.2038
900	 64.3107
896	 64.3514
892	 64.324
888	 64.3274
884	 64.386
880	 64.3989
876	 64.4002
872	 64.3315
868	 64.2218
864	 64.2324
860	 64.3056
856	 64.3481
852	 64.3598
848	 64.3901
844	 64.3881
840	 64.2422
836	 64.0414
832	 63.8839
828	 63.8085
824	 63.8808
820	 63.9698
816	 63.9165
812	 63.8109
808	 63.7581
804	 63.7632
800	 63.9528
796	 64.2088
792	 64.2826
788	 64.3594
784	 64.4211
780	 64.2807
776	 64.131
772	 64.1506
768	 64.1697
764	 64.1104
760	 64.0733
756	 64.0079
752	 63.9415
748	 63.9446
744	 63.8611
740	 63.7314
736	 63.7566
732	 63.8586
728	 63.9583
724	 64.0497
720	 64.0572
716	 63.971
712	 63.9508
708	 64.0797
704	 64.1621
700	 64.0203
696	 63.7348
692	 63.6149
688	 63.7705
684	 63.8329
680	 63.7224
676	 63.734
672	 63.9061
668	 64.0549
664	 64.0142
660	 63.8628
656	 63.785
652	 63.9055
648	 64.1371
644	 64.1535
640	 63.8524
636	 63.4695
632	 63.3274
628	 63.5668
624	 63.8453
620	 64.053
616	 64.2692
612	 64.199
608	 64.0453
604	 63.9894
600	 63.716
596	 63.4072
592	 63.4809
588	 64.0989
584	 64.6396
580	 64.2473
576	 63.7243
572	 63.9249
568	 64.165
564	 64.3188
560	 64.4035
556	 64.2377
552	 64.1149
548	 63.9581
544	 64.0497
540	 63.8696
536	 63.0494
532	 62.7805
528	 62.8883
524	 63.1808
520	 63.8187
516	 63.9423
512	 63.8626
508	 63.7646
504	 63.1674
500	 62.6678
496	 62.597
492	 63.1442
488	 64.0135
484	 64.1756
480	 64.0466
476	 64.153
472	 63.6354
468	 62.9354
464	 63.2934
460	 63.8868
456	 63.4046
452	 62.5537
448	 62.0535
444	 61.7852
440	 62.5355
436	 63.4463
432	 63.4856
428	 63.7398
424	 63.8987
420	 62.9543
416	 62.6059
412	 65.2786
408	 68.2255
404	 69.671
400	 73.0982
396	 75.2573
392	 73.6613
388	 70.1346
384	 63.3386
380	 47.6154
376	 49.8674
372	 49.54
370	 73.5371