File: Bakgrunnsmateriale/MATLAB/FTIR/ftir_data/subAa/Mapping_121/BZ1503107-1_t104_cm-1.asc
PE IR       SPECTRUM    SPECTRUM    ASCII       PEDS        1.60
  -1
BZCB7A~1.ASC
17/04/07
21:46:41.00
17/04/07
21:46:41.00
tln
$BZ1503107-1_t0104$<tbV0>[2.6,10.4,8.0,0.0,27,1,0]
370
64

2002,4.07
MIRTGS : RIGHTBACK : INTERNAL 2
MIR : ON : INTERNAL 2
OPTKBR

0.200000
8
8.000000
FILLER
RATIO
SPECTRUM
UNLOCKED 256

DOUBLE
64
COMBINED
1
0
0

1.000000
RATIO

1
0
TRUE
51149
0
LEFT NOT FITTED RIGHT NOT FITTED 0
NONE
NONE
15600
12
4.427000
51148
TRUE
1 0 8 72 0 0 0 0

15798

#HDR
-1
-1
#GR
CM-1
%T
2.38419e-05
0.0
5000
-1.000000
4631
8
84.1278
39.1004
#DATA
5000	62.9284
4996	64.4004
4992	64.6688
4988	63.8634
4984	64.8854
4980	65.6189
4976	64.7117
4972	64.3921
4968	64.7116
4964	64.3739
4960	63.8533
4956	64.7335
4952	66.4432
4948	66.6424
4944	65.4841
4940	64.9452
4936	65.1436
4932	64.9179
4928	64.7265
4924	64.9332
4920	64.7066
4916	64.4324
4912	64.9328
4908	65.5708
4904	65.263
4900	64.7261
4896	64.7112
4892	64.6288
4888	64.519
4884	64.7743
4880	64.8836
4876	64.6826
4872	64.6506
4868	64.8909
4864	65.1349
4860	65.1964
4856	65.1038
4852	64.8187
4848	64.608
4844	64.8411
4840	65.1734
4836	65.0951
4832	64.7638
4828	64.5593
4824	64.7049
4820	65.0556
4816	65.274
4812	65.343
4808	65.179
4804	64.8111
4800	64.7907
4796	65.0211
4792	65.1151
4788	65.1752
4784	65.2065
4780	65.2152
4776	64.9833
4772	64.691
4768	64.7823
4764	65.0362
4760	65.0902
4756	64.8476
4752	64.7773
4748	65.0012
4744	65.0181
4740	64.9356
4736	64.8569
4732	64.6885
4728	64.6389
4724	64.7976
4720	64.9769
4716	64.9873
4712	64.9254
4708	64.862
4704	64.7919
4700	64.815
4696	64.848
4692	64.7789
4688	64.8611
4684	65.2074
4680	65.475
4676	65.4962
4672	65.4374
4668	65.3005
4664	65.171
4660	65.208
4656	65.2903
4652	65.4543
4648	65.5692
4644	65.2833
4640	64.9894
4636	65.0994
4632	65.2824
4628	65.3965
4624	65.5226
4620	65.4875
4616	65.2219
4612	64.9626
4608	64.9361
4604	65.0179
4600	65.036
4596	65.0363
4592	64.9625
4588	64.8923
4584	64.9686
4580	65.0012
4576	64.929
4572	64.9781
4568	65.1119
4564	65.1128
4560	64.9943
4556	64.879
4552	64.8989
4548	64.9249
4544	64.8778
4540	64.9345
4536	64.9872
4532	65.018
4528	65.1759
4524	65.316
4520	65.3402
4516	65.298
4512	65.2122
4508	65.2712
4504	65.4302
4500	65.4076
4496	65.2509
4492	64.7934
4488	64.3252
4484	64.4291
4480	64.5975
4476	64.6211
4472	64.9595
4468	65.2568
4464	65.0731
4460	64.9282
4456	64.9818
4452	67.3382
4448	74.1053
4444	84.1278
4440	71.9049
4436	46.2281
4432	39.9712
4428	52.3408
4424	62.9424
4420	66.1926
4416	67.234
4412	67.4749
4408	67.0319
4404	66.3116
4400	65.6072
4396	65.1257
4392	64.9546
4388	64.822
4384	64.655
4380	64.5992
4376	64.7834
4372	65.1441
4368	65.3672
4364	65.3243
4360	65.1998
4356	65.2227
4352	65.3018
4348	65.2968
4344	65.1702
4340	65.0563
4336	65.0531
4332	65.1609
4328	65.382
4324	65.419
4320	65.219
4316	65.1151
4312	65.1707
4308	65.1983
4304	65.0969
4300	65.0399
4296	65.1005
4292	65.1766
4288	65.1564
4284	65.0457
4280	65.1585
4276	65.3849
4272	65.3421
4268	65.1327
4264	65.0667
4260	65.1416
4256	65.2048
4252	65.2494
4248	65.248
4244	65.2351
4240	65.1644
4236	65.0696
4232	65.1324
4228	65.1689
4224	65.0115
4220	64.8667
4216	64.9328
4212	65.0816
4208	65.1604
4204	65.1905
4200	65.1042
4196	64.9401
4192	64.8708
4188	64.9575
4184	65.0806
4180	65.0201
4176	65.0437
4172	65.2876
4168	65.2379
4164	65.0817
4160	65.0907
4156	65.0045
4152	64.9025
4148	64.8993
4144	64.9543
4140	64.9982
4136	65.0915
4132	65.2258
4128	65.2355
4124	65.1624
4120	65.1229
4116	65.0838
4112	65.0403
4108	64.9992
4104	65.0404
4100	65.1202
4096	65.0376
4092	64.9091
4088	64.8549
4084	64.8679
4080	65.0168
4076	65.206
4072	65.2286
4068	65.0996
4064	64.9652
4060	64.8743
4056	64.8595
4052	64.9264
4048	65.0274
4044	65.1694
4040	65.2686
4036	65.1925
4032	65.101
4028	65.1015
4024	65.1057
4020	65.0972
4016	64.9987
4012	64.8103
4008	64.6614
4004	64.709
4000	64.9836
3996	65.1476
3992	65.1065
3988	65.0648
3984	65.0326
3980	64.952
3976	64.8793
3972	64.9539
3968	65.0332
3964	65.0165
3960	65.0347
3956	65.0623
3952	64.9663
3948	64.7362
3944	64.6855
3940	64.8933
3936	65.034
3932	65.0883
3928	65.1925
3924	65.1716
3920	64.9073
3916	64.7562
3912	64.9829
3908	65.248
3904	65.2591
3900	65.1807
3896	65.1649
3892	65.1507
3888	65.1138
3884	65.0736
3880	64.9449
3876	64.8592
3872	64.862
3868	64.7869
3864	64.7703
3860	64.8721
3856	65.0396
3852	65.1126
3848	64.9883
3844	64.9282
3840	65.034
3836	65.1643
3832	65.1761
3828	65.0794
3824	65.0729
3820	65.1738
3816	65.1802
3812	65.0799
3808	64.941
3804	64.8208
3800	64.9215
3796	65.0996
3792	65.0066
3788	64.9256
3784	65.0786
3780	65.1947
3776	65.2472
3772	65.2664
3768	65.1276
3764	64.9647
3760	64.9781
3756	65.1001
3752	65.19
3748	65.1303
3744	65.0601
3740	65.163
3736	65.2734
3732	65.2531
3728	65.1438
3724	65.0635
3720	65.1056
3716	65.2127
3712	65.2522
3708	65.1532
3704	65.0149
3700	64.9878
3696	65.0647
3692	65.1139
3688	65.0961
3684	65.072
3680	64.9628
3676	64.8424
3672	64.8827
3668	64.972
3664	65.0049
3660	64.9658
3656	64.9007
3652	64.9274
3648	65.0775
3644	65.2349
3640	65.3299
3636	65.3768
3632	65.2583
3628	64.9786
3624	64.7948
3620	64.8039
3616	64.924
3612	65.0785
3608	65.1423
3604	65.0847
3600	65.0084
3596	65.0324
3592	65.131
3588	65.1038
3584	64.9924
3580	64.9199
3576	64.8672
3572	64.8895
3568	64.9639
3564	65.0552
3560	65.1096
3556	65.0209
3552	64.9258
3548	64.9395
3544	64.9698
3540	64.9962
3536	64.9927
3532	64.986
3528	65.0479
3524	65.0136
3520	64.8518
3516	64.7991
3512	64.9253
3508	65.0581
3504	65.0941
3500	65.1111
3496	65.1029
3492	65.1161
3488	65.185
3484	65.1281
3480	65.0241
3476	65.0264
3472	65.0294
3468	65.004
3464	64.9884
3460	64.9898
3456	64.9673
3452	64.8588
3448	64.7751
3444	64.8115
3440	64.8557
3436	64.863
3432	64.8779
3428	64.8852
3424	64.8655
3420	64.9312
3416	65.1122
3412	65.2318
3408	65.2205
3404	65.1331
3400	65.0732
3396	65.0702
3392	65.0369
3388	64.995
3384	65.0237
3380	65.0452
3376	65.0285
3372	64.9856
3368	64.9003
3364	64.907
3360	64.9334
3356	64.9117
3352	65.0008
3348	65.1274
3344	65.2058
3340	65.1891
3336	65.0346
3332	64.8569
3328	64.7587
3324	64.7684
3320	64.8547
3316	64.974
3312	65.0209
3308	64.9495
3304	64.95
3300	65.0611
3296	65.0816
3292	65.0128
3288	64.9306
3284	64.862
3280	64.8423
3276	64.8346
3272	64.8453
3268	64.9036
3264	64.9395
3260	64.9391
3256	65.0123
3252	65.0937
3248	65.0615
3244	64.9861
3240	64.9341
3236	64.932
3232	64.9325
3228	64.8551
3224	64.7835
3220	64.809
3216	64.872
3212	64.8498
3208	64.7683
3204	64.7531
3200	64.8107
3196	64.9071
3192	64.9626
3188	64.9281
3184	64.87
3180	64.8537
3176	64.8763
3172	64.9003
3168	64.9224
3164	64.9186
3160	64.8824
3156	64.834
3152	64.8093
3148	64.8383
3144	64.8561
3140	64.8879
3136	64.954
3132	64.8492
3128	64.666
3124	64.6743
3120	64.7769
3116	64.8603
3112	64.8758
3108	64.7673
3104	64.6792
3100	64.7312
3096	64.8454
3092	64.9269
3088	64.9474
3084	64.9409
3080	64.9116
3076	64.8378
3072	64.7604
3068	64.724
3064	64.7495
3060	64.8338
3056	64.9346
3052	64.9534
3048	64.9555
3044	64.9998
3040	64.9542
3036	64.883
3032	64.8651
3028	64.8751
3024	64.8931
3020	64.8579
3016	64.8289
3012	64.8457
3008	64.8488
3004	64.8559
3000	64.8629
2996	64.8661
2992	64.8568
2988	64.7865
2984	64.7461
2980	64.755
2976	64.6748
2972	64.5544
2968	64.5415
2964	64.6201
2960	64.6791
2956	64.6812
2952	64.701
2948	64.7377
2944	64.7423
2940	64.7765
2936	64.8347
2932	64.8554
2928	64.8825
2924	64.8545
2920	64.7551
2916	64.6951
2912	64.6716
2908	64.6978
2904	64.7416
2900	64.6916
2896	64.6403
2892	64.6825
2888	64.7252
2884	64.7043
2880	64.6754
2876	64.6443
2872	64.5918
2868	64.6133
2864	64.7038
2860	64.712
2856	64.6282
2852	64.589
2848	64.6233
2844	64.6461
2840	64.6671
2836	64.734
2832	64.7914
2828	64.804
2824	64.8153
2820	64.7766
2816	64.6478
2812	64.5805
2808	64.6222
2804	64.6486
2800	64.6625
2796	64.7157
2792	64.7528
2788	64.7478
2784	64.767
2780	64.8234
2776	64.8187
2772	64.7574
2768	64.7852
2764	64.8817
2760	64.8802
2756	64.769
2752	64.6721
2748	64.6559
2744	64.6958
2740	64.7318
2736	64.7393
2732	64.7548
2728	64.7488
2724	64.7206
2720	64.721
2716	64.709
2712	64.6781
2708	64.6699
2704	64.6987
2700	64.7197
2696	64.6979
2692	64.6331
2688	64.5691
2684	64.5874
2680	64.6519
2676	64.6767
2672	64.6581
2668	64.6432
2664	64.644
2660	64.6217
2656	64.5765
2652	64.6304
2648	64.7733
2644	64.7964
2640	64.7049
2636	64.6652
2632	64.6992
2628	64.7129
2624	64.6768
2620	64.6559
2616	64.672
2612	64.6533
2608	64.607
2604	64.6192
2600	64.6492
2596	64.7056
2592	64.783
2588	64.7439
2584	64.6806
2580	64.6908
2576	64.6715
2572	64.5974
2568	64.5403
2564	64.5536
2560	64.5812
2556	64.5664
2552	64.5632
2548	64.598
2544	64.6239
2540	64.6185
2536	64.5905
2532	64.5579
2528	64.5448
2524	64.558
2520	64.5779
2516	64.5767
2512	64.573
2508	64.5641
2504	64.5331
2500	64.5407
2496	64.5958
2492	64.6063
2488	64.5807
2484	64.5574
2480	64.5334
2476	64.5419
2472	64.5597
2468	64.5701
2464	64.5688
2460	64.5978
2456	64.6889
2452	64.7027
2448	64.5964
2444	64.4863
2440	64.4375
2436	64.4476
2432	64.5341
2428	64.6256
2424	64.5799
2420	64.476
2416	64.4325
2412	64.3987
2408	64.37
2404	64.3659
2400	64.361
2396	64.3798
2392	64.387
2388	64.3867
2384	64.4572
2380	64.5332
2376	64.5424
2372	64.5405
2368	64.5422
2364	64.515
2360	64.4782
2356	64.426
2352	64.3992
2348	64.4327
2344	64.4402
2340	64.4186
2336	64.4273
2332	64.4425
2328	64.4691
2324	64.5192
2320	64.5188
2316	64.4541
2312	64.3987
2308	64.3721
2304	64.3541
2300	64.3503
2296	64.3642
2292	64.3928
2288	64.3755
2284	64.2948
2280	64.2938
2276	64.4138
2272	64.5282
2268	64.5309
2264	64.4071
2260	64.2872
2256	64.3083
2252	64.412
2248	64.4771
2244	64.4552
2240	64.3879
2236	64.3548
2232	64.3769
2228	64.3997
2224	64.3739
2220	64.3292
2216	64.3034
2212	64.3285
2208	64.3588
2204	64.3316
2200	64.3081
2196	64.2947
2192	64.2528
2188	64.24
2184	64.2603
2180	64.248
2176	64.2062
2172	64.2049
2168	64.2528
2164	64.281
2160	64.2744
2156	64.2569
2152	64.224
2148	64.1885
2144	64.2115
2140	64.2576
2136	64.243
2132	64.2359
2128	64.2661
2124	64.2261
2120	64.1515
2116	64.1548
2112	64.2147
2108	64.2886
2104	64.3316
2100	64.3058
2096	64.2487
2092	64.2328
2088	64.2737
2084	64.3007
2080	64.2797
2076	64.2365
2072	64.185
2068	64.1589
2064	64.2348
2060	64.3457
2056	64.3774
2052	64.331
2048	64.2233
2044	64.1178
2040	64.0757
2036	64.0836
2032	64.0978
2028	64.1155
2024	64.1505
2020	64.1439
2016	64.1057
2012	64.0867
2008	64.0426
2004	63.9928
2000	64.0051
1996	64.0451
1992	64.0817
1988	64.1118
1984	64.1453
1980	64.1865
1976	64.1852
1972	64.1558
1968	64.1432
1964	64.1455
1960	64.1419
1956	64.1245
1952	64.1038
1948	64.0683
1944	64.0322
1940	64.0699
1936	64.1165
1932	64.08
1928	64.0419
1924	64.0389
1920	64.0496
1916	64.0675
1912	64.0819
1908	64.0925
1904	64.1094
1900	64.133
1896	64.1308
1892	64.1148
1888	64.1114
1884	64.0833
1880	64.0329
1876	63.994
1872	63.9962
1868	64.0228
1864	64.0373
1860	64.0557
1856	64.0521
1852	64.0074
1848	63.93
1844	63.8918
1840	63.9961
1836	64.1083
1832	64.0811
1828	63.9847
1824	63.9125
1820	63.9447
1816	64.0285
1812	64.0404
1808	64.0391
1804	64.0439
1800	63.9652
1796	63.8712
1792	63.8527
1788	63.8756
1784	63.9204
1780	63.9297
1776	63.8783
1772	63.8397
1768	63.8542
1764	63.8842
1760	63.8391
1756	63.6899
1752	63.5593
1748	63.5509
1744	63.5347
1740	63.4345
1736	63.3538
1732	63.3795
1728	63.5
1724	63.5903
1720	63.6399
1716	63.6962
1712	63.7362
1708	63.7395
1704	63.6713
1700	63.5692
1696	63.5432
1692	63.5874
1688	63.6197
1684	63.644
1680	63.6369
1676	63.5891
1672	63.5931
1668	63.6463
1664	63.6881
1660	63.6782
1656	63.6242
1652	63.6425
1648	63.7209
1644	63.7404
1640	63.7167
1636	63.6757
1632	63.6276
1628	63.6078
1624	63.6419
1620	63.7149
1616	63.7219
1612	63.6679
1608	63.6727
1604	63.7008
1600	63.6865
1596	63.6824
1592	63.6672
1588	63.6105
1584	63.5718
1580	63.5669
1576	63.5938
1572	63.6585
1568	63.6939
1564	63.6153
1560	63.534
1556	63.5443
1552	63.5627
1548	63.5948
1544	63.6398
1540	63.6278
1536	63.5612
1532	63.5054
1528	63.5133
1524	63.5455
1520	63.5256
1516	63.4593
1512	63.4469
1508	63.5076
1504	63.5197
1500	63.4598
1496	63.4337
1492	63.4802
1488	63.4985
1484	63.4308
1480	63.3989
1476	63.4725
1472	63.532
1468	63.5184
1464	63.4746
1460	63.4531
1456	63.4953
1452	63.5202
1448	63.4668
1444	63.3874
1440	63.3459
1436	63.3583
1432	63.372
1428	63.3459
1424	63.3115
1420	63.3232
1416	63.3698
1412	63.4061
1408	63.4336
1404	63.4802
1400	63.4533
1396	63.318
1392	63.2544
1388	63.2959
1384	63.3294
1380	63.3261
1376	63.2989
1372	63.3093
1368	63.3908
1364	63.4442
1360	63.4082
1356	63.3372
1352	63.3236
1348	63.3649
1344	63.349
1340	63.2754
1336	63.2532
1332	63.309
1328	63.3325
1324	63.2835
1320	63.297
1316	63.3494
1312	63.3164
1308	63.2458
1304	63.1988
1300	63.2149
1296	63.2455
1292	63.2123
1288	63.15
1284	63.1024
1280	63.1132
1276	63.1466
1272	63.1085
1268	63.0214
1264	63.0012
1260	63.0409
1256	63.0904
1252	63.1567
1248	63.1483
1244	63.0601
1240	62.9855
1236	62.9545
1232	62.9854
1228	63.0471
1224	63.0663
1220	63.029
1216	63.0401
1212	63.0921
1208	63.0682
1204	63.0579
1200	63.0825
1196	63.0547
1192	63.0129
1188	62.9709
1184	62.9304
1180	62.887
1176	62.8351
1172	62.7951
1168	62.7598
1164	62.7638
1160	62.8173
1156	62.8572
1152	62.8895
1148	62.9469
1144	63.0245
1140	63.1077
1136	63.1162
1132	62.9824
1128	62.9225
1124	62.9873
1120	62.9301
1116	62.758
1112	62.7481
1108	62.8654
1104	62.9098
1100	62.8628
1096	62.775
1092	62.7077
1088	62.7332
1084	62.8145
1080	62.8552
1076	62.894
1072	62.9313
1068	62.8709
1064	62.7824
1060	62.7238
1056	62.6577
1052	62.6307
1048	62.6118
1044	62.584
1040	62.6441
1036	62.722
1032	62.7126
1028	62.7043
1024	62.7514
1020	62.7644
1016	62.7154
1012	62.6945
1008	62.7364
1004	62.7527
1000	62.7109
996	 62.6578
992	 62.646
988	 62.7242
984	 62.8602
980	 62.9389
976	 62.9282
972	 62.89
968	 62.8448
964	 62.8099
960	 62.7972
956	 62.7675
952	 62.6807
948	 62.5809
944	 62.5784
940	 62.6591
936	 62.7068
932	 62.7276
928	 62.7886
924	 62.7901
920	 62.7238
916	 62.7119
912	 62.7386
908	 62.706
904	 62.5626
900	 62.4374
896	 62.4545
892	 62.5757
888	 62.6591
884	 62.6216
880	 62.5452
876	 62.5299
872	 62.6029
868	 62.7079
864	 62.7459
860	 62.6723
856	 62.5765
852	 62.611
848	 62.7619
844	 62.7478
840	 62.5557
836	 62.4985
832	 62.5057
828	 62.4665
824	 62.5409
820	 62.6699
816	 62.6789
812	 62.6447
808	 62.6919
804	 62.6503
800	 62.4958
796	 62.4586
792	 62.5388
788	 62.6253
784	 62.6001
780	 62.4862
776	 62.4161
772	 62.3682
768	 62.2934
764	 62.2919
760	 62.396
756	 62.4353
752	 62.4549
748	 62.574
744	 62.5664
740	 62.4021
736	 62.3602
732	 62.3842
728	 62.3142
724	 62.1912
720	 62.1137
716	 62.0881
712	 62.1538
708	 62.2976
704	 62.2724
700	 62.1272
696	 62.0117
692	 61.9689
688	 62.1664
684	 62.2893
680	 62.1154
676	 62.099
672	 62.2416
668	 62.2168
664	 62.1344
660	 62.0643
656	 61.9243
652	 61.9394
648	 62.0874
644	 62.1545
640	 62.1964
636	 62.3221
632	 62.5457
628	 62.4804
624	 62.0244
620	 61.8078
616	 61.7338
612	 61.351
608	 61.3279
604	 61.5309
600	 61.3487
596	 61.1108
592	 61.1977
588	 61.4862
584	 61.2558
580	 61.2067
576	 62.069
572	 62.7621
568	 62.7807
564	 62.313
560	 61.6236
556	 60.8085
552	 60.0783
548	 60.1355
544	 60.5275
540	 60.9871
536	 61.7545
532	 61.8825
528	 61.2047
524	 60.9334
520	 61.2094
516	 61.071
512	 60.9787
508	 61.1217
504	 60.5804
500	 59.9034
496	 60.0252
492	 61.2142
488	 62.3765
484	 61.8924
480	 61.1
476	 61.5631
472	 61.7761
468	 61.0551
464	 61.1396
460	 62.0801
456	 62.1643
452	 61.3033
448	 60.6844
444	 60.9522
440	 61.6309
436	 62.2793
432	 62.5301
428	 62.0885
424	 62.9115
420	 64.7855
416	 62.9048
412	 58.792
408	 58.9254
404	 62.096
400	 62.0988
396	 57.2562
392	 54.038
388	 56.8865
384	 59.0916
380	 56.0596
376	 52.0103
372	 46.5913
370	 42.4306