File: Bakgrunnsmateriale/MATLAB/FTIR/ftir_data/subAa/Mapping_121/BZ1503107-1_t106.asc
PE IR       SPECTRUM    SPECTRUM    ASCII       PEDS        1.60
  -1
BZE6BA~1.ASC
17/04/07
21:55:55.00
17/04/07
21:56:22.00
tln
$BZ1503107-1_t0106$<tbV0>[-2.6,10.4,8.0,0.0,27,1,0]
27.028
64

2002,4.07
MIRTGS : RIGHTBACK : INTERNAL 2
MIR : ON : INTERNAL 2
OPTKBR

0.200000
8
8.000000
FILLER
RATIO
SPECTRUM
UNLOCKED 256

DOUBLE
64
COMBINED
1
0
0

0.002000
RATIO

1
0
TRUE
51149
0
LEFT NOT FITTED RIGHT NOT FITTED 0
NONE
NONE
15600
12
4.427000
51148
TRUE
1 0 8 72 0 0 0 0

15798

#HDR
-1
-1
#GR
µM
%T
2.38419e-05
0.0
2.000000
0.002000
12515
8
83.8963
52.7126
#DATA
2.000000	 63.984
2.018000	 65.615
2.036000	 64.5398
2.054000	 64.4731
2.072000	 65.0209
2.090000	 64.8685
2.108000	 64.6671
2.126000	 65.0598
2.144000	 65.392
2.162000	 65.4229
2.180000	 64.5647
2.198000	 64.4748
2.216000	 64.4125
2.234000	 64.3138
2.252000	 80.3437
2.270000	 65.2683
2.288000	 64.585
2.306000	 64.6928
2.324000	 64.9526
2.342000	 64.9518
2.360000	 64.8204
2.378000	 65.2933
2.396000	 65.0665
2.414000	 64.8216
2.432000	 65.195
2.450000	 65.2154
2.468000	 64.9491
2.486000	 64.9424
2.504000	 64.961
2.522000	 65.1841
2.540000	 65.038
2.558000	 64.7612
2.576000	 64.9753
2.594000	 65.2398
2.612000	 64.9711
2.630000	 65.0401
2.648000	 64.9734
2.666000	 65.0896
2.684000	 65.2973
2.702000	 65.1299
2.720000	 65.0336
2.738000	 65.1217
2.756000	 64.941
2.774000	 64.9519
2.792000	 64.9271
2.810000	 64.7831
2.828000	 64.8612
2.846000	 64.9856
2.864000	 65.0481
2.882000	 65.0111
2.900000	 64.8144
2.918000	 64.9409
2.936000	 65.1655
2.954000	 64.8976
2.972000	 64.8056
2.990000	 64.9458
3.008000	 64.8661
3.026000	 64.8322
3.044000	 64.9817
3.062000	 64.9288
3.080000	 64.8956
3.098000	 64.9319
3.116000	 64.852
3.134000	 64.9103
3.152000	 64.9318
3.170000	 64.6645
3.188000	 64.9162
3.206000	 64.8705
3.224000	 64.8485
3.242000	 64.8371
3.260000	 64.8099
3.278000	 64.9281
3.296000	 64.9432
3.314000	 64.855
3.332000	 64.7332
3.350000	 64.7016
3.368000	 64.6103
3.386000	 64.5158
3.404000	 64.8253
3.422000	 64.6899
3.440000	 64.6524
3.458000	 64.6982
3.476000	 64.6962
3.494000	 64.5908
3.512000	 64.6182
3.530000	 64.6733
3.548000	 64.6954
3.566000	 64.7526
3.584000	 64.7139
3.602000	 64.6288
3.620000	 64.7326
3.638000	 64.6764
3.656000	 64.7289
3.674000	 64.7891
3.692000	 64.7725
3.710000	 64.6409
3.728000	 64.5678
3.746000	 64.6258
3.764000	 64.6201
3.782000	 64.7273
3.800000	 64.6591
3.818000	 64.5932
3.836000	 64.4639
3.854000	 64.543
3.872000	 64.6463
3.890000	 64.5599
3.908000	 64.6157
3.926000	 64.684
3.944000	 64.5171
3.962000	 64.5231
3.980000	 64.5292
3.998000	 64.613
4.016000	 64.7186
4.034000	 64.4723
4.052000	 64.5432
4.070000	 64.6576
4.088000	 64.4912
4.106000	 64.402
4.124000	 64.57
4.141999	 64.5682
4.160000	 64.4973
4.178000	 64.4505
4.196000	 64.4866
4.214000	 64.4219
4.232000	 64.6016
4.250000	 64.4963
4.268000	 64.3669
4.286000	 64.3592
4.304000	 64.5193
4.322000	 64.3898
4.340000	 64.4809
4.358000	 64.4816
4.375999	 64.4352
4.394000	 64.3731
4.412000	 64.417
4.430000	 64.4263
4.448000	 64.3449
4.466000	 64.3483
4.484000	 64.3994
4.502000	 64.3753
4.520000	 64.2499
4.538000	 64.2534
4.556000	 64.2284
4.574000	 64.2059
4.592000	 64.1769
4.609999	 64.2838
4.628000	 64.2322
4.646000	 64.2007
4.664000	 64.1428
4.682000	 64.2567
4.700000	 64.1576
4.718000	 64.1684
4.736000	 64.1709
4.754000	 64.1707
4.772000	 64.1568
4.790000	 64.0824
4.808000	 64.0997
4.826000	 64.1408
4.843999	 64.1402
4.862000	 64.1646
4.880000	 64.078
4.898000	 64.1509
4.916000	 64.2408
4.934000	 64.0511
4.952000	 64.0721
4.970000	 64.1203
4.988000	 64.063
5.006000	 64.1035
5.024000	 64.1367
5.042000	 64.0175
5.060000	 63.9809
5.077999	 64.022
5.096000	 64.1228
5.114000	 64.0688
5.132000	 63.9577
5.150000	 63.9637
5.168000	 64.0437
5.186000	 63.9481
5.204000	 63.9293
5.222000	 63.9641
5.240000	 63.9809
5.258000	 63.965
5.276000	 64.0021
5.294000	 64.0269
5.312000	 64.0188
5.330000	 64.0082
5.348000	 63.9968
5.366000	 63.9256
5.384000	 63.9205
5.402000	 63.8894
5.420000	 63.8239
5.438000	 63.9558
5.456000	 63.9756
5.474000	 63.8929
5.492000	 63.8863
5.510000	 63.962
5.528000	 63.9249
5.546000	 63.926
5.564000	 63.9406
5.582000	 63.8998
5.600000	 63.7723
5.618000	 63.7855
5.636000	 63.8106
5.654000	 63.8139
5.672000	 63.7968
5.690000	 63.7357
5.708000	 63.6027
5.726000	 63.5843
5.744000	 63.5396
5.762000	 63.4285
5.780000	 63.405
5.798000	 63.5215
5.816000	 63.6122
5.834000	 63.6492
5.852000	 63.7116
5.870000	 63.6624
5.888000	 63.5714
5.906000	 63.6425
5.923999	 63.7129
5.942000	 63.6618
5.960000	 63.5607
5.978000	 63.5404
5.996000	 63.6071
6.014000	 63.653
6.032000	 63.6942
6.050000	 63.6812
6.068000	 63.6327
6.086000	 63.5843
6.104000	 63.5564
6.122000	 63.5988
6.140000	 63.623
6.158000	 63.6296
6.176000	 63.68
6.194000	 63.6657
6.212000	 63.5945
6.230000	 63.6042
6.248000	 63.6022
6.266000	 63.6085
6.284000	 63.6591
6.302000	 63.6176
6.320000	 63.4655
6.338000	 63.4056
6.356000	 63.52
6.374000	 63.6527
6.392000	 63.6569
6.410000	 63.5466
6.428000	 63.4563
6.446000	 63.453
6.464000	 63.5053
6.482000	 63.5045
6.500000	 63.4736
6.518000	 63.4745
6.536000	 63.4916
6.554000	 63.4907
6.572000	 63.4802
6.590000	 63.4685
6.608000	 63.4708
6.626000	 63.5076
6.644000	 63.527
6.662000	 63.4945
6.680000	 63.4701
6.698000	 63.486
6.716000	 63.4789
6.734000	 63.436
6.752000	 63.4242
6.770000	 63.4681
6.788000	 63.5007
6.806000	 63.4593
6.824000	 63.382
6.842000	 63.3484
6.860000	 63.3835
6.878000	 63.4293
6.896000	 63.422
6.914000	 63.3769
6.932000	 63.3351
6.950000	 63.3347
6.968000	 63.355
6.986000	 63.3279
7.004000	 63.3044
7.022000	 63.3647
7.040000	 63.4227
7.058000	 63.383
7.076000	 63.3341
7.094000	 63.3443
7.112000	 63.3262
7.130000	 63.2571
7.148000	 63.1891
7.166000	 63.1267
7.184000	 63.1251
7.202000	 63.2249
7.220000	 63.3073
7.238000	 63.2868
7.256000	 63.2377
7.274000	 63.2089
7.292000	 63.1908
7.310000	 63.2046
7.328000	 63.2569
7.346000	 63.3006
7.364000	 63.2797
7.382000	 63.2114
7.400000	 63.2012
7.418000	 63.2821
7.436000	 63.3476
7.454000	 63.3274
7.472000	 63.2701
7.490000	 63.2367
7.508000	 63.2307
7.526000	 63.207
7.544000	 63.14
7.562000	 63.0778
7.580000	 63.0714
7.598000	 63.0943
7.616000	 63.1067
7.634000	 63.121
7.652000	 63.1493
7.670000	 63.1665
7.688000	 63.1595
7.706000	 63.1483
7.724000	 63.1401
7.742000	 63.1151
7.760000	 63.072
7.778000	 63.0498
7.796000	 63.0724
7.814000	 63.1084
7.832000	 63.1218
7.850000	 63.1249
7.868000	 63.1392
7.886000	 63.1485
7.904000	 63.1394
7.922000	 63.1347
7.940000	 63.145
7.958000	 63.1426
7.976000	 63.1082
7.994000	 63.059
8.012000	 63.0161
8.030000	 62.9859
8.048000	 62.9769
8.065999	 63.0009
8.084000	 63.0498
8.102000	 63.0883
8.120000	 63.0862
8.138000	 63.0484
8.155999	 63.0052
8.173999	 62.9841
8.192000	 62.9917
8.210000	 63.015
8.228000	 63.0364
8.246000	 63.0511
8.263999	 63.0647
8.282000	 63.0748
8.300000	 63.0655
8.318000	 63.0298
8.336000	 62.9917
8.353999	 62.9871
8.372000	 63.0218
8.390000	 63.0565
8.408000	 63.0417
8.426000	 62.9694
8.443999	 62.8843
8.462000	 62.8402
8.480000	 62.848
8.498000	 62.8765
8.516000	 62.895
8.533999	 62.8955
8.552000	 62.8787
8.570000	 62.8438
8.588000	 62.7999
8.606000	 62.7735
8.624000	 62.7856
8.641999	 62.8286
8.660000	 62.8769
8.678000	 62.9119
8.696000	 62.931
8.714000	 62.945
8.731999	 62.9731
8.750000	 63.0261
8.768000	 63.085
8.786000	 63.1075
8.804000	 63.0681
8.821999	 62.9849
8.840000	 62.8997
8.858000	 62.8435
8.876000	 62.8267
8.894000	 62.8454
8.911999	 62.8827
8.930000	 62.9122
8.948000	 62.9134
8.966000	 62.8855
8.984000	 62.8436
9.001999	 62.803
9.020000	 62.7736
9.038000	 62.7635
9.056000	 62.7773
9.074000	 62.8104
9.092000	 62.8516
9.109999	 62.8892
9.128000	 62.9144
9.146000	 62.9194
9.164000	 62.8985
9.182000	 62.8523
9.199999	 62.7898
9.218000	 62.7241
9.236000	 62.6681
9.254000	 62.633
9.272000	 62.6227
9.289999	 62.6307
9.308000	 62.6438
9.326000	 62.6536
9.344000	 62.6629
9.362000	 62.6774
9.379999	 62.6952
9.398000	 62.7044
9.416000	 62.6968
9.434000	 62.6752
9.452000	 62.6508
9.469999	 62.635
9.488000	 62.6355
9.506000	 62.6569
9.524000	 62.698
9.542000	 62.7519
9.560000	 62.8063
9.577999	 62.8465
9.596000	 62.8578
9.614000	 62.8292
9.632000	 62.7596
9.650000	 62.6645
9.667999	 62.5761
9.686000	 62.53
9.704000	 62.5447
9.722000	 62.6096
9.740000	 62.6918
9.757999	 62.7567
9.776000	 62.7861
9.794000	 62.7827
9.812000	 62.7603
9.830000	 62.7296
9.847999	 62.6944
9.866000	 62.6563
9.884000	 62.6202
9.902000	 62.5933
9.920000	 62.5787
9.937999	 62.5725
9.956000	 62.568
9.974000	 62.5615
9.992000	 62.5542
10.01	62.5499
10.028	62.5507
10.046	62.557
10.064	62.5691
10.082	62.589
10.1	62.6192
10.118	62.6605
10.136	62.7101
10.154	62.7621
10.172	62.8077
10.19	62.8351
10.208	62.8341
10.226	62.8001
10.244	62.7403
10.262	62.6736
10.28	62.6226
10.298	62.6042
10.316	62.6208
10.334	62.6604
10.352	62.7049
10.37	62.7385
10.388	62.7559
10.406	62.7604
10.424	62.7592
10.442	62.7584
10.46	62.7604
10.478	62.765
10.496	62.7694
10.514	62.7701
10.532	62.762
10.55	62.7433
10.568	62.7164
10.586	62.6883
10.604	62.6662
10.622	62.6539
10.64	62.6474
10.658	62.6384
10.676	62.6203
10.694	62.5941
10.712	62.5696
10.73	62.5607
10.748	62.5768
10.766	62.6168
10.784	62.6702
10.802	62.7192
10.82	62.7488
10.838	62.7502
10.856	62.7248
10.874	62.6824
10.892	62.6366
10.91	62.6008
10.928	62.5829
10.946	62.5836
10.964	62.5964
10.982	62.6095
11	62.612
11.018	62.5974
11.036	62.5674
11.054	62.5302
11.072	62.4966
11.09	62.4749
11.108	62.4669
11.126	62.4685
11.144	62.4738
11.162	62.4786
11.18	62.4839
11.198	62.4941
11.216	62.5127
11.234	62.539
11.252	62.5658
11.27	62.5829
11.288	62.5813
11.306	62.5589
11.324	62.5221
11.342	62.484
11.36	62.4583
11.378	62.4554
11.396	62.4774
11.414	62.519
11.432	62.5703
11.45	62.621
11.468	62.6627
11.486	62.6914
11.504	62.7059
11.522	62.7078
11.54	62.6995
11.558	62.684
11.576	62.6649
11.594	62.6451
11.612	62.627
11.63	62.6118
11.648	62.5989
11.666	62.5869
11.684	62.5742
11.702	62.5598
11.72	62.5444
11.738	62.5299
11.756	62.5189
11.774	62.5136
11.792	62.5141
11.81	62.5188
11.828	62.5245
11.846	62.5273
11.864	62.5247
11.882	62.5159
11.9	62.5022
11.918	62.4864
11.936	62.4717
11.954	62.4605
11.972	62.4543
11.99	62.4531
12.008	62.4553
12.026	62.4594
12.044	62.4633
12.062	62.4661
12.08	62.4682
12.098	62.4708
12.116	62.4756
12.134	62.4833
12.152	62.4939
12.17	62.5063
12.188	62.519
12.206	62.5309
12.224	62.5414
12.242	62.5509
12.26	62.5602
12.278	62.5701
12.296	62.5805
12.314	62.5904
12.332	62.5973
12.35	62.5979
12.368	62.5887
12.386	62.5674
12.404	62.5341
12.422	62.4921
12.44	62.4475
12.458	62.4076
12.476	62.3794
12.494	62.3676
12.512	62.3732
12.53	62.3934
12.548	62.4223
12.566	62.4534
12.584	62.4809
12.602	62.502
12.62	62.5167
12.638	62.5277
12.656	62.5381
12.674	62.5505
12.692	62.5655
12.71	62.5817
12.728	62.5959
12.746	62.6047
12.764	62.6051
12.782	62.595
12.8	62.5743
12.818	62.544
12.836	62.5071
12.854	62.467
12.872	62.4278
12.89	62.3934
12.908	62.3671
12.926	62.3511
12.944	62.3461
12.962	62.3505
12.98	62.3612
12.998	62.3737
13.016	62.3837
13.034	62.388
13.052	62.3853
13.07	62.3767
13.088	62.3649
13.106	62.3544
13.124	62.3492
13.142	62.3525
13.16	62.3658
13.178	62.3885
13.196	62.4184
13.214	62.4514
13.232	62.4829
13.25	62.5083
13.268	62.5234
13.286	62.5259
13.304	62.5153
13.322	62.4935
13.34	62.4641
13.358	62.4326
13.376	62.4045
13.394	62.3855
13.412	62.3792
13.43	62.387
13.448	62.407
13.466	62.435
13.484	62.4651
13.502	62.4907
13.52	62.5062
13.538	62.5082
13.556	62.496
13.574	62.4718
13.592	62.44
13.61	62.4059
13.628	62.3749
13.646	62.351
13.664	62.3364
13.682	62.3309
13.7	62.3323
13.718	62.3373
13.736	62.3417
13.754	62.3422
13.772	62.3366
13.79	62.3241
13.808	62.306
13.826	62.2844
13.844	62.2623
13.862	62.2419
13.88	62.2253
13.898	62.2136
13.916	62.2067
13.934	62.204
13.952	62.2043
13.97	62.2067
13.988	62.2104
14.006	62.2148
14.024	62.2195
14.042	62.2239
14.06	62.227
14.078	62.2278
14.096	62.2253
14.114	62.2184
14.132	62.2068
14.15	62.1905
14.168	62.1707
14.186	62.1491
14.204	62.1282
14.222	62.1112
14.24	62.1004
14.258	62.0973
14.276	62.1028
14.294	62.1164
14.312	62.1367
14.33	62.1614
14.348	62.1882
14.366	62.2148
14.384	62.24
14.402	62.2642
14.42	62.2887
14.438	62.3156
14.456	62.3468
14.474	62.3835
14.492	62.4255
14.51	62.4706
14.528	62.5141
14.546	62.5505
14.564	62.5739
14.582	62.5792
14.6	62.5628
14.618	62.5236
14.636	62.4637
14.654	62.3886
14.672	62.3053
14.69	62.2224
14.708	62.1487
14.726	62.0927
14.744	62.0609
14.762	62.0572
14.78	62.082
14.798	62.1333
14.816	62.2063
14.834	62.2944
14.852	62.3888
14.87	62.4815
14.888	62.5654
14.906	62.6343
14.924	62.6838
14.942	62.7115
14.96	62.7175
14.978	62.7031
14.996	62.6706
15.014	62.6229
15.032	62.5639
15.05	62.4966
15.068	62.4237
15.086	62.3476
15.104	62.2702
15.122	62.1932
15.14	62.1177
15.158	62.0451
15.176	61.9764
15.194	61.9128
15.212	61.8562
15.23	61.8079
15.248	61.7692
15.266	61.7417
15.284	61.7263
15.302	61.7237
15.32	61.7337
15.338	61.7559
15.356	61.7896
15.374	61.833
15.392	61.8841
15.41	61.941
15.428	62.0012
15.446	62.0622
15.464	62.1218
15.482	62.178
15.5	62.2292
15.518	62.2745
15.536	62.3136
15.554	62.3465
15.572	62.3733
15.59	62.3943
15.608	62.4097
15.626	62.4199
15.644	62.425
15.662	62.4251
15.68	62.4206
15.698	62.4117
15.716	62.3988
15.734	62.3831
15.752	62.366
15.77	62.3489
15.788	62.3341
15.806	62.3232
15.824	62.3175
15.842	62.3185
15.86	62.3266
15.878	62.3411
15.896	62.3608
15.914	62.383
15.932	62.4052
15.95	62.4251
15.968	62.44
15.986	62.4482
16.004	62.449
16.022	62.4418
16.04	62.4276
16.058	62.4067
16.076	62.3798
16.094	62.3476
16.112	62.3095
16.13	62.2647
16.148	62.2115
16.166	62.1479
16.184	62.073
16.202	61.986
16.22	61.8885
16.238	61.7832
16.256	61.6732
16.274	61.5659
16.292	61.4679
16.31	61.3851
16.328	61.3262
16.346	61.2955
16.364	61.2961
16.382	61.3291
16.4	61.3901
16.418	61.4758
16.436	61.5763
16.454	61.6823
16.472	61.7864
16.49	61.8774
16.508	61.9504
16.526	62.0016
16.544	62.0294
16.562	62.0372
16.58	62.0277
16.598	62.0091
16.616	61.9873
16.634	61.9679
16.652	61.9579
16.67	61.9584
16.688	61.9712
16.706	61.9943
16.724	62.0243
16.742	62.0566
16.76	62.0842
16.778	62.1037
16.796	62.108
16.814	62.0941
16.832	62.0602
16.85	62.005
16.868	61.9303
16.886	61.8373
16.904	61.7316
16.922	61.6164
16.94	61.4962
16.958	61.3779
16.976	61.2642
16.994	61.1611
17.012	61.072
17.03	60.9998
17.048	60.9485
17.066	60.9191
17.084	60.9136
17.102	60.9331
17.12	60.9776
17.138	61.0462
17.156	61.1361
17.174	61.2456
17.192	61.3676
17.21	61.499
17.228	61.6318
17.246	61.7591
17.264	61.8761
17.282	61.9732
17.3	62.048
17.318	62.0942
17.336	62.111
17.354	62.0968
17.372	62.0543
17.39	61.9858
17.408	61.8963
17.426	61.7926
17.444	61.6786
17.462	61.5638
17.48	61.4506
17.498	61.347
17.516	61.2544
17.534	61.1757
17.552	61.1113
17.57	61.0612
17.588	61.0225
17.606	60.9931
17.624	60.9697
17.642	60.9485
17.66	60.9276
17.678	60.9038
17.696	60.8768
17.714	60.8458
17.732	60.8125
17.75	60.7773
17.768	60.7446
17.786	60.7154
17.804	60.6945
17.822	60.6828
17.84	60.6847
17.858	60.7003
17.876	60.7314
17.894	60.7769
17.912	60.837
17.93	60.9084
17.948	60.9902
17.966	61.0776
17.984	61.1688
18.002	61.2591
18.02	61.3459
18.038	61.4262
18.056	61.4975
18.074	61.5585
18.092	61.6079
18.11	61.6455
18.128	61.6717
18.146	61.6871
18.164	61.6932
18.182	61.6913
18.2	61.6829
18.218	61.6697
18.236	61.6526
18.254	61.6335
18.272	61.6127
18.29	61.5912
18.308	61.5691
18.326	61.5469
18.344	61.5245
18.362	61.5024
18.38	61.4809
18.398	61.4606
18.416	61.4423
18.434	61.4269
18.452	61.4161
18.47	61.4106
18.488	61.4121
18.506	61.4212
18.524	61.4391
18.542	61.466
18.56	61.5022
18.578	61.5478
18.596	61.6011
18.614	61.6622
18.632	61.7281
18.65	61.7985
18.668	61.8694
18.686	61.9403
18.704	62.007
18.722	62.0691
18.74	62.1227
18.758	62.1676
18.776	62.2014
18.794	62.2243
18.812	62.2352
18.83	62.2348
18.848	62.2234
18.866	62.2023
18.884	62.1735
18.902	62.1386
18.92	62.1007
18.938	62.0616
18.956	62.0247
18.974	61.9914
18.992	61.9649
19.01	61.9458
19.028	61.9364
19.046	61.9362
19.064	61.946
19.082	61.9647
19.1	61.9912
19.118	62.0239
19.136	62.0601
19.154	62.0985
19.172	62.1351
19.19	62.1691
19.208	62.1966
19.226	62.2176
19.244	62.2289
19.262	62.231
19.28	62.2231
19.298	62.2057
19.316	62.1806
19.334	62.1478
19.352	62.1115
19.37	62.0714
19.388	62.0328
19.406	61.9953
19.424	61.9635
19.442	61.9373
19.46	61.9196
19.478	61.9109
19.496	61.911
19.514	61.9206
19.532	61.9376
19.55	61.9619
19.568	61.9906
19.586	62.0213
19.604	62.0525
19.622	62.0802
19.64	62.1039
19.658	62.1186
19.676	62.1248
19.694	62.1189
19.712	62.1013
19.73	62.0704
19.748	62.026
19.766	61.9689
19.784	61.8988
19.802	61.8179
19.82	61.7267
19.838	61.627
19.856	61.521
19.874	61.4092
19.892	61.2959
19.91	61.1805
19.928	61.0676
19.946	60.9568
19.964	60.852
19.982	60.7535
20	60.6637
20.018	60.5837
20.036	60.5145
20.054	60.4582
20.072	60.4144
20.09	60.3853
20.108	60.3704
20.126	60.3705
20.144	60.3857
20.162	60.4153
20.18	60.4596
20.198	60.5174
20.216	60.5874
20.234	60.6693
20.252	60.7598
20.27	60.8595
20.288	60.9638
20.306	61.0729
20.324	61.183
20.342	61.2918
20.36	61.3982
20.378	61.4972
20.396	61.5898
20.414	61.6707
20.432	61.7405
20.45	61.7964
20.468	61.8367
20.486	61.8617
20.504	61.87
20.522	61.862
20.54	61.8388
20.558	61.7997
20.576	61.7482
20.594	61.6845
20.612	61.6108
20.63	61.5315
20.648	61.4457
20.666	61.3599
20.684	61.2734
20.702	61.1904
20.72	61.1139
20.738	61.0438
20.756	60.9845
20.774	60.9352
20.792	60.898
20.81	60.8737
20.828	60.8617
20.846	60.862
20.864	60.8744
20.882	60.8966
20.9	60.9294
20.918	60.9696
20.936	61.0152
20.954	61.0661
20.972	61.1174
20.99	61.1704
21.008	61.2207
21.026	61.2668
21.044	61.3082
21.062	61.3411
21.08	61.3664
21.098	61.3818
21.116	61.3864
21.134	61.3806
21.152	61.3635
21.17	61.3352
21.188	61.297
21.206	61.2486
21.224	61.1914
21.242	61.1275
21.26	61.0563
21.278	60.9819
21.296	60.9045
21.314	60.8258
21.332	60.7498
21.35	60.6752
21.368	60.606
21.386	60.5432
21.404	60.4869
21.422	60.4399
21.44	60.4014
21.458	60.3726
21.476	60.3542
21.494	60.3456
21.512	60.3464
21.53	60.357
21.548	60.3756
21.566	60.4012
21.584	60.4339
21.602	60.4702
21.62	60.5109
21.638	60.5538
21.656	60.5962
21.674	60.6392
21.692	60.6797
21.71	60.717
21.728	60.7511
21.746	60.7804
21.764	60.8049
21.782	60.8247
21.8	60.8391
21.818	60.8485
21.836	60.8533
21.854	60.8535
21.872	60.8494
21.89	60.8421
21.908	60.8313
21.926	60.8177
21.944	60.802
21.962	60.7839
21.98	60.7642
21.998	60.7429
22.016	60.7199
22.034	60.6952
22.052	60.6689
22.07	60.6407
22.088	60.6102
22.106	60.5776
22.124	60.5423
22.142	60.5042
22.16	60.4634
22.178	60.4196
22.196	60.3728
22.214	60.3233
22.232	60.2719
22.25	60.2182
22.268	60.1632
22.286	60.1075
22.304	60.0508
22.322	59.995
22.34	59.9401
22.358	59.8863
22.376	59.8353
22.394	59.7867
22.412	59.7411
22.43	59.6996
22.448	59.6618
22.466	59.6285
22.484	59.6002
22.502	59.5766
22.52	59.5584
22.538	59.5459
22.556	59.5389
22.574	59.5381
22.592	59.5436
22.61	59.5554
22.628	59.5743
22.646	59.6
22.664	59.6329
22.682	59.6739
22.7	59.7226
22.718	59.7794
22.736	59.8448
22.754	59.9186
22.772	60.0009
22.79	60.0921
22.808	60.192
22.826	60.2998
22.844	60.4152
22.862	60.5386
22.88	60.6672
22.898	60.8006
22.916	60.9393
22.934	61.0788
22.952	61.2185
22.97	61.3588
22.988	61.4942
23.006	61.6242
23.024	61.749
23.042	61.8629
23.06	61.9656
23.078	62.0573
23.096	62.1331
23.114	62.1928
23.132	62.2369
23.15	62.2627
23.168	62.2697
23.186	62.2588
23.204	62.2302
23.222	62.1829
23.24	62.1184
23.258	62.0401
23.276	61.9462
23.294	61.8389
23.312	61.7241
23.33	61.6
23.348	61.4686
23.366	61.3369
23.384	61.2036
23.402	61.0701
23.42	60.9436
23.438	60.824
23.456	60.7111
23.474	60.6104
23.492	60.5227
23.51	60.4469
23.528	60.3855
23.546	60.3398
23.564	60.3086
23.582	60.2912
23.6	60.2883
23.618	60.2995
23.636	60.322
23.654	60.355
23.672	60.3996
23.69	60.4513
23.708	60.5075
23.726	60.5707
23.744	60.6362
23.762	60.7002
23.78	60.7653
23.798	60.8286
23.816	60.8863
23.834	60.94
23.852	60.9887
23.87	61.0307
23.888	61.0661
23.906	61.0952
23.924	61.1176
23.942	61.1329
23.96	61.1416
23.978	61.145
23.996	61.143
24.014	61.1355
24.032	61.1246
24.05	61.1117
24.068	61.0953
24.086	61.0779
24.104	61.0617
24.122	61.0451
24.14	61.0298
24.158	61.0188
24.176	61.0112
24.194	61.0073
24.212	61.0093
24.23	61.0176
24.248	61.0315
24.266	61.0524
24.284	61.0813
24.302	61.1176
24.32	61.1609
24.338	61.211
24.356	61.2687
24.374	61.3326
24.392	61.4013
24.41	61.4759
24.428	61.5554
24.446	61.6369
24.464	61.7195
24.482	61.8049
24.5	61.8888
24.518	61.9679
24.536	62.0451
24.554	62.1175
24.572	62.1808
24.59	62.2361
24.608	62.2832
24.626	62.3191
24.644	62.3418
24.662	62.3532
24.68	62.3522
24.698	62.3378
24.716	62.31
24.734	62.2697
24.752	62.218
24.77	62.1538
24.788	62.0775
24.806	61.993
24.824	61.9025
24.842	61.8028
24.86	61.6985
24.878	61.5949
24.896	61.4894
24.914	61.383
24.932	61.2826
24.95	61.1911
24.968	61.1045
24.986	61.0278
25.004	60.9666
25.022	60.9182
25.04	60.8834
25.058	60.8669
25.076	60.8706
25.094	60.8922
25.112	60.9331
25.13	60.995
25.148	61.0778
25.166	61.1806
25.184	61.3031
25.202	61.4457
25.22	61.6086
25.238	61.7897
25.256	61.9866
25.274	62.2009
25.292	62.4317
25.31	62.6755
25.328	62.9309
25.346	63.2001
25.364	63.4802
25.382	63.7678
25.4	64.064
25.418	64.3688
25.436	64.6791
25.454	64.9924
25.472	65.3114
25.49	65.6338
25.508	65.9566
25.526	66.2794
25.544	66.6035
25.562	66.9267
25.58	67.2466
25.598	67.5648
25.616	67.8805
25.634	68.1914
25.652	68.4965
25.67	68.7978
25.688	69.0926
25.706	69.3776
25.724	69.6533
25.742	69.9211
25.76	70.1764
25.778	70.4154
25.796	70.6412
25.814	70.8525
25.832	71.0447
25.85	71.2151
25.868	71.3676
25.886	71.4989
25.904	71.6051
25.922	71.6848
25.94	71.7403
25.958	71.7705
25.976	71.7739
25.994	71.7503
26.012	71.7006
26.03	71.6257
26.048	71.5261
26.066	71.4005
26.084	71.2504
26.102	71.0784
26.12	70.8856
26.138	70.6696
26.156	70.4334
26.174	70.1811
26.192	69.9128
26.21	69.6256
26.228	69.3254
26.246	69.0185
26.264	68.7037
26.282	68.3788
26.3	68.0501
26.318	67.724
26.336	67.3971
26.354	67.0695
26.372	66.7467
26.39	66.4342
26.408	66.1282
26.426	65.8294
26.444	65.5423
26.462	65.2703
26.48	65.0113
26.498	64.7652
26.516	64.533
26.534	64.3158
26.552	64.1128
26.57	63.924
26.588	63.7494
26.606	63.5891
26.624	63.4428
26.642	63.3107
26.66	63.1931
26.678	63.0898
26.696	63.0006
26.714	62.9258
26.732	62.8659
26.75	62.8209
26.768	62.7904
26.786	62.7747
26.804	62.7743
26.822	62.7894
26.84	62.8194
26.858	62.8646
26.876	62.9257
26.894	63.0028
26.912	63.0955
26.93	63.2039
26.948	63.3279
26.966	63.4781
26.984	63.6696
27.002	63.8633
27.02	64.0169
27.028	64.0568