File: Bakgrunnsmateriale/MATLAB/FTIR/ftir_data/subAa/Mapping_121/BZ1503107-1_t95_cm-1.asc
PE IR       SPECTRUM    SPECTRUM    ASCII       PEDS        1.60
  -1
BZ6DA5~1.ASC
17/04/07
21:04:28.00
17/04/07
21:04:28.00
tln
$BZ1503107-1_t0095$<tbV0>[-2.6,7.8,8.0,0.0,27,1,0]
370
64

2002,4.07
MIRTGS : RIGHTBACK : INTERNAL 2
MIR : ON : INTERNAL 2
OPTKBR

0.200000
8
8.000000
FILLER
RATIO
SPECTRUM
UNLOCKED 256

DOUBLE
64
COMBINED
1
0
0

1.000000
RATIO

1
0
TRUE
51149
0
LEFT NOT FITTED RIGHT NOT FITTED 0
NONE
NONE
15600
12
4.427000
51148
TRUE
1 0 8 72 0 0 0 0

15798

#HDR
-1
-1
#GR
CM-1
%T
2.38419e-05
0.0
5000
-1.000000
4631
8
73.8072
50.32
#DATA
5000	63.7491
4996	64.2434
4992	65.1707
4988	65.5123
4984	64.8184
4980	63.278
4976	62.709
4972	64.0054
4968	65.2979
4964	65.5812
4960	66.4208
4956	67.5545
4952	67.7059
4948	66.9784
4944	66.1222
4940	66.2696
4936	66.0257
4932	64.6513
4928	64.0901
4924	64.2769
4920	64.0949
4916	63.7041
4912	64.2089
4908	65.4343
4904	65.4723
4900	64.6688
4896	64.4817
4892	64.6995
4888	64.9669
4884	65.178
4880	65.089
4876	64.8849
4872	65.0022
4868	65.166
4864	65.1732
4860	65.2177
4856	65.0723
4852	64.7008
4848	64.5318
4844	64.7462
4840	65.0228
4836	65.1114
4832	64.9842
4828	64.6754
4824	64.5956
4820	64.9935
4816	65.3284
4812	65.1389
4808	64.7989
4804	64.7139
4800	64.8224
4796	65.0215
4792	65.1796
4788	65.1182
4784	65.0468
4780	65.1227
4776	65.0298
4772	64.8901
4768	64.9987
4764	64.9613
4760	64.6626
4756	64.5807
4752	64.8668
4748	65.1587
4744	65.1561
4740	65.0093
4736	64.8899
4732	64.8914
4728	65.0056
4724	64.9582
4720	64.671
4716	64.5378
4712	64.7366
4708	64.9266
4704	64.9102
4700	64.9775
4696	65.1315
4692	65.0413
4688	64.9117
4684	64.9329
4680	65.0383
4676	65.241
4672	65.4709
4668	65.4643
4664	65.2302
4660	65.1185
4656	65.0972
4652	65.0556
4648	65.0769
4644	65.1006
4640	65.0318
4636	64.9808
4632	65.0458
4628	65.0702
4624	65.0455
4620	65.0419
4616	64.9564
4612	64.8484
4608	64.7701
4604	64.7264
4600	64.7858
4596	64.9031
4592	65.0608
4588	65.1313
4584	65.024
4580	64.9138
4576	64.8006
4572	64.753
4568	64.9234
4564	65.1118
4560	65.1655
4556	65.0624
4552	64.9316
4548	64.818
4544	64.8025
4540	64.977
4536	65.0565
4532	64.9723
4528	64.8313
4524	64.7539
4520	64.7864
4516	64.726
4512	64.6628
4508	64.783
4504	65.0959
4500	65.2804
4496	65.1584
4492	64.774
4488	64.2218
4484	63.8628
4480	63.9286
4476	64.2903
4472	64.7807
4468	65.1447
4464	65.3359
4460	65.585
4456	65.4768
4452	67.0285
4448	68.5433
4444	66.5099
4440	64.1659
4436	62.7194
4432	63.0776
4428	65.186
4424	65.9792
4420	65.4419
4416	65.1599
4412	65.3523
4408	65.396
4404	65.423
4400	65.3854
4396	65.2252
4392	65.0824
4388	64.766
4384	64.508
4380	64.477
4376	64.4995
4372	64.5879
4368	64.7444
4364	64.9031
4360	65.1145
4356	65.3092
4352	65.3937
4348	65.3587
4344	65.2126
4340	65.1007
4336	64.9883
4332	64.896
4328	65.0062
4324	65.0914
4320	65.0394
4316	64.9917
4312	64.9704
4308	64.979
4304	64.8756
4300	64.7538
4296	64.791
4292	64.8584
4288	64.9167
4284	64.9692
4280	64.9494
4276	64.923
4272	64.8553
4268	64.66
4264	64.6122
4260	64.8062
4256	65.0298
4252	65.2249
4248	65.3192
4244	65.2708
4240	65.0751
4236	64.8823
4232	64.9477
4228	65.0163
4224	64.8694
4220	64.7915
4216	64.8713
4212	64.9543
4208	65.0635
4204	65.0654
4200	64.8018
4196	64.6744
4192	64.8114
4188	64.8658
4184	64.8624
4180	64.9904
4176	65.17
4172	65.2303
4168	65.093
4164	64.8547
4160	64.6821
4156	64.7076
4152	64.8063
4148	64.7302
4144	64.6921
4140	64.8563
4136	65.0218
4132	65.0225
4128	64.89
4124	64.8334
4120	64.91
4116	65.059
4112	65.1684
4108	65.0892
4104	64.9548
4100	64.9386
4096	64.9623
4092	65.0189
4088	65.0586
4084	65.0961
4080	65.2549
4076	65.3174
4072	65.1516
4068	64.9875
4064	64.9824
4060	65.0821
4056	65.121
4052	65.0347
4048	65.0333
4044	65.1618
4040	65.1766
4036	65.1209
4032	65.2404
4028	65.3072
4024	65.1133
4020	64.9942
4016	65.0699
4012	65.1253
4008	65.0218
4004	64.8997
4000	64.8743
3996	64.8624
3992	64.9581
3988	65.0598
3984	65.0055
3980	64.9541
3976	64.9735
3972	64.9727
3968	64.9683
3964	65.0491
3960	65.0715
3956	64.9548
3952	64.7856
3948	64.626
3944	64.7626
3940	65.1944
3936	65.448
3932	65.4002
3928	65.1745
3924	64.9095
3920	64.7968
3916	64.7812
3912	64.7886
3908	64.8224
3904	64.8879
3900	64.9887
3896	64.972
3892	64.7888
3888	64.7075
3884	64.8924
3880	65.1086
3876	65.1306
3872	65.0479
3868	65.0445
3864	65.1438
3860	65.2194
3856	65.2431
3852	65.2313
3848	65.1551
3844	65.0872
3840	65.0872
3836	65.113
3832	64.9858
3828	64.7729
3824	64.8324
3820	65.0007
3816	64.9916
3812	64.9758
3808	65.0042
3804	65.0087
3800	65.0255
3796	65.0011
3792	64.8956
3788	64.851
3784	64.9039
3780	64.9241
3776	64.9233
3772	64.9248
3768	64.9375
3764	65.0024
3760	65.0839
3756	65.1397
3752	65.1405
3748	65.0644
3744	65.0027
3740	65.0434
3736	65.0653
3732	65.0314
3728	65.06
3724	65.1206
3720	65.1457
3716	65.1885
3712	65.214
3708	65.146
3704	65.1177
3700	65.1869
3696	65.206
3692	65.123
3688	65.0658
3684	65.0831
3680	65.0683
3676	65.0289
3672	65.0284
3668	65.0329
3664	65.0109
3660	64.9675
3656	64.8879
3652	64.8482
3648	64.9398
3644	65.0612
3640	65.1315
3636	65.1898
3632	65.2022
3628	65.1153
3624	65.0685
3620	65.0981
3616	65.1086
3612	65.0976
3608	65.0473
3604	65.0131
3600	65.009
3596	65.0593
3592	65.1596
3588	65.1643
3584	65.1902
3580	65.2246
3576	65.1187
3572	65.0955
3568	65.2095
3564	65.2524
3560	65.1446
3556	64.9994
3552	64.9615
3548	64.9888
3544	64.9819
3540	65.0054
3536	65.0727
3532	65.1012
3528	65.0943
3524	65.0576
3520	65.0192
3516	65.0256
3512	65.0819
3508	65.1202
3504	65.0563
3500	64.9647
3496	64.9651
3492	65.0599
3488	65.1334
3484	65.1048
3480	65.1128
3476	65.1759
3472	65.1522
3468	65.0987
3464	65.0643
3460	65.0522
3456	65.1167
3452	65.1606
3448	65.0573
3444	64.9415
3440	64.9759
3436	65.0407
3432	64.9851
3428	64.9565
3424	65.0448
3420	65.0915
3416	65.1057
3412	65.1687
3408	65.1769
3404	65.0449
3400	64.8799
3396	64.8555
3392	64.9157
3388	64.9161
3384	64.9095
3380	64.9125
3376	64.904
3372	64.9138
3368	64.8997
3364	64.8536
3360	64.8545
3356	64.9301
3352	64.9561
3348	64.8899
3344	64.9078
3340	65.0225
3336	65.0835
3332	65.0388
3328	64.9154
3324	64.8854
3320	64.9875
3316	65.0503
3312	64.9994
3308	64.9008
3304	64.9017
3300	65.0055
3296	65.1061
3292	65.1047
3288	64.9884
3284	64.9115
3280	64.9406
3276	64.9728
3272	64.9338
3268	64.8743
3264	64.8401
3260	64.8676
3256	64.9954
3252	65.0856
3248	65.0531
3244	65.0151
3240	65.0046
3236	64.9927
3232	64.9353
3228	64.8255
3224	64.7881
3220	64.8036
3216	64.7824
3212	64.7787
3208	64.8199
3204	64.8277
3200	64.7841
3196	64.8149
3192	64.9575
3188	65.0165
3184	64.9486
3180	64.9369
3176	65.0212
3172	65.0842
3168	65.014
3164	64.8687
3160	64.8093
3156	64.8277
3152	64.8171
3148	64.8144
3144	64.8734
3140	64.9283
3136	64.8945
3132	64.7892
3128	64.7135
3124	64.6843
3120	64.7028
3116	64.7934
3112	64.8741
3108	64.9076
3104	64.9252
3100	64.8869
3096	64.8593
3092	64.931
3088	64.9662
3084	64.8809
3080	64.7699
3076	64.7416
3072	64.8358
3068	64.9637
3064	65.0318
3060	65.0742
3056	65.0797
3052	65.0075
3048	64.9541
3044	64.96
3040	64.9763
3036	65.0128
3032	65.0496
3028	65.0242
3024	64.9458
3020	64.9024
3016	64.9266
3012	64.941
3008	64.9069
3004	64.8552
3000	64.8628
2996	64.8763
2992	64.782
2988	64.6894
2984	64.6939
2980	64.7569
2976	64.7946
2972	64.7604
2968	64.6788
2964	64.5869
2960	64.5191
2956	64.4919
2952	64.5444
2948	64.6867
2944	64.8344
2940	64.8501
2936	64.7336
2932	64.6547
2928	64.7053
2924	64.7433
2920	64.6631
2916	64.6024
2912	64.5996
2908	64.6532
2904	64.7712
2900	64.8226
2896	64.7941
2892	64.7308
2888	64.6579
2884	64.6532
2880	64.7258
2876	64.7879
2872	64.7523
2868	64.6801
2864	64.6524
2860	64.6479
2856	64.6096
2852	64.5655
2848	64.6547
2844	64.7836
2840	64.7998
2836	64.7799
2832	64.777
2828	64.7991
2824	64.829
2820	64.7928
2816	64.7268
2812	64.7166
2808	64.7389
2804	64.7861
2800	64.8465
2796	64.8488
2792	64.8024
2788	64.784
2784	64.8114
2780	64.8307
2776	64.8138
2772	64.7849
2768	64.7694
2764	64.7869
2760	64.7807
2756	64.7089
2752	64.6744
2748	64.7221
2744	64.7512
2740	64.729
2736	64.7487
2732	64.8499
2728	64.9562
2724	64.938
2720	64.8044
2716	64.7602
2712	64.8076
2708	64.7925
2704	64.7483
2700	64.735
2696	64.7379
2692	64.7196
2688	64.6839
2684	64.6998
2680	64.7816
2676	64.8383
2672	64.8187
2668	64.7518
2664	64.6472
2660	64.5893
2656	64.6144
2652	64.6512
2648	64.6778
2644	64.6874
2640	64.6867
2636	64.6877
2632	64.6919
2628	64.6837
2624	64.6589
2620	64.6576
2616	64.6843
2612	64.7
2608	64.6897
2604	64.666
2600	64.6825
2596	64.7321
2592	64.6994
2588	64.5985
2584	64.5478
2580	64.5432
2576	64.5777
2572	64.6638
2568	64.7151
2564	64.6791
2560	64.6343
2556	64.6484
2552	64.6481
2548	64.587
2544	64.5579
2540	64.5668
2536	64.5986
2532	64.6751
2528	64.6865
2524	64.6306
2520	64.6188
2516	64.6351
2512	64.6162
2508	64.5533
2504	64.5342
2500	64.6073
2496	64.6799
2492	64.6996
2488	64.6761
2484	64.6129
2480	64.6061
2476	64.6769
2472	64.7208
2468	64.7313
2464	64.7161
2460	64.687
2456	64.7031
2452	64.7153
2448	64.6477
2444	64.5456
2440	64.4896
2436	64.4974
2432	64.5466
2428	64.6255
2424	64.6906
2420	64.6741
2416	64.5761
2412	64.4601
2408	64.4175
2404	64.4605
2400	64.521
2396	64.573
2392	64.5725
2388	64.5485
2384	64.5745
2380	64.6093
2376	64.6082
2372	64.5732
2368	64.5438
2364	64.511
2360	64.4919
2356	64.4994
2352	64.4569
2348	64.4337
2344	64.4977
2340	64.569
2336	64.597
2332	64.5812
2328	64.5607
2324	64.5648
2320	64.5432
2316	64.4969
2312	64.4778
2308	64.4696
2304	64.454
2300	64.4853
2296	64.5641
2292	64.5719
2288	64.4976
2284	64.462
2280	64.4869
2276	64.5327
2272	64.5524
2268	64.4988
2264	64.4611
2260	64.4804
2256	64.4854
2252	64.4765
2248	64.457
2244	64.4296
2240	64.4643
2236	64.5595
2232	64.5848
2228	64.5042
2224	64.4418
2220	64.4399
2216	64.4365
2212	64.4032
2208	64.3553
2204	64.3413
2200	64.3615
2196	64.3625
2192	64.3228
2188	64.2931
2184	64.3364
2180	64.4125
2176	64.4279
2172	64.3932
2168	64.3902
2164	64.3999
2160	64.3514
2156	64.2817
2152	64.2627
2148	64.2793
2144	64.3079
2140	64.3333
2136	64.3376
2132	64.3542
2128	64.3696
2124	64.3469
2120	64.3428
2116	64.3433
2112	64.2874
2108	64.2727
2104	64.2886
2100	64.2461
2096	64.2109
2092	64.2075
2088	64.2223
2084	64.2575
2080	64.2913
2076	64.2877
2072	64.2267
2068	64.1801
2064	64.2639
2060	64.3797
2056	64.3703
2052	64.314
2048	64.2721
2044	64.2494
2040	64.2767
2036	64.3266
2032	64.3449
2028	64.2891
2024	64.2447
2020	64.2636
2016	64.2618
2012	64.2322
2008	64.1901
2004	64.1806
2000	64.2543
1996	64.3237
1992	64.3397
1988	64.3173
1984	64.2674
1980	64.2277
1976	64.213
1972	64.2152
1968	64.2143
1964	64.213
1960	64.2275
1956	64.233
1952	64.1724
1948	64.0752
1944	64.0526
1940	64.1187
1936	64.1523
1932	64.1058
1928	64.0307
1924	63.971
1920	63.9861
1916	64.057
1912	64.1085
1908	64.1201
1904	64.1321
1900	64.1341
1896	64.0922
1892	64.0959
1888	64.1332
1884	64.0746
1880	64.0112
1876	64.0509
1872	64.0806
1868	64.0305
1864	63.9946
1860	64.0537
1856	64.1336
1852	64.1187
1848	64.0377
1844	64.0202
1840	64.0803
1836	64.1112
1832	64.0778
1828	64.0375
1824	64.0537
1820	64.1153
1816	64.1564
1812	64.1307
1808	64.0791
1804	64.0583
1800	64.054
1796	64.0248
1792	63.9643
1788	63.9294
1784	63.9376
1780	63.9444
1776	63.9334
1772	63.9309
1768	63.9386
1764	63.9196
1760	63.8938
1756	63.8529
1752	63.7728
1748	63.6951
1744	63.6073
1740	63.5155
1736	63.4386
1732	63.4088
1728	63.5105
1724	63.6677
1720	63.7533
1716	63.7754
1712	63.7604
1708	63.7281
1704	63.7423
1700	63.8001
1696	63.8453
1692	63.851
1688	63.8337
1684	63.8133
1680	63.7464
1676	63.6812
1672	63.7095
1668	63.812
1664	63.901
1660	63.8811
1656	63.7983
1652	63.7923
1648	63.8451
1644	63.8404
1640	63.786
1636	63.7363
1632	63.7052
1628	63.6993
1624	63.7503
1620	63.8877
1616	63.9448
1612	63.817
1608	63.7338
1604	63.8205
1600	63.9124
1596	63.8973
1592	63.8398
1588	63.7747
1584	63.6683
1580	63.5829
1576	63.6097
1572	63.6817
1568	63.6653
1564	63.5962
1560	63.5992
1556	63.6575
1552	63.6767
1548	63.6688
1544	63.6724
1540	63.6756
1536	63.6683
1532	63.6856
1528	63.7394
1524	63.7267
1520	63.6198
1516	63.5689
1512	63.6236
1508	63.67
1504	63.6577
1500	63.667
1496	63.7098
1492	63.6927
1488	63.6759
1484	63.6623
1480	63.5872
1476	63.5479
1472	63.5826
1468	63.5734
1464	63.4661
1460	63.3926
1456	63.392
1452	63.3979
1448	63.4345
1444	63.4985
1440	63.5719
1436	63.589
1432	63.5272
1428	63.471
1424	63.4403
1420	63.4422
1416	63.4373
1412	63.4351
1408	63.5088
1404	63.5532
1400	63.4563
1396	63.3207
1392	63.3186
1388	63.4314
1384	63.4978
1380	63.4692
1376	63.4051
1372	63.3778
1368	63.4095
1364	63.4358
1360	63.434
1356	63.421
1352	63.3907
1348	63.3695
1344	63.357
1340	63.3381
1336	63.3537
1332	63.4331
1328	63.5086
1324	63.5379
1320	63.5459
1316	63.508
1312	63.4545
1308	63.4121
1304	63.3711
1300	63.3836
1296	63.4071
1292	63.3544
1288	63.2236
1284	63.1015
1280	63.0852
1276	63.1243
1272	63.1223
1268	63.0659
1264	63.0188
1260	63.0352
1256	63.1046
1252	63.2043
1248	63.2792
1244	63.2795
1240	63.2376
1236	63.2081
1232	63.2069
1228	63.2224
1224	63.243
1220	63.2315
1216	63.1974
1212	63.16
1208	63.0939
1204	63.0575
1200	63.0775
1196	63.1112
1192	63.1632
1188	63.186
1184	63.1176
1180	63.0455
1176	63.0136
1172	62.9163
1168	62.7996
1164	62.8115
1160	62.9306
1156	63.0763
1152	63.1483
1148	63.1419
1144	63.1491
1140	63.1505
1136	63.1232
1132	63.0626
1128	63.0236
1124	63.0664
1120	63.1034
1116	63.0532
1112	62.9956
1108	62.9984
1104	63.0395
1100	63.047
1096	63.0365
1092	63.0467
1088	62.9883
1084	62.904
1080	62.8949
1076	62.9411
1072	63.0193
1068	63.0596
1064	63.0386
1060	63.0243
1056	63.0108
1052	62.9813
1048	62.9508
1044	62.9264
1040	62.9481
1036	62.9755
1032	62.9899
1028	63.0618
1024	63.1127
1020	63.1001
1016	63.0481
1012	62.9677
1008	62.9201
1004	62.9141
1000	62.9466
996	 62.9432
992	 62.9266
988	 62.9988
984	 63.0271
980	 62.9527
976	 62.878
972	 62.8804
968	 62.9684
964	 63.0579
960	 63.1214
956	 63.1647
952	 63.1377
948	 63.054
944	 62.9967
940	 63.015
936	 63.0135
932	 62.9888
928	 63.0536
924	 63.0846
920	 63.0879
916	 63.1381
912	 63.0733
908	 62.8817
904	 62.7362
900	 62.78
896	 62.8602
892	 62.8129
888	 62.7732
884	 62.7829
880	 62.8147
876	 62.8992
872	 62.9347
868	 62.8963
864	 62.9091
860	 62.8749
856	 62.7376
852	 62.6585
848	 62.6753
844	 62.7049
840	 62.7042
836	 62.7211
832	 62.7309
828	 62.7108
824	 62.7904
820	 62.9025
816	 62.9164
812	 62.9506
808	 63.0174
804	 62.9203
800	 62.769
796	 62.7465
792	 62.7574
788	 62.8054
784	 62.8112
780	 62.7095
776	 62.5693
772	 62.5231
768	 62.6225
764	 62.6798
760	 62.6278
756	 62.5217
752	 62.4884
748	 62.5786
744	 62.6537
740	 62.6643
736	 62.7273
732	 62.8371
728	 62.6992
724	 62.3723
720	 62.2832
716	 62.4105
712	 62.5169
708	 62.5253
704	 62.518
700	 62.526
696	 62.4499
692	 62.4199
688	 62.5055
684	 62.5103
680	 62.3369
676	 62.2603
672	 62.414
668	 62.3956
664	 62.2184
660	 62.2136
656	 62.2227
652	 62.1241
648	 62.0994
644	 62.2434
640	 62.3342
636	 62.3407
632	 62.3826
628	 62.3292
624	 62.28
620	 62.2067
616	 62.0152
612	 62.1986
608	 62.6239
604	 62.4594
600	 62.1943
596	 62.332
592	 62.2396
588	 61.9749
584	 61.9529
580	 62.0889
576	 62.326
572	 62.5563
568	 62.274
564	 61.9052
560	 62.0162
556	 62.1643
552	 62.2239
548	 62.0286
544	 61.6002
540	 61.395
536	 61.7415
532	 61.6771
528	 60.8522
524	 61.0542
520	 62.4613
516	 63.5332
512	 63.6074
508	 62.8654
504	 61.3482
500	 59.9491
496	 59.859
492	 60.7143
488	 61.7213
484	 61.7348
480	 61.5469
476	 62.2511
472	 62.5842
468	 62.2571
464	 62.1141
460	 62.3291
456	 62.5502
452	 62.1002
448	 61.0915
444	 61.3034
440	 62.4393
436	 62.9809
432	 62.6948
428	 61.3448
424	 61.1083
420	 63.3065
416	 63.3871
412	 59.648
408	 56.3959
404	 58.0547
400	 62.7275
396	 64.2855
392	 66.2809
388	 71.8785
384	 73.05
380	 61.6725
376	 50.32
372	 60.3916
370	 72.5197