File: Bakgrunnsmateriale/MATLAB/FTIR/ftir_data/subAa/Mapping_121/BZ1503107-1_t100_cm-1.asc
PE IR       SPECTRUM    SPECTRUM    ASCII       PEDS        1.60
  -1
BZBB70~1.ASC
17/04/07
21:28:12.00
17/04/07
21:28:12.00
tln
$BZ1503107-1_t0100$<tbV0>[13.0,10.4,8.0,0.0,27,1,0]
370
64

2002,4.07
MIRTGS : RIGHTBACK : INTERNAL 2
MIR : ON : INTERNAL 2
OPTKBR

0.200000
8
8.000000
FILLER
RATIO
SPECTRUM
UNLOCKED 256

DOUBLE
64
COMBINED
1
0
0

1.000000
RATIO

1
0
TRUE
51149
0
LEFT NOT FITTED RIGHT NOT FITTED 0
NONE
NONE
15600
12
4.427000
51148
TRUE
1 0 8 72 0 0 0 0

15798

#HDR
-1
-1
#GR
CM-1
%T
2.38419e-05
0.0
5000
-1.000000
4631
8
77.7067
50.8469
#DATA
5000	65.0362
4996	64.7169
4992	65.1882
4988	65.6106
4984	65.2672
4980	63.4959
4976	61.8712
4972	62.1767
4968	63.1571
4964	64.0265
4960	64.7423
4956	65.6698
4952	66.9085
4948	66.7417
4944	65.556
4940	65.7545
4936	66.3001
4932	65.4366
4928	64.8477
4924	65.1778
4920	65.1818
4916	64.8808
4912	64.959
4908	65.1677
4904	64.7206
4900	64.3885
4896	64.7722
4892	64.8473
4888	64.4769
4884	64.5265
4880	64.8277
4876	65.0508
4872	65.2039
4868	65.0127
4864	64.7436
4860	64.6701
4856	64.7677
4852	64.8253
4848	64.5953
4844	64.4427
4840	64.4342
4836	64.3617
4832	64.3466
4828	64.5343
4824	64.8458
4820	65.0845
4816	65.2256
4812	64.9982
4808	64.6504
4804	64.7921
4800	65.0591
4796	65.0998
4792	65.1637
4788	65.2426
4784	65.1521
4780	64.9165
4776	64.6805
4772	64.6867
4768	64.8954
4764	65.0403
4760	65.0192
4756	64.8934
4752	64.9183
4748	65.1162
4744	65.1356
4740	64.8834
4736	64.756
4732	64.9091
4728	64.9176
4724	64.7157
4720	64.7081
4716	64.8433
4712	64.9027
4708	64.9652
4704	64.9385
4700	64.9168
4696	64.9848
4692	64.9464
4688	64.9695
4684	65.1498
4680	65.1098
4676	64.8906
4672	64.9632
4668	65.1595
4664	65.1634
4660	65.2003
4656	65.3629
4652	65.416
4648	65.3573
4644	65.269
4640	65.0968
4636	64.9118
4632	64.9297
4628	65.1145
4624	65.2065
4620	65.1606
4616	65.095
4612	65.1254
4608	65.1595
4604	65.0609
4600	64.9831
4596	65.0253
4592	65.0472
4588	64.8898
4584	64.7155
4580	64.7228
4576	64.6774
4572	64.6166
4568	64.7495
4564	64.8796
4560	64.9056
4556	64.798
4552	64.7389
4548	65.002
4544	65.2942
4540	65.2554
4536	65.082
4532	64.9667
4528	64.7923
4524	64.5589
4520	64.3811
4516	64.3255
4512	64.4391
4508	64.7573
4504	65.1384
4500	65.1952
4496	65.1369
4492	65.1929
4488	65.24
4484	65.4459
4480	65.6096
4476	65.4427
4472	65.3649
4468	65.6479
4464	65.8111
4460	66.1034
4456	65.1054
4452	65.3497
4448	67.5905
4444	69.0741
4440	66.7633
4436	59.0778
4432	56.9866
4428	61.9374
4424	64.0861
4420	64.4999
4416	65.4977
4412	65.4175
4408	64.8282
4404	64.691
4400	64.8732
4396	64.7528
4392	64.5462
4388	64.7217
4384	64.9524
4380	64.8605
4376	64.8816
4372	65.1506
4368	65.3617
4364	65.4864
4360	65.5222
4356	65.3993
4352	65.2142
4348	65.1551
4344	65.1143
4340	65.0485
4336	65.0362
4332	64.94
4328	64.9013
4324	65.0966
4320	65.2816
4316	65.3024
4312	65.175
4308	65.0192
4304	65.0724
4300	65.2698
4296	65.3322
4292	65.2514
4288	65.1114
4284	64.8636
4280	64.612
4276	64.6137
4272	64.7643
4268	64.7997
4264	64.9191
4260	65.0924
4256	65.093
4252	65.0663
4248	65.0523
4244	64.9503
4240	64.7326
4236	64.575
4232	64.7014
4228	64.932
4224	65.0051
4220	64.8931
4216	64.7689
4212	64.8803
4208	65.1784
4204	65.3679
4200	65.3011
4196	65.0632
4192	64.7948
4188	64.7613
4184	64.944
4180	65.0485
4176	65.0506
4172	65.0391
4168	64.9962
4164	64.903
4160	64.8377
4156	64.8276
4152	64.8146
4148	64.6982
4144	64.5904
4140	64.6861
4136	64.8508
4132	64.9135
4128	64.8908
4124	64.8343
4120	64.8178
4116	64.9272
4112	65.1409
4108	65.2417
4104	65.1071
4100	64.9249
4096	64.8175
4092	64.8193
4088	64.9288
4084	65.0322
4080	65.071
4076	65.0841
4072	65.0357
4068	64.8945
4064	64.8498
4060	64.8697
4056	64.8666
4052	64.8677
4048	64.7287
4044	64.6984
4040	64.8731
4036	64.9502
4032	65.0537
4028	65.1525
4024	65.1032
4020	65.0553
4016	65.0292
4012	65.0284
4008	65.0077
4004	64.8812
4000	64.8363
3996	64.9658
3992	65.0798
3988	65.0295
3984	64.9063
3980	64.8275
3976	64.7769
3972	64.8461
3968	64.9788
3964	64.9837
3960	64.9085
3956	65.0282
3952	65.2482
3948	65.113
3944	64.8692
3940	64.9251
3936	65.049
3932	65.0326
3928	64.9527
3924	64.8536
3920	64.7851
3916	64.8391
3912	64.9669
3908	65.1355
3904	65.1939
3900	65.0901
3896	65.1186
3892	65.1408
3888	65.0155
3884	65.0456
3880	65.1114
3876	64.9459
3872	64.8065
3868	64.856
3864	64.935
3860	65.0309
3856	65.1685
3852	65.2436
3848	65.1317
3844	64.9798
3840	65.0308
3836	65.1185
3832	65.0881
3828	65.0953
3824	65.1808
3820	65.2035
3816	65.1573
3812	65.1124
3808	65.0544
3804	65.0478
3800	65.0852
3796	65.062
3792	65.0463
3788	65.1
3784	65.1585
3780	65.1335
3776	65.0264
3772	64.9899
3768	65.0054
3764	64.9263
3760	64.8496
3756	64.9441
3752	65.0814
3748	65.0448
3744	64.9688
3740	64.9861
3736	65.0071
3732	64.988
3728	64.9313
3724	64.9547
3720	65.0749
3716	65.1372
3712	65.1
3708	64.9588
3704	64.81
3700	64.833
3696	65.0092
3692	65.1327
3688	65.1331
3684	65.0609
3680	64.9379
3676	64.8392
3672	64.829
3668	64.89
3664	64.9435
3660	64.9801
3656	65.0228
3652	65.0199
3648	65.0449
3644	65.1259
3640	65.141
3636	65.1019
3632	65.0645
3628	64.9941
3624	64.9132
3620	64.892
3616	64.9187
3612	64.9747
3608	64.984
3604	64.9427
3600	64.9872
3596	65.0738
3592	65.0941
3588	65.0453
3584	64.9871
3580	64.9507
3576	64.9211
3572	64.929
3568	64.9897
3564	65.0561
3560	65.0341
3556	64.8885
3552	64.6795
3548	64.588
3544	64.6996
3540	64.8835
3536	65.011
3532	65.0712
3528	65.086
3524	65.0117
3520	64.9577
3516	65.0082
3512	65.0446
3508	64.9952
3504	64.9129
3500	64.8994
3496	64.9614
3492	65.0478
3488	65.0464
3484	64.9227
3480	64.8851
3476	64.9323
3472	64.956
3468	64.9972
3464	65.0052
3460	64.9656
3456	64.9245
3452	64.8669
3448	64.8225
3444	64.8794
3440	65.0116
3436	65.0679
3432	65.0027
3428	64.973
3424	65.0234
3420	65.0466
3416	65.0876
3412	65.1178
3408	65.0291
3404	64.9151
3400	64.8357
3396	64.826
3392	64.8961
3388	64.9677
3384	65.0288
3380	65.045
3376	65.0196
3372	64.9784
3368	64.9454
3364	64.9601
3360	64.9572
3356	64.9719
3352	64.9954
3348	64.9293
3344	64.8949
3340	64.9168
3336	64.9118
3332	64.9126
3328	64.9263
3324	64.9414
3320	64.9482
3316	64.9479
3312	64.9318
3308	64.8921
3304	64.8867
3300	64.9576
3296	65.0376
3292	65.0362
3288	64.9959
3284	64.9812
3280	64.9228
3276	64.8194
3272	64.7914
3268	64.8952
3264	64.9954
3260	65.0095
3256	64.9932
3252	64.9415
3248	64.8914
3244	64.8731
3240	64.9319
3236	65.0695
3232	65.1047
3228	65.0197
3224	64.8976
3220	64.7307
3216	64.6737
3212	64.7659
3208	64.821
3204	64.8484
3200	64.8776
3196	64.8975
3192	64.9238
3188	64.8841
3184	64.853
3180	64.8961
3176	64.915
3172	64.9084
3168	64.8789
3164	64.7829
3160	64.7366
3156	64.7886
3152	64.8048
3148	64.7107
3144	64.6098
3140	64.6663
3136	64.8047
3132	64.8508
3128	64.864
3124	64.9016
3120	64.8816
3116	64.8511
3112	64.8984
3108	64.9151
3104	64.8964
3100	64.9796
3096	65.0448
3092	64.9875
3088	64.8699
3084	64.7417
3080	64.7157
3076	64.778
3072	64.7951
3068	64.7875
3064	64.8089
3060	64.8435
3056	64.8876
3052	64.9148
3048	64.9333
3044	64.9675
3040	65.0005
3036	64.9977
3032	64.9263
3028	64.8683
3024	64.8462
3020	64.8315
3016	64.9027
3012	64.9528
3008	64.9065
3004	64.9191
3000	64.9536
2996	64.9188
2992	64.8816
2988	64.8581
2984	64.8464
2980	64.8708
2976	64.8807
2972	64.8509
2968	64.7981
2964	64.7439
2960	64.702
2956	64.6545
2952	64.5983
2948	64.5727
2944	64.6172
2940	64.6296
2936	64.5949
2932	64.6127
2928	64.6911
2924	64.7318
2920	64.6857
2916	64.6966
2912	64.7169
2908	64.6821
2904	64.7009
2900	64.7112
2896	64.6751
2892	64.6647
2888	64.6517
2884	64.6174
2880	64.5956
2876	64.6425
2872	64.7354
2868	64.7697
2864	64.7609
2860	64.7086
2856	64.6253
2852	64.6117
2848	64.6653
2844	64.6738
2840	64.6534
2836	64.6904
2832	64.7197
2828	64.7355
2824	64.7722
2820	64.793
2816	64.7798
2812	64.7605
2808	64.7502
2804	64.7497
2800	64.7888
2796	64.8123
2792	64.768
2788	64.7382
2784	64.7768
2780	64.8163
2776	64.7964
2772	64.7259
2768	64.6967
2764	64.7546
2760	64.7624
2756	64.6938
2752	64.6806
2748	64.7104
2744	64.7223
2740	64.7141
2736	64.6685
2732	64.6591
2728	64.7619
2724	64.8794
2720	64.8783
2716	64.789
2712	64.7483
2708	64.7339
2704	64.6852
2700	64.684
2696	64.7277
2692	64.7373
2688	64.7059
2684	64.6585
2680	64.6517
2676	64.6713
2672	64.6557
2668	64.6629
2664	64.6916
2660	64.6955
2656	64.6821
2652	64.7233
2648	64.8143
2644	64.8021
2640	64.7296
2636	64.6874
2632	64.6441
2628	64.5772
2624	64.5132
2620	64.5394
2616	64.6832
2612	64.7893
2608	64.7054
2604	64.5794
2600	64.5654
2596	64.602
2592	64.6108
2588	64.5832
2584	64.5937
2580	64.6122
2576	64.5797
2572	64.6199
2568	64.6951
2564	64.6568
2560	64.6185
2556	64.6524
2552	64.6604
2548	64.6199
2544	64.5858
2540	64.623
2536	64.6886
2532	64.7015
2528	64.6643
2524	64.6106
2520	64.5856
2516	64.6016
2512	64.6379
2508	64.611
2504	64.5377
2500	64.5749
2496	64.6457
2492	64.6158
2488	64.5908
2484	64.5777
2480	64.5483
2476	64.5656
2472	64.5535
2468	64.5583
2464	64.6386
2460	64.6681
2456	64.643
2452	64.5836
2448	64.4965
2444	64.4712
2440	64.5094
2436	64.5477
2432	64.5804
2428	64.6157
2424	64.6144
2420	64.5708
2416	64.5462
2412	64.5311
2408	64.512
2404	64.5196
2400	64.5465
2396	64.5805
2392	64.5691
2388	64.5208
2384	64.5218
2380	64.543
2376	64.5213
2372	64.5232
2368	64.6199
2364	64.6776
2360	64.6098
2356	64.5233
2352	64.4947
2348	64.5415
2344	64.5936
2340	64.5838
2336	64.5326
2332	64.4967
2328	64.5402
2324	64.5968
2320	64.5796
2316	64.5495
2312	64.5303
2308	64.4609
2304	64.3444
2300	64.3064
2296	64.4297
2292	64.5849
2288	64.6108
2284	64.5554
2280	64.5391
2276	64.5666
2272	64.5761
2268	64.5411
2264	64.5261
2260	64.571
2256	64.6092
2252	64.5947
2248	64.5718
2244	64.5234
2240	64.4664
2236	64.4639
2232	64.467
2228	64.4607
2224	64.4558
2220	64.4314
2216	64.3818
2212	64.3446
2208	64.3596
2204	64.3898
2200	64.412
2196	64.4205
2192	64.3916
2188	64.3764
2184	64.3601
2180	64.3178
2176	64.3348
2172	64.4034
2168	64.4537
2164	64.4068
2160	64.2998
2156	64.2636
2152	64.2851
2148	64.3015
2144	64.3394
2140	64.3568
2136	64.3156
2132	64.3013
2128	64.3231
2124	64.3378
2120	64.3424
2116	64.3119
2112	64.275
2108	64.2939
2104	64.3266
2100	64.3147
2096	64.2964
2092	64.2956
2088	64.273
2084	64.2808
2080	64.3434
2076	64.3396
2072	64.2596
2068	64.2417
2064	64.3558
2060	64.5165
2056	64.5973
2052	64.538
2048	64.375
2044	64.2458
2040	64.2353
2036	64.2998
2032	64.3455
2028	64.2976
2024	64.1793
2020	64.1096
2016	64.1497
2012	64.213
2008	64.2504
2004	64.2841
2000	64.2752
1996	64.2356
1992	64.2241
1988	64.1994
1984	64.1422
1980	64.1321
1976	64.1846
1972	64.2424
1968	64.2561
1964	64.237
1960	64.2433
1956	64.2628
1952	64.2463
1948	64.1956
1944	64.1593
1940	64.161
1936	64.1433
1932	64.1067
1928	64.135
1924	64.1744
1920	64.1505
1916	64.1589
1912	64.2079
1908	64.1991
1904	64.1656
1900	64.1386
1896	64.1107
1892	64.1284
1888	64.1704
1884	64.1644
1880	64.129
1876	64.1266
1872	64.1416
1868	64.1546
1864	64.209
1860	64.2479
1856	64.1918
1852	64.0987
1848	64.0584
1844	64.0827
1840	64.1553
1836	64.2261
1832	64.1969
1828	64.121
1824	64.1056
1820	64.124
1816	64.1232
1812	64.1275
1808	64.1745
1804	64.2095
1800	64.1712
1796	64.0982
1792	64.0528
1788	64.0271
1784	64.0228
1780	64.0373
1776	64.035
1772	64.0258
1768	64.0331
1764	64.0582
1760	64.055
1756	63.9802
1752	63.8934
1748	63.8761
1744	63.8782
1740	63.8514
1736	63.8391
1732	63.8559
1728	63.8662
1724	63.833
1720	63.7938
1716	63.8179
1712	63.8799
1708	63.9195
1704	63.9249
1700	63.8917
1696	63.8881
1692	63.9266
1688	63.919
1684	63.8597
1680	63.783
1676	63.7481
1672	63.7776
1668	63.8361
1664	63.9005
1660	63.9082
1656	63.867
1652	63.9015
1648	63.9709
1644	63.958
1640	63.9184
1636	63.9117
1632	63.8869
1628	63.8142
1624	63.7767
1620	63.8069
1616	63.8505
1612	63.8868
1608	63.8884
1604	63.859
1600	63.8384
1596	63.8624
1592	63.9179
1588	63.9419
1584	63.8832
1580	63.788
1576	63.7882
1572	63.85
1568	63.8761
1564	63.8896
1560	63.8494
1556	63.735
1552	63.6607
1548	63.6835
1544	63.7335
1540	63.7627
1536	63.8155
1532	63.844
1528	63.8027
1524	63.7336
1520	63.6265
1516	63.549
1512	63.592
1508	63.6716
1504	63.6797
1500	63.6753
1496	63.7116
1492	63.7361
1488	63.7194
1484	63.6456
1480	63.6225
1476	63.6929
1472	63.7352
1468	63.7171
1464	63.6703
1460	63.5935
1456	63.5096
1452	63.5351
1448	63.608
1444	63.5594
1440	63.4976
1436	63.5208
1432	63.5474
1428	63.5522
1424	63.5404
1420	63.5153
1416	63.5145
1412	63.5508
1408	63.58
1404	63.5664
1400	63.5374
1396	63.5087
1392	63.5339
1388	63.6113
1384	63.6306
1380	63.5899
1376	63.5659
1372	63.5417
1368	63.4825
1364	63.4638
1360	63.5174
1356	63.5515
1352	63.5508
1348	63.5692
1344	63.5562
1340	63.4584
1336	63.3963
1332	63.4649
1328	63.5378
1324	63.5359
1320	63.5457
1316	63.5723
1312	63.5379
1308	63.412
1304	63.2754
1300	63.2812
1296	63.3907
1292	63.4347
1288	63.3616
1284	63.2731
1280	63.2618
1276	63.2774
1272	63.2842
1268	63.3076
1264	63.3627
1260	63.4007
1256	63.338
1252	63.2473
1248	63.248
1244	63.2779
1240	63.2906
1236	63.3035
1232	63.325
1228	63.3858
1224	63.4131
1220	63.361
1216	63.3342
1212	63.3513
1208	63.352
1204	63.3305
1200	63.3269
1196	63.3353
1192	63.2985
1188	63.2347
1184	63.227
1180	63.2947
1176	63.3424
1172	63.2895
1168	63.173
1164	63.0937
1160	63.1083
1156	63.1711
1152	63.2143
1148	63.243
1144	63.2828
1140	63.3428
1136	63.343
1132	63.2279
1128	63.1597
1124	63.2045
1120	63.2297
1116	63.1665
1112	63.1067
1108	63.0863
1104	63.1145
1100	63.1906
1096	63.1688
1092	63.1037
1088	63.1437
1084	63.1608
1080	63.0929
1076	63.0821
1072	63.1161
1068	63.0877
1064	63.0431
1060	63.0461
1056	63.0749
1052	63.1267
1048	63.2111
1044	63.3056
1040	63.3533
1036	63.2921
1032	63.2015
1028	63.2158
1024	63.2266
1020	63.1237
1016	63.0599
1012	63.1071
1008	63.1322
1004	63.1089
1000	63.1433
996	 63.2125
992	 63.227
988	 63.1935
984	 63.1863
980	 63.2573
976	 63.323
972	 63.3072
968	 63.2445
964	 63.1634
960	 63.1054
956	 63.1249
952	 63.1223
948	 63.0519
944	 63.1114
940	 63.2127
936	 63.1702
932	 63.1654
928	 63.2424
924	 63.2586
920	 63.2157
916	 63.1685
912	 63.167
908	 63.1895
904	 63.1167
900	 63.0235
896	 62.9841
892	 62.9766
888	 63.062
884	 63.1024
880	 62.9975
876	 62.8984
872	 62.9116
868	 63.0596
864	 63.205
860	 63.2126
856	 63.1553
852	 63.0383
848	 62.8953
844	 62.8887
840	 62.9268
836	 62.878
832	 62.8112
828	 62.7802
824	 62.8907
820	 63.0574
816	 63.1133
812	 63.1753
808	 63.1435
804	 62.913
800	 62.7867
796	 62.8236
792	 62.846
788	 62.8801
784	 62.9092
780	 62.9242
776	 62.9203
772	 62.8692
768	 62.7814
764	 62.7446
760	 62.8413
756	 62.9879
752	 63.0458
748	 62.903
744	 62.6884
740	 62.6495
736	 62.7569
732	 62.7613
728	 62.6508
724	 62.6283
720	 62.6667
716	 62.6061
712	 62.4348
708	 62.3333
704	 62.3505
700	 62.4071
696	 62.5274
692	 62.6527
688	 62.7571
684	 62.748
680	 62.4892
676	 62.2551
672	 62.363
668	 62.62
664	 62.6289
660	 62.4409
656	 62.3787
652	 62.4482
648	 62.5485
644	 62.7087
640	 62.7014
636	 62.4889
632	 62.3691
628	 62.2595
624	 62.1274
620	 62.1959
616	 62.2601
612	 62.3209
608	 62.5149
604	 62.4551
600	 62.4098
596	 62.669
592	 62.8461
588	 62.7268
584	 62.4053
580	 62.1028
576	 61.9397
572	 62.1612
568	 62.3963
564	 62.1784
560	 62.3965
556	 63.4051
552	 63.996
548	 63.3867
544	 61.9805
540	 61.3069
536	 62.3104
532	 63.3173
528	 62.8988
524	 62.3885
520	 62.7238
516	 62.7185
512	 62.4975
508	 62.0499
504	 60.3838
500	 59.5712
496	 60.8367
492	 62.4614
488	 63.1739
484	 62.3195
480	 61.365
476	 61.6003
472	 61.8181
468	 61.575
464	 61.2403
460	 61.0373
456	 61.2895
452	 61.5453
448	 60.8321
444	 60.6753
440	 61.5667
436	 61.5644
432	 60.7858
428	 59.8867
424	 59.9425
420	 61.5654
416	 61.8543
412	 59.5643
408	 58.3992
404	 59.7631
400	 59.4575
396	 55.8552
392	 53.5695
388	 57.8316
384	 70.1471
380	 77.7067
376	 70.1622
372	 56.7316
370	 50.8469