File: Bakgrunnsmateriale/MATLAB/FTIR/ftir_data/subAa/Mapping_121/BZ1503107-1_t112.asc
PE IR       SPECTRUM    SPECTRUM    ASCII       PEDS        1.60
  -1
BZDABA~1.ASC
17/04/07
22:29:52.00
17/04/07
22:30:18.00
tln
$BZ1503107-1_t0112$<tbV0>[10.4,13.0,8.0,0.0,27,1,0]
27.028
64

2002,4.07
MIRTGS : RIGHTBACK : INTERNAL 2
MIR : ON : INTERNAL 2
OPTKBR

0.200000
8
8.000000
FILLER
RATIO
SPECTRUM
UNLOCKED 256

DOUBLE
64
COMBINED
1
0
0

0.002000
RATIO

1
0
TRUE
51149
0
LEFT NOT FITTED RIGHT NOT FITTED 0
NONE
NONE
15600
12
4.427000
51148
TRUE
1 0 8 72 0 0 0 0

15798

#HDR
-1
-1
#GR
µM
%T
2.38419e-05
0.0
2.000000
0.002000
12515
8
74.9038
51.5284
#DATA
2.000000	 65.0947
2.018000	 65.531
2.036000	 65.0689
2.054000	 65.1299
2.072000	 64.8498
2.090000	 64.5406
2.108000	 64.4873
2.126000	 65.1221
2.144000	 64.8365
2.162000	 64.8118
2.180000	 64.9896
2.198000	 65.3434
2.216000	 65.5844
2.234000	 65.6285
2.252000	 54.5876
2.270000	 65.7083
2.288000	 65.5273
2.306000	 65.0979
2.324000	 64.8589
2.342000	 65.0775
2.360000	 64.8707
2.378000	 65.1988
2.396000	 64.749
2.414000	 64.582
2.432000	 65.0753
2.450000	 65.037
2.468000	 64.9263
2.486000	 65.0613
2.504000	 65.0364
2.522000	 64.8823
2.540000	 65.2848
2.558000	 65.0156
2.576000	 65.018
2.594000	 65.2759
2.612000	 65.1629
2.630000	 65.114
2.648000	 65.1781
2.666000	 65.1152
2.684000	 65.1308
2.702000	 65.0076
2.720000	 64.9825
2.738000	 65.067
2.756000	 65.0339
2.774000	 65.1375
2.792000	 64.9621
2.810000	 65.0297
2.828000	 64.8662
2.846000	 64.8634
2.864000	 64.9945
2.882000	 64.9995
2.900000	 64.8428
2.918000	 65.0242
2.936000	 64.9539
2.954000	 64.7985
2.972000	 65.1539
2.990000	 65.0219
3.008000	 64.9156
3.026000	 64.8979
3.044000	 64.9178
3.062000	 64.8653
3.080000	 64.958
3.098000	 64.8468
3.116000	 64.8808
3.134000	 64.9291
3.152000	 64.9024
3.170000	 64.9814
3.188000	 64.8299
3.206000	 64.8698
3.224000	 64.7849
3.242000	 64.9287
3.260000	 64.6247
3.278000	 64.8808
3.296000	 64.7895
3.314000	 64.7034
3.332000	 64.7423
3.350000	 64.7968
3.368000	 64.8056
3.386000	 64.6839
3.404000	 64.6902
3.422000	 64.6382
3.440000	 64.6246
3.458000	 64.6145
3.476000	 64.7228
3.494000	 64.7196
3.512000	 64.8251
3.530000	 64.7009
3.548000	 64.595
3.566000	 64.7243
3.584000	 64.6406
3.602000	 64.6961
3.620000	 64.7593
3.638000	 64.6534
3.656000	 64.6805
3.674000	 64.6397
3.692000	 64.7696
3.710000	 64.5113
3.728000	 64.6629
3.746000	 64.6728
3.764000	 64.5447
3.782000	 64.8179
3.800000	 64.5715
3.818000	 64.6277
3.836000	 64.7239
3.854000	 64.4651
3.872000	 64.6331
3.890000	 64.6953
3.908000	 64.3804
3.926000	 64.5919
3.944000	 64.7182
3.962000	 64.4961
3.980000	 64.6455
3.998000	 64.5229
4.016000	 64.4853
4.034000	 64.5347
4.052000	 64.5263
4.070000	 64.5232
4.088000	 64.4848
4.106000	 64.4934
4.124000	 64.3806
4.141999	 64.4305
4.160000	 64.5373
4.178000	 64.4594
4.196000	 64.3889
4.214000	 64.5028
4.232000	 64.5277
4.250000	 64.6041
4.268000	 64.5385
4.286000	 64.4478
4.304000	 64.4431
4.322000	 64.4393
4.340000	 64.4077
4.358000	 64.3988
4.375999	 64.37
4.394000	 64.3578
4.412000	 64.3239
4.430000	 64.3348
4.448000	 64.3417
4.466000	 64.2952
4.484000	 64.2836
4.502000	 64.374
4.520000	 64.3852
4.538000	 64.4021
4.556000	 64.2705
4.574000	 64.1981
4.592000	 64.3261
4.609999	 64.2578
4.628000	 64.3196
4.646000	 64.2802
4.664000	 64.259
4.682000	 64.2942
4.700000	 64.3428
4.718000	 64.2419
4.736000	 64.2531
4.754000	 64.2144
4.772000	 64.1399
4.790000	 64.1126
4.808000	 64.2386
4.826000	 64.3357
4.843999	 64.2261
4.862000	 64.1398
4.880000	 64.0177
4.898000	 64.0365
4.916000	 64.047
4.934000	 64.05
4.952000	 63.9868
4.970000	 64.0343
4.988000	 64.0492
5.006000	 64.0545
5.024000	 64.0228
5.042000	 64.046
5.060000	 64.0342
5.077999	 64.0004
5.096000	 64.0286
5.114000	 63.9955
5.132000	 63.952
5.150000	 63.9561
5.168000	 63.9877
5.186000	 64.0525
5.204000	 64.0136
5.222000	 63.9229
5.240000	 63.976
5.258000	 63.991
5.276000	 63.9719
5.294000	 63.9725
5.312000	 64.0231
5.330000	 63.9545
5.348000	 63.8732
5.366000	 63.9748
5.384000	 63.9827
5.402000	 63.9241
5.420000	 63.9029
5.438000	 63.9267
5.456000	 63.8657
5.474000	 63.9137
5.492000	 63.8764
5.510000	 63.8254
5.528000	 63.8533
5.546000	 63.9298
5.564000	 63.8713
5.582000	 63.7959
5.600000	 63.8868
5.618000	 63.9635
5.636000	 63.8976
5.654000	 63.8495
5.672000	 63.8172
5.690000	 63.77
5.708000	 63.651
5.726000	 63.6424
5.744000	 63.6855
5.762000	 63.558
5.780000	 63.556
5.798000	 63.6415
5.816000	 63.7192
5.834000	 63.7316
5.852000	 63.6894
5.870000	 63.6643
5.888000	 63.681
5.906000	 63.7367
5.923999	 63.7599
5.942000	 63.6889
5.960000	 63.702
5.978000	 63.6782
5.996000	 63.6328
6.014000	 63.659
6.032000	 63.6549
6.050000	 63.5788
6.068000	 63.5605
6.086000	 63.5901
6.104000	 63.5469
6.122000	 63.6072
6.140000	 63.5927
6.158000	 63.5333
6.176000	 63.5545
6.194000	 63.5031
6.212000	 63.4032
6.230000	 63.3791
6.248000	 63.4215
6.266000	 63.4945
6.284000	 63.5648
6.302000	 63.5473
6.320000	 63.5472
6.338000	 63.5727
6.356000	 63.5527
6.374000	 63.5715
6.392000	 63.5855
6.410000	 63.5604
6.428000	 63.5457
6.446000	 63.4796
6.464000	 63.4644
6.482000	 63.4956
6.500000	 63.4705
6.518000	 63.4526
6.536000	 63.4174
6.554000	 63.3863
6.572000	 63.4132
6.590000	 63.4743
6.608000	 63.474
6.626000	 63.4509
6.644000	 63.4639
6.662000	 63.4736
6.680000	 63.5177
6.698000	 63.5345
6.716000	 63.4392
6.734000	 63.3383
6.752000	 63.3293
6.770000	 63.3525
6.788000	 63.3646
6.806000	 63.3853
6.824000	 63.3827
6.842000	 63.3822
6.860000	 63.3892
6.878000	 63.3729
6.896000	 63.3648
6.914000	 63.3304
6.932000	 63.275
6.950000	 63.2879
6.968000	 63.3115
6.986000	 63.2651
7.004000	 63.2338
7.022000	 63.2669
7.040000	 63.3285
7.058000	 63.3984
7.076000	 63.4167
7.094000	 63.3653
7.112000	 63.302
7.130000	 63.2514
7.148000	 63.2514
7.166000	 63.3088
7.184000	 63.3143
7.202000	 63.2208
7.220000	 63.1477
7.238000	 63.185
7.256000	 63.2475
7.274000	 63.2422
7.292000	 63.219
7.310000	 63.2487
7.328000	 63.2975
7.346000	 63.3018
7.364000	 63.2687
7.382000	 63.2486
7.400000	 63.2631
7.418000	 63.2924
7.436000	 63.3086
7.454000	 63.2919
7.472000	 63.251
7.490000	 63.235
7.508000	 63.2702
7.526000	 63.3162
7.544000	 63.3198
7.562000	 63.2698
7.580000	 63.2041
7.598000	 63.1847
7.616000	 63.2286
7.634000	 63.2693
7.652000	 63.2363
7.670000	 63.1618
7.688000	 63.1297
7.706000	 63.1439
7.724000	 63.143
7.742000	 63.1177
7.760000	 63.12
7.778000	 63.1671
7.796000	 63.2026
7.814000	 63.1632
7.832000	 63.066
7.850000	 62.9938
7.868000	 62.9945
7.886000	 63.0323
7.904000	 63.0477
7.922000	 63.0326
7.940000	 63.0244
7.958000	 63.0399
7.976000	 63.0467
7.994000	 63.0208
8.012000	 62.9906
8.030000	 62.9851
8.048000	 62.9843
8.065999	 62.9696
8.084000	 62.971
8.102000	 63.0171
8.120000	 63.0835
8.138000	 63.1327
8.155999	 63.1552
8.173999	 63.1611
8.192000	 63.1599
8.210000	 63.1596
8.228000	 63.1652
8.246000	 63.1665
8.263999	 63.1422
8.282000	 63.0888
8.300000	 63.0301
8.318000	 62.9883
8.336000	 62.9573
8.353999	 62.9182
8.372000	 62.8733
8.390000	 62.8532
8.408000	 62.8811
8.426000	 62.9416
8.443999	 62.9934
8.462000	 63.0056
8.480000	 62.9755
8.498000	 62.9184
8.516000	 62.8553
8.533999	 62.8091
8.552000	 62.7931
8.570000	 62.8006
8.588000	 62.8092
8.606000	 62.8003
8.624000	 62.7747
8.641999	 62.7484
8.660000	 62.7359
8.678000	 62.7378
8.696000	 62.7446
8.714000	 62.7525
8.731999	 62.771
8.750000	 62.8075
8.768000	 62.8515
8.786000	 62.8802
8.804000	 62.8777
8.821999	 62.8474
8.840000	 62.812
8.858000	 62.7917
8.876000	 62.7841
8.894000	 62.7762
8.911999	 62.7696
8.930000	 62.7775
8.948000	 62.8068
8.966000	 62.8567
8.984000	 62.9193
9.001999	 62.9758
9.020000	 63.0012
9.038000	 62.9811
9.056000	 62.9263
9.074000	 62.8679
9.092000	 62.8356
9.109999	 62.833
9.128000	 62.8371
9.146000	 62.8242
9.164000	 62.7969
9.182000	 62.7813
9.199999	 62.7991
9.218000	 62.8436
9.236000	 62.8829
9.254000	 62.8852
9.272000	 62.8416
9.289999	 62.771
9.308000	 62.7089
9.326000	 62.6885
9.344000	 62.7228
9.362000	 62.7974
9.379999	 62.8776
9.398000	 62.9265
9.416000	 62.9239
9.434000	 62.8737
9.452000	 62.7963
9.469999	 62.7166
9.488000	 62.6548
9.506000	 62.6219
9.524000	 62.6189
9.542000	 62.6384
9.560000	 62.6674
9.577999	 62.6907
9.596000	 62.697
9.614000	 62.6864
9.632000	 62.6716
9.650000	 62.671
9.667999	 62.6946
9.686000	 62.7373
9.704000	 62.7821
9.722000	 62.8102
9.740000	 62.8106
9.757999	 62.7818
9.776000	 62.7308
9.794000	 62.6686
9.812000	 62.6085
9.830000	 62.5632
9.847999	 62.5412
9.866000	 62.545
9.884000	 62.5703
9.902000	 62.6067
9.920000	 62.6399
9.937999	 62.6587
9.956000	 62.6616
9.974000	 62.6573
9.992000	 62.6574
10.01	62.6678
10.028	62.6852
10.046	62.7013
10.064	62.7112
10.082	62.7178
10.1	62.7298
10.118	62.7563
10.136	62.8006
10.154	62.8582
10.172	62.9171
10.19	62.96
10.208	62.9714
10.226	62.9458
10.244	62.8913
10.262	62.827
10.28	62.7726
10.298	62.7401
10.316	62.7289
10.334	62.7294
10.352	62.7305
10.37	62.7246
10.388	62.7102
10.406	62.69
10.424	62.6691
10.442	62.6524
10.46	62.6434
10.478	62.6426
10.496	62.6478
10.514	62.6551
10.532	62.6601
10.55	62.659
10.568	62.6491
10.586	62.6294
10.604	62.6015
10.622	62.5699
10.64	62.5413
10.658	62.5222
10.676	62.5175
10.694	62.5277
10.712	62.5489
10.73	62.5741
10.748	62.5968
10.766	62.614
10.784	62.6274
10.802	62.6412
10.82	62.6585
10.838	62.679
10.856	62.6989
10.874	62.7132
10.892	62.7198
10.91	62.7198
10.928	62.7171
10.946	62.7152
10.964	62.7153
10.982	62.7161
11	62.7161
11.018	62.7152
11.036	62.7159
11.054	62.7212
11.072	62.7328
11.09	62.7495
11.108	62.7678
11.126	62.7832
11.144	62.7924
11.162	62.7949
11.18	62.793
11.198	62.7903
11.216	62.7902
11.234	62.7939
11.252	62.7996
11.27	62.8033
11.288	62.7996
11.306	62.7843
11.324	62.7553
11.342	62.7139
11.36	62.6641
11.378	62.6117
11.396	62.5622
11.414	62.5205
11.432	62.4914
11.45	62.4782
11.468	62.4833
11.486	62.5069
11.504	62.5452
11.522	62.5914
11.54	62.6376
11.558	62.6752
11.576	62.6988
11.594	62.7068
11.612	62.7019
11.63	62.6889
11.648	62.6737
11.666	62.6618
11.684	62.6568
11.702	62.6601
11.72	62.6716
11.738	62.6889
11.756	62.7085
11.774	62.7253
11.792	62.7339
11.81	62.7295
11.828	62.7092
11.846	62.6715
11.864	62.6174
11.882	62.5498
11.9	62.4735
11.918	62.3948
11.936	62.321
11.954	62.2595
11.972	62.2177
11.99	62.2015
12.008	62.2142
12.026	62.2558
12.044	62.3218
12.062	62.4031
12.08	62.4871
12.098	62.561
12.116	62.6142
12.134	62.6414
12.152	62.6441
12.17	62.6293
12.188	62.6067
12.206	62.5857
12.224	62.5727
12.242	62.5691
12.26	62.5726
12.278	62.5779
12.296	62.5787
12.314	62.57
12.332	62.5502
12.35	62.5205
12.368	62.4863
12.386	62.4546
12.404	62.433
12.422	62.4271
12.44	62.4392
12.458	62.4679
12.476	62.5079
12.494	62.5509
12.512	62.5875
12.53	62.6095
12.548	62.6112
12.566	62.5906
12.584	62.5501
12.602	62.4968
12.62	62.4399
12.638	62.3895
12.656	62.3536
12.674	62.337
12.692	62.3399
12.71	62.3579
12.728	62.3838
12.746	62.4086
12.764	62.4252
12.782	62.4292
12.8	62.4203
12.818	62.402
12.836	62.3797
12.854	62.3598
12.872	62.3468
12.89	62.3431
12.908	62.3479
12.926	62.3577
12.944	62.3681
12.962	62.3744
12.98	62.3733
12.998	62.3634
13.016	62.3458
13.034	62.3231
13.052	62.2992
13.07	62.2781
13.088	62.2628
13.106	62.2553
13.124	62.2558
13.142	62.2633
13.16	62.2749
13.178	62.2869
13.196	62.2957
13.214	62.2984
13.232	62.2932
13.25	62.2801
13.268	62.2606
13.286	62.2376
13.304	62.2145
13.322	62.1942
13.34	62.1789
13.358	62.1691
13.376	62.1644
13.394	62.1631
13.412	62.1632
13.43	62.1633
13.448	62.1627
13.466	62.1614
13.484	62.1602
13.502	62.1604
13.52	62.1627
13.538	62.1674
13.556	62.1741
13.574	62.182
13.592	62.1899
13.61	62.197
13.628	62.2029
13.646	62.2074
13.664	62.2107
13.682	62.2128
13.7	62.2138
13.718	62.2133
13.736	62.2112
13.754	62.2069
13.772	62.2002
13.79	62.1914
13.808	62.181
13.826	62.1703
13.844	62.1604
13.862	62.1523
13.88	62.1464
13.898	62.1426
13.916	62.1401
13.934	62.1377
13.952	62.134
13.97	62.1278
13.988	62.1187
14.006	62.1071
14.024	62.094
14.042	62.0817
14.06	62.0724
14.078	62.0683
14.096	62.0706
14.114	62.0797
14.132	62.0947
14.15	62.1133
14.168	62.1326
14.186	62.1487
14.204	62.158
14.222	62.1574
14.24	62.1451
14.258	62.1211
14.276	62.0867
14.294	62.0447
14.312	61.999
14.33	61.9543
14.348	61.915
14.366	61.8848
14.384	61.8659
14.402	61.8583
14.42	61.8602
14.438	61.8688
14.456	61.8801
14.474	61.8902
14.492	61.8953
14.51	61.8935
14.528	61.8845
14.546	61.8699
14.564	61.8523
14.582	61.8354
14.6	61.8226
14.618	61.817
14.636	61.82
14.654	61.8317
14.672	61.8501
14.69	61.8726
14.708	61.8956
14.726	61.9157
14.744	61.9297
14.762	61.9359
14.78	61.9335
14.798	61.9226
14.816	61.9041
14.834	61.8792
14.852	61.8491
14.87	61.8148
14.888	61.7773
14.906	61.7378
14.924	61.6974
14.942	61.6579
14.96	61.6213
14.978	61.5903
14.996	61.5673
15.014	61.5548
15.032	61.5551
15.05	61.5688
15.068	61.5957
15.086	61.6341
15.104	61.6817
15.122	61.734
15.14	61.7869
15.158	61.8362
15.176	61.8784
15.194	61.9104
15.212	61.9307
15.23	61.939
15.248	61.9357
15.266	61.9219
15.284	61.9
15.302	61.8722
15.32	61.8403
15.338	61.8055
15.356	61.7688
15.374	61.7309
15.392	61.692
15.41	61.6522
15.428	61.6118
15.446	61.5707
15.464	61.5296
15.482	61.4888
15.5	61.4487
15.518	61.4098
15.536	61.372
15.554	61.3354
15.572	61.2998
15.59	61.2644
15.608	61.2284
15.626	61.191
15.644	61.1513
15.662	61.1092
15.68	61.0651
15.698	61.0194
15.716	60.9733
15.734	60.9286
15.752	60.8868
15.77	60.8493
15.788	60.8186
15.806	60.7966
15.824	60.7848
15.842	60.785
15.86	60.7986
15.878	60.8266
15.896	60.8696
15.914	60.9286
15.932	61.0034
15.95	61.0936
15.968	61.198
15.986	61.3139
16.004	61.4382
16.022	61.5674
16.04	61.6959
16.058	61.8189
16.076	61.9322
16.094	62.0291
16.112	62.1059
16.13	62.1603
16.148	62.1901
16.166	62.1973
16.184	62.1845
16.202	62.1556
16.22	62.1186
16.238	62.08
16.256	62.0462
16.274	62.0258
16.292	62.023
16.31	62.0414
16.328	62.0823
16.346	62.1428
16.364	62.2204
16.382	62.3072
16.4	62.3955
16.418	62.4791
16.436	62.5473
16.454	62.5937
16.472	62.6138
16.49	62.6027
16.508	62.5617
16.526	62.4917
16.544	62.3976
16.562	62.2863
16.58	62.1628
16.598	62.0379
16.616	61.9186
16.634	61.8113
16.652	61.7249
16.67	61.6626
16.688	61.6283
16.706	61.6245
16.724	61.651
16.742	61.7076
16.76	61.7915
16.778	61.9006
16.796	62.0308
16.814	62.1765
16.832	62.3345
16.85	62.497
16.868	62.6582
16.886	62.8132
16.904	62.9531
16.922	63.0742
16.94	63.171
16.958	63.2385
16.976	63.2751
16.994	63.2785
17.012	63.2496
17.03	63.1884
17.048	63.0992
17.066	62.9847
17.084	62.8487
17.102	62.6978
17.12	62.5347
17.138	62.3657
17.156	62.1931
17.174	62.0201
17.192	61.8486
17.21	61.6793
17.228	61.513
17.246	61.3488
17.264	61.1861
17.282	61.0242
17.3	60.8629
17.318	60.7016
17.336	60.5424
17.354	60.3858
17.372	60.2364
17.39	60.0964
17.408	59.9718
17.426	59.8672
17.444	59.7857
17.462	59.7342
17.48	59.7136
17.498	59.7278
17.516	59.776
17.534	59.8589
17.552	59.9715
17.57	60.1121
17.588	60.2724
17.606	60.4476
17.624	60.6298
17.642	60.8101
17.66	60.9846
17.678	61.1424
17.696	61.2819
17.714	61.3962
17.732	61.4852
17.75	61.5466
17.768	61.5833
17.786	61.5959
17.804	61.5903
17.822	61.5682
17.84	61.537
17.858	61.4999
17.876	61.4621
17.894	61.4282
17.912	61.4003
17.93	61.3821
17.948	61.374
17.966	61.3773
17.984	61.3911
18.002	61.4148
18.02	61.4465
18.038	61.4852
18.056	61.5284
18.074	61.5756
18.092	61.6239
18.11	61.673
18.128	61.7206
18.146	61.7663
18.164	61.8088
18.182	61.8477
18.2	61.8824
18.218	61.9123
18.236	61.9369
18.254	61.9555
18.272	61.968
18.29	61.9739
18.308	61.9734
18.326	61.9665
18.344	61.9535
18.362	61.9353
18.38	61.9125
18.398	61.886
18.416	61.8572
18.434	61.8277
18.452	61.7989
18.47	61.7718
18.488	61.7474
18.506	61.7263
18.524	61.7085
18.542	61.6942
18.56	61.6818
18.578	61.6712
18.596	61.6603
18.614	61.6488
18.632	61.6348
18.65	61.6182
18.668	61.5978
18.686	61.5739
18.704	61.5464
18.722	61.5159
18.74	61.4838
18.758	61.4511
18.776	61.4203
18.794	61.3921
18.812	61.3695
18.83	61.3528
18.848	61.344
18.866	61.3429
18.884	61.3506
18.902	61.3662
18.92	61.3894
18.938	61.4188
18.956	61.4526
18.974	61.4893
18.992	61.5266
19.01	61.5624
19.028	61.5939
19.046	61.6196
19.064	61.6367
19.082	61.6443
19.1	61.6401
19.118	61.6242
19.136	61.5956
19.154	61.5552
19.172	61.5037
19.19	61.4423
19.208	61.374
19.226	61.2999
19.244	61.2244
19.262	61.1482
19.28	61.0767
19.298	61.01
19.316	60.9534
19.334	60.9066
19.352	60.8735
19.37	60.8538
19.388	60.8489
19.406	60.8589
19.424	60.8825
19.442	60.9199
19.46	60.9679
19.478	61.0268
19.496	61.0923
19.514	61.1637
19.532	61.2375
19.55	61.3119
19.568	61.3847
19.586	61.4529
19.604	61.5161
19.622	61.571
19.64	61.6181
19.658	61.6554
19.676	61.6832
19.694	61.7008
19.712	61.7083
19.73	61.7069
19.748	61.6963
19.766	61.6786
19.784	61.6538
19.802	61.624
19.82	61.5902
19.838	61.5536
19.856	61.5162
19.874	61.4782
19.892	61.4422
19.91	61.408
19.928	61.3781
19.946	61.3524
19.964	61.3323
19.982	61.3181
20	61.3104
20.018	61.3096
20.036	61.3154
20.054	61.3276
20.072	61.3461
20.09	61.3693
20.108	61.3976
20.126	61.4285
20.144	61.4622
20.162	61.4965
20.18	61.5305
20.198	61.5633
20.216	61.5928
20.234	61.6193
20.252	61.6407
20.27	61.6573
20.288	61.6682
20.306	61.6731
20.324	61.6724
20.342	61.666
20.36	61.6543
20.378	61.6384
20.396	61.618
20.414	61.5952
20.432	61.5696
20.45	61.5427
20.468	61.5153
20.486	61.4875
20.504	61.4607
20.522	61.4346
20.54	61.4099
20.558	61.3867
20.576	61.3649
20.594	61.3444
20.612	61.325
20.63	61.3063
20.648	61.2885
20.666	61.2704
20.684	61.2521
20.702	61.233
20.72	61.2126
20.738	61.191
20.756	61.1673
20.774	61.1415
20.792	61.1134
20.81	61.083
20.828	61.0503
20.846	61.0151
20.864	60.9775
20.882	60.9376
20.9	60.8953
20.918	60.8507
20.936	60.8041
20.954	60.7553
20.972	60.7045
20.99	60.6516
21.008	60.5972
21.026	60.5415
21.044	60.4849
21.062	60.4286
21.08	60.3722
21.098	60.3177
21.116	60.2651
21.134	60.2155
21.152	60.1707
21.17	60.1301
21.188	60.0959
21.206	60.0685
21.224	60.0483
21.242	60.0366
21.26	60.0331
21.278	60.0381
21.296	60.052
21.314	60.0741
21.332	60.1038
21.35	60.1414
21.368	60.1844
21.386	60.233
21.404	60.2859
21.422	60.3401
21.44	60.3966
21.458	60.4522
21.476	60.5059
21.494	60.5575
21.512	60.6038
21.53	60.6456
21.548	60.681
21.566	60.7085
21.584	60.7286
21.602	60.74
21.62	60.7425
21.638	60.7364
21.656	60.7214
21.674	60.6975
21.692	60.6663
21.71	60.6278
21.728	60.5825
21.746	60.5329
21.764	60.4781
21.782	60.4207
21.8	60.3626
21.818	60.3031
21.836	60.246
21.854	60.1913
21.872	60.14
21.89	60.0954
21.908	60.0561
21.926	60.0248
21.944	60.003
21.962	59.99
21.98	59.9872
21.998	59.995
22.016	60.0129
22.034	60.0412
22.052	60.0803
22.07	60.1282
22.088	60.184
22.106	60.2482
22.124	60.3168
22.142	60.3897
22.16	60.4661
22.178	60.5406
22.196	60.615
22.214	60.686
22.232	60.749
22.25	60.8063
22.268	60.854
22.286	60.8894
22.304	60.9141
22.322	60.9253
22.34	60.9223
22.358	60.9059
22.376	60.8761
22.394	60.8321
22.412	60.7757
22.43	60.7091
22.448	60.6307
22.466	60.5447
22.484	60.4539
22.502	60.3565
22.52	60.2585
22.538	60.1621
22.556	60.0661
22.574	59.9769
22.592	59.8948
22.61	59.8201
22.628	59.7579
22.646	59.7074
22.664	59.6696
22.682	59.6477
22.7	59.6409
22.718	59.6496
22.736	59.675
22.754	59.7167
22.772	59.774
22.79	59.8465
22.808	59.9347
22.826	60.036
22.844	60.1491
22.862	60.2749
22.88	60.4095
22.898	60.5517
22.916	60.7025
22.934	60.8568
22.952	61.0138
22.97	61.174
22.988	61.332
23.006	61.4875
23.024	61.6407
23.042	61.7863
23.06	61.9245
23.078	62.0551
23.096	62.1736
23.114	62.2802
23.132	62.3748
23.15	62.4543
23.168	62.5186
23.186	62.5681
23.204	62.6015
23.222	62.6185
23.24	62.6198
23.258	62.6061
23.276	62.5767
23.294	62.5326
23.312	62.4758
23.33	62.4054
23.348	62.3227
23.366	62.2312
23.384	62.1298
23.402	62.0198
23.42	61.9062
23.438	61.7884
23.456	61.667
23.474	61.5467
23.492	61.4277
23.51	61.3098
23.528	61.1972
23.546	61.0912
23.564	60.9904
23.582	60.8976
23.6	60.8137
23.618	60.7378
23.636	60.6707
23.654	60.6133
23.672	60.5653
23.69	60.5248
23.708	60.4912
23.726	60.4655
23.744	60.4445
23.762	60.4254
23.78	60.4107
23.798	60.3967
23.816	60.3793
23.834	60.3608
23.852	60.3388
23.87	60.3092
23.888	60.2732
23.906	60.2301
23.924	60.1768
23.942	60.113
23.96	60.0394
23.978	59.955
23.996	59.8588
24.014	59.7514
24.032	59.6346
24.05	59.5091
24.068	59.3735
24.086	59.2316
24.104	59.0864
24.122	58.9353
24.14	58.7816
24.158	58.6296
24.176	58.4777
24.194	58.327
24.212	58.1819
24.23	58.0432
24.248	57.9096
24.266	57.7834
24.284	57.6659
24.302	57.5561
24.32	57.4543
24.338	57.3612
24.356	57.2767
24.374	57.2002
24.392	57.1308
24.41	57.0686
24.428	57.0135
24.446	56.9645
24.464	56.9213
24.482	56.8845
24.5	56.8525
24.518	56.824
24.536	56.7994
24.554	56.779
24.572	56.7631
24.59	56.7508
24.608	56.7429
24.626	56.7413
24.644	56.7462
24.662	56.7565
24.68	56.7756
24.698	56.8067
24.716	56.8469
24.734	56.8987
24.752	56.9661
24.77	57.049
24.788	57.1464
24.806	57.2613
24.824	57.3962
24.842	57.5495
24.86	57.7212
24.878	57.9117
24.896	58.1222
24.914	58.3512
24.932	58.5958
24.95	58.8553
24.968	59.132
24.986	59.4206
25.004	59.7156
25.022	60.0214
25.04	60.3348
25.058	60.6476
25.076	60.9573
25.094	61.269
25.112	61.5737
25.13	61.8624
25.148	62.1398
25.166	62.4041
25.184	62.648
25.202	62.8678
25.22	63.0676
25.238	63.2448
25.256	63.3964
25.274	63.5218
25.292	63.623
25.31	63.7017
25.328	63.758
25.346	63.7897
25.364	63.8022
25.382	63.8013
25.4	63.7832
25.418	63.7492
25.436	63.709
25.454	63.6692
25.472	63.622
25.49	63.5745
25.508	63.5375
25.526	63.5115
25.544	63.4917
25.562	63.4884
25.58	63.5117
25.598	63.5559
25.616	63.6225
25.634	63.7186
25.652	63.8492
25.67	64.0102
25.688	64.2022
25.706	64.427
25.724	64.6872
25.742	64.9811
25.76	65.3028
25.778	65.6472
25.796	66.0219
25.814	66.4207
25.832	66.831
25.85	67.2459
25.868	67.678
25.886	68.1131
25.904	68.534
25.922	68.9394
25.94	69.3393
25.958	69.7149
25.976	70.0475
25.994	70.3449
26.012	70.6084
26.03	70.8221
26.048	70.9723
26.066	71.0684
26.084	71.1084
26.102	71.0836
26.12	70.9877
26.138	70.8246
26.156	70.5967
26.174	70.3056
26.192	69.9485
26.21	69.5232
26.228	69.0416
26.246	68.5158
26.264	67.9404
26.282	67.3121
26.3	66.6511
26.318	65.9767
26.336	65.2772
26.354	64.5535
26.372	63.8269
26.39	63.1164
26.408	62.4057
26.426	61.7008
26.444	61.0222
26.462	60.3865
26.48	59.7783
26.498	59.2037
26.516	58.6771
26.534	58.2089
26.552	57.7877
26.57	57.4186
26.588	57.1102
26.606	56.8687
26.624	56.6884
26.642	56.5696
26.66	56.5137
26.678	56.5221
26.696	56.5944
26.714	56.7283
26.732	56.9211
26.75	57.1726
26.768	57.4856
26.786	57.855
26.804	58.2751
26.822	58.7436
26.84	59.2652
26.858	59.8351
26.876	60.4475
26.894	61.1002
26.912	61.7976
26.93	62.5356
26.948	63.3095
26.966	64.1618
26.984	65.1626
27.002	66.1407
27.02	66.9098
27.028	67.1133