File: Bakgrunnsmateriale/MATLAB/FTIR/ftir_data/subAa/Mapping_121/BZ1503107-1_e125_cm-1.asc
PE IR       SPECTRUM    SPECTRUM    ASCII       PEDS        1.60
  -1
BZ09FB~1.ASC
17/04/07
18:42:25.00
17/04/07
18:42:25.00
tln
$BZ1503107-1_e0125$<ebV0>[-23.3,12.1,10.0,0.0,27,1,0]
370
64

2002,4.07
MIRTGS : RIGHTBACK : INTERNAL 2
MIR : ON : INTERNAL 2
OPTKBR

0.200000
8
8.000000
FILLER
SINGLE
SPECTRUM
UNLOCKED 256

DOUBLE

COMBINED
1
0
0

1.000000
BACKG

1
0
TRUE
51149
0
LEFT NOT FITTED RIGHT NOT FITTED 0
NONE
NONE
15600
12
4.427000
51148
TRUE
1 0 8 72 0 0 0 0

15798

#HDR
-1
-1
#GR
CM-1
EGY
2.38419e-05
0.0
5000
-1.000000
4631
8
2.468705
0.006961
#DATA
5000	0.774884
4996	0.775504
4992	0.778818
4988	0.780439
4984	0.783467
4980	0.788187
4976	0.791931
4972	0.793981
4968	0.795269
4964	0.796270
4960	0.795984
4956	0.796365
4952	0.799536
4948	0.803327
4944	0.805354
4940	0.806355
4936	0.806665
4932	0.806570
4928	0.807642
4924	0.809955
4920	0.812554
4916	0.813269
4912	0.812387
4908	0.813198
4904	0.817012
4900	0.821042
4896	0.821971
4892	0.821542
4888	0.822472
4884	0.824022
4880	0.825881
4876	0.828027
4872	0.830149
4868	0.832986
4864	0.836563
4860	0.839471
4856	0.841546
4852	0.844120
4848	0.847363
4844	0.850057
4840	0.852131
4836	0.853705
4832	0.855565
4828	0.859689
4824	0.863766
4820	0.865745
4816	0.867080
4812	0.869798
4808	0.873827
4804	0.876665
4800	0.879287
4796	0.882220
4792	0.883364
4788	0.884723
4784	0.887846
4780	0.891518
4776	0.893902
4772	0.894165
4768	0.894427
4764	0.896692
4760	0.901007
4756	0.904822
4752	0.905656
4748	0.905466
4744	0.906372
4740	0.908255
4736	0.911068
4732	0.912761
4728	0.911569
4724	0.910067
4720	0.910520
4716	0.912499
4712	0.915718
4708	0.917959
4704	0.917267
4700	0.915980
4696	0.916457
4692	0.918388
4688	0.920534
4684	0.922250
4680	0.923395
4676	0.924110
4672	0.924110
4668	0.923466
4664	0.923371
4660	0.923418
4656	0.924038
4652	0.926566
4648	0.928878
4644	0.929260
4640	0.929260
4636	0.930309
4632	0.931406
4628	0.931787
4624	0.933051
4620	0.935649
4616	0.937461
4612	0.938510
4608	0.941133
4604	0.945425
4600	0.948715
4596	0.949597
4592	0.951147
4588	0.955462
4584	0.958919
4580	0.959992
4576	0.962066
4572	0.966334
4568	0.970315
4564	0.972628
4560	0.975346
4556	0.979661
4552	0.984573
4548	0.987458
4544	0.988531
4540	0.990200
4536	0.992298
4532	0.995659
4528	0.999784
4524	1.001238
4520	1.001453
4516	1.002287
4512	1.003146
4508	1.004147
4504	1.007056
4500	1.008892
4496	1.008081
4492	1.008176
4488	1.008105
4484	1.008272
4480	1.011586
4476	1.015210
4472	1.018452
4468	1.020646
4464	1.021718
4460	1.022028
4456	1.020598
4452	1.019692
4448	1.020288
4444	1.016044
4440	1.008605
4436	0.997662
4432	0.959253
4428	0.966930
4424	1.056742
4420	1.073312
4416	1.003551
4412	0.980019
4408	1.009750
4404	1.044869
4400	1.058459
4396	1.055550
4392	1.056098
4388	1.055741
4384	1.053452
4380	1.053047
4376	1.055908
4372	1.058292
4368	1.057100
4364	1.056313
4360	1.057267
4356	1.060414
4352	1.065039
4348	1.070237
4344	1.075363
4340	1.079225
4336	1.083087
4332	1.089262
4328	1.096343
4324	1.100325
4320	1.102757
4316	1.107764
4312	1.114535
4308	1.120424
4304	1.124811
4300	1.128411
4296	1.132321
4292	1.135849
4288	1.139831
4284	1.146173
4280	1.151585
4276	1.154398
4272	1.157212
4268	1.161646
4264	1.166939
4260	1.170682
4256	1.172757
4252	1.175642
4248	1.179432
4244	1.181912
4240	1.183938
4236	1.187682
4232	1.192021
4228	1.194429
4224	1.194715
4220	1.196169
4216	1.199769
4212	1.202321
4208	1.203227
4204	1.203799
4200	1.205110
4196	1.207780
4192	1.211023
4188	1.213765
4184	1.215219
4180	1.215481
4176	1.217031
4172	1.220083
4168	1.221203
4164	1.222324
4160	1.225280
4156	1.228260
4152	1.231431
4148	1.234531
4144	1.238226
4140	1.242494
4136	1.245212
4132	1.246237
4128	1.247501
4124	1.250123
4120	1.253795
4116	1.257896
4112	1.261639
4108	1.265835
4104	1.270914
4100	1.275420
4096	1.279807
4092	1.285624
4088	1.292252
4084	1.298332
4080	1.304149
4076	1.309871
4072	1.315259
4068	1.321578
4064	1.327347
4060	1.331496
4056	1.336264
4052	1.341342
4048	1.346230
4044	1.352190
4040	1.357889
4036	1.362395
4032	1.367211
4028	1.372623
4024	1.378130
4020	1.383352
4016	1.387262
4012	1.389789
4008	1.392745
4004	1.396751
4000	1.401710
3996	1.407146
3992	1.410746
3988	1.411890
3984	1.413226
3980	1.416087
3976	1.419115
3972	1.420807
3968	1.422357
3964	1.424837
3960	1.427912
3956	1.430892
3952	1.431345
3948	1.429605
3944	1.430678
3940	1.434206
3936	1.436257
3932	1.437616
3928	1.440238
3924	1.442027
3920	1.441287
3916	1.440501
3912	1.441001
3908	1.439881
3904	1.436996
3900	1.437640
3896	1.442027
3892	1.444244
3888	1.444959
3884	1.448798
3880	1.453685
3876	1.454710
3872	1.453185
3868	1.454210
3864	1.459789
3860	1.462101
3856	1.458263
3852	1.463651
3848	1.478099
3844	1.483774
3840	1.482081
3836	1.486039
3832	1.496529
3828	1.504135
3824	1.505351
3820	1.505923
3816	1.510381
3812	1.517343
3808	1.521444
3804	1.522016
3800	1.526021
3796	1.534700
3792	1.542448
3788	1.546883
3784	1.549696
3780	1.553106
3776	1.557922
3772	1.562380
3768	1.566767
3764	1.571965
3760	1.573777
3756	1.569533
3752	1.562404
3748	1.558494
3744	1.561331
3740	1.566386
3736	1.569223
3732	1.572942
3728	1.578569
3724	1.583957
3720	1.586961
3716	1.584959
3712	1.582312
3708	1.584434
3704	1.586437
3700	1.586461
3696	1.585459
3692	1.582074
3688	1.582193
3684	1.586127
3680	1.583933
3676	1.576972
3672	1.575040
3668	1.580882
3664	1.587343
3660	1.588106
3656	1.584529
3652	1.579618
3648	1.580500
3644	1.587367
3640	1.591157
3636	1.590275
3632	1.587343
3628	1.587891
3624	1.592421
3620	1.593589
3616	1.593184
3612	1.594185
3608	1.596784
3604	1.601314
3600	1.604986
3596	1.606655
3592	1.607584
3588	1.609849
3584	1.614236
3580	1.618361
3576	1.620554
3572	1.620507
3568	1.620340
3564	1.623415
3560	1.628327
3556	1.631522
3552	1.632285
3548	1.633405
3544	1.635718
3540	1.636123
3536	1.634740
3532	1.634168
3528	1.635217
3524	1.637291
3520	1.638793
3516	1.639342
3512	1.640033
3508	1.639676
3504	1.637983
3500	1.636886
3496	1.635980
3492	1.634263
3488	1.631975
3484	1.629567
3480	1.627182
3476	1.624274
3472	1.621174
3468	1.618647
3464	1.617527
3460	1.616716
3456	1.613640
3452	1.609039
3448	1.604819
3444	1.601743
3440	1.600813
3436	1.601123
3432	1.600289
3428	1.598882
3424	1.598668
3420	1.599121
3416	1.600146
3412	1.602602
3408	1.605701
3404	1.608419
3400	1.610422
3396	1.611781
3392	1.613783
3388	1.617383
3384	1.620817
3380	1.622176
3376	1.623678
3372	1.628065
3368	1.633501
3364	1.638960
3360	1.644945
3356	1.650691
3352	1.657772
3348	1.664733
3344	1.669812
3340	1.675200
3336	1.681518
3332	1.688075
3328	1.693868
3324	1.699542
3320	1.706552
3316	1.713490
3312	1.718854
3308	1.723694
3304	1.728820
3300	1.734471
3296	1.741099
3292	1.747655
3288	1.753020
3284	1.757812
3280	1.762056
3276	1.766037
3272	1.770353
3268	1.774096
3264	1.777911
3260	1.782369
3256	1.784729
3252	1.786065
3248	1.788568
3244	1.791858
3240	1.794600
3236	1.794791
3232	1.794576
3228	1.796340
3224	1.797914
3220	1.799035
3216	1.800370
3212	1.800870
3208	1.801395
3204	1.802706
3200	1.803588
3196	1.803302
3192	1.803493
3188	1.804804
3184	1.805949
3180	1.807188
3176	1.808667
3172	1.810264
3168	1.812219
3164	1.813888
3160	1.815986
3156	1.819515
3152	1.822614
3148	1.824307
3144	1.827049
3140	1.832818
3136	1.840043
3132	1.845860
3128	1.849913
3124	1.852774
3120	1.856088
3116	1.861572
3112	1.868247
3108	1.875758
3104	1.883792
3100	1.891446
3096	1.899433
3092	1.908183
3088	1.916670
3084	1.923871
3080	1.929855
3076	1.935601
3072	1.940631
3068	1.943993
3064	1.947355
3060	1.952862
3056	1.961278
3052	1.970505
3048	1.977682
3044	1.982879
3040	1.987409
3036	1.991915
3032	1.993322
3028	1.988554
3024	1.979136
3020	1.972460
3016	1.978445
3012	1.997137
3008	2.017474
3004	2.031135
3000	2.038931
2996	2.043199
2992	2.044153
2988	2.043151
2984	2.039718
2980	2.030825
2976	2.016997
2972	1.997852
2968	1.972341
2964	1.949310
2960	1.938557
2956	1.937127
2952	1.935386
2948	1.924633
2944	1.899695
2940	1.863455
2936	1.826381
2932	1.796245
2928	1.777672
2924	1.781558
2920	1.814413
2916	1.864075
2912	1.909160
2908	1.938819
2904	1.957893
2900	1.973128
2896	1.986479
2892	1.998591
2888	2.008700
2884	2.015852
2880	2.018594
2876	2.012920
2872	1.995754
2868	1.965427
2864	1.931118
2860	1.918339
2856	1.939201
2852	1.978969
2848	2.020859
2844	2.056527
2840	2.083373
2836	2.103638
2832	2.120089
2828	2.133274
2824	2.144002
2820	2.153396
2816	2.161812
2812	2.170038
2808	2.178955
2804	2.187776
2800	2.195835
2796	2.203345
2792	2.209734
2788	2.215838
2784	2.223205
2780	2.230834
2776	2.238059
2772	2.244520
2768	2.249050
2764	2.251863
2760	2.254962
2756	2.259159
2752	2.262663
2748	2.265286
2744	2.267003
2740	2.267026
2736	2.267146
2732	2.268266
2728	2.268767
2724	2.267956
2720	2.267146
2716	2.266216
2712	2.264165
2708	2.261471
2704	2.259159
2700	2.257728
2696	2.256464
2692	2.254366
2688	2.250862
2684	2.247214
2680	2.244997
2676	2.243566
2672	2.241468
2668	2.239418
2664	2.237796
2660	2.235269
2656	2.232527
2652	2.230882
2648	2.230405
2644	2.230191
2640	2.229642
2636	2.229857
2632	2.230286
2628	2.229547
2624	2.229261
2620	2.230453
2616	2.232289
2612	2.234339
2608	2.236318
2604	2.237868
2600	2.239251
2596	2.240157
2592	2.241110
2588	2.245736
2584	2.252912
2580	2.258539
2576	2.263665
2572	2.270340
2568	2.277565
2564	2.283549
2560	2.288794
2556	2.294564
2552	2.299833
2548	2.303791
2544	2.307677
2540	2.312207
2536	2.316737
2532	2.320551
2528	2.323985
2524	2.326893
2520	2.329564
2516	2.333164
2512	2.336454
2508	2.337598
2504	2.337241
2500	2.337408
2496	2.338051
2492	2.338123
2488	2.337527
2484	2.336096
2480	2.334094
2476	2.332019
2472	2.329897
2468	2.326750
2464	2.323317
2460	2.319455
2456	2.314758
2452	2.310872
2448	2.306818
2444	2.302861
2440	2.299928
2436	2.295422
2432	2.289652
2428	2.285099
2424	2.281856
2420	2.278232
2416	2.274274
2412	2.271151
2408	2.268934
2404	2.266383
2400	2.263855
2396	2.263331
2392	2.263116
2388	2.261018
2384	2.258443
2380	2.255988
2376	2.252078
2372	2.247190
2368	2.244186
2364	2.244114
2360	2.247095
2356	2.254891
2352	2.265238
2348	2.272081
2344	2.274394
2340	2.275586
2336	2.278280
2332	2.284312
2328	2.294039
2324	2.304124
2320	2.312302
2316	2.320027
2312	2.327513
2308	2.334475
2304	2.341890
2300	2.350449
2296	2.357888
2292	2.362346
2288	2.366232
2284	2.370643
2280	2.373647
2276	2.375626
2272	2.378821
2268	2.382183
2264	2.384257
2260	2.385854
2256	2.387523
2252	2.389216
2248	2.391099
2244	2.392482
2240	2.392935
2236	2.392172
2232	2.389430
2228	2.385711
2224	2.383780
2220	2.383136
2216	2.381086
2212	2.377843
2208	2.374792
2204	2.372598
2200	2.370619
2196	2.367353
2192	2.362990
2188	2.358603
2184	2.355146
2180	2.352905
2176	2.351284
2172	2.349519
2168	2.346706
2164	2.344107
2160	2.343678
2156	2.343368
2152	2.342724
2148	2.343249
2144	2.343440
2140	2.343058
2136	2.342844
2132	2.342271
2128	2.342247
2124	2.344036
2120	2.346563
2116	2.347588
2112	2.347040
2108	2.346849
2104	2.347707
2100	2.348589
2096	2.348089
2092	2.347445
2088	2.348875
2084	2.352261
2080	2.356147
2076	2.360677
2072	2.367401
2068	2.375841
2064	2.384948
2060	2.394151
2056	2.402257
2052	2.410483
2048	2.419304
2044	2.427124
2040	2.433872
2036	2.439618
2032	2.444887
2028	2.449226
2024	2.451777
2020	2.453613
2016	2.456927
2012	2.461242
2008	2.464342
2004	2.466082
2000	2.467823
1996	2.468705
1992	2.467989
1988	2.465987
1984	2.462267
1980	2.457976
1976	2.454805
1972	2.451705
1968	2.447795
1964	2.443289
1960	2.439260
1956	2.435684
1952	2.433037
1948	2.430534
1944	2.426791
1940	2.423238
1936	2.420425
1932	2.417182
1928	2.413034
1924	2.407884
1920	2.402472
1916	2.397942
1912	2.393889
1908	2.389931
1904	2.386307
1900	2.383756
1896	2.381706
1892	2.379059
1888	2.378749
1884	2.381491
1880	2.383446
1876	2.384352
1872	2.384781
1868	2.386736
1864	2.391767
1860	2.396464
1856	2.399373
1852	2.400946
1848	2.401018
1844	2.403855
1840	2.410936
1836	2.416133
1832	2.416968
1828	2.418637
1824	2.424407
1820	2.430129
1816	2.432656
1812	2.435088
1808	2.438449
1804	2.439880
1800	2.438902
1796	2.436113
1792	2.434706
1788	2.437090
1784	2.438354
1780	2.435207
1776	2.427291
1772	2.419686
1768	2.419066
1764	2.419018
1760	2.414178
1756	2.406382
1752	2.395820
1748	2.384018
1744	2.370667
1740	2.353382
1736	2.336406
1732	2.330493
1728	2.333664
1724	2.330803
1720	2.317333
1716	2.307057
1712	2.306365
1708	2.300667
1704	2.282786
1700	2.263641
1696	2.259421
1692	2.263879
1688	2.256250
1684	2.246475
1680	2.246546
1676	2.243161
1672	2.235102
1668	2.228474
1664	2.222228
1660	2.210283
1656	2.187728
1652	2.171182
1648	2.169823
1644	2.170133
1640	2.162241
1636	2.150106
1632	2.141284
1628	2.129220
1624	2.108883
1620	2.080321
1616	2.042937
1612	2.004098
1608	1.979875
1604	1.982235
1600	1.999640
1596	2.015590
1592	2.023959
1588	2.021265
1584	2.011394
1580	1.999592
1576	1.990771
1572	1.987528
1568	1.982140
1564	1.962327
1560	1.938080
1556	1.939225
1552	1.958608
1548	1.965355
1544	1.962518
1540	1.983475
1536	2.036738
1532	2.088189
1528	2.113890
1524	2.118492
1520	2.114748
1516	2.108192
1512	2.094841
1508	2.067279
1504	1.999902
1500	1.857972
1496	1.709103
1492	1.690149
1488	1.795005
1484	1.906180
1480	1.963806
1476	1.978969
1472	1.978445
1468	1.969528
1464	1.942253
1460	1.884841
1456	1.808595
1452	1.764416
1448	1.787257
1444	1.837468
1440	1.863193
1436	1.869225
1432	1.872253
1428	1.871728
1424	1.866412
1420	1.858258
1416	1.847147
1412	1.821064
1408	1.773262
1404	1.733589
1400	1.735877
1396	1.766824
1392	1.790285
1388	1.791596
1384	1.789665
1380	1.801300
1376	1.813530
1372	1.818108
1368	1.820540
1364	1.822495
1360	1.823186
1356	1.822233
1352	1.820158
1348	1.818180
1344	1.817297
1340	1.819729
1336	1.828217
1332	1.839900
1328	1.847815
1324	1.851296
1320	1.854944
1316	1.858711
1312	1.859617
1308	1.858687
1304	1.858139
1300	1.858544
1296	1.859951
1292	1.860117
1288	1.858615
1284	1.856660
1280	1.851439
1276	1.838088
1272	1.809906
1268	1.765465
1264	1.725983
1260	1.724076
1256	1.760125
1252	1.800870
1248	1.825499
1244	1.836156
1240	1.839017
1236	1.837563
1232	1.833057
1228	1.825666
1224	1.815462
1220	1.801991
1216	1.783776
1212	1.764249
1208	1.751351
1204	1.747107
1200	1.746654
1196	1.745343
1192	1.742291
1188	1.735997
1184	1.725339
1180	1.713871
1176	1.702332
1172	1.688075
1168	1.670527
1164	1.650834
1160	1.632189
1156	1.619577
1152	1.612901
1148	1.607084
1144	1.598954
1140	1.588535
1136	1.575779
1132	1.560878
1128	1.542997
1124	1.521921
1120	1.500129
1116	1.479148
1112	1.459383
1108	1.443481
1104	1.434159
1100	1.429748
1096	1.427221
1092	1.426982
1088	1.428818
1084	1.430106
1080	1.429462
1076	1.429414
1072	1.432704
1068	1.436471
1064	1.435995
1060	1.420354
1056	1.370787
1052	1.311826
1048	1.306891
1044	1.349759
1040	1.381516
1036	1.387119
1032	1.380276
1028	1.370811
1024	1.364302
1020	1.363158
1016	1.369023
1012	1.379585
1008	1.388955
1004	1.395535
1000	1.400184
996	 1.401472
992	 1.398086
988	 1.391530
984	 1.383066
980	 1.374268
976	 1.366567
972	 1.357579
968	 1.344680
964	 1.329660
960	 1.314878
956	 1.300716
952	 1.288342
948	 1.277732
944	 1.268005
940	 1.260232
936	 1.253724
932	 1.244807
928	 1.234245
924	 1.225161
920	 1.216411
916	 1.203060
912	 1.186180
908	 1.172184
904	 1.162624
900	 1.156759
896	 1.151919
892	 1.141548
888	 1.119875
884	 1.086449
880	 1.050972
876	 1.030302
872	 1.035737
868	 1.060533
864	 1.084637
860	 1.095151
856	 1.094508
852	 1.089715
848	 1.083445
844	 1.075291
840	 1.060461
836	 1.027369
832	 0.963950
828	 0.885367
824	 0.845408
820	 0.871014
816	 0.919294
812	 0.945901
808	 0.950551
804	 0.947618
800	 0.947213
796	 0.953030
792	 0.962781
788	 0.972723
784	 0.979089
780	 0.979447
776	 0.976729
772	 0.974917
768	 0.973057
764	 0.970196
760	 0.966286
756	 0.961303
752	 0.955915
748	 0.950241
744	 0.943970
740	 0.936293
736	 0.927066
732	 0.916838
728	 0.905799
724	 0.894117
720	 0.881981
716	 0.869107
712	 0.856804
708	 0.846314
704	 0.834250
700	 0.817131
696	 0.793528
692	 0.761485
688	 0.734257
684	 0.727748
680	 0.730323
676	 0.728034
672	 0.722575
668	 0.717186
664	 0.709271
660	 0.697422
656	 0.687241
652	 0.678849
648	 0.668478
644	 0.657987
640	 0.649762
636	 0.640392
632	 0.627303
628	 0.615763
624	 0.606799
620	 0.594282
616	 0.576424
612	 0.554776
608	 0.533723
604	 0.521945
600	 0.521874
596	 0.524687
592	 0.522327
588	 0.516247
584	 0.509977
580	 0.504159
576	 0.499439
572	 0.495600
568	 0.491690
564	 0.486469
560	 0.479865
556	 0.472736
552	 0.465536
548	 0.458455
544	 0.451469
540	 0.444531
536	 0.437426
532	 0.429177
528	 0.419712
524	 0.409269
520	 0.399160
516	 0.390291
512	 0.381493
508	 0.372123
504	 0.361514
500	 0.348734
496	 0.333642
492	 0.318264
488	 0.303816
484	 0.289320
480	 0.275349
476	 0.263428
472	 0.252723
468	 0.241017
464	 0.226879
460	 0.211477
456	 0.196361
452	 0.182199
448	 0.170183
444	 0.160431
440	 0.150132
436	 0.138139
432	 0.125885
428	 0.112509
424	 0.098395
420	 0.086164
416	 0.075340
412	 0.064659
408	 0.055003
404	 0.047039
400	 0.040102
396	 0.033211
392	 0.027084
388	 0.022053
384	 0.017666
380	 0.014209
376	 0.011301
372	 0.008273
370	 0.006961