File: Bakgrunnsmateriale/MATLAB/FTIR/ftir_data/subAa/Mapping_121/BZ1503107-1_t96.asc
PE IR       SPECTRUM    SPECTRUM    ASCII       PEDS        1.60
  -1
BZ316B~1.ASC
17/04/07
21:09:06.00
17/04/07
21:09:32.00
tln
$BZ1503107-1_t0096$<tbV0>[-5.2,7.8,8.0,0.0,27,1,0]
27.028
64

2002,4.07
MIRTGS : RIGHTBACK : INTERNAL 2
MIR : ON : INTERNAL 2
OPTKBR

0.200000
8
8.000000
FILLER
RATIO
SPECTRUM
UNLOCKED 256

DOUBLE
64
COMBINED
1
0
0

0.002000
RATIO

1
0
TRUE
51149
0
LEFT NOT FITTED RIGHT NOT FITTED 0
NONE
NONE
15600
12
4.427000
51148
TRUE
1 0 8 72 0 0 0 0

15798

#HDR
-1
-1
#GR
µM
%T
2.38419e-05
0.0
2.000000
0.002000
12515
8
80.316
42.7022
#DATA
2.000000	 64.4557
2.018000	 66.1768
2.036000	 65.3354
2.054000	 64.8613
2.072000	 64.6463
2.090000	 64.7959
2.108000	 65.1952
2.126000	 64.8549
2.144000	 65.0656
2.162000	 65.0387
2.180000	 64.9388
2.198000	 64.8622
2.216000	 64.638
2.234000	 64.5453
2.252000	 74.3864
2.270000	 64.386
2.288000	 64.7385
2.306000	 64.8971
2.324000	 64.4786
2.342000	 64.6046
2.360000	 64.7253
2.378000	 64.9201
2.396000	 64.8339
2.414000	 64.7861
2.432000	 64.8497
2.450000	 65.177
2.468000	 64.8211
2.486000	 64.8489
2.504000	 65.0319
2.522000	 65.1
2.540000	 64.7848
2.558000	 64.8788
2.576000	 64.9138
2.594000	 65.08
2.612000	 64.8585
2.630000	 64.9352
2.648000	 64.9831
2.666000	 65.0344
2.684000	 64.9963
2.702000	 65.123
2.720000	 65.1809
2.738000	 65.1072
2.756000	 65.0426
2.774000	 64.905
2.792000	 64.8934
2.810000	 64.977
2.828000	 64.9729
2.846000	 64.7883
2.864000	 64.9934
2.882000	 65.0648
2.900000	 64.8132
2.918000	 64.9223
2.936000	 64.9981
2.954000	 64.8791
2.972000	 64.7853
2.990000	 64.9128
3.008000	 64.7444
3.026000	 64.8146
3.044000	 64.9386
3.062000	 64.9505
3.080000	 64.9562
3.098000	 64.706
3.116000	 64.6974
3.134000	 64.9328
3.152000	 64.889
3.170000	 64.8337
3.188000	 64.8734
3.206000	 64.8002
3.224000	 64.7356
3.242000	 64.8208
3.260000	 64.7534
3.278000	 64.8578
3.296000	 64.8813
3.314000	 64.8572
3.332000	 64.8848
3.350000	 64.6071
3.368000	 64.5489
3.386000	 64.6573
3.404000	 64.6673
3.422000	 64.689
3.440000	 64.7482
3.458000	 64.5813
3.476000	 64.5498
3.494000	 64.6407
3.512000	 64.6505
3.530000	 64.5911
3.548000	 64.7356
3.566000	 64.7417
3.584000	 64.7206
3.602000	 64.7658
3.620000	 64.7882
3.638000	 64.6917
3.656000	 64.6967
3.674000	 64.6998
3.692000	 64.62
3.710000	 64.6587
3.728000	 64.5031
3.746000	 64.6347
3.764000	 64.7507
3.782000	 64.8036
3.800000	 64.572
3.818000	 64.6551
3.836000	 64.6401
3.854000	 64.6111
3.872000	 64.729
3.890000	 64.66
3.908000	 64.6026
3.926000	 64.6442
3.944000	 64.6476
3.962000	 64.6712
3.980000	 64.7138
3.998000	 64.5576
4.016000	 64.6378
4.034000	 64.4967
4.052000	 64.568
4.070000	 64.6322
4.088000	 64.5542
4.106000	 64.4745
4.124000	 64.6287
4.141999	 64.4767
4.160000	 64.4146
4.178000	 64.4968
4.196000	 64.4754
4.214000	 64.5064
4.232000	 64.5898
4.250000	 64.5301
4.268000	 64.4495
4.286000	 64.4348
4.304000	 64.5349
4.322000	 64.501
4.340000	 64.3692
4.358000	 64.4855
4.375999	 64.3479
4.394000	 64.4138
4.412000	 64.4834
4.430000	 64.4174
4.448000	 64.3636
4.466000	 64.3859
4.484000	 64.4127
4.502000	 64.4182
4.520000	 64.3594
4.538000	 64.2402
4.556000	 64.3733
4.574000	 64.3405
4.592000	 64.2296
4.609999	 64.2258
4.628000	 64.3037
4.646000	 64.3183
4.664000	 64.3245
4.682000	 64.3452
4.700000	 64.2166
4.718000	 64.2628
4.736000	 64.3058
4.754000	 64.386
4.772000	 64.3128
4.790000	 64.2398
4.808000	 64.2496
4.826000	 64.1916
4.843999	 64.2349
4.862000	 64.2359
4.880000	 64.2186
4.898000	 64.1265
4.916000	 64.2613
4.934000	 64.2008
4.952000	 64.1819
4.970000	 64.1579
4.988000	 64.1862
5.006000	 64.2024
5.024000	 64.2754
5.042000	 64.2026
5.060000	 64.2116
5.077999	 64.1541
5.096000	 64.182
5.114000	 64.1517
5.132000	 64.0678
5.150000	 64.062
5.168000	 64.1068
5.186000	 64.0228
5.204000	 64.0449
5.222000	 64.0413
5.240000	 64.0507
5.258000	 64.1164
5.276000	 64.1331
5.294000	 64.1251
5.312000	 64.0759
5.330000	 64.0893
5.348000	 64.1054
5.366000	 64.0855
5.384000	 64.0587
5.402000	 64.0693
5.420000	 64.0156
5.438000	 64.0626
5.456000	 64.141
5.474000	 64.0925
5.492000	 64.069
5.510000	 63.9853
5.528000	 63.9965
5.546000	 63.9823
5.564000	 63.9865
5.582000	 64.0083
5.600000	 63.9319
5.618000	 63.889
5.636000	 63.9331
5.654000	 63.9576
5.672000	 63.9166
5.690000	 63.856
5.708000	 63.7559
5.726000	 63.7418
5.744000	 63.5744
5.762000	 63.4301
5.780000	 63.509
5.798000	 63.7146
5.816000	 63.7555
5.834000	 63.7331
5.852000	 63.7733
5.870000	 63.7409
5.888000	 63.7376
5.906000	 63.7978
5.923999	 63.7544
5.942000	 63.6977
5.960000	 63.6812
5.978000	 63.6934
5.996000	 63.7457
6.014000	 63.8283
6.032000	 63.8925
6.050000	 63.8784
6.068000	 63.8432
6.086000	 63.7685
6.104000	 63.6539
6.122000	 63.608
6.140000	 63.6848
6.158000	 63.7587
6.176000	 63.8085
6.194000	 63.7483
6.212000	 63.7327
6.230000	 63.7827
6.248000	 63.7598
6.266000	 63.7899
6.284000	 63.8487
6.302000	 63.787
6.320000	 63.6706
6.338000	 63.5866
6.356000	 63.6273
6.374000	 63.7254
6.392000	 63.6573
6.410000	 63.5866
6.428000	 63.6637
6.446000	 63.7016
6.464000	 63.66
6.482000	 63.6243
6.500000	 63.6195
6.518000	 63.6186
6.536000	 63.6463
6.554000	 63.6852
6.572000	 63.6376
6.590000	 63.5916
6.608000	 63.6405
6.626000	 63.6553
6.644000	 63.6072
6.662000	 63.5813
6.680000	 63.6014
6.698000	 63.6174
6.716000	 63.6095
6.734000	 63.5771
6.752000	 63.5235
6.770000	 63.5481
6.788000	 63.6406
6.806000	 63.6839
6.824000	 63.6225
6.842000	 63.5103
6.860000	 63.4546
6.878000	 63.4739
6.896000	 63.5246
6.914000	 63.5221
6.932000	 63.4398
6.950000	 63.4025
6.968000	 63.4694
6.986000	 63.5236
7.004000	 63.5051
7.022000	 63.5045
7.040000	 63.5441
7.058000	 63.535
7.076000	 63.5085
7.094000	 63.5518
7.112000	 63.6133
7.130000	 63.5767
7.148000	 63.417
7.166000	 63.264
7.184000	 63.2447
7.202000	 63.31
7.220000	 63.3531
7.238000	 63.3565
7.256000	 63.3531
7.274000	 63.3421
7.292000	 63.3366
7.310000	 63.3744
7.328000	 63.4191
7.346000	 63.4181
7.364000	 63.3994
7.382000	 63.3966
7.400000	 63.4108
7.418000	 63.4214
7.436000	 63.393
7.454000	 63.3221
7.472000	 63.2617
7.490000	 63.2661
7.508000	 63.3129
7.526000	 63.3282
7.544000	 63.3143
7.562000	 63.3298
7.580000	 63.3689
7.598000	 63.4003
7.616000	 63.4312
7.634000	 63.4385
7.652000	 63.378
7.670000	 63.2866
7.688000	 63.2481
7.706000	 63.2779
7.724000	 63.3123
7.742000	 63.2851
7.760000	 63.1951
7.778000	 63.1149
7.796000	 63.1096
7.814000	 63.1549
7.832000	 63.1795
7.850000	 63.1641
7.868000	 63.1387
7.886000	 63.1217
7.904000	 63.1212
7.922000	 63.1464
7.940000	 63.1778
7.958000	 63.1835
7.976000	 63.1717
7.994000	 63.1693
8.012000	 63.165
8.030000	 63.1368
8.048000	 63.1015
8.065999	 63.0891
8.084000	 63.1037
8.102000	 63.1285
8.120000	 63.1502
8.138000	 63.1662
8.155999	 63.1792
8.173999	 63.1831
8.192000	 63.1656
8.210000	 63.137
8.228000	 63.1346
8.246000	 63.1742
8.263999	 63.214
8.282000	 63.1962
8.300000	 63.121
8.318000	 63.0487
8.336000	 63.0367
8.353999	 63.0831
8.372000	 63.1388
8.390000	 63.1602
8.408000	 63.1377
8.426000	 63.0878
8.443999	 63.036
8.462000	 63.0059
8.480000	 63.0053
8.498000	 63.0217
8.516000	 63.0332
8.533999	 63.0303
8.552000	 63.0195
8.570000	 63.0107
8.588000	 63.0108
8.606000	 63.0286
8.624000	 63.0663
8.641999	 63.1012
8.660000	 63.0983
8.678000	 63.0533
8.696000	 63.0068
8.714000	 63.0013
8.731999	 63.0353
8.750000	 63.0719
8.768000	 63.0838
8.786000	 63.0719
8.804000	 63.0436
8.821999	 63.0011
8.840000	 62.9556
8.858000	 62.9285
8.876000	 62.9243
8.894000	 62.9287
8.911999	 62.9316
8.930000	 62.9361
8.948000	 62.9451
8.966000	 62.9573
8.984000	 62.9702
9.001999	 62.9825
9.020000	 62.9981
9.038000	 63.0233
9.056000	 63.0577
9.074000	 63.0918
9.092000	 63.1129
9.109999	 63.1092
9.128000	 63.0733
9.146000	 63.0102
9.164000	 62.9399
9.182000	 62.8847
9.199999	 62.8537
9.218000	 62.8432
9.236000	 62.8508
9.254000	 62.8839
9.272000	 62.9448
9.289999	 63.0132
9.308000	 63.0523
9.326000	 63.0394
9.344000	 62.9848
9.362000	 62.9223
9.379999	 62.8807
9.398000	 62.8659
9.416000	 62.8672
9.434000	 62.8732
9.452000	 62.8812
9.469999	 62.8944
9.488000	 62.9153
9.506000	 62.9402
9.524000	 62.9626
9.542000	 62.9806
9.560000	 62.9993
9.577999	 63.024
9.596000	 63.0492
9.614000	 63.0579
9.632000	 63.0356
9.650000	 62.9867
9.667999	 62.9353
9.686000	 62.9052
9.704000	 62.8993
9.722000	 62.8981
9.740000	 62.8798
9.757999	 62.84
9.776000	 62.7931
9.794000	 62.7563
9.812000	 62.735
9.830000	 62.7243
9.847999	 62.7229
9.866000	 62.7371
9.884000	 62.7713
9.902000	 62.8183
9.920000	 62.86
9.937999	 62.8807
9.956000	 62.8789
9.974000	 62.865
9.992000	 62.8486
10.01	62.8324
10.028	62.8134
10.046	62.794
10.064	62.7859
10.082	62.8035
10.1	62.8522
10.118	62.921
10.136	62.987
10.154	63.0281
10.172	63.034
10.19	63.0095
10.208	62.9699
10.226	62.9322
10.244	62.9088
10.262	62.9047
10.28	62.9182
10.298	62.9434
10.316	62.9726
10.334	62.9988
10.352	63.0163
10.37	63.0223
10.388	63.0187
10.406	63.011
10.424	63.0049
10.442	63.0028
10.46	63.0031
10.478	63.0004
10.496	62.9886
10.514	62.9638
10.532	62.9264
10.55	62.8834
10.568	62.8466
10.586	62.8291
10.604	62.838
10.622	62.8707
10.64	62.9145
10.658	62.9537
10.676	62.9777
10.694	62.9878
10.712	62.9947
10.73	63.01
10.748	63.0387
10.766	63.0761
10.784	63.1117
10.802	63.1342
10.82	63.1364
10.838	63.1156
10.856	63.0728
10.874	63.0126
10.892	62.943
10.91	62.8758
10.928	62.8245
10.946	62.801
10.964	62.809
10.982	62.843
11	62.8896
11.018	62.9326
11.036	62.9597
11.054	62.9644
11.072	62.9463
11.09	62.9087
11.108	62.8555
11.126	62.7916
11.144	62.7231
11.162	62.6604
11.18	62.6155
11.198	62.5992
11.216	62.6165
11.234	62.6621
11.252	62.7218
11.27	62.7779
11.288	62.8144
11.306	62.8252
11.324	62.8153
11.342	62.7982
11.36	62.7877
11.378	62.791
11.396	62.8047
11.414	62.8172
11.432	62.8161
11.45	62.797
11.468	62.7664
11.486	62.7387
11.504	62.7301
11.522	62.7498
11.54	62.7952
11.558	62.8528
11.576	62.9034
11.594	62.9309
11.612	62.9264
11.63	62.8916
11.648	62.8357
11.666	62.7717
11.684	62.7125
11.702	62.6667
11.72	62.6398
11.738	62.6338
11.756	62.6486
11.774	62.6818
11.792	62.7285
11.81	62.7811
11.828	62.8309
11.846	62.87
11.864	62.8938
11.882	62.9019
11.9	62.8975
11.918	62.8861
11.936	62.8728
11.954	62.8614
11.972	62.8539
11.99	62.8505
12.008	62.8504
12.026	62.8533
12.044	62.8589
12.062	62.8686
12.08	62.8849
12.098	62.9102
12.116	62.9465
12.134	62.9933
12.152	63.0474
12.17	63.1031
12.188	63.1523
12.206	63.1877
12.224	63.2042
12.242	63.2012
12.26	63.1822
12.278	63.1536
12.296	63.1228
12.314	63.0943
12.332	63.0687
12.35	63.0426
12.368	63.0098
12.386	62.9644
12.404	62.9038
12.422	62.8307
12.44	62.7528
12.458	62.6808
12.476	62.6253
12.494	62.5935
12.512	62.5875
12.53	62.6043
12.548	62.6378
12.566	62.6801
12.584	62.7249
12.602	62.7676
12.62	62.8061
12.638	62.8398
12.656	62.8684
12.674	62.8909
12.692	62.905
12.71	62.9081
12.728	62.8976
12.746	62.8722
12.764	62.8328
12.782	62.7829
12.8	62.7275
12.818	62.6732
12.836	62.6263
12.854	62.5918
12.872	62.5727
12.89	62.569
12.908	62.578
12.926	62.5947
12.944	62.6132
12.962	62.6281
12.98	62.6353
12.998	62.6339
13.016	62.6254
13.034	62.6137
13.052	62.6036
13.07	62.5994
13.088	62.6037
13.106	62.6164
13.124	62.6349
13.142	62.6543
13.16	62.6693
13.178	62.6751
13.196	62.669
13.214	62.6507
13.232	62.6224
13.25	62.588
13.268	62.5526
13.286	62.5207
13.304	62.4962
13.322	62.4811
13.34	62.4762
13.358	62.4804
13.376	62.4917
13.394	62.5075
13.412	62.5253
13.43	62.5432
13.448	62.5602
13.466	62.5759
13.484	62.5905
13.502	62.6046
13.52	62.619
13.538	62.6344
13.556	62.6508
13.574	62.6681
13.592	62.6859
13.61	62.7035
13.628	62.7197
13.646	62.7333
13.664	62.7431
13.682	62.7481
13.7	62.7475
13.718	62.7408
13.736	62.7282
13.754	62.7106
13.772	62.6895
13.79	62.6673
13.808	62.6461
13.826	62.6283
13.844	62.6155
13.862	62.6082
13.88	62.6055
13.898	62.6056
13.916	62.6061
13.934	62.6043
13.952	62.5983
13.97	62.5871
13.988	62.5708
14.006	62.5505
14.024	62.5283
14.042	62.5061
14.06	62.485
14.078	62.4656
14.096	62.4481
14.114	62.4316
14.132	62.4154
14.15	62.3994
14.168	62.384
14.186	62.3706
14.204	62.3615
14.222	62.3594
14.24	62.3666
14.258	62.3843
14.276	62.4124
14.294	62.449
14.312	62.4911
14.33	62.534
14.348	62.5731
14.366	62.6041
14.384	62.624
14.402	62.6317
14.42	62.6277
14.438	62.6144
14.456	62.5949
14.474	62.5721
14.492	62.5486
14.51	62.5258
14.528	62.5034
14.546	62.4801
14.564	62.4541
14.582	62.4237
14.6	62.3875
14.618	62.3455
14.636	62.2987
14.654	62.2495
14.672	62.2008
14.69	62.1557
14.708	62.1177
14.726	62.0897
14.744	62.0741
14.762	62.072
14.78	62.0836
14.798	62.108
14.816	62.1434
14.834	62.1874
14.852	62.2364
14.87	62.2872
14.888	62.3367
14.906	62.3822
14.924	62.4217
14.942	62.4537
14.96	62.4775
14.978	62.4933
14.996	62.5014
15.014	62.5022
15.032	62.4964
15.05	62.4845
15.068	62.4669
15.086	62.4439
15.104	62.4159
15.122	62.3835
15.14	62.3477
15.158	62.3098
15.176	62.2715
15.194	62.2349
15.212	62.2025
15.23	62.1763
15.248	62.1576
15.266	62.1474
15.284	62.1456
15.302	62.1513
15.32	62.1629
15.338	62.1787
15.356	62.1963
15.374	62.2135
15.392	62.2292
15.41	62.2424
15.428	62.2526
15.446	62.2603
15.464	62.2661
15.482	62.2706
15.5	62.2748
15.518	62.2794
15.536	62.2843
15.554	62.2895
15.572	62.2943
15.59	62.2976
15.608	62.2983
15.626	62.2955
15.644	62.2883
15.662	62.2763
15.68	62.2597
15.698	62.2393
15.716	62.2163
15.734	62.1926
15.752	62.1698
15.77	62.1494
15.788	62.1333
15.806	62.1223
15.824	62.1171
15.842	62.1181
15.86	62.1248
15.878	62.1366
15.896	62.1525
15.914	62.1713
15.932	62.1919
15.95	62.2134
15.968	62.2349
15.986	62.2557
16.004	62.2752
16.022	62.2929
16.04	62.3083
16.058	62.3207
16.076	62.3298
16.094	62.3347
16.112	62.3349
16.13	62.33
16.148	62.3198
16.166	62.3045
16.184	62.2846
16.202	62.2611
16.22	62.2358
16.238	62.2104
16.256	62.1868
16.274	62.1672
16.292	62.153
16.31	62.1451
16.328	62.1438
16.346	62.1482
16.364	62.1575
16.382	62.1689
16.4	62.1795
16.418	62.1869
16.436	62.1872
16.454	62.1782
16.472	62.1585
16.49	62.127
16.508	62.085
16.526	62.0336
16.544	61.9766
16.562	61.918
16.58	61.861
16.598	61.8112
16.616	61.7713
16.634	61.744
16.652	61.7313
16.67	61.7328
16.688	61.7482
16.706	61.7744
16.724	61.8093
16.742	61.8498
16.76	61.8915
16.778	61.9325
16.796	61.9691
16.814	62
16.832	62.0243
16.85	62.0419
16.868	62.0538
16.886	62.0605
16.904	62.0649
16.922	62.0687
16.94	62.0738
16.958	62.0833
16.976	62.0982
16.994	62.1207
17.012	62.1513
17.03	62.1903
17.048	62.2373
17.066	62.2911
17.084	62.3505
17.102	62.4128
17.12	62.4767
17.138	62.5391
17.156	62.5985
17.174	62.6531
17.192	62.7013
17.21	62.7428
17.228	62.7767
17.246	62.8041
17.264	62.8251
17.282	62.8417
17.3	62.8547
17.318	62.8662
17.336	62.8773
17.354	62.8889
17.372	62.9023
17.39	62.9172
17.408	62.9337
17.426	62.9504
17.444	62.9668
17.462	62.9797
17.48	62.9882
17.498	62.9889
17.516	62.9799
17.534	62.9593
17.552	62.9251
17.57	62.8769
17.588	62.8144
17.606	62.7389
17.624	62.6514
17.642	62.5556
17.66	62.4528
17.678	62.3496
17.696	62.2476
17.714	62.1529
17.732	62.0679
17.75	61.9959
17.768	61.9392
17.786	61.8987
17.804	61.8747
17.822	61.8666
17.84	61.8722
17.858	61.8892
17.876	61.915
17.894	61.9451
17.912	61.9777
17.93	62.0071
17.948	62.0326
17.966	62.0494
17.984	62.0574
18.002	62.0543
18.02	62.0402
18.038	62.0146
18.056	61.9782
18.074	61.9312
18.092	61.8759
18.11	61.8126
18.128	61.7443
18.146	61.6715
18.164	61.5969
18.182	61.5211
18.2	61.4459
18.218	61.3722
18.236	61.3007
18.254	61.2321
18.272	61.1669
18.29	61.1053
18.308	61.0474
18.326	60.9939
18.344	60.9449
18.362	60.9008
18.38	60.8623
18.398	60.8307
18.416	60.8069
18.434	60.7916
18.452	60.7871
18.47	60.7946
18.488	60.8163
18.506	60.8529
18.524	60.9071
18.542	60.9795
18.56	61.0711
18.578	61.1821
18.596	61.3117
18.614	61.4597
18.632	61.6232
18.65	61.8016
18.668	61.9891
18.686	62.1847
18.704	62.3811
18.722	62.5768
18.74	62.7627
18.758	62.9372
18.776	63.0916
18.794	63.2243
18.812	63.3275
18.83	63.4006
18.848	63.4384
18.866	63.4414
18.884	63.4073
18.902	63.3383
18.92	63.2351
18.938	63.1018
18.956	62.9419
18.974	62.7606
18.992	62.5642
19.01	62.3576
19.028	62.1488
19.046	61.9417
19.064	61.7447
19.082	61.5602
19.1	61.3959
19.118	61.2524
19.136	61.1353
19.154	61.0441
19.172	60.9814
19.19	60.946
19.208	60.9371
19.226	60.9534
19.244	60.9916
19.262	61.0506
19.28	61.1247
19.298	61.2133
19.316	61.3091
19.334	61.4123
19.352	61.5149
19.37	61.6175
19.388	61.7123
19.406	61.7996
19.424	61.8734
19.442	61.9338
19.46	61.977
19.478	62.0022
19.496	62.0085
19.514	61.9952
19.532	61.9631
19.55	61.9117
19.568	61.843
19.586	61.7583
19.604	61.6593
19.622	61.5493
19.64	61.429
19.658	61.3038
19.676	61.1734
19.694	61.0442
19.712	60.9156
19.73	60.7932
19.748	60.6769
19.766	60.5707
19.784	60.4756
19.802	60.3929
19.82	60.3242
19.838	60.2693
19.856	60.229
19.874	60.2028
19.892	60.1899
19.91	60.1902
19.928	60.2014
19.946	60.2238
19.964	60.2544
19.982	60.293
20	60.3371
20.018	60.3856
20.036	60.4375
20.054	60.4907
20.072	60.5455
20.09	60.6001
20.108	60.6546
20.126	60.7085
20.144	60.7618
20.162	60.8145
20.18	60.8668
20.198	60.9186
20.216	60.9703
20.234	61.0218
20.252	61.0723
20.27	61.1222
20.288	61.1704
20.306	61.2173
20.324	61.2612
20.342	61.3016
20.36	61.3375
20.378	61.3662
20.396	61.3882
20.414	61.3998
20.432	61.4012
20.45	61.3902
20.468	61.3653
20.486	61.3267
20.504	61.2727
20.522	61.2039
20.54	61.1211
20.558	61.0237
20.576	60.9152
20.594	60.796
20.612	60.6682
20.63	60.5365
20.648	60.3998
20.666	60.266
20.684	60.134
20.702	60.0094
20.72	59.8959
20.738	59.7936
20.756	59.709
20.774	59.6409
20.792	59.5928
20.81	59.5658
20.828	59.5595
20.846	59.575
20.864	59.6117
20.882	59.6671
20.9	59.7424
20.918	59.8332
20.936	59.9375
20.954	60.0548
20.972	60.1785
20.99	60.3102
21.008	60.4434
21.026	60.5762
21.044	60.7075
21.062	60.8308
21.08	60.9479
21.098	61.0541
21.116	61.1482
21.134	61.2302
21.152	61.2976
21.17	61.351
21.188	61.3909
21.206	61.4165
21.224	61.4296
21.242	61.4321
21.26	61.4231
21.278	61.4074
21.296	61.3849
21.314	61.3577
21.332	61.3302
21.35	61.3009
21.368	61.2747
21.386	61.2526
21.404	61.2352
21.422	61.2256
21.44	61.2232
21.458	61.2293
21.476	61.2451
21.494	61.2696
21.512	61.3021
21.53	61.3432
21.548	61.3907
21.566	61.4434
21.584	61.5014
21.602	61.56
21.62	61.6201
21.638	61.6788
21.656	61.7325
21.674	61.7827
21.692	61.8246
21.71	61.8572
21.728	61.8805
21.746	61.8912
21.764	61.8898
21.782	61.8756
21.8	61.8473
21.818	61.8055
21.836	61.751
21.854	61.6829
21.872	61.6029
21.89	61.5129
21.908	61.4119
21.926	61.303
21.944	61.1876
21.962	61.0653
21.98	60.9405
21.998	60.8128
22.016	60.6838
22.034	60.5576
22.052	60.4326
22.07	60.3118
22.088	60.1979
22.106	60.0894
22.124	59.9893
22.142	59.8981
22.16	59.8155
22.178	59.7438
22.196	59.6824
22.214	59.6319
22.232	59.5935
22.25	59.5668
22.268	59.5517
22.286	59.5487
22.304	59.5575
22.322	59.5771
22.34	59.6077
22.358	59.6489
22.376	59.6986
22.394	59.7578
22.412	59.8246
22.43	59.8969
22.448	59.9757
22.466	60.0587
22.484	60.1439
22.502	60.2324
22.52	60.3215
22.538	60.4101
22.556	60.4987
22.574	60.5846
22.592	60.6675
22.61	60.7473
22.628	60.8217
22.646	60.8908
22.664	60.9545
22.682	61.0117
22.7	61.0625
22.718	61.1069
22.736	61.1447
22.754	61.1759
22.772	61.2008
22.79	61.2196
22.808	61.2321
22.826	61.2388
22.844	61.2399
22.862	61.2354
22.88	61.2258
22.898	61.2116
22.916	61.1926
22.934	61.1693
22.952	61.142
22.97	61.1104
22.988	61.075
23.006	61.0359
23.024	60.9929
23.042	60.9466
23.06	60.897
23.078	60.8441
23.096	60.7881
23.114	60.7287
23.132	60.6663
23.15	60.6023
23.168	60.536
23.186	60.4682
23.204	60.4012
23.222	60.3337
23.24	60.2672
23.258	60.2052
23.276	60.1469
23.294	60.0933
23.312	60.0484
23.33	60.0111
23.348	59.9825
23.366	59.9672
23.384	59.9648
23.402	59.9754
23.42	60.0031
23.438	60.0479
23.456	60.1096
23.474	60.1903
23.492	60.291
23.51	60.4106
23.528	60.5492
23.546	60.7075
23.564	60.8849
23.582	61.0784
23.6	61.2877
23.618	61.5135
23.636	61.7498
23.654	61.9947
23.672	62.2506
23.69	62.51
23.708	62.7684
23.726	63.03
23.744	63.2874
23.762	63.5345
23.78	63.7761
23.798	64.0059
23.816	64.2168
23.834	64.4128
23.852	64.5901
23.87	64.7422
23.888	64.8704
23.906	64.9745
23.924	65.0513
23.942	65.1
23.96	65.1218
23.978	65.1174
23.996	65.0861
24.014	65.0281
24.032	64.9466
24.05	64.8431
24.068	64.7156
24.086	64.5685
24.104	64.4056
24.122	64.2239
24.14	64.0271
24.158	63.8205
24.176	63.6022
24.194	63.3735
24.212	63.1398
24.23	62.9015
24.248	62.6574
24.266	62.4119
24.284	62.167
24.302	61.9206
24.32	61.6757
24.338	61.4351
24.356	61.1971
24.374	60.9629
24.392	60.7349
24.41	60.5121
24.428	60.295
24.446	60.0862
24.464	59.8862
24.482	59.6938
24.5	59.5121
24.518	59.3434
24.536	59.185
24.554	59.0401
24.572	58.9129
24.59	58.8018
24.608	58.7074
24.626	58.6339
24.644	58.5828
24.662	58.5518
24.68	58.5444
24.698	58.5639
24.716	58.6084
24.734	58.6787
24.752	58.7769
24.77	58.9039
24.788	59.0584
24.806	59.2397
24.824	59.4478
24.842	59.6845
24.86	59.9453
24.878	60.2251
24.896	60.5276
24.914	60.8503
24.932	61.1849
24.95	61.5279
24.968	61.885
24.986	62.2473
25.004	62.606
25.022	62.967
25.04	63.3266
25.058	63.6741
25.076	64.0054
25.094	64.327
25.112	64.6298
25.13	64.9048
25.148	65.1571
25.166	65.3846
25.184	65.5788
25.202	65.7358
25.22	65.8606
25.238	65.9489
25.256	65.9961
25.274	66.0041
25.292	65.973
25.31	65.8996
25.328	65.7818
25.346	65.6216
25.364	65.4186
25.382	65.1722
25.4	64.8821
25.418	64.5491
25.436	64.1739
25.454	63.7565
25.472	63.2961
25.49	62.7948
25.508	62.2554
25.526	61.6775
25.544	61.0602
25.562	60.4081
25.58	59.7256
25.598	59.0082
25.616	58.2593
25.634	57.4868
25.652	56.6942
25.67	55.874
25.688	55.0366
25.706	54.1941
25.724	53.3436
25.742	52.4818
25.76	51.6243
25.778	50.7856
25.796	49.9535
25.814	49.1344
25.832	48.3452
25.85	47.5965
25.868	46.8738
25.886	46.1895
25.904	45.5598
25.922	44.9876
25.94	44.4636
25.958	43.9995
25.976	43.6073
25.994	43.2836
26.012	43.0261
26.03	42.8407
26.048	42.7331
26.066	42.7025
26.084	42.7453
26.102	42.8586
26.12	43.0418
26.138	43.2996
26.156	43.6236
26.174	44.0042
26.192	44.4411
26.21	44.9419
26.228	45.4906
26.246	46.0707
26.264	46.6853
26.282	47.3404
26.3	48.0185
26.318	48.7028
26.336	49.4028
26.354	50.1182
26.372	50.8322
26.39	51.5291
26.408	52.2184
26.426	52.899
26.444	53.5612
26.462	54.1966
26.48	54.8113
26.498	55.4044
26.516	55.9712
26.534	56.5076
26.552	57.0137
26.57	57.4938
26.588	57.9523
26.606	58.3905
26.624	58.8013
26.642	59.1943
26.66	59.5807
26.678	59.9656
26.696	60.338
26.714	60.7085
26.732	61.0897
26.75	61.4875
26.768	61.8911
26.786	62.3089
26.804	62.751
26.822	63.223
26.84	63.7185
26.858	64.2383
26.876	64.7844
26.894	65.3595
26.912	65.9648
26.93	66.5935
26.948	67.2387
26.966	67.9297
26.984	68.7205
27.002	69.4845
27.02	70.0835
27.028	70.243