File: Bakgrunnsmateriale/MATLAB/FTIR/ftir_data/subAa/Mapping_121/BZ1503107-1_t39.asc
PE IR       SPECTRUM    SPECTRUM    ASCII       PEDS        1.60
  -1
BZ2D67~1.ASC
17/04/07
16:24:22.00
17/04/07
16:24:49.00
tln
$BZ1503107-1_t0039$<tbV0>[0.0,-5.2,8.0,0.0,27,1,0]
27.028
64

2002,4.07
MIRTGS : RIGHTBACK : INTERNAL 2
MIR : ON : INTERNAL 2
OPTKBR

0.200000
8
8.000000
FILLER
RATIO
SPECTRUM
UNLOCKED 256

DOUBLE
64
COMBINED
1
0
0

0.002000
RATIO

1
0
TRUE
51149
0
LEFT NOT FITTED RIGHT NOT FITTED 0
NONE
NONE
15600
12
4.427000
51148
TRUE
1 0 8 72 0 0 0 0

15798

#HDR
-1
-1
#GR
µM
%T
2.38419e-05
0.0
2.000000
0.002000
12515
8
77.5648
36.1422
#DATA
2.000000	 65.7692
2.018000	 64.7399
2.036000	 64.4523
2.054000	 64.5016
2.072000	 64.4994
2.090000	 64.7393
2.108000	 65.0514
2.126000	 65.2533
2.144000	 64.9402
2.162000	 64.5878
2.180000	 65.1408
2.198000	 64.6121
2.216000	 64.7654
2.234000	 64.6958
2.252000	 66.4866
2.270000	 68.0713
2.288000	 64.5935
2.306000	 64.8669
2.324000	 65.0127
2.342000	 64.9069
2.360000	 64.9457
2.378000	 65.0655
2.396000	 64.9639
2.414000	 65.2244
2.432000	 65.2482
2.450000	 64.9602
2.468000	 65.2609
2.486000	 65.3061
2.504000	 65.1615
2.522000	 65.0406
2.540000	 65.0971
2.558000	 65.1233
2.576000	 64.8354
2.594000	 65.1026
2.612000	 64.9662
2.630000	 65.166
2.648000	 65.3861
2.666000	 65.029
2.684000	 65.1277
2.702000	 65.1234
2.720000	 65.1197
2.738000	 65.2356
2.756000	 65.261
2.774000	 65.3316
2.792000	 65.1177
2.810000	 65.0005
2.828000	 65.0668
2.846000	 65.2131
2.864000	 65.187
2.882000	 65.163
2.900000	 65.0331
2.918000	 65.1447
2.936000	 65.2016
2.954000	 65.2202
2.972000	 64.9991
2.990000	 65.0943
3.008000	 65.2798
3.026000	 65.1512
3.044000	 65.0073
3.062000	 65.1915
3.080000	 65.1204
3.098000	 65.1124
3.116000	 65.1349
3.134000	 64.9357
3.152000	 65.1049
3.170000	 65.2142
3.188000	 65.0038
3.206000	 65.0105
3.224000	 65.0666
3.242000	 64.9319
3.260000	 65.0754
3.278000	 65.099
3.296000	 65.0013
3.314000	 65.1873
3.332000	 65.1291
3.350000	 65.0982
3.368000	 64.8575
3.386000	 64.9578
3.404000	 64.801
3.422000	 64.9411
3.440000	 64.9653
3.458000	 64.9965
3.476000	 64.8858
3.494000	 65.0912
3.512000	 64.9677
3.530000	 65.0499
3.548000	 65.0521
3.566000	 65.021
3.584000	 65.1993
3.602000	 65.0067
3.620000	 64.986
3.638000	 64.9512
3.656000	 64.924
3.674000	 64.9658
3.692000	 64.9935
3.710000	 65.0282
3.728000	 65.0715
3.746000	 64.8459
3.764000	 65.0289
3.782000	 64.9214
3.800000	 64.9465
3.818000	 64.8977
3.836000	 64.8858
3.854000	 64.8655
3.872000	 64.995
3.890000	 64.8466
3.908000	 64.9741
3.926000	 64.8157
3.944000	 64.936
3.962000	 64.9011
3.980000	 64.863
3.998000	 65.0247
4.016000	 64.8025
4.034000	 64.8686
4.052000	 64.9266
4.070000	 64.7875
4.088000	 64.783
4.106000	 64.9676
4.124000	 64.976
4.141999	 64.706
4.160000	 65
4.178000	 64.8798
4.196000	 64.8061
4.214000	 64.7317
4.232000	 64.8414
4.250000	 64.8915
4.268000	 64.905
4.286000	 64.8595
4.304000	 64.8833
4.322000	 64.796
4.340000	 64.7848
4.358000	 64.8331
4.375999	 64.8565
4.394000	 64.7486
4.412000	 64.7474
4.430000	 64.7817
4.448000	 64.7804
4.466000	 64.7663
4.484000	 64.8209
4.502000	 64.7502
4.520000	 64.7318
4.538000	 64.8208
4.556000	 64.8958
4.574000	 64.8302
4.592000	 64.7995
4.609999	 64.7952
4.628000	 64.8264
4.646000	 64.7227
4.664000	 64.6769
4.682000	 64.7973
4.700000	 64.7243
4.718000	 64.698
4.736000	 64.6838
4.754000	 64.6877
4.772000	 64.7522
4.790000	 64.745
4.808000	 64.6558
4.826000	 64.6881
4.843999	 64.7117
4.862000	 64.7797
4.880000	 64.7976
4.898000	 64.6814
4.916000	 64.6728
4.934000	 64.6625
4.952000	 64.6025
4.970000	 64.6208
4.988000	 64.7402
5.006000	 64.7323
5.024000	 64.6956
5.042000	 64.6333
5.060000	 64.6342
5.077999	 64.7579
5.096000	 64.6998
5.114000	 64.7012
5.132000	 64.7234
5.150000	 64.745
5.168000	 64.7555
5.186000	 64.6233
5.204000	 64.5556
5.222000	 64.524
5.240000	 64.5563
5.258000	 64.567
5.276000	 64.5282
5.294000	 64.6599
5.312000	 64.6495
5.330000	 64.5632
5.348000	 64.5965
5.366000	 64.5775
5.384000	 64.527
5.402000	 64.624
5.420000	 64.6941
5.438000	 64.6254
5.456000	 64.4886
5.474000	 64.5016
5.492000	 64.5506
5.510000	 64.5393
5.528000	 64.4963
5.546000	 64.5375
5.564000	 64.5609
5.582000	 64.5234
5.600000	 64.4846
5.618000	 64.5467
5.636000	 64.5629
5.654000	 64.4584
5.672000	 64.3318
5.690000	 64.3144
5.708000	 64.3043
5.726000	 64.3051
5.744000	 64.2739
5.762000	 64.1592
5.780000	 64.1557
5.798000	 64.3173
5.816000	 64.4933
5.834000	 64.4309
5.852000	 64.3279
5.870000	 64.3961
5.888000	 64.4618
5.906000	 64.4898
5.923999	 64.4329
5.942000	 64.3579
5.960000	 64.4406
5.978000	 64.4863
5.996000	 64.4531
6.014000	 64.3811
6.032000	 64.2707
6.050000	 64.2799
6.068000	 64.3712
6.086000	 64.327
6.104000	 64.3207
6.122000	 64.3931
6.140000	 64.3719
6.158000	 64.3109
6.176000	 64.2345
6.194000	 64.1817
6.212000	 64.2277
6.230000	 64.2606
6.248000	 64.2443
6.266000	 64.2981
6.284000	 64.3295
6.302000	 64.2248
6.320000	 64.1548
6.338000	 64.1372
6.356000	 64.1478
6.374000	 64.2022
6.392000	 64.2312
6.410000	 64.2483
6.428000	 64.2898
6.446000	 64.2981
6.464000	 64.3127
6.482000	 64.3484
6.500000	 64.3136
6.518000	 64.299
6.536000	 64.2875
6.554000	 64.2363
6.572000	 64.2586
6.590000	 64.3331
6.608000	 64.3641
6.626000	 64.3669
6.644000	 64.364
6.662000	 64.3557
6.680000	 64.3141
6.698000	 64.316
6.716000	 64.3734
6.734000	 64.3571
6.752000	 64.2903
6.770000	 64.2581
6.788000	 64.2562
6.806000	 64.2592
6.824000	 64.2547
6.842000	 64.2407
6.860000	 64.2111
6.878000	 64.1874
6.896000	 64.2295
6.914000	 64.3001
6.932000	 64.3234
6.950000	 64.2947
6.968000	 64.2247
6.986000	 64.1815
7.004000	 64.2215
7.022000	 64.2537
7.040000	 64.2273
7.058000	 64.2106
7.076000	 64.1953
7.094000	 64.1424
7.112000	 64.1008
7.130000	 64.1103
7.148000	 64.143
7.166000	 64.1744
7.184000	 64.1892
7.202000	 64.165
7.220000	 64.1263
7.238000	 64.119
7.256000	 64.1443
7.274000	 64.1874
7.292000	 64.1915
7.310000	 64.0947
7.328000	 63.9884
7.346000	 64.0035
7.364000	 64.0845
7.382000	 64.1141
7.400000	 64.1008
7.418000	 64.1083
7.436000	 64.1463
7.454000	 64.1794
7.472000	 64.1717
7.490000	 64.1263
7.508000	 64.0828
7.526000	 64.07
7.544000	 64.0819
7.562000	 64.0993
7.580000	 64.1079
7.598000	 64.0961
7.616000	 64.0639
7.634000	 64.0395
7.652000	 64.0482
7.670000	 64.0754
7.688000	 64.091
7.706000	 64.0824
7.724000	 64.0573
7.742000	 64.0414
7.760000	 64.0612
7.778000	 64.1014
7.796000	 64.1163
7.814000	 64.0965
7.832000	 64.0667
7.850000	 64.0352
7.868000	 64.0016
7.886000	 63.9789
7.904000	 63.9738
7.922000	 63.9779
7.940000	 63.9981
7.958000	 64.053
7.976000	 64.1251
7.994000	 64.1577
8.012000	 64.1236
8.030000	 64.0656
8.048000	 64.0356
8.065999	 64.0324
8.084000	 64.0243
8.102000	 64.0012
8.120000	 63.967
8.138000	 63.9197
8.155999	 63.8764
8.173999	 63.8754
8.192000	 63.9304
8.210000	 64.0065
8.228000	 64.0452
8.246000	 64.0059
8.263999	 63.8978
8.282000	 63.785
8.300000	 63.7393
8.318000	 63.7747
8.336000	 63.8467
8.353999	 63.91
8.372000	 63.9488
8.390000	 63.9628
8.408000	 63.9599
8.426000	 63.9633
8.443999	 63.9929
8.462000	 64.0315
8.480000	 64.0345
8.498000	 63.9805
8.516000	 63.8991
8.533999	 63.8395
8.552000	 63.8254
8.570000	 63.8507
8.588000	 63.8956
8.606000	 63.9284
8.624000	 63.9221
8.641999	 63.8837
8.660000	 63.8449
8.678000	 63.826
8.696000	 63.8312
8.714000	 63.8549
8.731999	 63.8788
8.750000	 63.8817
8.768000	 63.8636
8.786000	 63.8506
8.804000	 63.8642
8.821999	 63.8949
8.840000	 63.9138
8.858000	 63.9064
8.876000	 63.8838
8.894000	 63.8697
8.911999	 63.8793
8.930000	 63.9041
8.948000	 63.9178
8.966000	 63.8989
8.984000	 63.8511
9.001999	 63.8038
9.020000	 63.7924
9.038000	 63.8284
9.056000	 63.8827
9.074000	 63.9078
9.092000	 63.8808
9.109999	 63.8216
9.128000	 63.7708
9.146000	 63.7551
9.164000	 63.772
9.182000	 63.7986
9.199999	 63.813
9.218000	 63.8115
9.236000	 63.8112
9.254000	 63.8355
9.272000	 63.8922
9.289999	 63.9646
9.308000	 64.025
9.326000	 64.0567
9.344000	 64.0622
9.362000	 64.0518
9.379999	 64.0296
9.398000	 63.9948
9.416000	 63.95
9.434000	 63.9073
9.452000	 63.8784
9.469999	 63.8657
9.488000	 63.8595
9.506000	 63.8459
9.524000	 63.8146
9.542000	 63.7678
9.560000	 63.7208
9.577999	 63.6943
9.596000	 63.7013
9.614000	 63.7395
9.632000	 63.7954
9.650000	 63.8571
9.667999	 63.9229
9.686000	 63.9977
9.704000	 64.0802
9.722000	 64.1555
9.740000	 64.1991
9.757999	 64.1902
9.776000	 64.1243
9.794000	 64.0173
9.812000	 63.8999
9.830000	 63.8044
9.847999	 63.7521
9.866000	 63.7473
9.884000	 63.7782
9.902000	 63.8257
9.920000	 63.8729
9.937999	 63.9103
9.956000	 63.9362
9.974000	 63.9501
9.992000	 63.9509
10.01	63.9369
10.028	63.9101
10.046	63.8778
10.064	63.8504
10.082	63.8365
10.1	63.8393
10.118	63.8571
10.136	63.885
10.154	63.9169
10.172	63.9467
10.19	63.9681
10.208	63.9774
10.226	63.9754
10.244	63.9659
10.262	63.9537
10.28	63.9411
10.298	63.9286
10.316	63.9182
10.334	63.9151
10.352	63.9249
10.37	63.9479
10.388	63.973
10.406	63.9827
10.424	63.9627
10.442	63.9143
10.46	63.8533
10.478	63.8022
10.496	63.7769
10.514	63.779
10.532	63.7981
10.55	63.8196
10.568	63.8329
10.586	63.8373
10.604	63.84
10.622	63.8515
10.64	63.8797
10.658	63.9249
10.676	63.9767
10.694	64.0186
10.712	64.0357
10.73	64.0258
10.748	64.0015
10.766	63.9856
10.784	63.9972
10.802	64.0411
10.82	64.1056
10.838	64.1677
10.856	64.2077
10.874	64.2146
10.892	64.1895
10.91	64.1402
10.928	64.0758
10.946	64.0051
10.964	63.9378
10.982	63.8854
11	63.8576
11.018	63.8578
11.036	63.8798
11.054	63.9095
11.072	63.9323
11.09	63.9402
11.108	63.9361
11.126	63.9295
11.144	63.9277
11.162	63.9303
11.18	63.9298
11.198	63.9177
11.216	63.8914
11.234	63.8583
11.252	63.8327
11.27	63.8277
11.288	63.8504
11.306	63.8971
11.324	63.9542
11.342	64.0042
11.36	64.0332
11.378	64.0349
11.396	64.0131
11.414	63.9801
11.432	63.9525
11.45	63.9443
11.468	63.9638
11.486	64.009
11.504	64.0691
11.522	64.1273
11.54	64.1683
11.558	64.1817
11.576	64.1653
11.594	64.1234
11.612	64.0654
11.63	64.0016
11.648	63.9402
11.666	63.887
11.684	63.8451
11.702	63.8154
11.72	63.7978
11.738	63.7918
11.756	63.7964
11.774	63.8088
11.792	63.8251
11.81	63.8404
11.828	63.8498
11.846	63.849
11.864	63.8365
11.882	63.8139
11.9	63.7861
11.918	63.7608
11.936	63.7457
11.954	63.7476
11.972	63.7695
11.99	63.8097
12.008	63.8624
12.026	63.9187
12.044	63.9682
12.062	64.0008
12.08	64.0088
12.098	63.9897
12.116	63.9454
12.134	63.8834
12.152	63.8146
12.17	63.7506
12.188	63.7011
12.206	63.6719
12.224	63.6645
12.242	63.6768
12.26	63.7051
12.278	63.7448
12.296	63.7913
12.314	63.8395
12.332	63.8839
12.35	63.9185
12.368	63.9374
12.386	63.9362
12.404	63.9143
12.422	63.8761
12.44	63.8308
12.458	63.7906
12.476	63.7679
12.494	63.7712
12.512	63.8021
12.53	63.8547
12.548	63.9164
12.566	63.9722
12.584	64.0075
12.602	64.0138
12.62	63.9901
12.638	63.9439
12.656	63.8879
12.674	63.8369
12.692	63.8022
12.71	63.7892
12.728	63.7957
12.746	63.8132
12.764	63.8306
12.782	63.8385
12.8	63.8323
12.818	63.8132
12.836	63.7879
12.854	63.765
12.872	63.7519
12.89	63.7519
12.908	63.7627
12.926	63.7776
12.944	63.7877
12.962	63.7849
12.98	63.7654
12.998	63.7305
13.016	63.6865
13.034	63.6424
13.052	63.607
13.07	63.5866
13.088	63.5835
13.106	63.5956
13.124	63.6177
13.142	63.6427
13.16	63.6632
13.178	63.6734
13.196	63.6695
13.214	63.6512
13.232	63.6206
13.25	63.5822
13.268	63.5414
13.286	63.5031
13.304	63.4713
13.322	63.4477
13.34	63.4324
13.358	63.4243
13.376	63.4221
13.394	63.4247
13.412	63.4317
13.43	63.4433
13.448	63.4602
13.466	63.4825
13.484	63.5099
13.502	63.5409
13.52	63.5735
13.538	63.6054
13.556	63.6347
13.574	63.6607
13.592	63.6839
13.61	63.7059
13.628	63.7285
13.646	63.7528
13.664	63.7787
13.682	63.8042
13.7	63.8264
13.718	63.8422
13.736	63.849
13.754	63.8458
13.772	63.8328
13.79	63.8117
13.808	63.7846
13.826	63.7541
13.844	63.7224
13.862	63.6902
13.88	63.6575
13.898	63.624
13.916	63.5899
13.934	63.5558
13.952	63.5232
13.97	63.4941
13.988	63.4711
14.006	63.4558
14.024	63.4492
14.042	63.4506
14.06	63.4575
14.078	63.467
14.096	63.4759
14.114	63.4814
14.132	63.4817
14.15	63.4754
14.168	63.4621
14.186	63.4419
14.204	63.4142
14.222	63.3795
14.24	63.3384
14.258	63.2932
14.276	63.2471
14.294	63.2051
14.312	63.1738
14.33	63.1603
14.348	63.1717
14.366	63.2133
14.384	63.2873
14.402	63.3916
14.42	63.5195
14.438	63.6609
14.456	63.8029
14.474	63.932
14.492	64.0354
14.51	64.1031
14.528	64.1304
14.546	64.1185
14.564	64.0728
14.582	64.0028
14.6	63.9203
14.618	63.8381
14.636	63.7679
14.654	63.7168
14.672	63.6887
14.69	63.6833
14.708	63.6972
14.726	63.7245
14.744	63.757
14.762	63.7876
14.78	63.8105
14.798	63.8223
14.816	63.8214
14.834	63.8091
14.852	63.7884
14.87	63.7637
14.888	63.7384
14.906	63.7155
14.924	63.6969
14.942	63.6836
14.96	63.6741
14.978	63.6666
14.996	63.6586
15.014	63.6471
15.032	63.6298
15.05	63.6046
15.068	63.5706
15.086	63.5276
15.104	63.4758
15.122	63.4166
15.14	63.3535
15.158	63.2907
15.176	63.2331
15.194	63.1866
15.212	63.1564
15.23	63.1458
15.248	63.1559
15.266	63.1861
15.284	63.2323
15.302	63.2877
15.32	63.3448
15.338	63.3957
15.356	63.4326
15.374	63.4493
15.392	63.4444
15.41	63.4186
15.428	63.3753
15.446	63.3232
15.464	63.271
15.482	63.2273
15.5	63.2017
15.518	63.2023
15.536	63.2324
15.554	63.2932
15.572	63.3836
15.59	63.4971
15.608	63.6268
15.626	63.7654
15.644	63.9031
15.662	64.031
15.68	64.1421
15.698	64.2303
15.716	64.2897
15.734	64.3168
15.752	64.3105
15.77	64.2702
15.788	64.1984
15.806	64.0993
15.824	63.9778
15.842	63.8417
15.86	63.7012
15.878	63.5647
15.896	63.4401
15.914	63.3368
15.932	63.2599
15.95	63.2123
15.968	63.1961
15.986	63.2082
16.004	63.2446
16.022	63.3005
16.04	63.3668
16.058	63.4369
16.076	63.505
16.094	63.5644
16.112	63.6121
16.13	63.6467
16.148	63.6675
16.166	63.6768
16.184	63.6765
16.202	63.6692
16.22	63.6583
16.238	63.6451
16.256	63.6307
16.274	63.6157
16.292	63.5995
16.31	63.582
16.328	63.5623
16.346	63.5409
16.364	63.5181
16.382	63.4954
16.4	63.4756
16.418	63.4605
16.436	63.4542
16.454	63.4591
16.472	63.4771
16.49	63.5108
16.508	63.5606
16.526	63.6265
16.544	63.707
16.562	63.7993
16.58	63.901
16.598	64.0066
16.616	64.1119
16.634	64.2132
16.652	64.3043
16.67	64.3828
16.688	64.4454
16.706	64.4896
16.724	64.5154
16.742	64.5221
16.76	64.5119
16.778	64.4864
16.796	64.4485
16.814	64.4023
16.832	64.35
16.85	64.296
16.868	64.2429
16.886	64.1929
16.904	64.1482
16.922	64.1091
16.94	64.0764
16.958	64.0488
16.976	64.0255
16.994	64.0046
17.012	63.9843
17.03	63.9635
17.048	63.9402
17.066	63.9142
17.084	63.8848
17.102	63.8532
17.12	63.8197
17.138	63.7865
17.156	63.7549
17.174	63.7263
17.192	63.703
17.21	63.6856
17.228	63.6754
17.246	63.6725
17.264	63.6774
17.282	63.6892
17.3	63.7074
17.318	63.7307
17.336	63.7577
17.354	63.7872
17.372	63.8168
17.39	63.8458
17.408	63.872
17.426	63.8938
17.444	63.9101
17.462	63.919
17.48	63.9199
17.498	63.9116
17.516	63.8943
17.534	63.8678
17.552	63.8325
17.57	63.7888
17.588	63.7385
17.606	63.6827
17.624	63.6234
17.642	63.5633
17.66	63.504
17.678	63.449
17.696	63.3995
17.714	63.3588
17.732	63.3278
17.75	63.308
17.768	63.3003
17.786	63.305
17.804	63.3218
17.822	63.3502
17.84	63.389
17.858	63.437
17.876	63.4926
17.894	63.5538
17.912	63.6198
17.93	63.6881
17.948	63.7582
17.966	63.8279
17.984	63.8966
18.002	63.9627
18.02	64.0251
18.038	64.083
18.056	64.135
18.074	64.1807
18.092	64.2186
18.11	64.2487
18.128	64.2698
18.146	64.2818
18.164	64.2844
18.182	64.2776
18.2	64.2614
18.218	64.2363
18.236	64.2025
18.254	64.1609
18.272	64.1116
18.29	64.0561
18.308	63.9946
18.326	63.9285
18.344	63.8582
18.362	63.7855
18.38	63.711
18.398	63.6363
18.416	63.5624
18.434	63.4908
18.452	63.4229
18.47	63.3597
18.488	63.3028
18.506	63.253
18.524	63.2116
18.542	63.1791
18.56	63.1564
18.578	63.1436
18.596	63.141
18.614	63.1484
18.632	63.1647
18.65	63.1897
18.668	63.2215
18.686	63.26
18.704	63.3025
18.722	63.3487
18.74	63.3964
18.758	63.4452
18.776	63.493
18.794	63.5398
18.812	63.5843
18.83	63.6265
18.848	63.6657
18.866	63.7019
18.884	63.735
18.902	63.7651
18.92	63.7921
18.938	63.8161
18.956	63.8369
18.974	63.8542
18.992	63.8678
19.01	63.8772
19.028	63.882
19.046	63.8818
19.064	63.8758
19.082	63.8641
19.1	63.8462
19.118	63.8222
19.136	63.7919
19.154	63.7557
19.172	63.714
19.19	63.6674
19.208	63.6168
19.226	63.5627
19.244	63.5066
19.262	63.4489
19.28	63.3917
19.298	63.335
19.316	63.2811
19.334	63.2299
19.352	63.1836
19.37	63.1422
19.388	63.1075
19.406	63.0796
19.424	63.0599
19.442	63.0485
19.46	63.0462
19.478	63.053
19.496	63.0691
19.514	63.0946
19.532	63.1289
19.55	63.172
19.568	63.2229
19.586	63.2807
19.604	63.3446
19.622	63.4126
19.64	63.4843
19.658	63.5564
19.676	63.6292
19.694	63.6984
19.712	63.7644
19.73	63.8235
19.748	63.8756
19.766	63.9183
19.784	63.9509
19.802	63.9728
19.82	63.9829
19.838	63.9818
19.856	63.9692
19.874	63.9459
19.892	63.9134
19.91	63.8719
19.928	63.8248
19.946	63.7716
19.964	63.7167
19.982	63.6599
20	63.6043
20.018	63.5514
20.036	63.5021
20.054	63.4593
20.072	63.4225
20.09	63.3939
20.108	63.3731
20.126	63.3606
20.144	63.3567
20.162	63.3602
20.18	63.3712
20.198	63.3884
20.216	63.4105
20.234	63.4372
20.252	63.4659
20.27	63.4971
20.288	63.5281
20.306	63.5588
20.324	63.5881
20.342	63.615
20.36	63.6397
20.378	63.6615
20.396	63.6804
20.414	63.697
20.432	63.7111
20.45	63.7238
20.468	63.7356
20.486	63.747
20.504	63.7592
20.522	63.7719
20.54	63.7865
20.558	63.8029
20.576	63.821
20.594	63.841
20.612	63.8623
20.63	63.8844
20.648	63.9074
20.666	63.9288
20.684	63.9491
20.702	63.9661
20.72	63.9785
20.738	63.9862
20.756	63.9861
20.774	63.9788
20.792	63.9626
20.81	63.9369
20.828	63.9018
20.846	63.8565
20.864	63.8012
20.882	63.7372
20.9	63.6639
20.918	63.5834
20.936	63.4966
20.954	63.404
20.972	63.309
20.99	63.2108
21.008	63.1126
21.026	63.0156
21.044	62.9202
21.062	62.8296
21.08	62.7429
21.098	62.6621
21.116	62.588
21.134	62.5203
21.152	62.4598
21.17	62.4065
21.188	62.3598
21.206	62.32
21.224	62.2865
21.242	62.2585
21.26	62.2363
21.278	62.2185
21.296	62.205
21.314	62.1954
21.332	62.1887
21.35	62.1851
21.368	62.1841
21.386	62.1853
21.404	62.1889
21.422	62.1947
21.44	62.2028
21.458	62.213
21.476	62.2252
21.494	62.2394
21.512	62.2557
21.53	62.274
21.548	62.294
21.566	62.3155
21.584	62.3386
21.602	62.3627
21.62	62.3882
21.638	62.4144
21.656	62.4406
21.674	62.4671
21.692	62.4932
21.71	62.5188
21.728	62.5438
21.746	62.568
21.764	62.5912
21.782	62.6138
21.8	62.6355
21.818	62.6565
21.836	62.6774
21.854	62.6979
21.872	62.7185
21.89	62.7398
21.908	62.7614
21.926	62.7841
21.944	62.8081
21.962	62.8333
21.98	62.86
21.998	62.8883
22.016	62.918
22.034	62.9488
22.052	62.9812
22.07	63.0143
22.088	63.0477
22.106	63.0816
22.124	63.1147
22.142	63.1467
22.16	63.1776
22.178	63.206
22.196	63.2321
22.214	63.2556
22.232	63.2758
22.25	63.2929
22.268	63.3068
22.286	63.3171
22.304	63.324
22.322	63.3276
22.34	63.3278
22.358	63.3248
22.376	63.3192
22.394	63.3108
22.412	63.3002
22.43	63.288
22.448	63.2741
22.466	63.2586
22.484	63.2417
22.502	63.2236
22.52	63.2035
22.538	63.1815
22.556	63.1575
22.574	63.1306
22.592	63.1007
22.61	63.0677
22.628	63.0303
22.646	62.9888
22.664	62.9428
22.682	62.8915
22.7	62.835
22.718	62.7732
22.736	62.7061
22.754	62.6333
22.772	62.5559
22.79	62.4743
22.808	62.388
22.826	62.299
22.844	62.2081
22.862	62.1146
22.88	62.0215
22.898	61.9299
22.916	61.8389
22.934	61.752
22.952	61.67
22.97	61.5921
22.988	61.5207
23.006	61.456
23.024	61.3978
23.042	61.3468
23.06	61.3035
23.078	61.2673
23.096	61.2381
23.114	61.2162
23.132	61.2011
23.15	61.1915
23.168	61.1881
23.186	61.19
23.204	61.1943
23.222	61.2015
23.24	61.211
23.258	61.2207
23.276	61.2306
23.294	61.2408
23.312	61.2497
23.33	61.257
23.348	61.2634
23.366	61.269
23.384	61.2735
23.402	61.2774
23.42	61.2826
23.438	61.2883
23.456	61.2952
23.474	61.3062
23.492	61.3213
23.51	61.3403
23.528	61.3656
23.546	61.3976
23.564	61.4358
23.582	61.4823
23.6	61.538
23.618	61.6021
23.636	61.6756
23.654	61.7593
23.672	61.8527
23.69	61.9553
23.708	62.0672
23.726	62.1888
23.744	62.3181
23.762	62.4535
23.78	62.5962
23.798	62.7443
23.816	62.8951
23.834	63.0502
23.852	63.2079
23.87	63.3655
23.888	63.5241
23.906	63.6828
23.924	63.8381
23.942	63.9907
23.96	64.1404
23.978	64.2842
23.996	64.4209
24.014	64.5517
24.032	64.6749
24.05	64.7893
24.068	64.8959
24.086	64.9938
24.104	65.0823
24.122	65.1618
24.14	65.2323
24.158	65.2934
24.176	65.3455
24.194	65.3884
24.212	65.4216
24.23	65.445
24.248	65.4589
24.266	65.4633
24.284	65.4586
24.302	65.445
24.32	65.4215
24.338	65.3874
24.356	65.3434
24.374	65.2889
24.392	65.223
24.41	65.1465
24.428	65.0589
24.446	64.9577
24.464	64.8425
24.482	64.7145
24.5	64.5711
24.518	64.4103
24.536	64.2341
24.554	64.0406
24.572	63.8277
24.59	63.5955
24.608	63.3446
24.626	63.0735
24.644	62.7812
24.662	62.4682
24.68	62.1363
24.698	61.7867
24.716	61.4177
24.734	61.0316
24.752	60.6319
24.77	60.2166
24.788	59.7861
24.806	59.3488
24.824	58.9092
24.842	58.4601
24.86	58.012
24.878	57.5773
24.896	57.1496
24.914	56.7316
24.932	56.3381
24.95	55.9762
24.968	55.637
24.986	55.3302
25.004	55.0667
25.022	54.8407
25.04	54.6544
25.058	54.5169
25.076	54.4324
25.094	54.3954
25.112	54.4107
25.13	54.4836
25.148	54.6135
25.166	54.7984
25.184	55.037
25.202	55.3308
25.22	55.6813
25.238	56.0802
25.256	56.5193
25.274	57.0051
25.292	57.5332
25.31	58.0913
25.328	58.6733
25.346	59.2887
25.364	59.9252
25.382	60.5686
25.4	61.223
25.418	61.8894
25.436	62.5554
25.454	63.2116
25.472	63.8667
25.49	64.5149
25.508	65.1475
25.526	65.762
25.544	66.3628
25.562	66.9467
25.58	67.5109
25.598	68.0552
25.616	68.5814
25.634	69.0906
25.652	69.5833
25.67	70.0577
25.688	70.5171
25.706	70.9649
25.724	71.4014
25.742	71.8251
25.76	72.2388
25.778	72.6451
25.796	73.0438
25.814	73.4339
25.832	73.8152
25.85	74.1881
25.868	74.5548
25.886	74.9111
25.904	75.2523
25.922	75.5789
25.94	75.8937
25.958	76.1897
25.976	76.4596
25.994	76.7081
26.012	76.9345
26.03	77.1302
26.048	77.2878
26.066	77.4134
26.084	77.5046
26.102	77.5557
26.12	77.5626
26.138	77.5298
26.156	77.4553
26.174	77.3364
26.192	77.1697
26.21	76.9562
26.228	76.7019
26.246	76.4132
26.264	76.0883
26.282	75.7253
26.3	75.3323
26.318	74.9171
26.336	74.4733
26.354	74.0026
26.372	73.517
26.39	73.0276
26.408	72.5288
26.426	72.0204
26.444	71.5074
26.462	70.9942
26.48	70.4779
26.498	69.9588
26.516	69.4386
26.534	68.9202
26.552	68.408
26.57	67.8932
26.588	67.365
26.606	66.8194
26.624	66.2706
26.642	65.7022
26.66	65.0942
26.678	64.4381
26.696	63.7541
26.714	63.0225
26.732	62.2196
26.75	61.3354
26.768	60.3903
26.786	59.3678
26.804	58.2481
26.822	57.0205
26.84	55.6993
26.858	54.28
26.876	52.7568
26.894	51.1231
26.912	49.3796
26.93	47.5373
26.948	45.6075
26.966	43.4842
26.984	40.9937
27.002	38.5609
27.02	36.6484
27.028	36.1422