File: Bakgrunnsmateriale/MATLAB/FTIR/ftir_data/subAa/Mapping_121/BZ1503107-1_t64_cm-1.asc
PE IR       SPECTRUM    SPECTRUM    ASCII       PEDS        1.60
  -1
BZ6C21~1.ASC
17/04/07
18:27:27.00
17/04/07
18:27:27.00
tln
$BZ1503107-1_t0064$<tbV0>[-7.8,0.0,8.0,0.0,27,1,0]
370
64

2002,4.07
MIRTGS : RIGHTBACK : INTERNAL 2
MIR : ON : INTERNAL 2
OPTKBR

0.200000
8
8.000000
FILLER
RATIO
SPECTRUM
UNLOCKED 256

DOUBLE
64
COMBINED
1
0
0

1.000000
RATIO

1
0
TRUE
51149
0
LEFT NOT FITTED RIGHT NOT FITTED 0
NONE
NONE
15600
12
4.427000
51148
TRUE
1 0 8 72 0 0 0 0

15798

#HDR
-1
-1
#GR
CM-1
%T
2.38419e-05
0.0
5000
-1.000000
4631
8
70.6243
47.5368
#DATA
5000	65.0026
4996	65.2257
4992	65.1851
4988	65.1685
4984	65.2569
4980	65.2625
4976	65.086
4972	64.7326
4968	64.6985
4964	64.7962
4960	64.6539
4956	64.3641
4952	64.2547
4948	64.3857
4944	64.3968
4940	64.7644
4936	65.4076
4932	65.498
4928	65.1409
4924	64.7589
4920	64.5779
4916	64.8699
4912	65.1634
4908	64.963
4904	64.777
4900	64.8148
4896	64.9809
4892	65.0144
4888	64.8117
4884	64.7758
4880	64.8761
4876	64.8724
4872	64.8279
4868	64.6704
4864	64.4589
4860	64.597
4856	64.8128
4852	64.8939
4848	65.0922
4844	65.101
4840	64.8334
4836	64.7045
4832	64.8199
4828	64.8352
4824	64.5316
4820	64.2597
4816	64.2009
4812	64.2132
4808	64.2788
4804	64.3329
4800	64.4809
4796	64.8165
4792	65.0097
4788	64.9143
4784	64.9157
4780	65.157
4776	65.2796
4772	65.118
4768	64.8649
4764	64.7389
4760	64.8074
4756	64.9551
4752	64.8687
4748	64.6914
4744	64.9043
4740	65.1819
4736	65.0964
4732	64.9311
4728	64.8214
4724	64.6845
4720	64.6421
4716	64.658
4712	64.6701
4708	64.6971
4704	64.7024
4700	64.7916
4696	64.9969
4692	65.2233
4688	65.2876
4684	65.1844
4680	65.1449
4676	65.0009
4672	64.7723
4668	64.7473
4664	64.7845
4660	64.9108
4656	65.0991
4652	64.9845
4648	64.7615
4644	64.7703
4640	64.8258
4636	64.7456
4632	64.8336
4628	65.0888
4624	64.9667
4620	64.6177
4616	64.4591
4612	64.494
4608	64.6789
4604	64.8973
4600	65.0016
4596	64.9506
4592	64.913
4588	65.0089
4584	65.0743
4580	65.0648
4576	65.1369
4572	65.1291
4568	65.0304
4564	65.0648
4560	65.1684
4556	65.3077
4552	65.4032
4548	65.2819
4544	65.0677
4540	64.9202
4536	64.8441
4532	64.8882
4528	64.9691
4524	65.055
4520	65.2209
4516	65.2755
4512	65.1929
4508	65.2014
4504	65.4112
4500	65.7357
4496	65.7296
4492	65.2189
4488	64.749
4484	64.777
4480	65.0339
4476	65.2104
4472	65.1707
4468	65.1057
4464	65.005
4460	64.5677
4456	64.5586
4452	65.2996
4448	65.4573
4444	65.5361
4440	65.0205
4436	59.9105
4432	55.7603
4428	61.8106
4424	69.7454
4420	69.3538
4416	65.4011
4412	65.0634
4408	65.7914
4404	65.939
4400	65.8647
4396	65.3226
4392	64.8097
4388	64.6769
4384	64.7494
4380	64.9024
4376	65.2236
4372	65.3464
4368	65.261
4364	65.3891
4360	65.5812
4356	65.4498
4352	64.9598
4348	64.6618
4344	64.7825
4340	64.91
4336	65.0242
4332	65.191
4328	65.2521
4324	65.1496
4320	64.9983
4316	64.9696
4312	64.9595
4308	64.9088
4304	64.8974
4300	64.857
4296	64.708
4292	64.579
4288	64.6798
4284	64.9065
4280	65.0029
4276	65.0331
4272	65.0918
4268	65.0911
4264	65.0687
4260	65.0474
4256	64.9093
4252	64.7642
4248	64.7776
4244	64.7943
4240	64.8238
4236	65.0528
4232	65.2608
4228	65.1723
4224	65.0056
4220	64.9568
4216	64.8196
4212	64.7325
4208	64.838
4204	64.808
4200	64.7012
4196	64.7839
4192	65.0077
4188	65.2531
4184	65.364
4180	65.2811
4176	65.1661
4172	64.9308
4168	64.5761
4164	64.4953
4160	64.6631
4156	64.8021
4152	64.8155
4148	64.7654
4144	64.7939
4140	64.8378
4136	64.8244
4132	64.82
4128	64.8082
4124	64.8806
4120	65.0311
4116	65.0848
4112	65.1543
4108	65.1573
4104	65.069
4100	65.127
4096	65.1574
4092	65.0283
4088	64.9121
4084	64.9457
4080	65.0357
4076	64.996
4072	64.9069
4068	64.9378
4064	65.0235
4060	65.0395
4056	64.9775
4052	64.9007
4048	64.8614
4044	64.8821
4040	65.0184
4036	65.1576
4032	65.1363
4028	65.1213
4024	65.1983
4020	65.1786
4016	65.0176
4012	64.8522
4008	64.8275
4004	64.9631
4000	65.1553
3996	65.2671
3992	65.2784
3988	65.2889
3984	65.2786
3980	65.2507
3976	65.2799
3972	65.2124
3968	65.0566
3964	65.0275
3960	65.0499
3956	64.9858
3952	64.8869
3948	64.8767
3944	64.9108
3940	64.9345
3936	65.0339
3932	65.0755
3928	65.0068
3924	65.0534
3920	65.124
3916	64.9893
3912	64.831
3908	64.8729
3904	65.0487
3900	65.1727
3896	65.1746
3892	65.2295
3888	65.2452
3884	65.0696
3880	65.0282
3876	65.0973
3872	65.067
3868	65.0891
3864	65.1447
3860	65.1006
3856	65.0942
3852	65.237
3848	65.2473
3844	65.1086
3840	65.1745
3836	65.2594
3832	65.0674
3828	64.7841
3824	64.6745
3820	64.8715
3816	65.0473
3812	64.8753
3808	64.6934
3804	64.7449
3800	64.8668
3796	64.81
3792	64.6628
3788	64.8094
3784	65.1312
3780	65.2067
3776	65.092
3772	65.0638
3768	65.1329
3764	65.2273
3760	65.283
3756	65.2436
3752	65.1794
3748	65.163
3744	65.1497
3740	65.0897
3736	65.0297
3732	65.0071
3728	65.0167
3724	65.0704
3720	65.1454
3716	65.1866
3712	65.1838
3708	65.1447
3704	65.057
3700	64.9706
3696	65.0078
3692	65.0502
3688	65.0089
3684	65.0331
3680	65.0887
3676	65.0855
3672	65.0218
3668	64.9803
3664	65.0726
3660	65.1914
3656	65.1689
3652	65.1138
3648	65.1459
3644	65.1938
3640	65.2611
3636	65.3064
3632	65.2483
3628	65.1962
3624	65.2066
3620	65.2001
3616	65.2071
3612	65.2176
3608	65.2074
3604	65.2432
3600	65.2115
3596	65.0988
3592	65.0886
3588	65.1273
3584	65.0849
3580	65.0456
3576	65.1306
3572	65.2876
3568	65.3488
3564	65.2863
3560	65.1982
3556	65.1158
3552	65.072
3548	65.0413
3544	64.9873
3540	64.9942
3536	65.0169
3532	64.9802
3528	64.9303
3524	64.9086
3520	65.0006
3516	65.1876
3512	65.2527
3508	65.1776
3504	65.161
3500	65.2139
3496	65.2305
3492	65.2114
3488	65.2058
3484	65.2169
3480	65.2024
3476	65.1222
3472	65.008
3468	64.969
3464	64.9701
3460	64.957
3456	65.0072
3452	65.0915
3448	65.1119
3444	65.0417
3440	64.9238
3436	64.8107
3432	64.7013
3428	64.725
3424	64.9056
3420	64.9755
3416	64.9514
3412	65.051
3408	65.1697
3404	65.0966
3400	64.9432
3396	64.8751
3392	64.8363
3388	64.8428
3384	64.9292
3380	65.0342
3376	65.158
3372	65.2842
3368	65.2865
3364	65.1751
3360	65.0101
3356	64.8121
3352	64.8051
3348	64.9656
3344	64.9909
3340	64.9552
3336	65.0172
3332	65.1229
3328	65.1764
3324	65.08
3320	64.9301
3316	64.8835
3312	64.9501
3308	65.0421
3304	65.0668
3300	65.0435
3296	64.998
3292	64.9759
3288	65.0429
3284	65.1274
3280	65.1357
3276	65.0269
3272	64.8705
3268	64.8239
3264	64.8548
3260	64.862
3256	64.9012
3252	64.9874
3248	65.0408
3244	65.035
3240	64.9848
3236	64.9289
3232	64.9234
3228	64.9944
3224	65.0532
3220	65.0342
3216	65.0055
3212	64.9878
3208	65.0069
3204	65.0502
3200	64.9803
3196	64.8966
3192	65.0018
3188	65.091
3184	64.9982
3180	64.9246
3176	64.9525
3172	65.0134
3168	65.0873
3164	65.134
3160	65.0794
3156	64.9675
3152	64.8926
3148	64.8907
3144	64.9548
3140	64.9856
3136	64.9862
3132	65.0107
3128	65.0223
3124	65.03
3120	65.0024
3116	64.9299
3112	64.9418
3108	65.0071
3104	65.0342
3100	65.115
3096	65.1252
3092	64.9895
3088	64.9578
3084	64.9972
3080	64.9472
3076	64.8773
3072	64.8539
3068	64.8501
3064	64.8797
3060	64.976
3056	65.0241
3052	64.9781
3048	64.9385
3044	64.9256
3040	64.9442
3036	64.9795
3032	64.9821
3028	64.9775
3024	64.992
3020	65.0054
3016	65.0465
3012	65.0908
3008	65.075
3004	65.0526
3000	65.0403
2996	65.0128
2992	64.9953
2988	65.0291
2984	65.0673
2980	65.0239
2976	64.9391
2972	64.8676
2968	64.8384
2964	64.8085
2960	64.7464
2956	64.752
2952	64.8429
2948	64.9041
2944	64.8122
2940	64.6606
2936	64.6585
2932	64.7765
2928	64.8811
2924	64.9167
2920	64.9295
2916	64.9413
2912	64.907
2908	64.8763
2904	64.8977
2900	64.9091
2896	64.9195
2892	64.9603
2888	64.9989
2884	64.9917
2880	64.9611
2876	64.915
2872	64.8361
2868	64.8602
2864	64.973
2860	64.9902
2856	64.9278
2852	64.9389
2848	65.0266
2844	65.0517
2840	64.9939
2836	64.8917
2832	64.8177
2828	64.8507
2824	64.9012
2820	64.891
2816	64.8129
2812	64.7335
2808	64.7844
2804	64.9063
2800	64.9543
2796	64.9349
2792	64.9181
2788	64.9243
2784	64.895
2780	64.7952
2776	64.7416
2772	64.7844
2768	64.8359
2764	64.8578
2760	64.8631
2756	64.8654
2752	64.8824
2748	64.9093
2744	64.919
2740	64.9396
2736	64.9779
2732	64.9642
2728	64.8906
2724	64.8102
2720	64.7897
2716	64.8585
2712	64.9219
2708	64.935
2704	64.9398
2700	64.9284
2696	64.9179
2692	64.9111
2688	64.8584
2684	64.8228
2680	64.8618
2676	64.8998
2672	64.9213
2668	64.953
2664	64.985
2660	64.9864
2656	64.9161
2652	64.8314
2648	64.8399
2644	64.8826
2640	64.8715
2636	64.8754
2632	64.8864
2628	64.8566
2624	64.8254
2620	64.8205
2616	64.8734
2612	64.9347
2608	64.936
2604	64.8835
2600	64.8334
2596	64.8776
2592	64.9238
2588	64.887
2584	64.8615
2580	64.8566
2576	64.8307
2572	64.8238
2568	64.8261
2564	64.784
2560	64.7346
2556	64.7631
2552	64.8336
2548	64.8586
2544	64.8596
2540	64.8362
2536	64.7932
2532	64.8023
2528	64.8733
2524	64.8949
2520	64.8321
2516	64.8446
2512	64.8732
2508	64.7737
2504	64.6781
2500	64.7
2496	64.7771
2492	64.8437
2488	64.9233
2484	64.9512
2480	64.8166
2476	64.6627
2472	64.6418
2468	64.6806
2464	64.7168
2460	64.7588
2456	64.7743
2452	64.747
2448	64.7649
2444	64.8099
2440	64.8289
2436	64.8902
2432	64.9474
2428	64.9713
2424	64.9757
2420	64.9235
2416	64.8406
2412	64.7591
2408	64.6843
2404	64.626
2400	64.6421
2396	64.7144
2392	64.7885
2388	64.8678
2384	64.8695
2380	64.7591
2376	64.6635
2372	64.6698
2368	64.6989
2364	64.7047
2360	64.7116
2356	64.7127
2352	64.76
2348	64.8154
2344	64.8058
2340	64.8015
2336	64.7793
2332	64.7063
2328	64.7222
2324	64.7762
2320	64.6796
2316	64.5603
2312	64.5845
2308	64.6575
2304	64.7283
2300	64.7885
2296	64.7674
2292	64.6997
2288	64.6575
2284	64.6345
2280	64.6073
2276	64.5969
2272	64.6329
2268	64.7046
2264	64.7437
2260	64.7079
2256	64.695
2252	64.7023
2248	64.6609
2244	64.6484
2240	64.6742
2236	64.6941
2232	64.7122
2228	64.7143
2224	64.7098
2220	64.6918
2216	64.659
2212	64.6546
2208	64.7033
2204	64.7705
2200	64.776
2196	64.7412
2192	64.7137
2188	64.6763
2184	64.6388
2180	64.6563
2176	64.7025
2172	64.6826
2168	64.6341
2164	64.609
2160	64.6093
2156	64.6547
2152	64.7123
2148	64.7571
2144	64.7956
2140	64.7871
2136	64.7042
2132	64.6262
2128	64.6056
2124	64.5541
2120	64.4767
2116	64.4947
2112	64.5847
2108	64.6492
2104	64.6415
2100	64.6101
2096	64.6223
2092	64.623
2088	64.5696
2084	64.5383
2080	64.5456
2076	64.4947
2072	64.4142
2068	64.3997
2064	64.466
2060	64.5758
2056	64.6437
2052	64.6569
2048	64.6323
2044	64.5768
2040	64.5535
2036	64.5487
2032	64.5541
2028	64.5864
2024	64.5917
2020	64.5876
2016	64.5995
2012	64.6118
2008	64.6019
2004	64.5785
2000	64.5775
1996	64.5695
1992	64.5491
1988	64.5478
1984	64.5392
1980	64.5494
1976	64.6003
1972	64.5835
1968	64.4949
1964	64.4356
1960	64.4052
1956	64.3873
1952	64.4138
1948	64.447
1944	64.4552
1940	64.4715
1936	64.5017
1932	64.5082
1928	64.4646
1924	64.4186
1920	64.3792
1916	64.3267
1912	64.2957
1908	64.3254
1904	64.3766
1900	64.3605
1896	64.3414
1892	64.362
1888	64.3431
1884	64.3329
1880	64.3757
1876	64.4082
1872	64.4395
1868	64.4733
1864	64.4434
1860	64.4413
1856	64.5453
1852	64.5891
1848	64.5085
1844	64.43
1840	64.4022
1836	64.4059
1832	64.4264
1828	64.4228
1824	64.3674
1820	64.3035
1816	64.3146
1812	64.3796
1808	64.3849
1804	64.3187
1800	64.2914
1796	64.3518
1792	64.3788
1788	64.3455
1784	64.3792
1780	64.4392
1776	64.4401
1772	64.4039
1768	64.3668
1764	64.3501
1760	64.3088
1756	64.2342
1752	64.1756
1748	64.1426
1744	64.1098
1740	64.065
1736	64.0255
1732	64.0377
1728	64.1089
1724	64.1398
1720	64.1372
1716	64.1808
1712	64.2251
1708	64.2328
1704	64.1767
1700	64.0796
1696	64.0666
1692	64.1451
1688	64.1603
1684	64.0812
1680	64.0635
1676	64.1055
1672	64.108
1668	64.1076
1664	64.1088
1660	64.0967
1656	64.1125
1652	64.1545
1648	64.2108
1644	64.2501
1640	64.1992
1636	64.1054
1632	64.1022
1628	64.1449
1624	64.1094
1620	64.0748
1616	64.1355
1612	64.153
1608	64.1002
1604	64.1156
1600	64.1474
1596	64.125
1592	64.0681
1588	64.03
1584	64.059
1580	64.075
1576	64.0448
1572	64.0335
1568	64.0152
1564	63.9593
1560	63.9395
1556	63.98
1552	64.0042
1548	63.9661
1544	63.9468
1540	64.0129
1536	64.036
1532	63.9996
1528	64.0362
1524	64.1382
1520	64.2386
1516	64.28
1512	64.2267
1508	64.153
1504	64.1203
1500	64.0769
1496	64.0461
1492	64.077
1488	64.106
1484	64.12
1480	64.1575
1476	64.1949
1472	64.1939
1468	64.1405
1464	64.0688
1460	64.0581
1456	64.061
1452	64.0167
1448	63.9806
1444	64.0086
1440	64.0542
1436	64.0544
1432	64.0649
1428	64.1001
1424	64.1402
1420	64.1615
1416	64.0895
1412	64.0033
1408	63.9828
1404	64.005
1400	64.0604
1396	64.0664
1392	64.0466
1388	64.0486
1384	64.0105
1380	63.9538
1376	63.9258
1372	63.942
1368	63.9415
1364	63.9273
1360	63.981
1356	63.984
1352	63.8933
1348	63.8506
1344	63.8811
1340	63.9021
1336	63.8753
1332	63.8533
1328	63.8696
1324	63.8954
1320	63.9102
1316	63.8944
1312	63.8355
1308	63.8061
1304	63.8781
1300	63.9563
1296	63.9512
1292	63.9127
1288	63.9099
1284	63.9264
1280	63.8918
1276	63.8625
1272	63.8875
1268	63.8971
1264	63.8882
1260	63.8551
1256	63.7977
1252	63.8089
1248	63.852
1244	63.8512
1240	63.8168
1236	63.7815
1232	63.7816
1228	63.7882
1224	63.7756
1220	63.763
1216	63.7502
1212	63.7368
1208	63.7359
1204	63.7626
1200	63.7469
1196	63.683
1192	63.6687
1188	63.7063
1184	63.749
1180	63.7502
1176	63.7226
1172	63.6913
1168	63.5967
1164	63.5168
1160	63.558
1156	63.6584
1152	63.6936
1148	63.6559
1144	63.5816
1140	63.5287
1136	63.5792
1132	63.6526
1128	63.5911
1124	63.4913
1120	63.4603
1116	63.499
1112	63.5935
1108	63.6654
1104	63.7218
1100	63.7454
1096	63.6716
1092	63.5391
1088	63.444
1084	63.4903
1080	63.6109
1076	63.6398
1072	63.5699
1068	63.5581
1064	63.6608
1060	63.6953
1056	63.619
1052	63.6106
1048	63.713
1044	63.8158
1040	63.8038
1036	63.6521
1032	63.5146
1028	63.486
1024	63.5136
1020	63.538
1016	63.4978
1012	63.4823
1008	63.6015
1004	63.7173
1000	63.758
996	 63.788
992	 63.7542
988	 63.6595
984	 63.6309
980	 63.7114
976	 63.7517
972	 63.6946
968	 63.6336
964	 63.6075
960	 63.6087
956	 63.6152
952	 63.6812
948	 63.6908
944	 63.5541
940	 63.5264
936	 63.6023
932	 63.5647
928	 63.538
924	 63.6616
920	 63.8504
916	 63.9001
912	 63.7941
908	 63.7302
904	 63.687
900	 63.6125
896	 63.5687
892	 63.5647
888	 63.6468
884	 63.7525
880	 63.7409
876	 63.7392
872	 63.8015
868	 63.8346
864	 63.8602
860	 63.8894
856	 63.8528
852	 63.7361
848	 63.6879
844	 63.6997
840	 63.7141
836	 63.7917
832	 63.8598
828	 63.8546
824	 63.7239
820	 63.5522
816	 63.5004
812	 63.4862
808	 63.4631
804	 63.4387
800	 63.4197
796	 63.4241
792	 63.4686
788	 63.5131
784	 63.5118
780	 63.4927
776	 63.4851
772	 63.4411
768	 63.2913
764	 63.1548
760	 63.1248
756	 63.1147
752	 63.075
748	 63.0063
744	 63.0094
740	 63.0838
736	 63.0897
732	 63.0721
728	 63.0358
724	 63.0172
720	 63.0996
716	 63.2139
712	 63.3054
708	 63.22
704	 62.9691
700	 62.9275
696	 63.1031
692	 63.3277
688	 63.4931
684	 63.3418
680	 63.1857
676	 63.1895
672	 63.0419
668	 62.8085
664	 62.7286
660	 63.0184
656	 63.2606
652	 63.4252
648	 63.8419
644	 63.5217
640	 62.9157
636	 63.0138
632	 62.8561
628	 62.504
624	 62.9103
620	 63.7559
616	 63.9179
612	 63.1282
608	 62.3647
604	 61.926
600	 61.1664
596	 60.8557
592	 61.688
588	 62.5636
584	 63.0452
580	 63.1618
576	 62.9329
572	 62.7315
568	 62.7044
564	 62.4734
560	 62.2114
556	 62.6918
552	 63.2625
548	 63.196
544	 62.7851
540	 62.2212
536	 61.9089
532	 62.3101
528	 63.1617
524	 63.7292
520	 63.7773
516	 63.4982
512	 62.9768
508	 62.599
504	 62.6887
500	 62.9397
496	 62.9905
492	 62.732
488	 62.5995
484	 62.9699
480	 63.1639
476	 62.9005
472	 62.6288
468	 62.5579
464	 62.5708
460	 62.3739
456	 62.2823
452	 62.7937
448	 64.201
444	 65.4417
440	 64.8793
436	 63.3649
432	 62.6555
428	 63.1899
424	 64.1461
420	 63.9916
416	 63.6604
412	 65.2217
408	 66.4087
404	 65.8626
400	 67.209
396	 68.0673
392	 63.6285
388	 59.0243
384	 57.5952
380	 59.7885
376	 62.2337
372	 53.1693
370	 47.5368