File: Bakgrunnsmateriale/MATLAB/FTIR/ftir_data/subAa/Mapping_121/BZ1503107-1_t47_cm-1.asc
PE IR       SPECTRUM    SPECTRUM    ASCII       PEDS        1.60
  -1
BZ6F24~1.ASC
17/04/07
17:08:17.00
17/04/07
17:08:17.00
tln
$BZ1503107-1_t0047$<tbV0>[7.8,-2.6,8.0,0.0,27,1,0]
370
64

2002,4.07
MIRTGS : RIGHTBACK : INTERNAL 2
MIR : ON : INTERNAL 2
OPTKBR

0.200000
8
8.000000
FILLER
RATIO
SPECTRUM
UNLOCKED 256

DOUBLE
64
COMBINED
1
0
0

1.000000
RATIO

1
0
TRUE
51149
0
LEFT NOT FITTED RIGHT NOT FITTED 0
NONE
NONE
15600
12
4.427000
51148
TRUE
1 0 8 72 0 0 0 0

15798

#HDR
-1
-1
#GR
CM-1
%T
2.38419e-05
0.0
5000
-1.000000
4631
8
70.2221
43.1186
#DATA
5000	65.954
4996	66.866
4992	66.8529
4988	65.9083
4984	65.9103
4980	66.028
4976	65.528
4972	65.2392
4968	65.3748
4964	65.3894
4960	65.0745
4956	64.8717
4952	64.9285
4948	64.9131
4944	64.8216
4940	65.1702
4936	65.5566
4932	65.2261
4928	64.5824
4924	64.2855
4920	64.5472
4916	65.0708
4912	65.2848
4908	65.1216
4904	64.9011
4900	64.6862
4896	64.5209
4892	64.5708
4888	64.7219
4884	64.719
4880	64.6302
4876	64.6148
4872	64.5915
4868	64.558
4864	64.4302
4860	64.2341
4856	64.2591
4852	64.4593
4848	64.6857
4844	64.9101
4840	65.0128
4836	64.972
4832	65.0221
4828	65.1779
4824	65.115
4820	64.8783
4816	64.8026
4812	64.862
4808	64.7531
4804	64.5663
4800	64.5837
4796	64.6375
4792	64.7048
4788	64.8816
4784	65.0586
4780	65.2631
4776	65.4477
4772	65.3357
4768	64.9588
4764	64.6665
4760	64.6454
4756	64.8307
4752	64.8991
4748	64.8449
4744	65.0058
4740	65.1946
4736	65.0851
4732	64.9708
4728	65.0179
4724	64.9153
4720	64.6735
4716	64.5869
4712	64.6461
4708	64.8083
4704	65.0012
4700	65.0589
4696	65.0866
4692	65.1052
4688	65.0191
4684	64.9654
4680	65.0526
4676	65.1335
4672	65.1339
4668	65.1285
4664	65.0439
4660	64.9852
4656	65.059
4652	65.0994
4648	65.1659
4644	65.2143
4640	65.1669
4636	65.1675
4632	65.2513
4628	65.2149
4624	64.8333
4620	64.5088
4616	64.6144
4612	64.7819
4608	64.8302
4604	64.9412
4600	65.0674
4596	65.0908
4592	65.0515
4588	65.1118
4584	65.2061
4580	65.18
4576	65.0327
4572	64.7935
4568	64.7467
4564	64.9429
4560	65.2163
4556	65.5632
4552	65.6456
4548	65.4232
4544	65.3275
4540	65.1651
4536	64.8617
4532	64.944
4528	65.2788
4524	65.3959
4520	65.3298
4516	65.3357
4512	65.3442
4508	65.1811
4504	64.994
4500	65.06
4496	65.0407
4492	64.7764
4488	64.6408
4484	64.7378
4480	64.8066
4476	64.5852
4472	64.1463
4468	64.1765
4464	64.5227
4460	64.5371
4456	64.4376
4452	64.0908
4448	63.4381
4444	63.8491
4440	66.7994
4436	69.4154
4432	70.2221
4428	69.3002
4424	66.7983
4420	64.4514
4416	63.6609
4412	65.1309
4408	66.3079
4404	65.8434
4400	65.5295
4396	65.7501
4392	65.4927
4388	64.8255
4384	64.5842
4380	64.7125
4376	64.7596
4372	64.5948
4368	64.5592
4364	64.9333
4360	65.4067
4356	65.4471
4352	65.1574
4348	65.0104
4344	64.9823
4340	64.8913
4336	65.0474
4332	65.3099
4328	65.325
4324	65.2149
4320	65.0825
4316	65.0161
4312	65.0318
4308	64.9917
4304	64.9489
4300	65.0033
4296	64.9976
4292	64.918
4288	64.8516
4284	64.8159
4280	64.877
4276	65.0285
4272	65.0648
4268	64.8808
4264	64.7656
4260	64.8217
4256	64.8715
4252	64.9599
4248	65.0871
4244	65.0844
4240	65.0099
4236	64.9585
4232	64.9456
4228	65.0472
4224	65.1731
4220	65.1693
4216	65.0674
4212	64.9699
4208	64.9421
4204	65.0495
4200	65.2209
4196	65.2759
4192	65.2417
4188	65.1838
4184	65.0507
4180	64.9467
4176	65.0081
4172	65.0608
4168	64.9223
4164	64.7146
4160	64.6574
4156	64.751
4152	64.8426
4148	64.8621
4144	64.832
4140	64.8644
4136	64.9588
4132	65.0218
4128	65.0451
4124	65.099
4120	65.1521
4116	65.1206
4112	65.2287
4108	65.3841
4104	65.349
4100	65.28
4096	65.2173
4092	65.1521
4088	65.0548
4084	64.9398
4080	64.8508
4076	64.8114
4072	64.8584
4068	64.8475
4064	64.8774
4060	65.0743
4056	65.1015
4052	64.9748
4048	65.0487
4044	65.215
4040	65.3005
4036	65.2906
4032	65.2227
4028	65.1812
4024	65.1345
4020	65.1063
4016	65.1293
4012	65.0858
4008	65.02
4004	65.0856
4000	65.1349
3996	65.0938
3992	65.121
3988	65.1962
3984	65.1702
3980	65.0989
3976	65.1336
3972	65.1248
3968	65.0118
3964	64.9324
3960	64.9164
3956	65.0046
3952	65.0842
3948	65.0811
3944	65.0823
3940	65.044
3936	64.9266
3932	64.7425
3928	64.6747
3924	64.8715
3920	65.0653
3916	65.0134
3912	64.9167
3908	64.917
3904	64.8879
3900	64.8373
3896	64.8757
3892	65.0188
3888	65.0818
3884	64.9745
3880	64.855
3876	64.7773
3872	64.7851
3868	64.9209
3864	65.0579
3860	65.112
3856	65.117
3852	65.1817
3848	65.2634
3844	65.291
3840	65.3818
3836	65.4081
3832	65.236
3828	65.0429
3824	64.9569
3820	65.0804
3816	65.3364
3812	65.3723
3808	65.1751
3804	65.0874
3800	65.1213
3796	65.0042
3792	64.8021
3788	64.826
3784	65.0861
3780	65.2006
3776	65.1057
3772	65.0843
3768	65.1141
3764	65.1006
3760	65.0917
3756	65.0609
3752	64.9937
3748	64.9573
3744	64.9895
3740	65.0614
3736	65.1321
3732	65.2029
3728	65.2183
3724	65.1992
3720	65.2133
3716	65.1997
3712	65.1702
3708	65.1706
3704	65.1456
3700	65.0576
3696	64.9596
3692	64.8701
3688	64.851
3684	64.9561
3680	65.0762
3676	65.1468
3672	65.1532
3668	65.1062
3664	65.1027
3660	65.1784
3656	65.1756
3652	65.0594
3648	65.0094
3644	65.0411
3640	65.1364
3636	65.2378
3632	65.1778
3628	65.084
3624	65.1185
3620	65.1202
3616	65.059
3612	65.0353
3608	65.0195
3604	65.006
3600	65.0205
3596	65.0825
3592	65.1532
3588	65.1308
3584	65.0242
3580	65.016
3576	65.1471
3572	65.2405
3568	65.2404
3564	65.1749
3560	65.059
3556	65.0295
3552	65.1046
3548	65.1178
3544	65.1025
3540	65.1429
3536	65.1271
3532	65.0628
3528	65.0272
3524	64.9832
3520	65.0018
3516	65.092
3512	65.1072
3508	65.074
3504	65.0882
3500	65.1102
3496	65.1192
3492	65.1526
3488	65.1869
3484	65.2462
3480	65.2887
3476	65.2436
3472	65.2199
3468	65.2245
3464	65.2452
3460	65.3123
3456	65.3093
3452	65.2498
3448	65.2349
3444	65.2235
3440	65.1739
3436	65.1061
3432	65.0083
3428	64.9577
3424	65.0887
3420	65.2248
3416	65.1604
3412	65.1004
3408	65.1328
3404	65.0697
3400	64.9591
3396	64.9885
3392	65.0914
3388	65.0364
3384	64.9037
3380	64.9194
3376	65.0659
3372	65.1682
3368	65.0678
3364	64.9572
3360	64.9698
3356	64.933
3352	64.9581
3348	65.0696
3344	65.106
3340	65.1128
3336	65.0534
3332	64.9787
3328	65.015
3324	65.0707
3320	65.1206
3316	65.1552
3312	65.1325
3308	65.0736
3304	64.9878
3300	64.9383
3296	64.9398
3292	64.9967
3288	65.1402
3284	65.2386
3280	65.1846
3276	65.0429
3272	64.9579
3268	64.9783
3264	65.0262
3260	65.0754
3256	65.1351
3252	65.1203
3248	64.9988
3244	64.9148
3240	64.9024
3236	64.9013
3232	64.9244
3228	65.0105
3224	65.1171
3220	65.1367
3216	65.0984
3212	65.0903
3208	65.1093
3204	65.0529
3200	64.9188
3196	64.9248
3192	65.1177
3188	65.2201
3184	65.159
3180	65.0938
3176	65.0315
3172	65.007
3168	65.0531
3164	65.0352
3160	64.939
3156	64.9392
3152	65.0788
3148	65.2022
3144	65.1553
3140	65.0081
3136	64.9329
3132	64.9626
3128	65.0772
3124	65.1591
3120	65.08
3116	65.015
3112	65.074
3108	65.1129
3104	65.144
3100	65.1663
3096	65.0763
3092	64.9565
3088	64.9465
3084	64.9817
3080	64.9564
3076	64.9268
3072	64.9509
3068	65.0214
3064	65.0671
3060	65.0364
3056	64.9915
3052	65.008
3048	65.0087
3044	64.9578
3040	64.9779
3036	64.9929
3032	64.9747
3028	65.0004
3024	65.0276
3020	65.0304
3016	65.0172
3012	65.0498
3008	65.096
3004	65.0892
3000	65.0434
2996	65.0048
2992	64.9992
2988	65.0052
2984	65.0317
2980	65.0465
2976	65.0096
2972	64.9788
2968	64.9541
2964	64.8744
2960	64.8074
2956	64.8574
2952	64.973
2948	65.0167
2944	64.9432
2940	64.8649
2936	64.8895
2932	64.9503
2928	64.9502
2924	64.9125
2920	64.9191
2916	64.9862
2912	65.0568
2908	65.0899
2904	65.0802
2900	65.0582
2896	65.012
2892	64.9565
2888	64.9605
2884	64.962
2880	64.9286
2876	64.8844
2872	64.834
2868	64.8426
2864	64.8678
2860	64.849
2856	64.905
2852	65.0349
2848	65.0543
2844	64.9837
2840	64.9518
2836	64.9656
2832	65.014
2828	65.0521
2824	65.0326
2820	64.9767
2816	64.8819
2812	64.842
2808	64.923
2804	64.9923
2800	65.0126
2796	65.0449
2792	65.0946
2788	65.0834
2784	64.9993
2780	64.9439
2776	64.9214
2772	64.8842
2768	64.8471
2764	64.829
2760	64.8125
2756	64.8365
2752	64.916
2748	64.9642
2744	64.9637
2740	64.9369
2736	64.8859
2732	64.8449
2728	64.8558
2724	64.87
2720	64.8695
2716	64.9074
2712	64.931
2708	64.9216
2704	64.9055
2700	64.9058
2696	64.9547
2692	64.9968
2688	64.9591
2684	64.9271
2680	64.9848
2676	65.036
2672	65.0228
2668	64.9592
2664	64.8978
2660	64.9018
2656	64.9439
2652	64.9644
2648	64.9319
2644	64.8806
2640	64.876
2636	64.8953
2632	64.8976
2628	64.9097
2624	64.906
2620	64.8708
2616	64.8786
2612	64.9257
2608	64.9398
2604	64.9229
2600	64.9244
2596	64.9529
2592	64.9611
2588	64.9645
2584	64.954
2580	64.9238
2576	64.8966
2572	64.8544
2568	64.8197
2564	64.7994
2560	64.7845
2556	64.7787
2552	64.8061
2548	64.8792
2544	64.9183
2540	64.8807
2536	64.8323
2532	64.8211
2528	64.8233
2524	64.8154
2520	64.8124
2516	64.8327
2512	64.8517
2508	64.8466
2504	64.8436
2500	64.8717
2496	64.9105
2492	64.906
2488	64.8846
2484	64.8977
2480	64.9016
2476	64.8573
2472	64.8026
2468	64.7764
2464	64.7779
2460	64.8092
2456	64.8269
2452	64.8161
2448	64.8551
2444	64.9232
2440	64.983
2436	65.0195
2432	64.9823
2428	64.9242
2424	64.8963
2420	64.8543
2416	64.8114
2412	64.8311
2408	64.8638
2404	64.8469
2400	64.8276
2396	64.8154
2392	64.7737
2388	64.745
2384	64.7622
2380	64.7801
2376	64.8048
2372	64.8186
2368	64.7819
2364	64.7858
2360	64.8022
2356	64.753
2352	64.7816
2348	64.8833
2344	64.8924
2340	64.8536
2336	64.8569
2332	64.8882
2328	64.9164
2324	64.9059
2320	64.8664
2316	64.8749
2312	64.9096
2308	64.8642
2304	64.8265
2300	64.878
2296	64.8778
2292	64.7882
2288	64.7249
2284	64.7557
2280	64.8027
2276	64.794
2272	64.7815
2268	64.8015
2264	64.8698
2260	64.9477
2256	64.9394
2252	64.8233
2248	64.7257
2244	64.7315
2240	64.7557
2236	64.7628
2232	64.7736
2228	64.7651
2224	64.7696
2220	64.7834
2216	64.7702
2212	64.7855
2208	64.8266
2204	64.8389
2200	64.8164
2196	64.7827
2192	64.7507
2188	64.6755
2184	64.5844
2180	64.5665
2176	64.5991
2172	64.612
2168	64.6705
2164	64.7727
2160	64.8217
2156	64.7989
2152	64.7417
2148	64.7177
2144	64.7356
2140	64.7395
2136	64.7477
2132	64.7626
2128	64.7468
2124	64.7042
2120	64.7177
2116	64.7798
2112	64.7707
2108	64.7448
2104	64.7569
2100	64.757
2096	64.7606
2092	64.7528
2088	64.7233
2084	64.7188
2080	64.733
2076	64.7295
2072	64.7265
2068	64.7418
2064	64.743
2060	64.709
2056	64.697
2052	64.7254
2048	64.7064
2044	64.636
2040	64.6246
2036	64.6719
2032	64.6858
2028	64.6643
2024	64.6651
2020	64.7229
2016	64.7612
2012	64.7157
2008	64.6681
2004	64.681
2000	64.7081
1996	64.7156
1992	64.7386
1988	64.7605
1984	64.7573
1980	64.7752
1976	64.7592
1972	64.683
1968	64.6568
1964	64.6494
1960	64.5925
1956	64.5426
1952	64.5694
1948	64.635
1944	64.6095
1940	64.5489
1936	64.5809
1932	64.6284
1928	64.6191
1924	64.5881
1920	64.5811
1916	64.5919
1912	64.5908
1908	64.6077
1904	64.6283
1900	64.611
1896	64.5876
1892	64.5725
1888	64.5658
1884	64.5783
1880	64.5951
1876	64.577
1872	64.5541
1868	64.5895
1864	64.6003
1860	64.5614
1856	64.5704
1852	64.586
1848	64.5576
1844	64.5659
1840	64.6008
1836	64.5998
1832	64.5639
1828	64.5266
1824	64.5272
1820	64.5366
1816	64.5329
1812	64.525
1808	64.5315
1804	64.5641
1800	64.5846
1796	64.5738
1792	64.5638
1788	64.5695
1784	64.5724
1780	64.5741
1776	64.5557
1772	64.5014
1768	64.4526
1764	64.422
1760	64.419
1756	64.4926
1752	64.5747
1748	64.5414
1744	64.455
1740	64.4189
1736	64.4023
1732	64.3651
1728	64.3406
1724	64.3454
1720	64.343
1716	64.3601
1712	64.4033
1708	64.3937
1704	64.3591
1700	64.3778
1696	64.3928
1692	64.3726
1688	64.4059
1684	64.438
1680	64.4297
1676	64.4474
1672	64.4431
1668	64.4193
1664	64.4132
1660	64.4024
1656	64.3581
1652	64.2976
1648	64.3515
1644	64.5092
1640	64.5465
1636	64.4346
1632	64.3527
1628	64.3384
1624	64.2709
1620	64.1648
1616	64.1924
1612	64.3008
1608	64.3375
1604	64.3312
1600	64.3145
1596	64.2972
1592	64.2815
1588	64.2859
1584	64.3039
1580	64.257
1576	64.2174
1572	64.2541
1568	64.2784
1564	64.2922
1560	64.3208
1556	64.3199
1552	64.2891
1548	64.2688
1544	64.2744
1540	64.2406
1536	64.2009
1532	64.238
1528	64.2568
1524	64.2243
1520	64.2291
1516	64.2613
1512	64.2706
1508	64.2516
1504	64.2681
1500	64.3306
1496	64.3441
1492	64.2925
1488	64.249
1484	64.2534
1480	64.2671
1476	64.2445
1472	64.2164
1468	64.2131
1464	64.1887
1460	64.1356
1456	64.1575
1452	64.2089
1448	64.1612
1444	64.128
1440	64.1446
1436	64.1152
1432	64.1074
1428	64.1708
1424	64.2369
1420	64.2341
1416	64.1691
1412	64.1862
1408	64.281
1404	64.2704
1400	64.201
1396	64.2005
1392	64.2092
1388	64.1411
1384	64.0759
1380	64.106
1376	64.1608
1372	64.2008
1368	64.2114
1364	64.2012
1360	64.1827
1356	64.1094
1352	64.0259
1348	64.0006
1344	64.0403
1340	64.0718
1336	64.0365
1332	63.9827
1328	63.944
1324	63.953
1320	64.0395
1316	64.135
1312	64.1406
1308	64.1017
1304	64.1023
1300	64.1461
1296	64.1887
1292	64.1663
1288	64.1072
1284	64.0681
1280	64.0652
1276	64.0753
1272	64.0578
1268	64.0803
1264	64.1741
1260	64.1966
1256	64.1132
1252	64.0615
1248	64.0657
1244	64.0687
1240	64.0486
1236	64.0285
1232	64.0153
1228	63.9745
1224	63.9444
1220	63.9657
1216	63.9872
1212	64.0282
1208	64.1166
1204	64.1535
1200	64.0806
1196	63.9595
1192	63.9125
1188	63.9542
1184	64.0242
1180	64.1055
1176	64.1642
1172	64.1468
1168	64.0245
1164	63.8984
1160	63.8891
1156	63.957
1152	63.9841
1148	63.9504
1144	63.8898
1140	63.8465
1136	63.8348
1132	63.8229
1128	63.7887
1124	63.8247
1120	63.8898
1116	63.8551
1112	63.8293
1108	63.8547
1104	63.8366
1100	63.8303
1096	63.8449
1092	63.8148
1088	63.7993
1084	63.8247
1080	63.8491
1076	63.852
1072	63.8254
1068	63.8138
1064	63.8363
1060	63.8377
1056	63.7984
1052	63.7938
1048	63.7688
1044	63.7016
1040	63.7261
1036	63.7719
1032	63.797
1028	63.8815
1024	63.9328
1020	63.8907
1016	63.8501
1012	63.871
1008	63.9438
1004	63.9422
1000	63.8294
996	 63.7813
992	 63.8641
988	 63.9621
984	 64.0166
980	 64.0222
976	 63.9694
972	 63.8983
968	 63.8088
964	 63.7706
960	 63.8047
956	 63.7966
952	 63.7583
948	 63.7061
944	 63.6744
940	 63.7217
936	 63.778
932	 63.7877
928	 63.7689
924	 63.7766
920	 63.9195
916	 64.0405
912	 63.9779
908	 63.952
904	 63.9545
900	 63.8499
896	 63.7442
892	 63.7046
888	 63.7907
884	 63.8996
880	 63.8086
876	 63.7135
872	 63.752
868	 63.7625
864	 63.801
860	 63.9123
856	 63.937
852	 63.8736
848	 63.8749
844	 63.8911
840	 63.807
836	 63.7147
832	 63.7688
828	 63.924
824	 63.9866
820	 63.919
816	 63.8105
812	 63.6899
808	 63.6364
804	 63.6666
800	 63.7399
796	 63.7742
792	 63.672
788	 63.5349
784	 63.5644
780	 63.7314
776	 63.7949
772	 63.77
768	 63.7486
764	 63.594
760	 63.3922
756	 63.4573
752	 63.6755
748	 63.7379
744	 63.7052
740	 63.659
736	 63.5392
732	 63.3924
728	 63.4324
724	 63.5979
720	 63.5685
716	 63.5384
712	 63.6461
708	 63.5663
704	 63.3547
700	 63.3484
696	 63.4487
692	 63.5574
688	 63.7052
684	 63.6209
680	 63.5284
676	 63.5794
672	 63.5057
668	 63.3514
664	 63.0915
660	 62.9849
656	 63.1639
652	 63.3402
648	 63.5269
644	 63.461
640	 63.251
636	 63.3205
632	 63.1724
628	 62.9745
624	 63.7241
620	 64.4712
616	 63.824
612	 62.8595
608	 62.7315
604	 63.0538
600	 62.9642
596	 62.695
592	 62.7577
588	 62.6525
584	 62.8044
580	 63.3147
576	 63.1739
572	 62.8181
568	 62.9484
564	 62.9541
560	 63.0247
556	 63.5023
552	 63.6695
548	 63.4403
544	 63.2362
540	 63.1769
536	 63.1556
532	 63.2249
528	 63.5574
524	 63.8248
520	 63.5932
516	 63.3326
512	 63.3393
508	 63.2424
504	 62.9304
500	 62.889
496	 63.2327
492	 63.3084
488	 63.107
484	 63.0364
480	 63.123
476	 63.46
472	 64.1402
468	 64.5912
464	 64.433
460	 64.1499
456	 64.3583
452	 64.7736
448	 64.537
444	 63.8104
440	 63.3349
436	 62.892
432	 62.3847
428	 62.2713
424	 62.6972
420	 63.651
416	 63.3708
412	 61.5368
408	 59.7751
404	 58.7223
400	 59.4115
396	 59.1744
392	 56.603
388	 58.6189
384	 65.6349
380	 65.6338
376	 56.7599
372	 47.1046
370	 43.1186