File: Bakgrunnsmateriale/MATLAB/FTIR/ftir_data/subAa/Mapping_121/BZ1503107-1_t78.asc
PE IR       SPECTRUM    SPECTRUM    ASCII       PEDS        1.60
  -1
BZ296F~1.ASC
17/04/07
19:39:28.00
17/04/07
19:39:54.00
tln
$BZ1503107-1_t0078$<tbV0>[13.0,5.2,8.0,0.0,27,1,0]
27.028
64

2002,4.07
MIRTGS : RIGHTBACK : INTERNAL 2
MIR : ON : INTERNAL 2
OPTKBR

0.200000
8
8.000000
FILLER
RATIO
SPECTRUM
UNLOCKED 256

DOUBLE
64
COMBINED
1
0
0

0.002000
RATIO

1
0
TRUE
51149
0
LEFT NOT FITTED RIGHT NOT FITTED 0
NONE
NONE
15600
12
4.427000
51148
TRUE
1 0 8 72 0 0 0 0

15798

#HDR
-1
-1
#GR
µM
%T
2.38419e-05
0.0
2.000000
0.002000
12515
8
80.0942
57.0821
#DATA
2.000000	 61.636
2.018000	 60.2338
2.036000	 59.8375
2.054000	 60.5741
2.072000	 60.472
2.090000	 60.587
2.108000	 60.6594
2.126000	 60.3186
2.144000	 60.6758
2.162000	 60.6465
2.180000	 60.4774
2.198000	 60.1352
2.216000	 60.8155
2.234000	 60.2794
2.252000	 59.7207
2.270000	 60.8106
2.288000	 60.4502
2.306000	 60.9172
2.324000	 60.9441
2.342000	 60.914
2.360000	 61.3399
2.378000	 60.7876
2.396000	 61.4304
2.414000	 61.3508
2.432000	 61.3507
2.450000	 61.2288
2.468000	 61.6353
2.486000	 61.4113
2.504000	 61.2379
2.522000	 61.6111
2.540000	 61.6548
2.558000	 61.3762
2.576000	 61.2655
2.594000	 61.5527
2.612000	 61.4227
2.630000	 61.7518
2.648000	 61.7933
2.666000	 61.7223
2.684000	 61.8255
2.702000	 62.1195
2.720000	 61.9361
2.738000	 62.0654
2.756000	 62.0172
2.774000	 61.9831
2.792000	 62.0677
2.810000	 61.9348
2.828000	 62.233
2.846000	 61.9982
2.864000	 61.9887
2.882000	 62.1272
2.900000	 62.3302
2.918000	 62.0601
2.936000	 62.0196
2.954000	 62.1631
2.972000	 62.2606
2.990000	 62.1511
3.008000	 62.3679
3.026000	 62.4034
3.044000	 62.1648
3.062000	 62.2923
3.080000	 62.2851
3.098000	 62.4167
3.116000	 62.4778
3.134000	 62.5073
3.152000	 62.4975
3.170000	 62.4645
3.188000	 62.4592
3.206000	 62.5329
3.224000	 62.4492
3.242000	 62.2959
3.260000	 62.4641
3.278000	 62.573
3.296000	 62.3624
3.314000	 62.5413
3.332000	 62.5692
3.350000	 62.3655
3.368000	 62.4576
3.386000	 62.4139
3.404000	 62.4976
3.422000	 62.4711
3.440000	 62.5278
3.458000	 62.6179
3.476000	 62.587
3.494000	 62.4788
3.512000	 62.5859
3.530000	 62.5684
3.548000	 62.6661
3.566000	 62.6824
3.584000	 62.7312
3.602000	 62.7523
3.620000	 62.8319
3.638000	 62.8064
3.656000	 62.7995
3.674000	 62.8391
3.692000	 62.7375
3.710000	 62.803
3.728000	 62.8447
3.746000	 62.771
3.764000	 62.7551
3.782000	 62.7436
3.800000	 62.7384
3.818000	 62.8758
3.836000	 62.8067
3.854000	 62.827
3.872000	 62.8126
3.890000	 62.8819
3.908000	 62.7956
3.926000	 62.7377
3.944000	 62.8727
3.962000	 63.0131
3.980000	 62.9761
3.998000	 63.0676
4.016000	 62.9713
4.034000	 63.0314
4.052000	 63.0056
4.070000	 63.0359
4.088000	 63.0286
4.106000	 62.961
4.124000	 62.9843
4.141999	 62.9737
4.160000	 62.96
4.178000	 63.0253
4.196000	 62.9483
4.214000	 62.9429
4.232000	 62.9657
4.250000	 62.8505
4.268000	 62.9199
4.286000	 63.0591
4.304000	 63.0213
4.322000	 63.1031
4.340000	 63.0846
4.358000	 62.9898
4.375999	 63.0471
4.394000	 63.0953
4.412000	 63.1397
4.430000	 63.0828
4.448000	 63.0928
4.466000	 63.0208
4.484000	 63.1767
4.502000	 63.147
4.520000	 63.0198
4.538000	 62.9635
4.556000	 63.0587
4.574000	 63.0139
4.592000	 62.9841
4.609999	 63.0386
4.628000	 63.1068
4.646000	 63.0858
4.664000	 63.0035
4.682000	 63.037
4.700000	 63.096
4.718000	 62.9875
4.736000	 63.1714
4.754000	 63.1737
4.772000	 63.0457
4.790000	 63.0522
4.808000	 63.1166
4.826000	 63.0745
4.843999	 63.0824
4.862000	 63.1216
4.880000	 63.1821
4.898000	 63.1858
4.916000	 63.1865
4.934000	 63.1707
4.952000	 63.1852
4.970000	 63.1755
4.988000	 63.1177
5.006000	 63.0029
5.024000	 63.068
5.042000	 63.104
5.060000	 63.1771
5.077999	 63.1841
5.096000	 63.1948
5.114000	 63.1693
5.132000	 63.1221
5.150000	 63.125
5.168000	 63.0704
5.186000	 63.0817
5.204000	 63.1577
5.222000	 63.1262
5.240000	 63.058
5.258000	 63.1335
5.276000	 63.1392
5.294000	 63.2171
5.312000	 63.2006
5.330000	 63.1105
5.348000	 63.1476
5.366000	 63.1639
5.384000	 63.1989
5.402000	 63.2147
5.420000	 63.2101
5.438000	 63.1202
5.456000	 63.0986
5.474000	 63.1257
5.492000	 63.1835
5.510000	 63.2299
5.528000	 63.195
5.546000	 63.229
5.564000	 63.1683
5.582000	 63.1247
5.600000	 63.1641
5.618000	 63.1521
5.636000	 63.1693
5.654000	 63.1899
5.672000	 63.1641
5.690000	 63.1645
5.708000	 62.9408
5.726000	 62.8363
5.744000	 62.8279
5.762000	 62.8215
5.780000	 62.9182
5.798000	 62.9916
5.816000	 62.9649
5.834000	 63.0532
5.852000	 63.1053
5.870000	 63.1595
5.888000	 63.2437
5.906000	 63.251
5.923999	 63.2511
5.942000	 63.2328
5.960000	 63.1044
5.978000	 63.0603
5.996000	 63.1559
6.014000	 63.2047
6.032000	 63.207
6.050000	 63.1054
6.068000	 62.9964
6.086000	 62.9707
6.104000	 62.9367
6.122000	 62.9087
6.140000	 63.0428
6.158000	 63.1641
6.176000	 63.1782
6.194000	 63.1815
6.212000	 63.1338
6.230000	 63.1417
6.248000	 63.2478
6.266000	 63.2266
6.284000	 63.1115
6.302000	 63.155
6.320000	 63.2388
6.338000	 63.2948
6.356000	 63.2837
6.374000	 63.1441
6.392000	 63.0765
6.410000	 63.1663
6.428000	 63.1764
6.446000	 63.0967
6.464000	 63.1159
6.482000	 63.2194
6.500000	 63.2771
6.518000	 63.2403
6.536000	 63.2215
6.554000	 63.2505
6.572000	 63.2167
6.590000	 63.1834
6.608000	 63.2758
6.626000	 63.3877
6.644000	 63.397
6.662000	 63.2806
6.680000	 63.175
6.698000	 63.1927
6.716000	 63.2429
6.734000	 63.2787
6.752000	 63.2694
6.770000	 63.2058
6.788000	 63.1447
6.806000	 63.0994
6.824000	 63.0284
6.842000	 62.9755
6.860000	 62.9912
6.878000	 63.0412
6.896000	 63.0919
6.914000	 63.0935
6.932000	 63.0364
6.950000	 63.0085
6.968000	 63.0746
6.986000	 63.1709
7.004000	 63.2311
7.022000	 63.2382
7.040000	 63.1717
7.058000	 63.1151
7.076000	 63.1202
7.094000	 63.1074
7.112000	 63.0872
7.130000	 63.0948
7.148000	 63.0819
7.166000	 63.0747
7.184000	 63.1122
7.202000	 63.1193
7.220000	 63.066
7.238000	 63.0312
7.256000	 63.0474
7.274000	 63.077
7.292000	 63.0744
7.310000	 63.039
7.328000	 63.0349
7.346000	 63.0753
7.364000	 63.085
7.382000	 63.0491
7.400000	 63.0354
7.418000	 63.0712
7.436000	 63.115
7.454000	 63.1445
7.472000	 63.175
7.490000	 63.1985
7.508000	 63.2034
7.526000	 63.2163
7.544000	 63.2363
7.562000	 63.2223
7.580000	 63.1732
7.598000	 63.1318
7.616000	 63.1105
7.634000	 63.0855
7.652000	 63.0801
7.670000	 63.1475
7.688000	 63.2405
7.706000	 63.2405
7.724000	 63.1453
7.742000	 63.0689
7.760000	 63.0552
7.778000	 63.0443
7.796000	 63.0117
7.814000	 63.0012
7.832000	 63.0272
7.850000	 63.0472
7.868000	 63.0294
7.886000	 62.986
7.904000	 62.9478
7.922000	 62.94
7.940000	 62.9729
7.958000	 63.0304
7.976000	 63.0778
7.994000	 63.0952
8.012000	 63.095
8.030000	 63.097
8.048000	 63.1019
8.065999	 63.0945
8.084000	 63.0671
8.102000	 63.0352
8.120000	 63.0349
8.138000	 63.0887
8.155999	 63.1697
8.173999	 63.2137
8.192000	 63.1807
8.210000	 63.0948
8.228000	 63.0201
8.246000	 63.0023
8.263999	 63.0308
8.282000	 63.0544
8.300000	 63.0456
8.318000	 63.0341
8.336000	 63.0614
8.353999	 63.1168
8.372000	 63.151
8.390000	 63.1419
8.408000	 63.1144
8.426000	 63.1009
8.443999	 63.1031
8.462000	 63.0978
8.480000	 63.0656
8.498000	 63.0094
8.516000	 62.9512
8.533999	 62.9156
8.552000	 62.9155
8.570000	 62.9498
8.588000	 63.006
8.606000	 63.0587
8.624000	 63.085
8.641999	 63.0881
8.660000	 63.0977
8.678000	 63.1325
8.696000	 63.1696
8.714000	 63.1698
8.731999	 63.125
8.750000	 63.0663
8.768000	 63.0289
8.786000	 63.0247
8.804000	 63.0442
8.821999	 63.0692
8.840000	 63.0852
8.858000	 63.0888
8.876000	 63.0892
8.894000	 63.091
8.911999	 63.0845
8.930000	 63.0577
8.948000	 63.0171
8.966000	 62.9812
8.984000	 62.9586
9.001999	 62.941
9.020000	 62.918
9.038000	 62.891
9.056000	 62.8687
9.074000	 62.8588
9.092000	 62.8685
9.109999	 62.9037
9.128000	 62.9631
9.146000	 63.0361
9.164000	 63.1083
9.182000	 63.166
9.199999	 63.1963
9.218000	 63.1868
9.236000	 63.1364
9.254000	 63.0662
9.272000	 63.0126
9.289999	 63.0034
9.308000	 63.0393
9.326000	 63.0988
9.344000	 63.1555
9.362000	 63.1925
9.379999	 63.2058
9.398000	 63.1997
9.416000	 63.1818
9.434000	 63.1598
9.452000	 63.1383
9.469999	 63.1198
9.488000	 63.1086
9.506000	 63.1127
9.524000	 63.1406
9.542000	 63.1903
9.560000	 63.2439
9.577999	 63.2722
9.596000	 63.2538
9.614000	 63.192
9.632000	 63.118
9.650000	 63.0717
9.667999	 63.0748
9.686000	 63.1159
9.704000	 63.1597
9.722000	 63.175
9.740000	 63.1564
9.757999	 63.1233
9.776000	 63.0985
9.794000	 63.0884
9.812000	 63.0816
9.830000	 63.0642
9.847999	 63.0361
9.866000	 63.0131
9.884000	 63.0153
9.902000	 63.0507
9.920000	 63.1076
9.937999	 63.1613
9.956000	 63.1894
9.974000	 63.1841
9.992000	 63.1535
10.01	63.1154
10.028	63.0876
10.046	63.0797
10.064	63.0905
10.082	63.1124
10.1	63.1383
10.118	63.1684
10.136	63.2094
10.154	63.2666
10.172	63.3342
10.19	63.3915
10.208	63.415
10.226	63.3937
10.244	63.3377
10.262	63.2729
10.28	63.2216
10.298	63.1908
10.316	63.17
10.334	63.1458
10.352	63.1159
10.37	63.0931
10.388	63.0962
10.406	63.1341
10.424	63.1994
10.442	63.27
10.46	63.3234
10.478	63.3464
10.496	63.3421
10.514	63.3244
10.532	63.3087
10.55	63.3028
10.568	63.3045
10.586	63.3035
10.604	63.2896
10.622	63.2584
10.64	63.2143
10.658	63.1672
10.676	63.1283
10.694	63.1043
10.712	63.0973
10.73	63.1059
10.748	63.1267
10.766	63.1533
10.784	63.1753
10.802	63.1801
10.82	63.1601
10.838	63.1184
10.856	63.0709
10.874	63.0419
10.892	63.0496
10.91	63.0959
10.928	63.1638
10.946	63.2238
10.964	63.251
10.982	63.2355
11	63.1864
11.018	63.1253
11.036	63.0727
11.054	63.0399
11.072	63.026
11.09	63.0227
11.108	63.022
11.126	63.0209
11.144	63.0219
11.162	63.0291
11.18	63.0452
11.198	63.0708
11.216	63.1035
11.234	63.1398
11.252	63.1753
11.27	63.2052
11.288	63.2245
11.306	63.2292
11.324	63.2184
11.342	63.1962
11.36	63.1706
11.378	63.1522
11.396	63.1486
11.414	63.162
11.432	63.1866
11.45	63.2113
11.468	63.2223
11.486	63.2089
11.504	63.1661
11.522	63.0964
11.54	63.0083
11.558	62.9138
11.576	62.8256
11.594	62.7538
11.612	62.7054
11.63	62.6831
11.648	62.6864
11.666	62.7119
11.684	62.7548
11.702	62.8099
11.72	62.871
11.738	62.932
11.756	62.987
11.774	63.0316
11.792	63.0629
11.81	63.0814
11.828	63.0892
11.846	63.0892
11.864	63.0836
11.882	63.0725
11.9	63.0542
11.918	63.0266
11.936	62.9899
11.954	62.9469
11.972	62.9041
11.99	62.8699
12.008	62.8516
12.026	62.8535
12.044	62.8751
12.062	62.9119
12.08	62.9565
12.098	63.0018
12.116	63.0416
12.134	63.0726
12.152	63.0935
12.17	63.1042
12.188	63.1047
12.206	63.0949
12.224	63.0753
12.242	63.0479
12.26	63.0167
12.278	62.9868
12.296	62.9635
12.314	62.9504
12.332	62.9485
12.35	62.9557
12.368	62.9679
12.386	62.9799
12.404	62.9873
12.422	62.9872
12.44	62.9788
12.458	62.9645
12.476	62.9487
12.494	62.9373
12.512	62.9356
12.53	62.9474
12.548	62.973
12.566	63.0095
12.584	63.0508
12.602	63.0895
12.62	63.1177
12.638	63.1298
12.656	63.1239
12.674	63.102
12.692	63.0701
12.71	63.0365
12.728	63.0104
12.746	63
12.764	63.0106
12.782	63.0425
12.8	63.0925
12.818	63.1534
12.836	63.2159
12.854	63.27
12.872	63.3075
12.89	63.3222
12.908	63.3122
12.926	63.2786
12.944	63.2257
12.962	63.1591
12.98	63.0854
12.998	63.0102
13.016	62.9384
13.034	62.8732
13.052	62.8163
13.07	62.7689
13.088	62.7318
13.106	62.7056
13.124	62.6907
13.142	62.6875
13.16	62.6966
13.178	62.7186
13.196	62.753
13.214	62.7986
13.232	62.8532
13.25	62.9133
13.268	62.9744
13.286	63.0312
13.304	63.0779
13.322	63.1096
13.34	63.1226
13.358	63.1157
13.376	63.0901
13.394	63.0497
13.412	63.0007
13.43	62.9502
13.448	62.9056
13.466	62.8728
13.484	62.8554
13.502	62.8538
13.52	62.8659
13.538	62.887
13.556	62.9111
13.574	62.932
13.592	62.9443
13.61	62.9443
13.628	62.9309
13.646	62.9047
13.664	62.8686
13.682	62.8265
13.7	62.7832
13.718	62.7431
13.736	62.71
13.754	62.6871
13.772	62.676
13.79	62.6775
13.808	62.6917
13.826	62.7179
13.844	62.7547
13.862	62.8003
13.88	62.8523
13.898	62.9077
13.916	62.9632
13.934	63.0152
13.952	63.0599
13.97	63.0939
13.988	63.1144
14.006	63.1191
14.024	63.1063
14.042	63.0761
14.06	63.0301
14.078	62.9713
14.096	62.9037
14.114	62.8324
14.132	62.7624
14.15	62.6982
14.168	62.6435
14.186	62.6004
14.204	62.5689
14.222	62.5481
14.24	62.5359
14.258	62.5309
14.276	62.5315
14.294	62.5374
14.312	62.5496
14.33	62.57
14.348	62.6011
14.366	62.6447
14.384	62.7016
14.402	62.7703
14.42	62.8478
14.438	62.9297
14.456	63.0108
14.474	63.086
14.492	63.1513
14.51	63.2044
14.528	63.2458
14.546	63.2778
14.564	63.3038
14.582	63.3278
14.6	63.353
14.618	63.381
14.636	63.4117
14.654	63.4423
14.672	63.4689
14.69	63.4871
14.708	63.4929
14.726	63.4836
14.744	63.4577
14.762	63.4172
14.78	63.3647
14.798	63.3035
14.816	63.2372
14.834	63.1685
14.852	63.0983
14.87	63.0267
14.888	62.9529
14.906	62.8761
14.924	62.7965
14.942	62.7154
14.96	62.6367
14.978	62.5661
14.996	62.5096
15.014	62.474
15.032	62.4653
15.05	62.4865
15.068	62.537
15.086	62.6135
15.104	62.7095
15.122	62.8142
15.14	62.9161
15.158	63.005
15.176	63.072
15.194	63.1097
15.212	63.1152
15.23	63.0895
15.248	63.0361
15.266	62.9605
15.284	62.8711
15.302	62.7756
15.32	62.6804
15.338	62.5906
15.356	62.5097
15.374	62.4397
15.392	62.3804
15.41	62.3308
15.428	62.2894
15.446	62.2538
15.464	62.2229
15.482	62.1962
15.5	62.1736
15.518	62.155
15.536	62.1412
15.554	62.1324
15.572	62.1289
15.59	62.1306
15.608	62.1364
15.626	62.1452
15.644	62.1556
15.662	62.1654
15.68	62.1734
15.698	62.1787
15.716	62.1807
15.734	62.1801
15.752	62.1779
15.77	62.1751
15.788	62.1743
15.806	62.1776
15.824	62.1866
15.842	62.2033
15.86	62.229
15.878	62.2638
15.896	62.308
15.914	62.361
15.932	62.4216
15.95	62.4886
15.968	62.5606
15.986	62.6359
16.004	62.7136
16.022	62.793
16.04	62.8738
16.058	62.9566
16.076	63.0418
16.094	63.13
16.112	63.2216
16.13	63.3165
16.148	63.4148
16.166	63.5148
16.184	63.6146
16.202	63.7122
16.22	63.8027
16.238	63.8824
16.256	63.948
16.274	63.9933
16.292	64.0155
16.31	64.0116
16.328	63.9787
16.346	63.9171
16.364	63.8271
16.382	63.7117
16.4	63.5758
16.418	63.4234
16.436	63.2628
16.454	63.1009
16.472	62.9429
16.49	62.797
16.508	62.6671
16.526	62.5565
16.544	62.4678
16.562	62.4007
16.58	62.3551
16.598	62.3292
16.616	62.3214
16.634	62.3305
16.652	62.3541
16.67	62.3914
16.688	62.4415
16.706	62.5033
16.724	62.5765
16.742	62.6607
16.76	62.7535
16.778	62.8536
16.796	62.9579
16.814	63.0624
16.832	63.1645
16.85	63.2585
16.868	63.3408
16.886	63.4084
16.904	63.4563
16.922	63.4831
16.94	63.487
16.958	63.4677
16.976	63.4254
16.994	63.3623
17.012	63.2811
17.03	63.1837
17.048	63.0748
17.066	62.9567
17.084	62.8331
17.102	62.7083
17.12	62.5843
17.138	62.4661
17.156	62.3563
17.174	62.2576
17.192	62.1747
17.21	62.1088
17.228	62.0639
17.246	62.0403
17.264	62.0389
17.282	62.058
17.3	62.096
17.318	62.149
17.336	62.2113
17.354	62.2799
17.372	62.3457
17.39	62.4061
17.408	62.454
17.426	62.4862
17.444	62.4997
17.462	62.4932
17.48	62.467
17.498	62.4229
17.516	62.3649
17.534	62.2958
17.552	62.2227
17.57	62.1477
17.588	62.0786
17.606	62.0178
17.624	61.9699
17.642	61.9377
17.66	61.9228
17.678	61.926
17.696	61.9469
17.714	61.9844
17.732	62.0369
17.75	62.103
17.768	62.1794
17.786	62.2653
17.804	62.3569
17.822	62.4535
17.84	62.552
17.858	62.6511
17.876	62.7489
17.894	62.8437
17.912	62.9347
17.93	63.0197
17.948	63.0982
17.966	63.1693
17.984	63.2329
18.002	63.2886
18.02	63.3373
18.038	63.3796
18.056	63.4174
18.074	63.4513
18.092	63.4832
18.11	63.5131
18.128	63.5417
18.146	63.5683
18.164	63.5922
18.182	63.6116
18.2	63.6249
18.218	63.6285
18.236	63.6211
18.254	63.5981
18.272	63.5584
18.29	63.499
18.308	63.4195
18.326	63.3194
18.344	63.1993
18.362	63.0617
18.38	62.9086
18.398	62.7445
18.416	62.5731
18.434	62.3994
18.452	62.2287
18.47	62.0648
18.488	61.9131
18.506	61.7761
18.524	61.6578
18.542	61.5592
18.56	61.4815
18.578	61.4249
18.596	61.3876
18.614	61.3694
18.632	61.3658
18.65	61.3763
18.668	61.3958
18.686	61.4238
18.704	61.4551
18.722	61.4897
18.74	61.524
18.758	61.5581
18.776	61.5899
18.794	61.6198
18.812	61.6478
18.83	61.6741
18.848	61.6989
18.866	61.7231
18.884	61.7476
18.902	61.7731
18.92	61.8005
18.938	61.8303
18.956	61.8632
18.974	61.8992
18.992	61.9385
19.01	61.9805
19.028	62.025
19.046	62.0715
19.064	62.119
19.082	62.1669
19.1	62.2139
19.118	62.2596
19.136	62.3025
19.154	62.3425
19.172	62.3781
19.19	62.4095
19.208	62.4358
19.226	62.4574
19.244	62.4739
19.262	62.4857
19.28	62.4936
19.298	62.4977
19.316	62.4994
19.334	62.4987
19.352	62.4976
19.37	62.496
19.388	62.4961
19.406	62.4977
19.424	62.5029
19.442	62.5115
19.46	62.5248
19.478	62.5429
19.496	62.566
19.514	62.5942
19.532	62.6276
19.55	62.6662
19.568	62.7094
19.586	62.7568
19.604	62.8079
19.622	62.8614
19.64	62.917
19.658	62.9727
19.676	63.0287
19.694	63.083
19.712	63.1356
19.73	63.1845
19.748	63.2298
19.766	63.2699
19.784	63.3044
19.802	63.3327
19.82	63.354
19.838	63.3683
19.856	63.3749
19.874	63.3742
19.892	63.3662
19.91	63.3512
19.928	63.3306
19.946	63.304
19.964	63.2737
19.982	63.2396
20	63.2039
20.018	63.1674
20.036	63.1312
20.054	63.0973
20.072	63.0657
20.09	63.0387
20.108	63.0159
20.126	62.9988
20.144	62.9874
20.162	62.9815
20.18	62.9815
20.198	62.9866
20.216	62.9959
20.234	63.0094
20.252	63.0248
20.27	63.0426
20.288	63.0602
20.306	63.0774
20.324	63.0929
20.342	63.1054
20.36	63.115
20.378	63.1205
20.396	63.1221
20.414	63.1202
20.432	63.1144
20.45	63.1063
20.468	63.0959
20.486	63.0842
20.504	63.0733
20.522	63.0628
20.54	63.0556
20.558	63.0514
20.576	63.052
20.594	63.0581
20.612	63.0697
20.63	63.0879
20.648	63.1122
20.666	63.1419
20.684	63.1773
20.702	63.2166
20.72	63.2593
20.738	63.3046
20.756	63.3493
20.774	63.3942
20.792	63.436
20.81	63.4742
20.828	63.5077
20.846	63.5338
20.864	63.5533
20.882	63.564
20.9	63.566
20.918	63.5591
20.936	63.5427
20.954	63.5174
20.972	63.4842
20.99	63.4427
21.008	63.3951
21.026	63.3418
21.044	63.2837
21.062	63.2235
21.08	63.1605
21.098	63.0977
21.116	63.0357
21.134	62.975
21.152	62.918
21.17	62.8641
21.188	62.8147
21.206	62.7703
21.224	62.7306
21.242	62.696
21.26	62.6666
21.278	62.6414
21.296	62.6208
21.314	62.604
21.332	62.5899
21.35	62.5789
21.368	62.5697
21.386	62.5619
21.404	62.5555
21.422	62.5494
21.44	62.5438
21.458	62.5384
21.476	62.5328
21.494	62.5273
21.512	62.5218
21.53	62.5162
21.548	62.511
21.566	62.5062
21.584	62.5018
21.602	62.4982
21.62	62.4954
21.638	62.4933
21.656	62.4917
21.674	62.4907
21.692	62.4896
21.71	62.4884
21.728	62.4867
21.746	62.4833
21.764	62.4785
21.782	62.4715
21.8	62.4613
21.818	62.4483
21.836	62.4315
21.854	62.4105
21.872	62.3856
21.89	62.3567
21.908	62.3235
21.926	62.2868
21.944	62.2469
21.962	62.2036
21.98	62.1593
21.998	62.1135
22.016	62.0673
22.034	62.0235
22.052	61.981
22.07	61.9421
22.088	61.909
22.106	61.8806
22.124	61.8595
22.142	61.8462
22.16	61.8407
22.178	61.8442
22.196	61.8569
22.214	61.8784
22.232	61.9088
22.25	61.9483
22.268	61.9952
22.286	62.049
22.304	62.1098
22.322	62.1743
22.34	62.2427
22.358	62.3142
22.376	62.385
22.394	62.4562
22.412	62.526
22.43	62.5913
22.448	62.6537
22.466	62.7107
22.484	62.7607
22.502	62.8046
22.52	62.8407
22.538	62.8682
22.556	62.8878
22.574	62.8992
22.592	62.902
22.61	62.8969
22.628	62.8848
22.646	62.8652
22.664	62.8391
22.682	62.808
22.7	62.7712
22.718	62.73
22.736	62.6856
22.754	62.6376
22.772	62.5869
22.79	62.5346
22.808	62.4802
22.826	62.4246
22.844	62.3682
22.862	62.3107
22.88	62.2528
22.898	62.1946
22.916	62.136
22.934	62.0775
22.952	62.0193
22.97	61.9613
22.988	61.9038
23.006	61.8468
23.024	61.7902
23.042	61.7352
23.06	61.6814
23.078	61.6292
23.096	61.5802
23.114	61.5341
23.132	61.4913
23.15	61.4542
23.168	61.4224
23.186	61.3962
23.204	61.3776
23.222	61.3662
23.24	61.3622
23.258	61.3675
23.276	61.3818
23.294	61.4052
23.312	61.4385
23.33	61.482
23.348	61.5353
23.366	61.5981
23.384	61.671
23.402	61.7533
23.42	61.8428
23.438	61.94
23.456	62.0445
23.474	62.1533
23.492	62.2665
23.51	62.3841
23.528	62.5025
23.546	62.621
23.564	62.7404
23.582	62.8575
23.6	62.9712
23.618	63.0826
23.636	63.1896
23.654	63.2906
23.672	63.3868
23.69	63.4776
23.708	63.5625
23.726	63.6414
23.744	63.7154
23.762	63.7849
23.78	63.8489
23.798	63.9095
23.816	63.9689
23.834	64.0255
23.852	64.0813
23.87	64.1393
23.888	64.1986
23.906	64.2599
23.924	64.326
23.942	64.3972
23.96	64.473
23.978	64.5545
23.996	64.6426
24.014	64.7367
24.032	64.8363
24.05	64.9413
24.068	65.0524
24.086	65.1672
24.104	65.2833
24.122	65.4031
24.14	65.5236
24.158	65.6404
24.176	65.7559
24.194	65.8683
24.212	65.972
24.23	66.0668
24.248	66.1539
24.266	66.2284
24.284	66.2878
24.302	66.3346
24.32	66.3657
24.338	66.3777
24.356	66.3721
24.374	66.3486
24.392	66.3062
24.41	66.2443
24.428	66.1638
24.446	66.0655
24.464	65.9493
24.482	65.8147
24.5	65.6646
24.518	65.5015
24.536	65.3231
24.554	65.1321
24.572	64.9322
24.59	64.7222
24.608	64.5026
24.626	64.2776
24.644	64.0491
24.662	63.8147
24.68	63.5776
24.698	63.3405
24.716	63.1016
24.734	62.8621
24.752	62.6245
24.77	62.3891
24.788	62.1551
24.806	61.9237
24.824	61.6958
24.842	61.471
24.86	61.249
24.878	61.0294
24.896	60.8122
24.914	60.5974
24.932	60.385
24.95	60.1746
24.968	59.9661
24.986	59.7606
25.004	59.5591
25.022	59.3603
25.04	59.1654
25.058	58.9766
25.076	58.7948
25.094	58.6184
25.112	58.4499
25.13	58.2914
25.148	58.1409
25.166	57.9997
25.184	57.8718
25.202	57.7584
25.22	57.6571
25.238	57.5712
25.256	57.5045
25.274	57.4549
25.292	57.4229
25.31	57.4119
25.328	57.4235
25.346	57.4558
25.364	57.5099
25.382	57.5874
25.4	57.689
25.418	57.8135
25.436	57.9594
25.454	58.1258
25.472	58.3154
25.49	58.5241
25.508	58.7468
25.526	58.9831
25.544	59.2353
25.562	59.498
25.58	59.7661
25.598	60.0432
25.616	60.3276
25.634	60.6139
25.652	60.8995
25.67	61.1887
25.688	61.4766
25.706	61.7575
25.724	62.0319
25.742	62.3018
25.76	62.5616
25.778	62.8061
25.796	63.0387
25.814	63.2583
25.832	63.4606
25.85	63.6429
25.868	63.8084
25.886	63.955
25.904	64.0799
25.922	64.1821
25.94	64.2634
25.958	64.3227
25.976	64.3586
25.994	64.3711
26.012	64.3608
26.03	64.3282
26.048	64.2736
26.066	64.1966
26.084	64.0977
26.102	63.9779
26.12	63.8376
26.138	63.6755
26.156	63.4937
26.174	63.2947
26.192	63.0784
26.21	62.8426
26.228	62.5924
26.246	62.3334
26.264	62.0637
26.282	61.7815
26.3	61.4944
26.318	61.2094
26.336	60.9232
26.354	60.6354
26.372	60.3518
26.39	60.0773
26.408	59.8065
26.426	59.5421
26.444	59.2914
26.462	59.0602
26.48	58.8425
26.498	58.6411
26.516	58.462
26.534	58.3088
26.552	58.1747
26.57	58.0653
26.588	57.9884
26.606	57.9481
26.624	57.9364
26.642	57.96
26.66	58.0276
26.678	58.1432
26.696	58.2987
26.714	58.5007
26.732	58.7573
26.75	59.0723
26.768	59.4393
26.786	59.8618
26.804	60.3446
26.822	60.8904
26.84	61.4964
26.858	62.1616
26.876	62.8855
26.894	63.6691
26.912	64.5143
26.93	65.4155
26.948	66.3666
26.966	67.4214
26.984	68.6688
27.002	69.8918
27.02	70.8541
27.028	71.1083