File: Bakgrunnsmateriale/MATLAB/FTIR/ftir_data/subAa/Mapping_121/BZ1503107-1_e122_cm-1.asc
PE IR       SPECTRUM    SPECTRUM    ASCII       PEDS        1.60
  -1
BZ1503~1.ASC
17/04/07
13:14:34.00
17/04/07
13:14:34.00
tln
$BZ1503107-1_e0122$<ebV0>[-23.3,12.1,10.0,0.0,27,1,0]
370
64

2002,4.07
MIRTGS : RIGHTBACK : INTERNAL 2
MIR : ON : INTERNAL 2
OPTKBR

0.200000
8
8.000000
FILLER
SINGLE
SPECTRUM
UNLOCKED 256

DOUBLE

COMBINED
1
0
0

1.000000
BACKG

1
0
TRUE
51149
0
LEFT NOT FITTED RIGHT NOT FITTED 0
NONE
NONE
15600
12
4.427000
51148
TRUE
1 0 8 72 0 0 0 0

15798

#HDR
-1
-1
#GR
CM-1
EGY
2.38419e-05
0.0
5000
-1.000000
4631
8
2.461695
0.006914
#DATA
5000	0.774073
4996	0.777101
4992	0.779628
4988	0.780963
4984	0.783085
4980	0.787353
4976	0.790429
4972	0.790476
4968	0.790739
4964	0.791120
4960	0.791215
4956	0.793075
4952	0.796055
4948	0.797271
4944	0.796580
4940	0.796771
4936	0.798535
4932	0.801253
4928	0.803327
4924	0.804901
4920	0.808048
4916	0.811624
4912	0.812411
4908	0.811529
4904	0.813031
4900	0.815463
4896	0.815701
4892	0.815844
4888	0.817847
4884	0.820398
4880	0.823855
4876	0.828456
4872	0.831985
4868	0.831913
4864	0.829529
4860	0.829935
4856	0.834417
4852	0.838565
4848	0.838279
4844	0.837516
4840	0.841307
4836	0.847101
4832	0.852727
4828	0.855278
4824	0.856757
4820	0.861263
4816	0.861024
4812	0.861597
4808	0.867962
4804	0.864577
4800	0.858664
4796	0.864720
4792	0.871491
4788	0.873351
4784	0.878572
4780	0.886726
4776	0.889205
4772	0.890994
4768	0.899672
4764	0.900554
4760	0.891232
4756	0.891757
4752	0.900721
4748	0.904464
4744	0.904679
4740	0.906920
4736	0.910162
4732	0.910210
4728	0.910305
4724	0.914859
4720	0.919485
4716	0.917887
4712	0.915074
4708	0.917625
4704	0.918412
4700	0.916457
4696	0.917124
4692	0.916719
4688	0.914263
4684	0.914001
4680	0.914883
4676	0.915193
4672	0.916314
4668	0.917840
4664	0.918340
4660	0.918102
4656	0.919508
4652	0.921869
4648	0.921702
4644	0.921201
4640	0.924015
4636	0.927853
4632	0.930452
4628	0.932812
4624	0.935339
4620	0.938034
4616	0.939559
4612	0.939869
4608	0.941419
4604	0.942993
4600	0.944590
4596	0.948166
4592	0.951027
4588	0.952148
4584	0.954675
4580	0.958800
4576	0.961852
4572	0.965356
4568	0.970435
4564	0.974726
4560	0.978064
4556	0.981402
4552	0.985169
4548	0.987505
4544	0.988006
4540	0.988841
4536	0.990390
4532	0.993633
4528	0.997471
4524	1.001381
4520	1.004838
4516	1.005125
4512	1.002788
4508	1.000428
4504	0.999021
4500	0.996994
4496	0.987601
4492	0.967836
4488	0.959920
4484	0.950670
4480	0.939059
4476	0.966644
4472	1.003623
4468	1.020765
4464	1.033210
4460	1.036953
4456	1.034283
4452	1.029157
4448	1.022624
4444	1.024174
4440	1.027274
4436	1.027011
4432	1.026749
4428	1.027464
4424	1.028585
4420	1.028275
4416	1.028037
4412	1.029443
4408	1.031708
4404	1.034855
4400	1.038241
4396	1.038694
4392	1.037502
4388	1.038646
4384	1.041269
4380	1.043963
4376	1.047825
4372	1.050901
4368	1.051330
4364	1.053142
4360	1.057267
4356	1.060819
4352	1.064395
4348	1.067972
4344	1.070761
4340	1.075220
4336	1.081395
4332	1.086473
4328	1.090764
4324	1.096534
4320	1.103448
4316	1.106786
4312	1.107907
4308	1.111125
4304	1.115608
4300	1.122021
4296	1.129364
4292	1.134324
4288	1.137304
4284	1.141238
4280	1.146197
4276	1.150107
4272	1.153540
4268	1.157784
4264	1.162791
4260	1.168179
4256	1.171898
4252	1.172900
4248	1.174402
4244	1.177668
4240	1.179718
4236	1.180863
4232	1.183056
4228	1.186275
4224	1.189732
4220	1.191926
4216	1.193761
4212	1.196193
4208	1.197814
4204	1.198530
4200	1.199817
4196	1.203942
4192	1.207804
4188	1.208329
4184	1.209139
4180	1.211166
4176	1.212143
4172	1.213359
4168	1.216816
4164	1.219606
4160	1.220417
4156	1.222372
4152	1.226663
4148	1.231503
4144	1.233601
4140	1.233959
4136	1.236486
4132	1.239919
4128	1.242971
4124	1.246452
4120	1.250362
4116	1.253294
4112	1.254701
4108	1.257586
4104	1.262807
4100	1.268267
4096	1.274180
4092	1.279258
4088	1.283621
4084	1.289510
4080	1.296019
4076	1.302194
4072	1.308441
4068	1.314616
4064	1.319217
4060	1.323175
4056	1.328229
4052	1.334214
4048	1.341080
4044	1.347970
4040	1.353025
4036	1.356387
4032	1.360201
4028	1.365828
4024	1.372075
4020	1.377320
4016	1.382040
4012	1.386785
4008	1.390647
4004	1.394081
4000	1.397395
3996	1.400732
3992	1.404595
3988	1.407980
3984	1.409816
3980	1.411104
3976	1.412296
3972	1.412081
3968	1.412653
3964	1.416277
3960	1.420521
3956	1.422739
3952	1.422429
3948	1.421356
3944	1.421141
3940	1.422810
3936	1.426339
3932	1.429367
3928	1.431179
3924	1.432752
3920	1.433110
3916	1.433420
3912	1.435112
3908	1.434659
3904	1.432490
3900	1.433539
3896	1.436996
3892	1.439332
3888	1.440215
3884	1.442050
3880	1.446580
3876	1.449584
3872	1.449584
3868	1.451230
3864	1.456212
3860	1.457214
3856	1.449537
3852	1.451253
3848	1.466202
3844	1.473283
3840	1.472139
3836	1.475667
3832	1.484727
3828	1.492261
3824	1.494574
3820	1.495170
3816	1.500725
3812	1.509714
3808	1.513504
3804	1.513624
3800	1.519870
3796	1.532030
3792	1.541280
3788	1.545643
3784	1.548600
3780	1.552248
3776	1.555967
3772	1.557421
3768	1.558136
3764	1.560616
3760	1.562213
3756	1.556777
3752	1.547026
3748	1.543021
3744	1.548886
3740	1.557826
3736	1.562833
3732	1.569366
3728	1.576781
3724	1.579236
3720	1.579999
3716	1.578307
3712	1.575231
3708	1.576805
3704	1.580071
3700	1.581978
3696	1.581192
3692	1.575374
3688	1.572489
3684	1.575541
3680	1.572775
3676	1.564812
3672	1.565027
3668	1.574945
3664	1.583504
3660	1.583790
3656	1.579523
3652	1.573562
3648	1.572155
3644	1.578736
3640	1.584315
3636	1.583647
3632	1.578354
3628	1.576995
3624	1.582121
3620	1.586008
3616	1.587247
3612	1.587557
3608	1.590347
3604	1.595330
3600	1.598739
3596	1.601552
3592	1.602649
3588	1.602959
3584	1.606345
3580	1.610803
3576	1.613354
3572	1.613926
3568	1.615738
3564	1.620817
3560	1.625657
3556	1.627421
3552	1.628160
3548	1.629137
3544	1.629567
3540	1.629710
3536	1.630544
3532	1.632332
3528	1.633834
3524	1.634836
3520	1.636505
3516	1.638007
3512	1.636767
3508	1.633334
3504	1.630520
3500	1.629757
3496	1.630544
3492	1.630592
3488	1.627802
3484	1.623535
3480	1.620984
3476	1.620030
3472	1.619911
3468	1.619672
3464	1.617503
3460	1.613545
3456	1.609134
3452	1.605534
3448	1.603221
3444	1.600337
3440	1.596403
3436	1.593208
3432	1.591229
3428	1.590490
3424	1.591038
3420	1.592350
3416	1.594138
3412	1.596522
3408	1.599216
3404	1.601815
3400	1.605033
3396	1.608490
3392	1.611256
3388	1.613402
3384	1.614832
3380	1.617097
3376	1.621532
3372	1.625490
3368	1.629495
3364	1.635289
3360	1.641750
3356	1.648473
3352	1.655626
3348	1.662230
3344	1.667475
3340	1.671576
3336	1.675367
3332	1.680302
3328	1.687049
3324	1.693701
3320	1.699090
3316	1.704764
3312	1.711797
3308	1.718902
3304	1.725077
3300	1.730847
3296	1.736354
3292	1.740813
3288	1.745057
3284	1.749610
3280	1.754379
3276	1.759696
3272	1.764392
3268	1.768517
3264	1.772284
3260	1.775193
3256	1.777648
3252	1.781296
3248	1.785564
3244	1.788759
3240	1.791906
3236	1.793384
3232	1.793789
3228	1.795077
3224	1.795125
3220	1.794600
3216	1.794624
3212	1.794862
3208	1.795220
3204	1.796221
3200	1.797533
3196	1.798105
3192	1.799702
3188	1.802587
3184	1.804041
3180	1.804065
3176	1.804232
3172	1.804447
3168	1.805543
3164	1.807522
3160	1.809763
3156	1.813435
3152	1.817631
3148	1.821160
3144	1.825356
3140	1.830029
3136	1.833581
3132	1.837038
3128	1.841688
3124	1.846528
3120	1.852321
3116	1.859188
3112	1.865029
3108	1.869821
3104	1.875710
3100	1.883292
3096	1.890778
3092	1.898145
3088	1.907420
3084	1.916837
3080	1.923990
3076	1.929688
3072	1.934266
3068	1.938891
3064	1.944732
3060	1.951813
3056	1.960062
3052	1.967501
3048	1.973605
3044	1.978707
3040	1.981997
3036	1.984667
3032	1.985907
3028	1.981830
3024	1.972651
3020	1.965045
3016	1.969289
3012	1.987171
3008	2.007365
3004	2.021503
3000	2.030920
2996	2.037096
2992	2.039527
2988	2.038598
2984	2.033543
2980	2.024197
2976	2.010416
2972	1.989579
2968	1.964950
2964	1.945281
2960	1.934385
2956	1.930403
2952	1.927232
2948	1.916384
2944	1.891422
2940	1.855397
2936	1.820206
2932	1.791691
2928	1.772356
2924	1.775646
2920	1.809668
2916	1.859521
2912	1.903510
2908	1.932907
2904	1.952886
2900	1.968765
2896	1.981544
2892	1.993155
2888	2.004384
2884	2.012920
2880	2.014732
2876	2.007675
2872	1.989221
2868	1.957273
2864	1.923704
2860	1.912355
2856	1.932978
2852	1.972317
2848	2.014136
2844	2.049994
2840	2.076840
2836	2.096223
2832	2.111339
2828	2.124500
2824	2.137327
2820	2.149033
2816	2.158832
2812	2.167940
2808	2.176642
2804	2.184081
2800	2.190661
2796	2.197384
2792	2.204608
2788	2.211833
2784	2.218675
2780	2.225756
2776	2.233886
2772	2.241730
2768	2.246737
2764	2.249574
2760	2.252864
2756	2.256727
2752	2.259731
2748	2.261304
2744	2.262878
2740	2.263474
2736	2.262496
2732	2.262592
2728	2.263021
2724	2.262449
2720	2.262187
2716	2.261352
2712	2.260112
2708	2.258515
2704	2.254390
2700	2.250313
2696	2.249169
2692	2.248620
2688	2.246880
2684	2.244901
2680	2.242588
2676	2.239823
2672	2.237629
2668	2.235102
2664	2.232146
2660	2.228879
2656	2.225613
2652	2.224826
2648	2.225923
2644	2.225947
2640	2.224922
2636	2.224516
2632	2.224922
2628	2.224850
2624	2.224779
2620	2.226543
2616	2.228975
2612	2.230000
2608	2.231097
2604	2.232789
2600	2.233529
2596	2.233457
2592	2.234339
2588	2.237892
2584	2.244067
2580	2.251434
2576	2.258372
2572	2.264761
2568	2.270722
2564	2.275443
2560	2.280378
2556	2.285838
2552	2.290821
2548	2.296257
2544	2.301573
2540	2.306199
2536	2.310109
2532	2.312970
2528	2.316260
2524	2.320647
2520	2.324199
2516	2.325940
2512	2.327036
2508	2.329158
2504	2.332115
2500	2.333784
2496	2.333784
2492	2.332377
2488	2.330255
2484	2.328968
2480	2.328205
2476	2.326750
2472	2.324128
2468	2.321147
2464	2.318453
2460	2.315711
2456	2.312016
2452	2.307415
2448	2.302765
2444	2.298855
2440	2.295303
2436	2.290821
2432	2.286028
2428	2.281832
2424	2.277898
2420	2.274131
2416	2.270269
2412	2.266788
2408	2.264785
2404	2.262926
2400	2.260279
2396	2.257823
2392	2.255558
2388	2.253365
2384	2.251863
2380	2.249479
2376	2.245187
2372	2.240610
2368	2.237248
2364	2.235913
2360	2.238368
2356	2.246546
2352	2.257204
2348	2.264165
2344	2.267479
2340	2.270650
2336	2.274990
2332	2.281141
2328	2.289366
2324	2.299022
2320	2.308416
2316	2.316045
2312	2.322745
2308	2.330231
2304	2.338099
2300	2.344799
2296	2.350640
2292	2.356386
2288	2.361655
2284	2.366137
2280	2.369594
2276	2.372884
2272	2.376484
2268	2.379035
2264	2.380466
2260	2.381920
2256	2.383399
2252	2.384471
2248	2.385187
2244	2.385854
2240	2.386689
2236	2.387475
2232	2.386736
2228	2.384185
2224	2.381730
2220	2.379179
2216	2.376317
2212	2.374124
2208	2.371001
2204	2.367138
2200	2.363991
2196	2.360868
2192	2.357625
2188	2.354764
2184	2.352452
2180	2.350163
2176	2.347087
2172	2.343034
2168	2.339529
2164	2.338600
2160	2.341604
2156	2.344274
2152	2.344274
2148	2.343511
2144	2.342033
2140	2.341318
2136	2.341127
2132	2.340126
2128	2.338886
2124	2.338194
2120	2.338719
2116	2.340340
2112	2.341771
2108	2.342963
2104	2.344322
2100	2.344727
2096	2.344441
2092	2.343916
2088	2.343773
2084	2.345561
2080	2.349495
2076	2.355670
2072	2.363705
2068	2.372193
2064	2.380204
2060	2.388119
2056	2.396368
2052	2.403879
2048	2.410101
2044	2.417922
2040	2.427220
2036	2.434134
2032	2.438640
2028	2.442574
2024	2.446317
2020	2.450394
2016	2.453708
2012	2.455115
2008	2.456712
2004	2.459096
2000	2.460837
1996	2.461695
1992	2.461147
1988	2.459573
1984	2.457308
1980	2.453994
1976	2.449703
1972	2.444481
1968	2.439665
1964	2.436113
1960	2.433300
1956	2.430748
1952	2.428030
1948	2.424860
1944	2.421116
1940	2.418375
1936	2.416396
1932	2.413010
1928	2.409076
1924	2.404165
1920	2.397823
1916	2.392387
1912	2.388668
1908	2.385449
1904	2.381706
1900	2.377939
1896	2.374672
1892	2.372145
1888	2.373051
1884	2.377200
1880	2.379751
1876	2.379727
1872	2.378511
1868	2.379393
1864	2.385044
1860	2.391076
1856	2.394437
1852	2.396035
1848	2.395367
1844	2.396941
1840	2.404284
1836	2.410197
1832	2.411103
1828	2.412748
1824	2.418088
1820	2.423667
1816	2.426719
1812	2.429294
1808	2.432394
1804	2.433156
1800	2.432036
1796	2.429986
1792	2.428865
1788	2.430343
1784	2.431488
1780	2.429246
1776	2.420425
1772	2.411723
1768	2.412462
1764	2.413535
1760	2.408885
1756	2.399444
1752	2.385687
1748	2.374100
1744	2.362823
1740	2.344179
1736	2.324461
1732	2.320384
1728	2.328395
1724	2.324986
1720	2.306914
1716	2.296614
1712	2.299022
1708	2.292823
1704	2.270913
1700	2.248382
1696	2.246165
1692	2.255940
1688	2.248144
1684	2.235150
1680	2.235627
1676	2.232384
1672	2.223300
1668	2.217531
1664	2.212429
1660	2.199840
1656	2.173829
1652	2.155661
1648	2.157998
1644	2.161788
1640	2.153611
1636	2.139806
1632	2.132511
1628	2.123332
1624	2.103829
1620	2.074909
1616	2.037811
1612	1.999068
1608	1.973032
1604	1.974558
1600	1.993680
1596	2.009606
1592	2.015757
1588	2.014541
1584	2.006673
1580	1.991653
1576	1.980042
1572	1.978683
1568	1.974582
1564	1.951909
1560	1.923727
1556	1.925444
1552	1.948499
1548	1.957082
1544	1.953983
1540	1.975297
1536	2.030014
1532	2.081799
1528	2.106046
1524	2.108931
1520	2.105259
1516	2.100086
1512	2.086448
1508	2.057719
1504	1.990771
1500	1.848435
1496	1.698637
1492	1.681900
1488	1.789259
1484	1.901268
1480	1.958394
1476	1.971316
1472	1.969170
1468	1.960563
1464	1.933646
1460	1.876187
1456	1.801443
1452	1.760125
1448	1.783108
1444	1.831102
1440	1.855206
1436	1.861500
1432	1.867032
1428	1.869082
1424	1.863932
1420	1.853585
1416	1.841783
1412	1.815819
1408	1.767730
1404	1.728940
1400	1.732087
1396	1.764035
1392	1.788735
1388	1.789498
1384	1.786398
1380	1.797342
1376	1.809644
1372	1.815438
1368	1.816773
1364	1.815605
1360	1.815819
1356	1.815581
1352	1.813673
1348	1.812481
1344	1.812148
1340	1.815676
1336	1.826143
1332	1.838517
1328	1.846861
1324	1.851272
1320	1.854491
1316	1.857185
1312	1.857995
1308	1.857495
1304	1.857209
1300	1.857066
1296	1.856827
1292	1.855635
1288	1.853823
1284	1.852464
1280	1.847863
1276	1.834392
1272	1.806950
1268	1.763701
1264	1.723647
1260	1.720714
1256	1.756930
1252	1.797986
1248	1.823210
1244	1.834774
1240	1.837325
1236	1.835465
1232	1.831650
1228	1.824617
1224	1.814079
1220	1.799511
1216	1.779460
1212	1.759433
1208	1.747798
1204	1.744604
1200	1.744389
1196	1.743459
1192	1.739478
1188	1.731705
1184	1.721978
1180	1.712083
1176	1.700687
1172	1.685357
1168	1.666879
1164	1.647734
1160	1.630187
1156	1.618552
1152	1.612973
1148	1.607894
1144	1.599073
1140	1.586699
1136	1.572299
1132	1.556134
1128	1.537704
1124	1.518177
1120	1.497554
1116	1.476120
1112	1.456594
1108	1.442432
1104	1.433897
1100	1.428031
1096	1.423430
1092	1.421236
1088	1.423263
1084	1.424789
1080	1.423215
1076	1.424860
1072	1.431608
1068	1.438260
1064	1.438641
1060	1.421594
1056	1.370644
1052	1.310968
1048	1.306438
1044	1.350831
1040	1.382398
1036	1.386094
1032	1.378560
1028	1.368808
1024	1.361727
1020	1.360511
1016	1.366138
1012	1.376724
1008	1.388168
1004	1.396489
1000	1.400470
996	 1.400279
992	 1.396584
988	 1.390886
984	 1.383686
980	 1.376008
976	 1.367998
972	 1.357316
968	 1.343345
964	 1.328563
960	 1.314234
956	 1.300001
952	 1.285934
948	 1.273679
944	 1.265430
940	 1.259016
936	 1.251411
932	 1.242971
928	 1.233935
924	 1.224803
920	 1.214623
916	 1.200628
912	 1.184582
908	 1.171445
904	 1.162362
900	 1.155519
896	 1.149535
892	 1.140832
888	 1.121330
884	 1.088166
880	 1.051640
876	 1.030349
872	 1.036906
868	 1.061868
864	 1.084232
860	 1.094031
856	 1.093220
852	 1.087117
848	 1.080203
844	 1.072835
840	 1.059317
836	 1.026964
832	 0.964283
828	 0.887012
824	 0.847935
820	 0.873398
816	 0.920224
812	 0.945115
808	 0.949549
804	 0.947833
800	 0.947451
796	 0.951409
792	 0.960135
788	 0.970506
784	 0.977563
780	 0.979423
776	 0.977540
772	 0.974464
768	 0.971746
764	 0.968718
760	 0.964832
756	 0.960540
752	 0.955700
748	 0.950169
744	 0.943374
740	 0.934791
736	 0.925326
732	 0.914430
728	 0.901627
724	 0.889587
720	 0.879216
716	 0.868654
712	 0.856876
708	 0.844025
704	 0.829839
700	 0.813388
696	 0.791549
692	 0.761532
688	 0.736188
684	 0.730991
680	 0.735211
676	 0.732946
672	 0.724554
668	 0.715279
664	 0.706529
660	 0.696849
656	 0.687050
652	 0.676941
648	 0.665283
644	 0.653314
640	 0.642585
636	 0.632739
632	 0.622844
628	 0.612568
624	 0.602388
620	 0.591254
616	 0.576210
612	 0.556492
608	 0.536513
604	 0.525569
600	 0.524640
596	 0.523924
592	 0.518965
588	 0.512909
584	 0.507712
580	 0.503206
576	 0.499892
572	 0.497961
568	 0.494337
564	 0.486826
560	 0.477910
556	 0.470590
552	 0.465250
548	 0.459694
544	 0.452136
540	 0.444006
536	 0.436592
532	 0.428247
528	 0.417900
524	 0.407266
520	 0.397777
516	 0.388288
512	 0.379300
508	 0.370621
504	 0.359535
500	 0.346136
496	 0.332403
492	 0.318264
488	 0.304508
484	 0.290560
480	 0.274801
476	 0.260019
472	 0.249099
468	 0.239491
464	 0.226879
460	 0.211191
456	 0.195837
452	 0.182127
448	 0.170683
444	 0.161314
440	 0.150823
436	 0.138664
432	 0.125837
428	 0.112438
424	 0.099849
420	 0.088548
416	 0.077152
412	 0.065326
408	 0.054860
404	 0.046277
400	 0.037956
396	 0.030303
392	 0.025224
388	 0.022315
384	 0.018739
380	 0.013446
376	 0.009989
372	 0.007987
370	 0.006914