File: Bakgrunnsmateriale/MATLAB/FTIR/ftir_data/subAa/Mapping_121/BZ1503107-1_t72_cm-1.asc
PE IR       SPECTRUM    SPECTRUM    ASCII       PEDS        1.60
  -1
BZ6AA6~1.ASC
17/04/07
19:11:09.00
17/04/07
19:11:09.00
tln
$BZ1503107-1_t0072$<tbV0>[0.0,2.6,8.0,0.0,27,1,0]
370
64

2002,4.07
MIRTGS : RIGHTBACK : INTERNAL 2
MIR : ON : INTERNAL 2
OPTKBR

0.200000
8
8.000000
FILLER
RATIO
SPECTRUM
UNLOCKED 256

DOUBLE
64
COMBINED
1
0
0

1.000000
RATIO

1
0
TRUE
51149
0
LEFT NOT FITTED RIGHT NOT FITTED 0
NONE
NONE
15600
12
4.427000
51148
TRUE
1 0 8 72 0 0 0 0

15798

#HDR
-1
-1
#GR
CM-1
%T
2.38419e-05
0.0
5000
-1.000000
4631
8
73.2925
51.1179
#DATA
5000	64.8177
4996	65.3061
4992	65.5994
4988	65.4746
4984	65.005
4980	64.6228
4976	64.4934
4972	64.5219
4968	64.4866
4964	64.4306
4960	64.5504
4956	64.7171
4952	64.7019
4948	64.4253
4944	64.3005
4940	64.4788
4936	64.7102
4932	64.8472
4928	64.7101
4924	64.5241
4920	64.6183
4916	64.9509
4912	65.1585
4908	64.8961
4904	64.3576
4900	64.1578
4896	64.4999
4892	64.8778
4888	65.0046
4884	65.0545
4880	65.1237
4876	65.055
4872	64.968
4868	64.9277
4864	64.6858
4860	64.5277
4856	64.644
4852	64.6093
4848	64.2912
4844	64.0595
4840	64.2039
4836	64.7063
4832	64.9428
4828	64.6458
4824	64.4838
4820	64.6875
4816	64.946
4812	64.9081
4808	64.5703
4804	64.351
4800	64.3027
4796	64.2922
4792	64.3691
4788	64.3878
4784	64.1859
4780	63.9817
4776	64.0927
4772	64.3581
4768	64.5292
4764	64.6285
4760	64.5534
4756	64.432
4752	64.4605
4748	64.4025
4744	64.2466
4740	64.2537
4736	64.3726
4732	64.4588
4728	64.5794
4724	64.7506
4720	64.8754
4716	64.8989
4712	64.6631
4708	64.3244
4704	64.2851
4700	64.4822
4696	64.5545
4692	64.3654
4688	64.1764
4684	64.1618
4680	64.268
4676	64.3092
4672	64.2712
4668	64.3846
4664	64.5318
4660	64.5783
4656	64.4816
4652	64.3308
4648	64.3275
4644	64.4325
4640	64.5542
4636	64.5762
4632	64.543
4628	64.5001
4624	64.3942
4620	64.4141
4616	64.6871
4612	64.8813
4608	64.7981
4604	64.752
4600	64.8797
4596	65.0215
4592	64.9745
4588	64.7983
4584	64.7772
4580	64.9548
4576	65.1265
4572	65.0835
4568	64.9099
4564	64.8086
4560	64.7108
4556	64.609
4552	64.676
4548	64.7682
4544	64.8321
4540	64.8623
4536	64.813
4532	64.7319
4528	64.656
4524	64.8324
4520	65.079
4516	65.0259
4512	65.0364
4508	65.2692
4504	65.2399
4500	65.2508
4496	65.5325
4492	65.6398
4488	65.6385
4484	65.5165
4480	65.0823
4476	64.7026
4472	64.4741
4468	64.4132
4464	64.4871
4460	64.4852
4456	64.7512
4452	65.1134
4448	64.9535
4444	64.9446
4440	65.4267
4436	66.0631
4432	68.4278
4428	67.3645
4424	61.679
4420	58.9064
4416	54.8061
4412	51.1179
4408	59.1789
4404	70.5705
4400	73.0169
4396	68.9584
4392	65.1437
4388	64.7562
4384	65.8036
4380	65.8407
4376	65.1532
4372	64.7992
4368	65.0754
4364	65.2987
4360	65.2927
4356	65.3717
4352	65.3836
4348	65.2537
4344	65.0932
4340	64.9746
4336	64.9498
4332	64.9332
4328	64.9016
4324	65.0416
4320	65.2881
4316	65.3106
4312	65.1165
4308	64.851
4304	64.7281
4300	64.7641
4296	64.8238
4292	65.0579
4288	65.2291
4284	64.9775
4280	64.6835
4276	64.7079
4272	64.8093
4268	64.7966
4264	64.7889
4260	64.8576
4256	64.9493
4252	64.9524
4248	64.8981
4244	65.017
4240	65.1736
4236	65.056
4232	64.7874
4228	64.7034
4224	64.8373
4220	64.8762
4216	64.7474
4212	64.7128
4208	64.7801
4204	64.7588
4200	64.6342
4196	64.5458
4192	64.5912
4188	64.646
4184	64.6204
4180	64.671
4176	64.9073
4172	65.0549
4168	65.0085
4164	65.0064
4160	64.9869
4156	64.8394
4152	64.7209
4148	64.6869
4144	64.5529
4140	64.2987
4136	64.2434
4132	64.5517
4128	64.9205
4124	65.11
4120	65.1084
4116	64.9467
4112	64.7561
4108	64.6569
4104	64.7725
4100	64.9663
4096	64.9072
4092	64.7736
4088	64.8106
4084	64.8938
4080	64.9364
4076	64.963
4072	64.953
4068	64.8824
4064	64.9036
4060	64.9847
4056	64.8616
4052	64.6352
4048	64.5129
4044	64.5362
4040	64.712
4036	64.91
4032	65.0097
4028	64.9269
4024	64.7611
4020	64.7503
4016	64.8213
4012	64.8781
4008	64.9991
4004	65.1062
4000	65.0123
3996	64.7685
3992	64.6668
3988	64.74
3984	64.8458
3980	64.9808
3976	65.0778
3972	65.0758
3968	64.993
3964	64.8468
3960	64.7584
3956	64.7666
3952	64.8401
3948	64.966
3944	64.8968
3940	64.6764
3936	64.6156
3932	64.5969
3928	64.5153
3924	64.5159
3920	64.6777
3916	64.843
3912	64.7835
3908	64.6866
3904	64.8731
3900	65.0878
3896	65.0321
3892	65.0322
3888	65.0691
3884	64.8811
3880	64.7918
3876	64.8746
3872	64.9296
3868	64.975
3864	64.9972
3860	65.0608
3856	65.0807
3852	64.9165
3848	64.7763
3844	64.7524
3840	64.811
3836	64.8656
3832	64.7439
3828	64.6412
3824	64.7001
3820	64.7344
3816	64.7858
3812	64.882
3808	64.8811
3804	64.837
3800	64.8273
3796	64.8695
3792	64.9076
3788	64.9035
3784	64.898
3780	64.9158
3776	64.9795
3772	64.9941
3768	64.8897
3764	64.7379
3760	64.6621
3756	64.6802
3752	64.7352
3748	64.7554
3744	64.79
3740	64.9192
3736	65.0467
3732	65.1284
3728	65.0404
3724	64.7964
3720	64.6551
3716	64.6823
3712	64.7894
3708	64.8743
3704	64.9398
3700	64.9614
3696	64.9305
3692	64.9313
3688	64.95
3684	64.973
3680	64.9327
3676	64.8725
3672	64.8659
3668	64.7771
3664	64.6852
3660	64.7132
3656	64.8342
3652	64.977
3648	64.9629
3644	64.8954
3640	64.9371
3636	64.9258
3632	64.8715
3628	64.8492
3624	64.8197
3620	64.7861
3616	64.7794
3612	64.8675
3608	64.9834
3604	65.0234
3600	65.0255
3596	65.0453
3592	65.0503
3588	65.0475
3584	65.0472
3580	64.9609
3576	64.8444
3572	64.8261
3568	64.8344
3564	64.8221
3560	64.8239
3556	64.8296
3552	64.8602
3548	64.8936
3544	64.908
3540	64.9226
3536	64.9482
3532	64.9862
3528	64.9705
3524	64.9389
3520	65.0026
3516	65.0694
3512	65.0561
3508	65.003
3504	64.949
3500	64.9022
3496	64.8449
3492	64.7995
3488	64.8241
3484	64.8458
3480	64.7828
3476	64.7737
3472	64.8866
3468	64.9927
3464	65.0122
3460	64.9724
3456	64.909
3452	64.8714
3448	64.9401
3444	65.0013
3440	64.9403
3436	64.8427
3432	64.784
3428	64.8119
3424	64.8396
3420	64.7883
3416	64.7583
3412	64.7675
3408	64.777
3404	64.8058
3400	64.8541
3396	64.931
3392	64.9672
3388	64.8837
3384	64.8173
3380	64.8567
3376	64.879
3372	64.8257
3368	64.8167
3364	64.8715
3360	64.897
3356	64.8917
3352	64.8302
3348	64.7723
3344	64.7717
3340	64.8161
3336	64.9173
3332	64.9235
3328	64.8392
3324	64.8054
3320	64.732
3316	64.6746
3312	64.7139
3308	64.715
3304	64.692
3300	64.7133
3296	64.7614
3292	64.7768
3288	64.7224
3284	64.6677
3280	64.6681
3276	64.6952
3272	64.6943
3268	64.6933
3264	64.7071
3260	64.6959
3256	64.7149
3252	64.7901
3248	64.8487
3244	64.8415
3240	64.8534
3236	64.9303
3232	64.9524
3228	64.8705
3224	64.7835
3220	64.7881
3216	64.827
3212	64.8221
3208	64.784
3204	64.7291
3200	64.751
3196	64.875
3192	64.8796
3188	64.7438
3184	64.6579
3180	64.656
3176	64.7256
3172	64.7712
3168	64.7587
3164	64.8218
3160	64.926
3156	64.9428
3152	64.8738
3148	64.8246
3144	64.8088
3140	64.7221
3136	64.6331
3132	64.6059
3128	64.5948
3124	64.6611
3120	64.8213
3116	64.9589
3112	64.9876
3108	64.8587
3104	64.6791
3100	64.6412
3096	64.6589
3092	64.6464
3088	64.6621
3084	64.6749
3080	64.7125
3076	64.7694
3072	64.8071
3068	64.8482
3064	64.8946
3060	64.9539
3056	64.9233
3052	64.7964
3048	64.7327
3044	64.7877
3040	64.89
3036	64.9208
3032	64.8417
3028	64.7461
3024	64.7387
3020	64.7435
3016	64.6973
3012	64.6912
3008	64.7216
3004	64.7167
3000	64.6869
2996	64.6677
2992	64.6663
2988	64.6729
2984	64.7174
2980	64.8326
2976	64.8347
2972	64.6783
2968	64.632
2964	64.6517
2960	64.591
2956	64.5742
2952	64.5796
2948	64.5538
2944	64.5614
2940	64.5669
2936	64.565
2932	64.5861
2928	64.6386
2924	64.7309
2920	64.7578
2916	64.6614
2912	64.5924
2908	64.6595
2904	64.6881
2900	64.6102
2896	64.6048
2892	64.6642
2888	64.7123
2884	64.688
2880	64.5884
2876	64.584
2872	64.6581
2868	64.6569
2864	64.6507
2860	64.7078
2856	64.7336
2852	64.7071
2848	64.6635
2844	64.5841
2840	64.4778
2836	64.4578
2832	64.5438
2828	64.6347
2824	64.7358
2820	64.8151
2816	64.8198
2812	64.7837
2808	64.7198
2804	64.6474
2800	64.6189
2796	64.6242
2792	64.6339
2788	64.6662
2784	64.6955
2780	64.6979
2776	64.6686
2772	64.6485
2768	64.6656
2764	64.7298
2760	64.8156
2756	64.7852
2752	64.6495
2748	64.5992
2744	64.6692
2740	64.7315
2736	64.7445
2732	64.7268
2728	64.7025
2724	64.7021
2720	64.7027
2716	64.7203
2712	64.7452
2708	64.7381
2704	64.753
2700	64.7692
2696	64.7192
2692	64.6945
2688	64.7321
2684	64.7357
2680	64.6904
2676	64.6353
2672	64.6162
2668	64.6228
2664	64.5939
2660	64.5488
2656	64.5552
2652	64.6132
2648	64.623
2644	64.5759
2640	64.611
2636	64.6733
2632	64.6506
2628	64.6168
2624	64.6316
2620	64.6673
2616	64.6682
2612	64.6582
2608	64.6561
2604	64.6104
2600	64.5528
2596	64.553
2592	64.5776
2588	64.5431
2584	64.5238
2580	64.5625
2576	64.5821
2572	64.5579
2568	64.5181
2564	64.5274
2560	64.5618
2556	64.5755
2552	64.5825
2548	64.5782
2544	64.5998
2540	64.6449
2536	64.6149
2532	64.5203
2528	64.5022
2524	64.6005
2520	64.6317
2516	64.4844
2512	64.3493
2508	64.3869
2504	64.5118
2500	64.5929
2496	64.608
2492	64.5588
2488	64.477
2484	64.466
2480	64.5489
2476	64.6471
2472	64.6458
2468	64.5718
2464	64.5807
2460	64.6619
2456	64.6764
2452	64.6179
2448	64.6048
2444	64.6073
2440	64.5838
2436	64.5998
2432	64.6016
2428	64.5833
2424	64.6214
2420	64.6542
2416	64.614
2412	64.5605
2408	64.5231
2404	64.4896
2400	64.4589
2396	64.4062
2392	64.3802
2388	64.4043
2384	64.41
2380	64.433
2376	64.479
2372	64.4884
2368	64.4925
2364	64.4865
2360	64.4638
2356	64.4215
2352	64.3915
2348	64.439
2344	64.4967
2340	64.5284
2336	64.5643
2332	64.5335
2328	64.4259
2324	64.3637
2320	64.3996
2316	64.4974
2312	64.56
2308	64.5411
2304	64.5035
2300	64.4118
2296	64.2998
2292	64.3216
2288	64.4244
2284	64.4777
2280	64.5034
2276	64.5385
2272	64.5232
2268	64.4531
2264	64.4133
2260	64.4063
2256	64.4094
2252	64.4131
2248	64.3485
2244	64.2872
2240	64.3104
2236	64.3378
2232	64.3787
2228	64.4351
2224	64.4317
2220	64.3835
2216	64.3575
2212	64.3862
2208	64.4147
2204	64.3581
2200	64.2678
2196	64.2382
2192	64.2398
2188	64.2703
2184	64.3137
2180	64.2519
2176	64.141
2172	64.1358
2168	64.2281
2164	64.2749
2160	64.2451
2156	64.2517
2152	64.2879
2148	64.3065
2144	64.3426
2140	64.3408
2136	64.3011
2132	64.3229
2128	64.3763
2124	64.3354
2120	64.2341
2116	64.2287
2112	64.3125
2108	64.3504
2104	64.2948
2100	64.2558
2096	64.2934
2092	64.3085
2088	64.2455
2084	64.1915
2080	64.2264
2076	64.3034
2072	64.349
2068	64.3456
2064	64.3188
2060	64.2672
2056	64.2035
2052	64.1777
2048	64.1889
2044	64.2265
2040	64.2739
2036	64.2661
2032	64.2047
2028	64.1653
2024	64.1658
2020	64.1668
2016	64.1478
2012	64.125
2008	64.0966
2004	64.0781
2000	64.0849
1996	64.0946
1992	64.108
1988	64.116
1984	64.1224
1980	64.1483
1976	64.1617
1972	64.1691
1968	64.206
1964	64.2532
1960	64.2798
1956	64.2571
1952	64.1514
1948	64.0596
1944	64.0808
1940	64.1191
1936	64.1527
1932	64.214
1928	64.2277
1924	64.2001
1920	64.1859
1916	64.1889
1912	64.1999
1908	64.1835
1904	64.1444
1900	64.0877
1896	64.0641
1892	64.1387
1888	64.1714
1884	64.1334
1880	64.1388
1876	64.1345
1872	64.0973
1868	64.1
1864	64.1255
1860	64.1129
1856	64.0981
1852	64.1138
1848	64.1043
1844	64.0473
1840	63.9916
1836	63.9742
1832	64.0093
1828	64.0623
1824	64.0557
1820	64.0397
1816	64.0619
1812	64.0731
1808	64.0759
1804	64.0836
1800	64.1136
1796	64.139
1792	64.097
1788	64.0156
1784	63.9828
1780	64.0215
1776	64.0664
1772	64.1042
1768	64.1132
1764	64.063
1760	64.0314
1756	63.9856
1752	63.8632
1748	63.7851
1744	63.7807
1740	63.7891
1736	63.8191
1732	63.8675
1728	63.8983
1724	63.8836
1720	63.8842
1716	63.9255
1712	63.9593
1708	63.9403
1704	63.8631
1700	63.824
1696	63.8725
1692	63.9198
1688	63.8608
1684	63.7636
1680	63.7564
1676	63.7654
1672	63.7415
1668	63.7576
1664	63.7835
1660	63.7953
1656	63.8028
1652	63.8182
1648	63.8385
1644	63.7909
1640	63.7
1636	63.6642
1632	63.7696
1628	63.9329
1624	63.992
1620	64.0126
1616	64.0059
1612	63.8822
1608	63.7621
1604	63.7801
1600	63.8498
1596	63.809
1592	63.7163
1588	63.7658
1584	63.8563
1580	63.8221
1576	63.7617
1572	63.7756
1568	63.78
1564	63.7131
1560	63.6834
1556	63.6986
1552	63.6662
1548	63.6716
1544	63.7723
1540	63.847
1536	63.8199
1532	63.7653
1528	63.7406
1524	63.7327
1520	63.74
1516	63.7883
1512	63.8227
1508	63.8054
1504	63.7745
1500	63.7182
1496	63.6674
1492	63.6871
1488	63.7292
1484	63.7234
1480	63.6901
1476	63.6693
1472	63.628
1468	63.5634
1464	63.5622
1460	63.6717
1456	63.7316
1452	63.6786
1448	63.6372
1444	63.6052
1440	63.6005
1436	63.6295
1432	63.6729
1428	63.7274
1424	63.7203
1420	63.6574
1416	63.6127
1412	63.5718
1408	63.5381
1404	63.5401
1400	63.5566
1396	63.6131
1392	63.6526
1388	63.599
1384	63.5241
1380	63.4642
1376	63.4196
1372	63.4716
1368	63.5627
1364	63.5711
1360	63.5387
1356	63.5231
1352	63.5267
1348	63.5292
1344	63.5383
1340	63.5829
1336	63.6124
1332	63.5831
1328	63.614
1324	63.6885
1320	63.6224
1316	63.5174
1312	63.5326
1308	63.5605
1304	63.5523
1300	63.5343
1296	63.4769
1292	63.4689
1288	63.5236
1284	63.54
1280	63.5236
1276	63.4927
1272	63.4823
1268	63.4734
1264	63.4091
1260	63.3563
1256	63.3859
1252	63.4311
1248	63.4093
1244	63.3824
1240	63.4068
1236	63.4386
1232	63.4542
1228	63.4695
1224	63.4785
1220	63.4321
1216	63.3874
1212	63.4182
1208	63.4401
1204	63.4226
1200	63.4142
1196	63.3962
1192	63.3203
1188	63.2804
1184	63.3326
1180	63.3582
1176	63.328
1172	63.2679
1168	63.2219
1164	63.2019
1160	63.1974
1156	63.2504
1152	63.2938
1148	63.2737
1144	63.305
1140	63.4046
1136	63.4294
1132	63.3808
1128	63.3192
1124	63.2944
1120	63.2983
1116	63.2786
1112	63.2426
1108	63.1904
1104	63.1431
1100	63.128
1096	63.1334
1092	63.1696
1088	63.2495
1084	63.2722
1080	63.1832
1076	63.1043
1072	63.111
1068	63.1681
1064	63.2314
1060	63.2294
1056	63.1724
1052	63.1216
1048	63.1052
1044	63.1267
1040	63.1165
1036	63.1163
1032	63.2392
1028	63.2935
1024	63.1557
1020	63.0664
1016	63.108
1012	63.1516
1008	63.1476
1004	63.1512
1000	63.113
996	 63.0319
992	 63.0871
988	 63.2478
984	 63.3663
980	 63.3574
976	 63.1732
972	 63.0252
968	 63.1211
964	 63.2671
960	 63.2992
956	 63.2606
952	 63.0695
948	 62.8874
944	 62.9915
940	 63.194
936	 63.2594
932	 63.2803
928	 63.2844
924	 63.1811
920	 63.0661
916	 63.0524
912	 63.0605
908	 63.031
904	 63.0583
900	 63.0784
896	 63.0924
892	 63.1324
888	 63.0385
884	 62.9177
880	 62.9865
876	 63.2021
872	 63.3604
868	 63.3292
864	 63.163
860	 63.1137
856	 63.1715
852	 63.1374
848	 63.1123
844	 63.1694
840	 63.2695
836	 63.3402
832	 63.253
828	 63.1647
824	 63.374
820	 63.5871
816	 63.571
812	 63.4811
808	 63.3579
804	 63.2806
800	 63.2116
796	 63.1286
792	 63.0467
788	 62.9872
784	 62.9789
780	 63.0502
776	 63.0817
772	 62.8752
768	 62.7001
764	 62.6365
760	 62.5044
756	 62.3526
752	 62.1564
748	 62.1141
744	 62.3537
740	 62.4847
736	 62.4485
732	 62.5181
728	 62.638
724	 62.6874
720	 62.5659
716	 62.3034
712	 62.1975
708	 62.3431
704	 62.8785
700	 63.365
696	 63.1587
692	 63.1704
688	 63.7134
684	 63.8084
680	 63.6106
676	 63.3844
672	 62.9981
668	 62.582
664	 62.4872
660	 62.7822
656	 62.7436
652	 62.3812
648	 62.2576
644	 62.2493
640	 62.0125
636	 61.7585
632	 62.0555
628	 62.5099
624	 62.5688
620	 62.5831
616	 62.8109
612	 63.0364
608	 62.9263
604	 62.5896
600	 62.2916
596	 61.9914
592	 61.7905
588	 61.8069
584	 62.0982
580	 62.4974
576	 62.7394
572	 62.8646
568	 62.9354
564	 62.8792
560	 62.7408
556	 62.6678
552	 62.5832
548	 62.3305
544	 62.2552
540	 62.3902
536	 62.4081
532	 62.5583
528	 62.8937
524	 63.0237
520	 62.7455
516	 62.5007
512	 62.3661
508	 62.1217
504	 62.0363
500	 62.185
496	 62.5261
492	 62.812
488	 62.5832
484	 62.2503
480	 62.157
476	 61.8113
472	 61.6103
468	 62.0579
464	 62.6882
460	 62.8346
456	 62.7183
452	 62.9547
448	 63.0073
444	 62.8649
440	 63.1912
436	 63.0913
432	 62.2478
428	 62.4651
424	 63.2388
420	 62.5913
416	 61.6236
412	 60.958
408	 60.6057
404	 59.3167
400	 56.4349
396	 56.6196
392	 58.4764
388	 58.6836
384	 56.3914
380	 52.7434
376	 59.3188
372	 62.9634
370	 55.2502