File: Bakgrunnsmateriale/MATLAB/FTIR/ftir_data/subAa/Mapping_121/BZ1503107-1_t94_cm-1.asc
PE IR       SPECTRUM    SPECTRUM    ASCII       PEDS        1.60
  -1
BZ6CA5~1.ASC
17/04/07
20:59:51.00
17/04/07
20:59:51.00
tln
$BZ1503107-1_t0094$<tbV0>[0.0,7.8,8.0,0.0,27,1,0]
370
64

2002,4.07
MIRTGS : RIGHTBACK : INTERNAL 2
MIR : ON : INTERNAL 2
OPTKBR

0.200000
8
8.000000
FILLER
RATIO
SPECTRUM
UNLOCKED 256

DOUBLE
64
COMBINED
1
0
0

1.000000
RATIO

1
0
TRUE
51149
0
LEFT NOT FITTED RIGHT NOT FITTED 0
NONE
NONE
15600
12
4.427000
51148
TRUE
1 0 8 72 0 0 0 0

15798

#HDR
-1
-1
#GR
CM-1
%T
2.38419e-05
0.0
5000
-1.000000
4631
8
88.2444
53.5846
#DATA
5000	63.8155
4996	64.0296
4992	64.008
4988	63.7971
4984	63.7357
4980	63.5857
4976	63.601
4972	64.3439
4968	64.9251
4964	64.4669
4960	64.2267
4956	64.8983
4952	65.6476
4948	65.2281
4944	64.0638
4940	64.2462
4936	64.804
4932	64.7006
4928	64.9326
4924	64.9549
4920	64.4071
4916	64.0014
4912	64.4274
4908	65.3769
4904	65.1382
4900	64.3686
4896	64.4916
4892	64.6367
4888	64.4802
4884	64.5364
4880	64.7861
4876	65.081
4872	65.1605
4868	64.8462
4864	64.6053
4860	64.6515
4856	64.6047
4852	64.3905
4848	64.1647
4844	64.2671
4840	64.6741
4836	64.8164
4832	64.61
4828	64.4616
4824	64.5822
4820	64.9586
4816	65.4262
4812	65.5692
4808	65.3171
4804	65.1099
4800	65.1145
4796	65.084
4792	65.009
4788	64.9269
4784	64.8396
4780	64.882
4776	64.8381
4772	64.6539
4768	64.5752
4764	64.6028
4760	64.6597
4756	64.6327
4752	64.5524
4748	64.6319
4744	64.7471
4740	64.675
4736	64.5149
4732	64.4521
4728	64.5381
4724	64.6285
4720	64.5529
4716	64.4943
4712	64.55
4708	64.5808
4704	64.6233
4700	64.6391
4696	64.5946
4692	64.5729
4688	64.6766
4684	64.8733
4680	64.9469
4676	64.9589
4672	65.0594
4668	64.9989
4664	64.82
4660	64.8102
4656	64.9254
4652	65.0341
4648	65.0432
4644	65.0398
4640	64.9741
4636	64.7573
4632	64.7525
4628	64.9453
4624	64.9354
4620	64.8799
4616	64.8095
4612	64.6287
4608	64.6493
4604	64.669
4600	64.5038
4596	64.5681
4592	64.6833
4588	64.5908
4584	64.5963
4580	64.6629
4576	64.4994
4572	64.3202
4568	64.3682
4564	64.3842
4560	64.1928
4556	64.0639
4552	64.2479
4548	64.3976
4544	64.2396
4540	64.1069
4536	64.2048
4532	64.5794
4528	64.9113
4524	64.7707
4520	64.3782
4516	64.1376
4512	64.0635
4508	64.0182
4504	64.211
4500	64.5986
4496	64.7877
4492	64.5056
4488	63.9359
4484	63.6688
4480	63.8112
4476	63.7472
4472	63.6195
4468	63.8121
4464	64.1145
4460	64.4968
4456	65.1556
4452	65.7222
4448	66.7573
4444	78.682
4440	88.2444
4436	79.2148
4432	69.8813
4428	66.6387
4424	65.6057
4420	65.044
4416	64.7964
4412	64.5714
4408	64.1572
4404	64.1025
4400	64.1534
4396	64.0321
4392	63.9855
4388	63.9848
4384	63.9939
4380	63.9293
4376	64.0063
4372	64.4371
4368	64.816
4364	64.8423
4360	64.7408
4356	64.6468
4352	64.5611
4348	64.5514
4344	64.4858
4340	64.4546
4336	64.6251
4332	64.7613
4328	64.766
4324	64.7856
4320	64.7595
4316	64.6475
4312	64.5971
4308	64.5465
4304	64.4841
4300	64.5717
4296	64.6228
4292	64.5368
4288	64.6062
4284	64.7196
4280	64.6456
4276	64.5427
4272	64.4557
4268	64.4052
4264	64.5113
4260	64.6584
4256	64.8301
4252	65.0097
4248	64.9741
4244	64.8502
4240	64.7628
4236	64.7009
4232	64.7158
4228	64.6823
4224	64.5506
4220	64.4588
4216	64.5034
4212	64.6584
4208	64.8082
4204	64.871
4200	64.8983
4196	64.9441
4192	65.0048
4188	65.0281
4184	65.0704
4180	65.1587
4176	65.2944
4172	65.4109
4168	65.1834
4164	64.8711
4160	64.8601
4156	64.9489
4152	65.0084
4148	65.0218
4144	64.9544
4140	64.8704
4136	64.9241
4132	65.057
4128	65.0573
4124	64.9661
4120	64.961
4116	65.0822
4112	65.1202
4108	65.0403
4104	65.0158
4100	64.9667
4096	64.9338
4092	64.9621
4088	64.8883
4084	64.867
4080	65.0156
4076	65.1423
4072	65.0409
4068	64.8211
4064	64.8399
4060	64.989
4056	64.9682
4052	64.8702
4048	64.777
4044	64.6874
4040	64.7106
4036	64.7576
4032	64.7851
4028	64.9482
4024	65.0374
4020	64.9379
4016	64.9192
4012	64.9395
4008	64.8481
4004	64.8017
4000	64.8754
3996	64.9185
3992	64.9461
3988	64.9895
3984	64.9759
3980	64.9009
3976	64.9136
3972	65.122
3968	65.1977
3964	65.0631
3960	64.9699
3956	64.8934
3952	64.7653
3948	64.5926
3944	64.5381
3940	64.6683
3936	64.8484
3932	64.9691
3928	64.8736
3924	64.7089
3920	64.694
3916	64.7153
3912	64.7885
3908	64.8684
3904	64.8699
3900	65.0017
3896	65.0791
3892	64.8494
3888	64.6668
3884	64.7394
3880	64.8021
3876	64.6924
3872	64.5788
3868	64.6164
3864	64.7078
3860	64.8035
3856	64.9421
3852	64.9959
3848	64.9036
3844	64.8448
3840	64.924
3836	64.9639
3832	64.8523
3828	64.7827
3824	64.8713
3820	64.9764
3816	65.02
3812	65.0466
3808	64.9966
3804	64.8878
3800	64.8876
3796	64.9849
3792	65.0233
3788	65.0368
3784	65.113
3780	65.1868
3776	65.2317
3772	65.2126
3768	65.0995
3764	64.9627
3760	64.8655
3756	64.8407
3752	64.8681
3748	64.9115
3744	64.958
3740	64.9877
3736	65.0592
3732	65.1192
3728	65.0468
3724	64.9903
3720	65.0455
3716	65.0773
3712	65.058
3708	65.0611
3704	65.0608
3700	65.0532
3696	65.0728
3692	65.1112
3688	65.1353
3684	65.0864
3680	65.0016
3676	64.9527
3672	64.9835
3668	65.0476
3664	65.0505
3660	65.0425
3656	65.033
3652	65.0192
3648	65.1117
3644	65.24
3640	65.2278
3636	65.1023
3632	65.0062
3628	64.9565
3624	64.9111
3620	64.8928
3616	64.8868
3612	64.8975
3608	64.9256
3604	64.9424
3600	64.941
3596	64.9727
3592	65.0579
3588	65.0537
3584	64.9861
3580	64.9388
3576	64.8879
3572	64.9023
3568	64.9887
3564	65.0201
3560	64.9137
3556	64.7689
3552	64.6829
3548	64.7474
3544	64.9159
3540	64.9728
3536	64.974
3532	65.0268
3528	65.0278
3524	64.915
3520	64.8319
3516	64.8817
3512	64.9206
3508	64.9054
3504	64.9454
3500	65.0387
3496	65.0711
3492	65.0103
3488	65.0008
3484	65.0181
3480	64.949
3476	64.9395
3472	65.0234
3468	65.0192
3464	64.9434
3460	64.9201
3456	64.9636
3452	65.0092
3448	65.0012
3444	64.9835
3440	64.9832
3436	64.965
3432	64.8828
3428	64.8534
3424	64.967
3420	64.994
3416	64.8893
3412	64.8659
3408	64.9551
3404	64.994
3400	64.8774
3396	64.7241
3392	64.6542
3388	64.7169
3384	64.9059
3380	65.0348
3376	65.003
3372	64.886
3368	64.8063
3364	64.8481
3360	64.8371
3356	64.7494
3352	64.7527
3348	64.8176
3344	64.8829
3340	64.8747
3336	64.8488
3332	64.8217
3328	64.7248
3324	64.6579
3320	64.7329
3316	64.8441
3312	64.8214
3308	64.8151
3304	64.9374
3300	65.057
3296	65.1313
3292	65.1118
3288	65.0067
3284	64.9215
3280	64.8561
3276	64.8601
3272	64.8769
3268	64.8494
3264	64.8903
3260	64.9319
3256	64.9387
3252	64.9478
3248	64.8871
3244	64.8245
3240	64.8418
3236	64.8562
3232	64.8277
3228	64.816
3224	64.8273
3220	64.7567
3216	64.65
3212	64.6806
3208	64.8066
3204	64.9412
3200	65.054
3196	65.0947
3192	65.05
3188	64.9276
3184	64.8402
3180	64.8729
3176	64.9089
3172	64.879
3168	64.8731
3164	64.9261
3160	64.9497
3156	64.8792
3152	64.807
3148	64.7915
3144	64.808
3140	64.8802
3136	64.914
3132	64.8125
3128	64.6909
3124	64.662
3120	64.7153
3116	64.8002
3112	64.822
3108	64.7943
3104	64.7826
3100	64.7341
3096	64.7104
3092	64.7827
3088	64.823
3084	64.7594
3080	64.7264
3076	64.7755
3072	64.7777
3068	64.7581
3064	64.8303
3060	64.9555
3056	64.987
3052	64.9094
3048	64.8689
3044	64.8549
3040	64.8112
3036	64.8037
3032	64.8036
3028	64.7774
3024	64.7643
3020	64.7899
3016	64.8444
3012	64.8365
3008	64.7837
3004	64.7726
3000	64.7752
2996	64.7597
2992	64.7455
2988	64.729
2984	64.718
2980	64.7297
2976	64.67
2972	64.5471
2968	64.501
2964	64.522
2960	64.5406
2956	64.5394
2952	64.5348
2948	64.5911
2944	64.6883
2940	64.6922
2936	64.6345
2932	64.6823
2928	64.7822
2924	64.8338
2920	64.8739
2916	64.8238
2912	64.6856
2908	64.6445
2904	64.7403
2900	64.8127
2896	64.7939
2892	64.7845
2888	64.7598
2884	64.6699
2880	64.6413
2876	64.6645
2872	64.612
2868	64.5568
2864	64.5671
2860	64.6041
2856	64.6048
2852	64.5599
2848	64.6203
2844	64.7448
2840	64.7686
2836	64.7594
2832	64.8166
2828	64.8724
2824	64.8324
2820	64.7638
2816	64.7252
2812	64.7315
2808	64.7632
2804	64.737
2800	64.6932
2796	64.7132
2792	64.7662
2788	64.8048
2784	64.8367
2780	64.822
2776	64.776
2772	64.7385
2768	64.7146
2764	64.765
2760	64.795
2756	64.7028
2752	64.6193
2748	64.659
2744	64.7307
2740	64.6945
2736	64.6392
2732	64.7534
2728	64.9198
2724	64.9352
2720	64.869
2716	64.8627
2712	64.8652
2708	64.7975
2704	64.729
2700	64.7141
2696	64.7207
2692	64.6614
2688	64.5718
2684	64.5663
2680	64.6309
2676	64.6903
2672	64.7198
2668	64.7262
2664	64.6726
2660	64.6143
2656	64.6371
2652	64.6926
2648	64.6968
2644	64.6735
2640	64.6847
2636	64.7083
2632	64.7484
2628	64.7535
2624	64.6548
2620	64.5715
2616	64.6081
2612	64.638
2608	64.5793
2604	64.5184
2600	64.5052
2596	64.5317
2592	64.5515
2588	64.6002
2584	64.6985
2580	64.7187
2576	64.6459
2572	64.5913
2568	64.6196
2564	64.6616
2560	64.6307
2556	64.5592
2552	64.5279
2548	64.5652
2544	64.5925
2540	64.5776
2536	64.5761
2532	64.6156
2528	64.6246
2524	64.5832
2520	64.5846
2516	64.6064
2512	64.594
2508	64.5868
2504	64.5887
2500	64.5619
2496	64.514
2492	64.5144
2488	64.5944
2484	64.6612
2480	64.6873
2476	64.7212
2472	64.7012
2468	64.6308
2464	64.5987
2460	64.6109
2456	64.6373
2452	64.6183
2448	64.5364
2444	64.4716
2440	64.4755
2436	64.5293
2432	64.59
2428	64.6276
2424	64.6522
2420	64.6414
2416	64.5731
2412	64.5177
2408	64.5178
2404	64.522
2400	64.516
2396	64.5094
2392	64.447
2388	64.3745
2384	64.4061
2380	64.4891
2376	64.5119
2372	64.4929
2368	64.4806
2364	64.4876
2360	64.5252
2356	64.5099
2352	64.4193
2348	64.4004
2344	64.456
2340	64.461
2336	64.4476
2332	64.4863
2328	64.5557
2324	64.6255
2320	64.609
2316	64.516
2312	64.4796
2308	64.4824
2304	64.4798
2300	64.489
2296	64.4867
2292	64.4632
2288	64.4217
2284	64.3802
2280	64.3884
2276	64.4554
2272	64.509
2268	64.4794
2264	64.4546
2260	64.5095
2256	64.538
2252	64.4893
2248	64.4141
2244	64.3439
2240	64.3056
2236	64.2943
2232	64.3052
2228	64.3666
2224	64.4421
2220	64.4468
2216	64.3761
2212	64.3457
2208	64.3704
2204	64.3318
2200	64.2611
2196	64.2455
2192	64.2525
2188	64.2611
2184	64.2748
2180	64.2849
2176	64.2997
2172	64.3382
2168	64.3806
2164	64.3725
2160	64.3118
2156	64.2527
2152	64.2732
2148	64.2938
2144	64.2331
2140	64.2148
2136	64.2585
2132	64.2916
2128	64.3028
2124	64.306
2120	64.3388
2116	64.3577
2112	64.3092
2108	64.2802
2104	64.3102
2100	64.3429
2096	64.3598
2092	64.3573
2088	64.364
2084	64.3471
2080	64.2283
2076	64.1107
2072	64.119
2068	64.1919
2064	64.2586
2060	64.3275
2056	64.3857
2052	64.3556
2048	64.2415
2044	64.2035
2040	64.265
2036	64.2979
2032	64.2784
2028	64.2293
2024	64.191
2020	64.2079
2016	64.2407
2012	64.2473
2008	64.2456
2004	64.2198
2000	64.1742
1996	64.1758
1992	64.2137
1988	64.2175
1984	64.178
1980	64.167
1976	64.2208
1972	64.2518
1968	64.213
1964	64.1781
1960	64.1773
1956	64.1765
1952	64.1558
1948	64.1153
1944	64.0894
1940	64.1246
1936	64.1465
1932	64.0829
1928	64.0452
1924	64.0806
1920	64.0794
1916	64.0887
1912	64.1547
1908	64.1562
1904	64.1248
1900	64.1275
1896	64.1336
1892	64.1387
1888	64.1374
1884	64.1039
1880	64.0831
1876	64.1159
1872	64.138
1868	64.113
1864	64.0899
1860	64.0895
1856	64.0854
1852	64.0697
1848	63.9984
1844	63.917
1840	63.967
1836	64.0561
1832	64.0423
1828	64.0276
1824	64.102
1820	64.1491
1816	64.1318
1812	64.1311
1808	64.1237
1804	64.0866
1800	64.0794
1796	64.0995
1792	64.0591
1788	63.9511
1784	63.8851
1780	63.8947
1776	63.8906
1772	63.8769
1768	63.9219
1764	63.9526
1760	63.8971
1756	63.7905
1752	63.6984
1748	63.6699
1744	63.6322
1740	63.5327
1736	63.4652
1732	63.5008
1728	63.6247
1724	63.7381
1720	63.7608
1716	63.7736
1712	63.8255
1708	63.8263
1704	63.747
1700	63.6634
1696	63.6786
1692	63.7638
1688	63.7746
1684	63.7055
1680	63.6114
1676	63.5341
1672	63.5367
1668	63.6131
1664	63.6976
1660	63.7272
1656	63.7348
1652	63.7887
1648	63.8352
1644	63.8041
1640	63.7487
1636	63.7312
1632	63.7565
1628	63.7717
1624	63.7746
1620	63.813
1616	63.8196
1612	63.7874
1608	63.7929
1604	63.7971
1600	63.7674
1596	63.7592
1592	63.7678
1588	63.7698
1584	63.7461
1580	63.693
1576	63.6596
1572	63.6748
1568	63.6916
1564	63.6371
1560	63.5861
1556	63.5958
1552	63.6067
1548	63.6102
1544	63.6203
1540	63.6745
1536	63.7136
1532	63.6853
1528	63.673
1524	63.6347
1520	63.5427
1516	63.5339
1512	63.596
1508	63.6215
1504	63.62
1500	63.6715
1496	63.7789
1492	63.7992
1488	63.7417
1484	63.7186
1480	63.7229
1476	63.7379
1472	63.7258
1468	63.6675
1464	63.6115
1460	63.5485
1456	63.4472
1452	63.4071
1448	63.4766
1444	63.5541
1440	63.6
1436	63.6128
1432	63.5555
1428	63.4827
1424	63.5025
1420	63.5677
1416	63.5647
1412	63.537
1408	63.5199
1404	63.5058
1400	63.4691
1396	63.4084
1392	63.4255
1388	63.4741
1384	63.4624
1380	63.4099
1376	63.3559
1372	63.3725
1368	63.4659
1364	63.5419
1360	63.5323
1356	63.4199
1352	63.3645
1348	63.4549
1344	63.471
1340	63.3677
1336	63.3056
1332	63.3262
1328	63.3535
1324	63.359
1320	63.3963
1316	63.43
1312	63.4545
1308	63.4585
1304	63.3935
1300	63.3359
1296	63.3172
1292	63.2642
1288	63.1788
1284	63.222
1280	63.3642
1276	63.3493
1272	63.2251
1268	63.1662
1264	63.1814
1260	63.2337
1256	63.2617
1252	63.2622
1248	63.2747
1244	63.276
1240	63.2026
1236	63.0864
1232	63.04
1228	63.0984
1224	63.2356
1220	63.3074
1216	63.2254
1212	63.1613
1208	63.2071
1204	63.2773
1200	63.3117
1196	63.2835
1192	63.2183
1188	63.1412
1184	63.0534
1180	63.0192
1176	63.0435
1172	63.0215
1168	62.9869
1164	63.0079
1160	63.0143
1156	63.0089
1152	63.0345
1148	63.068
1144	63.102
1140	63.1638
1136	63.2284
1132	63.1983
1128	63.1217
1124	63.1296
1120	63.1836
1116	63.1686
1112	63.107
1108	63.0528
1104	63.0012
1100	62.9829
1096	63.0367
1092	63.0728
1088	63.0356
1084	62.9762
1080	62.8643
1076	62.7485
1072	62.8082
1068	62.963
1064	62.9967
1060	62.9758
1056	62.9856
1052	62.9803
1048	62.9795
1044	63.0088
1040	63.0238
1036	63.002
1032	62.9613
1028	62.9618
1024	62.993
1020	62.9294
1016	62.8386
1012	62.8138
1008	62.7854
1004	62.7978
1000	62.8492
996	 62.8641
992	 62.9283
988	 63.0424
984	 63.0723
980	 63.0241
976	 63.0078
972	 63.0356
968	 63.0446
964	 63.0211
960	 63.0169
956	 63.0217
952	 62.9225
948	 62.8434
944	 62.9351
940	 63.002
936	 62.9374
932	 62.9017
928	 62.9026
924	 62.8621
920	 62.8193
916	 62.7789
912	 62.7491
908	 62.7619
904	 62.8467
900	 62.9832
896	 62.9947
892	 62.9081
888	 62.9416
884	 62.9648
880	 62.8376
876	 62.8378
872	 63.0148
868	 63.0537
864	 62.9834
860	 62.9402
856	 62.9038
852	 62.8591
848	 62.7592
844	 62.6552
840	 62.6334
836	 62.7203
832	 62.8433
828	 62.8632
824	 62.8726
820	 62.962
816	 63.0313
812	 63.0364
808	 62.9756
804	 62.8307
800	 62.7744
796	 62.9115
792	 62.964
788	 62.9504
784	 62.9381
780	 62.8038
776	 62.6724
772	 62.6643
768	 62.681
764	 62.6315
760	 62.615
756	 62.6912
752	 62.8107
748	 62.8571
744	 62.7831
740	 62.7157
736	 62.7156
732	 62.7687
728	 62.7386
724	 62.5283
720	 62.3982
716	 62.416
712	 62.3701
708	 62.3046
704	 62.3015
700	 62.3398
696	 62.383
692	 62.4393
688	 62.5532
684	 62.466
680	 62.272
676	 62.4067
672	 62.6407
668	 62.582
664	 62.4238
660	 62.4115
656	 62.4129
652	 62.3993
648	 62.4588
644	 62.5164
640	 62.4749
636	 62.3444
632	 62.2404
628	 62.1946
624	 62.2021
620	 62.1323
616	 61.8622
612	 61.7548
608	 61.951
604	 62.0774
600	 62.1269
596	 62.251
592	 62.281
588	 61.9547
584	 61.6687
580	 61.9771
576	 62.1753
572	 61.9893
568	 62.0896
564	 62.0044
560	 61.5758
556	 61.9422
552	 62.9024
548	 63.0208
544	 62.2612
540	 61.6746
536	 61.5549
532	 61.4167
528	 61.4951
524	 62.1075
520	 62.4858
516	 62.4376
512	 62.448
508	 62.2401
504	 61.2539
500	 59.9623
496	 60.1539
492	 62.1575
488	 63.1768
484	 62.2136
480	 61.6132
476	 62.0682
472	 61.7808
468	 60.4966
464	 60.5091
460	 61.366
456	 61.3338
452	 60.8342
448	 59.8809
444	 59.4747
440	 60.457
436	 61.2422
432	 60.2406
428	 58.4526
424	 59.1421
420	 62.4641
416	 63.5109
412	 60.9151
408	 58.9394
404	 59.0088
400	 60.5263
396	 61.9463
392	 60.3654
388	 59.5514
384	 61.9606
380	 60.0289
376	 54.6538
372	 55.4511
370	 61.6897