File: Bakgrunnsmateriale/MATLAB/FTIR/ftir_data/subAa/Mapping_121/BZ1503107-1_t109_cm-1.asc
PE IR       SPECTRUM    SPECTRUM    ASCII       PEDS        1.60
  -1
BZCBF9~1.ASC
17/04/07
22:09:47.00
17/04/07
22:09:47.00
tln
$BZ1503107-1_t0109$<tbV0>[-10.4,10.4,8.0,0.0,27,1,0]
370
64

2002,4.07
MIRTGS : RIGHTBACK : INTERNAL 2
MIR : ON : INTERNAL 2
OPTKBR

0.200000
8
8.000000
FILLER
RATIO
SPECTRUM
UNLOCKED 256

DOUBLE
64
COMBINED
1
0
0

1.000000
RATIO

1
0
TRUE
51149
0
LEFT NOT FITTED RIGHT NOT FITTED 0
NONE
NONE
15600
12
4.427000
51148
TRUE
1 0 8 72 0 0 0 0

15798

#HDR
-1
-1
#GR
CM-1
%T
2.38419e-05
0.0
5000
-1.000000
4631
8
77.7395
56.7996
#DATA
5000	64.2356
4996	64.511
4992	64.7105
4988	64.3013
4984	64.0893
4980	63.9208
4976	63.0279
4972	62.2621
4968	62.6871
4964	63.9127
4960	64.8594
4956	65.4933
4952	66.3181
4948	66.7031
4944	65.6279
4940	64.4377
4936	64.2807
4932	64.4515
4928	64.9459
4924	65.3303
4920	65.2315
4916	64.9011
4912	64.8011
4908	65.2877
4904	65.2009
4900	64.6219
4896	64.63
4892	64.6591
4888	64.5087
4884	64.6866
4880	64.9447
4876	64.9337
4872	64.7738
4868	64.7449
4864	64.7456
4860	64.694
4856	64.804
4852	64.7416
4848	64.3483
4844	64.3895
4840	64.7568
4836	64.7647
4832	64.5913
4828	64.5221
4824	64.5741
4820	64.7262
4816	64.8501
4812	64.8121
4808	64.8247
4804	64.9987
4800	65.1584
4796	65.1534
4792	65.139
4788	65.2439
4784	65.3046
4780	65.2841
4776	65.0662
4772	64.7732
4768	64.8131
4764	65.0303
4760	64.972
4756	64.716
4752	64.7084
4748	64.9522
4744	65.0883
4740	65.0577
4736	64.891
4732	64.6848
4728	64.6883
4724	64.8259
4720	64.8007
4716	64.7148
4712	64.7601
4708	64.8043
4704	64.7994
4700	64.8444
4696	64.8395
4692	64.8216
4688	64.9717
4684	65.0673
4680	65.0865
4676	65.1425
4672	65.1587
4668	65.1738
4664	65.1326
4660	65.1376
4656	65.2733
4652	65.2915
4648	65.1656
4644	65.0415
4640	64.971
4636	65.008
4632	65.1092
4628	65.0898
4624	65.0403
4620	65.032
4616	64.8932
4612	64.7687
4608	64.8767
4604	65.081
4600	65.2188
4596	65.3054
4592	65.1521
4588	64.8431
4584	64.7692
4580	64.9136
4576	64.8954
4572	64.6815
4568	64.6664
4564	64.7424
4560	64.6113
4556	64.4534
4552	64.4574
4548	64.5425
4544	64.688
4540	64.8425
4536	64.8575
4532	64.7506
4528	64.7151
4524	64.7632
4520	64.6152
4516	64.3931
4512	64.3242
4508	64.3907
4504	64.5959
4500	64.6533
4496	64.3416
4492	63.9899
4488	63.9172
4484	63.9609
4480	64.0738
4476	64.2904
4472	64.4441
4468	64.319
4464	63.9849
4460	63.9312
4456	63.7767
4452	64.8145
4448	69.7681
4444	77.2929
4440	73.9032
4436	66.0695
4432	62.4667
4428	59.7344
4424	61.0622
4420	64.6971
4416	65.2544
4412	64.6521
4408	64.4765
4404	64.697
4400	64.9239
4396	64.8215
4392	64.5576
4388	64.4031
4384	64.276
4380	64.0612
4376	63.9235
4372	63.9164
4368	64.1091
4364	64.3474
4360	64.4457
4356	64.5094
4352	64.7167
4348	64.9873
4344	64.9539
4340	64.7273
4336	64.6421
4332	64.6126
4328	64.4805
4324	64.4292
4320	64.449
4316	64.4624
4312	64.6421
4308	64.8052
4304	64.8196
4300	64.8925
4296	65.0038
4292	65.0514
4288	64.9994
4284	64.8738
4280	64.8572
4276	64.8919
4272	64.7623
4268	64.5388
4264	64.4234
4260	64.5058
4256	64.7151
4252	64.8412
4248	64.7767
4244	64.7916
4240	64.9073
4236	64.7401
4232	64.6055
4228	64.8432
4224	64.9263
4220	64.8075
4216	64.922
4212	65.1061
4208	65.0372
4204	64.8286
4200	64.7233
4196	64.7533
4192	64.861
4188	64.9933
4184	65.0831
4180	65.0462
4176	64.9589
4172	64.9438
4168	64.9389
4164	64.9502
4160	64.9883
4156	65.0824
4152	65.2787
4148	65.3246
4144	65.039
4140	64.7642
4136	64.8477
4132	65.01
4128	64.9832
4124	64.9581
4120	65.0137
4116	65.03
4112	64.9828
4108	64.88
4104	64.8858
4100	65.076
4096	65.1649
4092	65.0324
4088	64.9046
4084	64.9241
4080	64.9715
4076	65
4072	65.0404
4068	64.9943
4064	64.9573
4060	64.9673
4056	64.892
4052	64.8133
4048	64.7189
4044	64.6692
4040	64.8632
4036	65.0872
4032	65.1383
4028	65.0484
4024	64.9118
4020	64.9178
4016	65.0611
4012	65.1305
4008	65.0583
4004	65.0205
4000	65.1021
3996	65.1617
3992	65.0953
3988	64.9899
3984	64.9565
3980	64.9226
3976	64.897
3972	64.9971
3968	65.1148
3964	65.1452
3960	65.0605
3956	64.9218
3952	64.8812
3948	64.8274
3944	64.8562
3940	65.1618
3936	65.3879
3932	65.3291
3928	65.1352
3924	64.8609
3920	64.6736
3916	64.6942
3912	64.8
3908	64.9305
3904	65.0159
3900	64.9984
3896	64.8777
3892	64.7898
3888	64.9247
3884	65.0483
3880	65.021
3876	65.0205
3872	65.0349
3868	64.9946
3864	64.9684
3860	65.0492
3856	65.1405
3852	65.0457
3848	64.8884
3844	64.905
3840	65.0279
3836	65.0901
3832	65.0557
3828	64.983
3824	64.9327
3820	64.9128
3816	64.8624
3812	64.7852
3808	64.7354
3804	64.8072
3800	64.9647
3796	65.0102
3792	64.9453
3788	64.9119
3784	64.9799
3780	65.0093
3776	64.9569
3772	64.9865
3768	65.0243
3764	64.9599
3760	64.9471
3756	65.0322
3752	65.0427
3748	65.0178
3744	65.0763
3740	65.0342
3736	64.9175
3732	64.9168
3728	64.9296
3724	64.9993
3720	65.1418
3716	65.198
3712	65.2051
3708	65.2104
3704	65.2108
3700	65.1733
3696	65.0964
3692	65.078
3688	65.1634
3684	65.1833
3680	65.0341
3676	64.9418
3672	65.0079
3668	65.0806
3664	65.08
3660	65.0638
3656	65.0675
3652	65.0728
3648	65.1418
3644	65.2324
3640	65.2316
3636	65.1901
3632	65.1443
3628	65.0252
3624	64.8977
3620	64.8765
3616	64.939
3612	64.9986
3608	65.016
3604	65.0598
3600	65.0923
3596	65.1166
3592	65.1289
3588	65.0449
3584	64.9941
3580	64.9086
3576	64.8008
3572	64.8685
3568	64.9838
3564	65.0356
3560	64.9844
3556	64.8448
3552	64.6822
3548	64.6096
3544	64.7166
3540	64.9033
3536	65.0285
3532	65.0135
3528	64.9495
3524	64.8894
3520	64.8233
3516	64.8294
3512	64.8526
3508	64.8932
3504	65.0157
3500	65.0855
3496	65.0334
3492	64.9906
3488	65.0051
3484	64.9872
3480	64.9431
3476	64.9418
3472	64.948
3468	64.9192
3464	64.9011
3460	64.9236
3456	64.9575
3452	64.966
3448	64.9397
3444	64.8771
3440	64.8252
3436	64.8519
3432	64.8361
3428	64.7714
3424	64.8642
3420	65.0081
3416	64.9947
3412	64.9193
3408	64.8912
3404	64.9423
3400	65.0222
3396	65.0069
3392	64.9291
3388	64.8965
3384	64.9102
3380	64.9052
3376	64.8813
3372	64.8518
3368	64.7854
3364	64.7485
3360	64.831
3356	64.9866
3352	65.0704
3348	65.0304
3344	65.0035
3340	64.981
3336	64.9037
3332	64.8319
3328	64.7651
3324	64.7355
3320	64.7726
3316	64.7926
3312	64.7542
3308	64.7896
3304	64.9311
3300	64.9696
3296	64.9188
3292	64.9324
3288	64.9536
3284	64.9316
3280	64.8805
3276	64.8886
3272	64.925
3268	64.8852
3264	64.8921
3260	64.9566
3256	64.966
3252	64.9219
3248	64.8638
3244	64.8801
3240	64.9474
3236	64.9327
3232	64.9077
3228	64.9697
3224	64.9959
3220	64.8907
3216	64.7763
3212	64.759
3208	64.7872
3204	64.8218
3200	64.8673
3196	64.9498
3192	65.0589
3188	65.0581
3184	64.906
3180	64.7945
3176	64.8181
3172	64.887
3168	64.9238
3164	64.9013
3160	64.8453
3156	64.7704
3152	64.7442
3148	64.8295
3144	64.9214
3140	64.9499
3136	64.9235
3132	64.8154
3128	64.6977
3124	64.675
3120	64.7193
3116	64.7774
3112	64.8538
3108	64.8624
3104	64.8143
3100	64.8424
3096	64.8882
3092	64.9178
3088	64.9511
3084	64.8867
3080	64.812
3076	64.8888
3072	64.9605
3068	64.8954
3064	64.8122
3060	64.7897
3056	64.8134
3052	64.9057
3048	65.0023
3044	64.9593
3040	64.8762
3036	64.8659
3032	64.8416
3028	64.7836
3024	64.7133
3020	64.6746
3016	64.7366
3012	64.8278
3008	64.7925
3004	64.6778
3000	64.6304
2996	64.6205
2992	64.6523
2988	64.7507
2984	64.8283
2980	64.8512
2976	64.7984
2972	64.6985
2968	64.6707
2964	64.6684
2960	64.6186
2956	64.6262
2952	64.6927
2948	64.731
2944	64.7681
2940	64.8109
2936	64.7892
2932	64.693
2928	64.608
2924	64.5528
2920	64.4859
2916	64.4472
2912	64.5071
2908	64.6242
2904	64.6681
2900	64.6512
2896	64.6825
2892	64.691
2888	64.6693
2884	64.6964
2880	64.6998
2876	64.6467
2872	64.5968
2868	64.5865
2864	64.5814
2860	64.5203
2856	64.4681
2852	64.5232
2848	64.6222
2844	64.6934
2840	64.7491
2836	64.7474
2832	64.7018
2828	64.6868
2824	64.6806
2820	64.6597
2816	64.6845
2812	64.7334
2808	64.7264
2804	64.7248
2800	64.7181
2796	64.6806
2792	64.6711
2788	64.661
2784	64.6623
2780	64.6749
2776	64.6823
2772	64.7157
2768	64.7571
2764	64.7916
2760	64.7651
2756	64.6516
2752	64.5665
2748	64.5828
2744	64.6393
2740	64.6474
2736	64.5801
2732	64.5811
2728	64.6917
2724	64.7124
2720	64.6555
2716	64.6702
2712	64.7092
2708	64.6917
2704	64.6605
2700	64.6497
2696	64.6253
2692	64.5669
2688	64.5377
2684	64.5926
2680	64.6549
2676	64.6738
2672	64.7056
2668	64.7439
2664	64.7071
2660	64.643
2656	64.6472
2652	64.7161
2648	64.7762
2644	64.7463
2640	64.6776
2636	64.6617
2632	64.6542
2628	64.5867
2624	64.5154
2620	64.4983
2616	64.5171
2612	64.5295
2608	64.5101
2604	64.4908
2600	64.5368
2596	64.6471
2592	64.6797
2588	64.6479
2584	64.6661
2580	64.6418
2576	64.5991
2572	64.6291
2568	64.647
2564	64.6441
2560	64.6432
2556	64.5977
2552	64.5493
2548	64.5404
2544	64.5262
2540	64.5028
2536	64.5157
2532	64.5638
2528	64.5639
2524	64.5158
2520	64.514
2516	64.5405
2512	64.5248
2508	64.4696
2504	64.4288
2500	64.4723
2496	64.5662
2492	64.585
2488	64.5468
2484	64.5295
2480	64.5172
2476	64.4943
2472	64.4722
2468	64.4907
2464	64.5437
2460	64.5903
2456	64.5987
2452	64.5482
2448	64.4922
2444	64.464
2440	64.4894
2436	64.5049
2432	64.457
2428	64.4778
2424	64.5504
2420	64.5581
2416	64.5256
2412	64.497
2408	64.4596
2404	64.423
2400	64.4221
2396	64.4699
2392	64.5169
2388	64.5314
2384	64.5719
2380	64.5733
2376	64.497
2372	64.4704
2368	64.5015
2364	64.52
2360	64.5492
2356	64.5901
2352	64.5548
2348	64.4657
2344	64.415
2340	64.37
2336	64.3232
2332	64.3544
2328	64.4706
2324	64.5818
2320	64.5763
2316	64.498
2312	64.4705
2308	64.469
2304	64.4468
2300	64.4483
2296	64.4718
2292	64.4534
2288	64.3701
2284	64.2622
2280	64.2447
2276	64.3506
2272	64.4421
2268	64.4634
2264	64.4603
2260	64.4092
2256	64.3669
2252	64.3848
2248	64.391
2244	64.3725
2240	64.3569
2236	64.3672
2232	64.4051
2228	64.4333
2224	64.398
2220	64.3132
2216	64.243
2212	64.2137
2208	64.2241
2204	64.24
2200	64.2334
2196	64.2208
2192	64.2251
2188	64.2391
2184	64.2288
2180	64.2073
2176	64.2254
2172	64.2558
2168	64.279
2164	64.2812
2160	64.2403
2156	64.2349
2152	64.3
2148	64.3205
2144	64.2994
2140	64.3192
2136	64.3027
2132	64.2325
2128	64.1937
2124	64.1993
2120	64.2483
2116	64.2744
2112	64.2358
2108	64.2217
2104	64.2328
2100	64.2407
2096	64.2559
2092	64.229
2088	64.1804
2084	64.1847
2080	64.2258
2076	64.2303
2072	64.1578
2068	64.0651
2064	64.069
2060	64.1497
2056	64.186
2052	64.1389
2048	64.0942
2044	64.1351
2040	64.1949
2036	64.1988
2032	64.1635
2028	64.0945
2024	64.024
2020	64.0188
2016	64.0591
2012	64.0962
2008	64.104
2004	64.0992
2000	64.1382
1996	64.1911
1992	64.2087
1988	64.18
1984	64.1291
1980	64.1308
1976	64.1736
1972	64.1884
1968	64.1604
1964	64.1233
1960	64.1295
1956	64.1248
1952	64.0348
1948	63.9657
1944	63.9811
1940	64.0285
1936	64.0595
1932	64.0133
1928	63.9258
1924	63.8982
1920	63.9174
1916	63.9303
1912	63.9649
1908	64.0232
1904	64.0602
1900	64.0531
1896	64.0258
1892	64.0249
1888	64.0098
1884	63.9565
1880	63.9704
1876	64.0294
1872	64.0082
1868	63.9239
1864	63.8911
1860	63.9471
1856	64.0319
1852	64.0624
1848	64.0159
1844	63.9615
1840	63.9626
1836	63.9914
1832	63.9756
1828	63.9314
1824	63.8871
1820	63.8351
1816	63.8393
1812	63.9126
1808	63.9548
1804	63.9351
1800	63.9083
1796	63.9018
1792	63.8693
1788	63.8175
1784	63.8201
1780	63.8495
1776	63.853
1772	63.8371
1768	63.8083
1764	63.7766
1760	63.764
1756	63.7424
1752	63.685
1748	63.6312
1744	63.5744
1740	63.5024
1736	63.4431
1732	63.4476
1728	63.5241
1724	63.5708
1720	63.6057
1716	63.668
1712	63.7096
1708	63.7638
1704	63.8126
1700	63.8276
1696	63.811
1692	63.7454
1688	63.7202
1684	63.7428
1680	63.708
1676	63.648
1672	63.6364
1668	63.6652
1664	63.7247
1660	63.7811
1656	63.7609
1652	63.7189
1648	63.7154
1644	63.7144
1640	63.7641
1636	63.7931
1632	63.6726
1628	63.5504
1624	63.5549
1620	63.5889
1616	63.6077
1612	63.6542
1608	63.6869
1604	63.6649
1600	63.6106
1596	63.6007
1592	63.6349
1588	63.6022
1584	63.5107
1580	63.4723
1576	63.5482
1572	63.6771
1568	63.721
1564	63.6432
1560	63.5686
1556	63.5205
1552	63.4851
1548	63.5327
1544	63.6181
1540	63.5951
1536	63.4816
1532	63.4246
1528	63.4246
1524	63.4477
1520	63.4949
1516	63.5358
1512	63.542
1508	63.486
1504	63.4272
1500	63.4532
1496	63.5154
1492	63.5247
1488	63.502
1484	63.4756
1480	63.4865
1476	63.5354
1472	63.5275
1468	63.4701
1464	63.4238
1460	63.3357
1456	63.1963
1452	63.1369
1448	63.199
1444	63.2633
1440	63.2489
1436	63.2494
1432	63.2908
1428	63.2806
1424	63.2815
1420	63.326
1416	63.3305
1412	63.291
1408	63.2808
1404	63.326
1400	63.3114
1396	63.237
1392	63.2473
1388	63.2975
1384	63.3034
1380	63.2696
1376	63.221
1372	63.2046
1368	63.1773
1364	63.1365
1360	63.1862
1356	63.2582
1352	63.2579
1348	63.2299
1344	63.1513
1340	63.0414
1336	63.0479
1332	63.1776
1328	63.2423
1324	63.2218
1320	63.251
1316	63.2679
1312	63.2246
1308	63.2204
1304	63.2368
1300	63.2365
1296	63.224
1292	63.1819
1288	63.141
1284	63.1482
1280	63.1793
1276	63.1713
1272	63.1402
1268	63.1023
1264	63.0311
1260	62.974
1256	62.9623
1252	62.95
1248	62.9408
1244	62.9687
1240	62.9913
1236	62.9648
1232	62.9727
1228	63.0453
1224	63.0841
1220	63.0348
1216	62.9684
1212	62.9559
1208	62.9328
1204	62.9314
1200	62.9851
1196	62.9891
1192	62.975
1188	62.9709
1184	62.9484
1180	62.9525
1176	62.9661
1172	62.9512
1168	62.9491
1164	62.9723
1160	62.9693
1156	62.9291
1152	62.8762
1148	62.8765
1144	62.9404
1140	62.9759
1136	62.9598
1132	62.9198
1128	62.8967
1124	62.9151
1120	62.8676
1116	62.7834
1112	62.7752
1108	62.764
1104	62.788
1100	62.8786
1096	62.9198
1092	62.89
1088	62.8518
1084	62.8345
1080	62.7679
1076	62.6673
1072	62.6591
1068	62.7262
1064	62.7715
1060	62.7491
1056	62.7191
1052	62.7336
1048	62.7479
1044	62.7838
1040	62.8154
1036	62.8165
1032	62.8091
1028	62.7752
1024	62.7651
1020	62.7849
1016	62.7781
1012	62.7728
1008	62.7799
1004	62.7807
1000	62.8268
996	 62.864
992	 62.8044
988	 62.7808
984	 62.8468
980	 62.8608
976	 62.815
972	 62.7506
968	 62.6909
964	 62.696
960	 62.6955
956	 62.6051
952	 62.5127
948	 62.5408
944	 62.7096
940	 62.886
936	 62.9232
932	 62.8721
928	 62.8551
924	 62.8301
920	 62.688
916	 62.5408
912	 62.5724
908	 62.6743
904	 62.6505
900	 62.5631
896	 62.5129
892	 62.5272
888	 62.6448
884	 62.6749
880	 62.5934
876	 62.6525
872	 62.6453
868	 62.5519
864	 62.6697
860	 62.8186
856	 62.8879
852	 62.9245
848	 62.7896
844	 62.6008
840	 62.5382
836	 62.5536
832	 62.5548
828	 62.5637
824	 62.6462
820	 62.7029
816	 62.7217
812	 62.7689
808	 62.757
804	 62.55
800	 62.3331
796	 62.3721
792	 62.5172
788	 62.6095
784	 62.5404
780	 62.3327
776	 62.2774
772	 62.4114
768	 62.5156
764	 62.5399
760	 62.5194
756	 62.5208
752	 62.5926
748	 62.6027
744	 62.544
740	 62.51
736	 62.4413
732	 62.3768
728	 62.3571
724	 62.2818
720	 62.2243
716	 62.2034
712	 62.1839
708	 62.1694
704	 62.0565
700	 61.9739
696	 62.0517
692	 62.1658
688	 62.2092
684	 62.1415
680	 62.0726
676	 62.0926
672	 62.1501
668	 62.1517
664	 62.0574
660	 61.9438
656	 61.9073
652	 62.0637
648	 62.2922
644	 62.2358
640	 61.9595
636	 61.9596
632	 62.261
628	 62.3801
624	 62.2577
620	 62.2732
616	 62.289
612	 62.1522
608	 61.9068
604	 61.6757
600	 61.9473
596	 62.3324
592	 62.3464
588	 62.1155
584	 61.5703
580	 61.0959
576	 61.1812
572	 61.399
568	 61.5657
564	 61.6238
560	 61.2434
556	 60.7381
552	 60.5477
548	 60.707
544	 61.0882
540	 61.4501
536	 61.9023
532	 62.3054
528	 62.0038
524	 61.7712
520	 61.9282
516	 61.6003
512	 61.6019
508	 62.0777
504	 61.5732
500	 60.286
496	 60.007
492	 61.3871
488	 62.5278
484	 62.0877
480	 61.6703
476	 61.8568
472	 61.4679
468	 60.8231
464	 61.1056
460	 61.7029
456	 61.5381
452	 60.7591
448	 59.6228
444	 59.0186
440	 59.9535
436	 61.9167
432	 63.006
428	 62.1753
424	 61.2359
420	 61.8944
416	 61.6608
412	 59.1489
408	 58.1196
404	 59.6532
400	 59.7547
396	 58.739
392	 59.1744
388	 57.6982
384	 57.2046
380	 60.6861
376	 59.9615
372	 60.1092
370	 62.5785