File: Bakgrunnsmateriale/MATLAB/FTIR/ftir_data/subAa/Mapping_121/BZ1503107-1_t67.asc
PE IR       SPECTRUM    SPECTRUM    ASCII       PEDS        1.60
  -1
BZ2561~1.ASC
17/04/07
18:48:03.00
17/04/07
18:48:29.00
tln
$BZ1503107-1_t0067$<tbV0>[13.0,2.6,8.0,0.0,27,1,0]
27.028
64

2002,4.07
MIRTGS : RIGHTBACK : INTERNAL 2
MIR : ON : INTERNAL 2
OPTKBR

0.200000
8
8.000000
FILLER
RATIO
SPECTRUM
UNLOCKED 256

DOUBLE
64
COMBINED
1
0
0

0.002000
RATIO

1
0
TRUE
51149
0
LEFT NOT FITTED RIGHT NOT FITTED 0
NONE
NONE
15600
12
4.427000
51148
TRUE
1 0 8 72 0 0 0 0

15798

#HDR
-1
-1
#GR
µM
%T
2.38419e-05
0.0
2.000000
0.002000
12515
8
71.1623
34.9017
#DATA
2.000000	 63.6259
2.018000	 63.1807
2.036000	 62.5602
2.054000	 63.2872
2.072000	 63.1564
2.090000	 63.2703
2.108000	 63.291
2.126000	 63.0114
2.144000	 63.2865
2.162000	 63.092
2.180000	 63.3916
2.198000	 62.9039
2.216000	 63.1509
2.234000	 62.62
2.252000	 60.1434
2.270000	 64.9466
2.288000	 63.0667
2.306000	 63.4633
2.324000	 63.0763
2.342000	 63.4698
2.360000	 63.0757
2.378000	 63.548
2.396000	 63.0837
2.414000	 63.4171
2.432000	 63.6161
2.450000	 63.5837
2.468000	 63.6914
2.486000	 63.6912
2.504000	 63.5804
2.522000	 63.6929
2.540000	 63.5232
2.558000	 63.5596
2.576000	 63.4227
2.594000	 63.4523
2.612000	 63.4971
2.630000	 63.4772
2.648000	 63.7536
2.666000	 63.3471
2.684000	 63.5098
2.702000	 63.6557
2.720000	 63.6987
2.738000	 63.7623
2.756000	 63.7812
2.774000	 63.7395
2.792000	 63.4683
2.810000	 63.7164
2.828000	 63.6816
2.846000	 63.7704
2.864000	 63.3641
2.882000	 63.6712
2.900000	 63.6818
2.918000	 63.5941
2.936000	 63.5884
2.954000	 63.602
2.972000	 63.757
2.990000	 63.6723
3.008000	 63.5823
3.026000	 63.5737
3.044000	 63.6021
3.062000	 63.5307
3.080000	 63.5974
3.098000	 63.6774
3.116000	 63.6096
3.134000	 63.6295
3.152000	 63.6517
3.170000	 63.5688
3.188000	 63.5302
3.206000	 63.8919
3.224000	 63.5229
3.242000	 63.5904
3.260000	 63.7788
3.278000	 63.7385
3.296000	 63.6118
3.314000	 63.6695
3.332000	 63.6397
3.350000	 63.7079
3.368000	 63.3983
3.386000	 63.5416
3.404000	 63.5234
3.422000	 63.63
3.440000	 63.6253
3.458000	 63.5066
3.476000	 63.715
3.494000	 63.635
3.512000	 63.6233
3.530000	 63.6456
3.548000	 63.6922
3.566000	 63.6762
3.584000	 63.6487
3.602000	 63.7492
3.620000	 63.7505
3.638000	 63.5815
3.656000	 63.8629
3.674000	 63.6776
3.692000	 63.6515
3.710000	 63.6329
3.728000	 63.7429
3.746000	 63.6925
3.764000	 63.6651
3.782000	 63.6346
3.800000	 63.5984
3.818000	 63.5351
3.836000	 63.6442
3.854000	 63.6219
3.872000	 63.5515
3.890000	 63.5966
3.908000	 63.5777
3.926000	 63.5741
3.944000	 63.6269
3.962000	 63.6409
3.980000	 63.5301
3.998000	 63.6307
4.016000	 63.6911
4.034000	 63.6647
4.052000	 63.7037
4.070000	 63.7545
4.088000	 63.8069
4.106000	 63.5796
4.124000	 63.7217
4.141999	 63.7652
4.160000	 63.6455
4.178000	 63.5879
4.196000	 63.7388
4.214000	 63.7424
4.232000	 63.5996
4.250000	 63.6842
4.268000	 63.5977
4.286000	 63.7087
4.304000	 63.5685
4.322000	 63.7342
4.340000	 63.6526
4.358000	 63.5538
4.375999	 63.583
4.394000	 63.6854
4.412000	 63.6714
4.430000	 63.5825
4.448000	 63.6002
4.466000	 63.5719
4.484000	 63.6946
4.502000	 63.6788
4.520000	 63.658
4.538000	 63.603
4.556000	 63.6117
4.574000	 63.5957
4.592000	 63.5732
4.609999	 63.5244
4.628000	 63.5703
4.646000	 63.6135
4.664000	 63.5542
4.682000	 63.5572
4.700000	 63.6086
4.718000	 63.4731
4.736000	 63.4914
4.754000	 63.5538
4.772000	 63.5481
4.790000	 63.499
4.808000	 63.5064
4.826000	 63.6094
4.843999	 63.4307
4.862000	 63.3743
4.880000	 63.3793
4.898000	 63.4776
4.916000	 63.5111
4.934000	 63.4111
4.952000	 63.548
4.970000	 63.5258
4.988000	 63.4816
5.006000	 63.4623
5.024000	 63.4431
5.042000	 63.5114
5.060000	 63.4257
5.077999	 63.4417
5.096000	 63.4878
5.114000	 63.5182
5.132000	 63.4864
5.150000	 63.3932
5.168000	 63.4354
5.186000	 63.5921
5.204000	 63.6254
5.222000	 63.5791
5.240000	 63.5581
5.258000	 63.4828
5.276000	 63.4338
5.294000	 63.5141
5.312000	 63.4323
5.330000	 63.3896
5.348000	 63.4767
5.366000	 63.4894
5.384000	 63.4183
5.402000	 63.4345
5.420000	 63.4338
5.438000	 63.4382
5.456000	 63.3549
5.474000	 63.3415
5.492000	 63.3687
5.510000	 63.5035
5.528000	 63.4849
5.546000	 63.4663
5.564000	 63.4932
5.582000	 63.5074
5.600000	 63.4921
5.618000	 63.4253
5.636000	 63.3627
5.654000	 63.4514
5.672000	 63.513
5.690000	 63.449
5.708000	 63.3107
5.726000	 63.2465
5.744000	 63.1703
5.762000	 63.073
5.780000	 63.1104
5.798000	 63.214
5.816000	 63.2321
5.834000	 63.3503
5.852000	 63.387
5.870000	 63.3962
5.888000	 63.4758
5.906000	 63.4396
5.923999	 63.4177
5.942000	 63.4221
5.960000	 63.3883
5.978000	 63.3818
5.996000	 63.4006
6.014000	 63.3653
6.032000	 63.2833
6.050000	 63.2151
6.068000	 63.2476
6.086000	 63.267
6.104000	 63.1845
6.122000	 63.2199
6.140000	 63.3475
6.158000	 63.3823
6.176000	 63.4641
6.194000	 63.4799
6.212000	 63.4137
6.230000	 63.4137
6.248000	 63.3749
6.266000	 63.307
6.284000	 63.2528
6.302000	 63.2954
6.320000	 63.3131
6.338000	 63.3002
6.356000	 63.3011
6.374000	 63.2633
6.392000	 63.2627
6.410000	 63.3457
6.428000	 63.3477
6.446000	 63.2693
6.464000	 63.2761
6.482000	 63.3662
6.500000	 63.3929
6.518000	 63.3021
6.536000	 63.234
6.554000	 63.2173
6.572000	 63.2395
6.590000	 63.2896
6.608000	 63.3185
6.626000	 63.2888
6.644000	 63.2287
6.662000	 63.2003
6.680000	 63.1746
6.698000	 63.1412
6.716000	 63.2033
6.734000	 63.3302
6.752000	 63.4235
6.770000	 63.4006
6.788000	 63.2533
6.806000	 63.1086
6.824000	 63.069
6.842000	 63.1011
6.860000	 63.1491
6.878000	 63.2057
6.896000	 63.2092
6.914000	 63.1497
6.932000	 63.1299
6.950000	 63.1252
6.968000	 63.1019
6.986000	 63.1246
7.004000	 63.1802
7.022000	 63.1872
7.040000	 63.1468
7.058000	 63.1397
7.076000	 63.1578
7.094000	 63.1563
7.112000	 63.1727
7.130000	 63.1844
7.148000	 63.1444
7.166000	 63.1024
7.184000	 63.0985
7.202000	 63.1174
7.220000	 63.1167
7.238000	 63.0749
7.256000	 63.0505
7.274000	 63.0833
7.292000	 63.1307
7.310000	 63.1557
7.328000	 63.1419
7.346000	 63.0793
7.364000	 63.0117
7.382000	 62.993
7.400000	 63.0169
7.418000	 63.0622
7.436000	 63.1242
7.454000	 63.1846
7.472000	 63.2251
7.490000	 63.25
7.508000	 63.2664
7.526000	 63.2777
7.544000	 63.29
7.562000	 63.295
7.580000	 63.2701
7.598000	 63.207
7.616000	 63.128
7.634000	 63.0763
7.652000	 63.0802
7.670000	 63.1071
7.688000	 63.106
7.706000	 63.0923
7.724000	 63.1102
7.742000	 63.1469
7.760000	 63.1505
7.778000	 63.1043
7.796000	 63.0389
7.814000	 62.9899
7.832000	 62.9765
7.850000	 63.0036
7.868000	 63.047
7.886000	 63.0553
7.904000	 63.013
7.922000	 62.977
7.940000	 63.0053
7.958000	 63.0809
7.976000	 63.1351
7.994000	 63.1281
8.012000	 63.083
8.030000	 63.0519
8.048000	 63.055
8.065999	 63.0682
8.084000	 63.0675
8.102000	 63.0596
8.120000	 63.0664
8.138000	 63.0921
8.155999	 63.1088
8.173999	 63.0785
8.192000	 63.0037
8.210000	 62.9402
8.228000	 62.9413
8.246000	 62.9999
8.263999	 63.0656
8.282000	 63.0994
8.300000	 63.0986
8.318000	 63.0869
8.336000	 63.0933
8.353999	 63.1181
8.372000	 63.1248
8.390000	 63.0883
8.408000	 63.0374
8.426000	 63.0222
8.443999	 63.0502
8.462000	 63.0865
8.480000	 63.1061
8.498000	 63.1141
8.516000	 63.1143
8.533999	 63.0916
8.552000	 63.0325
8.570000	 62.9537
8.588000	 62.8945
8.606000	 62.8842
8.624000	 62.9184
8.641999	 62.9656
8.660000	 62.9943
8.678000	 62.9978
8.696000	 62.997
8.714000	 63.0197
8.731999	 63.0747
8.750000	 63.1424
8.768000	 63.1897
8.786000	 63.1921
8.804000	 63.1465
8.821999	 63.0729
8.840000	 63.0099
8.858000	 62.9947
8.876000	 63.0324
8.894000	 63.0888
8.911999	 63.1178
8.930000	 63.0995
8.948000	 63.0467
8.966000	 62.9837
8.984000	 62.9271
9.001999	 62.8847
9.020000	 62.8596
9.038000	 62.85
9.056000	 62.8508
9.074000	 62.8603
9.092000	 62.8789
9.109999	 62.9009
9.128000	 62.9112
9.146000	 62.8999
9.164000	 62.8784
9.182000	 62.8725
9.199999	 62.8975
9.218000	 62.9452
9.236000	 62.9986
9.254000	 63.0519
9.272000	 63.1112
9.289999	 63.1745
9.308000	 63.2241
9.326000	 63.2394
9.344000	 63.2148
9.362000	 63.1623
9.379999	 63.1012
9.398000	 63.0481
9.416000	 63.0146
9.434000	 63.0059
9.452000	 63.0171
9.469999	 63.0352
9.488000	 63.0488
9.506000	 63.0562
9.524000	 63.0634
9.542000	 63.074
9.560000	 63.0826
9.577999	 63.0783
9.596000	 63.056
9.614000	 63.024
9.632000	 63.0018
9.650000	 63.0081
9.667999	 63.0484
9.686000	 63.1084
9.704000	 63.1601
9.722000	 63.1788
9.740000	 63.1575
9.757999	 63.1096
9.776000	 63.0566
9.794000	 63.0142
9.812000	 62.9842
9.830000	 62.9592
9.847999	 62.9334
9.866000	 62.9121
9.884000	 62.9107
9.902000	 62.9438
9.920000	 63.0121
9.937999	 63.0968
9.956000	 63.1685
9.974000	 63.2041
9.992000	 63.1989
10.01	63.1667
10.028	63.1298
10.046	63.1044
10.064	63.0928
10.082	63.0871
10.1	63.0773
10.118	63.0608
10.136	63.0448
10.154	63.0412
10.172	63.0576
10.19	63.0911
10.208	63.1283
10.226	63.1549
10.244	63.1626
10.262	63.1536
10.28	63.1368
10.298	63.1224
10.316	63.1168
10.334	63.1203
10.352	63.1286
10.37	63.1354
10.388	63.1354
10.406	63.127
10.424	63.1127
10.442	63.098
10.46	63.0854
10.478	63.0729
10.496	63.0557
10.514	63.0321
10.532	63.0065
10.55	62.9873
10.568	62.9799
10.586	62.9807
10.604	62.9787
10.622	62.962
10.64	62.9279
10.658	62.885
10.676	62.85
10.694	62.8371
10.712	62.8521
10.73	62.8911
10.748	62.9438
10.766	62.9973
10.784	63.0388
10.802	63.0576
10.82	63.0481
10.838	63.0134
10.856	62.9661
10.874	62.9257
10.892	62.9085
10.91	62.9194
10.928	62.9488
10.946	62.9776
10.964	62.9893
10.982	62.9782
11	62.9522
11.018	62.9273
11.036	62.9156
11.054	62.9204
11.072	62.9358
11.09	62.953
11.108	62.9681
11.126	62.9848
11.144	63.011
11.162	63.0527
11.18	63.1099
11.198	63.1761
11.216	63.2411
11.234	63.2948
11.252	63.3302
11.27	63.344
11.288	63.3358
11.306	63.3081
11.324	63.2666
11.342	63.2201
11.36	63.1784
11.378	63.151
11.396	63.1426
11.414	63.1518
11.432	63.1714
11.45	63.1916
11.468	63.2022
11.486	63.1956
11.504	63.1686
11.522	63.1226
11.54	63.0639
11.558	63.0022
11.576	62.9492
11.594	62.915
11.612	62.9051
11.63	62.9183
11.648	62.9471
11.666	62.9787
11.684	63.0006
11.702	63.0061
11.72	62.9953
11.738	62.9752
11.756	62.9559
11.774	62.9472
11.792	62.9553
11.81	62.9812
11.828	63.0215
11.846	63.0695
11.864	63.1169
11.882	63.1566
11.9	63.1828
11.918	63.1919
11.936	63.1833
11.954	63.159
11.972	63.1239
11.99	63.0845
12.008	63.0469
12.026	63.0163
12.044	62.9962
12.062	62.9888
12.08	62.9956
12.098	63.0172
12.116	63.053
12.134	63.0996
12.152	63.1513
12.17	63.2009
12.188	63.241
12.206	63.266
12.224	63.2732
12.242	63.2632
12.26	63.2388
12.278	63.2041
12.296	63.1633
12.314	63.1194
12.332	63.0745
12.35	63.0298
12.368	62.9863
12.386	62.9456
12.404	62.9092
12.422	62.8793
12.44	62.8574
12.458	62.8449
12.476	62.8432
12.494	62.8529
12.512	62.873
12.53	62.9007
12.548	62.931
12.566	62.9579
12.584	62.9758
12.602	62.9816
12.62	62.975
12.638	62.9596
12.656	62.9412
12.674	62.9263
12.692	62.9206
12.71	62.9278
12.728	62.9489
12.746	62.9827
12.764	63.0252
12.782	63.0711
12.8	63.1144
12.818	63.149
12.836	63.1691
12.854	63.1703
12.872	63.1505
12.89	63.1104
12.908	63.0546
12.926	62.9899
12.944	62.9249
12.962	62.8668
12.98	62.8205
12.998	62.7873
13.016	62.7654
13.034	62.752
13.052	62.7444
13.07	62.7416
13.088	62.7445
13.106	62.7561
13.124	62.7786
13.142	62.8133
13.16	62.8593
13.178	62.9133
13.196	62.97
13.214	63.0237
13.232	63.0696
13.25	63.1051
13.268	63.1296
13.286	63.144
13.304	63.1503
13.322	63.1497
13.34	63.1429
13.358	63.1305
13.376	63.1126
13.394	63.0907
13.412	63.0671
13.43	63.0444
13.448	63.0253
13.466	63.0115
13.484	63.0034
13.502	62.9996
13.52	62.9975
13.538	62.9932
13.556	62.9825
13.574	62.9622
13.592	62.9304
13.61	62.8864
13.628	62.8311
13.646	62.7665
13.664	62.6959
13.682	62.6226
13.7	62.5508
13.718	62.4849
13.736	62.4294
13.754	62.3883
13.772	62.3643
13.79	62.3583
13.808	62.3701
13.826	62.397
13.844	62.4359
13.862	62.483
13.88	62.5348
13.898	62.5893
13.916	62.6447
13.934	62.6996
13.952	62.7514
13.97	62.7965
13.988	62.8297
14.006	62.8441
14.024	62.832
14.042	62.7876
14.06	62.7082
14.078	62.5963
14.096	62.4592
14.114	62.3088
14.132	62.1604
14.15	62.029
14.168	61.9279
14.186	61.8655
14.204	61.8436
14.222	61.8579
14.24	61.8986
14.258	61.9549
14.276	62.0153
14.294	62.0718
14.312	62.1209
14.33	62.164
14.348	62.207
14.366	62.2577
14.384	62.3241
14.402	62.4105
14.42	62.5173
14.438	62.6398
14.456	62.7701
14.474	62.8975
14.492	63.0111
14.51	63.1018
14.528	63.1653
14.546	63.2022
14.564	63.2174
14.582	63.2187
14.6	63.215
14.618	63.2148
14.636	63.2238
14.654	63.2423
14.672	63.2678
14.69	63.2944
14.708	63.3146
14.726	63.3205
14.744	63.3039
14.762	63.2618
14.78	63.1931
14.798	63.099
14.816	62.9825
14.834	62.8484
14.852	62.701
14.87	62.5457
14.888	62.3873
14.906	62.231
14.924	62.0832
14.942	61.9505
14.96	61.8406
14.978	61.7607
14.996	61.7174
15.014	61.7153
15.032	61.7562
15.05	61.8367
15.068	61.9494
15.086	62.0844
15.104	62.2287
15.122	62.3661
15.14	62.4835
15.158	62.5722
15.176	62.6266
15.194	62.6456
15.212	62.6348
15.23	62.6039
15.248	62.5635
15.266	62.5255
15.284	62.5021
15.302	62.5003
15.32	62.523
15.338	62.57
15.356	62.6363
15.374	62.7136
15.392	62.7931
15.41	62.8659
15.428	62.9233
15.446	62.9576
15.464	62.9662
15.482	62.9479
15.5	62.9039
15.518	62.8376
15.536	62.7538
15.554	62.6573
15.572	62.5536
15.59	62.4492
15.608	62.3485
15.626	62.2558
15.644	62.1754
15.662	62.1119
15.68	62.0677
15.698	62.0448
15.716	62.0441
15.734	62.0641
15.752	62.1022
15.77	62.1553
15.788	62.2168
15.806	62.2807
15.824	62.3414
15.842	62.3922
15.86	62.4274
15.878	62.4446
15.896	62.4422
15.914	62.4218
15.932	62.3873
15.95	62.3425
15.968	62.2934
15.986	62.2479
16.004	62.2112
16.022	62.1887
16.04	62.1854
16.058	62.2026
16.076	62.2409
16.094	62.2992
16.112	62.3737
16.13	62.4614
16.148	62.5573
16.166	62.6554
16.184	62.7518
16.202	62.842
16.22	62.9218
16.238	62.9893
16.256	63.0428
16.274	63.0822
16.292	63.1086
16.31	63.123
16.328	63.1291
16.346	63.1305
16.364	63.1302
16.382	63.1332
16.4	63.1421
16.418	63.159
16.436	63.1858
16.454	63.2222
16.472	63.2677
16.49	63.319
16.508	63.3715
16.526	63.4218
16.544	63.4625
16.562	63.4887
16.58	63.4964
16.598	63.4803
16.616	63.4396
16.634	63.373
16.652	63.2825
16.67	63.1712
16.688	63.0425
16.706	62.9039
16.724	62.7597
16.742	62.6162
16.76	62.4793
16.778	62.3519
16.796	62.2383
16.814	62.1398
16.832	62.0571
16.85	61.9905
16.868	61.9389
16.886	61.9013
16.904	61.8765
16.922	61.8639
16.94	61.8627
16.958	61.8735
16.976	61.8968
16.994	61.9328
17.012	61.9828
17.03	62.0474
17.048	62.127
17.066	62.2213
17.084	62.3301
17.102	62.4505
17.12	62.5811
17.138	62.7176
17.156	62.8567
17.174	62.9952
17.192	63.1277
17.21	63.2522
17.228	63.3641
17.246	63.4614
17.264	63.5423
17.282	63.6049
17.3	63.6494
17.318	63.6755
17.336	63.6846
17.354	63.6773
17.372	63.6566
17.39	63.6236
17.408	63.5809
17.426	63.5311
17.444	63.4761
17.462	63.4189
17.48	63.3604
17.498	63.3033
17.516	63.2484
17.534	63.1964
17.552	63.1483
17.57	63.1043
17.588	63.0642
17.606	63.0277
17.624	62.9944
17.642	62.9633
17.66	62.9343
17.678	62.9062
17.696	62.8791
17.714	62.8524
17.732	62.8263
17.75	62.8005
17.768	62.7758
17.786	62.7524
17.804	62.7313
17.822	62.7127
17.84	62.6981
17.858	62.6879
17.876	62.683
17.894	62.6841
17.912	62.6916
17.93	62.7054
17.948	62.7255
17.966	62.7514
17.984	62.7827
18.002	62.8184
18.02	62.8577
18.038	62.8996
18.056	62.9425
18.074	62.9857
18.092	63.0274
18.11	63.0672
18.128	63.1035
18.146	63.1362
18.164	63.164
18.182	63.1868
18.2	63.2039
18.218	63.2156
18.236	63.2219
18.254	63.2233
18.272	63.2201
18.29	63.2134
18.308	63.2034
18.326	63.1915
18.344	63.1777
18.362	63.1634
18.38	63.1485
18.398	63.1336
18.416	63.1188
18.434	63.1044
18.452	63.0903
18.47	63.0765
18.488	63.0625
18.506	63.0483
18.524	63.0333
18.542	63.0173
18.56	62.9999
18.578	62.9813
18.596	62.961
18.614	62.9391
18.632	62.9152
18.65	62.8894
18.668	62.8615
18.686	62.8315
18.704	62.7994
18.722	62.7652
18.74	62.7294
18.758	62.692
18.776	62.6536
18.794	62.6144
18.812	62.5755
18.83	62.5372
18.848	62.5006
18.866	62.4661
18.884	62.4351
18.902	62.4079
18.92	62.3855
18.938	62.3683
18.956	62.3568
18.974	62.351
18.992	62.3512
19.01	62.3568
19.028	62.3675
19.046	62.3824
19.064	62.4004
19.082	62.4209
19.1	62.4421
19.118	62.4635
19.136	62.4834
19.154	62.5015
19.172	62.5162
19.19	62.5279
19.208	62.5356
19.226	62.5397
19.244	62.5402
19.262	62.5374
19.28	62.5325
19.298	62.5256
19.316	62.518
19.334	62.5098
19.352	62.5026
19.37	62.4963
19.388	62.4922
19.406	62.4901
19.424	62.4907
19.442	62.4941
19.46	62.5003
19.478	62.5094
19.496	62.5211
19.514	62.5352
19.532	62.5517
19.55	62.5703
19.568	62.5909
19.586	62.6129
19.604	62.6363
19.622	62.6605
19.64	62.6855
19.658	62.7103
19.676	62.735
19.694	62.7583
19.712	62.7804
19.73	62.8001
19.748	62.8174
19.766	62.8314
19.784	62.8419
19.802	62.8486
19.82	62.8512
19.838	62.8499
19.856	62.8448
19.874	62.836
19.892	62.8248
19.91	62.8109
19.928	62.7966
19.946	62.7815
19.964	62.7681
19.982	62.7565
20	62.7484
20.018	62.745
20.036	62.7466
20.054	62.7545
20.072	62.7685
20.09	62.7889
20.108	62.8159
20.126	62.8482
20.144	62.8862
20.162	62.928
20.18	62.9733
20.198	63.0207
20.216	63.0684
20.234	63.1163
20.252	63.1618
20.27	63.2052
20.288	63.2448
20.306	63.2804
20.324	63.3116
20.342	63.3378
20.36	63.3596
20.378	63.3771
20.396	63.3902
20.414	63.4004
20.432	63.4073
20.45	63.4123
20.468	63.4157
20.486	63.4179
20.504	63.42
20.522	63.4218
20.54	63.4241
20.558	63.4271
20.576	63.4305
20.594	63.4346
20.612	63.4391
20.63	63.4438
20.648	63.4488
20.666	63.453
20.684	63.4564
20.702	63.4583
20.72	63.4584
20.738	63.4566
20.756	63.4515
20.774	63.4434
20.792	63.4317
20.81	63.4161
20.828	63.3965
20.846	63.3724
20.864	63.3439
20.882	63.311
20.9	63.2735
20.918	63.2317
20.936	63.1857
20.954	63.1357
20.972	63.0823
20.99	63.0252
21.008	62.9656
21.026	62.9039
21.044	62.8405
21.062	62.7771
21.08	62.7132
21.098	62.651
21.116	62.5907
21.134	62.5332
21.152	62.4804
21.17	62.4317
21.188	62.3896
21.206	62.3542
21.224	62.3262
21.242	62.3074
21.26	62.2971
21.278	62.2965
21.296	62.3058
21.314	62.3246
21.332	62.353
21.35	62.391
21.368	62.4372
21.386	62.4916
21.404	62.5534
21.422	62.6205
21.44	62.6936
21.458	62.7698
21.476	62.848
21.494	62.9281
21.512	63.0062
21.53	63.0834
21.548	63.1575
21.566	63.2265
21.584	63.2911
21.602	63.349
21.62	63.4003
21.638	63.4446
21.656	63.4808
21.674	63.5093
21.692	63.5301
21.71	63.5431
21.728	63.5486
21.746	63.5476
21.764	63.5397
21.782	63.5261
21.8	63.5078
21.818	63.4844
21.836	63.4582
21.854	63.4291
21.872	63.3977
21.89	63.3658
21.908	63.3328
21.926	63.3
21.944	63.2681
21.962	63.2369
21.98	63.2071
21.998	63.1789
22.016	63.1524
22.034	63.1281
22.052	63.1062
22.07	63.0863
22.088	63.0685
22.106	63.0529
22.124	63.0392
22.142	63.0273
22.16	63.0171
22.178	63.0078
22.196	62.9996
22.214	62.992
22.232	62.9843
22.25	62.9769
22.268	62.9687
22.286	62.9594
22.304	62.9491
22.322	62.9369
22.34	62.9227
22.358	62.9066
22.376	62.8876
22.394	62.866
22.412	62.8417
22.43	62.8143
22.448	62.784
22.466	62.7506
22.484	62.714
22.502	62.6742
22.52	62.6313
22.538	62.585
22.556	62.5355
22.574	62.4832
22.592	62.4281
22.61	62.3703
22.628	62.3106
22.646	62.2489
22.664	62.1854
22.682	62.1204
22.7	62.0539
22.718	61.9859
22.736	61.9169
22.754	61.8465
22.772	61.7751
22.79	61.7028
22.808	61.6294
22.826	61.5555
22.844	61.4812
22.862	61.4065
22.88	61.3317
22.898	61.257
22.916	61.1822
22.934	61.1086
22.952	61.0364
22.97	60.9655
22.988	60.8972
23.006	60.8312
23.024	60.7678
23.042	60.7092
23.06	60.6552
23.078	60.6059
23.096	60.5643
23.114	60.5298
23.132	60.5029
23.15	60.4865
23.168	60.4802
23.186	60.4843
23.204	60.501
23.222	60.5301
23.24	60.5716
23.258	60.6262
23.276	60.6942
23.294	60.775
23.312	60.8675
23.33	60.9727
23.348	61.0894
23.366	61.214
23.384	61.3481
23.402	61.49
23.42	61.6343
23.438	61.7821
23.456	61.9323
23.474	62.0786
23.492	62.2208
23.51	62.3593
23.528	62.4879
23.546	62.6055
23.564	62.7135
23.582	62.8069
23.6	62.8839
23.618	62.9462
23.636	62.9913
23.654	63.0171
23.672	63.025
23.69	63.0154
23.708	62.9882
23.726	62.9427
23.744	62.8824
23.762	62.8095
23.78	62.7214
23.798	62.6233
23.816	62.5207
23.834	62.4096
23.852	62.2949
23.87	62.1846
23.888	62.075
23.906	61.9691
23.924	61.8757
23.942	61.794
23.96	61.7236
23.978	61.6718
23.996	61.6409
24.014	61.6281
24.032	61.6381
24.05	61.674
24.068	61.7338
24.086	61.818
24.104	61.9277
24.122	62.0632
24.14	62.2224
24.158	62.4031
24.176	62.6077
24.194	62.8333
24.212	63.0739
24.23	63.33
24.248	63.6024
24.266	63.8821
24.284	64.1649
24.302	64.456
24.32	64.7462
24.338	65.027
24.356	65.3046
24.374	65.5733
24.392	65.8234
24.41	66.0569
24.428	66.2739
24.446	66.4672
24.464	66.6336
24.482	66.7767
24.5	66.8926
24.518	66.9776
24.536	67.0333
24.554	67.0602
24.572	67.0584
24.59	67.0257
24.608	66.9646
24.626	66.88
24.644	66.773
24.662	66.6409
24.68	66.4908
24.698	66.3287
24.716	66.1494
24.734	65.958
24.752	65.7632
24.77	65.5651
24.788	65.3615
24.806	65.1595
24.824	64.9638
24.842	64.77
24.86	64.5819
24.878	64.4045
24.896	64.2378
24.914	64.0803
24.932	63.9325
24.95	63.7953
24.968	63.6692
24.986	63.5508
25.004	63.4373
25.022	63.3317
25.04	63.2315
25.058	63.1306
25.076	63.0271
25.094	62.9246
25.112	62.8172
25.13	62.699
25.148	62.5726
25.166	62.4375
25.184	62.2894
25.202	62.126
25.22	61.9492
25.238	61.7591
25.256	61.5557
25.274	61.3366
25.292	61.1044
25.31	60.8635
25.328	60.6154
25.346	60.3561
25.364	60.0924
25.382	59.832
25.4	59.5713
25.418	59.3106
25.436	59.0595
25.454	58.8248
25.472	58.5993
25.49	58.3886
25.508	58.2008
25.526	58.0379
25.544	57.896
25.562	57.7788
25.58	57.6899
25.598	57.6298
25.616	57.596
25.634	57.5866
25.652	57.6016
25.67	57.6442
25.688	57.7076
25.706	57.7841
25.724	57.876
25.742	57.9854
25.76	58.1007
25.778	58.2112
25.796	58.3258
25.814	58.4399
25.832	58.5414
25.85	58.6226
25.868	58.6931
25.886	58.7455
25.904	58.7697
25.922	58.763
25.94	58.7309
25.958	58.6691
25.976	58.573
25.994	58.4424
26.012	58.2794
26.03	58.0847
26.048	57.8587
26.066	57.5984
26.084	57.3077
26.102	56.9923
26.12	56.6553
26.138	56.2909
26.156	55.9056
26.174	55.5071
26.192	55.0973
26.21	54.6706
26.228	54.2347
26.246	53.7971
26.264	53.3579
26.282	52.9138
26.3	52.4698
26.318	52.0308
26.336	51.5962
26.354	51.1645
26.372	50.7366
26.39	50.3136
26.408	49.8966
26.426	49.4839
26.444	49.0731
26.462	48.6623
26.48	48.2547
26.498	47.8478
26.516	47.4376
26.534	47.0211
26.552	46.602
26.57	46.1782
26.588	45.7464
26.606	45.3041
26.624	44.8535
26.642	44.3944
26.66	43.9264
26.678	43.4481
26.696	42.9587
26.714	42.4615
26.732	41.9605
26.75	41.4568
26.768	40.9464
26.786	40.434
26.804	39.9251
26.822	39.4203
26.84	38.9131
26.858	38.413
26.876	37.9303
26.894	37.4681
26.912	37.016
26.93	36.5855
26.948	36.1898
26.966	35.8307
26.984	35.4903
27.002	35.1929
27.02	34.9656
27.028	34.9017