File: Bakgrunnsmateriale/MATLAB/FTIR/ftir_data/subAa/Mapping_121/BZ1503107-1_t25_cm-1.asc
PE IR       SPECTRUM    SPECTRUM    ASCII       PEDS        1.60
  -1
BZ6D23~1.ASC
17/04/07
15:19:05.00
17/04/07
15:19:05.00
tln
$BZ1503107-1_t0025$<tbV0>[7.8,-7.8,8.0,0.0,27,1,0]
370
64

2002,4.07
MIRTGS : RIGHTBACK : INTERNAL 2
MIR : ON : INTERNAL 2
OPTKBR

0.200000
8
8.000000
FILLER
RATIO
SPECTRUM
UNLOCKED 256

DOUBLE
64
COMBINED
1
0
0

1.000000
RATIO

1
0
TRUE
51149
0
LEFT NOT FITTED RIGHT NOT FITTED 0
NONE
NONE
15600
12
4.427000
51148
TRUE
1 0 8 72 0 0 0 0

15798

#HDR
-1
-1
#GR
CM-1
%T
2.38419e-05
0.0
5000
-1.000000
4631
8
81.6296
40.1827
#DATA
5000	65.7369
4996	65.1109
4992	64.5644
4988	64.4623
4984	64.5451
4980	64.4783
4976	64.3188
4972	64.1936
4968	64.1744
4964	64.2816
4960	64.4269
4956	64.3564
4952	64.1968
4948	64.3769
4944	64.8538
4940	65.2043
4936	64.9293
4932	64.4332
4928	64.5382
4924	64.9452
4920	64.9261
4916	64.4873
4912	64.5001
4908	64.9306
4904	64.7598
4900	64.2514
4896	64.0376
4892	64.0552
4888	64.2514
4884	64.5393
4880	64.8361
4876	65.1023
4872	64.9888
4868	64.7077
4864	64.9271
4860	65.273
4856	65.3186
4852	65.0871
4848	64.7588
4844	64.8328
4840	65.1352
4836	65.101
4832	64.8684
4828	64.8172
4824	64.7961
4820	64.7989
4816	64.9679
4812	65.0512
4808	64.9528
4804	64.912
4800	64.997
4796	65.0429
4792	65.0986
4788	65.2908
4784	65.3665
4780	65.2001
4776	65.1505
4772	65.2677
4768	65.3064
4764	65.3299
4760	65.3726
4756	65.4805
4752	65.7292
4748	65.7141
4744	65.4491
4740	65.3588
4736	65.3846
4732	65.4054
4728	65.2234
4724	64.9721
4720	65.1054
4716	65.4624
4712	65.7151
4708	65.7448
4704	65.4712
4700	65.0199
4696	64.8866
4692	65.2294
4688	65.5021
4684	65.3761
4680	65.0481
4676	64.9329
4672	65.0501
4668	65.0527
4664	64.9651
4660	64.9513
4656	65.0659
4652	65.1268
4648	65.1044
4644	65.1446
4640	65.1105
4636	65.0951
4632	65.0381
4628	64.8467
4624	64.7788
4620	64.8757
4616	64.8796
4612	64.713
4608	64.6851
4604	64.7641
4600	64.7115
4596	64.7093
4592	64.8079
4588	64.6532
4584	64.3253
4580	64.3149
4576	64.5197
4572	64.5668
4568	64.544
4564	64.4902
4560	64.4013
4556	64.3886
4552	64.3415
4548	64.4081
4544	64.651
4540	64.5131
4536	63.8617
4532	63.433
4528	63.6891
4524	63.9749
4520	63.9594
4516	64.0534
4512	64.2986
4508	64.5022
4504	64.3154
4500	63.9132
4496	63.8959
4492	64.0395
4488	64.0855
4484	64.2731
4480	64.4469
4476	64.2813
4472	64.0857
4468	63.9518
4464	63.7596
4460	63.915
4456	64.0878
4452	63.8009
4448	63.5361
4444	63.5021
4440	64.6466
4436	65.4143
4432	65.7948
4428	70.7287
4424	79.4419
4420	80.7792
4416	72.9017
4412	67.3982
4408	66.8703
4404	66.1646
4400	65.0708
4396	64.2801
4392	64.0737
4388	64.3309
4384	64.458
4380	64.4006
4376	64.4221
4372	64.4944
4368	64.3737
4364	64.1619
4360	64.0233
4356	63.9501
4352	63.8665
4348	63.808
4344	63.9796
4340	64.2578
4336	64.2714
4332	64.0654
4328	63.9872
4324	64.1344
4320	64.181
4316	64.0379
4312	64.0004
4308	64.1271
4304	64.2743
4300	64.3575
4296	64.4157
4292	64.5116
4288	64.5461
4284	64.5396
4280	64.5473
4276	64.591
4272	64.6425
4268	64.6655
4264	64.7054
4260	64.6891
4256	64.8008
4252	65.03
4248	64.9297
4244	64.7646
4240	64.8305
4236	64.8016
4232	64.7784
4228	64.9303
4224	65.0534
4220	65.0449
4216	64.9288
4212	64.8737
4208	64.9231
4204	64.9535
4200	65.0092
4196	65.0373
4192	65.052
4188	65.135
4184	65.1472
4180	65.0554
4176	65.0033
4172	65.0543
4168	65.0985
4164	65.1688
4160	65.3497
4156	65.406
4152	65.2739
4148	65.2186
4144	65.188
4140	65.074
4136	65.0108
4132	65.0238
4128	65.1116
4124	65.234
4120	65.3286
4116	65.3384
4112	65.4252
4108	65.6061
4104	65.4396
4100	65.0543
4096	65.0371
4092	65.2636
4088	65.3819
4084	65.4313
4080	65.4057
4076	65.3122
4072	65.2373
4068	65.2244
4064	65.2409
4060	65.2212
4056	65.2701
4052	65.3444
4048	65.3476
4044	65.3336
4040	65.3061
4036	65.219
4032	65.0635
4028	65.0177
4024	65.1331
4020	65.1734
4016	65.0592
4012	65.0499
4008	65.2402
4004	65.3048
4000	65.2874
3996	65.4186
3992	65.4411
3988	65.2268
3984	64.9707
3980	64.9451
3976	65.1144
3972	65.0768
3968	64.964
3964	65.0763
3960	65.1237
3956	64.8878
3952	64.6286
3948	64.6714
3944	64.9098
3940	65.0418
3936	65.0844
3932	65.1155
3928	65.1902
3924	65.2532
3920	65.2087
3916	65.1939
3912	65.2162
3908	65.1947
3904	65.1535
3900	65.037
3896	64.901
3892	64.9091
3888	64.9849
3884	65.0287
3880	65.1163
3876	65.2297
3872	65.1761
3868	64.9998
3864	64.9604
3860	65.0102
3856	65.0632
3852	65.1277
3848	65.0725
3844	65.0258
3840	65.1347
3836	65.1868
3832	65.1269
3828	65.1433
3824	65.2873
3820	65.3737
3816	65.2752
3812	65.1254
3808	65.1243
3804	65.2464
3800	65.2969
3796	65.2592
3792	65.2683
3788	65.274
3784	65.1333
3780	65.006
3776	65.0375
3772	65.0948
3768	65.0737
3764	65.0146
3760	64.9533
3756	64.9744
3752	65.0981
3748	65.1496
3744	65.1236
3740	65.112
3736	65.16
3732	65.2748
3728	65.4006
3724	65.5492
3720	65.6468
3716	65.5934
3712	65.5133
3708	65.4772
3704	65.4543
3700	65.4655
3696	65.4094
3692	65.2098
3688	65.1135
3684	65.2106
3680	65.2493
3676	65.2779
3672	65.3619
3668	65.3728
3664	65.3469
3660	65.3371
3656	65.3066
3652	65.24
3648	65.2111
3644	65.2488
3640	65.2499
3636	65.2158
3632	65.3034
3628	65.4422
3624	65.4577
3620	65.415
3616	65.379
3612	65.3548
3608	65.3469
3604	65.2971
3600	65.2544
3596	65.3121
3592	65.3545
3588	65.272
3584	65.2096
3580	65.2141
3576	65.1669
3572	65.0944
3568	65.0689
3564	65.1107
3560	65.1861
3556	65.1643
3552	65.0059
3548	64.9366
3544	65.0359
3540	65.1151
3536	65.12
3532	65.0789
3528	65.0015
3524	64.9695
3520	65.048
3516	65.152
3512	65.1891
3508	65.1982
3504	65.2298
3500	65.2657
3496	65.2383
3492	65.1865
3488	65.1207
3484	64.9783
3480	64.9151
3476	65.0237
3472	65.0774
3468	65.0118
3464	64.9623
3460	64.9485
3456	64.9803
3452	64.9933
3448	64.9462
3444	64.9031
3440	64.8919
3436	64.8983
3432	64.8832
3428	64.9253
3424	65.098
3420	65.2028
3416	65.1074
3412	65.0363
3408	65.0939
3404	65.1936
3400	65.2631
3396	65.2719
3392	65.263
3388	65.2699
3384	65.3008
3380	65.2033
3376	65.0255
3372	65.0167
3368	65.0794
3364	65.0971
3360	65.1083
3356	65.07
3352	65.0208
3348	65.075
3344	65.1882
3340	65.231
3336	65.1721
3332	65.1339
3328	65.1469
3324	65.1249
3320	65.068
3316	65.015
3312	65.0225
3308	65.0903
3304	65.1242
3300	65.1335
3296	65.15
3292	65.1171
3288	65.0638
3284	65.0576
3280	65.1152
3276	65.1921
3272	65.2071
3268	65.1888
3264	65.1939
3260	65.1331
3256	65.007
3252	64.9875
3248	65.0344
3244	65.0476
3240	65.081
3236	65.0994
3232	65.0743
3228	65.1299
3224	65.2161
3220	65.1057
3216	64.9209
3212	64.9366
3208	65.0912
3204	65.1778
3200	65.1384
3196	65.011
3192	64.8944
3188	64.9415
3184	65.0515
3180	65.1252
3176	65.2378
3172	65.2953
3168	65.2658
3164	65.2273
3160	65.2192
3156	65.2482
3152	65.2496
3148	65.1524
3144	65.0509
3140	65.0564
3136	65.0215
3132	64.9567
3128	65.0053
3124	65.0691
3120	65.1154
3116	65.0948
3112	64.9809
3108	65.0029
3104	65.1413
3100	65.2248
3096	65.2181
3092	65.0959
3088	65.0103
3084	65.1285
3080	65.2987
3076	65.3025
3072	65.2231
3068	65.2048
3064	65.2115
3060	65.1899
3056	65.1472
3052	65.1168
3048	65.0843
3044	65.0608
3040	65.0794
3036	65.1128
3032	65.1419
3028	65.1166
3024	65.0513
3020	65.0614
3016	65.1434
3012	65.1829
3008	65.1693
3004	65.1757
3000	65.1762
2996	65.1464
2992	65.1678
2988	65.2019
2984	65.1582
2980	65.037
2976	64.9199
2972	64.8938
2968	64.9146
2964	64.989
2960	65.0958
2956	65.1423
2952	65.1288
2948	65.0498
2944	64.9447
2940	64.9273
2936	64.9715
2932	64.9852
2928	65.0341
2924	65.1092
2920	65.0526
2916	64.9216
2912	64.9183
2908	65.0069
2904	65.0701
2900	65.1031
2896	65.0959
2892	65.0467
2888	65.0171
2884	64.9804
2880	64.9427
2876	64.9772
2872	65.0293
2868	65.0577
2864	65.064
2860	65.0261
2856	65.0347
2852	65.0404
2848	64.93
2844	64.9091
2840	65.0465
2836	65.1019
2832	65.0537
2828	65.0794
2824	65.1246
2820	65.0905
2816	65.0954
2812	65.1415
2808	65.1238
2804	65.0934
2800	65.1495
2796	65.2363
2792	65.2499
2788	65.2149
2784	65.1408
2780	65.0895
2776	65.1381
2772	65.1983
2768	65.1826
2764	65.1253
2760	65.1065
2756	65.1486
2752	65.1839
2748	65.2028
2744	65.2204
2740	65.1856
2736	65.1209
2732	65.099
2728	65.1014
2724	65.1008
2720	65.0859
2716	65.0193
2712	64.9389
2708	64.9584
2704	65.1318
2700	65.2865
2696	65.2509
2692	65.1591
2688	65.134
2684	65.1064
2680	65.072
2676	65.0807
2672	65.0538
2668	65.0036
2664	65.0555
2660	65.1403
2656	65.1463
2652	65.083
2648	65.0148
2644	64.9908
2640	65.0222
2636	65.0512
2632	65.0408
2628	65.0466
2624	65.0333
2620	64.983
2616	64.9259
2612	64.9033
2608	64.9296
2604	64.9717
2600	65.0805
2596	65.1385
2592	65.054
2588	64.9951
2584	64.974
2580	64.9327
2576	64.9496
2572	64.9779
2568	64.9509
2564	64.9822
2560	65.0845
2556	65.1071
2552	65.0437
2548	65.006
2544	65.0084
2540	65.0172
2536	65.0086
2532	65.0101
2528	65.0042
2524	64.9457
2520	64.8764
2516	64.8563
2512	64.9235
2508	64.986
2504	64.9935
2500	64.9849
2496	64.9527
2492	64.9381
2488	64.9908
2484	65.0514
2480	65.0667
2476	65.0734
2472	65.0525
2468	64.9424
2464	64.8304
2460	64.8338
2456	64.8743
2452	64.9261
2448	64.9804
2444	64.9562
2440	64.9109
2436	64.9045
2432	64.9328
2428	64.9835
2424	65.0358
2420	65.0298
2416	64.9367
2412	64.8708
2408	64.9017
2404	64.9462
2400	64.9493
2396	64.9743
2392	65.0488
2388	65.0757
2384	65.0194
2380	64.9542
2376	64.9405
2372	64.9573
2368	64.9615
2364	64.9421
2360	64.9213
2356	64.892
2352	64.8448
2348	64.8771
2344	64.9554
2340	64.9692
2336	64.9232
2332	64.8687
2328	64.8745
2324	64.9043
2320	64.9142
2316	64.9545
2312	65.0005
2308	65.0021
2304	64.9856
2300	64.934
2296	64.8964
2292	64.9551
2288	65.0002
2284	64.9619
2280	64.9104
2276	64.8992
2272	64.9127
2268	64.9096
2264	64.9047
2260	64.8892
2256	64.8504
2252	64.8367
2248	64.8549
2244	64.867
2240	64.8914
2236	64.9797
2232	65.0431
2228	64.9626
2224	64.872
2220	64.8944
2216	64.9183
2212	64.8701
2208	64.8251
2204	64.8575
2200	64.9019
2196	64.8805
2192	64.8678
2188	64.9005
2184	64.9293
2180	64.9245
2176	64.8845
2172	64.8839
2168	64.8992
2164	64.8945
2160	64.9158
2156	64.9088
2152	64.8444
2148	64.7131
2144	64.6371
2140	64.7368
2136	64.8294
2132	64.8447
2128	64.8623
2124	64.8474
2120	64.8206
2116	64.8387
2112	64.8739
2108	64.8763
2104	64.8241
2100	64.7909
2096	64.7966
2092	64.834
2088	64.9572
2084	64.9548
2080	64.743
2076	64.5885
2072	64.5689
2068	64.6695
2064	64.8042
2060	64.8276
2056	64.824
2052	64.8435
2048	64.8513
2044	64.8306
2040	64.8247
2036	64.8557
2032	64.8521
2028	64.8666
2024	64.8826
2020	64.8355
2016	64.8381
2012	64.8865
2008	64.8915
2004	64.8874
2000	64.8875
1996	64.8425
1992	64.789
1988	64.793
1984	64.8224
1980	64.8216
1976	64.7853
1972	64.8171
1968	64.8932
1964	64.8813
1960	64.8259
1956	64.7987
1952	64.8346
1948	64.8726
1944	64.8734
1940	64.9099
1936	64.9074
1932	64.8168
1928	64.7381
1924	64.7052
1920	64.6806
1916	64.6899
1912	64.7669
1908	64.8141
1904	64.7788
1900	64.7317
1896	64.719
1892	64.7555
1888	64.7861
1884	64.742
1880	64.6852
1876	64.6819
1872	64.7363
1868	64.7924
1864	64.7659
1860	64.7139
1856	64.742
1852	64.8162
1848	64.8235
1844	64.7967
1840	64.8011
1836	64.7732
1832	64.7071
1828	64.645
1824	64.625
1820	64.6476
1816	64.6369
1812	64.597
1808	64.604
1804	64.6576
1800	64.6808
1796	64.6527
1792	64.6245
1788	64.6329
1784	64.6232
1780	64.5861
1776	64.5858
1772	64.603
1768	64.6265
1764	64.6168
1760	64.5418
1756	64.4773
1752	64.4335
1748	64.4237
1744	64.4753
1740	64.4886
1736	64.4258
1732	64.3864
1728	64.3769
1724	64.3249
1720	64.2906
1716	64.3562
1712	64.4575
1708	64.5238
1704	64.579
1700	64.5915
1696	64.5237
1692	64.4995
1688	64.5638
1684	64.5772
1680	64.5292
1676	64.5351
1672	64.6076
1668	64.6405
1664	64.5928
1660	64.5196
1656	64.4598
1652	64.411
1648	64.3946
1644	64.4479
1640	64.4902
1636	64.4901
1632	64.5122
1628	64.5013
1624	64.4616
1620	64.4717
1616	64.4685
1612	64.45
1608	64.4957
1604	64.5241
1600	64.4871
1596	64.4761
1592	64.4703
1588	64.4444
1584	64.4671
1580	64.5507
1576	64.611
1572	64.5944
1568	64.5433
1564	64.5469
1560	64.6117
1556	64.6193
1552	64.5509
1548	64.4851
1544	64.439
1540	64.4269
1536	64.4445
1532	64.4343
1528	64.4085
1524	64.4274
1520	64.4962
1516	64.5709
1512	64.626
1508	64.6601
1504	64.6645
1500	64.6502
1496	64.6017
1492	64.5619
1488	64.5576
1484	64.5088
1480	64.4675
1476	64.4757
1472	64.4696
1468	64.4825
1464	64.549
1460	64.5671
1456	64.5308
1452	64.5242
1448	64.5202
1444	64.5034
1440	64.5143
1436	64.5285
1432	64.458
1428	64.3771
1424	64.3834
1420	64.3671
1416	64.317
1412	64.3147
1408	64.3888
1404	64.4758
1400	64.4723
1396	64.4183
1392	64.3611
1388	64.3486
1384	64.3759
1380	64.3459
1376	64.3056
1372	64.3243
1368	64.3695
1364	64.3913
1360	64.3582
1356	64.3205
1352	64.2695
1348	64.2234
1344	64.2782
1340	64.4163
1336	64.5366
1332	64.5217
1328	64.4212
1324	64.3252
1320	64.2786
1316	64.3421
1312	64.4123
1308	64.412
1304	64.3547
1300	64.2855
1296	64.2956
1292	64.3407
1288	64.3826
1284	64.4245
1280	64.3353
1276	64.1645
1272	64.1114
1268	64.1557
1264	64.1911
1260	64.2001
1256	64.2452
1252	64.3337
1248	64.3457
1244	64.3002
1240	64.3054
1236	64.3156
1232	64.2928
1228	64.2369
1224	64.1576
1220	64.1378
1216	64.1859
1212	64.1976
1208	64.1382
1204	64.0879
1200	64.0884
1196	64.1319
1192	64.1836
1188	64.1736
1184	64.143
1180	64.1828
1176	64.1823
1172	64.1
1168	64.072
1164	64.1209
1160	64.16
1156	64.1344
1152	64.1102
1148	64.0954
1144	64.0505
1140	64.0585
1136	64.1285
1132	64.1073
1128	64.0045
1124	63.9798
1120	64.0613
1116	64.1341
1112	64.0714
1108	63.9425
1104	63.9475
1100	64.0213
1096	64.0697
1092	64.1289
1088	64.1579
1084	64.122
1080	64.0964
1076	64.1739
1072	64.2444
1068	64.207
1064	64.1139
1060	64.0267
1056	64.0533
1052	64.1528
1048	64.138
1044	64.0498
1040	64.0517
1036	64.1442
1032	64.2286
1028	64.2322
1024	64.1876
1020	64.1825
1016	64.2273
1012	64.2345
1008	64.1912
1004	64.2089
1000	64.2908
996	 64.3034
992	 64.2127
988	 64.1242
984	 64.1806
980	 64.3283
976	 64.3448
972	 64.2411
968	 64.097
964	 63.9771
960	 64.0221
956	 64.1226
952	 64.1702
948	 64.2106
944	 64.1926
940	 64.1576
936	 64.172
932	 64.1412
928	 64.1129
924	 64.1679
920	 64.2395
916	 64.2776
912	 64.2122
908	 64.1385
904	 64.2106
900	 64.2987
896	 64.2626
892	 64.1057
888	 63.9129
884	 63.9314
880	 64.2062
876	 64.3953
872	 64.3391
868	 64.1915
864	 64.04
860	 64.0629
856	 64.2952
852	 64.3456
848	 64.1537
844	 64.0464
840	 64.0959
836	 64.0831
832	 64.0002
828	 64.0716
824	 64.2312
820	 64.3011
816	 64.283
812	 64.1868
808	 64.0938
804	 64.1222
800	 64.2346
796	 64.3864
792	 64.4899
788	 64.4227
784	 64.2641
780	 64.0527
776	 63.8585
772	 63.7971
768	 63.8688
764	 64.0387
760	 64.1963
756	 64.2518
752	 64.1822
748	 64.2191
744	 64.3657
740	 64.3353
736	 64.169
732	 64.0965
728	 64.2316
724	 64.3084
720	 64.2014
716	 63.9231
712	 63.5848
708	 63.5403
704	 63.599
700	 63.602
696	 63.7744
692	 63.8009
688	 63.5673
684	 63.4832
680	 63.5342
676	 63.4277
672	 63.148
668	 63.4198
664	 63.98
660	 64.2792
656	 64.6708
652	 64.4564
648	 63.7236
644	 63.7223
640	 64.3181
636	 64.6174
632	 64.6359
628	 64.6958
624	 64.4897
620	 63.75
616	 63.0798
612	 63.1004
608	 63.4527
604	 63.7206
600	 64.0186
596	 64.3634
592	 64.5246
588	 64.3549
584	 64.0346
580	 64.0882
576	 64.5265
572	 64.7868
568	 64.4716
564	 64.0667
560	 64.2411
556	 64.6079
552	 64.6522
548	 64.3861
544	 64.0068
540	 63.6806
536	 63.7574
532	 63.9564
528	 64.1031
524	 64.2474
520	 64.133
516	 63.9106
512	 63.8968
508	 64.151
504	 64.3912
500	 64.4119
496	 64.24
492	 64.1558
488	 64.173
484	 64.1902
480	 64.2244
476	 63.7866
472	 63.5953
468	 63.8433
464	 63.498
460	 63.2126
456	 63.6274
452	 63.9872
448	 63.8928
444	 63.2814
440	 62.389
436	 62.2563
432	 62.7935
428	 63.5124
424	 64.5616
420	 64.7736
416	 64.8188
412	 65.7135
408	 63.436
404	 57.8211
400	 55.5061
396	 62.3598
392	 75.2584
388	 79.3036
384	 69.3161
380	 55.1447
376	 44.6694
372	 40.1827
370	 40.5212