File: Bakgrunnsmateriale/MATLAB/FTIR/ftir_data/subAa/Mapping_121/BZ1503107-1_t59_cm-1.asc
PE IR       SPECTRUM    SPECTRUM    ASCII       PEDS        1.60
  -1
BZ61B3~1.ASC
17/04/07
18:04:21.00
17/04/07
18:04:21.00
tln
$BZ1503107-1_t0059$<tbV0>[5.2,0.0,8.0,0.0,27,1,0]
370
64

2002,4.07
MIRTGS : RIGHTBACK : INTERNAL 2
MIR : ON : INTERNAL 2
OPTKBR

0.200000
8
8.000000
FILLER
RATIO
SPECTRUM
UNLOCKED 256

DOUBLE
64
COMBINED
1
0
0

1.000000
RATIO

1
0
TRUE
51149
0
LEFT NOT FITTED RIGHT NOT FITTED 0
NONE
NONE
15600
12
4.427000
51148
TRUE
1 0 8 72 0 0 0 0

15798

#HDR
-1
-1
#GR
CM-1
%T
2.38419e-05
0.0
5000
-1.000000
4631
8
80.8748
56.5253
#DATA
5000	66.3347
4996	67.1255
4992	67.0766
4988	66.3691
4984	66.0563
4980	66.5805
4976	67.2397
4972	66.854
4968	65.5489
4964	64.1839
4960	63.1508
4956	63.3852
4952	64.1686
4948	64.4356
4944	64.89
4940	65.0343
4936	64.7022
4932	64.5897
4928	64.4272
4924	64.319
4920	64.3903
4916	64.4819
4912	64.7817
4908	64.9607
4904	64.7654
4900	64.595
4896	64.5955
4892	64.6399
4888	64.6789
4884	64.6732
4880	64.6792
4876	64.6897
4872	64.4849
4868	64.2267
4864	64.4155
4860	64.8839
4856	65.1518
4852	65.0656
4848	64.7831
4844	64.797
4840	64.9156
4836	64.7661
4832	64.6914
4828	64.8113
4824	64.9237
4820	64.9765
4816	64.9062
4812	64.8235
4808	64.9569
4804	65.0878
4800	64.9304
4796	64.7264
4792	64.6486
4788	64.5155
4784	64.3805
4780	64.3712
4776	64.5297
4772	64.8884
4768	65.2581
4764	65.3013
4760	65.0481
4756	64.9035
4752	64.8907
4748	64.823
4744	64.782
4740	64.8383
4736	64.8705
4732	64.8618
4728	64.9673
4724	65.028
4720	65.0292
4716	65.2158
4712	65.4263
4708	65.355
4704	64.9818
4700	64.7592
4696	64.9742
4692	65.2726
4688	65.298
4684	65.2206
4680	65.2162
4676	65.0618
4672	64.8378
4668	64.7205
4664	64.7059
4660	64.9603
4656	65.199
4652	65.1231
4648	65.0444
4644	65.0759
4640	65.1837
4636	65.2543
4632	65.1853
4628	65.0191
4624	64.7544
4620	64.591
4616	64.6958
4612	64.8872
4608	64.9895
4604	65.0894
4600	65.1541
4596	65.1535
4592	65.1511
4588	64.9839
4584	64.656
4580	64.622
4576	64.9308
4572	64.978
4568	64.7158
4564	64.7397
4560	65.0885
4556	65.2731
4552	65.2522
4548	65.1691
4544	65.1789
4540	65.2808
4536	65.2329
4532	65.1746
4528	65.2341
4524	65.3616
4520	65.5185
4516	65.4418
4512	65.0588
4508	64.7799
4504	64.8864
4500	65.0997
4496	65.2192
4492	65.2593
4488	65.1994
4484	65.082
4480	65.1618
4476	65.2529
4472	65.1985
4468	65.3209
4464	65.409
4460	64.9479
4456	64.5038
4452	62.6482
4448	57.7732
4444	57.5016
4440	64.8274
4436	72.0368
4432	71.2203
4428	63.2295
4424	58.9093
4420	59.5971
4416	61.428
4412	63.6132
4408	64.6673
4404	64.741
4400	65.036
4396	65.3327
4392	65.3492
4388	65.1277
4384	64.9451
4380	64.8026
4376	64.6575
4372	64.7618
4368	65.1233
4364	65.4602
4360	65.6118
4356	65.4799
4352	65.2034
4348	65.2092
4344	65.3287
4340	65.1933
4336	65.1177
4332	65.1997
4328	65.3123
4324	65.3647
4320	65.2431
4316	65.0915
4312	64.9215
4308	64.8578
4304	65.0875
4300	65.2609
4296	65.1258
4292	64.9425
4288	64.9119
4284	64.9664
4280	64.9792
4276	64.9435
4272	64.9513
4268	64.9919
4264	65.0292
4260	65.0552
4256	65.1123
4252	65.2803
4248	65.4463
4244	65.4796
4240	65.3692
4236	65.2422
4232	65.1384
4228	65.0023
4224	64.9934
4220	65.0655
4216	65.1005
4212	65.1373
4208	65.122
4204	65.0996
4200	65.048
4196	64.966
4192	65.0886
4188	65.2397
4184	65.1005
4180	64.9499
4176	65.0388
4172	65.0639
4168	64.9261
4164	64.8587
4160	64.8539
4156	64.7631
4152	64.6657
4148	64.7608
4144	64.9718
4140	65.0344
4136	64.8935
4132	64.7881
4128	64.8453
4124	65.0249
4120	65.1326
4116	65.0495
4112	64.9679
4108	64.9028
4104	64.8925
4100	65.0373
4096	65.1335
4092	65.0947
4088	65.0419
4084	65.008
4080	65.0317
4076	65.139
4072	65.1938
4068	65.0849
4064	64.9724
4060	64.9507
4056	64.8827
4052	64.7898
4048	64.7883
4044	64.8763
4040	64.9672
4036	65.0269
4032	65.1154
4028	65.1006
4024	64.9343
4020	64.8641
4016	64.9028
4012	64.9649
4008	65.0764
4004	65.1541
4000	65.132
3996	65.1773
3992	65.4
3988	65.4227
3984	65.0748
3980	64.8209
3976	64.9569
3972	65.2025
3968	65.2053
3964	65.1135
3960	65.086
3956	65.0137
3952	64.8525
3948	64.7495
3944	64.8665
3940	65.0122
3936	65.0663
3932	65.0901
3928	65.0095
3924	64.9559
3920	65.0952
3916	65.1287
3912	64.9714
3908	64.8575
3904	64.8711
3900	65.0062
3896	65.1579
3892	65.2991
3888	65.3388
3884	65.2133
3880	65.1811
3876	65.2907
3872	65.2879
3868	65.1957
3864	65.2443
3860	65.3648
3856	65.361
3852	65.3091
3848	65.2264
3844	65.1093
3840	65.1564
3836	65.2858
3832	65.2442
3828	65.0666
3824	64.9394
3820	64.9413
3816	65.014
3812	65.0693
3808	65.1071
3804	65.1617
3800	65.1716
3796	65.0513
3792	64.9488
3788	65.0326
3784	65.1888
3780	65.2357
3776	65.233
3772	65.2437
3768	65.1997
3764	65.1417
3760	65.1346
3756	65.1132
3752	65.0074
3748	64.9807
3744	65.0802
3740	65.0986
3736	65.0923
3732	65.116
3728	65.1051
3724	65.1141
3720	65.1705
3716	65.2984
3712	65.3604
3708	65.2473
3704	65.1428
3700	65.108
3696	65.0739
3692	65.0268
3688	65.0344
3684	65.1078
3680	65.1098
3676	65.076
3672	65.1021
3668	65.1113
3664	65.0885
3660	65.0882
3656	65.1073
3652	65.131
3648	65.1675
3644	65.2285
3640	65.3374
3636	65.3704
3632	65.2204
3628	65.1107
3624	65.1404
3620	65.156
3616	65.1037
3612	65.0521
3608	65.0668
3604	65.0881
3600	65.0907
3596	65.1333
3592	65.1444
3588	65.1091
3584	65.1038
3580	65.0842
3576	65.0248
3572	64.9736
3568	64.9766
3564	65.0302
3560	65.0207
3556	64.9868
3552	65.0934
3548	65.1972
3544	65.1607
3540	65.1106
3536	65.0353
3532	64.9621
3528	65.0391
3524	65.17
3520	65.2559
3516	65.293
3512	65.2836
3508	65.2619
3504	65.2294
3500	65.185
3496	65.1924
3492	65.2446
3488	65.1908
3484	65.0752
3480	65.0316
3476	65.0909
3472	65.1618
3468	65.1352
3464	65.1222
3460	65.1658
3456	65.1698
3452	65.146
3448	65.0973
3444	65.0355
3440	65.0284
3436	65.0443
3432	65.0516
3428	65.0775
3424	65.1447
3420	65.1888
3416	65.0941
3412	64.9508
3408	64.9199
3404	64.9236
3400	64.9489
3396	65.0496
3392	65.0981
3388	65.0933
3384	65.0989
3380	65.1114
3376	65.1721
3372	65.204
3368	65.1596
3364	65.1887
3360	65.2318
3356	65.127
3352	64.998
3348	64.9667
3344	65.0017
3340	65.0214
3336	64.967
3332	64.9333
3328	64.9807
3324	65.0271
3320	65.0243
3316	64.9776
3312	64.9796
3308	65.0315
3304	65.0281
3300	64.9785
3296	64.9015
3292	64.8894
3288	65.0179
3284	65.1686
3280	65.183
3276	65.0506
3272	64.9014
3268	64.845
3264	64.9366
3260	65.085
3256	65.1272
3252	65.0697
3248	65.0332
3244	65.0784
3240	65.1488
3236	65.157
3232	65.1174
3228	65.1294
3224	65.1576
3220	65.1287
3216	65.0741
3212	64.9958
3208	64.9805
3204	65.0853
3200	65.1607
3196	65.1565
3192	65.1257
3188	65.0836
3184	65.0553
3180	65.0337
3176	65.0493
3172	65.0977
3168	65.0885
3164	65.0882
3160	65.0903
3156	65.0669
3152	65.0915
3148	65.066
3144	65.0142
3140	65.0049
3136	64.9604
3132	64.9116
3128	64.9689
3124	65.1051
3120	65.1374
3116	65.0311
3112	64.9366
3108	64.9594
3104	65.0341
3100	65.0682
3096	65.057
3092	64.9921
3088	64.9118
3084	64.8817
3080	64.9265
3076	65.0258
3072	65.0752
3068	65.0292
3064	65.0195
3060	65.0796
3056	65.0671
3052	64.9504
3048	64.8621
3044	64.8953
3040	64.9826
3036	65.018
3032	64.9619
3028	64.869
3024	64.8526
3020	64.883
3016	64.9086
3012	65.0157
3008	65.1666
3004	65.1905
3000	65.0669
2996	64.9519
2992	64.9571
2988	65.0315
2984	65.0534
2980	64.9889
2976	64.8829
2972	64.7751
2968	64.7563
2964	64.8435
2960	64.9142
2956	64.9403
2952	64.988
2948	64.9973
2944	64.9132
2940	64.8829
2936	64.93
2932	64.9276
2928	64.9101
2924	64.9139
2920	64.9311
2916	64.9426
2912	64.9202
2908	64.909
2904	64.887
2900	64.8494
2896	64.9247
2892	65.012
2888	64.9867
2884	64.9678
2880	64.9712
2876	64.9968
2872	65.0318
2868	65.0187
2864	64.9826
2860	64.8926
2856	64.7996
2852	64.8173
2848	64.8615
2844	64.8627
2840	64.891
2836	64.9427
2832	64.9379
2828	64.9188
2824	64.9453
2820	64.925
2816	64.8713
2812	64.905
2808	64.9917
2804	65.0019
2800	64.9528
2796	64.9344
2792	64.9338
2788	64.9508
2784	64.9414
2780	64.8838
2776	64.885
2772	64.9539
2768	64.975
2764	64.9286
2760	64.8914
2756	64.9016
2752	64.9548
2748	64.9615
2744	64.8926
2740	64.8629
2736	64.8924
2732	64.923
2728	64.9086
2724	64.8642
2720	64.8429
2716	64.8257
2712	64.8047
2708	64.8093
2704	64.8239
2700	64.8399
2696	64.8645
2692	64.8645
2688	64.8232
2684	64.8145
2680	64.8974
2676	64.9674
2672	64.9233
2668	64.8722
2664	64.8869
2660	64.8771
2656	64.8451
2652	64.8781
2648	64.9287
2644	64.8839
2640	64.8096
2636	64.8352
2632	64.906
2628	64.9284
2624	64.8832
2620	64.8321
2616	64.8455
2612	64.8615
2608	64.855
2604	64.857
2600	64.8445
2596	64.8177
2592	64.8048
2588	64.8421
2584	64.8727
2580	64.8379
2576	64.8328
2572	64.8243
2568	64.7347
2564	64.7109
2560	64.7771
2556	64.8011
2552	64.8189
2548	64.8774
2544	64.8978
2540	64.8361
2536	64.8061
2532	64.8587
2528	64.8576
2524	64.7916
2520	64.7742
2516	64.8641
2512	64.9791
2508	64.9497
2504	64.8212
2500	64.793
2496	64.8656
2492	64.9137
2488	64.9341
2484	64.9313
2480	64.8854
2476	64.8381
2472	64.8076
2468	64.7752
2464	64.7384
2460	64.7622
2456	64.8276
2452	64.8389
2448	64.8473
2444	64.8529
2440	64.8325
2436	64.8754
2432	64.9369
2428	64.9028
2424	64.8134
2420	64.7962
2416	64.8305
2412	64.8574
2408	64.8571
2404	64.7717
2400	64.6962
2396	64.7367
2392	64.8031
2388	64.8097
2384	64.7808
2380	64.7381
2376	64.7006
2372	64.674
2368	64.6758
2364	64.7511
2360	64.8119
2356	64.7921
2352	64.7993
2348	64.8363
2344	64.8143
2340	64.7707
2336	64.7898
2332	64.8273
2328	64.8248
2324	64.78
2320	64.6798
2316	64.6497
2312	64.7311
2308	64.7662
2304	64.7574
2300	64.7858
2296	64.8022
2292	64.7738
2288	64.7375
2284	64.6878
2280	64.6169
2276	64.5911
2272	64.6253
2268	64.6655
2264	64.7437
2260	64.8455
2256	64.8775
2252	64.8345
2248	64.7668
2244	64.7264
2240	64.7147
2236	64.7004
2232	64.6904
2228	64.6956
2224	64.7352
2220	64.7779
2216	64.7631
2212	64.7364
2208	64.7445
2204	64.7452
2200	64.7464
2196	64.7689
2192	64.7456
2188	64.6723
2184	64.6235
2180	64.6531
2176	64.7053
2172	64.666
2168	64.5903
2164	64.6086
2160	64.6806
2156	64.6673
2152	64.571
2148	64.5321
2144	64.5987
2140	64.6871
2136	64.6969
2132	64.6669
2128	64.6945
2124	64.726
2120	64.7454
2116	64.7506
2112	64.6693
2108	64.5802
2104	64.5966
2100	64.6747
2096	64.7265
2092	64.7095
2088	64.6514
2084	64.6695
2080	64.7285
2076	64.6564
2072	64.5504
2068	64.5644
2064	64.5943
2060	64.536
2056	64.4775
2052	64.5022
2048	64.5331
2044	64.5545
2040	64.592
2036	64.5797
2032	64.5638
2028	64.5916
2024	64.6118
2020	64.6267
2016	64.6018
2012	64.5662
2008	64.6
2004	64.6251
2000	64.5988
1996	64.5858
1992	64.6263
1988	64.6713
1984	64.6187
1980	64.4911
1976	64.4214
1972	64.466
1968	64.5158
1964	64.4856
1960	64.4253
1956	64.3917
1952	64.4197
1948	64.4929
1944	64.5678
1940	64.608
1936	64.5849
1932	64.514
1928	64.4507
1924	64.4382
1920	64.481
1916	64.5396
1912	64.5313
1908	64.4746
1904	64.4555
1900	64.4297
1896	64.3982
1892	64.3953
1888	64.3778
1884	64.4139
1880	64.5087
1876	64.5468
1872	64.5489
1868	64.5578
1864	64.5468
1860	64.535
1856	64.524
1852	64.4583
1848	64.344
1844	64.3162
1840	64.4159
1836	64.4967
1832	64.4809
1828	64.4315
1824	64.433
1820	64.4601
1816	64.4442
1812	64.4248
1808	64.4523
1804	64.4587
1800	64.4004
1796	64.3937
1792	64.4344
1788	64.4238
1784	64.4013
1780	64.4114
1776	64.4335
1772	64.4212
1768	64.4208
1764	64.4507
1760	64.4081
1756	64.2991
1752	64.2264
1748	64.2232
1744	64.2091
1740	64.1403
1736	64.071
1732	64.0719
1728	64.15
1724	64.2018
1720	64.2173
1716	64.2399
1712	64.2555
1708	64.2521
1704	64.1853
1700	64.126
1696	64.1865
1692	64.262
1688	64.2331
1684	64.1897
1680	64.1721
1676	64.1171
1672	64.0753
1668	64.1069
1664	64.1689
1660	64.219
1656	64.2695
1652	64.284
1648	64.2555
1644	64.2268
1640	64.1973
1636	64.2006
1632	64.2612
1628	64.306
1624	64.2372
1620	64.1374
1616	64.1762
1612	64.2664
1608	64.2667
1604	64.2405
1600	64.225
1596	64.175
1592	64.1181
1588	64.118
1584	64.1309
1580	64.0735
1576	64.0289
1572	64.0771
1568	64.1445
1564	64.1644
1560	64.145
1556	64.1327
1552	64.0999
1548	64.0663
1544	64.1166
1540	64.1688
1536	64.126
1532	64.064
1528	64.064
1524	64.1206
1520	64.2069
1516	64.235
1512	64.1606
1508	64.0856
1504	64.0746
1500	64.036
1496	64.0004
1492	64.0614
1488	64.1328
1484	64.1366
1480	64.0785
1476	64.0705
1472	64.114
1468	64.095
1464	64.0253
1460	63.9871
1456	63.9906
1452	64.0206
1448	64.0775
1444	64.1172
1440	64.1255
1436	64.138
1432	64.1491
1428	64.1508
1424	64.1636
1420	64.1379
1416	64.0527
1412	64.011
1408	64.0405
1404	64.0488
1400	64.0261
1396	64.0215
1392	64.0029
1388	63.9297
1384	63.8656
1380	63.8902
1376	63.9959
1372	64.0948
1368	64.047
1364	63.9106
1360	63.8808
1356	63.8882
1352	63.8029
1348	63.7478
1344	63.8076
1340	63.8825
1336	63.9122
1332	63.9216
1328	63.9264
1324	63.9219
1320	63.932
1316	63.9695
1312	63.9602
1308	63.9083
1304	63.9363
1300	64.01
1296	63.977
1292	63.8518
1288	63.7736
1284	63.7915
1280	63.8262
1276	63.8396
1272	63.8505
1268	63.8319
1264	63.8211
1260	63.8508
1256	63.8679
1252	63.8484
1248	63.8161
1244	63.8584
1240	63.9193
1236	63.8626
1232	63.7783
1228	63.754
1224	63.7827
1220	63.8263
1216	63.8109
1212	63.8097
1208	63.8529
1204	63.8369
1200	63.8125
1196	63.8157
1192	63.7406
1188	63.6432
1184	63.6623
1180	63.7101
1176	63.7014
1172	63.6969
1168	63.6973
1164	63.664
1160	63.6171
1156	63.6469
1152	63.6945
1148	63.6039
1144	63.4981
1140	63.5613
1136	63.7089
1132	63.7739
1128	63.7084
1124	63.6272
1120	63.6366
1116	63.6841
1112	63.6746
1108	63.621
1104	63.6676
1100	63.7675
1096	63.7347
1092	63.5685
1088	63.447
1084	63.4929
1080	63.5504
1076	63.5128
1072	63.5359
1068	63.6039
1064	63.5992
1060	63.6436
1056	63.7555
1052	63.7902
1048	63.7597
1044	63.746
1040	63.7569
1036	63.6711
1032	63.4855
1028	63.4671
1024	63.5941
1020	63.5999
1016	63.5048
1012	63.5332
1008	63.7091
1004	63.781
1000	63.7212
996	 63.6796
992	 63.671
988	 63.7186
984	 63.7515
980	 63.7088
976	 63.728
972	 63.7546
968	 63.618
964	 63.4537
960	 63.41
956	 63.462
952	 63.565
948	 63.6257
944	 63.5735
940	 63.4853
936	 63.4516
932	 63.4668
928	 63.5203
924	 63.5523
920	 63.5251
916	 63.4801
912	 63.4639
908	 63.4789
904	 63.4814
900	 63.4856
896	 63.5496
892	 63.6383
888	 63.7015
884	 63.7506
880	 63.6738
876	 63.5089
872	 63.4657
868	 63.5559
864	 63.6852
860	 63.7034
856	 63.5924
852	 63.5193
848	 63.5448
844	 63.6037
840	 63.6127
836	 63.5726
832	 63.6709
828	 63.8652
824	 63.778
820	 63.6022
816	 63.6515
812	 63.6781
808	 63.6491
804	 63.5983
800	 63.4642
796	 63.4361
792	 63.532
788	 63.536
784	 63.507
780	 63.5351
776	 63.496
772	 63.411
768	 63.3575
764	 63.3549
760	 63.4769
756	 63.4954
752	 63.266
748	 63.1355
744	 63.2642
740	 63.4044
736	 63.3811
732	 63.2881
728	 63.2745
724	 63.3102
720	 63.373
716	 63.4188
712	 63.307
708	 63.1617
704	 63.1288
700	 63.2313
696	 63.3305
692	 63.3248
688	 63.3371
684	 63.3067
680	 63.3367
676	 63.4135
672	 63.3432
668	 63.4184
664	 63.4889
660	 63.3515
656	 63.2472
652	 63.2159
648	 63.3025
644	 63.2426
640	 63.1262
636	 63.1395
632	 62.826
628	 62.7411
624	 63.4976
620	 64.1946
616	 63.8449
612	 63.0324
608	 62.7856
604	 63.0385
600	 63.1669
596	 62.996
592	 62.6657
588	 62.361
584	 62.5159
580	 62.9944
576	 63.206
572	 63.0983
568	 63.0712
564	 63.1691
560	 63.2467
556	 63.2573
552	 62.9821
548	 62.9918
544	 63.381
540	 63.0098
536	 62.8038
532	 63.6938
528	 63.8543
524	 62.9556
520	 62.9325
516	 63.9246
512	 63.9736
508	 63.5321
504	 63.9803
500	 63.5979
496	 62.6313
492	 62.7214
488	 63.4349
484	 64.4402
480	 65.0728
476	 64.77
472	 64.1485
468	 63.6713
464	 63.1149
460	 62.7478
456	 63.0436
452	 63.5199
448	 63.2203
444	 62.0588
440	 61.6236
436	 61.7924
432	 62.0719
428	 63.6216
424	 65.0673
420	 64.2591
416	 61.287
412	 58.7141
408	 59.2469
404	 62.87
400	 67.5556
396	 72.151
392	 72.0515
388	 64.057
384	 60.8306
380	 70.5944
376	 80.4846
372	 76.2845
370	 71.2699