File: Bakgrunnsmateriale/MATLAB/FTIR/ftir_data/subAa/Mapping_121/BZ1503107-1_t42.asc
PE IR       SPECTRUM    SPECTRUM    ASCII       PEDS        1.60
  -1
BZ215D~1.ASC
17/04/07
16:38:14.00
17/04/07
16:38:40.00
tln
$BZ1503107-1_t0042$<tbV0>[-7.8,-5.2,8.0,0.0,27,1,0]
27.028
64

2002,4.07
MIRTGS : RIGHTBACK : INTERNAL 2
MIR : ON : INTERNAL 2
OPTKBR

0.200000
8
8.000000
FILLER
RATIO
SPECTRUM
UNLOCKED 256

DOUBLE
64
COMBINED
1
0
0

0.002000
RATIO

1
0
TRUE
51149
0
LEFT NOT FITTED RIGHT NOT FITTED 0
NONE
NONE
15600
12
4.427000
51148
TRUE
1 0 8 72 0 0 0 0

15798

#HDR
-1
-1
#GR
µM
%T
2.38419e-05
0.0
2.000000
0.002000
12515
8
83.8433
53.6337
#DATA
2.000000	 65.1069
2.018000	 64.5149
2.036000	 64.4527
2.054000	 64.8363
2.072000	 65.0035
2.090000	 65.1943
2.108000	 65.5352
2.126000	 65.5988
2.144000	 65.1697
2.162000	 64.8213
2.180000	 64.5028
2.198000	 64.0113
2.216000	 64.5517
2.234000	 63.1889
2.252000	 64.8044
2.270000	 76.2604
2.288000	 63.896
2.306000	 64.0874
2.324000	 64.2642
2.342000	 64.5454
2.360000	 64.7696
2.378000	 64.8619
2.396000	 64.8679
2.414000	 65.7647
2.432000	 65.4508
2.450000	 65.2443
2.468000	 65.3332
2.486000	 65.2646
2.504000	 65.4431
2.522000	 65.1006
2.540000	 65.0103
2.558000	 65.1845
2.576000	 64.9088
2.594000	 65.0253
2.612000	 65.127
2.630000	 65.3261
2.648000	 65.0809
2.666000	 65.0489
2.684000	 65.2685
2.702000	 65.4256
2.720000	 65.1877
2.738000	 65.3154
2.756000	 65.2844
2.774000	 65.3589
2.792000	 65.2593
2.810000	 65.2524
2.828000	 65.1497
2.846000	 65.0349
2.864000	 65.0646
2.882000	 65.1328
2.900000	 65.0287
2.918000	 65.0904
2.936000	 65.2731
2.954000	 65.3107
2.972000	 65.0915
2.990000	 65.2925
3.008000	 65.1401
3.026000	 65.1058
3.044000	 64.9828
3.062000	 65.1805
3.080000	 65.2502
3.098000	 65.1988
3.116000	 65.1803
3.134000	 65.0581
3.152000	 65.057
3.170000	 65.1634
3.188000	 65.043
3.206000	 65.1395
3.224000	 65.1987
3.242000	 64.9311
3.260000	 65.0514
3.278000	 65.0737
3.296000	 64.9926
3.314000	 65.0011
3.332000	 65.1059
3.350000	 65.0938
3.368000	 64.9036
3.386000	 65.1085
3.404000	 65.0649
3.422000	 65.172
3.440000	 64.9867
3.458000	 65.0186
3.476000	 64.9777
3.494000	 65.1582
3.512000	 65.0784
3.530000	 65.0515
3.548000	 65.0919
3.566000	 65.0742
3.584000	 65.1834
3.602000	 65.0514
3.620000	 65.1445
3.638000	 65.2375
3.656000	 64.9019
3.674000	 65.1697
3.692000	 64.9986
3.710000	 65.1503
3.728000	 65.0122
3.746000	 65.0737
3.764000	 65.0968
3.782000	 65.0364
3.800000	 64.9981
3.818000	 64.8731
3.836000	 64.9824
3.854000	 65.0502
3.872000	 64.9893
3.890000	 64.9657
3.908000	 65.0442
3.926000	 65.0166
3.944000	 65.0514
3.962000	 64.8821
3.980000	 65.085
3.998000	 65.002
4.016000	 64.9151
4.034000	 64.9904
4.052000	 64.9237
4.070000	 64.9354
4.088000	 64.8876
4.106000	 64.9498
4.124000	 64.8664
4.141999	 64.9943
4.160000	 65.0419
4.178000	 65.0935
4.196000	 64.9783
4.214000	 64.9029
4.232000	 64.9053
4.250000	 64.9654
4.268000	 64.9326
4.286000	 64.9506
4.304000	 64.9002
4.322000	 65.0031
4.340000	 64.9308
4.358000	 64.8791
4.375999	 64.9127
4.394000	 64.8794
4.412000	 64.8937
4.430000	 64.8011
4.448000	 64.8779
4.466000	 64.9155
4.484000	 65.0291
4.502000	 64.838
4.520000	 64.8563
4.538000	 64.9619
4.556000	 64.974
4.574000	 64.9319
4.592000	 64.8726
4.609999	 64.8925
4.628000	 64.9291
4.646000	 64.836
4.664000	 64.752
4.682000	 64.8586
4.700000	 64.8225
4.718000	 64.6968
4.736000	 64.804
4.754000	 64.7873
4.772000	 64.7846
4.790000	 64.7509
4.808000	 64.7733
4.826000	 64.8643
4.843999	 64.8615
4.862000	 64.9118
4.880000	 64.8497
4.898000	 64.7951
4.916000	 64.7164
4.934000	 64.7966
4.952000	 64.8134
4.970000	 64.8352
4.988000	 64.8553
5.006000	 64.7577
5.024000	 64.7059
5.042000	 64.7135
5.060000	 64.7452
5.077999	 64.8184
5.096000	 64.757
5.114000	 64.7711
5.132000	 64.7475
5.150000	 64.693
5.168000	 64.7156
5.186000	 64.7678
5.204000	 64.8408
5.222000	 64.6872
5.240000	 64.6696
5.258000	 64.6914
5.276000	 64.6128
5.294000	 64.689
5.312000	 64.7313
5.330000	 64.7509
5.348000	 64.747
5.366000	 64.6629
5.384000	 64.6406
5.402000	 64.7706
5.420000	 64.793
5.438000	 64.7258
5.456000	 64.678
5.474000	 64.6571
5.492000	 64.6557
5.510000	 64.6474
5.528000	 64.5589
5.546000	 64.6222
5.564000	 64.6821
5.582000	 64.6328
5.600000	 64.5293
5.618000	 64.5663
5.636000	 64.6044
5.654000	 64.552
5.672000	 64.5957
5.690000	 64.5541
5.708000	 64.5137
5.726000	 64.3934
5.744000	 64.3291
5.762000	 64.302
5.780000	 64.3184
5.798000	 64.3979
5.816000	 64.5243
5.834000	 64.5294
5.852000	 64.441
5.870000	 64.5541
5.888000	 64.5763
5.906000	 64.5027
5.923999	 64.4994
5.942000	 64.4656
5.960000	 64.5079
5.978000	 64.5675
5.996000	 64.5871
6.014000	 64.5537
6.032000	 64.4808
6.050000	 64.4725
6.068000	 64.4621
6.086000	 64.4196
6.104000	 64.4306
6.122000	 64.4056
6.140000	 64.3767
6.158000	 64.3767
6.176000	 64.3285
6.194000	 64.3287
6.212000	 64.3806
6.230000	 64.3696
6.248000	 64.3192
6.266000	 64.3476
6.284000	 64.3889
6.302000	 64.3177
6.320000	 64.2115
6.338000	 64.181
6.356000	 64.2624
6.374000	 64.37
6.392000	 64.4138
6.410000	 64.3431
6.428000	 64.2253
6.446000	 64.1609
6.464000	 64.1832
6.482000	 64.2096
6.500000	 64.1941
6.518000	 64.237
6.536000	 64.2891
6.554000	 64.263
6.572000	 64.2765
6.590000	 64.3872
6.608000	 64.4099
6.626000	 64.3496
6.644000	 64.3464
6.662000	 64.3683
6.680000	 64.3668
6.698000	 64.2844
6.716000	 64.2304
6.734000	 64.3262
6.752000	 64.4262
6.770000	 64.4211
6.788000	 64.3436
6.806000	 64.2753
6.824000	 64.2785
6.842000	 64.3541
6.860000	 64.4566
6.878000	 64.5031
6.896000	 64.4532
6.914000	 64.3802
6.932000	 64.3835
6.950000	 64.4441
6.968000	 64.4419
6.986000	 64.3599
7.004000	 64.323
7.022000	 64.3518
7.040000	 64.3426
7.058000	 64.2894
7.076000	 64.2539
7.094000	 64.2404
7.112000	 64.2339
7.130000	 64.2458
7.148000	 64.2674
7.166000	 64.2632
7.184000	 64.2573
7.202000	 64.2859
7.220000	 64.2908
7.238000	 64.2476
7.256000	 64.2461
7.274000	 64.3051
7.292000	 64.3271
7.310000	 64.2681
7.328000	 64.178
7.346000	 64.1193
7.364000	 64.1204
7.382000	 64.1511
7.400000	 64.1652
7.418000	 64.176
7.436000	 64.2107
7.454000	 64.2612
7.472000	 64.2996
7.490000	 64.284
7.508000	 64.2121
7.526000	 64.1494
7.544000	 64.1255
7.562000	 64.1067
7.580000	 64.0864
7.598000	 64.0877
7.616000	 64.1134
7.634000	 64.154
7.652000	 64.1967
7.670000	 64.215
7.688000	 64.1986
7.706000	 64.1716
7.724000	 64.1532
7.742000	 64.1412
7.760000	 64.1358
7.778000	 64.1348
7.796000	 64.1314
7.814000	 64.1377
7.832000	 64.1617
7.850000	 64.1759
7.868000	 64.1625
7.886000	 64.1517
7.904000	 64.1671
7.922000	 64.1754
7.940000	 64.1442
7.958000	 64.1105
7.976000	 64.1254
7.994000	 64.1626
8.012000	 64.1517
8.030000	 64.0842
8.048000	 64.0282
8.065999	 64.0451
8.084000	 64.1291
8.102000	 64.2216
8.120000	 64.261
8.138000	 64.2263
8.155999	 64.1527
8.173999	 64.0974
8.192000	 64.0914
8.210000	 64.1292
8.228000	 64.1788
8.246000	 64.1948
8.263999	 64.1534
8.282000	 64.0834
8.300000	 64.0418
8.318000	 64.0494
8.336000	 64.0748
8.353999	 64.0797
8.372000	 64.0579
8.390000	 64.029
8.408000	 64.0107
8.426000	 64.0114
8.443999	 64.0344
8.462000	 64.0707
8.480000	 64.0927
8.498000	 64.0759
8.516000	 64.0315
8.533999	 64.0011
8.552000	 64.0088
8.570000	 64.0337
8.588000	 64.0403
8.606000	 64.0233
8.624000	 64.0075
8.641999	 64.0086
8.660000	 64.0173
8.678000	 64.02
8.696000	 64.0158
8.714000	 64.0081
8.731999	 63.9927
8.750000	 63.9631
8.768000	 63.9253
8.786000	 63.8998
8.804000	 63.9006
8.821999	 63.9212
8.840000	 63.9455
8.858000	 63.9625
8.876000	 63.9685
8.894000	 63.9693
8.911999	 63.9777
8.930000	 63.9933
8.948000	 63.9958
8.966000	 63.9681
8.984000	 63.9197
9.001999	 63.8805
9.020000	 63.8812
9.038000	 63.9328
9.056000	 64.0139
9.074000	 64.0829
9.092000	 64.1094
9.109999	 64.0945
9.128000	 64.0652
9.146000	 64.0488
9.164000	 64.0515
9.182000	 64.058
9.199999	 64.0485
9.218000	 64.0162
9.236000	 63.9711
9.254000	 63.9306
9.272000	 63.9057
9.289999	 63.8956
9.308000	 63.8965
9.326000	 63.909
9.344000	 63.9356
9.362000	 63.9702
9.379999	 63.9957
9.398000	 63.9947
9.416000	 63.9648
9.434000	 63.9255
9.452000	 63.905
9.469999	 63.9186
9.488000	 63.9569
9.506000	 63.9925
9.524000	 64.0026
9.542000	 63.9865
9.560000	 63.9636
9.577999	 63.953
9.596000	 63.9572
9.614000	 63.9664
9.632000	 63.974
9.650000	 63.9825
9.667999	 63.9958
9.686000	 64.0103
9.704000	 64.0181
9.722000	 64.0164
9.740000	 64.0109
9.757999	 64.0094
9.776000	 64.0124
9.794000	 64.0138
9.812000	 64.0086
9.830000	 63.9985
9.847999	 63.9885
9.866000	 63.9788
9.884000	 63.965
9.902000	 63.944
9.920000	 63.9211
9.937999	 63.9124
9.956000	 63.934
9.974000	 63.9882
9.992000	 64.0574
10.01	64.113
10.028	64.1328
10.046	64.1144
10.064	64.0735
10.082	64.0302
10.1	63.9977
10.118	63.9804
10.136	63.9806
10.154	64.0026
10.172	64.0474
10.19	64.1035
10.208	64.1487
10.226	64.163
10.244	64.1431
10.262	64.1067
10.28	64.0782
10.298	64.0729
10.316	64.0877
10.334	64.1053
10.352	64.1085
10.37	64.0892
10.388	64.0519
10.406	64.0085
10.424	63.9753
10.442	63.9682
10.46	63.9969
10.478	64.0598
10.496	64.1393
10.514	64.2086
10.532	64.2411
10.55	64.227
10.568	64.1763
10.586	64.1149
10.604	64.0673
10.622	64.0466
10.64	64.0494
10.658	64.0636
10.676	64.0769
10.694	64.0834
10.712	64.0831
10.73	64.0789
10.748	64.0714
10.766	64.0589
10.784	64.0395
10.802	64.0147
10.82	63.9898
10.838	63.9736
10.856	63.9736
10.874	63.9932
10.892	64.029
10.91	64.0721
10.928	64.1122
10.946	64.1401
10.964	64.1525
10.982	64.1509
11	64.1387
11.018	64.119
11.036	64.0934
11.054	64.064
11.072	64.0349
11.09	64.0155
11.108	64.0165
11.126	64.0452
11.144	64.0988
11.162	64.1629
11.18	64.2168
11.198	64.2412
11.216	64.2271
11.234	64.1796
11.252	64.1156
11.27	64.0547
11.288	64.0135
11.306	63.9981
11.324	64.0056
11.342	64.0267
11.36	64.0515
11.378	64.0727
11.396	64.0876
11.414	64.0966
11.432	64.1025
11.45	64.1088
11.468	64.1177
11.486	64.1296
11.504	64.1423
11.522	64.1508
11.54	64.149
11.558	64.1317
11.576	64.0985
11.594	64.0544
11.612	64.0097
11.63	63.9763
11.648	63.9622
11.666	63.9691
11.684	63.9908
11.702	64.0167
11.72	64.0354
11.738	64.0394
11.756	64.0278
11.774	64.0054
11.792	63.9806
11.81	63.9614
11.828	63.9526
11.846	63.9559
11.864	63.9703
11.882	63.9928
11.9	64.0194
11.918	64.0463
11.936	64.0696
11.954	64.0864
11.972	64.0945
11.99	64.093
12.008	64.0822
12.026	64.0633
12.044	64.0383
12.062	64.0093
12.08	63.9779
12.098	63.9461
12.116	63.9157
12.134	63.8878
12.152	63.8635
12.17	63.8428
12.188	63.8252
12.206	63.8091
12.224	63.7935
12.242	63.7788
12.26	63.7672
12.278	63.7625
12.296	63.7692
12.314	63.7902
12.332	63.8253
12.35	63.8712
12.368	63.9218
12.386	63.9695
12.404	64.0073
12.422	64.032
12.44	64.0445
12.458	64.0505
12.476	64.0586
12.494	64.0774
12.512	64.1127
12.53	64.1639
12.548	64.2246
12.566	64.2838
12.584	64.3294
12.602	64.3517
12.62	64.347
12.638	64.318
12.656	64.272
12.674	64.2186
12.692	64.1655
12.71	64.1163
12.728	64.0697
12.746	64.021
12.764	63.9656
12.782	63.9018
12.8	63.833
12.818	63.7676
12.836	63.7167
12.854	63.6911
12.872	63.6966
12.89	63.7329
12.908	63.7924
12.926	63.8623
12.944	63.927
12.962	63.972
12.98	63.9876
12.998	63.9703
13.016	63.9231
13.034	63.8549
13.052	63.7776
13.07	63.7038
13.088	63.6444
13.106	63.6069
13.124	63.5944
13.142	63.6055
13.16	63.6354
13.178	63.677
13.196	63.7218
13.214	63.7626
13.232	63.7936
13.25	63.8124
13.268	63.8187
13.286	63.815
13.304	63.8055
13.322	63.7946
13.34	63.7862
13.358	63.7826
13.376	63.7843
13.394	63.7901
13.412	63.7981
13.43	63.8059
13.448	63.812
13.466	63.8159
13.484	63.8183
13.502	63.8208
13.52	63.8249
13.538	63.8318
13.556	63.8414
13.574	63.8513
13.592	63.8576
13.61	63.8559
13.628	63.8412
13.646	63.8088
13.664	63.7554
13.682	63.6799
13.7	63.5847
13.718	63.4748
13.736	63.3577
13.754	63.2421
13.772	63.1369
13.79	63.0506
13.808	62.9893
13.826	62.9556
13.844	62.9489
13.862	62.9657
13.88	63.0003
13.898	63.0456
13.916	63.0946
13.934	63.1424
13.952	63.1865
13.97	63.2273
13.988	63.2677
14.006	63.3122
14.024	63.3663
14.042	63.4349
14.06	63.5218
14.078	63.6285
14.096	63.7536
14.114	63.8941
14.132	64.0444
14.15	64.1967
14.168	64.342
14.186	64.4697
14.204	64.5702
14.222	64.6342
14.24	64.6557
14.258	64.6316
14.276	64.5634
14.294	64.4567
14.312	64.3201
14.33	64.1649
14.348	64.0027
14.366	63.8462
14.384	63.7049
14.402	63.5843
14.42	63.4861
14.438	63.4086
14.456	63.3481
14.474	63.3006
14.492	63.2631
14.51	63.2344
14.528	63.2164
14.546	63.2128
14.564	63.2288
14.582	63.2689
14.6	63.336
14.618	63.4303
14.636	63.5486
14.654	63.6845
14.672	63.8298
14.69	63.9749
14.708	64.1098
14.726	64.2254
14.744	64.3145
14.762	64.373
14.78	64.4003
14.798	64.399
14.816	64.3744
14.834	64.3343
14.852	64.2892
14.87	64.2477
14.888	64.217
14.906	64.2019
14.924	64.2038
14.942	64.2214
14.96	64.2485
14.978	64.2773
14.996	64.2995
15.014	64.3062
15.032	64.2899
15.05	64.2468
15.068	64.1767
15.086	64.0821
15.104	63.9686
15.122	63.846
15.14	63.7242
15.158	63.6122
15.176	63.5177
15.194	63.4466
15.212	63.4013
15.23	63.3803
15.248	63.3799
15.266	63.395
15.284	63.4177
15.302	63.4411
15.32	63.4601
15.338	63.4706
15.356	63.4714
15.374	63.4627
15.392	63.4476
15.41	63.43
15.428	63.4151
15.446	63.4096
15.464	63.4176
15.482	63.4419
15.5	63.4845
15.518	63.5444
15.536	63.6189
15.554	63.7041
15.572	63.795
15.59	63.8849
15.608	63.9682
15.626	64.0405
15.644	64.0973
15.662	64.1363
15.68	64.1572
15.698	64.1605
15.716	64.1481
15.734	64.1237
15.752	64.0905
15.77	64.0522
15.788	64.0137
15.806	63.978
15.824	63.9478
15.842	63.9262
15.86	63.9151
15.878	63.9148
15.896	63.9257
15.914	63.9463
15.932	63.9747
15.95	64.0087
15.968	64.0452
15.986	64.0799
16.004	64.1094
16.022	64.1303
16.04	64.1379
16.058	64.1303
16.076	64.1056
16.094	64.063
16.112	64.0042
16.13	63.9313
16.148	63.8472
16.166	63.7577
16.184	63.667
16.202	63.58
16.22	63.5029
16.238	63.439
16.256	63.3913
16.274	63.3623
16.292	63.3521
16.31	63.3607
16.328	63.3858
16.346	63.4247
16.364	63.4747
16.382	63.5316
16.4	63.5924
16.418	63.6546
16.436	63.7152
16.454	63.773
16.472	63.8272
16.49	63.8777
16.508	63.9254
16.526	63.9709
16.544	64.0162
16.562	64.0621
16.58	64.1094
16.598	64.1588
16.616	64.2093
16.634	64.2602
16.652	64.3089
16.67	64.3529
16.688	64.3897
16.706	64.415
16.724	64.427
16.742	64.4225
16.76	64.4001
16.778	64.3595
16.796	64.3007
16.814	64.2263
16.832	64.1382
16.85	64.0409
16.868	63.9386
16.886	63.8348
16.904	63.7358
16.922	63.6437
16.94	63.5621
16.958	63.493
16.976	63.4367
16.994	63.3935
17.012	63.3616
17.03	63.3402
17.048	63.3257
17.066	63.3168
17.084	63.3112
17.102	63.3074
17.12	63.3048
17.138	63.3035
17.156	63.3045
17.174	63.3086
17.192	63.3182
17.21	63.3343
17.228	63.3587
17.246	63.3919
17.264	63.4344
17.282	63.4849
17.3	63.5423
17.318	63.6036
17.336	63.6645
17.354	63.7226
17.372	63.7718
17.39	63.8104
17.408	63.8334
17.426	63.8395
17.444	63.8267
17.462	63.7951
17.48	63.7455
17.498	63.6804
17.516	63.6034
17.534	63.5173
17.552	63.4288
17.57	63.3396
17.588	63.257
17.606	63.1827
17.624	63.1213
17.642	63.0749
17.66	63.0449
17.678	63.0322
17.696	63.0364
17.714	63.0565
17.732	63.0904
17.75	63.1363
17.768	63.1909
17.786	63.2528
17.804	63.3182
17.822	63.3863
17.84	63.4544
17.858	63.5216
17.876	63.5865
17.894	63.6487
17.912	63.7078
17.93	63.7637
17.948	63.8165
17.966	63.8659
17.984	63.9116
18.002	63.953
18.02	63.9892
18.038	64.0194
18.056	64.0417
18.074	64.0555
18.092	64.0586
18.11	64.0507
18.128	64.0297
18.146	63.9957
18.164	63.9481
18.182	63.8877
18.2	63.8148
18.218	63.7313
18.236	63.638
18.254	63.538
18.272	63.432
18.29	63.3239
18.308	63.2142
18.326	63.1066
18.344	63.0014
18.362	62.9015
18.38	62.8071
18.398	62.7199
18.416	62.6401
18.434	62.5681
18.452	62.504
18.47	62.4479
18.488	62.3996
18.506	62.3588
18.524	62.3255
18.542	62.2998
18.56	62.2816
18.578	62.2706
18.596	62.2675
18.614	62.2723
18.632	62.2849
18.65	62.3054
18.668	62.3338
18.686	62.3699
18.704	62.413
18.722	62.4627
18.74	62.5178
18.758	62.5776
18.776	62.6404
18.794	62.7053
18.812	62.7702
18.83	62.8342
18.848	62.8949
18.866	62.9518
18.884	63.0029
18.902	63.0479
18.92	63.0855
18.938	63.1159
18.956	63.1386
18.974	63.1541
18.992	63.1626
19.01	63.1651
19.028	63.1626
19.046	63.156
19.064	63.1468
19.082	63.1361
19.1	63.1256
19.118	63.1157
19.136	63.1084
19.154	63.1036
19.172	63.1028
19.19	63.1056
19.208	63.1127
19.226	63.1237
19.244	63.1385
19.262	63.1568
19.28	63.1777
19.298	63.2012
19.316	63.2255
19.334	63.2509
19.352	63.2756
19.37	63.2999
19.388	63.3227
19.406	63.344
19.424	63.3636
19.442	63.3815
19.46	63.3977
19.478	63.412
19.496	63.4251
19.514	63.4369
19.532	63.4481
19.55	63.459
19.568	63.4701
19.586	63.4816
19.604	63.4936
19.622	63.5063
19.64	63.5195
19.658	63.5328
19.676	63.5462
19.694	63.5586
19.712	63.5703
19.73	63.5798
19.748	63.587
19.766	63.5909
19.784	63.5911
19.802	63.5869
19.82	63.5777
19.838	63.5634
19.856	63.5436
19.874	63.5185
19.892	63.4882
19.91	63.4527
19.928	63.4133
19.946	63.3697
19.964	63.3237
19.982	63.2752
20	63.2256
20.018	63.1757
20.036	63.126
20.054	63.0781
20.072	63.0318
20.09	62.9889
20.108	62.949
20.126	62.9131
20.144	62.8811
20.162	62.8534
20.18	62.8299
20.198	62.8107
20.216	62.7955
20.234	62.7844
20.252	62.7771
20.27	62.7737
20.288	62.7738
20.306	62.7774
20.324	62.7845
20.342	62.7952
20.36	62.8094
20.378	62.8271
20.396	62.8483
20.414	62.8735
20.432	62.9026
20.45	62.9356
20.468	62.9725
20.486	63.0134
20.504	63.0582
20.522	63.1068
20.54	63.159
20.558	63.2148
20.576	63.2734
20.594	63.3349
20.612	63.3986
20.63	63.4636
20.648	63.5301
20.666	63.5961
20.684	63.6619
20.702	63.7261
20.72	63.7877
20.738	63.8467
20.756	63.901
20.774	63.951
20.792	63.9952
20.81	64.0331
20.828	64.0646
20.846	64.0885
20.864	64.1053
20.882	64.1148
20.9	64.1167
20.918	64.1119
20.936	64.1005
20.954	64.0828
20.972	64.0603
20.99	64.0325
21.008	64.0013
21.026	63.9672
21.044	63.9306
21.062	63.8935
21.08	63.8554
21.098	63.8178
21.116	63.7812
21.134	63.7455
21.152	63.7118
21.17	63.6797
21.188	63.6493
21.206	63.6209
21.224	63.5941
21.242	63.5687
21.26	63.5447
21.278	63.5215
21.296	63.4991
21.314	63.4773
21.332	63.4559
21.35	63.4348
21.368	63.4142
21.386	63.394
21.404	63.3743
21.422	63.3558
21.44	63.3382
21.458	63.3225
21.476	63.309
21.494	63.2978
21.512	63.2901
21.53	63.2856
21.548	63.2847
21.566	63.2877
21.584	63.2946
21.602	63.3047
21.62	63.3186
21.638	63.3352
21.656	63.3537
21.674	63.3744
21.692	63.3953
21.71	63.4162
21.728	63.4366
21.746	63.4542
21.764	63.4697
21.782	63.4817
21.8	63.4887
21.818	63.4915
21.836	63.4888
21.854	63.4806
21.872	63.467
21.89	63.4481
21.908	63.4235
21.926	63.3944
21.944	63.3612
21.962	63.3238
21.98	63.284
21.998	63.2416
22.016	63.1972
22.034	63.1527
22.052	63.1074
22.07	63.0622
22.088	63.0179
22.106	62.9742
22.124	62.9315
22.142	62.8901
22.16	62.8496
22.178	62.8094
22.196	62.7699
22.214	62.7301
22.232	62.689
22.25	62.6472
22.268	62.6034
22.286	62.5566
22.304	62.5073
22.322	62.4546
22.34	62.398
22.358	62.3379
22.376	62.2742
22.394	62.2064
22.412	62.1354
22.43	62.0622
22.448	61.9859
22.466	61.9085
22.484	61.8313
22.502	61.7534
22.52	61.6778
22.538	61.6055
22.556	61.536
22.574	61.4724
22.592	61.4149
22.61	61.3635
22.628	61.3208
22.646	61.2864
22.664	61.2609
22.682	61.2458
22.7	61.2407
22.718	61.2459
22.736	61.262
22.754	61.2889
22.772	61.326
22.79	61.3729
22.808	61.4299
22.826	61.4955
22.844	61.5688
22.862	61.6504
22.88	61.7379
22.898	61.8302
22.916	61.9281
22.934	62.0287
22.952	62.1313
22.97	62.2364
22.988	62.3406
23.006	62.4435
23.024	62.5454
23.042	62.6435
23.06	62.7376
23.078	62.828
23.096	62.9131
23.114	62.9928
23.132	63.0674
23.15	63.1364
23.168	63.1997
23.186	63.2575
23.204	63.3099
23.222	63.3567
23.24	63.3981
23.258	63.4347
23.276	63.4663
23.294	63.4932
23.312	63.5164
23.33	63.5358
23.348	63.5516
23.366	63.5644
23.384	63.5742
23.402	63.5812
23.42	63.5859
23.438	63.5886
23.456	63.5891
23.474	63.5875
23.492	63.5841
23.51	63.5787
23.528	63.571
23.546	63.5606
23.564	63.5479
23.582	63.5328
23.6	63.5149
23.618	63.4944
23.636	63.4724
23.654	63.4496
23.672	63.4254
23.69	63.4007
23.708	63.376
23.726	63.351
23.744	63.3258
23.762	63.3007
23.78	63.2754
23.798	63.2502
23.816	63.2256
23.834	63.2012
23.852	63.1774
23.87	63.1549
23.888	63.1342
23.906	63.1144
23.924	63.0945
23.942	63.0752
23.96	63.056
23.978	63.0347
23.996	63.0106
24.014	62.9847
24.032	62.9543
24.05	62.9179
24.068	62.8768
24.086	62.8292
24.104	62.7731
24.122	62.7092
24.14	62.6377
24.158	62.5582
24.176	62.4702
24.194	62.3747
24.212	62.2731
24.23	62.1651
24.248	62.0507
24.266	61.9329
24.284	61.8133
24.302	61.6902
24.32	61.5662
24.338	61.4441
24.356	61.3217
24.374	61.2011
24.392	61.0852
24.41	60.9742
24.428	60.8674
24.446	60.7655
24.464	60.6697
24.482	60.5795
24.5	60.4929
24.518	60.4088
24.536	60.3293
24.554	60.2509
24.572	60.1693
24.59	60.0865
24.608	60.0014
24.626	59.9079
24.644	59.8034
24.662	59.6913
24.68	59.5668
24.698	59.4254
24.716	59.2699
24.734	59.0987
24.752	58.9084
24.77	58.6973
24.788	58.4674
24.806	58.2204
24.824	57.9566
24.842	57.6739
24.86	57.3772
24.878	57.0722
24.896	56.754
24.914	56.426
24.932	56.0998
24.95	55.7803
24.968	55.4596
24.986	55.1496
25.004	54.8625
25.022	54.5901
25.04	54.3372
25.058	54.1189
25.076	53.9409
25.094	53.7945
25.112	53.6907
25.13	53.6406
25.148	53.6383
25.166	53.6857
25.184	53.7918
25.202	53.9612
25.22	54.1891
25.238	54.4769
25.256	54.8269
25.274	55.2393
25.292	55.7123
25.31	56.2443
25.328	56.8351
25.346	57.4866
25.364	58.1935
25.382	58.95
25.4	59.7598
25.418	60.6214
25.436	61.5248
25.454	62.4632
25.472	63.4459
25.49	64.4629
25.508	65.4999
25.526	66.5574
25.544	67.6415
25.562	68.7348
25.58	69.8215
25.598	70.9145
25.616	72.0066
25.634	73.0778
25.652	74.1175
25.67	75.1425
25.688	76.1348
25.706	77.0729
25.724	77.9588
25.742	78.8002
25.76	79.5768
25.778	80.27
25.796	80.8921
25.814	81.4394
25.832	81.8966
25.85	82.2531
25.868	82.52
25.886	82.692
25.904	82.7616
25.922	82.7244
25.94	82.5852
25.958	82.3473
25.976	82.0143
25.994	81.5796
26.012	81.0477
26.03	80.4322
26.048	79.7438
26.066	78.9674
26.084	78.1155
26.102	77.2104
26.12	76.2643
26.138	75.2564
26.156	74.2075
26.174	73.1441
26.192	72.0718
26.21	70.9722
26.228	69.8706
26.246	68.7937
26.264	67.7387
26.282	66.6949
26.3	65.6846
26.318	64.7292
26.336	63.8197
26.354	62.9538
26.372	62.1467
26.39	61.4127
26.408	60.7444
26.426	60.141
26.444	59.6083
26.462	59.152
26.48	58.7708
26.498	58.4613
26.516	58.2203
26.534	58.0467
26.552	57.9461
26.57	57.911
26.588	57.9314
26.606	58.002
26.624	58.1326
26.642	58.314
26.66	58.5343
26.678	58.7885
26.696	59.0877
26.714	59.4205
26.732	59.7735
26.75	60.141
26.768	60.5352
26.786	60.9445
26.804	61.3558
26.822	61.7639
26.84	62.1803
26.858	62.5945
26.876	62.9946
26.894	63.3755
26.912	63.7478
26.93	64.1028
26.948	64.4306
26.966	64.7308
26.984	65.0184
27.002	65.2714
27.02	65.4651
27.028	65.5193