File: Bakgrunnsmateriale/MATLAB/FTIR/ftir_data/subAa/Mapping_121/BZ1503107-1_t80_cm-1.asc
PE IR       SPECTRUM    SPECTRUM    ASCII       PEDS        1.60
  -1
BZ6826~1.ASC
17/04/07
19:48:42.00
17/04/07
19:48:42.00
tln
$BZ1503107-1_t0080$<tbV0>[7.8,5.2,8.0,0.0,27,1,0]
370
64

2002,4.07
MIRTGS : RIGHTBACK : INTERNAL 2
MIR : ON : INTERNAL 2
OPTKBR

0.200000
8
8.000000
FILLER
RATIO
SPECTRUM
UNLOCKED 256

DOUBLE
64
COMBINED
1
0
0

1.000000
RATIO

1
0
TRUE
51149
0
LEFT NOT FITTED RIGHT NOT FITTED 0
NONE
NONE
15600
12
4.427000
51148
TRUE
1 0 8 72 0 0 0 0

15798

#HDR
-1
-1
#GR
CM-1
%T
2.38419e-05
0.0
5000
-1.000000
4631
8
78.3276
48.5216
#DATA
5000	64.6998
4996	64.8176
4992	64.7104
4988	65.0718
4984	65.0223
4980	64.6571
4976	65.4184
4972	66.0628
4968	65.3149
4964	64.7402
4960	65.0243
4956	65.2516
4952	65.4158
4948	65.2803
4944	64.2066
4940	63.8669
4936	64.8948
4932	65.0515
4928	64.4218
4924	64.1849
4920	64.472
4916	65.2701
4912	65.5732
4908	65.0866
4904	64.5522
4900	64.399
4896	64.6773
4892	64.9614
4888	64.9539
4884	64.8702
4880	65.0037
4876	65.3447
4872	65.4148
4868	65.2575
4864	65.1739
4860	65.0566
4856	64.978
4852	64.773
4848	64.5946
4844	64.7924
4840	64.9804
4836	64.9651
4832	64.8546
4828	64.6441
4824	64.6358
4820	64.904
4816	65.0147
4812	64.8391
4808	64.711
4804	64.7496
4800	64.6155
4796	64.3954
4792	64.5106
4788	64.7305
4784	64.7675
4780	64.7444
4776	64.7246
4772	64.7807
4768	64.9737
4764	65.0729
4760	64.8854
4756	64.6584
4752	64.6218
4748	64.6248
4744	64.5819
4740	64.5244
4736	64.5048
4732	64.6909
4728	64.9533
4724	65.0254
4720	65.0003
4716	64.9698
4712	64.7935
4708	64.6312
4704	64.6295
4700	64.5913
4696	64.588
4692	64.6458
4688	64.5642
4684	64.4697
4680	64.4979
4676	64.4955
4672	64.4748
4668	64.565
4664	64.688
4660	64.7638
4656	64.7544
4652	64.7654
4648	64.967
4644	65.1324
4640	65.0297
4636	64.8337
4632	64.7784
4628	64.9987
4624	65.2632
4620	65.193
4616	65.0047
4612	65.0856
4608	65.372
4604	65.5099
4600	65.3975
4596	65.3043
4592	65.2136
4588	64.997
4584	64.9883
4580	65.2212
4576	65.3195
4572	65.3106
4568	65.426
4564	65.5917
4560	65.5828
4556	65.3757
4552	65.1162
4548	64.9359
4544	64.9447
4540	65.1026
4536	65.193
4532	65.0787
4528	65.0185
4524	65.3069
4520	65.7182
4516	65.8813
4512	65.7921
4508	65.7535
4504	65.662
4500	65.4843
4496	65.597
4492	65.8992
4488	66.041
4484	66.0613
4480	66.025
4476	65.9804
4472	65.6809
4468	65.4189
4464	65.0866
4460	64.2924
4456	63.3574
4452	61.1726
4448	55.5166
4444	52.4486
4440	55.5245
4436	58.2833
4432	67.9259
4428	78.3276
4424	71.9345
4420	65.7078
4416	67.577
4412	69.1652
4408	67.5833
4404	65.285
4400	64.4218
4396	64.8899
4392	65.0482
4388	64.9646
4384	64.8789
4380	64.9257
4376	64.9149
4372	64.9416
4368	65.3303
4364	65.6823
4360	65.8776
4356	65.9841
4352	65.9583
4348	65.9306
4344	65.8414
4340	65.658
4336	65.4702
4332	65.2535
4328	65.1231
4324	65.2061
4320	65.4103
4316	65.5146
4312	65.4166
4308	65.3209
4304	65.351
4300	65.3562
4296	65.3022
4292	65.2999
4288	65.2025
4284	64.9857
4280	64.9741
4276	65.1859
4272	65.3704
4268	65.3143
4264	65.0275
4260	64.7895
4256	64.8007
4252	64.9679
4248	65.0057
4244	64.9104
4240	64.8823
4236	64.7925
4232	64.6203
4228	64.6704
4224	64.9723
4220	65.1234
4216	64.975
4212	64.8947
4208	65.0157
4204	65.0448
4200	64.9316
4196	64.895
4192	64.9181
4188	64.8741
4184	64.8501
4180	64.9194
4176	64.9406
4172	64.9107
4168	64.9
4164	64.8053
4160	64.7231
4156	64.7586
4152	64.7885
4148	64.7481
4144	64.5952
4140	64.5164
4136	64.7109
4132	64.8969
4128	64.858
4124	64.7729
4120	64.7506
4116	64.8369
4112	64.9711
4108	64.9776
4104	64.9597
4100	64.9601
4096	64.9767
4092	65.0227
4088	65.0082
4084	64.9139
4080	64.8163
4076	64.8335
4072	64.8799
4068	64.8661
4064	64.9214
4060	65.0508
4056	65.1394
4052	65.1799
4048	65.1225
4044	65.0001
4040	64.8965
4036	64.8196
4032	64.8653
4028	64.9701
4024	64.9783
4020	64.9205
4016	64.9539
4012	65.1013
4008	65.1605
4004	65.0759
4000	64.9766
3996	64.8872
3992	64.8945
3988	65.0586
3984	65.2365
3980	65.2976
3976	65.2153
3972	65.1713
3968	65.2278
3964	65.1745
3960	65.0302
3956	64.8874
3952	64.8072
3948	64.9549
3944	65.1359
3940	65.1622
3936	65.1166
3932	64.9647
3928	64.7906
3924	64.7728
3920	64.876
3916	64.9367
3912	64.9924
3908	65.1403
3904	65.2455
3900	65.1956
3896	65.1104
3892	65.0895
3888	65.0819
3884	65.045
3880	65.037
3876	65.0551
3872	65.0168
3868	64.9966
3864	65.0283
3860	65.0991
3856	65.1603
3852	65.0312
3848	64.886
3844	64.965
3840	65.0777
3836	65.019
3832	64.8755
3828	64.8828
3824	64.882
3820	64.691
3816	64.6868
3812	64.8871
3808	65.0509
3804	65.1844
3800	65.2109
3796	65.1713
3792	65.1014
3788	65.03
3784	65.0702
3780	65.152
3776	65.1376
3772	65.0535
3768	64.9544
3764	64.8673
3760	64.8996
3756	65.0313
3752	65.1285
3748	65.1369
3744	65.1365
3740	65.1728
3736	65.1857
3732	65.1798
3728	65.1299
3724	65.0522
3720	65.0544
3716	65.0735
3712	65.0665
3708	65.0864
3704	65.1205
3700	65.143
3696	65.1142
3692	65.0608
3688	65.0318
3684	65.034
3680	65.0904
3676	65.1554
3672	65.1761
3668	65.1698
3664	65.1572
3660	65.1283
3656	65.0568
3652	64.9671
3648	64.9586
3644	65.0684
3640	65.143
3636	65.1231
3632	65.1111
3628	65.0761
3624	65.007
3620	64.9794
3616	64.9726
3612	64.9625
3608	64.9709
3604	64.9917
3600	65.0125
3596	65.017
3592	64.9728
3588	64.9352
3584	65.002
3580	65.0825
3576	65.0481
3572	64.9978
3568	64.9849
3564	65.0065
3560	65.0603
3556	65.0387
3552	65.0309
3548	65.1074
3544	65.1535
3540	65.2046
3536	65.2118
3532	65.1178
3528	65.0699
3524	65.0617
3520	65.1003
3516	65.1863
3512	65.1674
3508	65.1147
3504	65.1242
3500	65.0846
3496	65.0626
3492	65.0926
3488	65.048
3484	64.9459
3480	64.8974
3476	65.011
3472	65.2168
3468	65.2969
3464	65.2115
3460	65.1299
3456	65.1699
3452	65.2435
3448	65.2661
3444	65.2285
3440	65.0697
3436	64.8936
3432	64.869
3428	64.9206
3424	64.9364
3420	64.9483
3416	64.962
3412	64.975
3408	65.0057
3404	64.9944
3400	64.9852
3396	65.0325
3392	65.0766
3388	65.0956
3384	65.0662
3380	65.056
3376	65.1266
3372	65.1423
3368	65.0717
3364	65.0132
3360	65.0136
3356	65.0567
3352	65.0374
3348	65.0242
3344	65.0715
3340	65.0542
3336	64.9662
3332	64.823
3328	64.7039
3324	64.7139
3320	64.7677
3316	64.821
3312	64.9294
3308	65.0088
3304	65.0031
3300	64.9706
3296	64.916
3292	64.8661
3288	64.8102
3284	64.7525
3280	64.8113
3276	64.9333
3272	64.9496
3268	64.9233
3264	64.8952
3260	64.8284
3256	64.8325
3252	64.8989
3248	64.9321
3244	64.8985
3240	64.8171
3236	64.7966
3232	64.8978
3228	65.0084
3224	65.0206
3220	64.9582
3216	64.8979
3212	64.9015
3208	64.9643
3204	64.9904
3200	64.9095
3196	64.8956
3192	64.9939
3188	65.0008
3184	64.964
3180	64.9778
3176	65.0498
3172	65.1389
3168	65.116
3164	65.0561
3160	65.0046
3156	64.8966
3152	64.8344
3148	64.8695
3144	64.9589
3140	65.0147
3136	64.9834
3132	64.8766
3128	64.7547
3124	64.802
3120	64.9559
3116	65.045
3112	65.0839
3108	65.013
3104	64.8385
3100	64.7325
3096	64.8189
3092	64.9926
3088	65.0215
3084	64.9069
3080	64.8362
3076	64.8321
3072	64.8095
3068	64.8268
3064	64.9406
3060	65.0397
3056	65.0289
3052	65.0088
3048	65.0415
3044	65.0499
3040	65.0379
3036	65.0146
3032	64.9543
3028	64.9092
3024	64.9205
3020	64.9078
3016	64.8348
3012	64.7953
3008	64.8124
3004	64.8254
3000	64.8308
2996	64.8386
2992	64.8519
2988	64.8623
2984	64.8488
2980	64.85
2976	64.8
2972	64.7044
2968	64.7254
2964	64.7762
2960	64.7562
2956	64.7391
2952	64.6537
2948	64.5424
2944	64.5599
2940	64.6343
2936	64.7211
2932	64.7981
2928	64.8003
2924	64.785
2920	64.8208
2916	64.8247
2912	64.7341
2908	64.6896
2904	64.745
2900	64.7453
2896	64.7152
2892	64.7729
2888	64.8696
2884	64.8657
2880	64.7623
2876	64.779
2872	64.8554
2868	64.8032
2864	64.7789
2860	64.799
2856	64.7565
2852	64.713
2848	64.73
2844	64.8169
2840	64.8769
2836	64.8386
2832	64.78
2828	64.7571
2824	64.7655
2820	64.812
2816	64.9157
2812	65.0289
2808	65.0349
2804	64.9326
2800	64.8551
2796	64.8383
2792	64.8058
2788	64.8112
2784	64.8775
2780	64.873
2776	64.8071
2772	64.7912
2768	64.8445
2764	64.9028
2760	64.898
2756	64.8555
2752	64.8079
2748	64.7246
2744	64.6901
2740	64.8028
2736	64.927
2732	64.9325
2728	64.91
2724	64.9423
2720	64.9174
2716	64.7717
2712	64.6831
2708	64.7381
2704	64.7985
2700	64.8101
2696	64.8191
2692	64.821
2688	64.8461
2684	64.8716
2680	64.8166
2676	64.7779
2672	64.8217
2668	64.8268
2664	64.754
2660	64.6986
2656	64.6975
2652	64.7318
2648	64.7962
2644	64.8348
2640	64.8155
2636	64.7834
2632	64.7786
2628	64.805
2624	64.8326
2620	64.8406
2616	64.8144
2612	64.7818
2608	64.7979
2604	64.8461
2600	64.8443
2596	64.8147
2592	64.8288
2588	64.7414
2584	64.6024
2580	64.6358
2576	64.7228
2572	64.7086
2568	64.6608
2564	64.6319
2560	64.5869
2556	64.5642
2552	64.6203
2548	64.6969
2544	64.7274
2540	64.712
2536	64.6801
2532	64.6956
2528	64.7312
2524	64.7133
2520	64.6716
2516	64.6286
2512	64.6231
2508	64.662
2504	64.6694
2500	64.6369
2496	64.6255
2492	64.6421
2488	64.6873
2484	64.7454
2480	64.7233
2476	64.6358
2472	64.5868
2468	64.6208
2464	64.6605
2460	64.6426
2456	64.6194
2452	64.59
2448	64.5735
2444	64.5683
2440	64.5461
2436	64.5522
2432	64.6085
2428	64.6849
2424	64.6916
2420	64.671
2416	64.7091
2412	64.6814
2408	64.5863
2404	64.5782
2400	64.6228
2396	64.6094
2392	64.5631
2388	64.5451
2384	64.5576
2380	64.5819
2376	64.5811
2372	64.5585
2368	64.5448
2364	64.5447
2360	64.5678
2356	64.5843
2352	64.5599
2348	64.5165
2344	64.5077
2340	64.5919
2336	64.7114
2332	64.7269
2328	64.6471
2324	64.5857
2320	64.537
2316	64.4964
2312	64.5382
2308	64.6201
2304	64.6243
2300	64.5333
2296	64.4769
2292	64.502
2288	64.5022
2284	64.4932
2280	64.5416
2276	64.5865
2272	64.5837
2268	64.5942
2264	64.5979
2260	64.5381
2256	64.4839
2252	64.5013
2248	64.5626
2244	64.5678
2240	64.5084
2236	64.5023
2232	64.5679
2228	64.6211
2224	64.5948
2220	64.5271
2216	64.5079
2212	64.5192
2208	64.5579
2204	64.6097
2200	64.5899
2196	64.524
2192	64.5185
2188	64.5606
2184	64.5645
2180	64.5354
2176	64.4987
2172	64.4531
2168	64.4593
2164	64.5449
2160	64.5915
2156	64.5756
2152	64.5675
2148	64.5445
2144	64.5236
2140	64.5048
2136	64.4639
2132	64.4657
2128	64.4989
2124	64.4791
2120	64.4214
2116	64.4109
2112	64.4624
2108	64.4714
2104	64.3897
2100	64.3242
2096	64.3538
2092	64.3996
2088	64.3526
2084	64.3037
2080	64.3499
2076	64.3961
2072	64.4025
2068	64.4021
2064	64.3708
2060	64.3447
2056	64.377
2052	64.3988
2048	64.3597
2044	64.3231
2040	64.3309
2036	64.373
2032	64.4103
2028	64.4004
2024	64.3876
2020	64.4037
2016	64.3801
2012	64.3373
2008	64.3249
2004	64.2707
2000	64.2115
1996	64.2406
1992	64.285
1988	64.2965
1984	64.3201
1980	64.3368
1976	64.319
1972	64.3122
1968	64.3591
1964	64.4111
1960	64.4019
1956	64.3594
1952	64.3072
1948	64.249
1944	64.2188
1940	64.2353
1936	64.2776
1932	64.3132
1928	64.327
1924	64.2971
1920	64.2066
1916	64.1426
1912	64.183
1908	64.2691
1904	64.3187
1900	64.2516
1896	64.1554
1892	64.1814
1888	64.2307
1884	64.2301
1880	64.2389
1876	64.2328
1872	64.2227
1868	64.2198
1864	64.2019
1860	64.2061
1856	64.2361
1852	64.2554
1848	64.2482
1844	64.2704
1840	64.3401
1836	64.3681
1832	64.3285
1828	64.2548
1824	64.17
1820	64.1491
1816	64.1855
1812	64.2013
1808	64.2279
1804	64.2647
1800	64.2369
1796	64.1876
1792	64.1788
1788	64.1587
1784	64.1283
1780	64.1345
1776	64.1706
1772	64.2018
1768	64.2006
1764	64.1953
1760	64.1963
1756	64.115
1752	63.9683
1748	63.9261
1744	63.9565
1740	63.9389
1736	63.8985
1732	63.8774
1728	63.8895
1724	63.898
1720	63.9535
1716	64.0362
1712	63.9896
1708	63.9334
1704	63.9616
1700	63.9622
1696	63.9477
1692	63.9621
1688	63.9463
1684	63.9268
1680	63.9791
1676	64.0031
1672	63.9575
1668	63.9258
1664	63.9027
1660	63.9363
1656	64.0138
1652	64.0091
1648	63.9975
1644	64.0234
1640	63.993
1636	63.9405
1632	63.9915
1628	64.1374
1624	64.2232
1620	64.21
1616	64.1444
1612	64.0368
1608	63.9361
1604	63.8978
1600	63.9301
1596	63.9429
1592	63.9239
1588	63.985
1584	64.0081
1580	63.8831
1576	63.8486
1572	63.9362
1568	63.9009
1564	63.8007
1560	63.8052
1556	63.8448
1552	63.8385
1548	63.8494
1544	63.9322
1540	63.9968
1536	63.9276
1532	63.8309
1528	63.8283
1524	63.877
1520	63.915
1516	63.9458
1512	63.9471
1508	63.9154
1504	63.8857
1500	63.837
1496	63.8354
1492	63.8721
1488	63.8319
1484	63.7991
1480	63.7764
1476	63.7031
1472	63.6638
1468	63.6861
1464	63.7071
1460	63.7614
1456	63.7845
1452	63.7552
1448	63.7561
1444	63.74
1440	63.7551
1436	63.8328
1432	63.8954
1428	63.9105
1424	63.8705
1420	63.802
1416	63.6986
1412	63.5827
1408	63.5758
1404	63.6562
1400	63.7149
1396	63.7761
1392	63.81
1388	63.7451
1384	63.6642
1380	63.6431
1376	63.6634
1372	63.7037
1368	63.6851
1364	63.6301
1360	63.6207
1356	63.5961
1352	63.5508
1348	63.5808
1344	63.6499
1340	63.7054
1336	63.7576
1332	63.7197
1328	63.6539
1324	63.6832
1320	63.6686
1316	63.5719
1312	63.5695
1308	63.6443
1304	63.6879
1300	63.6975
1296	63.6525
1292	63.5866
1288	63.5188
1284	63.4347
1280	63.3661
1276	63.2797
1272	63.2501
1268	63.3222
1264	63.3617
1260	63.3963
1256	63.4948
1252	63.6068
1248	63.6368
1244	63.5588
1240	63.4965
1236	63.4756
1232	63.4614
1228	63.4876
1224	63.4918
1220	63.4369
1216	63.4202
1212	63.4531
1208	63.4801
1204	63.4764
1200	63.4687
1196	63.435
1192	63.3195
1188	63.2853
1184	63.4018
1180	63.4637
1176	63.4275
1172	63.439
1168	63.4707
1164	63.4096
1160	63.3323
1156	63.3374
1152	63.3941
1148	63.4383
1144	63.4478
1140	63.4421
1136	63.3817
1132	63.2908
1128	63.289
1124	63.3936
1120	63.5011
1116	63.5197
1112	63.4404
1108	63.3452
1104	63.3052
1100	63.2726
1096	63.2212
1092	63.2016
1088	63.2226
1084	63.246
1080	63.226
1076	63.156
1072	63.18
1068	63.3472
1064	63.4298
1060	63.403
1056	63.4307
1052	63.4325
1048	63.3556
1044	63.295
1040	63.2094
1036	63.0983
1032	63.0407
1028	63.0264
1024	63.0736
1020	63.2025
1016	63.3201
1012	63.3765
1008	63.4094
1004	63.4163
1000	63.3603
996	 63.2903
992	 63.261
988	 63.2416
984	 63.2417
980	 63.2825
976	 63.2775
972	 63.227
968	 63.2624
964	 63.3488
960	 63.3813
956	 63.3344
952	 63.195
948	 63.125
944	 63.2288
940	 63.2822
936	 63.1862
932	 63.1307
928	 63.2513
924	 63.3786
920	 63.2874
916	 63.1747
912	 63.1984
908	 63.2578
904	 63.3253
900	 63.2827
896	 63.206
892	 63.3257
888	 63.4922
884	 63.4676
880	 63.3369
876	 63.3391
872	 63.3821
868	 63.302
864	 63.2165
860	 63.178
856	 63.1304
852	 63.0851
848	 63.1316
844	 63.2287
840	 63.2761
836	 63.2611
832	 63.2168
828	 63.2309
824	 63.2888
820	 63.2564
816	 63.1639
812	 63.0811
808	 63.0167
804	 63.0427
800	 63.0736
796	 63.0216
792	 62.9869
788	 63.021
784	 63.1331
780	 63.2629
776	 63.2369
772	 63.0967
768	 63.0303
764	 62.9916
760	 62.9213
756	 62.9105
752	 62.9751
748	 62.9987
744	 62.9561
740	 62.8829
736	 62.7756
732	 62.7002
728	 62.677
724	 62.6968
720	 62.7374
716	 62.7676
712	 62.7573
708	 62.5868
704	 62.3953
700	 62.382
696	 62.4857
692	 62.7856
688	 63.0912
684	 63.062
680	 63.0317
676	 63.0514
672	 62.8825
668	 62.6688
664	 62.6848
660	 62.8556
656	 62.7232
652	 62.4514
648	 62.3957
644	 62.2577
640	 62.0039
636	 62.1447
632	 62.5247
628	 62.4705
624	 62.0414
620	 62.1108
616	 62.9802
612	 63.6271
608	 63.4375
604	 63.0479
600	 62.5625
596	 61.9359
592	 61.8552
588	 62.0625
584	 62.1855
580	 62.4033
576	 62.5273
572	 62.7187
568	 63.119
564	 63.3628
560	 63.4872
556	 63.5171
552	 63.204
548	 62.9148
544	 62.8033
540	 62.2145
536	 61.5964
532	 61.861
528	 62.371
524	 62.5043
520	 62.6486
516	 62.9484
512	 62.7718
508	 61.8536
504	 61.2421
500	 61.7406
496	 63.0269
492	 63.9038
488	 63.7683
484	 63.0742
480	 62.5564
476	 62.632
472	 62.5696
468	 62.3519
464	 62.6299
460	 62.7108
456	 62.5431
452	 62.7383
448	 62.5143
444	 61.4847
440	 61.0845
436	 61.4233
432	 61.3984
428	 61.7696
424	 62.8402
420	 62.9244
416	 62.0739
412	 61.3929
408	 60.3312
404	 59.377
400	 59.4937
396	 59.1936
392	 56.6199
388	 55.0189
384	 55.4255
380	 51.1968
376	 48.9263
372	 59.4406
370	 68.7618