File: Bakgrunnsmateriale/MATLAB/FTIR/ftir_data/subAa/Mapping_121/BZ1503107-1_t102_cm-1.asc
PE IR       SPECTRUM    SPECTRUM    ASCII       PEDS        1.60
  -1
BZCB7B~1.ASC
17/04/07
21:37:27.00
17/04/07
21:37:27.00
tln
$BZ1503107-1_t0102$<tbV0>[7.8,10.4,8.0,0.0,27,1,0]
370
64

2002,4.07
MIRTGS : RIGHTBACK : INTERNAL 2
MIR : ON : INTERNAL 2
OPTKBR

0.200000
8
8.000000
FILLER
RATIO
SPECTRUM
UNLOCKED 256

DOUBLE
64
COMBINED
1
0
0

1.000000
RATIO

1
0
TRUE
51149
0
LEFT NOT FITTED RIGHT NOT FITTED 0
NONE
NONE
15600
12
4.427000
51148
TRUE
1 0 8 72 0 0 0 0

15798

#HDR
-1
-1
#GR
CM-1
%T
2.38419e-05
0.0
5000
-1.000000
4631
8
79.772
57.9841
#DATA
5000	62.1838
4996	63.1944
4992	64.4265
4988	64.2219
4984	62.6161
4980	61.7309
4976	63.055
4972	63.2138
4968	61.9486
4964	62.3852
4960	63.5255
4956	64.0108
4952	64.4736
4948	64.7395
4944	63.7627
4940	62.8265
4936	63.0144
4932	62.9789
4928	62.8645
4924	63.0311
4920	63.1272
4916	63.2798
4912	63.6225
4908	64.1524
4904	64.0375
4900	63.4528
4896	63.2969
4892	63.4203
4888	63.5027
4884	63.7044
4880	63.8226
4876	63.5597
4872	63.4367
4868	63.4634
4864	63.4564
4860	63.7816
4856	64.0547
4852	63.7951
4848	63.5143
4844	63.5754
4840	63.6485
4836	63.5972
4832	63.6696
4828	63.9016
4824	64.0111
4820	63.9518
4816	63.9183
4812	63.9313
4808	64.1104
4804	64.4169
4800	64.4982
4796	64.3899
4792	64.1732
4788	63.8115
4784	63.6894
4780	63.8811
4776	63.9844
4772	63.9102
4768	63.7875
4764	63.7768
4760	63.8772
4756	63.8629
4752	63.9626
4748	64.345
4744	64.4368
4740	64.2168
4736	64.178
4732	64.1341
4728	63.9715
4724	63.8777
4720	63.7037
4716	63.5625
4712	63.6718
4708	63.7864
4704	63.8124
4700	63.9449
4696	64.0521
4692	64.022
4688	63.9936
4684	64.0241
4680	64.0528
4676	63.9902
4672	64.08
4668	64.281
4664	64.3961
4660	64.4973
4656	64.4819
4652	64.4437
4648	64.4083
4644	64.1996
4640	64.0542
4636	64.1303
4632	64.2097
4628	64.1574
4624	64.0457
4620	64.0785
4616	64.249
4612	64.2758
4608	64.0939
4604	63.8954
4600	63.7933
4596	63.7545
4592	63.6939
4588	63.6534
4584	63.7001
4580	63.7523
4576	63.6989
4572	63.6224
4568	63.5901
4564	63.5193
4560	63.4125
4556	63.2874
4552	63.2492
4548	63.2971
4544	63.35
4540	63.4157
4536	63.4119
4532	63.3201
4528	63.2
4524	63.1416
4520	63.2163
4516	63.2509
4512	63.0816
4508	63.1288
4504	63.353
4500	63.2035
4496	62.9445
4492	62.7887
4488	62.7077
4484	62.6342
4480	62.5314
4476	62.7192
4472	63.0691
4468	63.1507
4464	63.1498
4460	63.7394
4456	64.8098
4452	66.7056
4448	71.7334
4444	79.3494
4440	75.0459
4436	63.9547
4432	60.0778
4428	61.054
4424	61.4545
4420	62.6861
4416	64.6265
4412	65.081
4408	64.9391
4404	64.8545
4400	64.3058
4396	63.683
4392	63.4145
4388	63.2883
4384	63.1522
4380	63.0739
4376	63.3653
4372	63.6295
4368	63.6854
4364	63.7696
4360	63.6966
4356	63.5506
4352	63.6429
4348	63.8379
4344	63.8159
4340	63.6901
4336	63.6131
4332	63.5149
4328	63.4946
4324	63.59
4320	63.6322
4316	63.4699
4312	63.307
4308	63.3548
4304	63.4367
4300	63.5217
4296	63.6898
4292	63.9011
4288	63.9941
4284	63.8379
4280	63.6666
4276	63.6638
4272	63.6977
4268	63.7464
4264	63.8608
4260	63.953
4256	63.9947
4252	63.9289
4248	63.8407
4244	63.889
4240	63.9293
4236	63.9194
4232	63.9362
4228	63.9185
4224	63.7489
4220	63.5569
4216	63.6183
4212	63.8227
4208	64.0406
4204	64.2258
4200	64.2662
4196	64.2292
4192	64.1464
4188	64.0948
4184	64.1756
4180	64.2351
4176	64.2735
4172	64.438
4168	64.524
4164	64.418
4160	64.2467
4156	64.1259
4152	64.0956
4148	63.9868
4144	63.7675
4140	63.712
4136	63.9684
4132	64.2487
4128	64.2953
4124	64.2201
4120	64.1292
4116	64.0527
4112	63.966
4108	63.8483
4104	63.836
4100	63.9489
4096	64.0754
4092	64.1322
4088	64.1196
4084	64.1462
4080	64.1833
4076	64.205
4072	64.1635
4068	64.0694
4064	64.1934
4060	64.3661
4056	64.2982
4052	64.1427
4048	63.9591
4044	63.8252
4040	63.9155
4036	64.1345
4032	64.3072
4028	64.345
4024	64.1852
4020	64.0052
4016	64.011
4012	64.0725
4008	64.0314
4004	64.0146
4000	64.0703
3996	64.0943
3992	64.157
3988	64.2129
3984	64.1387
3980	63.9802
3976	63.8921
3972	63.9594
3968	64.0041
3964	63.9209
3960	63.8207
3956	63.8458
3952	63.9269
3948	63.8873
3944	63.9568
3940	64.2135
3936	64.2845
3932	64.1892
3928	64.1883
3924	64.1717
3920	64.0435
3916	63.919
3912	63.8331
3908	63.8313
3904	63.9426
3900	64.053
3896	64.0258
3892	64.0027
3888	64.1078
3884	64.1433
3880	64.1515
3876	64.1958
3872	64.1748
3868	64.0871
3864	63.9769
3860	63.9889
3856	64.1795
3852	64.3076
3848	64.1403
3844	63.9978
3840	64.1659
3836	64.2967
3832	64.2233
3828	64.1578
3824	64.1724
3820	64.1854
3816	64.2098
3812	64.3
3808	64.3247
3804	64.2092
3800	64.1242
3796	64.1538
3792	64.1622
3788	64.1714
3784	64.1928
3780	64.1389
3776	64.181
3772	64.3462
3768	64.3825
3764	64.2855
3760	64.2724
3756	64.3409
3752	64.3424
3748	64.2937
3744	64.3005
3740	64.324
3736	64.3026
3732	64.3122
3728	64.3684
3724	64.4
3720	64.3847
3716	64.3327
3712	64.3225
3708	64.3609
3704	64.3508
3700	64.3269
3696	64.3553
3692	64.4027
3688	64.4374
3684	64.4306
3680	64.3767
3676	64.2793
3672	64.1571
3668	64.1071
3664	64.1354
3660	64.1817
3656	64.2357
3652	64.2912
3648	64.3456
3644	64.3954
3640	64.4207
3636	64.3996
3632	64.3282
3628	64.1997
3624	64.1427
3620	64.1956
3616	64.226
3612	64.2637
3608	64.2869
3604	64.2349
3600	64.2276
3596	64.3147
3592	64.3609
3588	64.2838
3584	64.1809
3580	64.1056
3576	64.0772
3572	64.1348
3568	64.2174
3564	64.2339
3560	64.1719
3556	64.1053
3552	64.067
3548	64.0754
3544	64.1313
3540	64.1856
3536	64.1523
3532	64.0794
3528	64.1013
3524	64.1338
3520	64.1371
3516	64.1847
3512	64.21
3508	64.151
3504	64.1244
3500	64.2034
3496	64.2033
3492	64.119
3488	64.1383
3484	64.22
3480	64.2941
3476	64.3723
3472	64.4073
3468	64.2991
3464	64.1196
3460	64.0731
3456	64.1388
3452	64.2189
3448	64.236
3444	64.1598
3440	64.1616
3436	64.2591
3432	64.2889
3428	64.3086
3424	64.3924
3420	64.4188
3416	64.3653
3412	64.3403
3408	64.3027
3404	64.2187
3400	64.1952
3396	64.2057
3392	64.1935
3388	64.2012
3384	64.2734
3380	64.3994
3376	64.4614
3372	64.3875
3368	64.2591
3364	64.2271
3360	64.2465
3356	64.2287
3352	64.2418
3348	64.2326
3344	64.2039
3340	64.2508
3336	64.3037
3332	64.2663
3328	64.172
3324	64.1482
3320	64.2211
3316	64.2743
3312	64.2804
3308	64.3043
3304	64.3144
3300	64.2691
3296	64.1937
3292	64.1351
3288	64.1789
3284	64.2526
3280	64.2009
3276	64.134
3272	64.108
3268	64.0809
3264	64.1523
3260	64.2538
3256	64.2908
3252	64.3315
3248	64.3816
3244	64.3755
3240	64.3206
3236	64.2645
3232	64.2269
3228	64.1895
3224	64.1072
3220	64.0413
3216	64.0752
3212	64.1471
3208	64.1733
3204	64.1984
3200	64.2361
3196	64.2684
3192	64.2998
3188	64.3195
3184	64.3378
3180	64.3126
3176	64.2168
3172	64.1222
3168	64.1057
3164	64.1301
3160	64.1545
3156	64.1636
3152	64.1516
3148	64.1839
3144	64.232
3140	64.2165
3136	64.1729
3132	64.1391
3128	64.1286
3124	64.1685
3120	64.2008
3116	64.1877
3112	64.1593
3108	64.1458
3104	64.1839
3100	64.2183
3096	64.2317
3092	64.2511
3088	64.2083
3084	64.1132
3080	64.0936
3076	64.1386
3072	64.1154
3068	64.1073
3064	64.1685
3060	64.2167
3056	64.2601
3052	64.2971
3048	64.2917
3044	64.2106
3040	64.1785
3036	64.2703
3032	64.3346
3028	64.309
3024	64.2126
3020	64.0996
3016	64.1164
3012	64.213
3008	64.193
3004	64.1186
3000	64.096
2996	64.0717
2992	64.0462
2988	64.0382
2984	64.0405
2980	64.0598
2976	64.079
2972	64.0723
2968	64.0015
2964	63.9444
2960	63.9758
2956	64.0125
2952	64.0089
2948	63.9945
2944	64.074
2940	64.2098
2936	64.1909
2932	64.1063
2928	64.1564
2924	64.2248
2920	64.1805
2916	64.0555
2912	63.9892
2908	64.0595
2904	64.0968
2900	64.0149
2896	63.9632
2892	63.9861
2888	64.0046
2884	63.983
2880	63.9771
2876	64.0143
2872	64.0198
2868	64.0023
2864	64.0481
2860	64.0871
2856	64.0335
2852	63.9858
2848	64.0508
2844	64.1497
2840	64.1134
2836	63.9772
2832	63.9501
2828	64.0512
2824	64.1248
2820	64.1099
2816	64.0393
2812	63.9929
2808	64.0414
2804	64.1453
2800	64.1372
2796	64.0353
2792	64.0125
2788	64.0374
2784	64.0713
2780	64.1289
2776	64.1345
2772	64.0715
2768	64.0345
2764	64.0695
2760	64.0926
2756	64.0704
2752	64.1024
2748	64.1531
2744	64.1424
2740	64.1369
2736	64.1347
2732	64.1076
2728	64.1114
2724	64.1364
2720	64.1118
2716	64.0886
2712	64.0944
2708	64.078
2704	64.0332
2700	63.9931
2696	64.0239
2692	64.0512
2688	64.0183
2684	63.998
2680	63.9916
2676	64.0047
2672	64.0434
2668	64.0799
2664	64.076
2660	64.06
2656	64.0735
2652	64.1187
2648	64.1922
2644	64.1733
2640	64.082
2636	64.0559
2632	64.0496
2628	63.9835
2624	63.9287
2620	63.9645
2616	64.0167
2612	64.0269
2608	64.0007
2604	63.9491
2600	63.9443
2596	64.0031
2592	64.0148
2588	63.9702
2584	63.9743
2580	64.0067
2576	64.0203
2572	64.0011
2568	63.9692
2564	63.9902
2560	64.0049
2556	64.0094
2552	64.0316
2548	63.9771
2544	63.8998
2540	63.9205
2536	63.9992
2532	64.0765
2528	64.0954
2524	64.0148
2520	63.942
2516	63.954
2512	63.9822
2508	63.9708
2504	63.9638
2500	63.9984
2496	63.99
2492	63.9168
2488	63.8953
2484	63.9195
2480	63.9369
2476	64
2472	64.0697
2468	64.0533
2464	64.0306
2460	64.0807
2456	64.1031
2452	64.0285
2448	63.9811
2444	64.0487
2440	64.0969
2436	64.042
2432	64.0106
2428	64.0429
2424	64.0248
2420	63.9615
2416	63.9424
2412	63.9282
2408	63.8707
2404	63.8354
2400	63.8518
2396	63.869
2392	63.8083
2388	63.7278
2384	63.7723
2380	63.8752
2376	63.9393
2372	63.9923
2368	64.0361
2364	64.0133
2360	63.9266
2356	63.8621
2352	63.8341
2348	63.8115
2344	63.8034
2340	63.8201
2336	63.8411
2332	63.8686
2328	63.9265
2324	64.0043
2320	64.0315
2316	63.9774
2312	63.9267
2308	63.9093
2304	63.873
2300	63.8486
2296	63.8904
2292	63.923
2288	63.874
2284	63.8201
2280	63.853
2276	63.9212
2272	63.9777
2268	63.9879
2264	63.9117
2260	63.8586
2256	63.8663
2252	63.8681
2248	63.8529
2244	63.8373
2240	63.8863
2236	63.9527
2232	63.9491
2228	63.919
2224	63.8806
2220	63.83
2216	63.7922
2212	63.8095
2208	63.8237
2204	63.7645
2200	63.7364
2196	63.7702
2192	63.786
2188	63.7679
2184	63.7697
2180	63.8132
2176	63.8289
2172	63.781
2168	63.7025
2164	63.6421
2160	63.6449
2156	63.6974
2152	63.7125
2148	63.7155
2144	63.8103
2140	63.9137
2136	63.8972
2132	63.8217
2128	63.7685
2124	63.7472
2120	63.7855
2116	63.8067
2112	63.7723
2108	63.7689
2104	63.7658
2100	63.7361
2096	63.7228
2092	63.7097
2088	63.6906
2084	63.694
2080	63.7272
2076	63.7447
2072	63.696
2068	63.6063
2064	63.6101
2060	63.743
2056	63.8474
2052	63.8225
2048	63.716
2044	63.6383
2040	63.6527
2036	63.7074
2032	63.7307
2028	63.7192
2024	63.704
2020	63.692
2016	63.6735
2012	63.6612
2008	63.664
2004	63.6724
2000	63.6677
1996	63.6854
1992	63.7516
1988	63.7774
1984	63.7226
1980	63.6666
1976	63.6588
1972	63.668
1968	63.6389
1964	63.5729
1960	63.5779
1956	63.6682
1952	63.6954
1948	63.619
1944	63.5667
1940	63.616
1936	63.6397
1932	63.5421
1928	63.4442
1924	63.4307
1920	63.4629
1916	63.5272
1912	63.6171
1908	63.6798
1904	63.6799
1900	63.652
1896	63.639
1892	63.641
1888	63.6125
1884	63.5292
1880	63.4656
1876	63.4716
1872	63.5091
1868	63.5436
1864	63.5833
1860	63.6363
1856	63.6715
1852	63.6412
1848	63.5657
1844	63.5427
1840	63.5844
1836	63.59
1832	63.5633
1828	63.5499
1824	63.5198
1820	63.4901
1816	63.4588
1812	63.4264
1808	63.4339
1804	63.4665
1800	63.4857
1796	63.4799
1792	63.4686
1788	63.4432
1784	63.4131
1780	63.4197
1776	63.4447
1772	63.4551
1768	63.4531
1764	63.45
1760	63.4074
1756	63.2927
1752	63.2175
1748	63.2534
1744	63.2929
1740	63.2548
1736	63.129
1732	63.0107
1728	63.0467
1724	63.1911
1720	63.3038
1716	63.3376
1712	63.3269
1708	63.2809
1704	63.2209
1700	63.2272
1696	63.2836
1692	63.3034
1688	63.2594
1684	63.2175
1680	63.2459
1676	63.2744
1672	63.2452
1668	63.2366
1664	63.2946
1660	63.3567
1656	63.3729
1652	63.379
1648	63.4063
1644	63.3919
1640	63.3342
1636	63.3093
1632	63.3202
1628	63.3327
1624	63.3289
1620	63.311
1616	63.2828
1612	63.2551
1608	63.2595
1604	63.2754
1600	63.2469
1596	63.2163
1592	63.2417
1588	63.278
1584	63.2301
1580	63.1115
1576	63.0736
1572	63.1635
1568	63.2491
1564	63.2144
1560	63.1527
1556	63.1261
1552	63.0714
1548	63.1131
1544	63.2504
1540	63.2643
1536	63.1814
1532	63.1465
1528	63.1735
1524	63.1939
1520	63.1501
1516	63.0941
1512	63.1236
1508	63.1792
1504	63.1673
1500	63.1834
1496	63.2613
1492	63.2404
1488	63.1345
1484	63.0755
1480	63.0613
1476	63.0936
1472	63.142
1468	63.1377
1464	63.113
1460	63.1088
1456	63.071
1452	62.9904
1448	62.953
1444	62.993
1440	63.0728
1436	63.1623
1432	63.1872
1428	63.121
1424	63.0656
1420	63.0352
1416	62.9943
1412	62.9844
1408	63.006
1404	63.0613
1400	63.0653
1396	62.9421
1392	62.8502
1388	62.8544
1384	62.886
1380	62.9079
1376	62.9161
1372	62.9583
1368	63.0147
1364	62.9984
1360	62.9233
1356	62.8609
1352	62.8931
1348	62.9759
1344	62.9606
1340	62.894
1336	62.8948
1332	62.9539
1328	62.9633
1324	62.947
1320	63.0172
1316	63.0716
1312	62.9886
1308	62.8444
1304	62.7899
1300	62.8437
1296	62.89
1292	62.8513
1288	62.7477
1284	62.666
1280	62.6582
1276	62.7203
1272	62.8054
1268	62.8308
1264	62.8326
1260	62.8357
1256	62.785
1252	62.7795
1248	62.853
1244	62.8902
1240	62.8493
1236	62.8008
1232	62.8227
1228	62.8472
1224	62.7869
1220	62.7122
1216	62.7125
1212	62.7114
1208	62.6689
1204	62.6958
1200	62.7413
1196	62.7155
1192	62.7001
1188	62.722
1184	62.6925
1180	62.6345
1176	62.6085
1172	62.5419
1168	62.4842
1164	62.5045
1160	62.5301
1156	62.5906
1152	62.6492
1148	62.6181
1144	62.5758
1140	62.6204
1136	62.705
1132	62.6525
1128	62.5141
1124	62.5113
1120	62.6206
1116	62.6772
1112	62.6667
1108	62.6472
1104	62.6766
1100	62.676
1096	62.5696
1092	62.4949
1088	62.484
1084	62.4509
1080	62.3827
1076	62.3842
1072	62.4943
1068	62.5958
1064	62.6374
1060	62.6557
1056	62.6496
1052	62.5707
1048	62.4614
1044	62.4481
1040	62.5327
1036	62.6117
1032	62.6633
1028	62.6924
1024	62.637
1020	62.507
1016	62.3978
1012	62.4073
1008	62.5032
1004	62.5444
1000	62.5438
996	 62.5007
992	 62.4137
988	 62.4333
984	 62.5017
980	 62.5518
976	 62.6416
972	 62.6425
968	 62.5493
964	 62.4631
960	 62.4079
956	 62.4683
952	 62.5358
948	 62.5018
944	 62.4923
940	 62.5515
936	 62.5587
932	 62.5229
928	 62.5456
924	 62.6176
920	 62.6662
916	 62.6295
912	 62.5621
908	 62.4838
904	 62.3628
900	 62.2785
896	 62.2645
892	 62.3327
888	 62.5001
884	 62.6143
880	 62.6088
876	 62.6394
872	 62.6117
868	 62.4244
864	 62.3554
860	 62.4428
856	 62.4482
852	 62.3514
848	 62.2836
844	 62.3856
840	 62.5962
836	 62.656
832	 62.5328
828	 62.4328
824	 62.435
820	 62.4434
816	 62.4621
812	 62.4963
808	 62.472
804	 62.4079
800	 62.3559
796	 62.2806
792	 62.2355
788	 62.3114
784	 62.3676
780	 62.2893
776	 62.119
772	 62.0362
768	 62.1577
764	 62.2513
760	 62.1912
756	 62.0994
752	 62.1182
748	 62.3017
744	 62.4032
740	 62.2823
736	 62.2043
732	 62.2971
728	 62.3523
724	 62.2295
720	 62.0568
716	 62.0302
712	 62.1284
708	 62.1284
704	 61.9989
700	 61.9335
696	 61.9598
692	 62.0296
688	 62.0889
684	 61.9582
680	 61.7975
676	 61.9485
672	 62.1796
668	 62.0934
664	 61.7747
660	 61.6202
656	 61.8186
652	 62.0697
648	 62.1122
644	 61.9506
640	 61.7738
636	 61.957
632	 62.2783
628	 62.0311
624	 61.5246
620	 61.5954
616	 61.8557
612	 61.7639
608	 61.8118
604	 62.1994
600	 62.511
596	 62.4918
592	 62.4439
588	 62.5371
584	 62.315
580	 61.9303
576	 62.1392
572	 62.5131
568	 62.3254
564	 62.0833
560	 61.821
556	 61.5028
552	 61.9653
548	 62.6192
544	 62.2874
540	 61.7753
536	 62.1136
532	 62.4734
528	 62.0593
524	 61.9988
520	 62.582
516	 62.369
512	 61.8455
508	 61.7915
504	 61.1346
500	 60.0632
496	 59.9232
492	 60.9309
488	 62.0991
484	 62.1318
480	 61.5423
476	 61.1904
472	 60.6201
468	 60.2032
464	 60.6923
460	 61.3298
456	 60.9425
452	 60.3246
448	 60.1264
444	 60.3149
440	 61.3962
436	 62.1495
432	 61.6227
428	 61.0955
424	 62.3656
420	 65.7548
416	 66.3082
412	 61.58
408	 58.1165
404	 58.5274
400	 59.2213
396	 61.1692
392	 64.4852
388	 66.3125
384	 69.805
380	 72.8355
376	 71.9058
372	 73.2812
370	 75.1373