File: Bakgrunnsmateriale/MATLAB/FTIR/ftir_data/subAa/Mapping_121/BZ1503107-1_t21_cm-1.asc
PE IR       SPECTRUM    SPECTRUM    ASCII       PEDS        1.60
  -1
BZ6923~1.ASC
17/04/07
14:53:27.00
17/04/07
14:53:27.00
tln
$BZ1503107-1_t0021$<tbV0>[-10.4,-10.4,8.0,0.0,27,1,0]
370
64

2002,4.07
MIRTGS : RIGHTBACK : INTERNAL 2
MIR : ON : INTERNAL 2
OPTKBR

0.200000
8
8.000000
FILLER
RATIO
SPECTRUM
UNLOCKED 256

DOUBLE
64
COMBINED
1
0
0

1.000000
RATIO

1
0
TRUE
51149
0
LEFT NOT FITTED RIGHT NOT FITTED 0
NONE
NONE
15600
12
4.427000
51148
TRUE
1 0 8 72 0 0 0 0

15798

#HDR
-1
-1
#GR
CM-1
%T
2.38419e-05
0.0
5000
-1.000000
4631
8
73.0158
23.7562
#DATA
5000	64.9513
4996	63.8051
4992	63.5258
4988	64.1005
4984	64.8345
4980	64.7655
4976	64.4368
4972	64.551
4968	64.7629
4964	64.8584
4960	64.827
4956	65.0084
4952	65.1458
4948	64.9694
4944	64.9337
4940	65.0172
4936	64.914
4932	64.7023
4928	64.7823
4924	65.015
4920	64.8328
4916	64.4575
4912	64.5259
4908	64.9198
4904	65.1526
4900	65.0427
4896	64.8271
4892	64.8243
4888	64.8252
4884	64.6818
4880	64.5193
4876	64.4345
4872	64.5571
4868	64.817
4864	64.9702
4860	65.0379
4856	65.1146
4852	65.108
4848	65.14
4844	65.2389
4840	65.1263
4836	64.812
4832	64.6452
4828	64.9808
4824	65.3788
4820	65.2082
4816	65.1921
4812	65.2751
4808	65.1137
4804	65.6085
4800	66.1215
4796	65.808
4792	65.5842
4788	65.7748
4784	65.6204
4780	65.0522
4776	64.8963
4772	64.9272
4768	64.5035
4764	64.5101
4760	65.207
4756	65.4723
4752	65.1722
4748	64.937
4744	64.9536
4740	64.9601
4736	64.8257
4732	64.7932
4728	64.7956
4724	64.628
4720	64.4092
4716	64.4687
4712	64.5481
4708	64.3586
4704	64.4747
4700	64.7306
4696	64.699
4692	64.7931
4688	65.0141
4684	65.0927
4680	65.0866
4676	65.0688
4672	64.9764
4668	64.8365
4664	64.7443
4660	64.7685
4656	64.9213
4652	64.975
4648	64.9899
4644	65.0549
4640	64.9347
4636	64.7129
4632	64.6441
4628	64.6401
4624	64.5911
4620	64.5628
4616	64.6172
4612	64.7445
4608	64.8422
4604	64.9324
4600	64.9165
4596	64.7767
4592	64.7539
4588	64.7909
4584	64.8306
4580	64.975
4576	65.09
4572	64.9063
4568	64.643
4564	64.445
4560	64.3545
4556	64.5633
4552	64.6663
4548	64.6063
4544	64.6688
4540	64.7551
4536	64.8402
4532	64.791
4528	64.6528
4524	64.4923
4520	64.2824
4516	64.2313
4512	64.4934
4508	64.9029
4504	65.2905
4500	65.6804
4496	66.33
4492	67.4698
4488	68.0113
4484	68.7771
4480	69.4739
4476	67.3283
4472	64.8232
4468	63.5797
4464	62.7363
4460	62.6208
4456	62.6917
4452	63.0807
4448	63.1967
4444	60.8836
4440	59.1649
4436	63.0203
4432	68.3803
4428	71.5482
4424	73.0158
4420	71.6649
4416	68.7364
4412	66.4488
4408	65.5327
4404	65.2965
4400	65.0385
4396	64.7355
4392	64.3569
4388	64.1295
4384	64.2169
4380	64.4022
4376	64.6397
4372	64.7978
4368	64.8251
4364	64.845
4360	64.9013
4356	64.8478
4352	64.6439
4348	64.5449
4344	64.6427
4340	64.7503
4336	64.6928
4332	64.6074
4328	64.7249
4324	64.8177
4320	64.721
4316	64.752
4312	64.8954
4308	64.9803
4304	64.9512
4300	64.6749
4296	64.4083
4292	64.5309
4288	64.8703
4284	65.0416
4280	64.9922
4276	64.9968
4272	65.0564
4268	64.9782
4264	64.821
4260	64.5789
4256	64.3969
4252	64.5638
4248	64.8817
4244	64.9951
4240	64.9741
4236	64.9567
4232	64.958
4228	64.9595
4224	64.9003
4220	64.9395
4216	65.0653
4212	64.9965
4208	64.88
4204	65.0109
4200	65.1253
4196	65.0161
4192	65.0386
4188	65.238
4184	65.3087
4180	65.0945
4176	64.8179
4172	64.8242
4168	64.9529
4164	65.1167
4160	65.2761
4156	65.128
4152	64.8089
4148	64.6999
4144	64.8876
4140	65.0726
4136	65.0736
4132	65.1156
4128	65.1968
4124	65.2356
4120	65.1861
4116	65.0715
4112	65.1757
4108	65.3744
4104	65.3763
4100	65.1744
4096	64.9869
4092	65.1177
4088	65.3553
4084	65.3578
4080	65.2858
4076	65.2436
4072	65.1238
4068	65.0155
4064	65.0071
4060	65.0381
4056	65.0979
4052	65.1497
4048	65.0771
4044	64.9451
4040	64.9364
4036	64.9548
4032	64.9376
4028	64.9829
4024	64.9912
4020	64.9226
4016	64.9489
4012	65.0573
4008	65.1125
4004	65.0988
4000	64.9861
3996	64.9031
3992	64.9988
3988	65.0968
3984	65.1474
3980	65.2677
3976	65.3793
3972	65.4252
3968	65.4073
3964	65.2802
3960	65.0974
3956	65.0535
3952	65.1501
3948	65.2265
3944	65.2607
3940	65.2133
3936	65.1073
3932	65.1798
3928	65.3447
3924	65.2145
3920	64.9868
3916	64.934
3912	64.951
3908	65.0146
3904	65.0604
3900	65.0734
3896	65.0415
3892	65.0138
3888	65.1334
3884	65.2035
3880	65.1267
3876	65.0794
3872	65.0102
3868	64.8831
3864	64.847
3860	64.9502
3856	65.1405
3852	65.2181
3848	65.1443
3844	65.1401
3840	65.1676
3836	65.0817
3832	64.9868
3828	65.1036
3824	65.28
3820	65.3033
3816	65.265
3812	65.1907
3808	65.1927
3804	65.2841
3800	65.1386
3796	64.8451
3792	64.7324
3788	64.7783
3784	64.8623
3780	64.9092
3776	64.9249
3772	64.9879
3768	65.0954
3764	65.1783
3760	65.2734
3756	65.4826
3752	65.6055
3748	65.4615
3744	65.3023
3740	65.2707
3736	65.2577
3732	65.2197
3728	65.1919
3724	65.1818
3720	65.1608
3716	65.1908
3712	65.2234
3708	65.1817
3704	65.1463
3700	65.1279
3696	65.1721
3692	65.2306
3688	65.2143
3684	65.1816
3680	65.2227
3676	65.3521
3672	65.3836
3668	65.2673
3664	65.1481
3660	65.1026
3656	65.1157
3652	65.1886
3648	65.3039
3644	65.4028
3640	65.4673
3636	65.4764
3632	65.4585
3628	65.3982
3624	65.315
3620	65.3016
3616	65.3369
3612	65.3296
3608	65.2252
3604	65.1374
3600	65.1212
3596	65.0866
3592	65.1115
3588	65.2227
3584	65.302
3580	65.3153
3576	65.2947
3572	65.205
3568	64.9966
3564	64.8588
3560	64.9271
3556	65.0616
3552	65.1652
3548	65.2384
3544	65.2719
3540	65.3012
3536	65.3118
3532	65.2024
3528	65.0683
3524	65.0383
3520	65.0419
3516	65.0643
3512	65.1607
3508	65.252
3504	65.3006
3500	65.3255
3496	65.2613
3492	65.0983
3488	65.0374
3484	65.1436
3480	65.2259
3476	65.1979
3472	65.104
3468	65.0295
3464	65.0858
3460	65.2778
3456	65.3564
3452	65.2134
3448	65.0258
3444	64.9773
3440	65.0771
3436	65.1659
3432	65.2463
3428	65.2895
3424	65.2475
3420	65.2725
3416	65.3342
3412	65.2983
3408	65.1953
3404	65.1067
3400	65.0925
3396	65.0982
3392	65.048
3388	64.9866
3384	65.0082
3380	65.0638
3376	65.0676
3372	65.1485
3368	65.232
3364	65.1476
3360	65.0373
3356	64.9982
3352	65.0583
3348	65.1678
3344	65.1812
3340	65.1368
3336	65.1659
3332	65.2387
3328	65.2222
3324	65.1813
3320	65.2397
3316	65.2457
3312	65.1054
3308	65.0338
3304	65.0941
3300	65.1151
3296	65.1161
3292	65.1678
3288	65.1702
3284	65.1255
3280	65.1047
3276	65.0776
3272	65.0503
3268	65.0592
3264	65.0897
3260	65.0525
3256	65.012
3252	65.041
3248	65.0486
3244	65.0233
3240	64.9617
3236	64.9583
3232	65.0187
3228	65.0623
3224	65.1434
3220	65.1852
3216	65.1396
3212	65.1416
3208	65.1845
3204	65.1164
3200	65.0354
3196	65.1038
3192	65.1503
3188	65.0456
3184	65.0053
3180	65.1138
3176	65.1972
3172	65.2225
3168	65.2541
3164	65.3468
3160	65.4258
3156	65.3157
3152	65.1817
3148	65.209
3144	65.2609
3140	65.2995
3136	65.3467
3132	65.296
3128	65.1856
3124	65.1821
3120	65.2379
3116	65.2369
3112	65.1729
3108	65.1631
3104	65.2622
3100	65.3528
3096	65.3739
3092	65.2794
3088	65.1399
3084	65.1115
3080	65.1489
3076	65.2184
3072	65.2833
3068	65.2436
3064	65.1593
3060	65.086
3056	65.029
3052	65.0284
3048	65.0953
3044	65.1879
3040	65.2327
3036	65.2077
3032	65.1718
3028	65.1775
3024	65.1808
3020	65.1877
3016	65.2559
3012	65.2888
3008	65.2664
3004	65.3015
3000	65.2797
2996	65.1179
2992	65.0055
2988	65.0302
2984	65.1059
2980	65.1117
2976	65.0548
2972	65.0732
2968	65.1056
2964	65.0745
2960	65.0138
2956	64.9401
2952	64.9135
2948	64.9395
2944	64.9897
2940	65.033
2936	64.9702
2932	64.8579
2928	64.8876
2924	64.9606
2920	64.9707
2916	64.9728
2912	64.9593
2908	64.9512
2904	64.9441
2900	64.9798
2896	65.0701
2892	65.1148
2888	65.0743
2884	65.0109
2880	65.0283
2876	65.0794
2872	65.12
2868	65.1879
2864	65.1698
2860	65.0831
2856	65.066
2852	65.0357
2848	64.9808
2844	65.003
2840	65.0508
2836	65.0574
2832	65.0706
2828	65.0677
2824	64.9964
2820	64.9928
2816	65.1015
2812	65.1403
2808	65.0543
2804	65.0256
2800	65.1147
2796	65.1471
2792	65.0712
2788	65.0092
2784	65.0434
2780	65.1148
2776	65.0672
2772	64.9729
2768	65.0086
2764	65.0695
2760	65.0572
2756	65.0627
2752	65.1117
2748	65.1233
2744	65.0681
2740	65.061
2736	65.0981
2732	65.0594
2728	65.0118
2724	64.9986
2720	64.9781
2716	64.9927
2712	65.0133
2708	65.0014
2704	65.0412
2700	65.1261
2696	65.1583
2692	65.1244
2688	65.075
2684	65.0336
2680	64.9995
2676	64.9777
2672	64.9674
2668	64.975
2664	64.9708
2660	64.9702
2656	65.0013
2652	64.9973
2648	64.9951
2644	65.0479
2640	65.0883
2636	65.0923
2632	65.0666
2628	65.0481
2624	65.0453
2620	65.0146
2616	65.0476
2612	65.1617
2608	65.1649
2604	65.055
2600	65.0012
2596	64.9975
2592	65.0098
2588	65.0823
2584	65.1453
2580	65.1004
2576	65.0259
2572	65.0165
2568	65.0856
2564	65.1627
2560	65.1383
2556	65.0763
2552	65.0331
2548	64.996
2544	65.0505
2540	65.1723
2536	65.2764
2532	65.3198
2528	65.2763
2524	65.2196
2520	65.1746
2516	65.142
2512	65.1536
2508	65.1596
2504	65.1327
2500	65.0775
2496	64.9852
2492	64.9177
2488	64.9542
2484	65.0295
2480	65.0346
2476	65.0256
2472	65.0503
2468	65.0376
2464	65.008
2460	65.0005
2456	65.0088
2452	65.0327
2448	65.0293
2444	64.9719
2440	64.9544
2436	65.0394
2432	65.1169
2428	65.0926
2424	64.9943
2420	64.9515
2416	65.0445
2412	65.103
2408	64.9422
2404	64.7989
2400	64.9069
2396	65.053
2392	65.0891
2388	65.1031
2384	65.1243
2380	65.1055
2376	65.0305
2372	64.959
2368	64.9425
2364	65.0008
2360	65.1097
2356	65.1301
2352	65.0365
2348	64.9641
2344	64.9746
2340	65.0169
2336	65.0478
2332	65.0285
2328	64.9708
2324	64.9705
2320	64.9991
2316	64.9936
2312	65.0057
2308	65.0491
2304	65.0576
2300	65.0119
2296	64.9333
2292	64.8465
2288	64.8264
2284	64.8998
2280	64.9662
2276	64.9488
2272	64.9108
2268	64.9101
2264	64.9191
2260	64.9396
2256	64.9873
2252	65.0234
2248	65.0002
2244	64.9534
2240	64.9379
2236	64.9091
2232	64.842
2228	64.8278
2224	64.8794
2220	64.9334
2216	64.9507
2212	64.9129
2208	64.9226
2204	64.9665
2200	64.9682
2196	64.952
2192	64.903
2188	64.8627
2184	64.8419
2180	64.8111
2176	64.8361
2172	64.9128
2168	64.97
2164	64.9797
2160	64.9089
2156	64.8654
2152	64.8598
2148	64.8012
2144	64.7522
2140	64.7443
2136	64.8002
2132	64.8994
2128	64.941
2124	64.9098
2120	64.8772
2116	64.8624
2112	64.8404
2108	64.8104
2104	64.7938
2100	64.8001
2096	64.8444
2092	64.8968
2088	64.8722
2084	64.8185
2080	64.8663
2076	64.9505
2072	64.8957
2068	64.7386
2064	64.6248
2060	64.6615
2056	64.8145
2052	64.9131
2048	64.9377
2044	64.9218
2040	64.9031
2036	64.9562
2032	65.0005
2028	64.9425
2024	64.8611
2020	64.841
2016	64.8678
2012	64.8995
2008	64.8909
2004	64.8867
2000	64.9358
1996	64.9531
1992	64.8883
1988	64.8188
1984	64.812
1980	64.8438
1976	64.898
1972	64.9586
1968	64.9415
1964	64.858
1960	64.8133
1956	64.8063
1952	64.8134
1948	64.8061
1944	64.8029
1940	64.7999
1936	64.7692
1932	64.7527
1928	64.7576
1924	64.8196
1920	64.9245
1916	64.9781
1912	64.9484
1908	64.893
1904	64.8491
1900	64.8027
1896	64.8185
1892	64.8995
1888	64.8879
1884	64.7993
1880	64.7946
1876	64.8367
1872	64.8514
1868	64.8567
1864	64.8115
1860	64.7408
1856	64.7407
1852	64.8052
1848	64.8148
1844	64.7361
1840	64.708
1836	64.7527
1832	64.7708
1828	64.7482
1824	64.742
1820	64.7733
1816	64.8197
1812	64.8329
1808	64.7851
1804	64.7513
1800	64.7654
1796	64.775
1792	64.7599
1788	64.7534
1784	64.7795
1780	64.8133
1776	64.8662
1772	64.8924
1768	64.8397
1764	64.8045
1760	64.7979
1756	64.7499
1752	64.6751
1748	64.5684
1744	64.485
1740	64.5042
1736	64.551
1732	64.5379
1728	64.4645
1724	64.4705
1720	64.6576
1716	64.8188
1712	64.7924
1708	64.7225
1704	64.7524
1700	64.8318
1696	64.7841
1692	64.6569
1688	64.6966
1684	64.7794
1680	64.71
1676	64.664
1672	64.7418
1668	64.8195
1664	64.8038
1660	64.7669
1656	64.8194
1652	64.8323
1648	64.7321
1644	64.6509
1640	64.6381
1636	64.6784
1632	64.73
1628	64.7529
1624	64.7345
1620	64.7269
1616	64.6969
1612	64.5864
1608	64.5251
1604	64.5586
1600	64.6092
1596	64.6589
1592	64.6917
1588	64.6544
1584	64.6377
1580	64.7878
1576	64.9157
1572	64.8339
1568	64.7218
1564	64.7377
1560	64.8289
1556	64.8297
1552	64.7557
1548	64.7515
1544	64.7839
1540	64.7583
1536	64.7095
1532	64.681
1528	64.657
1524	64.6376
1520	64.6467
1516	64.7058
1512	64.7956
1508	64.8603
1504	64.8064
1500	64.6637
1496	64.5759
1492	64.5664
1488	64.5837
1484	64.5731
1480	64.5557
1476	64.6042
1472	64.6437
1468	64.6297
1464	64.5897
1460	64.5452
1456	64.5422
1452	64.579
1448	64.6478
1444	64.6988
1440	64.7222
1436	64.7245
1432	64.6524
1428	64.5096
1424	64.4229
1420	64.4919
1416	64.5465
1412	64.4812
1408	64.4007
1404	64.3746
1400	64.4639
1396	64.5607
1392	64.5161
1388	64.4478
1384	64.3993
1380	64.3061
1376	64.2512
1372	64.2834
1368	64.3629
1364	64.4429
1360	64.5146
1356	64.5635
1352	64.5104
1348	64.4273
1344	64.413
1340	64.4007
1336	64.4146
1332	64.4335
1328	64.393
1324	64.389
1320	64.414
1316	64.3658
1312	64.2847
1308	64.2325
1304	64.2137
1300	64.2781
1296	64.3877
1292	64.4397
1288	64.447
1284	64.4164
1280	64.3468
1276	64.286
1272	64.2378
1268	64.2125
1264	64.247
1260	64.2935
1256	64.3067
1252	64.3264
1248	64.306
1244	64.2221
1240	64.1801
1236	64.2126
1232	64.2667
1228	64.3273
1224	64.3443
1220	64.2867
1216	64.2605
1212	64.2439
1208	64.1726
1204	64.2012
1200	64.3367
1196	64.3923
1192	64.3474
1188	64.2916
1184	64.2064
1180	64.0752
1176	64.0255
1172	64.0952
1168	64.1546
1164	64.1685
1160	64.2023
1156	64.1934
1152	64.1256
1148	64.1202
1144	64.1504
1140	64.1847
1136	64.2551
1132	64.3203
1128	64.3208
1124	64.2704
1120	64.2214
1116	64.2191
1112	64.1825
1108	64.0361
1104	63.957
1100	64.0297
1096	64.1459
1092	64.2158
1088	64.2403
1084	64.3275
1080	64.3708
1076	64.2905
1072	64.2302
1068	64.203
1064	64.1583
1060	64.0992
1056	64.0674
1052	64.044
1048	64.0152
1044	64.0256
1040	64.0505
1036	64.0686
1032	64.0923
1028	64.0999
1024	64.0759
1020	64.0793
1016	64.0898
1012	64.0332
1008	63.9712
1004	64.0494
1000	64.2589
996	 64.4363
992	 64.4773
988	 64.3943
984	 64.3213
980	 64.2591
976	 64.1016
972	 64.0002
968	 64.0676
964	 64.1246
960	 64.1341
956	 64.206
952	 64.2993
948	 64.3456
944	 64.3147
940	 64.3313
936	 64.3494
932	 64.2348
928	 64.1871
924	 64.2029
920	 64.2005
916	 64.3061
912	 64.3791
908	 64.2638
904	 64.162
900	 64.228
896	 64.2275
892	 64.1185
888	 64.136
884	 64.2284
880	 64.2875
876	 64.3788
872	 64.3487
868	 64.12
864	 63.9881
860	 64.0577
856	 64.2094
852	 64.344
848	 64.3905
844	 64.349
840	 64.2734
836	 64.1439
832	 63.9833
828	 64.0043
824	 64.1502
820	 64.1404
816	 64.0736
812	 64.069
808	 64.0366
804	 63.9959
800	 64.044
796	 64.0916
792	 64.0247
788	 64.0354
784	 64.1186
780	 64.0451
776	 63.9165
772	 63.9034
768	 63.9231
764	 63.9292
760	 64.082
756	 64.2964
752	 64.2303
748	 63.8678
744	 63.7314
740	 64.0259
736	 64.2107
732	 64.1094
728	 63.9914
724	 63.9502
720	 63.9803
716	 64.018
712	 64.0042
708	 63.9349
704	 63.9338
700	 64.0558
696	 64.0606
692	 63.9387
688	 63.887
684	 64.0068
680	 64.112
676	 63.8269
672	 63.5428
668	 63.6483
664	 63.7666
660	 63.7241
656	 63.7143
652	 63.6597
648	 63.6133
644	 63.9614
640	 64.3596
636	 64.3564
632	 64.1751
628	 64.0779
624	 63.8631
620	 63.7082
616	 64.2072
612	 64.4485
608	 63.7714
604	 63.4612
600	 63.9937
596	 64.3014
592	 64.0882
588	 63.9563
584	 63.7707
580	 63.6804
576	 63.8627
572	 63.4978
568	 63.3977
564	 64.4483
560	 65.1179
556	 64.7125
552	 64.1641
548	 63.9327
544	 63.8697
540	 63.7457
536	 63.3984
532	 63.3343
528	 63.9409
524	 64.3687
520	 64.1078
516	 63.8223
512	 63.6891
508	 63.5276
504	 63.819
500	 64.3632
496	 64.4989
492	 64.6051
488	 64.7137
484	 64.3827
480	 64.4258
476	 65.1354
472	 64.9575
468	 63.9097
464	 63.9432
460	 64.751
456	 64.5063
452	 63.6518
448	 63.3488
444	 63.1383
440	 62.495
436	 62.2238
432	 62.5684
428	 62.7268
424	 62.2712
420	 61.3411
416	 61.593
412	 63.3397
408	 66.1686
404	 68.8709
400	 67.5288
396	 65.5091
392	 65.8593
388	 59.8428
384	 53.8707
380	 57.4309
376	 61.5308
372	 23.7562
370	 32.7042