File: Bakgrunnsmateriale/MATLAB/FTIR/ftir_data/subAa/Mapping_121/BZ1503107-1_t08_cm-1.asc
PE IR       SPECTRUM    SPECTRUM    ASCII       PEDS        1.60
  -1
BZ6032~1.ASC
17/04/07
13:52:49.00
17/04/07
13:52:49.00
tln
$BZ1503107-1_t0008$<tbV0>[-5.2,-13.0,8.0,0.0,27,1,0]
370
64

2002,4.07
MIRTGS : RIGHTBACK : INTERNAL 2
MIR : ON : INTERNAL 2
OPTKBR

0.200000
8
8.000000
FILLER
RATIO
SPECTRUM
UNLOCKED 256

DOUBLE
64
COMBINED
1
0
0

1.000000
RATIO

1
0
TRUE
51149
0
LEFT NOT FITTED RIGHT NOT FITTED 0
NONE
NONE
15600
12
4.427000
51148
TRUE
1 0 8 72 0 0 0 0

15798

#HDR
-1
-1
#GR
CM-1
%T
2.38419e-05
0.0
5000
-1.000000
4631
8
85.573
44.0665
#DATA
5000	61.9254
4996	62.0869
4992	62.6127
4988	63.482
4984	63.9917
4980	63.502
4976	62.8047
4972	62.5281
4968	62.5059
4964	62.8356
4960	63.0746
4956	63.0538
4952	62.9741
4948	62.27
4944	61.2491
4940	61.4613
4936	63.0022
4932	64.0243
4928	63.4056
4924	62.3485
4920	62.2161
4916	62.3355
4912	62.114
4908	62.3864
4904	63.0948
4900	63.3725
4896	63.198
4892	63.0492
4888	63.1348
4884	63.3981
4880	63.5128
4876	63.152
4872	62.6981
4868	62.9257
4864	63.6675
4860	63.8796
4856	63.7542
4852	63.8949
4848	63.9531
4844	63.7414
4840	63.4962
4836	63.2715
4832	63.0697
4828	63.1938
4824	63.2048
4820	62.8872
4816	63.1395
4812	63.3789
4808	63.1689
4804	63.7696
4800	64.4551
4796	64.1754
4792	63.8677
4788	63.7131
4784	63.3096
4780	62.9788
4776	63.0831
4772	63.0861
4768	62.6591
4764	62.9066
4760	63.7372
4756	63.5709
4752	62.9185
4748	62.9598
4744	63.2404
4740	63.1442
4736	62.9266
4732	63.0921
4728	63.372
4724	63.1591
4720	62.7042
4716	62.7823
4712	62.9553
4708	62.6693
4704	62.6519
4700	62.9197
4696	62.8103
4692	62.6649
4688	62.8876
4684	63.0717
4680	63.1214
4676	63.1714
4672	63.0538
4668	62.9649
4664	63.1592
4660	63.4176
4656	63.3253
4652	63.0022
4648	63.0615
4644	63.425
4640	63.4597
4636	63.0734
4632	62.7372
4628	62.6158
4624	62.536
4620	62.5236
4616	62.5975
4612	62.715
4608	62.8604
4604	62.9871
4600	62.9096
4596	62.6974
4592	62.756
4588	62.9249
4584	62.8822
4580	62.848
4576	63.019
4572	63.0891
4568	62.8297
4564	62.4448
4560	62.1588
4556	62.0419
4552	62.1122
4548	62.261
4544	62.4533
4540	62.7367
4536	62.8437
4532	62.5537
4528	62.269
4524	61.937
4520	61.6351
4516	61.9121
4512	62.4954
4508	62.8956
4504	63.1778
4500	63.6007
4496	64.4501
4492	65.6855
4488	65.9159
4484	66.5068
4480	67.3961
4476	65.4013
4472	62.682
4468	61.4182
4464	60.0953
4460	58.6725
4456	56.4815
4452	54.4063
4448	61.7285
4444	73.6754
4440	76.4361
4436	73.1826
4432	68.3313
4428	64.6059
4424	63.7935
4420	63.5737
4416	63.4044
4412	63.5266
4408	63.6329
4404	63.3989
4400	62.964
4396	62.6231
4392	62.6527
4388	62.7229
4384	62.6657
4380	62.7055
4376	62.76
4372	62.8714
4368	63.0838
4364	63.1045
4360	62.9105
4356	62.8372
4352	62.8703
4348	62.8089
4344	62.8477
4340	62.9577
4336	62.8841
4332	62.7498
4328	62.8115
4324	62.8791
4320	62.8177
4316	62.8951
4312	63.0313
4308	63.0804
4304	63.1006
4300	63.1317
4296	63.1292
4292	63.0181
4288	62.9182
4284	62.9116
4280	62.9841
4276	63.131
4272	63.2815
4268	63.2972
4264	63.0869
4260	62.8448
4256	62.7868
4252	62.9215
4248	63.1073
4244	63.2632
4240	63.4316
4236	63.4715
4232	63.3643
4228	63.3621
4224	63.4439
4220	63.4153
4216	63.337
4212	63.4087
4208	63.5625
4204	63.57
4200	63.4126
4196	63.2102
4192	63.2228
4188	63.3577
4184	63.3102
4180	63.3097
4176	63.5724
4172	63.7619
4168	63.4717
4164	63.1703
4160	63.3327
4156	63.5272
4152	63.5214
4148	63.4967
4144	63.5679
4140	63.6364
4136	63.5517
4132	63.4991
4128	63.615
4124	63.7447
4120	63.768
4116	63.7419
4112	63.8122
4108	63.9063
4104	63.9307
4100	63.8453
4096	63.6367
4092	63.5881
4088	63.728
4084	63.78
4080	63.7773
4076	63.8325
4072	63.8082
4068	63.6765
4064	63.6981
4060	63.8092
4056	63.7989
4052	63.7342
4048	63.6796
4044	63.6759
4040	63.7418
4036	63.7746
4032	63.7203
4028	63.5914
4024	63.4546
4020	63.4331
4016	63.4674
4012	63.4547
4008	63.4384
4004	63.4622
4000	63.4837
3996	63.4505
3992	63.4027
3988	63.3815
3984	63.4129
3980	63.4531
3976	63.5138
3972	63.6958
3968	63.8386
3964	63.7716
3960	63.63
3956	63.6454
3952	63.7816
3948	63.7581
3944	63.5698
3940	63.4817
3936	63.5153
3932	63.4859
3928	63.3573
3924	63.2556
3920	63.3538
3916	63.5694
3912	63.5889
3908	63.5003
3904	63.5145
3900	63.564
3896	63.5549
3892	63.4973
3888	63.5072
3884	63.4765
3880	63.3603
3876	63.3073
3872	63.2778
3868	63.2951
3864	63.3368
3860	63.3888
3856	63.5748
3852	63.6941
3848	63.631
3844	63.6361
3840	63.7388
3836	63.7878
3832	63.7791
3828	63.8111
3824	63.8163
3820	63.7428
3816	63.63
3812	63.5324
3808	63.5627
3804	63.6603
3800	63.6451
3796	63.5567
3792	63.5689
3788	63.661
3784	63.6712
3780	63.6096
3776	63.6348
3772	63.7412
3768	63.7763
3764	63.7339
3760	63.7708
3756	63.9327
3752	63.9797
3748	63.8935
3744	63.8799
3740	63.8433
3736	63.7742
3732	63.7489
3728	63.7227
3724	63.735
3720	63.8003
3716	63.8696
3712	63.9021
3708	63.8884
3704	63.9098
3700	63.9096
3696	63.7969
3692	63.7451
3688	63.8318
3684	63.9257
3680	64.0203
3676	64.1415
3672	64.1715
3668	64.0257
3664	63.8739
3660	63.8605
3656	63.8698
3652	63.8061
3648	63.781
3644	63.8895
3640	63.9361
3636	63.8059
3632	63.7218
3628	63.7967
3624	63.8969
3620	63.8839
3616	63.8109
3612	63.8398
3608	63.901
3604	63.8952
3600	63.8114
3596	63.6787
3592	63.6878
3588	63.7788
3584	63.789
3580	63.7653
3576	63.7368
3572	63.6819
3568	63.6576
3564	63.6936
3560	63.6911
3556	63.6869
3552	63.6949
3548	63.6786
3544	63.7206
3540	63.7487
3536	63.642
3532	63.5218
3528	63.4962
3524	63.4905
3520	63.529
3516	63.6153
3512	63.6863
3508	63.8192
3504	63.9854
3500	63.9869
3496	63.8628
3492	63.7823
3488	63.7823
3484	63.7884
3480	63.7295
3476	63.6862
3472	63.6667
3468	63.5887
3464	63.545
3460	63.6283
3456	63.7156
3452	63.7064
3448	63.6765
3444	63.7118
3440	63.7545
3436	63.7356
3432	63.7509
3428	63.8208
3424	63.842
3420	63.7784
3416	63.7489
3412	63.8155
3408	63.8047
3404	63.7349
3400	63.7077
3396	63.6623
3392	63.6283
3388	63.6432
3384	63.7316
3380	63.8232
3376	63.7722
3372	63.7167
3368	63.7858
3364	63.844
3360	63.7533
3356	63.6115
3352	63.5854
3348	63.62
3344	63.702
3340	63.8429
3336	63.9228
3332	63.8788
3328	63.7645
3324	63.6838
3320	63.6914
3316	63.7309
3312	63.7668
3308	63.7995
3304	63.7908
3300	63.7676
3296	63.7708
3292	63.7872
3288	63.7942
3284	63.793
3280	63.8
3276	63.7957
3272	63.8049
3268	63.8381
3264	63.8675
3260	63.8629
3256	63.8172
3252	63.7542
3248	63.7058
3244	63.7032
3240	63.732
3236	63.7712
3232	63.7414
3228	63.6988
3224	63.7388
3220	63.7828
3216	63.8462
3212	63.9448
3208	63.9965
3204	63.9556
3200	63.9157
3196	63.9454
3192	63.9259
3188	63.8204
3184	63.7383
3180	63.7176
3176	63.7406
3172	63.8371
3168	63.9132
3164	63.9234
3160	63.919
3156	63.8424
3152	63.7955
3148	63.8335
3144	63.8341
3140	63.8222
3136	63.7877
3132	63.7203
3128	63.7204
3124	63.7774
3120	63.7831
3116	63.7069
3112	63.6821
3108	63.7788
3104	63.8617
3100	63.866
3096	63.9018
3092	63.9681
3088	63.9189
3084	63.826
3080	63.8652
3076	63.9723
3072	64.0266
3068	63.9803
3064	63.8828
3060	63.8098
3056	63.7837
3052	63.8261
3048	63.8465
3044	63.8433
3040	63.9044
3036	63.9623
3032	63.943
3028	63.8841
3024	63.8926
3020	64.0229
3016	64.1401
3012	64.0952
3008	63.9606
3004	63.8529
3000	63.8077
2996	63.8012
2992	63.793
2988	63.7714
2984	63.7703
2980	63.8018
2976	63.8021
2972	63.7994
2968	63.7563
2964	63.6065
2960	63.4971
2956	63.5208
2952	63.6122
2948	63.6857
2944	63.7348
2940	63.7879
2936	63.8075
2932	63.7598
2928	63.7007
2924	63.6809
2920	63.6473
2916	63.57
2912	63.5286
2908	63.5785
2904	63.6584
2900	63.7274
2896	63.7994
2892	63.8773
2888	63.905
2884	63.8484
2880	63.7819
2876	63.7961
2872	63.8901
2868	63.9631
2864	63.9006
2860	63.7794
2856	63.746
2852	63.766
2848	63.8279
2844	63.9109
2840	63.9337
2836	63.9452
2832	63.9701
2828	63.9728
2824	63.9319
2820	63.8733
2816	63.8809
2812	63.9058
2808	63.8761
2804	63.8423
2800	63.8521
2796	63.8866
2792	63.8726
2788	63.8583
2784	63.9172
2780	63.9716
2776	63.9415
2772	63.8741
2768	63.8897
2764	63.9697
2760	63.9711
2756	63.908
2752	63.9338
2748	63.9968
2744	63.938
2740	63.914
2736	64.032
2732	64.0735
2728	64.0278
2724	64.0115
2720	63.977
2716	63.9542
2712	63.967
2708	63.9619
2704	63.9952
2700	64.0476
2696	64.0461
2692	64.0355
2688	64.0189
2684	63.9794
2680	63.9621
2676	63.9456
2672	63.8813
2668	63.8516
2664	63.8892
2660	63.9499
2656	64.0057
2652	63.9728
2648	63.9306
2644	63.963
2640	63.9927
2636	63.9987
2632	63.9651
2628	63.9457
2624	63.9944
2620	64.023
2616	64.0448
2612	64.0701
2608	64.0182
2604	63.9733
2600	63.9966
2596	64.0372
2592	64.097
2588	64.12
2584	64.0824
2580	64.0398
2576	64.0191
2572	64.0221
2568	64.0439
2564	64.0522
2560	64.0112
2556	64.0042
2552	64.0322
2548	64.0123
2544	63.9949
2540	64.0044
2536	64.0384
2532	64.0736
2528	64.0618
2524	64.0435
2520	64.0555
2516	64.0798
2512	64.0699
2508	63.996
2504	63.9112
2500	63.8854
2496	63.923
2492	63.9867
2488	64.0674
2484	64.0999
2480	64.0373
2476	63.9957
2472	64.0224
2468	64.0476
2464	64.0821
2460	64.1093
2456	64.0718
2452	64.021
2448	64.009
2444	64.0115
2440	64.0141
2436	64.0106
2432	63.986
2428	63.9374
2424	63.9186
2420	63.9708
2416	64.0332
2412	64.0355
2408	63.9742
2404	63.9529
2400	64.0131
2396	64.0396
2392	64.0116
2388	64.0069
2384	64.0355
2380	64.0718
2376	64.1161
2372	64.1246
2368	64.0715
2364	64.0327
2360	64.0327
2356	64.0328
2352	64.0307
2348	64.0456
2344	64.063
2340	64.0704
2336	64.113
2332	64.1583
2328	64.1369
2324	64.0961
2320	64.0959
2316	64.1018
2312	64.0738
2308	64.0406
2304	64.0151
2300	64.0085
2296	64.0352
2292	64.0589
2288	64.0257
2284	63.9342
2280	63.9038
2276	63.9382
2272	63.9317
2268	63.9533
2264	64.044
2260	64.1141
2256	64.1279
2252	64.1302
2248	64.1481
2244	64.1378
2240	64.1175
2236	64.112
2232	64.084
2228	64.0378
2224	63.9947
2220	63.9934
2216	63.9961
2212	63.9708
2208	63.9901
2204	64.0426
2200	64.0872
2196	64.1142
2192	64.0839
2188	64.0433
2184	64.0642
2180	64.0784
2176	64.1003
2172	64.1523
2168	64.1469
2164	64.0722
2160	63.9332
2156	63.8586
2152	63.9198
2148	64.0012
2144	64.052
2140	64.0607
2136	64.0619
2132	64.1021
2128	64.1308
2124	64.113
2120	64.0922
2116	64.0658
2112	64.081
2108	64.1305
2104	64.1275
2100	64.0949
2096	64.0829
2092	64.1206
2088	64.1654
2084	64.1484
2080	64.066
2076	64.0219
2072	64.0774
2068	64.0912
2064	64.0435
2060	64.0533
2056	64.1103
2052	64.1953
2048	64.2605
2044	64.2061
2040	64.0954
2036	64.0399
2032	64.0304
2028	64.0405
2024	64.0443
2020	64.0255
2016	64.0714
2012	64.2055
2008	64.2824
2004	64.2669
2000	64.2013
1996	64.1326
1992	64.1224
1988	64.1298
1984	64.1508
1980	64.1829
1976	64.1584
1972	64.121
1968	64.1381
1964	64.1924
1960	64.2346
1956	64.1963
1952	64.1178
1948	64.0712
1944	64.0722
1940	64.0977
1936	64.0955
1932	64.0673
1928	64.0262
1924	64.0077
1920	64.0588
1916	64.1533
1912	64.195
1908	64.1653
1904	64.1501
1900	64.1603
1896	64.1362
1892	64.0655
1888	64.0142
1884	64.0111
1880	64.0603
1876	64.1231
1872	64.1286
1868	64.1362
1864	64.132
1860	64.0986
1856	64.1222
1852	64.1598
1848	64.1731
1844	64.1563
1840	64.1008
1836	64.081
1832	64.1097
1828	64.1237
1824	64.1364
1820	64.1695
1816	64.1778
1812	64.1475
1808	64.1344
1804	64.1518
1800	64.1554
1796	64.1788
1792	64.1888
1788	64.1197
1784	64.0456
1780	64.0378
1776	64.1262
1772	64.2397
1768	64.2523
1764	64.1886
1760	64.1067
1756	64.0212
1752	63.9688
1748	63.9157
1744	63.8678
1740	63.8765
1736	63.8727
1732	63.8035
1728	63.7573
1724	63.8366
1720	63.9938
1716	64.0354
1712	63.9599
1708	63.9663
1704	64.0395
1700	64.027
1696	63.9206
1692	63.8724
1688	63.9201
1684	64.0015
1680	64.1201
1676	64.1749
1672	64.0884
1668	63.9855
1664	63.9183
1660	63.9234
1656	64.0721
1652	64.1451
1648	64.0443
1644	63.9392
1640	63.8769
1636	63.8798
1632	63.9638
1628	64.0373
1624	64.0248
1620	64.0125
1616	64.021
1612	63.9705
1608	63.9671
1604	64.0431
1600	64.0571
1596	64.0476
1592	64.0661
1588	64.0304
1584	63.9829
1580	64.0147
1576	64.0634
1572	64.0463
1568	63.9592
1564	63.9127
1560	64.034
1556	64.1586
1552	64.1346
1548	64.0786
1544	64.0698
1540	64.047
1536	63.9734
1532	63.9486
1528	63.9714
1524	63.9812
1520	64.0095
1516	64.0665
1512	64.1379
1508	64.1686
1504	64.1798
1500	64.2358
1496	64.2351
1492	64.1189
1488	64.0519
1484	64.0494
1480	64.0412
1476	64.0323
1472	64.0012
1468	63.9774
1464	64.006
1460	64.0614
1456	64.0208
1452	63.8991
1448	63.8751
1444	63.9593
1440	64.0939
1436	64.1505
1432	64.0819
1428	64.0242
1424	64.0308
1420	64.0341
1416	63.9776
1412	63.9187
1408	63.8887
1404	63.8682
1400	63.8783
1396	63.8949
1392	63.8927
1388	63.8611
1384	63.7893
1380	63.7464
1376	63.7845
1372	63.8563
1368	63.9143
1364	63.9468
1360	63.9657
1356	64.0164
1352	64.0344
1348	63.9903
1344	64.0097
1340	64.0768
1336	64.0701
1332	63.9861
1328	63.9443
1324	63.9592
1320	63.9133
1316	63.8176
1312	63.7617
1308	63.7634
1304	63.8113
1300	63.8428
1296	63.8144
1292	63.8286
1288	63.8808
1284	63.8446
1280	63.7895
1276	63.7851
1272	63.7618
1268	63.7408
1264	63.7668
1260	63.7607
1256	63.6901
1252	63.6429
1248	63.6031
1244	63.5747
1240	63.6318
1236	63.6875
1232	63.6933
1228	63.7018
1224	63.7025
1220	63.6927
1216	63.6865
1212	63.6811
1208	63.6951
1204	63.7459
1200	63.7766
1196	63.7346
1192	63.7128
1188	63.7528
1184	63.7552
1180	63.7102
1176	63.7189
1172	63.7799
1168	63.7651
1164	63.6502
1160	63.5872
1156	63.6356
1152	63.7058
1148	63.7307
1144	63.7683
1140	63.8793
1136	63.8968
1132	63.8097
1128	63.8071
1124	63.8899
1120	64.0047
1116	64.0669
1112	64.0124
1108	63.8437
1104	63.7182
1100	63.8009
1096	63.962
1092	64.03
1088	63.994
1084	64.0036
1080	63.9923
1076	63.8383
1072	63.7213
1068	63.709
1064	63.7819
1060	63.8941
1056	63.963
1052	63.957
1048	63.8783
1044	63.799
1040	63.7706
1036	63.7953
1032	63.8631
1028	63.8589
1024	63.7753
1020	63.7974
1016	63.8515
1012	63.8162
1008	63.7696
1004	63.7435
1000	63.7312
996	 63.753
992	 63.8009
988	 63.847
984	 63.8566
980	 63.8071
976	 63.7661
972	 63.7776
968	 63.8174
964	 63.845
960	 63.8793
956	 63.9553
952	 64.0248
948	 64.0728
944	 64.1115
940	 64.1381
936	 64.1327
932	 64.0636
928	 63.9659
924	 63.9134
920	 63.9658
916	 64.1129
912	 64.168
908	 64.0498
904	 63.9779
900	 63.9969
896	 63.9203
892	 63.7584
888	 63.7269
884	 63.8222
880	 63.8854
876	 63.9813
872	 64.0607
868	 64.0717
864	 64.0826
860	 63.9698
856	 63.8515
852	 63.9318
848	 64.0667
844	 64.1309
840	 64.1203
836	 64.0563
832	 63.912
828	 63.732
824	 63.7413
820	 63.831
816	 63.8296
812	 63.8553
808	 63.8808
804	 63.8403
800	 63.8275
796	 63.8494
792	 63.8004
788	 63.8182
784	 63.9799
780	 64.0642
776	 64.0296
772	 63.9869
768	 63.935
764	 63.8877
760	 63.8105
756	 63.7376
752	 63.7914
748	 63.875
744	 63.8577
740	 63.7521
736	 63.6671
732	 63.7522
728	 63.9635
724	 64.0505
720	 64.0258
716	 64.0336
712	 63.9769
708	 63.887
704	 63.9022
700	 63.92
696	 63.8289
692	 63.7091
688	 63.6012
684	 63.5011
680	 63.4241
676	 63.4465
672	 63.6318
668	 63.8051
664	 63.8688
660	 63.7991
656	 63.5939
652	 63.5271
648	 63.7163
644	 63.8495
640	 63.7865
636	 63.7279
632	 63.7547
628	 63.8849
624	 64.0028
620	 63.9848
616	 63.8536
612	 63.6501
608	 63.5755
604	 63.737
600	 63.8433
596	 63.818
592	 63.843
588	 63.8127
584	 63.8971
580	 64.2822
576	 64.1759
572	 63.4831
568	 63.6649
564	 64.7238
560	 65.1929
556	 64.9927
552	 64.472
548	 63.6709
544	 63.4289
540	 64.0125
536	 64.9316
532	 65.4171
528	 64.447
524	 62.7188
520	 62.0957
516	 62.8696
512	 63.799
508	 64.289
504	 64.2021
500	 63.6175
496	 63.7041
492	 64.3208
488	 64.0069
484	 63.3381
480	 63.9198
476	 64.9945
472	 64.0703
468	 62.7366
464	 63.659
460	 64.9656
456	 64.647
452	 63.3511
448	 62.474
444	 62.7812
440	 63.6006
436	 64.2555
432	 65.0625
428	 65.8557
424	 66.2527
420	 65.8891
416	 64.3884
412	 63.5539
408	 65.1427
404	 66.0954
400	 63.9919
396	 63.0908
392	 60.1144
388	 51.2527
384	 46.6854
380	 44.0665
376	 60.2453
372	 64.9453
370	 85.573