File: Bakgrunnsmateriale/MATLAB/FTIR/ftir_data/subAa/Mapping_121/BZ1503107-1_t114.asc
PE IR       SPECTRUM    SPECTRUM    ASCII       PEDS        1.60
  -1
BZDAB2~1.ASC
17/04/07
22:39:07.00
17/04/07
22:39:33.00
tln
$BZ1503107-1_t0114$<tbV0>[5.2,13.0,8.0,0.0,27,1,0]
27.028
64

2002,4.07
MIRTGS : RIGHTBACK : INTERNAL 2
MIR : ON : INTERNAL 2
OPTKBR

0.200000
8
8.000000
FILLER
RATIO
SPECTRUM
UNLOCKED 256

DOUBLE
64
COMBINED
1
0
0

0.002000
RATIO

1
0
TRUE
51149
0
LEFT NOT FITTED RIGHT NOT FITTED 0
NONE
NONE
15600
12
4.427000
51148
TRUE
1 0 8 72 0 0 0 0

15798

#HDR
-1
-1
#GR
µM
%T
2.38419e-05
0.0
2.000000
0.002000
12515
8
80.7338
51.9574
#DATA
2.000000	 65.7937
2.018000	 65.7651
2.036000	 65.2071
2.054000	 64.6654
2.072000	 64.7475
2.090000	 64.6899
2.108000	 64.8055
2.126000	 64.796
2.144000	 65.1714
2.162000	 65.1346
2.180000	 65.0843
2.198000	 64.9112
2.216000	 64.5176
2.234000	 64.6159
2.252000	 61.1222
2.270000	 65.8751
2.288000	 65.1419
2.306000	 64.9064
2.324000	 64.5259
2.342000	 64.8268
2.360000	 64.6996
2.378000	 65.0723
2.396000	 65.0963
2.414000	 64.7531
2.432000	 64.9304
2.450000	 64.9566
2.468000	 65.1652
2.486000	 64.8547
2.504000	 64.9401
2.522000	 64.8754
2.540000	 64.8671
2.558000	 64.931
2.576000	 65.3026
2.594000	 64.9494
2.612000	 65.1569
2.630000	 65.3021
2.648000	 64.9676
2.666000	 64.8403
2.684000	 64.9945
2.702000	 65.083
2.720000	 64.959
2.738000	 65.0466
2.756000	 65.1073
2.774000	 65.1827
2.792000	 64.8872
2.810000	 64.9565
2.828000	 64.8578
2.846000	 64.9797
2.864000	 64.9875
2.882000	 65.1307
2.900000	 64.9108
2.918000	 65.041
2.936000	 64.8625
2.954000	 64.868
2.972000	 64.8472
2.990000	 64.9384
3.008000	 64.7521
3.026000	 64.7413
3.044000	 64.7675
3.062000	 64.8632
3.080000	 64.753
3.098000	 64.7258
3.116000	 64.9555
3.134000	 64.944
3.152000	 64.816
3.170000	 64.9366
3.188000	 64.937
3.206000	 64.8667
3.224000	 64.728
3.242000	 64.8133
3.260000	 64.8507
3.278000	 64.7846
3.296000	 64.8227
3.314000	 64.6779
3.332000	 64.7785
3.350000	 64.724
3.368000	 64.6948
3.386000	 64.6089
3.404000	 64.5184
3.422000	 64.4394
3.440000	 64.4095
3.458000	 64.7108
3.476000	 64.599
3.494000	 64.4717
3.512000	 64.6376
3.530000	 64.5876
3.548000	 64.5754
3.566000	 64.5908
3.584000	 64.6231
3.602000	 64.6944
3.620000	 64.6602
3.638000	 64.543
3.656000	 64.7608
3.674000	 64.5771
3.692000	 64.5676
3.710000	 64.4943
3.728000	 64.5603
3.746000	 64.5172
3.764000	 64.5802
3.782000	 64.5737
3.800000	 64.5326
3.818000	 64.5724
3.836000	 64.5137
3.854000	 64.5436
3.872000	 64.3642
3.890000	 64.4835
3.908000	 64.4752
3.926000	 64.4134
3.944000	 64.4302
3.962000	 64.4068
3.980000	 64.511
3.998000	 64.4497
4.016000	 64.437
4.034000	 64.382
4.052000	 64.4511
4.070000	 64.4072
4.088000	 64.3679
4.106000	 64.3601
4.124000	 64.3147
4.141999	 64.2522
4.160000	 64.4094
4.178000	 64.4252
4.196000	 64.3834
4.214000	 64.3879
4.232000	 64.3828
4.250000	 64.3799
4.268000	 64.3085
4.286000	 64.3846
4.304000	 64.3051
4.322000	 64.2229
4.340000	 64.2649
4.358000	 64.2299
4.375999	 64.2381
4.394000	 64.2606
4.412000	 64.3297
4.430000	 64.3188
4.448000	 64.2124
4.466000	 64.2165
4.484000	 64.2671
4.502000	 64.2602
4.520000	 64.2267
4.538000	 64.2113
4.556000	 64.2179
4.574000	 64.1615
4.592000	 64.3457
4.609999	 64.1928
4.628000	 64.1755
4.646000	 64.171
4.664000	 64.1096
4.682000	 64.2434
4.700000	 64.153
4.718000	 64.2098
4.736000	 64.2211
4.754000	 64.0756
4.772000	 64.08
4.790000	 64.1987
4.808000	 64.1469
4.826000	 64.0146
4.843999	 64.0611
4.862000	 64.1192
4.880000	 63.9782
4.898000	 63.9678
4.916000	 64.0423
4.934000	 63.9776
4.952000	 63.9176
4.970000	 63.9088
4.988000	 63.9735
5.006000	 63.9011
5.024000	 63.8966
5.042000	 63.835
5.060000	 63.8482
5.077999	 63.8785
5.096000	 63.8633
5.114000	 63.8782
5.132000	 63.9763
5.150000	 63.9688
5.168000	 64.0163
5.186000	 63.9195
5.204000	 63.946
5.222000	 63.882
5.240000	 63.8748
5.258000	 63.8829
5.276000	 63.8215
5.294000	 63.8687
5.312000	 63.8615
5.330000	 63.8694
5.348000	 63.8475
5.366000	 63.8689
5.384000	 63.8296
5.402000	 63.7714
5.420000	 63.6853
5.438000	 63.7425
5.456000	 63.882
5.474000	 63.8483
5.492000	 63.7666
5.510000	 63.7161
5.528000	 63.8107
5.546000	 63.8381
5.564000	 63.7556
5.582000	 63.7328
5.600000	 63.7581
5.618000	 63.7702
5.636000	 63.6707
5.654000	 63.65
5.672000	 63.6784
5.690000	 63.7068
5.708000	 63.6361
5.726000	 63.5752
5.744000	 63.5023
5.762000	 63.4461
5.780000	 63.4312
5.798000	 63.4701
5.816000	 63.5274
5.834000	 63.5501
5.852000	 63.624
5.870000	 63.6016
5.888000	 63.5943
5.906000	 63.5981
5.923999	 63.626
5.942000	 63.6374
5.960000	 63.5678
5.978000	 63.5979
5.996000	 63.6266
6.014000	 63.6355
6.032000	 63.6073
6.050000	 63.532
6.068000	 63.4614
6.086000	 63.4685
6.104000	 63.5071
6.122000	 63.5132
6.140000	 63.4691
6.158000	 63.4236
6.176000	 63.4354
6.194000	 63.4442
6.212000	 63.3403
6.230000	 63.2982
6.248000	 63.3781
6.266000	 63.4132
6.284000	 63.425
6.302000	 63.4271
6.320000	 63.4071
6.338000	 63.3943
6.356000	 63.3859
6.374000	 63.4258
6.392000	 63.4467
6.410000	 63.3997
6.428000	 63.3868
6.446000	 63.3457
6.464000	 63.2775
6.482000	 63.3187
6.500000	 63.3621
6.518000	 63.3013
6.536000	 63.2459
6.554000	 63.2759
6.572000	 63.3687
6.590000	 63.4521
6.608000	 63.4539
6.626000	 63.4537
6.644000	 63.5115
6.662000	 63.5123
6.680000	 63.4356
6.698000	 63.4084
6.716000	 63.3903
6.734000	 63.3124
6.752000	 63.2742
6.770000	 63.2989
6.788000	 63.3136
6.806000	 63.2755
6.824000	 63.2386
6.842000	 63.2209
6.860000	 63.183
6.878000	 63.178
6.896000	 63.2006
6.914000	 63.2041
6.932000	 63.2071
6.950000	 63.1808
6.968000	 63.1612
6.986000	 63.2128
7.004000	 63.2205
7.022000	 63.1219
7.040000	 63.0831
7.058000	 63.159
7.076000	 63.2004
7.094000	 63.1714
7.112000	 63.1581
7.130000	 63.1467
7.148000	 63.0955
7.166000	 63.0595
7.184000	 63.0719
7.202000	 63.0769
7.220000	 63.0416
7.238000	 63.005
7.256000	 62.9949
7.274000	 62.9842
7.292000	 62.9648
7.310000	 62.9787
7.328000	 63.0381
7.346000	 63.0859
7.364000	 63.0855
7.382000	 63.0871
7.400000	 63.1315
7.418000	 63.1663
7.436000	 63.1393
7.454000	 63.0831
7.472000	 63.0583
7.490000	 63.0892
7.508000	 63.1499
7.526000	 63.1798
7.544000	 63.1438
7.562000	 63.0622
7.580000	 62.9923
7.598000	 62.9803
7.616000	 62.9969
7.634000	 62.9656
7.652000	 62.8943
7.670000	 62.8785
7.688000	 62.9543
7.706000	 63.0411
7.724000	 63.0465
7.742000	 62.986
7.760000	 62.9487
7.778000	 62.9652
7.796000	 62.9818
7.814000	 62.9637
7.832000	 62.9364
7.850000	 62.9278
7.868000	 62.93
7.886000	 62.9103
7.904000	 62.8575
7.922000	 62.8068
7.940000	 62.7934
7.958000	 62.7977
7.976000	 62.7834
7.994000	 62.76
8.012000	 62.7587
8.030000	 62.7749
8.048000	 62.7692
8.065999	 62.7305
8.084000	 62.7022
8.102000	 62.725
8.120000	 62.7778
8.138000	 62.8094
8.155999	 62.8036
8.173999	 62.7882
8.192000	 62.791
8.210000	 62.8172
8.228000	 62.855
8.246000	 62.8777
8.263999	 62.855
8.282000	 62.7903
8.300000	 62.727
8.318000	 62.7016
8.336000	 62.7085
8.353999	 62.7206
8.372000	 62.7244
8.390000	 62.726
8.408000	 62.7306
8.426000	 62.7344
8.443999	 62.7327
8.462000	 62.7301
8.480000	 62.7324
8.498000	 62.732
8.516000	 62.714
8.533999	 62.678
8.552000	 62.6449
8.570000	 62.6403
8.588000	 62.6724
8.606000	 62.7248
8.624000	 62.7623
8.641999	 62.7495
8.660000	 62.6814
8.678000	 62.5981
8.696000	 62.5567
8.714000	 62.5833
8.731999	 62.6558
8.750000	 62.7265
8.768000	 62.7607
8.786000	 62.755
8.804000	 62.7333
8.821999	 62.724
8.840000	 62.737
8.858000	 62.7574
8.876000	 62.7609
8.894000	 62.7345
8.911999	 62.6863
8.930000	 62.6394
8.948000	 62.617
8.966000	 62.6262
8.984000	 62.6514
9.001999	 62.6662
9.020000	 62.6621
9.038000	 62.6559
9.056000	 62.6676
9.074000	 62.6951
9.092000	 62.7185
9.109999	 62.7189
9.128000	 62.6916
9.146000	 62.6452
9.164000	 62.5978
9.182000	 62.5711
9.199999	 62.5808
9.218000	 62.6235
9.236000	 62.6725
9.254000	 62.6932
9.272000	 62.6698
9.289999	 62.6196
9.308000	 62.58
9.326000	 62.5795
9.344000	 62.6183
9.362000	 62.6716
9.379999	 62.711
9.398000	 62.7228
9.416000	 62.7142
9.434000	 62.7036
9.452000	 62.7054
9.469999	 62.7208
9.488000	 62.7411
9.506000	 62.7591
9.524000	 62.7763
9.542000	 62.7981
9.560000	 62.8212
9.577999	 62.8274
9.596000	 62.7979
9.614000	 62.7322
9.632000	 62.6553
9.650000	 62.6019
9.667999	 62.5902
9.686000	 62.609
9.704000	 62.6296
9.722000	 62.6294
9.740000	 62.6055
9.757999	 62.5698
9.776000	 62.5334
9.794000	 62.5002
9.812000	 62.4722
9.830000	 62.4569
9.847999	 62.4648
9.866000	 62.5017
9.884000	 62.561
9.902000	 62.6264
9.920000	 62.6802
9.937999	 62.7124
9.956000	 62.7218
9.974000	 62.712
9.992000	 62.6855
10.01	62.6439
10.028	62.5907
10.046	62.5345
10.064	62.4878
10.082	62.4622
10.1	62.4632
10.118	62.4875
10.136	62.5247
10.154	62.5626
10.172	62.5902
10.19	62.601
10.208	62.5953
10.226	62.5794
10.244	62.5635
10.262	62.5572
10.28	62.5647
10.298	62.5817
10.316	62.597
10.334	62.5983
10.352	62.5785
10.37	62.5396
10.388	62.4922
10.406	62.4502
10.424	62.4264
10.442	62.4266
10.46	62.4471
10.478	62.4757
10.496	62.498
10.514	62.5053
10.532	62.4994
10.55	62.4898
10.568	62.4878
10.586	62.499
10.604	62.5205
10.622	62.5432
10.64	62.559
10.658	62.5651
10.676	62.566
10.694	62.5692
10.712	62.5815
10.73	62.6031
10.748	62.6288
10.766	62.6493
10.784	62.6569
10.802	62.6511
10.82	62.6396
10.838	62.6362
10.856	62.651
10.874	62.6847
10.892	62.726
10.91	62.7559
10.928	62.7588
10.946	62.7301
10.964	62.679
10.982	62.6232
11	62.5794
11.018	62.556
11.036	62.5497
11.054	62.55
11.072	62.5452
11.09	62.5276
11.108	62.4961
11.126	62.4558
11.144	62.4156
11.162	62.3874
11.18	62.3818
11.198	62.4068
11.216	62.4629
11.234	62.5412
11.252	62.6241
11.27	62.6914
11.288	62.7252
11.306	62.7189
11.324	62.6784
11.342	62.6186
11.36	62.557
11.378	62.5069
11.396	62.4733
11.414	62.4544
11.432	62.4455
11.45	62.4434
11.468	62.4472
11.486	62.4573
11.504	62.4722
11.522	62.4869
11.54	62.4949
11.558	62.4909
11.576	62.4744
11.594	62.4508
11.612	62.4308
11.63	62.4266
11.648	62.4458
11.666	62.4893
11.684	62.5485
11.702	62.609
11.72	62.6533
11.738	62.6675
11.756	62.6463
11.774	62.5937
11.792	62.5213
11.81	62.4436
11.828	62.374
11.846	62.3211
11.864	62.2871
11.882	62.2697
11.9	62.2648
11.918	62.2691
11.936	62.2822
11.954	62.3058
11.972	62.3425
11.99	62.3919
12.008	62.4505
12.026	62.5106
12.044	62.5618
12.062	62.5943
12.08	62.6018
12.098	62.5839
12.116	62.547
12.134	62.5027
12.152	62.4645
12.17	62.4431
12.188	62.444
12.206	62.4656
12.224	62.4997
12.242	62.5355
12.26	62.5626
12.278	62.574
12.296	62.567
12.314	62.5437
12.332	62.5088
12.35	62.4682
12.368	62.4276
12.386	62.3906
12.404	62.3597
12.422	62.3358
12.44	62.3193
12.458	62.3101
12.476	62.3086
12.494	62.315
12.512	62.3291
12.53	62.3499
12.548	62.376
12.566	62.4046
12.584	62.4328
12.602	62.4577
12.62	62.4769
12.638	62.489
12.656	62.4933
12.674	62.4903
12.692	62.4804
12.71	62.4645
12.728	62.4423
12.746	62.4132
12.764	62.3757
12.782	62.3291
12.8	62.2731
12.818	62.2097
12.836	62.1421
12.854	62.0758
12.872	62.0167
12.89	61.9713
12.908	61.944
12.926	61.9373
12.944	61.9503
12.962	61.9794
12.98	62.0192
12.998	62.0635
13.016	62.1065
13.034	62.1444
13.052	62.1754
13.07	62.1994
13.088	62.2178
13.106	62.2323
13.124	62.2437
13.142	62.2517
13.16	62.2548
13.178	62.2511
13.196	62.2393
13.214	62.2197
13.232	62.1948
13.25	62.1688
13.268	62.1475
13.286	62.136
13.304	62.1377
13.322	62.153
13.34	62.1789
13.358	62.2091
13.376	62.2363
13.394	62.2532
13.412	62.255
13.43	62.2404
13.448	62.2121
13.466	62.1763
13.484	62.1404
13.502	62.1113
13.52	62.0938
13.538	62.089
13.556	62.0949
13.574	62.1078
13.592	62.1231
13.61	62.1373
13.628	62.148
13.646	62.1551
13.664	62.1596
13.682	62.1629
13.7	62.1659
13.718	62.1682
13.736	62.1684
13.754	62.1641
13.772	62.1529
13.79	62.133
13.808	62.1041
13.826	62.0681
13.844	62.0281
13.862	61.9885
13.88	61.9534
13.898	61.9267
13.916	61.9106
13.934	61.9059
13.952	61.9112
13.97	61.924
13.988	61.9406
14.006	61.957
14.024	61.9692
14.042	61.974
14.06	61.9694
14.078	61.9544
14.096	61.9288
14.114	61.8939
14.132	61.8518
14.15	61.8053
14.168	61.7576
14.186	61.7121
14.204	61.6719
14.222	61.6396
14.24	61.6167
14.258	61.604
14.276	61.6014
14.294	61.6085
14.312	61.6249
14.33	61.6503
14.348	61.6847
14.366	61.728
14.384	61.7798
14.402	61.8388
14.42	61.9025
14.438	61.9671
14.456	62.0275
14.474	62.0787
14.492	62.1158
14.51	62.1353
14.528	62.1357
14.546	62.1187
14.564	62.0883
14.582	62.0504
14.6	62.0119
14.618	61.9799
14.636	61.9603
14.654	61.9561
14.672	61.9678
14.69	61.9935
14.708	62.0294
14.726	62.0707
14.744	62.1117
14.762	62.1487
14.78	62.1797
14.798	62.204
14.816	62.2221
14.834	62.2357
14.852	62.247
14.87	62.2572
14.888	62.2666
14.906	62.2742
14.924	62.2781
14.942	62.2756
14.96	62.2631
14.978	62.2383
14.996	62.1994
15.014	62.1451
15.032	62.0761
15.05	61.9939
15.068	61.9009
15.086	61.8
15.104	61.6939
15.122	61.5855
15.14	61.478
15.158	61.3748
15.176	61.2793
15.194	61.1952
15.212	61.126
15.23	61.075
15.248	61.045
15.266	61.0383
15.284	61.0556
15.302	61.0957
15.32	61.1561
15.338	61.2332
15.356	61.322
15.374	61.4161
15.392	61.5103
15.41	61.5998
15.428	61.6795
15.446	61.7458
15.464	61.7972
15.482	61.8331
15.5	61.8542
15.518	61.863
15.536	61.8624
15.554	61.8554
15.572	61.8457
15.59	61.8367
15.608	61.8306
15.626	61.8291
15.644	61.8327
15.662	61.8411
15.68	61.8521
15.698	61.8631
15.716	61.8701
15.734	61.8676
15.752	61.8516
15.77	61.8177
15.788	61.7607
15.806	61.6781
15.824	61.5687
15.842	61.4323
15.86	61.2733
15.878	61.0967
15.896	60.9084
15.914	60.7193
15.932	60.5393
15.95	60.3773
15.968	60.2438
15.986	60.1486
16.004	60.0965
16.022	60.0921
16.04	60.1364
16.058	60.2257
16.076	60.3563
16.094	60.5193
16.112	60.7039
16.13	60.9011
16.148	61.0986
16.166	61.2839
16.184	61.4496
16.202	61.5875
16.22	61.6913
16.238	61.7596
16.256	61.7909
16.274	61.7875
16.292	61.7528
16.31	61.69
16.328	61.6061
16.346	61.5063
16.364	61.3953
16.382	61.2805
16.4	61.1671
16.418	61.0595
16.436	60.9639
16.454	60.8843
16.472	60.8235
16.49	60.7854
16.508	60.7709
16.526	60.7805
16.544	60.8133
16.562	60.8663
16.58	60.9374
16.598	61.0204
16.616	61.1105
16.634	61.2035
16.652	61.292
16.67	61.3726
16.688	61.4414
16.706	61.4941
16.724	61.5295
16.742	61.5462
16.76	61.5452
16.778	61.5276
16.796	61.4964
16.814	61.4553
16.832	61.4066
16.85	61.3557
16.868	61.3061
16.886	61.2607
16.904	61.2241
16.922	61.1979
16.94	61.1847
16.958	61.1852
16.976	61.1993
16.994	61.2267
17.012	61.2651
17.03	61.3127
17.048	61.3654
17.066	61.4202
17.084	61.4731
17.102	61.5186
17.12	61.5544
17.138	61.575
17.156	61.5784
17.174	61.5623
17.192	61.5256
17.21	61.4685
17.228	61.3922
17.246	61.3
17.264	61.1936
17.282	61.0796
17.3	60.9607
17.318	60.8432
17.336	60.7325
17.354	60.6321
17.372	60.5486
17.39	60.4838
17.408	60.4419
17.426	60.424
17.444	60.4314
17.462	60.4632
17.48	60.5186
17.498	60.5946
17.516	60.6878
17.534	60.7957
17.552	60.9113
17.57	61.0325
17.588	61.1525
17.606	61.2689
17.624	61.3769
17.642	61.4741
17.66	61.5591
17.678	61.6299
17.696	61.6867
17.714	61.7298
17.732	61.7609
17.75	61.7813
17.768	61.7939
17.786	61.8
17.804	61.8033
17.822	61.8045
17.84	61.806
17.858	61.8084
17.876	61.8128
17.894	61.8188
17.912	61.8263
17.93	61.834
17.948	61.8416
17.966	61.8467
17.984	61.8489
18.002	61.8466
18.02	61.8391
18.038	61.8255
18.056	61.8057
18.074	61.7795
18.092	61.7482
18.11	61.7119
18.128	61.6731
18.146	61.6324
18.164	61.5924
18.182	61.5544
18.2	61.5204
18.218	61.4921
18.236	61.4705
18.254	61.4569
18.272	61.4519
18.29	61.4559
18.308	61.4689
18.326	61.4901
18.344	61.5193
18.362	61.5547
18.38	61.5953
18.398	61.6388
18.416	61.6839
18.434	61.7287
18.452	61.771
18.47	61.8094
18.488	61.8415
18.506	61.8665
18.524	61.8821
18.542	61.8879
18.56	61.8825
18.578	61.8655
18.596	61.8369
18.614	61.7965
18.632	61.746
18.65	61.6854
18.668	61.6173
18.686	61.5422
18.704	61.4635
18.722	61.3816
18.74	61.2998
18.758	61.2187
18.776	61.1412
18.794	61.0676
18.812	60.9998
18.83	60.9376
18.848	60.882
18.866	60.8324
18.884	60.7888
18.902	60.7504
18.92	60.7163
18.938	60.6856
18.956	60.6572
18.974	60.6305
18.992	60.6044
19.01	60.5785
19.028	60.5518
19.046	60.5245
19.064	60.4961
19.082	60.4669
19.1	60.437
19.118	60.4068
19.136	60.377
19.154	60.3481
19.172	60.3209
19.19	60.2959
19.208	60.2746
19.226	60.257
19.244	60.2444
19.262	60.2368
19.28	60.2356
19.298	60.2406
19.316	60.2526
19.334	60.2717
19.352	60.2979
19.37	60.3313
19.388	60.3713
19.406	60.4181
19.424	60.4701
19.442	60.5275
19.46	60.5881
19.478	60.6519
19.496	60.7164
19.514	60.7811
19.532	60.8438
19.55	60.9031
19.568	60.9579
19.586	61.0063
19.604	61.048
19.622	61.0814
19.64	61.1069
19.658	61.1238
19.676	61.1324
19.694	61.1336
19.712	61.1273
19.73	61.1158
19.748	61.0989
19.766	61.0791
19.784	61.0565
19.802	61.0332
19.82	61.0101
19.838	60.9879
19.856	60.9683
19.874	60.9512
19.892	60.9378
19.91	60.9281
19.928	60.9225
19.946	60.921
19.964	60.9237
19.982	60.9305
20	60.9413
20.018	60.9561
20.036	60.9745
20.054	60.9961
20.072	61.0208
20.09	61.0478
20.108	61.0772
20.126	61.1076
20.144	61.1394
20.162	61.1711
20.18	61.2027
20.198	61.2333
20.216	61.2619
20.234	61.2886
20.252	61.3121
20.27	61.3325
20.288	61.3489
20.306	61.3611
20.324	61.3691
20.342	61.3725
20.36	61.3713
20.378	61.3657
20.396	61.3557
20.414	61.3419
20.432	61.324
20.45	61.3031
20.468	61.2793
20.486	61.2531
20.504	61.2254
20.522	61.196
20.54	61.1665
20.558	61.1367
20.576	61.1076
20.594	61.0794
20.612	61.0526
20.63	61.0279
20.648	61.0051
20.666	60.9849
20.684	60.9671
20.702	60.9519
20.72	60.9392
20.738	60.9289
20.756	60.9207
20.774	60.9147
20.792	60.9101
20.81	60.9069
20.828	60.9047
20.846	60.903
20.864	60.9018
20.882	60.9005
20.9	60.8992
20.918	60.8975
20.936	60.8952
20.954	60.8925
20.972	60.8889
20.99	60.8845
21.008	60.8793
21.026	60.8732
21.044	60.8663
21.062	60.8587
21.08	60.8504
21.098	60.8415
21.116	60.8319
21.134	60.8215
21.152	60.8105
21.17	60.7987
21.188	60.7861
21.206	60.7725
21.224	60.758
21.242	60.7423
21.26	60.7255
21.278	60.7076
21.296	60.6884
21.314	60.6682
21.332	60.6471
21.35	60.6249
21.368	60.6024
21.386	60.5795
21.404	60.5566
21.422	60.5342
21.44	60.5123
21.458	60.4916
21.476	60.4726
21.494	60.4552
21.512	60.4402
21.53	60.4276
21.548	60.4174
21.566	60.4096
21.584	60.4042
21.602	60.4007
21.62	60.3993
21.638	60.3994
21.656	60.3999
21.674	60.4013
21.692	60.4025
21.71	60.4033
21.728	60.4035
21.746	60.4024
21.764	60.3999
21.782	60.3963
21.8	60.3912
21.818	60.3849
21.836	60.3781
21.854	60.3706
21.872	60.3631
21.89	60.3569
21.908	60.3512
21.926	60.3478
21.944	60.3474
21.962	60.3497
21.98	60.3559
21.998	60.3663
22.016	60.3807
22.034	60.3994
22.052	60.4227
22.07	60.4494
22.088	60.4793
22.106	60.5124
22.124	60.5463
22.142	60.581
22.16	60.616
22.178	60.6479
22.196	60.6778
22.214	60.7038
22.232	60.7235
22.25	60.7379
22.268	60.7452
22.286	60.7442
22.304	60.7355
22.322	60.7184
22.34	60.6926
22.358	60.6586
22.376	60.6176
22.394	60.5686
22.412	60.5135
22.43	60.4544
22.448	60.3899
22.466	60.323
22.484	60.2557
22.502	60.1868
22.52	60.1197
22.538	60.0559
22.556	59.9945
22.574	59.9386
22.592	59.8884
22.61	59.8439
22.628	59.8068
22.646	59.777
22.664	59.7546
22.682	59.7404
22.7	59.7343
22.718	59.7361
22.736	59.7458
22.754	59.7635
22.772	59.7887
22.79	59.8209
22.808	59.8605
22.826	59.9065
22.844	59.9583
22.862	60.0162
22.88	60.0792
22.898	60.1469
22.916	60.2195
22.934	60.2955
22.952	60.3745
22.97	60.4569
22.988	60.5402
23.006	60.6246
23.024	60.71
23.042	60.7935
23.06	60.8755
23.078	60.9556
23.096	61.0305
23.114	61.1006
23.132	61.1654
23.15	61.2219
23.168	61.2705
23.186	61.3108
23.204	61.3406
23.222	61.3597
23.24	61.3685
23.258	61.366
23.276	61.3518
23.294	61.3266
23.312	61.2909
23.33	61.244
23.348	61.187
23.366	61.1223
23.384	61.0491
23.402	60.9683
23.42	60.8845
23.438	60.7968
23.456	60.7059
23.474	60.6165
23.492	60.5288
23.51	60.4425
23.528	60.3621
23.546	60.2885
23.564	60.2206
23.582	60.1615
23.6	60.1123
23.618	60.072
23.636	60.0416
23.654	60.022
23.672	60.0128
23.69	60.0127
23.708	60.0213
23.726	60.0394
23.744	60.0641
23.762	60.093
23.78	60.1282
23.798	60.1666
23.816	60.2045
23.834	60.244
23.852	60.2831
23.87	60.3182
23.888	60.3506
23.906	60.3794
23.924	60.4012
23.942	60.416
23.96	60.4244
23.978	60.4241
23.996	60.4141
24.014	60.3954
24.032	60.3677
24.05	60.3304
24.068	60.2835
24.086	60.2281
24.104	60.1651
24.122	60.0936
24.14	60.0149
24.158	59.931
24.176	59.8411
24.194	59.7458
24.212	59.6475
24.23	59.5463
24.248	59.4418
24.266	59.3362
24.284	59.2307
24.302	59.1243
24.32	59.0184
24.338	58.9146
24.356	58.8124
24.374	58.7118
24.392	58.6133
24.41	58.5169
24.428	58.4224
24.446	58.33
24.464	58.2397
24.482	58.1515
24.5	58.0655
24.518	57.9814
24.536	57.8991
24.554	57.8191
24.572	57.7426
24.59	57.6686
24.608	57.5976
24.626	57.5318
24.644	57.4714
24.662	57.4155
24.68	57.3665
24.698	57.327
24.716	57.2951
24.734	57.2722
24.752	57.2612
24.77	57.2621
24.788	57.274
24.806	57.2992
24.824	57.3392
24.842	57.3928
24.86	57.4604
24.878	57.5427
24.896	57.6403
24.914	57.7522
24.932	57.8769
24.95	58.0143
24.968	58.1658
24.986	58.3275
25.004	58.4952
25.022	58.6719
25.04	58.8556
25.058	59.0409
25.076	59.226
25.094	59.4141
25.112	59.5999
25.13	59.7777
25.148	59.9502
25.166	60.1167
25.184	60.2732
25.202	60.418
25.22	60.5531
25.238	60.6773
25.256	60.789
25.274	60.8866
25.292	60.9725
25.31	61.0503
25.328	61.1207
25.346	61.1803
25.364	61.2359
25.382	61.2952
25.4	61.355
25.418	61.4155
25.436	61.4853
25.454	61.5708
25.472	61.6659
25.49	61.7749
25.508	61.9045
25.526	62.0564
25.544	62.2272
25.562	62.4202
25.58	62.6388
25.598	62.8829
25.616	63.1507
25.634	63.441
25.652	63.7541
25.67	64.0925
25.688	64.4503
25.706	64.8208
25.724	65.206
25.742	65.6075
25.76	66.0155
25.778	66.4207
25.796	66.8309
25.814	67.242
25.832	67.6429
25.85	68.0267
25.868	68.402
25.886	68.7622
25.904	69.0988
25.922	69.4087
25.94	69.6968
25.958	69.9608
25.976	70.1982
25.994	70.4074
26.012	70.5907
26.03	70.7514
26.048	70.892
26.066	71.0075
26.084	71.1026
26.102	71.1849
26.12	71.2588
26.138	71.3173
26.156	71.3671
26.174	71.4164
26.192	71.4671
26.21	71.5134
26.228	71.5632
26.246	71.6249
26.264	71.6993
26.282	71.7827
26.3	71.8778
26.318	71.9877
26.336	72.1144
26.354	72.2553
26.372	72.4058
26.39	72.5623
26.408	72.7313
26.426	72.9082
26.444	73.0831
26.462	73.2485
26.48	73.4157
26.498	73.5766
26.516	73.7167
26.534	73.8259
26.552	73.9165
26.57	73.9815
26.588	74.0099
26.606	73.9936
26.624	73.9395
26.642	73.8473
26.66	73.7156
26.678	73.5419
26.696	73.3249
26.714	73.0707
26.732	72.7858
26.75	72.4702
26.768	72.1148
26.786	71.735
26.804	71.3475
26.822	70.9591
26.84	70.555
26.858	70.1486
26.876	69.7556
26.894	69.3832
26.912	69.0187
26.93	68.6707
26.948	68.3491
26.966	68.0546
26.984	67.7721
27.002	67.5235
27.02	67.3331
27.028	67.2799