File: Bakgrunnsmateriale/MATLAB/FTIR/ftir_data/subAa/Mapping_121/BZ1503107-1_t82_cm-1.asc
PE IR       SPECTRUM    SPECTRUM    ASCII       PEDS        1.60
  -1
BZ6A26~1.ASC
17/04/07
19:57:57.00
17/04/07
19:57:57.00
tln
$BZ1503107-1_t0082$<tbV0>[2.6,5.2,8.0,0.0,27,1,0]
370
64

2002,4.07
MIRTGS : RIGHTBACK : INTERNAL 2
MIR : ON : INTERNAL 2
OPTKBR

0.200000
8
8.000000
FILLER
RATIO
SPECTRUM
UNLOCKED 256

DOUBLE
64
COMBINED
1
0
0

1.000000
RATIO

1
0
TRUE
51149
0
LEFT NOT FITTED RIGHT NOT FITTED 0
NONE
NONE
15600
12
4.427000
51148
TRUE
1 0 8 72 0 0 0 0

15798

#HDR
-1
-1
#GR
CM-1
%T
2.38419e-05
0.0
5000
-1.000000
4631
8
81.802
51.2605
#DATA
5000	66.2346
4996	65.1449
4992	64.3054
4988	64.513
4984	65.0765
4980	65.8088
4976	65.7258
4972	64.8009
4968	64.288
4964	64.3897
4960	65.1687
4956	65.8841
4952	64.9375
4948	63.8249
4944	64.6512
4940	65.7186
4936	65.5244
4932	64.9712
4928	64.4589
4924	64.3841
4920	64.9499
4916	65.2464
4912	64.9543
4908	64.6523
4904	64.5394
4900	64.2636
4896	64.0965
4892	64.269
4888	64.3925
4884	64.2837
4880	64.1711
4876	64.3768
4872	64.8994
4868	65.3301
4864	65.1905
4860	64.6438
4856	64.3832
4852	64.5442
4848	64.6449
4844	64.577
4840	64.5612
4836	64.8578
4832	65.1187
4828	64.8842
4824	64.5882
4820	64.5431
4816	64.658
4812	64.6719
4808	64.4646
4804	64.3685
4800	64.4786
4796	64.4759
4792	64.5361
4788	64.9098
4784	65.1711
4780	65.1159
4776	65.0019
4772	64.9884
4768	65.1093
4764	65.2041
4760	65.0087
4756	64.6647
4752	64.5812
4748	64.7321
4744	64.8674
4740	64.8736
4736	64.7048
4732	64.6609
4728	64.9227
4724	65.1543
4720	65.1033
4716	64.9473
4712	64.847
4708	64.8106
4704	64.8593
4700	64.9334
4696	64.9062
4692	64.765
4688	64.7225
4684	64.8003
4680	64.7433
4676	64.5764
4672	64.5841
4668	64.8419
4664	65.1621
4660	65.2714
4656	65.0621
4652	64.7922
4648	64.7011
4644	64.688
4640	64.6172
4636	64.5799
4632	64.7452
4628	65.0701
4624	65.1714
4620	64.908
4616	64.6812
4612	64.6427
4608	64.5712
4604	64.4502
4600	64.3718
4596	64.4919
4592	64.7454
4588	64.7974
4584	64.7235
4580	64.6549
4576	64.558
4572	64.4496
4568	64.3498
4564	64.4421
4560	64.6791
4556	64.7098
4552	64.548
4548	64.4616
4544	64.3977
4540	64.3387
4536	64.4287
4532	64.4409
4528	64.3205
4524	64.3077
4520	64.3604
4516	64.4795
4512	64.5041
4508	64.4944
4504	64.6693
4500	64.9302
4496	64.9721
4492	64.665
4488	64.2591
4484	64.0149
4480	64.1509
4476	64.4101
4472	64.42
4468	64.3909
4464	64.4001
4460	64.4546
4456	64.2912
4452	63.6492
4448	63.9276
4444	66.9161
4440	72.4674
4436	77.785
4432	81.7158
4428	77.9631
4424	67.5035
4420	64.0326
4416	67.1919
4412	68.4645
4408	66.2973
4404	64.2069
4400	63.6284
4396	63.9239
4392	63.9433
4388	63.8928
4384	63.9732
4380	64.0484
4376	63.9494
4372	63.9044
4368	64.2151
4364	64.6134
4360	64.9022
4356	64.9192
4352	64.8273
4348	64.8501
4344	64.8523
4340	64.8336
4336	64.9172
4332	64.9014
4328	64.6895
4324	64.678
4320	64.7495
4316	64.5503
4312	64.4375
4308	64.5555
4304	64.6518
4300	64.7492
4296	64.8034
4292	64.8364
4288	64.9475
4284	64.9338
4280	64.8689
4276	64.8745
4272	64.8655
4268	64.9148
4264	64.9583
4260	64.9716
4256	64.9803
4252	64.8665
4248	64.7725
4244	64.7927
4240	64.749
4236	64.6694
4232	64.6801
4228	64.788
4224	64.9482
4220	64.9756
4216	64.8577
4212	64.8049
4208	64.9531
4204	65.1648
4200	65.1657
4196	64.9674
4192	64.6788
4188	64.4987
4184	64.7166
4180	65.13
4176	65.1394
4172	64.91
4168	64.9934
4164	65.0974
4160	64.999
4156	64.874
4152	64.7502
4148	64.6805
4144	64.6295
4140	64.6735
4136	64.8952
4132	65.149
4128	65.2514
4124	65.1627
4120	65.1101
4116	65.1148
4112	65.0741
4108	65.0025
4104	64.9432
4100	65.0162
4096	65.135
4092	65.1179
4088	65.065
4084	65.0926
4080	65.1469
4076	65.1807
4072	65.1625
4068	65.115
4064	65.1432
4060	65.1814
4056	65.2081
4052	65.2869
4048	65.2887
4044	65.1817
4040	65.1002
4036	65.1
4032	65.1613
4028	65.206
4024	65.1356
4020	64.9561
4016	64.7996
4012	64.7892
4008	64.9327
4004	65.13
4000	65.1416
3996	64.9101
3992	64.8093
3988	64.9985
3984	65.1429
3980	65.0062
3976	64.8209
3972	64.8492
3968	64.9066
3964	64.9211
3960	64.9592
3956	64.8579
3952	64.7848
3948	64.8068
3944	64.804
3940	64.9534
3936	65.0626
3932	64.9376
3928	64.7694
3924	64.695
3920	64.745
3916	64.8271
3912	64.8478
3908	64.884
3904	65.0218
3900	65.1182
3896	65.0705
3892	65.0068
3888	64.9761
3884	64.9017
3880	64.9038
3876	65.0362
3872	65.0808
3868	64.9287
3864	64.7511
3860	64.7749
3856	64.8741
3852	64.858
3848	64.8262
3844	64.8918
3840	65.012
3836	65.0191
3832	64.8622
3828	64.7494
3824	64.7825
3820	64.7973
3816	64.791
3812	64.8383
3808	64.8756
3804	64.9497
3800	65.1113
3796	65.252
3792	65.2815
3788	65.2727
3784	65.2731
3780	65.2856
3776	65.2463
3772	65.1164
3768	64.9769
3764	64.8537
3760	64.8118
3756	64.8161
3752	64.8391
3748	64.9685
3744	65.1023
3740	65.1652
3736	65.1897
3732	65.1882
3728	65.1385
3724	65.0143
3720	64.9364
3716	64.9556
3712	65.0272
3708	65.0765
3704	65.0719
3700	65.0924
3696	65.113
3692	65.1097
3688	65.0761
3684	65.0193
3680	65.0295
3676	65.1307
3672	65.2056
3668	65.1637
3664	65.0884
3660	65.001
3656	64.9168
3652	64.9277
3648	64.9943
3644	65.0839
3640	65.1511
3636	65.1462
3632	65.1086
3628	65.0386
3624	65.0325
3620	65.1155
3616	65.1424
3612	65.102
3608	65.1052
3604	65.1409
3600	65.1145
3596	65.1118
3592	65.1594
3588	65.0987
3584	64.934
3580	64.8653
3576	65.0248
3572	65.1902
3568	65.0965
3564	64.9559
3560	64.9074
3556	64.9119
3552	65.0538
3548	65.1591
3544	65.1202
3540	65.1102
3536	65.1311
3532	65.1217
3528	65.1337
3524	65.1305
3520	65.0748
3516	65.0031
3512	64.94
3508	64.8959
3504	64.9172
3500	65.0038
3496	65.034
3492	64.9607
3488	64.8667
3484	64.8459
3480	64.9527
3476	65.0808
3472	65.0926
3468	65.0293
3464	64.955
3460	64.9495
3456	65.0544
3452	65.1307
3448	65.1315
3444	65.1001
3440	64.9663
3436	64.8265
3432	64.8689
3428	64.9762
3424	65.026
3420	65.0521
3416	64.9836
3412	64.8466
3408	64.7774
3404	64.7601
3400	64.8313
3396	64.9879
3392	65.0393
3388	64.9615
3384	64.9239
3380	65.0469
3376	65.1394
3372	65.0581
3368	64.9997
3364	64.9895
3360	64.9835
3356	64.9828
3352	64.9115
3348	64.8911
3344	64.9758
3340	64.9973
3336	64.9703
3332	64.9504
3328	64.9317
3324	64.9499
3320	64.978
3316	64.9548
3312	64.9089
3308	64.9304
3304	64.9708
3300	64.9556
3296	64.9529
3292	64.9945
3288	64.9982
3284	64.9513
3280	64.9149
3276	64.8968
3272	64.9068
3268	64.8782
3264	64.7522
3260	64.6832
3256	64.7782
3252	64.8886
3248	64.9439
3244	64.9871
3240	64.9883
3236	65.0289
3232	65.1326
3228	65.1354
3224	65.0312
3220	64.9225
3216	64.8821
3212	64.9209
3208	64.9512
3204	64.9755
3200	65.0178
3196	65.0459
3192	65.0162
3188	64.9684
3184	64.9652
3180	64.9404
3176	64.8692
3172	64.8115
3168	64.8231
3164	64.9288
3160	65.0167
3156	64.976
3152	64.9367
3148	64.9535
3144	64.9552
3140	64.9031
3136	64.8074
3132	64.7855
3128	64.8751
3124	64.9887
3120	64.9999
3116	64.9531
3112	64.9412
3108	64.8666
3104	64.7862
3100	64.8099
3096	64.8566
3092	64.8733
3088	64.85
3084	64.8323
3080	64.8895
3076	64.943
3072	64.9459
3068	64.9639
3064	64.983
3060	64.9654
3056	64.9409
3052	64.9395
3048	64.9431
3044	64.9624
3040	64.9585
3036	64.8663
3032	64.8296
3028	64.9014
3024	64.9415
3020	64.8969
3016	64.8262
3012	64.7968
3008	64.824
3004	64.9352
3000	65.034
2996	65.0171
2992	64.9622
2988	64.9577
2984	64.9904
2980	65.0046
2976	64.9397
2972	64.7998
2968	64.7499
2964	64.7829
2960	64.7441
2956	64.6807
2952	64.6576
2948	64.6718
2944	64.7192
2940	64.8123
2936	64.8878
2932	64.8607
2928	64.8124
2924	64.7683
2920	64.7119
2916	64.6463
2912	64.6368
2908	64.7921
2904	64.9423
2900	64.8831
2896	64.7559
2892	64.7275
2888	64.7875
2884	64.8567
2880	64.8469
2876	64.7731
2872	64.731
2868	64.7712
2864	64.8944
2860	64.9493
2856	64.8596
2852	64.7614
2848	64.711
2844	64.713
2840	64.7497
2836	64.7515
2832	64.7195
2828	64.7255
2824	64.7528
2820	64.7927
2816	64.877
2812	64.9084
2808	64.8685
2804	64.8176
2800	64.7319
2796	64.6514
2792	64.6476
2788	64.6784
2784	64.7255
2780	64.8059
2776	64.8435
2772	64.8358
2768	64.852
2764	64.9077
2760	64.9072
2756	64.8239
2752	64.8134
2748	64.8568
2744	64.8518
2740	64.8684
2736	64.8801
2732	64.837
2728	64.8165
2724	64.8255
2720	64.8244
2716	64.8024
2712	64.7857
2708	64.8013
2704	64.8019
2700	64.7945
2696	64.7978
2692	64.7674
2688	64.7627
2684	64.792
2680	64.7894
2676	64.7646
2672	64.7833
2668	64.8149
2664	64.7471
2660	64.6893
2656	64.7163
2652	64.7567
2648	64.7889
2644	64.7615
2640	64.7486
2636	64.7672
2632	64.7287
2628	64.7399
2624	64.7875
2620	64.7661
2616	64.7218
2612	64.6954
2608	64.6865
2604	64.6807
2600	64.6713
2596	64.6816
2592	64.7142
2588	64.7178
2584	64.7151
2580	64.7373
2576	64.7328
2572	64.6863
2568	64.6386
2564	64.6402
2560	64.668
2556	64.6437
2552	64.5987
2548	64.6004
2544	64.6351
2540	64.7076
2536	64.7867
2532	64.7497
2528	64.6313
2524	64.605
2520	64.6436
2516	64.6428
2512	64.6192
2508	64.6287
2504	64.6641
2500	64.657
2496	64.633
2492	64.6537
2488	64.696
2484	64.7112
2480	64.6838
2476	64.6424
2472	64.6118
2468	64.5805
2464	64.5293
2460	64.5341
2456	64.6166
2452	64.6456
2448	64.6394
2444	64.6487
2440	64.6279
2436	64.6192
2432	64.6809
2428	64.7446
2424	64.7164
2420	64.6554
2416	64.6191
2412	64.594
2408	64.6169
2404	64.671
2400	64.6585
2396	64.5977
2392	64.5778
2388	64.5961
2384	64.608
2380	64.6204
2376	64.6541
2372	64.6464
2368	64.5581
2364	64.5001
2360	64.5452
2356	64.5779
2352	64.5463
2348	64.5135
2344	64.4884
2340	64.5132
2336	64.5648
2332	64.5519
2328	64.5256
2324	64.5568
2320	64.6022
2316	64.5995
2312	64.5744
2308	64.5865
2304	64.6155
2300	64.5505
2296	64.388
2292	64.3011
2288	64.3663
2284	64.4827
2280	64.5764
2276	64.6353
2272	64.6236
2268	64.5553
2264	64.5082
2260	64.527
2256	64.5645
2252	64.5406
2248	64.4596
2244	64.4013
2240	64.4093
2236	64.4378
2232	64.498
2228	64.5705
2224	64.5495
2220	64.4778
2216	64.4267
2212	64.4063
2208	64.4343
2204	64.4443
2200	64.4213
2196	64.4393
2192	64.4825
2188	64.5021
2184	64.4484
2180	64.3693
2176	64.3575
2172	64.3754
2168	64.4183
2164	64.4716
2160	64.4557
2156	64.4177
2152	64.3903
2148	64.3428
2144	64.3513
2140	64.4008
2136	64.4087
2132	64.4122
2128	64.4164
2124	64.3632
2120	64.314
2116	64.3671
2112	64.4356
2108	64.4238
2104	64.3959
2100	64.3837
2096	64.3588
2092	64.3626
2088	64.4266
2084	64.4604
2080	64.408
2076	64.3759
2072	64.4109
2068	64.4498
2064	64.4563
2060	64.4204
2056	64.3672
2052	64.3115
2048	64.2633
2044	64.263
2040	64.3196
2036	64.3522
2032	64.3125
2028	64.2913
2024	64.3175
2020	64.3306
2016	64.3115
2012	64.2791
2008	64.2722
2004	64.3094
2000	64.342
1996	64.296
1992	64.1929
1988	64.1341
1984	64.1729
1980	64.2515
1976	64.2903
1972	64.2931
1968	64.3068
1964	64.3473
1960	64.3394
1956	64.3044
1952	64.3191
1948	64.3148
1944	64.2761
1940	64.2425
1936	64.2122
1932	64.2061
1928	64.2511
1924	64.3335
1920	64.3682
1916	64.3478
1912	64.3281
1908	64.2714
1904	64.1939
1900	64.1446
1896	64.1191
1892	64.1197
1888	64.1377
1884	64.1709
1880	64.207
1876	64.2063
1872	64.2051
1868	64.2267
1864	64.2134
1860	64.1925
1856	64.1728
1852	64.1354
1848	64.131
1844	64.1414
1840	64.1202
1836	64.0623
1832	64.0288
1828	64.0652
1824	64.0715
1820	64.0464
1816	64.1103
1812	64.1866
1808	64.1766
1804	64.1465
1800	64.1385
1796	64.151
1792	64.1578
1788	64.1231
1784	64.0783
1780	64.0606
1776	64.0773
1772	64.1016
1768	64.1053
1764	64.103
1760	64.0819
1756	64.0002
1752	63.879
1748	63.8046
1744	63.7583
1740	63.707
1736	63.7344
1732	63.8305
1728	63.8784
1724	63.8293
1720	63.8009
1716	63.878
1712	63.9417
1708	63.9035
1704	63.8566
1700	63.8948
1696	63.9662
1692	63.9906
1688	63.9312
1684	63.7966
1680	63.7274
1676	63.7712
1672	63.7999
1668	63.8124
1664	63.8276
1660	63.8271
1656	63.8376
1652	63.879
1648	63.9328
1644	63.9199
1640	63.8288
1636	63.7524
1632	63.7996
1628	63.9135
1624	63.9705
1620	63.9895
1616	63.9791
1612	63.9027
1608	63.8238
1604	63.834
1600	63.883
1596	63.847
1592	63.7773
1588	63.8047
1584	63.8587
1580	63.866
1576	63.8901
1572	63.9363
1568	63.9176
1564	63.8035
1560	63.6972
1556	63.6777
1552	63.7465
1548	63.8538
1544	63.9052
1540	63.9232
1536	63.9068
1532	63.8471
1528	63.8179
1524	63.838
1520	63.8585
1516	63.8632
1512	63.8821
1508	63.8986
1504	63.859
1500	63.7694
1496	63.7303
1492	63.7695
1488	63.7847
1484	63.7689
1480	63.7609
1476	63.731
1472	63.6543
1468	63.645
1464	63.7643
1460	63.8737
1456	63.8918
1452	63.8466
1448	63.748
1444	63.6685
1440	63.686
1436	63.7529
1432	63.7991
1428	63.7984
1424	63.7341
1420	63.6642
1416	63.6344
1412	63.5827
1408	63.5518
1404	63.5749
1400	63.571
1396	63.5773
1392	63.6139
1388	63.5964
1384	63.5462
1380	63.5318
1376	63.5101
1372	63.4857
1368	63.4975
1364	63.5116
1360	63.4982
1356	63.4861
1352	63.5048
1348	63.5416
1344	63.5815
1340	63.5974
1336	63.606
1332	63.6291
1328	63.6368
1324	63.5847
1320	63.516
1316	63.5259
1312	63.569
1308	63.5592
1304	63.5267
1300	63.5115
1296	63.5046
1292	63.5204
1288	63.5431
1284	63.5321
1280	63.4788
1276	63.4024
1272	63.4081
1268	63.4663
1264	63.4343
1260	63.3776
1256	63.3971
1252	63.422
1248	63.3916
1244	63.3976
1240	63.4461
1236	63.4346
1232	63.4279
1228	63.5108
1224	63.57
1220	63.4768
1216	63.3634
1212	63.4037
1208	63.4887
1204	63.5047
1200	63.5032
1196	63.4974
1192	63.4525
1188	63.4025
1184	63.4085
1180	63.4291
1176	63.376
1172	63.2657
1168	63.1779
1164	63.1413
1160	63.1805
1156	63.2163
1152	63.202
1148	63.2538
1144	63.3178
1140	63.3573
1136	63.4085
1132	63.3838
1128	63.3066
1124	63.2993
1120	63.3323
1116	63.3251
1112	63.2787
1108	63.2456
1104	63.2505
1100	63.2355
1096	63.2103
1092	63.274
1088	63.3493
1084	63.3383
1080	63.3105
1076	63.3171
1072	63.3095
1068	63.2722
1064	63.2787
1060	63.303
1056	63.2607
1052	63.205
1048	63.2168
1044	63.2257
1040	63.1368
1036	63.0759
1032	63.1799
1028	63.2544
1024	63.1724
1020	63.136
1016	63.2213
1012	63.2654
1008	63.2597
1004	63.2737
1000	63.1967
996	 63.0643
992	 63.0379
988	 63.0896
984	 63.1861
980	 63.2997
976	 63.3154
972	 63.2629
968	 63.192
964	 63.1563
960	 63.197
956	 63.2254
952	 63.2113
948	 63.181
944	 63.2164
940	 63.2128
936	 63.062
932	 63.0298
928	 63.1322
924	 63.1408
920	 63.0709
916	 63.0761
912	 63.2041
908	 63.3017
904	 63.284
900	 63.2136
896	 63.1882
892	 63.2531
888	 63.3801
884	 63.4191
880	 63.3032
876	 63.236
872	 63.2411
868	 63.1979
864	 63.1451
860	 63.1254
856	 63.0927
852	 63.0015
848	 62.9393
844	 62.9564
840	 63.0053
836	 63.0662
832	 63.1393
828	 63.2838
824	 63.4027
820	 63.3426
816	 63.1685
812	 63.0393
808	 63.1149
804	 63.2535
800	 63.1529
796	 62.9614
792	 62.9814
788	 63.1273
784	 63.2787
780	 63.4014
776	 63.344
772	 63.0855
768	 62.8642
764	 62.8531
760	 62.9418
756	 63.0075
752	 63.0872
748	 63.189
744	 63.1657
740	 62.9854
736	 62.8223
732	 62.7554
728	 62.801
724	 62.866
720	 62.8453
716	 62.8891
712	 62.9532
708	 62.776
704	 62.5219
700	 62.4904
696	 62.5947
692	 62.7561
688	 62.9576
684	 63.0865
680	 63.1842
676	 63.2313
672	 63.1316
668	 62.7548
664	 62.4943
660	 62.6819
656	 62.6971
652	 62.486
648	 62.3745
644	 62.2014
640	 61.9093
636	 61.8642
632	 62.4095
628	 62.856
624	 62.7931
620	 62.8074
616	 62.989
612	 63.2159
608	 63.3586
604	 63.4172
600	 63.2852
596	 62.7374
592	 62.4105
588	 62.398
584	 62.4153
580	 62.6848
576	 63.0887
572	 63.3133
568	 63.048
564	 62.7364
560	 62.7553
556	 62.7534
552	 62.8247
548	 62.5757
544	 62.1181
540	 61.9388
536	 61.3682
532	 60.8608
528	 61.4595
524	 62.5849
520	 62.8471
516	 62.7796
512	 62.9779
508	 62.9796
504	 62.9143
500	 62.7766
496	 63.0694
492	 62.8913
488	 61.8553
484	 62.021
480	 62.9446
476	 62.635
472	 61.9396
468	 62.2242
464	 62.8975
460	 63.0594
456	 63.0276
452	 63.7786
448	 64.2486
444	 63.2605
440	 62.0148
436	 61.379
432	 61.4376
428	 62.2009
424	 62.9138
420	 62.714
416	 61.9532
412	 62.1494
408	 63.1896
404	 60.2279
400	 53.4992
396	 51.3595
392	 53.5143
388	 55.1604
384	 56.7448
380	 56.3677
376	 56.0454
372	 62.0289
370	 67.7509