File: Bakgrunnsmateriale/MATLAB/FTIR/ftir_data/subAa/Mapping_121/BZ1503107-1_t58.asc
PE IR       SPECTRUM    SPECTRUM    ASCII       PEDS        1.60
  -1
BZ2963~1.ASC
17/04/07
17:59:44.00
17/04/07
18:00:10.00
tln
$BZ1503107-1_t0058$<tbV0>[7.8,0.0,8.0,0.0,27,1,0]
27.028
64

2002,4.07
MIRTGS : RIGHTBACK : INTERNAL 2
MIR : ON : INTERNAL 2
OPTKBR

0.200000
8
8.000000
FILLER
RATIO
SPECTRUM
UNLOCKED 256

DOUBLE
64
COMBINED
1
0
0

0.002000
RATIO

1
0
TRUE
51149
0
LEFT NOT FITTED RIGHT NOT FITTED 0
NONE
NONE
15600
12
4.427000
51148
TRUE
1 0 8 72 0 0 0 0

15798

#HDR
-1
-1
#GR
µM
%T
2.38419e-05
0.0
2.000000
0.002000
12515
8
82.9054
49.0161
#DATA
2.000000	 65.79
2.018000	 63.9868
2.036000	 65.3907
2.054000	 65.0364
2.072000	 64.662
2.090000	 64.5369
2.108000	 64.834
2.126000	 64.4148
2.144000	 64.6029
2.162000	 65.1464
2.180000	 64.694
2.198000	 65.6044
2.216000	 65.2258
2.234000	 64.6031
2.252000	 74.4314
2.270000	 64.7887
2.288000	 65.1749
2.306000	 65.0908
2.324000	 65.1078
2.342000	 65.4018
2.360000	 65.4793
2.378000	 65.0228
2.396000	 65.1577
2.414000	 65.0206
2.432000	 65.0245
2.450000	 64.8327
2.468000	 65.1754
2.486000	 64.9115
2.504000	 65.0792
2.522000	 64.9446
2.540000	 65.1468
2.558000	 65.4343
2.576000	 65.2569
2.594000	 65.1906
2.612000	 65.1035
2.630000	 65.1807
2.648000	 65.1082
2.666000	 64.9057
2.684000	 65.0173
2.702000	 65.2311
2.720000	 65.2629
2.738000	 65.0847
2.756000	 64.9401
2.774000	 65.24
2.792000	 65.1027
2.810000	 65.0755
2.828000	 65.0422
2.846000	 65.116
2.864000	 65.238
2.882000	 65.0334
2.900000	 65.1647
2.918000	 64.9893
2.936000	 65.1395
2.954000	 65.0875
2.972000	 65.0779
2.990000	 64.9381
3.008000	 64.9977
3.026000	 65.1484
3.044000	 65.0164
3.062000	 64.9434
3.080000	 64.996
3.098000	 65.1533
3.116000	 65.0986
3.134000	 65.0693
3.152000	 65.0094
3.170000	 65.0364
3.188000	 64.9238
3.206000	 65.1059
3.224000	 65.1459
3.242000	 64.9626
3.260000	 65.0212
3.278000	 64.9271
3.296000	 65.0169
3.314000	 64.994
3.332000	 65.0392
3.350000	 65.0715
3.368000	 64.7828
3.386000	 64.8886
3.404000	 64.9527
3.422000	 64.9422
3.440000	 64.9666
3.458000	 65.0108
3.476000	 64.9831
3.494000	 64.9495
3.512000	 65.0457
3.530000	 64.9223
3.548000	 64.9148
3.566000	 65.0054
3.584000	 64.8954
3.602000	 64.9652
3.620000	 64.9549
3.638000	 64.9237
3.656000	 64.9008
3.674000	 64.8723
3.692000	 64.8713
3.710000	 64.9198
3.728000	 64.9381
3.746000	 64.9479
3.764000	 64.8179
3.782000	 64.9401
3.800000	 64.8286
3.818000	 64.7839
3.836000	 64.8562
3.854000	 64.8629
3.872000	 64.8585
3.890000	 64.8061
3.908000	 64.846
3.926000	 64.8001
3.944000	 64.735
3.962000	 64.8851
3.980000	 65.069
3.998000	 64.897
4.016000	 64.9529
4.034000	 64.8962
4.052000	 64.7085
4.070000	 64.8699
4.088000	 64.8309
4.106000	 64.8545
4.124000	 64.9198
4.141999	 64.8281
4.160000	 64.7715
4.178000	 64.8221
4.196000	 64.8824
4.214000	 64.8605
4.232000	 64.7594
4.250000	 64.7745
4.268000	 64.7804
4.286000	 64.7161
4.304000	 64.7306
4.322000	 64.8131
4.340000	 64.8229
4.358000	 64.789
4.375999	 64.6867
4.394000	 64.7143
4.412000	 64.7465
4.430000	 64.7686
4.448000	 64.6721
4.466000	 64.7684
4.484000	 64.7336
4.502000	 64.8796
4.520000	 64.7849
4.538000	 64.7228
4.556000	 64.6657
4.574000	 64.6196
4.592000	 64.7125
4.609999	 64.5706
4.628000	 64.6727
4.646000	 64.6844
4.664000	 64.7611
4.682000	 64.7158
4.700000	 64.775
4.718000	 64.8013
4.736000	 64.7326
4.754000	 64.6453
4.772000	 64.713
4.790000	 64.6288
4.808000	 64.6301
4.826000	 64.5559
4.843999	 64.5886
4.862000	 64.6417
4.880000	 64.6712
4.898000	 64.6661
4.916000	 64.6379
4.934000	 64.4925
4.952000	 64.5397
4.970000	 64.7396
4.988000	 64.6286
5.006000	 64.5344
5.024000	 64.5991
5.042000	 64.5785
5.060000	 64.5562
5.077999	 64.6633
5.096000	 64.6379
5.114000	 64.5099
5.132000	 64.5507
5.150000	 64.5424
5.168000	 64.5237
5.186000	 64.5352
5.204000	 64.6213
5.222000	 64.6066
5.240000	 64.6194
5.258000	 64.6021
5.276000	 64.4698
5.294000	 64.465
5.312000	 64.5119
5.330000	 64.4671
5.348000	 64.5114
5.366000	 64.5073
5.384000	 64.4685
5.402000	 64.4907
5.420000	 64.4357
5.438000	 64.4394
5.456000	 64.4621
5.474000	 64.4183
5.492000	 64.465
5.510000	 64.4593
5.528000	 64.4694
5.546000	 64.3642
5.564000	 64.3392
5.582000	 64.404
5.600000	 64.3931
5.618000	 64.3702
5.636000	 64.3333
5.654000	 64.4197
5.672000	 64.3545
5.690000	 64.3139
5.708000	 64.3986
5.726000	 64.2809
5.744000	 64.2203
5.762000	 64.2236
5.780000	 64.2279
5.798000	 64.2098
5.816000	 64.2011
5.834000	 64.1997
5.852000	 64.1457
5.870000	 64.1796
5.888000	 64.2019
5.906000	 64.2055
5.923999	 64.1585
5.942000	 64.1801
5.960000	 64.2302
5.978000	 64.2264
5.996000	 64.185
6.014000	 64.1849
6.032000	 64.2304
6.050000	 64.2844
6.068000	 64.3368
6.086000	 64.3403
6.104000	 64.2062
6.122000	 64.1616
6.140000	 64.2331
6.158000	 64.225
6.176000	 64.1963
6.194000	 64.2346
6.212000	 64.202
6.230000	 64.1583
6.248000	 64.1894
6.266000	 64.1906
6.284000	 64.1442
6.302000	 64.1112
6.320000	 64.098
6.338000	 64.0345
6.356000	 64.0619
6.374000	 64.1212
6.392000	 64.1322
6.410000	 64.1341
6.428000	 64.1428
6.446000	 64.1446
6.464000	 64.125
6.482000	 64.1183
6.500000	 64.118
6.518000	 64.1359
6.536000	 64.1502
6.554000	 64.1456
6.572000	 64.1528
6.590000	 64.1588
6.608000	 64.1512
6.626000	 64.1488
6.644000	 64.1752
6.662000	 64.2052
6.680000	 64.1995
6.698000	 64.1988
6.716000	 64.1833
6.734000	 64.1544
6.752000	 64.1552
6.770000	 64.1645
6.788000	 64.1589
6.806000	 64.1569
6.824000	 64.134
6.842000	 64.0923
6.860000	 64.0986
6.878000	 64.1135
6.896000	 64.0688
6.914000	 64.0316
6.932000	 64.0325
6.950000	 64.0282
6.968000	 64.0339
6.986000	 64.0568
7.004000	 64.0756
7.022000	 64.1073
7.040000	 64.1345
7.058000	 64.1195
7.076000	 64.0968
7.094000	 64.1024
7.112000	 64.0947
7.130000	 64.0509
7.148000	 64.0048
7.166000	 63.9746
7.184000	 63.9694
7.202000	 63.9879
7.220000	 63.9954
7.238000	 63.9779
7.256000	 63.9754
7.274000	 64.0414
7.292000	 64.1369
7.310000	 64.1332
7.328000	 64.0152
7.346000	 63.9278
7.364000	 63.9385
7.382000	 63.9544
7.400000	 63.9278
7.418000	 63.9369
7.436000	 63.998
7.454000	 64.0212
7.472000	 63.994
7.490000	 63.9898
7.508000	 64.012
7.526000	 64.0127
7.544000	 63.9961
7.562000	 63.9917
7.580000	 63.9908
7.598000	 63.9735
7.616000	 63.9492
7.634000	 63.9347
7.652000	 63.9297
7.670000	 63.9464
7.688000	 64.0069
7.706000	 64.0731
7.724000	 64.0649
7.742000	 63.9859
7.760000	 63.927
7.778000	 63.9313
7.796000	 63.9587
7.814000	 63.9707
7.832000	 63.9575
7.850000	 63.9125
7.868000	 63.8518
7.886000	 63.825
7.904000	 63.8508
7.922000	 63.8817
7.940000	 63.8752
7.958000	 63.8568
7.976000	 63.8684
7.994000	 63.9009
8.012000	 63.9164
8.030000	 63.9021
8.048000	 63.872
8.065999	 63.8413
8.084000	 63.8195
8.102000	 63.8127
8.120000	 63.8165
8.138000	 63.8171
8.155999	 63.8086
8.173999	 63.8014
8.192000	 63.8114
8.210000	 63.8459
8.228000	 63.8942
8.246000	 63.923
8.263999	 63.9048
8.282000	 63.8622
8.300000	 63.8441
8.318000	 63.8552
8.336000	 63.8522
8.353999	 63.8107
8.372000	 63.7552
8.390000	 63.7267
8.408000	 63.7386
8.426000	 63.7734
8.443999	 63.8052
8.462000	 63.8144
8.480000	 63.7959
8.498000	 63.7651
8.516000	 63.7413
8.533999	 63.7234
8.552000	 63.6985
8.570000	 63.6654
8.588000	 63.6387
8.606000	 63.6365
8.624000	 63.6627
8.641999	 63.7003
8.660000	 63.7333
8.678000	 63.7596
8.696000	 63.7702
8.714000	 63.7468
8.731999	 63.6875
8.750000	 63.6134
8.768000	 63.5537
8.786000	 63.5329
8.804000	 63.5569
8.821999	 63.6079
8.840000	 63.6625
8.858000	 63.7121
8.876000	 63.7564
8.894000	 63.783
8.911999	 63.7707
8.930000	 63.7213
8.948000	 63.6752
8.966000	 63.6806
8.984000	 63.7394
9.001999	 63.8026
9.020000	 63.8251
9.038000	 63.8119
9.056000	 63.8014
9.074000	 63.8155
9.092000	 63.8414
9.109999	 63.8529
9.128000	 63.8358
9.146000	 63.7918
9.164000	 63.734
9.182000	 63.6844
9.199999	 63.6677
9.218000	 63.692
9.236000	 63.7372
9.254000	 63.7673
9.272000	 63.759
9.289999	 63.717
9.308000	 63.6642
9.326000	 63.623
9.344000	 63.6043
9.362000	 63.6094
9.379999	 63.6331
9.398000	 63.6625
9.416000	 63.6797
9.434000	 63.6736
9.452000	 63.6506
9.469999	 63.6304
9.488000	 63.6287
9.506000	 63.6455
9.524000	 63.669
9.542000	 63.6908
9.560000	 63.7133
9.577999	 63.7405
9.596000	 63.7684
9.614000	 63.7849
9.632000	 63.7806
9.650000	 63.7557
9.667999	 63.7193
9.686000	 63.6873
9.704000	 63.6772
9.722000	 63.6981
9.740000	 63.7413
9.757999	 63.7816
9.776000	 63.7933
9.794000	 63.7702
9.812000	 63.7305
9.830000	 63.7011
9.847999	 63.6951
9.866000	 63.7045
9.884000	 63.7117
9.902000	 63.7061
9.920000	 63.6905
9.937999	 63.676
9.956000	 63.6724
9.974000	 63.6816
9.992000	 63.6967
10.01	63.7087
10.028	63.7126
10.046	63.7106
10.064	63.7107
10.082	63.7208
10.1	63.7416
10.118	63.7645
10.136	63.7768
10.154	63.7701
10.172	63.7454
10.19	63.7131
10.208	63.6873
10.226	63.6789
10.244	63.691
10.262	63.7153
10.28	63.7365
10.298	63.7391
10.316	63.7157
10.334	63.6723
10.352	63.6242
10.37	63.5882
10.388	63.5709
10.406	63.5674
10.424	63.5663
10.442	63.56
10.46	63.5493
10.478	63.5411
10.496	63.5417
10.514	63.5517
10.532	63.5666
10.55	63.5818
10.568	63.5962
10.586	63.6128
10.604	63.6347
10.622	63.6614
10.64	63.6875
10.658	63.7057
10.676	63.7095
10.694	63.6968
10.712	63.6704
10.73	63.6374
10.748	63.6079
10.766	63.591
10.784	63.5914
10.802	63.6056
10.82	63.6234
10.838	63.6304
10.856	63.617
10.874	63.5834
10.892	63.5403
10.91	63.5051
10.928	63.4919
10.946	63.507
10.964	63.5453
10.982	63.5946
11	63.6411
11.018	63.674
11.036	63.6879
11.054	63.6816
11.072	63.6576
11.09	63.6207
11.108	63.5778
11.126	63.5376
11.144	63.507
11.162	63.4901
11.18	63.4867
11.198	63.4942
11.216	63.5087
11.234	63.5277
11.252	63.5501
11.27	63.576
11.288	63.6045
11.306	63.6338
11.324	63.6606
11.342	63.6815
11.36	63.6943
11.378	63.6987
11.396	63.6962
11.414	63.6888
11.432	63.6784
11.45	63.6662
11.468	63.6535
11.486	63.6412
11.504	63.631
11.522	63.6248
11.54	63.6238
11.558	63.6281
11.576	63.6363
11.594	63.6447
11.612	63.6495
11.63	63.6475
11.648	63.6382
11.666	63.6231
11.684	63.6062
11.702	63.5919
11.72	63.5841
11.738	63.586
11.756	63.599
11.774	63.6225
11.792	63.6542
11.81	63.6899
11.828	63.7246
11.846	63.7532
11.864	63.7726
11.882	63.7818
11.9	63.7832
11.918	63.7809
11.936	63.7793
11.954	63.7811
11.972	63.7863
11.99	63.792
12.008	63.7945
12.026	63.7902
12.044	63.7773
12.062	63.7561
12.08	63.7287
12.098	63.698
12.116	63.6662
12.134	63.6352
12.152	63.6057
12.17	63.5778
12.188	63.5519
12.206	63.5284
12.224	63.5077
12.242	63.4906
12.26	63.4775
12.278	63.4686
12.296	63.4636
12.314	63.4624
12.332	63.4641
12.35	63.4672
12.368	63.4696
12.386	63.469
12.404	63.4635
12.422	63.4525
12.44	63.437
12.458	63.4194
12.476	63.4031
12.494	63.392
12.512	63.3885
12.53	63.3942
12.548	63.4088
12.566	63.4307
12.584	63.4576
12.602	63.4867
12.62	63.5151
12.638	63.5405
12.656	63.561
12.674	63.5754
12.692	63.5829
12.71	63.5839
12.728	63.5791
12.746	63.5702
12.764	63.5586
12.782	63.5457
12.8	63.5321
12.818	63.5179
12.836	63.5024
12.854	63.485
12.872	63.4653
12.89	63.4438
12.908	63.4219
12.926	63.4017
12.944	63.3853
12.962	63.3744
12.98	63.3695
12.998	63.3698
13.016	63.3732
13.034	63.3772
13.052	63.3791
13.07	63.377
13.088	63.3694
13.106	63.3562
13.124	63.3376
13.142	63.3145
13.16	63.288
13.178	63.2598
13.196	63.2318
13.214	63.2059
13.232	63.1835
13.25	63.1663
13.268	63.1551
13.286	63.1505
13.304	63.1525
13.322	63.1604
13.34	63.1735
13.358	63.1909
13.376	63.2114
13.394	63.234
13.412	63.2574
13.43	63.2803
13.448	63.301
13.466	63.3179
13.484	63.3293
13.502	63.3337
13.52	63.3302
13.538	63.3185
13.556	63.2988
13.574	63.2722
13.592	63.24
13.61	63.2038
13.628	63.1655
13.646	63.1274
13.664	63.0923
13.682	63.0628
13.7	63.0417
13.718	63.0311
13.736	63.0322
13.754	63.0451
13.772	63.0688
13.79	63.1008
13.808	63.138
13.826	63.177
13.844	63.2145
13.862	63.2479
13.88	63.2753
13.898	63.2961
13.916	63.3105
13.934	63.3194
13.952	63.3236
13.97	63.3238
13.988	63.3204
14.006	63.3133
14.024	63.3017
14.042	63.2849
14.06	63.2626
14.078	63.2345
14.096	63.201
14.114	63.1634
14.132	63.1237
14.15	63.0843
14.168	63.0483
14.186	63.0187
14.204	62.998
14.222	62.9879
14.24	62.9887
14.258	62.9999
14.276	63.0197
14.294	63.0457
14.312	63.0755
14.33	63.1067
14.348	63.1381
14.366	63.169
14.384	63.2
14.402	63.2318
14.42	63.2653
14.438	63.3009
14.456	63.3382
14.474	63.3757
14.492	63.411
14.51	63.4411
14.528	63.4633
14.546	63.4759
14.564	63.4785
14.582	63.4722
14.6	63.4599
14.618	63.4452
14.636	63.4326
14.654	63.4251
14.672	63.4244
14.69	63.4304
14.708	63.441
14.726	63.4527
14.744	63.4602
14.762	63.4587
14.78	63.4451
14.798	63.4175
14.816	63.3761
14.834	63.3237
14.852	63.2651
14.87	63.2064
14.888	63.1535
14.906	63.1116
14.924	63.0853
14.942	63.0767
14.96	63.0857
14.978	63.1102
14.996	63.1469
15.014	63.1918
15.032	63.2398
15.05	63.2871
15.068	63.3308
15.086	63.3694
15.104	63.4018
15.122	63.4281
15.14	63.4491
15.158	63.4653
15.176	63.4773
15.194	63.4857
15.212	63.4904
15.23	63.4912
15.248	63.4877
15.266	63.4795
15.284	63.4672
15.302	63.4513
15.32	63.4326
15.338	63.412
15.356	63.3901
15.374	63.3677
15.392	63.3451
15.41	63.3223
15.428	63.2993
15.446	63.2757
15.464	63.2515
15.482	63.2267
15.5	63.2019
15.518	63.179
15.536	63.1598
15.554	63.1462
15.572	63.1401
15.59	63.1428
15.608	63.1543
15.626	63.1739
15.644	63.1995
15.662	63.2272
15.68	63.2533
15.698	63.274
15.716	63.2851
15.734	63.2837
15.752	63.269
15.77	63.2408
15.788	63.2017
15.806	63.1559
15.824	63.1078
15.842	63.0631
15.86	63.0284
15.878	63.0079
15.896	63.0058
15.914	63.0251
15.932	63.0665
15.95	63.1292
15.968	63.2111
15.986	63.3075
16.004	63.4138
16.022	63.5248
16.04	63.6331
16.058	63.7331
16.076	63.82
16.094	63.8874
16.112	63.9312
16.13	63.949
16.148	63.9382
16.166	63.8989
16.184	63.8323
16.202	63.7401
16.22	63.6275
16.238	63.4993
16.256	63.3608
16.274	63.2206
16.292	63.0847
16.31	62.9585
16.328	62.8492
16.346	62.7603
16.364	62.6945
16.382	62.6534
16.4	62.6355
16.418	62.6395
16.436	62.661
16.454	62.6952
16.472	62.7384
16.49	62.7842
16.508	62.829
16.526	62.8701
16.544	62.9043
16.562	62.9315
16.58	62.9513
16.598	62.9652
16.616	62.975
16.634	62.9824
16.652	62.9904
16.67	63.0002
16.688	63.0136
16.706	63.0312
16.724	63.0527
16.742	63.0777
16.76	63.1044
16.778	63.1319
16.796	63.1579
16.814	63.1808
16.832	63.1995
16.85	63.2126
16.868	63.2199
16.886	63.221
16.904	63.217
16.922	63.2088
16.94	63.1976
16.958	63.1857
16.976	63.1743
16.994	63.1654
17.012	63.1602
17.03	63.1594
17.048	63.1636
17.066	63.1723
17.084	63.1848
17.102	63.1995
17.12	63.2154
17.138	63.2296
17.156	63.2403
17.174	63.2454
17.192	63.2426
17.21	63.2314
17.228	63.2107
17.246	63.1816
17.264	63.1445
17.282	63.1026
17.3	63.0577
17.318	63.0139
17.336	62.9748
17.354	62.9429
17.372	62.9234
17.39	62.9173
17.408	62.9279
17.426	62.955
17.444	62.999
17.462	63.057
17.48	63.1275
17.498	63.206
17.516	63.2888
17.534	63.3724
17.552	63.4507
17.57	63.5219
17.588	63.581
17.606	63.6273
17.624	63.6588
17.642	63.6766
17.66	63.6808
17.678	63.6748
17.696	63.6597
17.714	63.6399
17.732	63.6174
17.75	63.5951
17.768	63.5754
17.786	63.5594
17.804	63.5481
17.822	63.5412
17.84	63.538
17.858	63.5372
17.876	63.5375
17.894	63.5372
17.912	63.5353
17.93	63.5308
17.948	63.5234
17.966	63.5131
17.984	63.5003
18.002	63.4858
18.02	63.4708
18.038	63.4561
18.056	63.4432
18.074	63.4326
18.092	63.4246
18.11	63.4194
18.128	63.4154
18.146	63.412
18.164	63.4068
18.182	63.3978
18.2	63.3828
18.218	63.359
18.236	63.325
18.254	63.2782
18.272	63.2181
18.29	63.1438
18.308	63.0555
18.326	62.955
18.344	62.8431
18.362	62.7235
18.38	62.5979
18.398	62.471
18.416	62.3452
18.434	62.2247
18.452	62.1125
18.47	62.0112
18.488	61.9233
18.506	61.8501
18.524	61.7923
18.542	61.7505
18.56	61.7231
18.578	61.7103
18.596	61.7089
18.614	61.7187
18.632	61.7353
18.65	61.7586
18.668	61.7845
18.686	61.813
18.704	61.8406
18.722	61.8675
18.74	61.8924
18.758	61.9155
18.776	61.9368
18.794	61.9571
18.812	61.9778
18.83	61.9997
18.848	62.0242
18.866	62.0524
18.884	62.086
18.902	62.1256
18.92	62.1727
18.938	62.2271
18.956	62.2896
18.974	62.3593
18.992	62.4359
19.01	62.518
19.028	62.604
19.046	62.6923
19.064	62.7803
19.082	62.8666
19.1	62.9479
19.118	63.0233
19.136	63.0896
19.154	63.1464
19.172	63.1913
19.19	63.2244
19.208	63.2447
19.226	63.2528
19.244	63.2491
19.262	63.2342
19.28	63.2107
19.298	63.1787
19.316	63.1422
19.334	63.101
19.352	63.0601
19.37	63.0191
19.388	62.9829
19.406	62.9513
19.424	62.9283
19.442	62.9141
19.46	62.9114
19.478	62.9207
19.496	62.9427
19.514	62.9781
19.532	63.0266
19.55	63.0888
19.568	63.1632
19.586	63.2489
19.604	63.3445
19.622	63.4478
19.64	63.5579
19.658	63.6697
19.676	63.7834
19.694	63.8928
19.712	63.9984
19.73	64.0931
19.748	64.1773
19.766	64.2448
19.784	64.2947
19.802	64.3241
19.82	64.3303
19.838	64.3135
19.856	64.2714
19.874	64.2055
19.892	64.1171
19.91	64.0065
19.928	63.88
19.946	63.7364
19.964	63.5851
19.982	63.426
20	63.2673
20.018	63.1129
20.036	62.9659
20.054	62.8339
20.072	62.7161
20.09	62.6191
20.108	62.5421
20.126	62.4864
20.144	62.4529
20.162	62.4381
20.18	62.4421
20.198	62.4612
20.216	62.4906
20.234	62.5301
20.252	62.5715
20.27	62.6159
20.288	62.6562
20.306	62.6916
20.324	62.7198
20.342	62.7379
20.36	62.7471
20.378	62.7464
20.396	62.7361
20.414	62.7196
20.432	62.6961
20.45	62.67
20.468	62.6425
20.486	62.6154
20.504	62.5929
20.522	62.5742
20.54	62.5624
20.558	62.5576
20.576	62.5596
20.594	62.5694
20.612	62.5852
20.63	62.6049
20.648	62.629
20.666	62.6525
20.684	62.676
20.702	62.696
20.72	62.7099
20.738	62.718
20.756	62.7167
20.774	62.7067
20.792	62.6879
20.81	62.6594
20.828	62.6233
20.846	62.5813
20.864	62.5332
20.882	62.4846
20.9	62.4344
20.918	62.3872
20.936	62.346
20.954	62.3105
20.972	62.2859
20.99	62.2713
21.008	62.2684
21.026	62.2789
21.044	62.3015
21.062	62.3358
21.08	62.3821
21.098	62.4367
21.116	62.4995
21.134	62.5684
21.152	62.6385
21.17	62.7113
21.188	62.7812
21.206	62.8476
21.224	62.9094
21.242	62.9629
21.26	63.0091
21.278	63.0467
21.296	63.0747
21.314	63.0944
21.332	63.1065
21.35	63.1106
21.368	63.1094
21.386	63.1032
21.404	63.093
21.422	63.0822
21.44	63.0698
21.458	63.0582
21.476	63.0487
21.494	63.0408
21.512	63.0363
21.53	63.0351
21.548	63.0369
21.566	63.0419
21.584	63.05
21.602	63.0598
21.62	63.0715
21.638	63.0843
21.656	63.0971
21.674	63.1102
21.692	63.1224
21.71	63.1333
21.728	63.1429
21.746	63.1506
21.764	63.1565
21.782	63.1609
21.8	63.1638
21.818	63.1652
21.836	63.1663
21.854	63.1669
21.872	63.1676
21.89	63.1698
21.908	63.1732
21.926	63.1785
21.944	63.1864
21.962	63.1966
21.98	63.2099
21.998	63.2263
22.016	63.2459
22.034	63.2688
22.052	63.2951
22.07	63.3244
22.088	63.3565
22.106	63.3915
22.124	63.4285
22.142	63.4674
22.16	63.5081
22.178	63.5492
22.196	63.5911
22.214	63.6332
22.232	63.6744
22.25	63.7154
22.268	63.755
22.286	63.7925
22.304	63.8283
22.322	63.8611
22.34	63.8911
22.358	63.9181
22.376	63.9404
22.394	63.9587
22.412	63.9722
22.43	63.9794
22.448	63.9809
22.466	63.9761
22.484	63.9643
22.502	63.9457
22.52	63.9205
22.538	63.8883
22.556	63.8494
22.574	63.8042
22.592	63.7526
22.61	63.6948
22.628	63.6318
22.646	63.5632
22.664	63.4899
22.682	63.4136
22.7	63.3333
22.718	63.2509
22.736	63.1684
22.754	63.0847
22.772	63.0015
22.79	62.92
22.808	62.8394
22.826	62.7615
22.844	62.6872
22.862	62.6158
22.88	62.5494
22.898	62.4887
22.916	62.433
22.934	62.3846
22.952	62.3441
22.97	62.311
22.988	62.2869
23.006	62.2718
23.024	62.2656
23.042	62.2695
23.06	62.2837
23.078	62.3079
23.096	62.3424
23.114	62.3872
23.132	62.4422
23.15	62.507
23.168	62.5821
23.186	62.6668
23.204	62.7597
23.222	62.8611
23.24	62.9705
23.258	63.0861
23.276	63.2084
23.294	63.3367
23.312	63.4683
23.33	63.6039
23.348	63.7428
23.366	63.8826
23.384	64.0235
23.402	64.1653
23.42	64.306
23.438	64.4456
23.456	64.584
23.474	64.7193
23.492	64.8514
23.51	64.9804
23.528	65.1049
23.546	65.2249
23.564	65.3404
23.582	65.4496
23.6	65.5519
23.618	65.6479
23.636	65.7356
23.654	65.8141
23.672	65.8847
23.69	65.9441
23.708	65.9908
23.726	66.0263
23.744	66.0479
23.762	66.053
23.78	66.0439
23.798	66.0177
23.816	65.9711
23.834	65.9062
23.852	65.8212
23.87	65.7133
23.888	65.583
23.906	65.4306
23.924	65.2549
23.942	65.0552
23.96	64.8326
23.978	64.5883
23.996	64.3221
24.014	64.0337
24.032	63.7272
24.05	63.4043
24.068	63.0626
24.086	62.7073
24.104	62.343
24.122	61.9659
24.14	61.5805
24.158	61.1932
24.176	60.8014
24.194	60.4068
24.212	60.0158
24.23	59.629
24.248	59.2448
24.266	58.8682
24.284	58.502
24.302	58.1434
24.32	57.7955
24.338	57.4612
24.356	57.1395
24.374	56.8301
24.392	56.5335
24.41	56.25
24.428	55.9791
24.446	55.7206
24.464	55.4743
24.482	55.2402
24.5	55.0182
24.518	54.8082
24.536	54.6095
24.554	54.4233
24.572	54.2508
24.59	54.0916
24.608	53.9457
24.626	53.814
24.644	53.6966
24.662	53.5928
24.68	53.5047
24.698	53.4343
24.716	53.3798
24.734	53.3427
24.752	53.3256
24.77	53.3286
24.788	53.3509
24.806	53.3944
24.824	53.4608
24.842	53.5493
24.86	53.6591
24.878	53.7893
24.896	53.9414
24.914	54.1141
24.932	54.3037
24.95	54.5092
24.968	54.7334
24.986	54.9704
25.004	55.2144
25.022	55.47
25.04	55.7339
25.058	55.9976
25.076	56.2584
25.094	56.5217
25.112	56.7784
25.13	57.0194
25.148	57.2501
25.166	57.4679
25.184	57.6648
25.202	57.8366
25.22	57.9882
25.238	58.1157
25.256	58.2147
25.274	58.2864
25.292	58.3314
25.31	58.3477
25.328	58.3336
25.346	58.2903
25.364	58.2185
25.382	58.1193
25.4	57.9916
25.418	57.8361
25.436	57.6558
25.454	57.4524
25.472	57.2235
25.49	56.972
25.508	56.7019
25.526	56.4128
25.544	56.1032
25.562	55.7788
25.58	55.4453
25.598	55.0979
25.616	54.7395
25.634	54.3774
25.652	54.0159
25.67	53.6494
25.688	53.2831
25.706	52.9235
25.724	52.5699
25.742	52.2202
25.76	51.8803
25.778	51.5553
25.796	51.2419
25.814	50.9411
25.832	50.6575
25.85	50.3938
25.868	50.1457
25.886	49.9173
25.904	49.7135
25.922	49.5354
25.94	49.3801
25.958	49.2508
25.976	49.1506
25.994	49.0771
26.012	49.0308
26.03	49.0162
26.048	49.037
26.066	49.0884
26.084	49.1736
26.102	49.299
26.12	49.4681
26.138	49.6748
26.156	49.9245
26.174	50.2241
26.192	50.5756
26.21	50.9739
26.228	51.424
26.246	51.9312
26.264	52.4963
26.282	53.1165
26.3	53.7923
26.318	54.5245
26.336	55.3166
26.354	56.1652
26.372	57.0633
26.39	58.0045
26.408	58.9983
26.426	60.038
26.444	61.1099
26.462	62.2033
26.48	63.3349
26.498	64.4919
26.516	65.6527
26.534	66.8023
26.552	67.9615
26.57	69.1159
26.588	70.2438
26.606	71.3324
26.624	72.4013
26.642	73.4365
26.66	74.4194
26.678	75.3389
26.696	76.209
26.714	77.0237
26.732	77.7745
26.75	78.4556
26.768	79.0712
26.786	79.6246
26.804	80.1187
26.822	80.5515
26.84	80.9171
26.858	81.2292
26.876	81.5028
26.894	81.741
26.912	81.9276
26.93	82.0841
26.948	82.2349
26.966	82.4017
26.984	82.5791
27.002	82.7433
27.02	82.8707
27.028	82.9054