File: Bakgrunnsmateriale/MATLAB/FTIR/ftir_data/subAa/Mapping_121/BZ1503107-1_t49.asc
PE IR       SPECTRUM    SPECTRUM    ASCII       PEDS        1.60
  -1
BZ2D6D~1.ASC
17/04/07
17:17:31.00
17/04/07
17:17:57.00
tln
$BZ1503107-1_t0049$<tbV0>[2.6,-2.6,8.0,0.0,27,1,0]
27.028
64

2002,4.07
MIRTGS : RIGHTBACK : INTERNAL 2
MIR : ON : INTERNAL 2
OPTKBR

0.200000
8
8.000000
FILLER
RATIO
SPECTRUM
UNLOCKED 256

DOUBLE
64
COMBINED
1
0
0

0.002000
RATIO

1
0
TRUE
51149
0
LEFT NOT FITTED RIGHT NOT FITTED 0
NONE
NONE
15600
12
4.427000
51148
TRUE
1 0 8 72 0 0 0 0

15798

#HDR
-1
-1
#GR
µM
%T
2.38419e-05
0.0
2.000000
0.002000
12515
8
83.0415
56.8627
#DATA
2.000000	 67.5335
2.018000	 64.8827
2.036000	 65.4377
2.054000	 64.3068
2.072000	 64.5187
2.090000	 64.4188
2.108000	 64.835
2.126000	 64.4936
2.144000	 64.7601
2.162000	 64.9748
2.180000	 64.9153
2.198000	 65.1876
2.216000	 64.999
2.234000	 64.8473
2.252000	 63.0183
2.270000	 65.5275
2.288000	 65.1284
2.306000	 65.033
2.324000	 65.2406
2.342000	 64.9391
2.360000	 65.0958
2.378000	 65.0723
2.396000	 64.9977
2.414000	 65.0431
2.432000	 65.092
2.450000	 64.8936
2.468000	 65.0359
2.486000	 65.0282
2.504000	 65.1793
2.522000	 64.9014
2.540000	 64.9772
2.558000	 65.1113
2.576000	 65.1111
2.594000	 65.187
2.612000	 65.0192
2.630000	 65.0283
2.648000	 65.2043
2.666000	 65.2175
2.684000	 65.0281
2.702000	 65.2495
2.720000	 65.0269
2.738000	 65.1357
2.756000	 65.0088
2.774000	 65.2079
2.792000	 64.9801
2.810000	 65.0169
2.828000	 64.9544
2.846000	 65.0991
2.864000	 65.1492
2.882000	 65.0585
2.900000	 65.0368
2.918000	 64.8619
2.936000	 65.1618
2.954000	 65.0413
2.972000	 65.1797
2.990000	 64.8722
3.008000	 65.1216
3.026000	 65.0457
3.044000	 65.0728
3.062000	 64.9411
3.080000	 64.9989
3.098000	 65.0594
3.116000	 65.068
3.134000	 65.1129
3.152000	 65.0657
3.170000	 65.0459
3.188000	 65.0344
3.206000	 64.8928
3.224000	 65.0938
3.242000	 64.9822
3.260000	 64.9173
3.278000	 65.0932
3.296000	 65.0521
3.314000	 65.0329
3.332000	 65.1145
3.350000	 64.8236
3.368000	 64.9568
3.386000	 64.8797
3.404000	 64.7845
3.422000	 64.8321
3.440000	 64.9757
3.458000	 65.0296
3.476000	 64.9302
3.494000	 64.9125
3.512000	 64.9565
3.530000	 64.9449
3.548000	 64.8857
3.566000	 64.923
3.584000	 64.8938
3.602000	 64.8698
3.620000	 64.8348
3.638000	 64.9383
3.656000	 64.946
3.674000	 64.9316
3.692000	 65.0456
3.710000	 64.9464
3.728000	 64.9158
3.746000	 64.875
3.764000	 64.8881
3.782000	 64.9081
3.800000	 64.9287
3.818000	 64.9182
3.836000	 64.8282
3.854000	 64.8918
3.872000	 64.8121
3.890000	 64.7614
3.908000	 64.7771
3.926000	 64.9429
3.944000	 64.8604
3.962000	 64.9791
3.980000	 64.8383
3.998000	 64.8327
4.016000	 64.9876
4.034000	 64.9149
4.052000	 64.776
4.070000	 64.7857
4.088000	 64.8348
4.106000	 64.9107
4.124000	 64.8602
4.141999	 64.7782
4.160000	 64.8755
4.178000	 64.8103
4.196000	 64.7071
4.214000	 64.8101
4.232000	 64.8089
4.250000	 64.7795
4.268000	 64.7698
4.286000	 64.7675
4.304000	 64.8008
4.322000	 64.7578
4.340000	 64.6728
4.358000	 64.8174
4.375999	 64.8499
4.394000	 64.7206
4.412000	 64.7945
4.430000	 64.772
4.448000	 64.5987
4.466000	 64.6818
4.484000	 64.7226
4.502000	 64.737
4.520000	 64.8483
4.538000	 64.8033
4.556000	 64.7235
4.574000	 64.6419
4.592000	 64.6947
4.609999	 64.647
4.628000	 64.6716
4.646000	 64.673
4.664000	 64.6878
4.682000	 64.6933
4.700000	 64.6997
4.718000	 64.7501
4.736000	 64.6482
4.754000	 64.6318
4.772000	 64.7182
4.790000	 64.6232
4.808000	 64.6071
4.826000	 64.6387
4.843999	 64.6207
4.862000	 64.7088
4.880000	 64.6184
4.898000	 64.5532
4.916000	 64.5649
4.934000	 64.6164
4.952000	 64.6287
4.970000	 64.6807
4.988000	 64.6393
5.006000	 64.702
5.024000	 64.7303
5.042000	 64.7058
5.060000	 64.5855
5.077999	 64.5764
5.096000	 64.5282
5.114000	 64.5565
5.132000	 64.5857
5.150000	 64.5599
5.168000	 64.5122
5.186000	 64.5671
5.204000	 64.5942
5.222000	 64.5784
5.240000	 64.6094
5.258000	 64.5421
5.276000	 64.4241
5.294000	 64.467
5.312000	 64.4871
5.330000	 64.5411
5.348000	 64.5593
5.366000	 64.5575
5.384000	 64.5644
5.402000	 64.5794
5.420000	 64.5772
5.438000	 64.5834
5.456000	 64.5117
5.474000	 64.4488
5.492000	 64.4682
5.510000	 64.481
5.528000	 64.4465
5.546000	 64.4693
5.564000	 64.4829
5.582000	 64.5333
5.600000	 64.5205
5.618000	 64.517
5.636000	 64.4362
5.654000	 64.3854
5.672000	 64.4489
5.690000	 64.4193
5.708000	 64.4292
5.726000	 64.3432
5.744000	 64.3005
5.762000	 64.3096
5.780000	 64.2735
5.798000	 64.2372
5.816000	 64.2786
5.834000	 64.3992
5.852000	 64.4318
5.870000	 64.3085
5.888000	 64.218
5.906000	 64.2514
5.923999	 64.2286
5.942000	 64.1726
5.960000	 64.2367
5.978000	 64.2778
5.996000	 64.266
6.014000	 64.2436
6.032000	 64.2691
6.050000	 64.2964
6.068000	 64.2971
6.086000	 64.3235
6.104000	 64.3379
6.122000	 64.3264
6.140000	 64.2429
6.158000	 64.1339
6.176000	 64.1548
6.194000	 64.3039
6.212000	 64.3087
6.230000	 64.2632
6.248000	 64.3127
6.266000	 64.2966
6.284000	 64.256
6.302000	 64.2573
6.320000	 64.2224
6.338000	 64.1458
6.356000	 64.1218
6.374000	 64.1944
6.392000	 64.2549
6.410000	 64.2339
6.428000	 64.1801
6.446000	 64.195
6.464000	 64.237
6.482000	 64.2361
6.500000	 64.2127
6.518000	 64.1726
6.536000	 64.1418
6.554000	 64.1359
6.572000	 64.1622
6.590000	 64.2148
6.608000	 64.2188
6.626000	 64.1769
6.644000	 64.18
6.662000	 64.2105
6.680000	 64.1918
6.698000	 64.209
6.716000	 64.292
6.734000	 64.3141
6.752000	 64.278
6.770000	 64.2593
6.788000	 64.2663
6.806000	 64.2381
6.824000	 64.1952
6.842000	 64.1824
6.860000	 64.1357
6.878000	 64.0477
6.896000	 64.007
6.914000	 64.0483
6.932000	 64.1331
6.950000	 64.1809
6.968000	 64.1398
6.986000	 64.0767
7.004000	 64.1022
7.022000	 64.1995
7.040000	 64.246
7.058000	 64.1998
7.076000	 64.1327
7.094000	 64.1141
7.112000	 64.1441
7.130000	 64.1766
7.148000	 64.1714
7.166000	 64.1477
7.184000	 64.1508
7.202000	 64.1563
7.220000	 64.1263
7.238000	 64.0907
7.256000	 64.0829
7.274000	 64.1081
7.292000	 64.1298
7.310000	 64.0872
7.328000	 64.0174
7.346000	 64.0123
7.364000	 64.0531
7.382000	 64.0521
7.400000	 63.988
7.418000	 63.9368
7.436000	 63.9746
7.454000	 64.0714
7.472000	 64.1358
7.490000	 64.1388
7.508000	 64.122
7.526000	 64.1292
7.544000	 64.1604
7.562000	 64.1795
7.580000	 64.1611
7.598000	 64.1126
7.616000	 64.0565
7.634000	 64.0209
7.652000	 64.0344
7.670000	 64.098
7.688000	 64.1696
7.706000	 64.1992
7.724000	 64.1795
7.742000	 64.1444
7.760000	 64.1241
7.778000	 64.1112
7.796000	 64.08
7.814000	 64.0327
7.832000	 63.9952
7.850000	 63.9724
7.868000	 63.9508
7.886000	 63.9362
7.904000	 63.9408
7.922000	 63.9459
7.940000	 63.9316
7.958000	 63.9161
7.976000	 63.9213
7.994000	 63.934
8.012000	 63.9352
8.030000	 63.9271
8.048000	 63.9144
8.065999	 63.8948
8.084000	 63.8727
8.102000	 63.8563
8.120000	 63.8449
8.138000	 63.83
8.155999	 63.8095
8.173999	 63.7997
8.192000	 63.821
8.210000	 63.8648
8.228000	 63.8942
8.246000	 63.8965
8.263999	 63.9031
8.282000	 63.932
8.300000	 63.9498
8.318000	 63.922
8.336000	 63.8605
8.353999	 63.8007
8.372000	 63.7638
8.390000	 63.7598
8.408000	 63.7931
8.426000	 63.8454
8.443999	 63.8789
8.462000	 63.8749
8.480000	 63.8573
8.498000	 63.8675
8.516000	 63.9107
8.533999	 63.9423
8.552000	 63.9134
8.570000	 63.816
8.588000	 63.6887
8.606000	 63.5945
8.624000	 63.5772
8.641999	 63.6289
8.660000	 63.709
8.678000	 63.7811
8.696000	 63.8188
8.714000	 63.8107
8.731999	 63.7741
8.750000	 63.7428
8.768000	 63.7341
8.786000	 63.7371
8.804000	 63.7292
8.821999	 63.7024
8.840000	 63.6712
8.858000	 63.662
8.876000	 63.6894
8.894000	 63.7433
8.911999	 63.7936
8.930000	 63.8133
8.948000	 63.7993
8.966000	 63.7744
8.984000	 63.7593
9.001999	 63.7526
9.020000	 63.7429
9.038000	 63.7312
9.056000	 63.7298
9.074000	 63.7448
9.092000	 63.771
9.109999	 63.794
9.128000	 63.7951
9.146000	 63.7578
9.164000	 63.6835
9.182000	 63.6057
9.199999	 63.5727
9.218000	 63.6089
9.236000	 63.6927
9.254000	 63.7769
9.272000	 63.8275
9.289999	 63.8407
9.308000	 63.8307
9.326000	 63.8102
9.344000	 63.7848
9.362000	 63.7595
9.379999	 63.7405
9.398000	 63.7299
9.416000	 63.723
9.434000	 63.7125
9.452000	 63.6944
9.469999	 63.6692
9.488000	 63.6412
9.506000	 63.6195
9.524000	 63.617
9.542000	 63.6453
9.560000	 63.7037
9.577999	 63.7751
9.596000	 63.834
9.614000	 63.862
9.632000	 63.8571
9.650000	 63.832
9.667999	 63.804
9.686000	 63.7884
9.704000	 63.796
9.722000	 63.8321
9.740000	 63.8928
9.757999	 63.9621
9.776000	 64.0169
9.794000	 64.0395
9.812000	 64.0295
9.830000	 64.0032
9.847999	 63.9811
9.866000	 63.9733
9.884000	 63.9755
9.902000	 63.9741
9.920000	 63.9567
9.937999	 63.9202
9.956000	 63.872
9.974000	 63.8241
9.992000	 63.7865
10.01	63.7646
10.028	63.7605
10.046	63.7732
10.064	63.7986
10.082	63.8274
10.1	63.8488
10.118	63.8567
10.136	63.8546
10.154	63.8538
10.172	63.8649
10.19	63.8894
10.208	63.9186
10.226	63.9417
10.244	63.9529
10.262	63.954
10.28	63.9487
10.298	63.9376
10.316	63.9173
10.334	63.8851
10.352	63.844
10.37	63.8027
10.388	63.7692
10.406	63.7465
10.424	63.7338
10.442	63.7295
10.46	63.7344
10.478	63.7487
10.496	63.7681
10.514	63.7832
10.532	63.7828
10.55	63.7612
10.568	63.7215
10.586	63.6758
10.604	63.6381
10.622	63.6184
10.64	63.6187
10.658	63.6343
10.676	63.6581
10.694	63.6843
10.712	63.709
10.73	63.7286
10.748	63.7389
10.766	63.7356
10.784	63.7172
10.802	63.6889
10.82	63.6619
10.838	63.6503
10.856	63.6622
10.874	63.6949
10.892	63.7347
10.91	63.763
10.928	63.7671
10.946	63.7454
10.964	63.7099
10.982	63.6799
11	63.6725
11.018	63.6954
11.036	63.742
11.054	63.7947
11.072	63.8335
11.09	63.8435
11.108	63.8223
11.126	63.7792
11.144	63.7293
11.162	63.6889
11.18	63.6679
11.198	63.6696
11.216	63.6913
11.234	63.7271
11.252	63.7704
11.27	63.8153
11.288	63.8563
11.306	63.8884
11.324	63.9068
11.342	63.9081
11.36	63.8917
11.378	63.8602
11.396	63.8194
11.414	63.7772
11.432	63.7411
11.45	63.7163
11.468	63.7053
11.486	63.7077
11.504	63.7207
11.522	63.7404
11.54	63.7639
11.558	63.7886
11.576	63.8127
11.594	63.8348
11.612	63.8539
11.63	63.8692
11.648	63.8802
11.666	63.8861
11.684	63.8861
11.702	63.8791
11.72	63.8645
11.738	63.844
11.756	63.822
11.774	63.8051
11.792	63.801
11.81	63.8147
11.828	63.8457
11.846	63.8871
11.864	63.9258
11.882	63.9485
11.9	63.9448
11.918	63.9122
11.936	63.858
11.954	63.7956
11.972	63.7419
11.99	63.7099
12.008	63.7056
12.026	63.726
12.044	63.7611
12.062	63.7969
12.08	63.8208
12.098	63.8248
12.116	63.8078
12.134	63.7755
12.152	63.738
12.17	63.7053
12.188	63.6848
12.206	63.679
12.224	63.6853
12.242	63.6978
12.26	63.7097
12.278	63.7157
12.296	63.713
12.314	63.7021
12.332	63.686
12.35	63.6693
12.368	63.6563
12.386	63.6501
12.404	63.6512
12.422	63.6571
12.44	63.6638
12.458	63.6672
12.476	63.6645
12.494	63.6561
12.512	63.6449
12.53	63.6358
12.548	63.6337
12.566	63.6416
12.584	63.6599
12.602	63.6861
12.62	63.7156
12.638	63.7429
12.656	63.7631
12.674	63.7729
12.692	63.7715
12.71	63.76
12.728	63.7408
12.746	63.7171
12.764	63.6921
12.782	63.6687
12.8	63.6489
12.818	63.6343
12.836	63.6253
12.854	63.6221
12.872	63.6241
12.89	63.6305
12.908	63.6403
12.926	63.6523
12.944	63.6655
12.962	63.6781
12.98	63.6882
12.998	63.6936
13.016	63.692
13.034	63.682
13.052	63.6631
13.07	63.6365
13.088	63.6047
13.106	63.5716
13.124	63.541
13.142	63.5165
13.16	63.5003
13.178	63.4931
13.196	63.4934
13.214	63.4988
13.232	63.5059
13.25	63.512
13.268	63.5153
13.286	63.5156
13.304	63.5141
13.322	63.5126
13.34	63.5136
13.358	63.5189
13.376	63.5293
13.394	63.5444
13.412	63.5624
13.43	63.5809
13.448	63.5971
13.466	63.6082
13.484	63.6125
13.502	63.6088
13.52	63.5972
13.538	63.5784
13.556	63.5538
13.574	63.5255
13.592	63.4956
13.61	63.4666
13.628	63.4407
13.646	63.42
13.664	63.4061
13.682	63.4001
13.7	63.402
13.718	63.4109
13.736	63.4252
13.754	63.4425
13.772	63.4605
13.79	63.4772
13.808	63.4914
13.826	63.5028
13.844	63.5118
13.862	63.5193
13.88	63.5259
13.898	63.5319
13.916	63.5368
13.934	63.5391
13.952	63.5366
13.97	63.5268
13.988	63.5076
14.006	63.4775
14.024	63.4366
14.042	63.3866
14.06	63.3305
14.078	63.2721
14.096	63.2157
14.114	63.165
14.132	63.1231
14.15	63.092
14.168	63.0727
14.186	63.0646
14.204	63.0662
14.222	63.0753
14.24	63.0892
14.258	63.1055
14.276	63.1219
14.294	63.1369
14.312	63.15
14.33	63.1617
14.348	63.1738
14.366	63.1883
14.384	63.2076
14.402	63.2336
14.42	63.267
14.438	63.3071
14.456	63.3516
14.474	63.3967
14.492	63.4378
14.51	63.4697
14.528	63.4886
14.546	63.4928
14.564	63.4826
14.582	63.4611
14.6	63.4335
14.618	63.4063
14.636	63.387
14.654	63.3809
14.672	63.3912
14.69	63.4179
14.708	63.4586
14.726	63.5078
14.744	63.5579
14.762	63.601
14.78	63.6307
14.798	63.6422
14.816	63.6331
14.834	63.6038
14.852	63.5577
14.87	63.5002
14.888	63.4367
14.906	63.3729
14.924	63.3138
14.942	63.263
14.96	63.2221
14.978	63.1914
14.996	63.1702
15.014	63.1573
15.032	63.1513
15.05	63.1512
15.068	63.1571
15.086	63.169
15.104	63.1873
15.122	63.2121
15.14	63.2427
15.158	63.2776
15.176	63.3147
15.194	63.3509
15.212	63.3822
15.23	63.4048
15.248	63.4158
15.266	63.4126
15.284	63.3943
15.302	63.362
15.32	63.3176
15.338	63.2635
15.356	63.203
15.374	63.1407
15.392	63.0803
15.41	63.0252
15.428	62.9784
15.446	62.9427
15.464	62.9194
15.482	62.9093
15.5	62.913
15.518	62.9306
15.536	62.9612
15.554	63.0034
15.572	63.0552
15.59	63.1124
15.608	63.171
15.626	63.2268
15.644	63.2745
15.662	63.3083
15.68	63.3247
15.698	63.3205
15.716	63.2936
15.734	63.2448
15.752	63.1766
15.77	63.0924
15.788	62.999
15.806	62.903
15.824	62.8106
15.842	62.7287
15.86	62.6644
15.878	62.6222
15.896	62.6059
15.914	62.6193
15.932	62.6635
15.95	62.7384
15.968	62.843
15.986	62.9744
16.004	63.129
16.022	63.3028
16.04	63.4884
16.058	63.6788
16.076	63.8672
16.094	64.0433
16.112	64.1974
16.13	64.3226
16.148	64.4107
16.166	64.4552
16.184	64.4536
16.202	64.4032
16.22	64.3062
16.238	64.1675
16.256	63.9928
16.274	63.7941
16.292	63.5811
16.31	63.3629
16.328	63.1538
16.346	62.9624
16.364	62.7958
16.382	62.6625
16.4	62.5649
16.418	62.5049
16.436	62.4817
16.454	62.4914
16.472	62.5308
16.49	62.5921
16.508	62.6684
16.526	62.7542
16.544	62.8395
16.562	62.9181
16.58	62.9849
16.598	63.0325
16.616	63.0587
16.634	63.0611
16.652	63.0382
16.67	62.9916
16.688	62.923
16.706	62.8371
16.724	62.7379
16.742	62.6309
16.76	62.5244
16.778	62.4227
16.796	62.3339
16.814	62.2647
16.832	62.2188
16.85	62.203
16.868	62.2188
16.886	62.2684
16.904	62.3515
16.922	62.466
16.94	62.6098
16.958	62.776
16.976	62.9611
16.994	63.1562
17.012	63.3544
17.03	63.5505
17.048	63.7343
17.066	63.9026
17.084	64.0494
17.102	64.1714
17.12	64.2673
17.138	64.3358
17.156	64.3782
17.174	64.3949
17.192	64.3903
17.21	64.3661
17.228	64.3274
17.246	64.2777
17.264	64.2195
17.282	64.157
17.3	64.0915
17.318	64.0257
17.336	63.9608
17.354	63.8977
17.372	63.8375
17.39	63.7805
17.408	63.7276
17.426	63.6793
17.444	63.636
17.462	63.5988
17.48	63.5682
17.498	63.5459
17.516	63.5329
17.534	63.5301
17.552	63.5383
17.57	63.5575
17.588	63.5878
17.606	63.6284
17.624	63.6785
17.642	63.7362
17.66	63.8008
17.678	63.8689
17.696	63.9393
17.714	64.0092
17.732	64.0773
17.75	64.1416
17.768	64.2013
17.786	64.2558
17.804	64.3049
17.822	64.3489
17.84	64.3893
17.858	64.4273
17.876	64.4645
17.894	64.5034
17.912	64.5451
17.93	64.592
17.948	64.6443
17.966	64.7036
17.984	64.7693
18.002	64.8416
18.02	64.9186
18.038	64.9996
18.056	65.0806
18.074	65.1609
18.092	65.2355
18.11	65.3037
18.128	65.3605
18.146	65.4056
18.164	65.4356
18.182	65.4504
18.2	65.4486
18.218	65.4309
18.236	65.3972
18.254	65.3492
18.272	65.2873
18.29	65.2149
18.308	65.1325
18.326	65.044
18.344	64.9501
18.362	64.8545
18.38	64.7578
18.398	64.6627
18.416	64.5697
18.434	64.4809
18.452	64.3965
18.47	64.3171
18.488	64.2426
18.506	64.1733
18.524	64.1083
18.542	64.0476
18.56	63.99
18.578	63.9353
18.596	63.8826
18.614	63.8318
18.632	63.7825
18.65	63.7348
18.668	63.6892
18.686	63.6458
18.704	63.6054
18.722	63.5682
18.74	63.5354
18.758	63.5071
18.776	63.4841
18.794	63.4664
18.812	63.4544
18.83	63.4476
18.848	63.4455
18.866	63.4477
18.884	63.4535
18.902	63.4625
18.92	63.4738
18.938	63.4875
18.956	63.5028
18.974	63.5199
18.992	63.5386
19.01	63.5593
19.028	63.5826
19.046	63.609
19.064	63.6395
19.082	63.6743
19.1	63.7146
19.118	63.76
19.136	63.8111
19.154	63.8675
19.172	63.9286
19.19	63.9938
19.208	64.0614
19.226	64.1308
19.244	64.1992
19.262	64.2661
19.28	64.328
19.298	64.3848
19.316	64.433
19.334	64.4728
19.352	64.5016
19.37	64.5194
19.388	64.5257
19.406	64.5202
19.424	64.5044
19.442	64.4778
19.46	64.4434
19.478	64.4009
19.496	64.3538
19.514	64.3027
19.532	64.2508
19.55	64.1995
19.568	64.1508
19.586	64.1071
19.604	64.0691
19.622	64.0392
19.64	64.0172
19.658	64.0048
19.676	64.0017
19.694	64.0082
19.712	64.0244
19.73	64.049
19.748	64.0821
19.766	64.1217
19.784	64.1678
19.802	64.218
19.82	64.2711
19.838	64.326
19.856	64.3804
19.874	64.4339
19.892	64.4833
19.91	64.5288
19.928	64.5669
19.946	64.598
19.964	64.6192
19.982	64.6305
20	64.6306
20.018	64.6184
20.036	64.5944
20.054	64.558
20.072	64.5098
20.09	64.4508
20.108	64.3809
20.126	64.3033
20.144	64.2175
20.162	64.1272
20.18	64.0332
20.198	63.9375
20.216	63.8435
20.234	63.751
20.252	63.6642
20.27	63.5826
20.288	63.509
20.306	63.4439
20.324	63.3878
20.342	63.3417
20.36	63.3052
20.378	63.2782
20.396	63.2608
20.414	63.2511
20.432	63.2495
20.45	63.2539
20.468	63.2637
20.486	63.2778
20.504	63.294
20.522	63.3126
20.54	63.3306
20.558	63.3485
20.576	63.3645
20.594	63.3778
20.612	63.3882
20.63	63.3939
20.648	63.3954
20.666	63.3922
20.684	63.384
20.702	63.371
20.72	63.353
20.738	63.3304
20.756	63.3043
20.774	63.2744
20.792	63.2425
20.81	63.2085
20.828	63.1736
20.846	63.1398
20.864	63.1066
20.882	63.0769
20.9	63.0504
20.918	63.0289
20.936	63.0137
20.954	63.0047
20.972	63.004
20.99	63.0112
21.008	63.0268
21.026	63.0511
21.044	63.0836
21.062	63.1234
21.08	63.1708
21.098	63.223
21.116	63.28
21.134	63.3402
21.152	63.4002
21.17	63.4612
21.188	63.5187
21.206	63.5725
21.224	63.6213
21.242	63.6621
21.26	63.6957
21.278	63.7204
21.296	63.7353
21.314	63.7411
21.332	63.7377
21.35	63.7249
21.368	63.7048
21.386	63.6772
21.404	63.6435
21.422	63.6067
21.44	63.5658
21.458	63.5243
21.476	63.4836
21.494	63.4438
21.512	63.4086
21.53	63.3772
21.548	63.3514
21.566	63.3326
21.584	63.3203
21.602	63.3152
21.62	63.3176
21.638	63.327
21.656	63.3428
21.674	63.3654
21.692	63.3928
21.71	63.4248
21.728	63.4609
21.746	63.4985
21.764	63.5385
21.782	63.5789
21.8	63.6182
21.818	63.657
21.836	63.6933
21.854	63.727
21.872	63.7579
21.89	63.785
21.908	63.8087
21.926	63.8286
21.944	63.8445
21.962	63.8567
21.98	63.8656
21.998	63.8713
22.016	63.8741
22.034	63.8748
22.052	63.873
22.07	63.8698
22.088	63.8659
22.106	63.8609
22.124	63.8562
22.142	63.8518
22.16	63.8479
22.178	63.8456
22.196	63.8445
22.214	63.8452
22.232	63.848
22.25	63.8528
22.268	63.8599
22.286	63.8693
22.304	63.881
22.322	63.8951
22.34	63.9116
22.358	63.9303
22.376	63.9507
22.394	63.9731
22.412	63.9968
22.43	64.021
22.448	64.0461
22.466	64.0713
22.484	64.0957
22.502	64.1198
22.52	64.1426
22.538	64.1637
22.556	64.1833
22.574	64.2007
22.592	64.2158
22.61	64.2286
22.628	64.2387
22.646	64.2462
22.664	64.2511
22.682	64.2536
22.7	64.2535
22.718	64.2511
22.736	64.2467
22.754	64.2401
22.772	64.2318
22.79	64.2221
22.808	64.2108
22.826	64.1983
22.844	64.1849
22.862	64.1704
22.88	64.1551
22.898	64.1392
22.916	64.1226
22.934	64.1053
22.952	64.0876
22.97	64.0693
22.988	64.0503
23.006	64.0305
23.024	64.0099
23.042	63.9887
23.06	63.9667
23.078	63.944
23.096	63.9212
23.114	63.898
23.132	63.8747
23.15	63.8524
23.168	63.8307
23.186	63.8101
23.204	63.7922
23.222	63.7766
23.24	63.7637
23.258	63.7553
23.276	63.7509
23.294	63.7509
23.312	63.7572
23.33	63.7697
23.348	63.7882
23.366	63.8132
23.384	63.8453
23.402	63.8836
23.42	63.9274
23.438	63.9773
23.456	64.0326
23.474	64.0904
23.492	64.151
23.51	64.2143
23.528	64.2764
23.546	64.3372
23.564	64.397
23.582	64.4511
23.6	64.4981
23.618	64.5394
23.636	64.5706
23.654	64.5894
23.672	64.5978
23.69	64.5924
23.708	64.5708
23.726	64.5346
23.744	64.4826
23.762	64.4131
23.78	64.3264
23.798	64.2238
23.816	64.1061
23.834	63.9718
23.852	63.8236
23.87	63.6655
23.888	63.4949
23.906	63.3147
23.924	63.1314
23.942	62.9438
23.96	62.7524
23.978	62.5648
23.996	62.383
24.014	62.2043
24.032	62.036
24.05	61.8826
24.068	61.7402
24.086	61.6135
24.104	61.5073
24.122	61.4192
24.14	61.3503
24.158	61.3028
24.176	61.2773
24.194	61.2723
24.212	61.2863
24.23	61.3202
24.248	61.3735
24.266	61.4418
24.284	61.5232
24.302	61.6205
24.32	61.7278
24.338	61.8397
24.356	61.9608
24.374	62.0861
24.392	62.2075
24.41	62.3269
24.428	62.4439
24.446	62.5515
24.464	62.6467
24.482	62.7326
24.5	62.806
24.518	62.8636
24.536	62.9069
24.554	62.9359
24.572	62.9503
24.59	62.949
24.608	62.9333
24.626	62.9058
24.644	62.8672
24.662	62.816
24.68	62.7561
24.698	62.6907
24.716	62.6174
24.734	62.5384
24.752	62.4574
24.77	62.375
24.788	62.29
24.806	62.2046
24.824	62.1205
24.842	62.0367
24.86	61.9535
24.878	61.8719
24.896	61.7927
24.914	61.7149
24.932	61.6366
24.95	61.5575
24.968	61.4794
24.986	61.3983
25.004	61.3104
25.022	61.2178
25.04	61.1195
25.058	61.0119
25.076	60.8932
25.094	60.7656
25.112	60.6274
25.13	60.4766
25.148	60.3125
25.166	60.1369
25.184	59.9522
25.202	59.7583
25.22	59.5527
25.238	59.3424
25.256	59.1345
25.274	58.924
25.292	58.7136
25.31	58.5121
25.328	58.3243
25.346	58.1439
25.364	57.9774
25.382	57.8327
25.4	57.7077
25.418	57.6016
25.436	57.52
25.454	57.4672
25.472	57.4402
25.49	57.4396
25.508	57.4675
25.526	57.5258
25.544	57.6133
25.562	57.7262
25.58	57.8613
25.598	58.0231
25.616	58.2078
25.634	58.4077
25.652	58.619
25.67	58.8484
25.688	59.0876
25.706	59.3268
25.724	59.5663
25.742	59.8097
25.76	60.0488
25.778	60.2763
25.796	60.4957
25.814	60.7068
25.832	60.9055
25.85	61.0884
25.868	61.2562
25.886	61.412
25.904	61.5586
25.922	61.6944
25.94	61.8179
25.958	61.9368
25.976	62.0588
25.994	62.178
26.012	62.296
26.03	62.4247
26.048	62.5737
26.066	62.731
26.084	62.905
26.102	63.1114
26.12	63.3603
26.138	63.6393
26.156	63.9564
26.174	64.3225
26.192	64.7422
26.21	65.2084
26.228	65.7245
26.246	66.2943
26.264	66.9232
26.282	67.6077
26.3	68.3373
26.318	69.1023
26.336	69.9144
26.354	70.7687
26.372	71.6435
26.39	72.5194
26.408	73.4197
26.426	74.3314
26.444	75.2223
26.462	76.0672
26.48	76.8973
26.498	77.6937
26.516	78.4208
26.534	79.0537
26.552	79.6238
26.57	80.1127
26.588	80.4911
26.606	80.7404
26.624	80.8841
26.642	80.9105
26.66	80.803
26.678	80.5488
26.696	80.1567
26.714	79.6326
26.732	78.9816
26.75	78.2012
26.768	77.2808
26.786	76.2438
26.804	75.1152
26.822	73.8994
26.84	72.5677
26.858	71.1613
26.876	69.7257
26.894	68.2754
26.912	66.7657
26.93	65.2453
26.948	63.7695
26.966	62.3238
26.984	60.7999
27.002	59.3849
27.02	58.2862
27.028	57.9876