File: Bakgrunnsmateriale/MATLAB/FTIR/ftir_data/subAa/Mapping_121/BZ1503107-1_t83_cm-1.asc
PE IR       SPECTRUM    SPECTRUM    ASCII       PEDS        1.60
  -1
BZ6B26~1.ASC
17/04/07
20:02:34.00
17/04/07
20:02:34.00
tln
$BZ1503107-1_t0083$<tbV0>[0.0,5.2,8.0,0.0,27,1,0]
370
64

2002,4.07
MIRTGS : RIGHTBACK : INTERNAL 2
MIR : ON : INTERNAL 2
OPTKBR

0.200000
8
8.000000
FILLER
RATIO
SPECTRUM
UNLOCKED 256

DOUBLE
64
COMBINED
1
0
0

1.000000
RATIO

1
0
TRUE
51149
0
LEFT NOT FITTED RIGHT NOT FITTED 0
NONE
NONE
15600
12
4.427000
51148
TRUE
1 0 8 72 0 0 0 0

15798

#HDR
-1
-1
#GR
CM-1
%T
2.38419e-05
0.0
5000
-1.000000
4631
8
78.435
47.3621
#DATA
5000	64.054
4996	64.9271
4992	65.6342
4988	65.8629
4984	64.6902
4980	63.5271
4976	64.4033
4972	66.0343
4968	66.046
4964	65.6614
4960	66.3959
4956	66.2449
4952	65.2119
4948	65.2439
4944	65.5401
4940	65.3245
4936	65.1267
4932	65.0807
4928	64.8993
4924	64.4683
4920	64.5046
4916	65.1642
4912	65.293
4908	64.8977
4904	64.7695
4900	64.5225
4896	64.2295
4892	64.4376
4888	64.9288
4884	65.1176
4880	64.9384
4876	64.8795
4872	65.0594
4868	65.1354
4864	64.975
4860	64.8042
4856	64.6607
4852	64.5504
4848	64.5519
4844	64.592
4840	64.6324
4836	64.8353
4832	65.0598
4828	64.8893
4824	64.585
4820	64.6093
4816	64.8271
4812	64.8439
4808	64.5496
4804	64.4187
4800	64.6441
4796	64.8865
4792	65.0199
4788	65.0413
4784	65.0159
4780	64.8852
4776	64.7249
4772	64.72
4768	64.8281
4764	64.9658
4760	64.8854
4756	64.7243
4752	64.8735
4748	65.126
4744	65.2349
4740	65.2652
4736	65.2069
4732	65.1839
4728	65.2654
4724	65.3118
4720	65.3616
4716	65.3016
4712	64.9258
4708	64.6656
4704	64.8731
4700	65.1693
4696	65.1809
4692	64.9945
4688	64.8333
4684	64.6566
4680	64.5315
4676	64.6386
4672	64.7657
4668	64.801
4664	64.7552
4660	64.5716
4656	64.5112
4652	64.5353
4648	64.3481
4644	64.2328
4640	64.4131
4636	64.6776
4632	64.9478
4628	65.2115
4624	65.2597
4620	65.051
4616	64.8862
4612	64.8002
4608	64.6087
4604	64.4972
4600	64.4907
4596	64.4904
4592	64.6715
4588	64.8477
4584	64.8427
4580	64.7882
4576	64.765
4572	64.7781
4568	64.7884
4564	64.8385
4560	64.8774
4556	64.7266
4552	64.4811
4548	64.4881
4544	64.7077
4540	64.7264
4536	64.5956
4532	64.4783
4528	64.3501
4524	64.3158
4520	64.3848
4516	64.5203
4512	64.5467
4508	64.4788
4504	64.3743
4500	64.316
4496	64.585
4492	64.9033
4488	64.9198
4484	64.7636
4480	64.3396
4476	63.9483
4472	63.9153
4468	63.9054
4464	63.7564
4460	64.1902
4456	64.5921
4452	64.2709
4448	64.6936
4444	65.3466
4440	66.7397
4436	71.1047
4432	77.4003
4428	76.4651
4424	67.3758
4420	64.4787
4416	68.0823
4412	69.3202
4408	67.0982
4404	64.6616
4400	63.4859
4396	63.2724
4392	63.1056
4388	63.4772
4384	63.8896
4380	63.8505
4376	63.7311
4372	63.8346
4368	64.2512
4364	64.5429
4360	64.5432
4356	64.5997
4352	64.6635
4348	64.5953
4344	64.6457
4340	64.8409
4336	64.8906
4332	64.6674
4328	64.4297
4324	64.4934
4320	64.6769
4316	64.6404
4312	64.5077
4308	64.4662
4304	64.4282
4300	64.4444
4296	64.6878
4292	64.9592
4288	64.9188
4284	64.7719
4280	64.7958
4276	64.9265
4272	65.0354
4268	65.0413
4264	64.9727
4260	64.9047
4256	64.882
4252	64.8324
4248	64.8009
4244	64.9061
4240	64.9544
4236	64.7339
4232	64.5076
4228	64.5551
4224	64.7272
4220	64.6977
4216	64.5826
4212	64.652
4208	64.7007
4204	64.6483
4200	64.6758
4196	64.7809
4192	64.8038
4188	64.831
4184	65.0192
4180	65.1165
4176	64.98
4172	64.9702
4168	65.1578
4164	65.1452
4160	64.9697
4156	64.9101
4152	64.826
4148	64.692
4144	64.5933
4140	64.591
4136	64.7773
4132	64.9549
4128	64.9609
4124	64.9054
4120	64.9661
4116	65.0806
4112	65.1582
4108	65.2496
4104	65.2594
4100	65.2326
4096	65.2281
4092	65.1323
4088	65.0095
4084	64.9725
4080	64.9035
4076	64.7835
4072	64.7685
4068	64.7876
4064	64.8026
4060	64.9153
4056	65.0893
4052	65.2291
4048	65.2802
4044	65.2077
4040	65.0488
4036	64.9981
4032	65.0868
4028	65.0961
4024	64.9798
4020	64.8905
4016	64.9245
4012	65.0315
4008	65.0548
4004	64.9648
4000	64.8078
3996	64.6337
3992	64.6463
3988	64.8203
3984	65.003
3980	65.1845
3976	65.2667
3972	65.2624
3968	65.1874
3964	65.0582
3960	64.9528
3956	64.8468
3952	64.8765
3948	65.0335
3944	64.9738
3940	64.7748
3936	64.7717
3932	64.8196
3928	64.7511
3924	64.6706
3920	64.7038
3916	64.8863
3912	65.0307
3908	65.0312
3904	65.0183
3900	65.0933
3896	65.1747
3892	65.2211
3888	65.2055
3884	65.0264
3880	64.9485
3876	65.0736
3872	65.111
3868	65.0935
3864	65.0532
3860	64.9993
3856	64.9964
3852	64.9455
3848	64.8736
3844	64.8528
3840	64.8669
3836	64.8203
3832	64.69
3828	64.6965
3824	64.8739
3820	64.9148
3816	64.8533
3812	64.8399
3808	64.8444
3804	64.9364
3800	65.0037
3796	64.9622
3792	64.9656
3788	65.0631
3784	65.1404
3780	65.1547
3776	65.0774
3772	64.9398
3768	64.8313
3764	64.7565
3760	64.7839
3756	64.8637
3752	64.9023
3748	64.9501
3744	65.0071
3740	65.0504
3736	65.1119
3732	65.1758
3728	65.1535
3724	65.0501
3720	65.0158
3716	65.1435
3712	65.2882
3708	65.2033
3704	65.0587
3700	65.1579
3696	65.3417
3692	65.3235
3688	65.1786
3684	65.1262
3680	65.0929
3676	65.0726
3672	65.1721
3668	65.2389
3664	65.155
3660	65.0554
3656	65.1011
3652	65.1767
3648	65.1283
3644	65.0796
3640	65.0633
3636	64.9703
3632	64.9029
3628	64.9255
3624	64.9752
3620	65.0727
3616	65.1773
3612	65.2043
3608	65.1651
3604	65.1033
3600	65.0579
3596	65.0469
3592	65.0326
3588	64.9972
3584	64.9566
3580	64.9698
3576	65.0259
3572	65.0601
3568	65.0994
3564	65.0755
3560	64.9434
3556	64.9334
3552	65.0765
3548	65.0558
3544	64.9266
3540	64.9514
3536	65.0888
3532	65.1959
3528	65.2138
3524	65.1687
3520	65.1468
3516	65.1432
3512	65.1066
3508	65.101
3504	65.1198
3500	65.0844
3496	65.0416
3492	65.0017
3488	64.9284
3484	64.9158
3480	65.0043
3476	65.0352
3472	64.9996
3468	65.0069
3464	65.0103
3460	64.9858
3456	65.0177
3452	65.1399
3448	65.1889
3444	65.0477
3440	64.8426
3436	64.7477
3432	64.7694
3428	64.8214
3424	64.8783
3420	64.8864
3416	64.8844
3412	64.8873
3408	64.8617
3404	64.8859
3400	64.9441
3396	65.0125
3392	65.0501
3388	64.9727
3384	64.8734
3380	64.8737
3376	64.8826
3372	64.8205
3368	64.8475
3364	64.9646
3360	65.0151
3356	65.0316
3352	65.0042
3348	64.9775
3344	65.0796
3340	65.1881
3336	65.149
3332	65.0076
3328	64.8894
3324	64.8239
3320	64.7752
3316	64.8189
3312	64.9411
3308	64.9797
3304	64.9405
3300	64.9027
3296	64.935
3292	65.0217
3288	65.0006
3284	64.8783
3280	64.8028
3276	64.8207
3272	64.8334
3268	64.8067
3264	64.8117
3260	64.823
3256	64.8413
3252	64.8954
3248	64.9533
3244	64.9888
3240	65.0045
3236	65.0357
3232	65.0648
3228	65.0437
3224	64.9813
3220	64.9126
3216	64.925
3212	64.975
3208	64.945
3204	64.9103
3200	64.9526
3196	64.9997
3192	64.9022
3188	64.741
3184	64.7235
3180	64.811
3176	64.9088
3172	64.9713
3168	64.9873
3164	65.0346
3160	65.0946
3156	65.0707
3152	65.0459
3148	65.0939
3144	65.0998
3140	64.9968
3136	64.8229
3132	64.6608
3128	64.6523
3124	64.7772
3120	64.8515
3116	64.8644
3112	64.8714
3108	64.8194
3104	64.7763
3100	64.7833
3096	64.7519
3092	64.7359
3088	64.7781
3084	64.8415
3080	64.8793
3076	64.8776
3072	64.888
3068	64.9305
3064	65.0317
3060	65.1062
3056	65.0468
3052	64.9541
3048	64.9188
3044	64.9177
3040	64.9038
3036	64.8429
3032	64.7912
3028	64.7598
3024	64.6995
3020	64.7485
3016	64.9225
3012	64.9734
3008	64.9301
3004	64.9441
3000	64.9352
2996	64.895
2992	64.8532
2988	64.7554
2984	64.694
2980	64.7763
2976	64.8459
2972	64.7873
2968	64.7954
2964	64.8692
2960	64.7856
2956	64.6331
2952	64.6048
2948	64.6491
2944	64.6399
2940	64.6395
2936	64.7674
2932	64.8846
2928	64.863
2924	64.7919
2920	64.7688
2916	64.7588
2912	64.7164
2908	64.7218
2904	64.7346
2900	64.6811
2896	64.6464
2892	64.6533
2888	64.6687
2884	64.668
2880	64.6789
2876	64.7291
2872	64.7712
2868	64.7673
2864	64.7607
2860	64.7483
2856	64.6917
2852	64.6151
2848	64.5535
2844	64.5807
2840	64.6774
2836	64.7359
2832	64.7421
2828	64.7658
2824	64.8338
2820	64.8802
2816	64.8915
2812	64.884
2808	64.8349
2804	64.7992
2800	64.7977
2796	64.7657
2792	64.7594
2788	64.7926
2784	64.7929
2780	64.8301
2776	64.8709
2772	64.8602
2768	64.8627
2764	64.8563
2760	64.8368
2756	64.8317
2752	64.8276
2748	64.8422
2744	64.8817
2740	64.9124
2736	64.8976
2732	64.8352
2728	64.811
2724	64.8594
2720	64.8802
2716	64.8478
2712	64.8046
2708	64.7606
2704	64.7546
2700	64.7765
2696	64.771
2692	64.7719
2688	64.8258
2684	64.8546
2680	64.7989
2676	64.7591
2672	64.7866
2668	64.7936
2664	64.7707
2660	64.766
2656	64.7586
2652	64.7131
2648	64.6527
2644	64.6622
2640	64.7139
2636	64.7179
2632	64.7305
2628	64.7862
2624	64.7905
2620	64.7335
2616	64.7058
2612	64.7204
2608	64.7462
2604	64.7736
2600	64.7782
2596	64.7809
2592	64.7868
2588	64.7291
2584	64.6914
2580	64.749
2576	64.7925
2572	64.7699
2568	64.7313
2564	64.7195
2560	64.7333
2556	64.703
2552	64.6176
2548	64.606
2544	64.6719
2540	64.6817
2536	64.6621
2532	64.678
2528	64.6813
2524	64.6471
2520	64.6288
2516	64.6495
2512	64.6405
2508	64.604
2504	64.6104
2500	64.634
2496	64.6239
2492	64.6016
2488	64.6132
2484	64.6632
2480	64.67
2476	64.5984
2472	64.5312
2468	64.5291
2464	64.5726
2460	64.6489
2456	64.7198
2452	64.7133
2448	64.6638
2444	64.602
2440	64.5528
2436	64.5744
2432	64.618
2428	64.6228
2424	64.6168
2420	64.6089
2416	64.6018
2412	64.6198
2408	64.6453
2404	64.6289
2400	64.5731
2396	64.5415
2392	64.5103
2388	64.4743
2384	64.5158
2380	64.6291
2376	64.6773
2372	64.5866
2368	64.478
2364	64.4568
2360	64.4801
2356	64.4676
2352	64.4382
2348	64.4506
2344	64.5028
2340	64.5354
2336	64.527
2332	64.5443
2328	64.5676
2324	64.5514
2320	64.5254
2316	64.5276
2312	64.5358
2308	64.5073
2304	64.4752
2300	64.4351
2296	64.4113
2292	64.4507
2288	64.4633
2284	64.425
2280	64.4546
2276	64.5148
2272	64.4965
2268	64.4733
2264	64.4991
2260	64.5305
2256	64.5308
2252	64.478
2248	64.4124
2244	64.3926
2240	64.4303
2236	64.5061
2232	64.5747
2228	64.6262
2224	64.6253
2220	64.5143
2216	64.4128
2212	64.4271
2208	64.4766
2204	64.4906
2200	64.4878
2196	64.4909
2192	64.4759
2188	64.4154
2184	64.3409
2180	64.3209
2176	64.3639
2172	64.4133
2168	64.4375
2164	64.4216
2160	64.3776
2156	64.3366
2152	64.3213
2148	64.3734
2144	64.4293
2140	64.415
2136	64.3735
2132	64.3482
2128	64.3769
2124	64.4047
2120	64.3949
2116	64.4234
2112	64.4581
2108	64.4512
2104	64.3756
2100	64.2768
2096	64.278
2092	64.3097
2088	64.2853
2084	64.2262
2080	64.2423
2076	64.3634
2072	64.398
2068	64.3283
2064	64.2639
2060	64.2204
2056	64.2207
2052	64.2467
2048	64.2879
2044	64.327
2040	64.3337
2036	64.35
2032	64.3449
2028	64.327
2024	64.4025
2020	64.4895
2016	64.4507
2012	64.359
2008	64.3029
2004	64.248
2000	64.1742
1996	64.137
1992	64.1594
1988	64.2235
1984	64.3083
1980	64.3258
1976	64.2515
1972	64.2048
1968	64.2362
1964	64.3008
1960	64.3345
1956	64.3211
1952	64.294
1948	64.2616
1944	64.2289
1940	64.1842
1936	64.1357
1932	64.1519
1928	64.2322
1924	64.2723
1920	64.2782
1916	64.3318
1912	64.3631
1908	64.3019
1904	64.2384
1900	64.2298
1896	64.2738
1892	64.3481
1888	64.3691
1884	64.3311
1880	64.2925
1876	64.2765
1872	64.2771
1868	64.2298
1864	64.1551
1860	64.1254
1856	64.1358
1852	64.1883
1848	64.2062
1844	64.1499
1840	64.1356
1836	64.1618
1832	64.1731
1828	64.1798
1824	64.1231
1820	64.0612
1816	64.124
1812	64.203
1808	64.1781
1804	64.0988
1800	64.0598
1796	64.1024
1792	64.1499
1788	64.1388
1784	64.1175
1780	64.0929
1776	64.0439
1772	64.0347
1768	64.0724
1764	64.0878
1760	64.0672
1756	63.9993
1752	63.8887
1748	63.8168
1744	63.7946
1740	63.7858
1736	63.8069
1732	63.84
1728	63.8563
1724	63.8385
1720	63.8296
1716	63.8598
1712	63.8535
1708	63.8191
1704	63.8349
1700	63.8742
1696	63.8964
1692	63.9214
1688	63.932
1684	63.8956
1680	63.8214
1676	63.7704
1672	63.7771
1668	63.8368
1664	63.9323
1660	63.9575
1656	63.8478
1652	63.7727
1648	63.8366
1644	63.8753
1640	63.8062
1636	63.7568
1632	63.8218
1628	63.9408
1624	64.0082
1620	64.0292
1616	63.9993
1612	63.8577
1608	63.7152
1604	63.7071
1600	63.7949
1596	63.8072
1592	63.7393
1588	63.7998
1584	63.9364
1580	63.9764
1576	63.9689
1572	63.9233
1568	63.7972
1564	63.734
1560	63.8178
1556	63.8588
1552	63.7938
1548	63.7247
1544	63.7118
1540	63.81
1536	63.8757
1532	63.8306
1528	63.8171
1524	63.8733
1520	63.911
1516	63.909
1512	63.9001
1508	63.9008
1504	63.8793
1500	63.8239
1496	63.7633
1492	63.6821
1488	63.654
1484	63.6759
1480	63.6911
1476	63.6894
1472	63.625
1468	63.5225
1464	63.4717
1460	63.548
1456	63.6401
1452	63.6415
1448	63.6363
1444	63.6833
1440	63.7634
1436	63.8127
1432	63.7891
1428	63.7375
1424	63.7358
1420	63.7398
1416	63.688
1412	63.59
1408	63.4974
1404	63.4897
1400	63.5364
1396	63.5796
1392	63.6065
1388	63.5836
1384	63.5357
1380	63.5302
1376	63.5487
1372	63.5762
1368	63.5647
1364	63.5109
1360	63.4868
1356	63.4415
1352	63.4543
1348	63.5635
1344	63.6094
1340	63.6205
1336	63.6345
1332	63.626
1328	63.6462
1324	63.6691
1320	63.6354
1316	63.5433
1312	63.4655
1308	63.4665
1304	63.5346
1300	63.5602
1296	63.4708
1292	63.4275
1288	63.4442
1284	63.4008
1280	63.3685
1276	63.3454
1272	63.3531
1268	63.4286
1264	63.4386
1260	63.3612
1256	63.326
1252	63.3846
1248	63.4749
1244	63.4955
1240	63.4585
1236	63.4574
1232	63.438
1228	63.4104
1224	63.4617
1220	63.5056
1216	63.4826
1212	63.4104
1208	63.3445
1204	63.3482
1200	63.3972
1196	63.429
1192	63.3623
1188	63.2813
1184	63.2934
1180	63.3105
1176	63.3019
1172	63.3068
1168	63.319
1164	63.2987
1160	63.2735
1156	63.2966
1152	63.334
1148	63.3543
1144	63.3423
1140	63.35
1136	63.3612
1132	63.3069
1128	63.3181
1124	63.4486
1120	63.4711
1116	63.3322
1112	63.2174
1108	63.18
1104	63.195
1100	63.2299
1096	63.2398
1092	63.2718
1088	63.3398
1084	63.3393
1080	63.2594
1076	63.2725
1072	63.3739
1068	63.3914
1064	63.3664
1060	63.3837
1056	63.351
1052	63.2651
1048	63.208
1044	63.1286
1040	63.0634
1036	63.0597
1032	63.0852
1028	63.1096
1024	63.118
1020	63.1928
1016	63.2411
1012	63.214
1008	63.2784
1004	63.3659
1000	63.3688
996	 63.3363
992	 63.2915
988	 63.2904
984	 63.3882
980	 63.4673
976	 63.3428
972	 63.0933
968	 63.014
964	 63.1235
960	 63.1933
956	 63.2096
952	 63.1422
948	 63.0738
944	 63.2213
940	 63.3215
936	 63.2035
932	 63.151
928	 63.2668
924	 63.3515
920	 63.3065
916	 63.2415
912	 63.1966
908	 63.2101
904	 63.2738
900	 63.2279
896	 63.1738
892	 63.2314
888	 63.2873
884	 63.2714
880	 63.2044
876	 63.2771
872	 63.4712
868	 63.4911
864	 63.35
860	 63.2282
856	 63.113
852	 63.029
848	 63.0717
844	 63.1015
840	 63.1012
836	 63.168
832	 63.1515
828	 63.0977
824	 63.1478
820	 63.1395
816	 63.0586
812	 63.0051
808	 62.9682
804	 62.8975
800	 62.7695
796	 62.7378
792	 62.817
788	 62.8638
784	 62.879
780	 62.9333
776	 63.0251
772	 63.0604
768	 62.9901
764	 62.8885
760	 62.8605
756	 62.9147
752	 62.9911
748	 63.028
744	 63.0391
740	 62.9785
736	 62.8582
732	 62.8504
728	 62.8874
724	 62.8192
720	 62.757
716	 62.8942
712	 63.0276
708	 62.8775
704	 62.746
700	 62.8033
696	 62.8612
692	 63.0081
688	 63.1181
684	 63.0656
680	 63.1388
676	 63.1965
672	 62.9642
668	 62.5714
664	 62.5848
660	 62.9694
656	 62.9216
652	 62.5498
648	 62.3415
644	 62.3612
640	 62.4194
636	 62.3624
632	 62.5156
628	 62.7125
624	 62.5417
620	 62.4377
616	 62.6056
612	 62.8299
608	 62.9979
604	 63.0435
600	 62.8425
596	 62.3394
592	 62.2545
588	 62.8416
584	 63.1432
580	 62.8708
576	 62.5331
572	 62.3816
568	 62.4864
564	 62.5246
560	 62.6719
556	 62.9456
552	 62.6417
548	 62.2238
544	 62.7521
540	 63.5264
536	 62.861
532	 61.2656
528	 60.3966
524	 60.6636
520	 60.9472
516	 61.0633
512	 61.9976
508	 62.9502
504	 63.1277
500	 63.1218
496	 63.2375
492	 63.3049
488	 63.2737
484	 63.5017
480	 63.9503
476	 63.6363
472	 62.2847
468	 61.703
464	 62.8597
460	 63.4231
456	 62.5952
452	 62.6642
448	 63.3972
444	 62.8287
440	 62.3483
436	 63.0401
432	 63.1829
428	 63.0122
424	 63.0808
420	 62.4696
416	 61.815
412	 61.4497
408	 60.7343
404	 59.3555
400	 58.2005
396	 58.8806
392	 59.8104
388	 61.1741
384	 64.8966
380	 61.6783
376	 49.8425
372	 49.8355
370	 56.0812