File: Bakgrunnsmateriale/MATLAB/FTIR/ftir_data/subAa/Mapping_121/BZ1503107-1_t117.asc
PE IR       SPECTRUM    SPECTRUM    ASCII       PEDS        1.60
  -1
BZEABE~1.ASC
17/04/07
22:52:59.00
17/04/07
22:53:25.00
tln
$BZ1503107-1_t0117$<tbV0>[-2.6,13.0,8.0,0.0,27,1,0]
27.028
64

2002,4.07
MIRTGS : RIGHTBACK : INTERNAL 2
MIR : ON : INTERNAL 2
OPTKBR

0.200000
8
8.000000
FILLER
RATIO
SPECTRUM
UNLOCKED 256

DOUBLE
64
COMBINED
1
0
0

0.002000
RATIO

1
0
TRUE
51149
0
LEFT NOT FITTED RIGHT NOT FITTED 0
NONE
NONE
15600
12
4.427000
51148
TRUE
1 0 8 72 0 0 0 0

15798

#HDR
-1
-1
#GR
µM
%T
2.38419e-05
0.0
2.000000
0.002000
12515
8
83.5605
38.889
#DATA
2.000000	 65.3796
2.018000	 65.7999
2.036000	 65.4852
2.054000	 65.2775
2.072000	 64.82
2.090000	 64.576
2.108000	 65.0313
2.126000	 65.1726
2.144000	 64.9538
2.162000	 65.1681
2.180000	 65.1662
2.198000	 64.7382
2.216000	 64.8449
2.234000	 64.5655
2.252000	 61.026
2.270000	 65.7629
2.288000	 65.3298
2.306000	 65.1965
2.324000	 65.0944
2.342000	 65.3311
2.360000	 64.7565
2.378000	 64.9302
2.396000	 64.8519
2.414000	 65.0616
2.432000	 65.0772
2.450000	 64.813
2.468000	 65.1607
2.486000	 65.081
2.504000	 64.9879
2.522000	 64.9425
2.540000	 65.2672
2.558000	 65.0358
2.576000	 65.1312
2.594000	 65.1153
2.612000	 65.1125
2.630000	 65.1113
2.648000	 65.1721
2.666000	 65.1117
2.684000	 65.1991
2.702000	 65.1585
2.720000	 65.0773
2.738000	 65.2133
2.756000	 65.182
2.774000	 65.0313
2.792000	 64.9746
2.810000	 65.1019
2.828000	 65.0055
2.846000	 65.0801
2.864000	 65.0413
2.882000	 64.9777
2.900000	 64.9437
2.918000	 65.1111
2.936000	 64.9727
2.954000	 64.8525
2.972000	 64.9585
2.990000	 65.0655
3.008000	 65.0074
3.026000	 64.8545
3.044000	 64.9114
3.062000	 64.932
3.080000	 64.8828
3.098000	 64.7898
3.116000	 64.8327
3.134000	 64.8981
3.152000	 65.0206
3.170000	 64.8779
3.188000	 64.7359
3.206000	 64.8587
3.224000	 64.7465
3.242000	 64.8425
3.260000	 64.9233
3.278000	 64.7816
3.296000	 64.9108
3.314000	 64.734
3.332000	 64.8546
3.350000	 64.6674
3.368000	 64.4448
3.386000	 64.5538
3.404000	 64.4709
3.422000	 64.4817
3.440000	 64.4946
3.458000	 64.6634
3.476000	 64.6008
3.494000	 64.6008
3.512000	 64.6004
3.530000	 64.6327
3.548000	 64.7121
3.566000	 64.7536
3.584000	 64.5795
3.602000	 64.691
3.620000	 64.7163
3.638000	 64.6639
3.656000	 64.7236
3.674000	 64.6562
3.692000	 64.6548
3.710000	 64.6369
3.728000	 64.722
3.746000	 64.6156
3.764000	 64.5873
3.782000	 64.6379
3.800000	 64.7015
3.818000	 64.5353
3.836000	 64.6727
3.854000	 64.4605
3.872000	 64.5643
3.890000	 64.509
3.908000	 64.5598
3.926000	 64.5156
3.944000	 64.5833
3.962000	 64.5734
3.980000	 64.4692
3.998000	 64.4337
4.016000	 64.4692
4.034000	 64.4819
4.052000	 64.4571
4.070000	 64.5165
4.088000	 64.4358
4.106000	 64.3898
4.124000	 64.3535
4.141999	 64.1733
4.160000	 64.4881
4.178000	 64.3875
4.196000	 64.4405
4.214000	 64.3823
4.232000	 64.3753
4.250000	 64.337
4.268000	 64.3965
4.286000	 64.311
4.304000	 64.3033
4.322000	 64.2496
4.340000	 64.2582
4.358000	 64.2098
4.375999	 64.28
4.394000	 64.2762
4.412000	 64.2993
4.430000	 64.2705
4.448000	 64.2535
4.466000	 64.1899
4.484000	 64.1149
4.502000	 64.2936
4.520000	 64.2528
4.538000	 64.1812
4.556000	 64.2232
4.574000	 64.1965
4.592000	 64.2868
4.609999	 64.194
4.628000	 64.1537
4.646000	 64.1423
4.664000	 64.2462
4.682000	 64.2019
4.700000	 64.1275
4.718000	 64.1785
4.736000	 64.1951
4.754000	 64.099
4.772000	 63.9847
4.790000	 64.072
4.808000	 64.0927
4.826000	 64.0723
4.843999	 63.9747
4.862000	 64.061
4.880000	 64.0517
4.898000	 64.0144
4.916000	 64.0588
4.934000	 64.0409
4.952000	 64.0515
4.970000	 64.0128
4.988000	 64.04
5.006000	 63.9621
5.024000	 63.8257
5.042000	 63.8887
5.060000	 63.9327
5.077999	 63.8919
5.096000	 63.8183
5.114000	 63.7828
5.132000	 63.8342
5.150000	 63.8813
5.168000	 63.9252
5.186000	 63.9084
5.204000	 63.839
5.222000	 63.9113
5.240000	 63.9144
5.258000	 63.8507
5.276000	 63.8114
5.294000	 63.7712
5.312000	 63.8089
5.330000	 63.8651
5.348000	 63.8256
5.366000	 63.8293
5.384000	 63.8265
5.402000	 63.7922
5.420000	 63.7652
5.438000	 63.7296
5.456000	 63.7492
5.474000	 63.7473
5.492000	 63.767
5.510000	 63.7566
5.528000	 63.7675
5.546000	 63.7496
5.564000	 63.661
5.582000	 63.5574
5.600000	 63.6186
5.618000	 63.6971
5.636000	 63.6719
5.654000	 63.5654
5.672000	 63.5076
5.690000	 63.4903
5.708000	 63.4124
5.726000	 63.2128
5.744000	 62.9446
5.762000	 62.7478
5.780000	 62.8685
5.798000	 63.1113
5.816000	 63.2578
5.834000	 63.294
5.852000	 63.3638
5.870000	 63.4794
5.888000	 63.5656
5.906000	 63.6266
5.923999	 63.6079
5.942000	 63.561
5.960000	 63.5587
5.978000	 63.5805
5.996000	 63.545
6.014000	 63.5309
6.032000	 63.5723
6.050000	 63.4914
6.068000	 63.4158
6.086000	 63.4353
6.104000	 63.4437
6.122000	 63.4003
6.140000	 63.3878
6.158000	 63.3707
6.176000	 63.3174
6.194000	 63.292
6.212000	 63.2828
6.230000	 63.2542
6.248000	 63.2567
6.266000	 63.3036
6.284000	 63.3962
6.302000	 63.4108
6.320000	 63.3979
6.338000	 63.3651
6.356000	 63.3256
6.374000	 63.3676
6.392000	 63.4323
6.410000	 63.3849
6.428000	 63.3088
6.446000	 63.3165
6.464000	 63.3209
6.482000	 63.2979
6.500000	 63.3043
6.518000	 63.2829
6.536000	 63.2292
6.554000	 63.2605
6.572000	 63.3301
6.590000	 63.3068
6.608000	 63.2507
6.626000	 63.2649
6.644000	 63.296
6.662000	 63.2645
6.680000	 63.225
6.698000	 63.2468
6.716000	 63.2463
6.734000	 63.177
6.752000	 63.1111
6.770000	 63.1029
6.788000	 63.1402
6.806000	 63.1933
6.824000	 63.224
6.842000	 63.1794
6.860000	 63.0994
6.878000	 63.0583
6.896000	 63.0439
6.914000	 63.0573
6.932000	 63.0922
6.950000	 63.0923
6.968000	 63.0664
6.986000	 63.0486
7.004000	 63.0384
7.022000	 63.0516
7.040000	 63.0959
7.058000	 63.1449
7.076000	 63.1459
7.094000	 63.0806
7.112000	 63.0152
7.130000	 62.9837
7.148000	 62.9602
7.166000	 62.9573
7.184000	 62.9869
7.202000	 63.0209
7.220000	 63.0403
7.238000	 63.0416
7.256000	 63.0241
7.274000	 62.9971
7.292000	 62.9786
7.310000	 62.9888
7.328000	 63.0366
7.346000	 63.0735
7.364000	 63.0516
7.382000	 63.0373
7.400000	 63.0933
7.418000	 63.1493
7.436000	 63.1463
7.454000	 63.1171
7.472000	 63.0905
7.490000	 63.0714
7.508000	 63.0635
7.526000	 63.0549
7.544000	 63.026
7.562000	 62.9613
7.580000	 62.8839
7.598000	 62.8559
7.616000	 62.8826
7.634000	 62.9114
7.652000	 62.9377
7.670000	 62.9825
7.688000	 63.0082
7.706000	 62.9753
7.724000	 62.909
7.742000	 62.8588
7.760000	 62.8508
7.778000	 62.877
7.796000	 62.8959
7.814000	 62.8787
7.832000	 62.8468
7.850000	 62.8308
7.868000	 62.8159
7.886000	 62.7665
7.904000	 62.6894
7.922000	 62.6265
7.940000	 62.5952
7.958000	 62.5743
7.976000	 62.5515
7.994000	 62.5473
8.012000	 62.5798
8.030000	 62.6322
8.048000	 62.6692
8.065999	 62.6762
8.084000	 62.6659
8.102000	 62.6523
8.120000	 62.6419
8.138000	 62.6488
8.155999	 62.6822
8.173999	 62.7226
8.192000	 62.7421
8.210000	 62.7483
8.228000	 62.7747
8.246000	 62.8173
8.263999	 62.8248
8.282000	 62.7679
8.300000	 62.688
8.318000	 62.6471
8.336000	 62.6557
8.353999	 62.6735
8.372000	 62.6609
8.390000	 62.613
8.408000	 62.5505
8.426000	 62.4998
8.443999	 62.4743
8.462000	 62.4625
8.480000	 62.4406
8.498000	 62.4053
8.516000	 62.3806
8.533999	 62.3867
8.552000	 62.4148
8.570000	 62.4427
8.588000	 62.4608
8.606000	 62.472
8.624000	 62.4779
8.641999	 62.4802
8.660000	 62.4867
8.678000	 62.5032
8.696000	 62.5223
8.714000	 62.5352
8.731999	 62.5469
8.750000	 62.5629
8.768000	 62.5742
8.786000	 62.5722
8.804000	 62.5668
8.821999	 62.5779
8.840000	 62.6109
8.858000	 62.6466
8.876000	 62.6553
8.894000	 62.6264
8.911999	 62.5779
8.930000	 62.5346
8.948000	 62.5108
8.966000	 62.5146
8.984000	 62.5446
9.001999	 62.5842
9.020000	 62.6173
9.038000	 62.6464
9.056000	 62.6801
9.074000	 62.7109
9.092000	 62.7165
9.109999	 62.6806
9.128000	 62.6078
9.146000	 62.5211
9.164000	 62.4485
9.182000	 62.4128
9.199999	 62.4259
9.218000	 62.4841
9.236000	 62.566
9.254000	 62.6393
9.272000	 62.6768
9.289999	 62.6686
9.308000	 62.6232
9.326000	 62.5594
9.344000	 62.4992
9.362000	 62.4599
9.379999	 62.4484
9.398000	 62.4581
9.416000	 62.4744
9.434000	 62.4845
9.452000	 62.483
9.469999	 62.4736
9.488000	 62.4659
9.506000	 62.4704
9.524000	 62.4917
9.542000	 62.5237
9.560000	 62.5487
9.577999	 62.544
9.596000	 62.4962
9.614000	 62.412
9.632000	 62.3192
9.650000	 62.254
9.667999	 62.2409
9.686000	 62.28
9.704000	 62.3485
9.722000	 62.4163
9.740000	 62.4617
9.757999	 62.4784
9.776000	 62.4708
9.794000	 62.4472
9.812000	 62.417
9.830000	 62.3907
9.847999	 62.3797
9.866000	 62.3915
9.884000	 62.4237
9.902000	 62.4629
9.920000	 62.4907
9.937999	 62.4939
9.956000	 62.4717
9.974000	 62.4353
9.992000	 62.3987
10.01	62.372
10.028	62.3586
10.046	62.3569
10.064	62.3656
10.082	62.3847
10.1	62.4127
10.118	62.4435
10.136	62.4658
10.154	62.4692
10.172	62.4499
10.19	62.4155
10.208	62.3821
10.226	62.3651
10.244	62.3709
10.262	62.3909
10.28	62.4072
10.298	62.4019
10.316	62.3676
10.334	62.3111
10.352	62.2485
10.37	62.1965
10.388	62.1642
10.406	62.1518
10.424	62.1555
10.442	62.1723
10.46	62.204
10.478	62.2544
10.496	62.3242
10.514	62.4078
10.532	62.4918
10.55	62.5585
10.568	62.5919
10.586	62.5838
10.604	62.5386
10.622	62.4724
10.64	62.4076
10.658	62.3634
10.676	62.3484
10.694	62.3569
10.712	62.3733
10.73	62.38
10.748	62.3669
10.766	62.336
10.784	62.2991
10.802	62.2732
10.82	62.2717
10.838	62.2993
10.856	62.3504
10.874	62.41
10.892	62.4598
10.91	62.4836
10.928	62.4725
10.946	62.4278
10.964	62.3607
10.982	62.289
11	62.231
11.018	62.2019
11.036	62.2075
11.054	62.2449
11.072	62.304
11.09	62.3701
11.108	62.4297
11.126	62.4718
11.144	62.491
11.162	62.4867
11.18	62.4621
11.198	62.4237
11.216	62.38
11.234	62.3402
11.252	62.313
11.27	62.3024
11.288	62.3072
11.306	62.3208
11.324	62.3323
11.342	62.332
11.36	62.3152
11.378	62.2843
11.396	62.2474
11.414	62.2154
11.432	62.1969
11.45	62.1947
11.468	62.206
11.486	62.2254
11.504	62.2464
11.522	62.2635
11.54	62.2734
11.558	62.2744
11.576	62.2674
11.594	62.2566
11.612	62.2497
11.63	62.2557
11.648	62.2814
11.666	62.3288
11.684	62.3921
11.702	62.4589
11.72	62.5133
11.738	62.541
11.756	62.5354
11.774	62.4982
11.792	62.4387
11.81	62.3696
11.828	62.3027
11.846	62.2469
11.864	62.2062
11.882	62.181
11.9	62.1697
11.918	62.1696
11.936	62.1791
11.954	62.1977
11.972	62.2249
11.99	62.2593
12.008	62.2971
12.026	62.3329
12.044	62.3598
12.062	62.3719
12.08	62.3666
12.098	62.3455
12.116	62.3149
12.134	62.2838
12.152	62.2611
12.17	62.2521
12.188	62.258
12.206	62.2743
12.224	62.2937
12.242	62.3087
12.26	62.3144
12.278	62.3098
12.296	62.2973
12.314	62.2815
12.332	62.2673
12.35	62.2591
12.368	62.2594
12.386	62.2686
12.404	62.2848
12.422	62.3041
12.44	62.3215
12.458	62.3327
12.476	62.3346
12.494	62.3262
12.512	62.3093
12.53	62.2867
12.548	62.2621
12.566	62.2381
12.584	62.2163
12.602	62.1969
12.62	62.1792
12.638	62.1628
12.656	62.1471
12.674	62.1323
12.692	62.1188
12.71	62.106
12.728	62.0924
12.746	62.0755
12.764	62.0531
12.782	62.0246
12.8	61.9915
12.818	61.9578
12.836	61.9287
12.854	61.9091
12.872	61.9019
12.89	61.907
12.908	61.9214
12.926	61.9398
12.944	61.9562
12.962	61.9657
12.98	61.966
12.998	61.9576
13.016	61.9434
13.034	61.928
13.052	61.9162
13.07	61.9115
13.088	61.9157
13.106	61.9288
13.124	61.9494
13.142	61.9753
13.16	62.0039
13.178	62.0327
13.196	62.0596
13.214	62.0825
13.232	62.099
13.25	62.1071
13.268	62.1048
13.286	62.0911
13.304	62.066
13.322	62.0313
13.34	61.9902
13.358	61.9474
13.376	61.9076
13.394	61.8755
13.412	61.8543
13.43	61.8457
13.448	61.8493
13.466	61.8626
13.484	61.8822
13.502	61.9043
13.52	61.9252
13.538	61.9422
13.556	61.9533
13.574	61.9583
13.592	61.9578
13.61	61.9535
13.628	61.9471
13.646	61.9409
13.664	61.9359
13.682	61.9331
13.7	61.9317
13.718	61.9309
13.736	61.9284
13.754	61.9219
13.772	61.9095
13.79	61.8896
13.808	61.8623
13.826	61.8289
13.844	61.7922
13.862	61.7556
13.88	61.7227
13.898	61.6966
13.916	61.6789
13.934	61.6691
13.952	61.6648
13.97	61.6626
13.988	61.6585
14.006	61.649
14.024	61.6323
14.042	61.6089
14.06	61.5815
14.078	61.5543
14.096	61.5321
14.114	61.5187
14.132	61.516
14.15	61.5233
14.168	61.538
14.186	61.5557
14.204	61.5708
14.222	61.5784
14.24	61.5759
14.258	61.5632
14.276	61.543
14.294	61.5202
14.312	61.5007
14.33	61.4903
14.348	61.4935
14.366	61.5125
14.384	61.5463
14.402	61.591
14.42	61.6413
14.438	61.6917
14.456	61.7371
14.474	61.774
14.492	61.8007
14.51	61.8182
14.528	61.8294
14.546	61.8377
14.564	61.8456
14.582	61.8543
14.6	61.8634
14.618	61.8703
14.636	61.8707
14.654	61.8598
14.672	61.8337
14.69	61.79
14.708	61.7283
14.726	61.6508
14.744	61.5629
14.762	61.4712
14.78	61.383
14.798	61.3049
14.816	61.2428
14.834	61.2006
14.852	61.1793
14.87	61.1773
14.888	61.1914
14.906	61.2172
14.924	61.2502
14.942	61.2853
14.96	61.3196
14.978	61.3521
14.996	61.383
15.014	61.414
15.032	61.4483
15.05	61.4889
15.068	61.5379
15.086	61.5965
15.104	61.6647
15.122	61.7404
15.14	61.82
15.158	61.8993
15.176	61.9738
15.194	62.0388
15.212	62.0901
15.23	62.1253
15.248	62.1425
15.266	62.1411
15.284	62.1217
15.302	62.0862
15.32	62.0366
15.338	61.9754
15.356	61.9052
15.374	61.8291
15.392	61.7492
15.41	61.6678
15.428	61.587
15.446	61.509
15.464	61.4356
15.482	61.3686
15.5	61.3093
15.518	61.2584
15.536	61.2161
15.554	61.1826
15.572	61.1574
15.59	61.1402
15.608	61.1309
15.626	61.1292
15.644	61.1354
15.662	61.1493
15.68	61.1709
15.698	61.2003
15.716	61.2372
15.734	61.2806
15.752	61.3294
15.77	61.3821
15.788	61.437
15.806	61.493
15.824	61.5491
15.842	61.6045
15.86	61.6586
15.878	61.7112
15.896	61.7621
15.914	61.8106
15.932	61.8552
15.95	61.8944
15.968	61.9255
15.986	61.9449
16.004	61.9503
16.022	61.9392
16.04	61.9094
16.058	61.8616
16.076	61.7969
16.094	61.7191
16.112	61.6347
16.13	61.5492
16.148	61.4711
16.166	61.4091
16.184	61.3681
16.202	61.3533
16.22	61.3668
16.238	61.4065
16.256	61.4702
16.274	61.5499
16.292	61.6382
16.31	61.7283
16.328	61.8094
16.346	61.8759
16.364	61.9232
16.382	61.9474
16.4	61.9496
16.418	61.9308
16.436	61.8956
16.454	61.8492
16.472	61.7955
16.49	61.741
16.508	61.6887
16.526	61.641
16.544	61.599
16.562	61.561
16.58	61.5257
16.598	61.4887
16.616	61.4471
16.634	61.3984
16.652	61.3394
16.67	61.2704
16.688	61.1912
16.706	61.1052
16.724	61.0153
16.742	60.926
16.76	60.844
16.778	60.7726
16.796	60.7183
16.814	60.6843
16.832	60.6722
16.85	60.6834
16.868	60.7156
16.886	60.7675
16.904	60.8327
16.922	60.9067
16.94	60.9837
16.958	61.0553
16.976	61.1182
16.994	61.1647
17.012	61.1925
17.03	61.199
17.048	61.1838
17.066	61.1485
17.084	61.0951
17.102	61.0293
17.12	60.9537
17.138	60.8754
17.156	60.7979
17.174	60.7251
17.192	60.6608
17.21	60.6058
17.228	60.5613
17.246	60.5256
17.264	60.4979
17.282	60.4744
17.3	60.4537
17.318	60.4322
17.336	60.4086
17.354	60.3817
17.372	60.3518
17.39	60.32
17.408	60.2889
17.426	60.2628
17.444	60.244
17.462	60.2398
17.48	60.2519
17.498	60.2855
17.516	60.3415
17.534	60.422
17.552	60.5253
17.57	60.6506
17.588	60.7925
17.606	60.9473
17.624	61.1096
17.642	61.2714
17.66	61.429
17.678	61.5733
17.696	61.7024
17.714	61.8091
17.732	61.8921
17.75	61.9485
17.768	61.9786
17.786	61.9819
17.804	61.9612
17.822	61.9177
17.84	61.8559
17.858	61.7789
17.876	61.6905
17.894	61.5958
17.912	61.4971
17.93	61.4003
17.948	61.3066
17.966	61.2208
17.984	61.1435
18.002	61.0778
18.02	61.024
18.038	60.9831
18.056	60.9549
18.074	60.9394
18.092	60.9352
18.11	60.9417
18.128	60.9568
18.146	60.9798
18.164	61.0083
18.182	61.0413
18.2	61.0774
18.218	61.1154
18.236	61.1545
18.254	61.1944
18.272	61.2349
18.29	61.2763
18.308	61.3187
18.326	61.3629
18.344	61.4092
18.362	61.4584
18.38	61.5106
18.398	61.5657
18.416	61.6232
18.434	61.683
18.452	61.743
18.47	61.8024
18.488	61.858
18.506	61.909
18.524	61.9509
18.542	61.983
18.56	62.001
18.578	62.0047
18.596	61.991
18.614	61.9596
18.632	61.9103
18.65	61.8433
18.668	61.7608
18.686	61.6634
18.704	61.5555
18.722	61.4384
18.74	61.3176
18.758	61.1944
18.776	61.075
18.794	60.9604
18.812	60.8558
18.83	60.7618
18.848	60.6816
18.866	60.6153
18.884	60.5642
18.902	60.5275
18.92	60.505
18.938	60.495
18.956	60.496
18.974	60.5061
18.992	60.5229
19.01	60.5447
19.028	60.5684
19.046	60.5927
19.064	60.6147
19.082	60.6336
19.1	60.6469
19.118	60.6545
19.136	60.6552
19.154	60.6492
19.172	60.6365
19.19	60.6177
19.208	60.5944
19.226	60.5671
19.244	60.5385
19.262	60.5088
19.28	60.4815
19.298	60.4566
19.316	60.4378
19.334	60.4247
19.352	60.42
19.37	60.4236
19.388	60.4364
19.406	60.4586
19.424	60.489
19.442	60.5279
19.46	60.5728
19.478	60.6237
19.496	60.6774
19.514	60.7334
19.532	60.7887
19.55	60.8418
19.568	60.8913
19.586	60.9347
19.604	60.972
19.622	61.0013
19.64	61.0228
19.658	61.0361
19.676	61.0415
19.694	61.04
19.712	61.0317
19.73	61.0188
19.748	61.0012
19.766	60.9809
19.784	60.9584
19.802	60.9348
19.82	60.9111
19.838	60.8875
19.856	60.8649
19.874	60.8431
19.892	60.8225
19.91	60.803
19.928	60.7844
19.946	60.7667
19.964	60.7499
19.982	60.7338
20	60.7188
20.018	60.7051
20.036	60.693
20.054	60.6829
20.072	60.6748
20.09	60.6694
20.108	60.6666
20.126	60.6668
20.144	60.6701
20.162	60.6761
20.18	60.685
20.198	60.6962
20.216	60.7091
20.234	60.7237
20.252	60.7384
20.27	60.7535
20.288	60.7672
20.306	60.7794
20.324	60.7891
20.342	60.7952
20.36	60.7978
20.378	60.7955
20.396	60.7887
20.414	60.7767
20.432	60.7595
20.45	60.7374
20.468	60.7102
20.486	60.6785
20.504	60.6431
20.522	60.604
20.54	60.563
20.558	60.5196
20.576	60.4759
20.594	60.4325
20.612	60.39
20.63	60.3503
20.648	60.313
20.666	60.2801
20.684	60.2516
20.702	60.2283
20.72	60.2109
20.738	60.1992
20.756	60.194
20.774	60.195
20.792	60.202
20.81	60.2151
20.828	60.2337
20.846	60.2572
20.864	60.2856
20.882	60.3175
20.9	60.3532
20.918	60.3915
20.936	60.4314
20.954	60.4731
20.972	60.5146
20.99	60.5564
21.008	60.5971
21.026	60.6364
21.044	60.6741
21.062	60.7095
21.08	60.7427
21.098	60.7733
21.116	60.8012
21.134	60.8264
21.152	60.8488
21.17	60.8685
21.188	60.8854
21.206	60.8998
21.224	60.9115
21.242	60.9207
21.26	60.9273
21.278	60.9316
21.296	60.9335
21.314	60.9329
21.332	60.9299
21.35	60.9243
21.368	60.9164
21.386	60.9061
21.404	60.8933
21.422	60.8783
21.44	60.8608
21.458	60.8413
21.476	60.8197
21.494	60.7961
21.512	60.7709
21.53	60.7439
21.548	60.7154
21.566	60.6858
21.584	60.6549
21.602	60.6231
21.62	60.5905
21.638	60.5572
21.656	60.5235
21.674	60.4892
21.692	60.4549
21.71	60.4206
21.728	60.3866
21.746	60.3531
21.764	60.3201
21.782	60.2882
21.8	60.2578
21.818	60.2286
21.836	60.2021
21.854	60.178
21.872	60.1568
21.89	60.1395
21.908	60.1257
21.926	60.1163
21.944	60.112
21.962	60.1122
21.98	60.1175
21.998	60.1278
22.016	60.143
22.034	60.1625
22.052	60.1869
22.07	60.2146
22.088	60.2446
22.106	60.2775
22.124	60.3102
22.142	60.3425
22.16	60.374
22.178	60.4008
22.196	60.4241
22.214	60.4418
22.232	60.451
22.25	60.4528
22.268	60.4454
22.286	60.4271
22.304	60.3988
22.322	60.3599
22.34	60.3097
22.358	60.249
22.376	60.1794
22.394	60.0999
22.412	60.0126
22.43	59.9203
22.448	59.8215
22.466	59.7197
22.484	59.6178
22.502	59.514
22.52	59.4126
22.538	59.3154
22.556	59.2214
22.574	59.134
22.592	59.0538
22.61	58.9806
22.628	58.916
22.646	58.8604
22.664	58.8131
22.682	58.774
22.7	58.7435
22.718	58.7204
22.736	58.7031
22.754	58.6927
22.772	58.6871
22.79	58.6845
22.808	58.6859
22.826	58.6894
22.844	58.6937
22.862	58.6995
22.88	58.7054
22.898	58.7106
22.916	58.7156
22.934	58.7203
22.952	58.7245
22.97	58.7284
22.988	58.7329
23.006	58.7376
23.024	58.7428
23.042	58.7504
23.06	58.7602
23.078	58.7723
23.096	58.7887
23.114	58.8092
23.132	58.8339
23.15	58.8641
23.168	58.9001
23.186	58.9415
23.204	58.9883
23.222	59.041
23.24	59.099
23.258	59.1609
23.276	59.2275
23.294	59.2978
23.312	59.3699
23.33	59.4442
23.348	59.5201
23.366	59.5946
23.384	59.6681
23.402	59.7403
23.42	59.8081
23.438	59.8718
23.456	59.9312
23.474	59.9841
23.492	60.0299
23.51	60.0693
23.528	60.1012
23.546	60.1251
23.564	60.1415
23.582	60.1504
23.6	60.1517
23.618	60.1453
23.636	60.1322
23.654	60.1124
23.672	60.0856
23.69	60.0537
23.708	60.0176
23.726	59.9763
23.744	59.9322
23.762	59.8872
23.78	59.8399
23.798	59.7923
23.816	59.747
23.834	59.7025
23.852	59.6603
23.87	59.6227
23.888	59.5886
23.906	59.5589
23.924	59.5359
23.942	59.5195
23.96	59.5096
23.978	59.508
23.996	59.5157
24.014	59.5317
24.032	59.5569
24.05	59.592
24.068	59.6367
24.086	59.6905
24.104	59.7531
24.122	59.8248
24.14	59.9051
24.158	59.9933
24.176	60.0899
24.194	60.1943
24.212	60.3048
24.23	60.4215
24.248	60.5446
24.266	60.6716
24.284	60.8012
24.302	60.9351
24.32	61.07
24.338	61.2029
24.356	61.3365
24.374	61.4678
24.392	61.5924
24.41	61.7118
24.428	61.8255
24.446	61.9288
24.464	62.0202
24.482	62.1018
24.5	62.1701
24.518	62.2222
24.536	62.26
24.554	62.2823
24.572	62.2869
24.59	62.2735
24.608	62.243
24.626	62.1959
24.644	62.1317
24.662	62.0502
24.68	61.9536
24.698	61.8437
24.716	61.7183
24.734	61.58
24.752	61.4333
24.77	61.2776
24.788	61.1123
24.806	60.942
24.824	60.7695
24.842	60.5917
24.86	60.4123
24.878	60.2361
24.896	60.0622
24.914	59.8903
24.932	59.723
24.95	59.562
24.968	59.406
24.986	59.2555
25.004	59.1112
25.022	58.9739
25.04	58.8424
25.058	58.7146
25.076	58.59
25.094	58.4701
25.112	58.3514
25.13	58.2304
25.148	58.1096
25.166	57.9875
25.184	57.8596
25.202	57.724
25.22	57.5835
25.238	57.4351
25.256	57.2759
25.274	57.1068
25.292	56.9281
25.31	56.7383
25.328	56.5363
25.346	56.3226
25.364	56.0981
25.382	55.8636
25.4	55.618
25.418	55.3619
25.436	55.0979
25.454	54.8276
25.472	54.5486
25.49	54.2635
25.508	53.9755
25.526	53.6858
25.544	53.3926
25.562	53.0972
25.58	52.801
25.598	52.5041
25.616	52.2058
25.634	51.9051
25.652	51.6019
25.67	51.2978
25.688	50.9899
25.706	50.6752
25.724	50.3541
25.742	50.0275
25.76	49.6925
25.778	49.346
25.796	48.9897
25.814	48.6233
25.832	48.2453
25.85	47.8542
25.868	47.45
25.886	47.0347
25.904	46.6106
25.922	46.1759
25.94	45.7292
25.958	45.2785
25.976	44.8318
25.994	44.383
26.012	43.9338
26.03	43.4959
26.048	43.0792
26.066	42.6739
26.084	42.2855
26.102	41.9254
26.12	41.6008
26.138	41.3027
26.156	41.037
26.174	40.8122
26.192	40.6317
26.21	40.4902
26.228	40.3901
26.246	40.334
26.264	40.3245
26.282	40.3593
26.3	40.434
26.318	40.5443
26.336	40.696
26.354	40.8863
26.372	41.1039
26.39	41.339
26.408	41.6026
26.426	41.8887
26.444	42.1821
26.462	42.4709
26.48	42.7698
26.498	43.0696
26.516	43.3538
26.534	43.6104
26.552	43.8537
26.57	44.0758
26.588	44.2637
26.606	44.4092
26.624	44.5219
26.642	44.5977
26.66	44.6305
26.678	44.6157
26.696	44.5561
26.714	44.4544
26.732	44.313
26.75	44.1316
26.768	43.906
26.786	43.6443
26.804	43.3549
26.822	43.0397
26.84	42.6891
26.858	42.3162
26.876	41.936
26.894	41.5534
26.912	41.1546
26.93	40.7537
26.948	40.3671
26.966	39.9931
26.984	39.6035
27.002	39.2438
27.02	38.965
27.028	38.889