File: Bakgrunnsmateriale/MATLAB/FTIR/ftir_data/subAa/Mapping_121/BZ1503107-1_t70.asc
PE IR       SPECTRUM    SPECTRUM    ASCII       PEDS        1.60
  -1
BZ294F~1.ASC
17/04/07
19:01:54.00
17/04/07
19:02:20.00
tln
$BZ1503107-1_t0070$<tbV0>[5.2,2.6,8.0,0.0,27,1,0]
27.028
64

2002,4.07
MIRTGS : RIGHTBACK : INTERNAL 2
MIR : ON : INTERNAL 2
OPTKBR

0.200000
8
8.000000
FILLER
RATIO
SPECTRUM
UNLOCKED 256

DOUBLE
64
COMBINED
1
0
0

0.002000
RATIO

1
0
TRUE
51149
0
LEFT NOT FITTED RIGHT NOT FITTED 0
NONE
NONE
15600
12
4.427000
51148
TRUE
1 0 8 72 0 0 0 0

15798

#HDR
-1
-1
#GR
µM
%T
2.38419e-05
0.0
2.000000
0.002000
12515
8
68.3839
27.5952
#DATA
2.000000	 65.3708
2.018000	 64.9962
2.036000	 65.1879
2.054000	 64.7658
2.072000	 64.216
2.090000	 64.5505
2.108000	 64.4348
2.126000	 64.3664
2.144000	 64.8355
2.162000	 65.1207
2.180000	 65.5223
2.198000	 64.9203
2.216000	 66.2727
2.234000	 65.7213
2.252000	 66.4658
2.270000	 55.3168
2.288000	 65.6755
2.306000	 66.0484
2.324000	 65.4624
2.342000	 65.4807
2.360000	 65.066
2.378000	 64.9809
2.396000	 64.7305
2.414000	 64.6658
2.432000	 64.8423
2.450000	 64.5859
2.468000	 64.8107
2.486000	 64.9192
2.504000	 64.9512
2.522000	 64.8733
2.540000	 64.9037
2.558000	 65.225
2.576000	 64.9322
2.594000	 65.1243
2.612000	 64.9592
2.630000	 65.0619
2.648000	 65.1945
2.666000	 64.5964
2.684000	 65.1212
2.702000	 65.1436
2.720000	 65.1939
2.738000	 64.9305
2.756000	 64.8256
2.774000	 64.9046
2.792000	 64.9773
2.810000	 64.9601
2.828000	 65.084
2.846000	 65.0107
2.864000	 64.9913
2.882000	 65.1471
2.900000	 65.1936
2.918000	 64.96
2.936000	 64.9685
2.954000	 65.0531
2.972000	 65.0399
2.990000	 65.103
3.008000	 64.9648
3.026000	 65.0914
3.044000	 64.8023
3.062000	 65.0233
3.080000	 65.0245
3.098000	 64.9566
3.116000	 65.0367
3.134000	 64.9412
3.152000	 65.0115
3.170000	 65.0893
3.188000	 64.9864
3.206000	 64.9273
3.224000	 64.8823
3.242000	 64.9597
3.260000	 65.0193
3.278000	 64.9048
3.296000	 64.8689
3.314000	 64.9203
3.332000	 64.8586
3.350000	 64.8345
3.368000	 64.7866
3.386000	 64.7938
3.404000	 64.8301
3.422000	 64.7298
3.440000	 64.9095
3.458000	 64.6885
3.476000	 64.7809
3.494000	 64.7586
3.512000	 64.8099
3.530000	 64.6844
3.548000	 64.9363
3.566000	 64.785
3.584000	 64.7438
3.602000	 64.8762
3.620000	 64.9255
3.638000	 64.8205
3.656000	 64.8631
3.674000	 64.7603
3.692000	 64.8192
3.710000	 64.8257
3.728000	 64.9591
3.746000	 64.8129
3.764000	 64.7764
3.782000	 64.8007
3.800000	 64.7124
3.818000	 64.8755
3.836000	 64.7598
3.854000	 64.7961
3.872000	 64.7698
3.890000	 64.7908
3.908000	 64.8278
3.926000	 64.8345
3.944000	 64.8456
3.962000	 64.7902
3.980000	 64.6408
3.998000	 64.7567
4.016000	 64.7894
4.034000	 64.8351
4.052000	 64.7021
4.070000	 64.6837
4.088000	 64.8071
4.106000	 64.7429
4.124000	 64.5453
4.141999	 64.7598
4.160000	 64.629
4.178000	 64.5601
4.196000	 64.675
4.214000	 64.619
4.232000	 64.6819
4.250000	 64.639
4.268000	 64.6197
4.286000	 64.7441
4.304000	 64.6136
4.322000	 64.6166
4.340000	 64.6156
4.358000	 64.4565
4.375999	 64.5397
4.394000	 64.642
4.412000	 64.6793
4.430000	 64.6496
4.448000	 64.5978
4.466000	 64.5565
4.484000	 64.6078
4.502000	 64.6296
4.520000	 64.5992
4.538000	 64.4876
4.556000	 64.5541
4.574000	 64.6007
4.592000	 64.6203
4.609999	 64.5965
4.628000	 64.4831
4.646000	 64.4033
4.664000	 64.4472
4.682000	 64.5473
4.700000	 64.5425
4.718000	 64.4259
4.736000	 64.5569
4.754000	 64.6211
4.772000	 64.576
4.790000	 64.4826
4.808000	 64.5111
4.826000	 64.4991
4.843999	 64.4215
4.862000	 64.4172
4.880000	 64.4425
4.898000	 64.419
4.916000	 64.5054
4.934000	 64.4577
4.952000	 64.4515
4.970000	 64.4565
4.988000	 64.442
5.006000	 64.3592
5.024000	 64.343
5.042000	 64.4413
5.060000	 64.3982
5.077999	 64.3958
5.096000	 64.4885
5.114000	 64.4241
5.132000	 64.3941
5.150000	 64.4308
5.168000	 64.3738
5.186000	 64.3045
5.204000	 64.3453
5.222000	 64.3423
5.240000	 64.3151
5.258000	 64.2784
5.276000	 64.2092
5.294000	 64.282
5.312000	 64.3049
5.330000	 64.2935
5.348000	 64.2861
5.366000	 64.3129
5.384000	 64.284
5.402000	 64.2658
5.420000	 64.2456
5.438000	 64.2446
5.456000	 64.2508
5.474000	 64.1719
5.492000	 64.2279
5.510000	 64.3133
5.528000	 64.2279
5.546000	 64.1983
5.564000	 64.311
5.582000	 64.3695
5.600000	 64.3076
5.618000	 64.2954
5.636000	 64.3339
5.654000	 64.3845
5.672000	 64.3627
5.690000	 64.2512
5.708000	 64.0958
5.726000	 64.085
5.744000	 64.0625
5.762000	 63.9916
5.780000	 63.9334
5.798000	 63.9614
5.816000	 64.0658
5.834000	 64.1329
5.852000	 64.129
5.870000	 64.1101
5.888000	 64.07
5.906000	 64.0836
5.923999	 64.0692
5.942000	 64.0248
5.960000	 64.0995
5.978000	 64.065
5.996000	 64.0383
6.014000	 64.0138
6.032000	 64.0081
6.050000	 64.0653
6.068000	 64.1141
6.086000	 64.0984
6.104000	 63.9976
6.122000	 63.9752
6.140000	 64.0911
6.158000	 64.154
6.176000	 64.1926
6.194000	 64.2087
6.212000	 64.1057
6.230000	 64.0024
6.248000	 64.0155
6.266000	 64.0158
6.284000	 63.9488
6.302000	 63.9679
6.320000	 64.0009
6.338000	 63.9807
6.356000	 63.9748
6.374000	 63.9358
6.392000	 63.8823
6.410000	 63.8999
6.428000	 64.0103
6.446000	 64.0376
6.464000	 63.9713
6.482000	 64.032
6.500000	 64.0871
6.518000	 64.0266
6.536000	 63.9888
6.554000	 64.0096
6.572000	 64.0674
6.590000	 64.0948
6.608000	 64.0518
6.626000	 63.9931
6.644000	 63.9459
6.662000	 63.8422
6.680000	 63.7405
6.698000	 63.7966
6.716000	 63.9552
6.734000	 64.0229
6.752000	 63.978
6.770000	 63.9334
6.788000	 63.9023
6.806000	 63.8574
6.824000	 63.8253
6.842000	 63.9021
6.860000	 64.0569
6.878000	 64.0785
6.896000	 63.9681
6.914000	 63.8625
6.932000	 63.8102
6.950000	 63.8167
6.968000	 63.8506
6.986000	 63.9026
7.004000	 63.9685
7.022000	 63.9941
7.040000	 63.9109
7.058000	 63.7817
7.076000	 63.7218
7.094000	 63.7086
7.112000	 63.7281
7.130000	 63.8051
7.148000	 63.8552
7.166000	 63.8417
7.184000	 63.814
7.202000	 63.7659
7.220000	 63.7222
7.238000	 63.7142
7.256000	 63.6829
7.274000	 63.6378
7.292000	 63.6524
7.310000	 63.6918
7.328000	 63.6968
7.346000	 63.6882
7.364000	 63.6851
7.382000	 63.6936
7.400000	 63.7403
7.418000	 63.8044
7.436000	 63.8281
7.454000	 63.8374
7.472000	 63.8765
7.490000	 63.8823
7.508000	 63.8188
7.526000	 63.7821
7.544000	 63.8228
7.562000	 63.8475
7.580000	 63.7946
7.598000	 63.7327
7.616000	 63.7197
7.634000	 63.7165
7.652000	 63.6997
7.670000	 63.7134
7.688000	 63.7591
7.706000	 63.7717
7.724000	 63.7311
7.742000	 63.6926
7.760000	 63.6858
7.778000	 63.677
7.796000	 63.6396
7.814000	 63.5933
7.832000	 63.5723
7.850000	 63.5901
7.868000	 63.626
7.886000	 63.6362
7.904000	 63.607
7.922000	 63.5661
7.940000	 63.5408
7.958000	 63.553
7.976000	 63.6073
7.994000	 63.6647
8.012000	 63.6788
8.030000	 63.6598
8.048000	 63.6513
8.065999	 63.6628
8.084000	 63.6713
8.102000	 63.6721
8.120000	 63.6845
8.138000	 63.7097
8.155999	 63.7167
8.173999	 63.6825
8.192000	 63.6258
8.210000	 63.5858
8.228000	 63.582
8.246000	 63.6023
8.263999	 63.6262
8.282000	 63.6506
8.300000	 63.689
8.318000	 63.7457
8.336000	 63.7944
8.353999	 63.7999
8.372000	 63.7592
8.390000	 63.7096
8.408000	 63.6824
8.426000	 63.6646
8.443999	 63.6211
8.462000	 63.5488
8.480000	 63.4881
8.498000	 63.477
8.516000	 63.5077
8.533999	 63.5332
8.552000	 63.5092
8.570000	 63.4321
8.588000	 63.3469
8.606000	 63.3131
8.624000	 63.3488
8.641999	 63.4158
8.660000	 63.4643
8.678000	 63.4843
8.696000	 63.4999
8.714000	 63.5259
8.731999	 63.5518
8.750000	 63.5654
8.768000	 63.5715
8.786000	 63.575
8.804000	 63.5687
8.821999	 63.5463
8.840000	 63.5136
8.858000	 63.4904
8.876000	 63.4984
8.894000	 63.5396
8.911999	 63.5919
8.930000	 63.6404
8.948000	 63.6884
8.966000	 63.7255
8.984000	 63.7175
9.001999	 63.6436
9.020000	 63.5285
9.038000	 63.4282
9.056000	 63.3802
9.074000	 63.3705
9.092000	 63.3551
9.109999	 63.3131
9.128000	 63.2752
9.146000	 63.2945
9.164000	 63.3777
9.182000	 63.4563
9.199999	 63.4531
9.218000	 63.3742
9.236000	 63.3051
9.254000	 63.3118
9.272000	 63.375
9.289999	 63.4295
9.308000	 63.4463
9.326000	 63.4517
9.344000	 63.4732
9.362000	 63.5009
9.379999	 63.5155
9.398000	 63.526
9.416000	 63.5556
9.434000	 63.6043
9.452000	 63.6446
9.469999	 63.6494
9.488000	 63.6137
9.506000	 63.5557
9.524000	 63.5012
9.542000	 63.4677
9.560000	 63.4574
9.577999	 63.4618
9.596000	 63.4663
9.614000	 63.4606
9.632000	 63.4464
9.650000	 63.4363
9.667999	 63.4432
9.686000	 63.4688
9.704000	 63.4995
9.722000	 63.5132
9.740000	 63.4936
9.757999	 63.4449
9.776000	 63.3924
9.794000	 63.3654
9.812000	 63.3742
9.830000	 63.4041
9.847999	 63.4296
9.866000	 63.4371
9.884000	 63.4348
9.902000	 63.4429
9.920000	 63.4735
9.937999	 63.5172
9.956000	 63.5485
9.974000	 63.5451
9.992000	 63.503
10.01	63.4403
10.028	63.386
10.046	63.362
10.064	63.372
10.082	63.4049
10.1	63.4456
10.118	63.4876
10.136	63.5337
10.154	63.5869
10.172	63.6407
10.19	63.6772
10.208	63.6783
10.226	63.6395
10.244	63.5757
10.262	63.5148
10.28	63.4784
10.298	63.4716
10.316	63.4818
10.334	63.4909
10.352	63.4884
10.37	63.4766
10.388	63.4661
10.406	63.4648
10.424	63.4739
10.442	63.4886
10.46	63.5054
10.478	63.5253
10.496	63.552
10.514	63.586
10.532	63.6206
10.55	63.6459
10.568	63.655
10.586	63.6474
10.604	63.6275
10.622	63.6015
10.64	63.5726
10.658	63.5415
10.676	63.5093
10.694	63.4797
10.712	63.459
10.73	63.4525
10.748	63.4612
10.766	63.4803
10.784	63.5024
10.802	63.5181
10.82	63.5198
10.838	63.5041
10.856	63.4746
10.874	63.4422
10.892	63.4201
10.91	63.4175
10.928	63.4347
10.946	63.4627
10.964	63.4892
10.982	63.5044
11	63.5056
11.018	63.4961
11.036	63.4797
11.054	63.4578
11.072	63.4292
11.09	63.3957
11.108	63.3644
11.126	63.348
11.144	63.3568
11.162	63.3925
11.18	63.4469
11.198	63.5054
11.216	63.5542
11.234	63.5876
11.252	63.6088
11.27	63.6261
11.288	63.6484
11.306	63.6789
11.324	63.7136
11.342	63.7448
11.36	63.7647
11.378	63.769
11.396	63.7582
11.414	63.737
11.432	63.7114
11.45	63.6863
11.468	63.664
11.486	63.6426
11.504	63.6176
11.522	63.5838
11.54	63.538
11.558	63.4809
11.576	63.4173
11.594	63.3546
11.612	63.3003
11.63	63.2593
11.648	63.2328
11.666	63.2182
11.684	63.2114
11.702	63.2093
11.72	63.2107
11.738	63.2169
11.756	63.2296
11.774	63.2499
11.792	63.2781
11.81	63.313
11.828	63.3524
11.846	63.3937
11.864	63.4339
11.882	63.4693
11.9	63.496
11.918	63.5095
11.936	63.5071
11.954	63.4886
11.972	63.4577
11.99	63.4224
12.008	63.393
12.026	63.3797
12.044	63.3905
12.062	63.4273
12.08	63.4855
12.098	63.5556
12.116	63.6245
12.134	63.6799
12.152	63.7134
12.17	63.7222
12.188	63.709
12.206	63.6797
12.224	63.6412
12.242	63.5985
12.26	63.5536
12.278	63.5056
12.296	63.4521
12.314	63.3917
12.332	63.3261
12.35	63.2599
12.368	63.201
12.386	63.158
12.404	63.1373
12.422	63.1414
12.44	63.1683
12.458	63.2125
12.476	63.2662
12.494	63.3218
12.512	63.3726
12.53	63.4135
12.548	63.44
12.566	63.448
12.584	63.4343
12.602	63.3968
12.62	63.3357
12.638	63.2548
12.656	63.1614
12.674	63.0657
12.692	62.9791
12.71	62.9112
12.728	62.8697
12.746	62.8574
12.764	62.8739
12.782	62.9161
12.8	62.9797
12.818	63.0599
12.836	63.1521
12.854	63.2516
12.872	63.3528
12.89	63.4496
12.908	63.5355
12.926	63.6039
12.944	63.65
12.962	63.6709
12.98	63.6669
12.998	63.6415
13.016	63.6006
13.034	63.5517
13.052	63.5031
13.07	63.4617
13.088	63.4317
13.106	63.4137
13.124	63.4057
13.142	63.4032
13.16	63.4005
13.178	63.3919
13.196	63.3736
13.214	63.3444
13.232	63.3055
13.25	63.2608
13.268	63.2151
13.286	63.1731
13.304	63.1379
13.322	63.1105
13.34	63.0898
13.358	63.0729
13.376	63.0563
13.394	63.0365
13.412	63.0112
13.43	62.98
13.448	62.9443
13.466	62.9069
13.484	62.8717
13.502	62.844
13.52	62.8296
13.538	62.8329
13.556	62.857
13.574	62.9028
13.592	62.9681
13.61	63.0478
13.628	63.1337
13.646	63.2153
13.664	63.2815
13.682	63.3225
13.7	63.332
13.718	63.3083
13.736	63.255
13.754	63.1813
13.772	63.1002
13.79	63.0256
13.808	62.9701
13.826	62.9436
13.844	62.9505
13.862	62.989
13.88	63.0515
13.898	63.1268
13.916	63.2016
13.934	63.2617
13.952	63.2945
13.97	63.2908
13.988	63.2459
14.006	63.1598
14.024	63.0382
14.042	62.8906
14.06	62.7299
14.078	62.5703
14.096	62.4252
14.114	62.3068
14.132	62.2238
14.15	62.1809
14.168	62.1785
14.186	62.213
14.204	62.2765
14.222	62.3595
14.24	62.4514
14.258	62.5447
14.276	62.6324
14.294	62.7114
14.312	62.7825
14.33	62.8493
14.348	62.9183
14.366	62.9958
14.384	63.0876
14.402	63.1965
14.42	63.3213
14.438	63.4577
14.456	63.5983
14.474	63.7333
14.492	63.8519
14.51	63.9439
14.528	64.0023
14.546	64.0244
14.564	64.012
14.582	63.9705
14.6	63.9088
14.618	63.838
14.636	63.7704
14.654	63.7155
14.672	63.6807
14.69	63.6701
14.708	63.6836
14.726	63.7184
14.744	63.7664
14.762	63.819
14.78	63.8665
14.798	63.8994
14.816	63.9095
14.834	63.8899
14.852	63.8363
14.87	63.7491
14.888	63.6319
14.906	63.4915
14.924	63.3375
14.942	63.1822
14.96	63.0373
14.978	62.913
14.996	62.8173
15.014	62.7551
15.032	62.7272
15.05	62.7289
15.068	62.7534
15.086	62.7918
15.104	62.8341
15.122	62.8696
15.14	62.891
15.158	62.8942
15.176	62.8779
15.194	62.8435
15.212	62.7965
15.23	62.7434
15.248	62.6909
15.266	62.6455
15.284	62.6132
15.302	62.5966
15.32	62.5958
15.338	62.6095
15.356	62.6334
15.374	62.6623
15.392	62.6909
15.41	62.714
15.428	62.7264
15.446	62.7238
15.464	62.704
15.482	62.666
15.5	62.61
15.518	62.5382
15.536	62.4538
15.554	62.3607
15.572	62.2635
15.59	62.1687
15.608	62.0811
15.626	62.0052
15.644	61.9457
15.662	61.9068
15.68	61.8902
15.698	61.897
15.716	61.9271
15.734	61.9782
15.752	62.0473
15.77	62.1309
15.788	62.223
15.806	62.3183
15.824	62.4122
15.842	62.4991
15.86	62.5745
15.878	62.6364
15.896	62.6829
15.914	62.7143
15.932	62.7325
15.95	62.7396
15.968	62.739
15.986	62.7351
16.004	62.7309
16.022	62.7294
16.04	62.7338
16.058	62.7449
16.076	62.7636
16.094	62.7896
16.112	62.8216
16.13	62.8583
16.148	62.8981
16.166	62.939
16.184	62.9797
16.202	63.0193
16.22	63.0567
16.238	63.0917
16.256	63.1241
16.274	63.1535
16.292	63.1796
16.31	63.2018
16.328	63.2193
16.346	63.2312
16.364	63.2371
16.382	63.236
16.4	63.2278
16.418	63.2124
16.436	63.1906
16.454	63.164
16.472	63.1338
16.49	63.1026
16.508	63.0725
16.526	63.0449
16.544	63.0219
16.562	63.004
16.58	62.9916
16.598	62.9842
16.616	62.9807
16.634	62.9801
16.652	62.9798
16.67	62.9782
16.688	62.9734
16.706	62.9632
16.724	62.947
16.742	62.9236
16.76	62.8928
16.778	62.8549
16.796	62.8105
16.814	62.7607
16.832	62.7064
16.85	62.6499
16.868	62.5926
16.886	62.5357
16.904	62.4819
16.922	62.4327
16.94	62.3896
16.958	62.3551
16.976	62.3302
16.994	62.3168
17.012	62.3158
17.03	62.3281
17.048	62.354
17.066	62.3928
17.084	62.4442
17.102	62.5054
17.12	62.5753
17.138	62.6499
17.156	62.7264
17.174	62.8019
17.192	62.8717
17.21	62.9341
17.228	62.9853
17.246	63.0236
17.264	63.0477
17.282	63.0567
17.3	63.0512
17.318	63.0319
17.336	63.0012
17.354	62.9603
17.372	62.9134
17.39	62.8617
17.408	62.809
17.426	62.7577
17.444	62.7097
17.462	62.6675
17.48	62.6317
17.498	62.6035
17.516	62.5827
17.534	62.5693
17.552	62.5621
17.57	62.5608
17.588	62.5637
17.606	62.5704
17.624	62.5797
17.642	62.5912
17.66	62.6044
17.678	62.6191
17.696	62.6353
17.714	62.6532
17.732	62.6729
17.75	62.6944
17.768	62.7179
17.786	62.7434
17.804	62.7701
17.822	62.7979
17.84	62.826
17.858	62.8537
17.876	62.8804
17.894	62.9051
17.912	62.9276
17.93	62.9471
17.948	62.9637
17.966	62.977
17.984	62.9873
18.002	62.9948
18.02	62.9999
18.038	63.0031
18.056	63.0051
18.074	63.0063
18.092	63.0078
18.11	63.0097
18.128	63.013
18.146	63.0179
18.164	63.0251
18.182	63.0346
18.2	63.0468
18.218	63.0616
18.236	63.079
18.254	63.0985
18.272	63.12
18.29	63.1423
18.308	63.1654
18.326	63.1877
18.344	63.2088
18.362	63.2272
18.38	63.2423
18.398	63.2525
18.416	63.2576
18.434	63.2564
18.452	63.2487
18.47	63.2342
18.488	63.2135
18.506	63.1865
18.524	63.1546
18.542	63.1181
18.56	63.0792
18.578	63.0383
18.596	62.9977
18.614	62.9576
18.632	62.9199
18.65	62.8848
18.668	62.8532
18.686	62.8249
18.704	62.7996
18.722	62.7772
18.74	62.7565
18.758	62.7374
18.776	62.7188
18.794	62.7005
18.812	62.682
18.83	62.6634
18.848	62.6445
18.866	62.6261
18.884	62.6088
18.902	62.5934
18.92	62.581
18.938	62.5725
18.956	62.5693
18.974	62.5716
18.992	62.5807
19.01	62.5964
19.028	62.6193
19.046	62.6488
19.064	62.6845
19.082	62.7256
19.1	62.7709
19.118	62.8194
19.136	62.8692
19.154	62.9197
19.172	62.9686
19.19	63.0153
19.208	63.0578
19.226	63.0958
19.244	63.1278
19.262	63.154
19.28	63.1734
19.298	63.1862
19.316	63.1927
19.334	63.1929
19.352	63.1878
19.37	63.1771
19.388	63.1625
19.406	63.1438
19.424	63.1221
19.442	63.0976
19.46	63.0712
19.478	63.0431
19.496	63.0136
19.514	62.9828
19.532	62.951
19.55	62.9184
19.568	62.8847
19.586	62.8499
19.604	62.8138
19.622	62.7763
19.64	62.7372
19.658	62.6963
19.676	62.6537
19.694	62.6092
19.712	62.5629
19.73	62.5153
19.748	62.4663
19.766	62.4172
19.784	62.3678
19.802	62.3196
19.82	62.2732
19.838	62.2293
19.856	62.1894
19.874	62.1537
19.892	62.124
19.91	62.1001
19.928	62.0837
19.946	62.0747
19.964	62.0736
19.982	62.0807
20	62.0956
20.018	62.1182
20.036	62.1481
20.054	62.1844
20.072	62.2272
20.09	62.2746
20.108	62.3271
20.126	62.3825
20.144	62.4411
20.162	62.501
20.18	62.5619
20.198	62.6228
20.216	62.6825
20.234	62.741
20.252	62.7966
20.27	62.8497
20.288	62.8987
20.306	62.9436
20.324	62.9837
20.342	63.0184
20.36	63.0478
20.378	63.0711
20.396	63.0885
20.414	63.1
20.432	63.1054
20.45	63.1054
20.468	63.0999
20.486	63.0894
20.504	63.0748
20.522	63.0559
20.54	63.0347
20.558	63.0109
20.576	62.9861
20.594	62.9605
20.612	62.935
20.63	62.9113
20.648	62.889
20.666	62.8694
20.684	62.8526
20.702	62.8388
20.72	62.8285
20.738	62.8214
20.756	62.8168
20.774	62.8149
20.792	62.8145
20.81	62.8155
20.828	62.8169
20.846	62.8171
20.864	62.8167
20.882	62.8133
20.9	62.8072
20.918	62.7973
20.936	62.7825
20.954	62.7631
20.972	62.7383
20.99	62.708
21.008	62.6723
21.026	62.6309
21.044	62.5843
21.062	62.533
21.08	62.4767
21.098	62.4168
21.116	62.3533
21.134	62.2867
21.152	62.2185
21.17	62.1481
21.188	62.0773
21.206	62.0061
21.224	61.9352
21.242	61.8658
21.26	61.7975
21.278	61.7318
21.296	61.6687
21.314	61.6086
21.332	61.5524
21.35	61.4998
21.368	61.4515
21.386	61.4077
21.404	61.3683
21.422	61.3338
21.44	61.304
21.458	61.2787
21.476	61.2579
21.494	61.2413
21.512	61.2285
21.53	61.2196
21.548	61.2139
21.566	61.2109
21.584	61.2107
21.602	61.2125
21.62	61.2165
21.638	61.2221
21.656	61.2284
21.674	61.2359
21.692	61.2439
21.71	61.2523
21.728	61.2611
21.746	61.2699
21.764	61.2788
21.782	61.2879
21.8	61.297
21.818	61.3062
21.836	61.3157
21.854	61.3256
21.872	61.3357
21.89	61.3463
21.908	61.3573
21.926	61.3686
21.944	61.38
21.962	61.3915
21.98	61.4026
21.998	61.4134
22.016	61.4234
22.034	61.4321
22.052	61.4397
22.07	61.4455
22.088	61.4491
22.106	61.4506
22.124	61.4492
22.142	61.4449
22.16	61.4377
22.178	61.4273
22.196	61.4136
22.214	61.3969
22.232	61.3775
22.25	61.3551
22.268	61.3306
22.286	61.3044
22.304	61.2762
22.322	61.2475
22.34	61.2183
22.358	61.1888
22.376	61.1603
22.394	61.1326
22.412	61.1062
22.43	61.0821
22.448	61.06
22.466	61.0402
22.484	61.0232
22.502	61.0089
22.52	60.997
22.538	60.9878
22.556	60.9812
22.574	60.9764
22.592	60.9737
22.61	60.9728
22.628	60.9726
22.646	60.9736
22.664	60.9751
22.682	60.976
22.7	60.9769
22.718	60.9771
22.736	60.9756
22.754	60.9729
22.772	60.9685
22.79	60.9617
22.808	60.9528
22.826	60.9418
22.844	60.9283
22.862	60.9125
22.88	60.8947
22.898	60.8749
22.916	60.8532
22.934	60.8303
22.952	60.8066
22.97	60.7818
22.988	60.7572
23.006	60.7328
23.024	60.7085
23.042	60.6858
23.06	60.6647
23.078	60.6452
23.096	60.6284
23.114	60.6143
23.132	60.6029
23.15	60.5953
23.168	60.5912
23.186	60.5908
23.204	60.5951
23.222	60.6038
23.24	60.617
23.258	60.635
23.276	60.6581
23.294	60.6858
23.312	60.7177
23.33	60.754
23.348	60.7944
23.366	60.8379
23.384	60.8846
23.402	60.9343
23.42	60.9859
23.438	61.0395
23.456	61.0951
23.474	61.1508
23.492	61.2069
23.51	61.2633
23.528	61.3181
23.546	61.3709
23.564	61.4221
23.582	61.4699
23.6	61.5138
23.618	61.5543
23.636	61.5901
23.654	61.6206
23.672	61.6464
23.69	61.6668
23.708	61.6813
23.726	61.6902
23.744	61.6936
23.762	61.6917
23.78	61.6842
23.798	61.6716
23.816	61.6545
23.834	61.6325
23.852	61.6061
23.87	61.5761
23.888	61.5418
23.906	61.504
23.924	61.4646
23.942	61.4232
23.96	61.38
23.978	61.3373
23.996	61.2961
24.014	61.2553
24.032	61.2166
24.05	61.1813
24.068	61.1485
24.086	61.1186
24.104	61.092
24.122	61.0687
24.14	61.0484
24.158	61.0312
24.176	61.0175
24.194	61.0067
24.212	60.9978
24.23	60.9918
24.248	60.9881
24.266	60.9839
24.284	60.9776
24.302	60.9711
24.32	60.9612
24.338	60.9452
24.356	60.9245
24.374	60.8983
24.392	60.8651
24.41	60.8244
24.428	60.777
24.446	60.7235
24.464	60.6638
24.482	60.5975
24.5	60.5265
24.518	60.4517
24.536	60.3713
24.554	60.2883
24.572	60.2066
24.59	60.1245
24.608	60.0428
24.626	59.966
24.644	59.8957
24.662	59.8291
24.68	59.7714
24.698	59.7271
24.716	59.6929
24.734	59.6713
24.752	59.6665
24.77	59.6785
24.788	59.7063
24.806	59.7531
24.824	59.8217
24.842	59.9104
24.86	60.0192
24.878	60.1487
24.896	60.2993
24.914	60.4703
24.932	60.6604
24.95	60.8693
24.968	61.0974
24.986	61.3436
25.004	61.6068
25.022	61.889
25.04	62.188
25.058	62.4999
25.076	62.8239
25.094	63.1627
25.112	63.5098
25.13	63.8591
25.148	64.2154
25.166	64.5754
25.184	64.9306
25.202	65.2777
25.22	65.6222
25.238	65.9565
25.256	66.2728
25.274	66.576
25.292	66.8638
25.31	67.1273
25.328	67.3617
25.346	67.5736
25.364	67.756
25.382	67.9007
25.4	68.0099
25.418	68.0846
25.436	68.1187
25.454	68.1076
25.472	68.0551
25.49	67.9596
25.508	67.8182
25.526	67.6296
25.544	67.3955
25.562	67.1168
25.58	66.794
25.598	66.4254
25.616	66.0132
25.634	65.5613
25.652	65.0713
25.67	64.5401
25.688	63.9724
25.706	63.3739
25.724	62.7443
25.742	62.0817
25.76	61.3919
25.778	60.6803
25.796	59.9432
25.814	59.1824
25.832	58.403
25.85	57.6084
25.868	56.7951
25.886	55.9656
25.904	55.1236
25.922	54.2699
25.94	53.4026
25.958	52.5241
25.976	51.6371
25.994	50.7402
26.012	49.8335
26.03	48.9198
26.048	48.0012
26.066	47.0759
26.084	46.1448
26.102	45.2101
26.12	44.2723
26.138	43.3282
26.156	42.3827
26.174	41.4414
26.192	40.5052
26.21	39.5701
26.228	38.6422
26.246	37.7281
26.264	36.824
26.282	35.9281
26.3	35.0529
26.318	34.2105
26.336	33.3928
26.354	32.6005
26.372	31.8482
26.39	31.1489
26.408	30.4886
26.426	29.8738
26.444	29.3227
26.462	28.8499
26.48	28.4407
26.498	28.1013
26.516	27.846
26.534	27.6843
26.552	27.6035
26.57	27.6108
26.588	27.7179
26.606	27.9332
26.624	28.2487
26.642	28.665
26.66	29.1838
26.678	29.8071
26.696	30.5346
26.714	31.3624
26.732	32.2866
26.75	33.3075
26.768	34.4304
26.786	35.6445
26.804	36.9379
26.822	38.3073
26.84	39.7643
26.858	41.2941
26.876	42.8799
26.894	44.5166
26.912	46.2201
26.93	47.9724
26.948	49.7532
26.966	51.6372
26.984	53.7668
27.002	55.8121
27.02	57.4137
27.028	57.8413