File: Bakgrunnsmateriale/MATLAB/FTIR/ftir_data/subAa/Mapping_121/BZ1503107-1_t80.asc
PE IR       SPECTRUM    SPECTRUM    ASCII       PEDS        1.60
  -1
BZ2945~1.ASC
17/04/07
19:48:42.00
17/04/07
19:49:09.00
tln
$BZ1503107-1_t0080$<tbV0>[7.8,5.2,8.0,0.0,27,1,0]
27.028
64

2002,4.07
MIRTGS : RIGHTBACK : INTERNAL 2
MIR : ON : INTERNAL 2
OPTKBR

0.200000
8
8.000000
FILLER
RATIO
SPECTRUM
UNLOCKED 256

DOUBLE
64
COMBINED
1
0
0

0.002000
RATIO

1
0
TRUE
51149
0
LEFT NOT FITTED RIGHT NOT FITTED 0
NONE
NONE
15600
12
4.427000
51148
TRUE
1 0 8 72 0 0 0 0

15798

#HDR
-1
-1
#GR
µM
%T
2.38419e-05
0.0
2.000000
0.002000
12515
8
77.6363
48.5214
#DATA
2.000000	 64.6998
2.018000	 65.2698
2.036000	 65.5492
2.054000	 65.2752
2.072000	 64.5946
2.090000	 64.77
2.108000	 64.5798
2.126000	 64.6295
2.144000	 64.6832
2.162000	 65.2008
2.180000	 64.965
2.198000	 64.9899
2.216000	 65.8078
2.234000	 65.9889
2.252000	 55.0984
2.270000	 65.9516
2.288000	 65.0452
2.306000	 65.4957
2.324000	 65.3617
2.342000	 65.3777
2.360000	 64.8392
2.378000	 65.0586
2.396000	 64.9202
2.414000	 64.5383
2.432000	 64.974
2.450000	 64.8468
2.468000	 65.18
2.486000	 64.9571
2.504000	 64.8708
2.522000	 65.2052
2.540000	 65.1356
2.558000	 65.0864
2.576000	 65.0332
2.594000	 65.1489
2.612000	 64.8744
2.630000	 65.2113
2.648000	 65.1442
2.666000	 65.1381
2.684000	 65.0816
2.702000	 65.141
2.720000	 65.1498
2.738000	 64.9725
2.756000	 65.083
2.774000	 64.9869
2.792000	 65.0603
2.810000	 65.0631
2.828000	 65.2128
2.846000	 65.191
2.864000	 65.0927
2.882000	 65.2854
2.900000	 65.266
2.918000	 64.9283
2.936000	 65.0067
2.954000	 65.0795
2.972000	 65.0206
2.990000	 65.0672
3.008000	 64.7077
3.026000	 65.0073
3.044000	 64.7621
3.062000	 64.9138
3.080000	 64.9294
3.098000	 65.0102
3.116000	 64.9424
3.134000	 65.0098
3.152000	 65.131
3.170000	 64.8628
3.188000	 64.9953
3.206000	 64.9812
3.224000	 64.7585
3.242000	 64.9227
3.260000	 64.8369
3.278000	 65.0173
3.296000	 64.9875
3.314000	 64.8642
3.332000	 64.8287
3.350000	 64.8522
3.368000	 64.7074
3.386000	 64.694
3.404000	 64.681
3.422000	 64.7957
3.440000	 64.6995
3.458000	 64.7767
3.476000	 64.7607
3.494000	 64.7936
3.512000	 64.7399
3.530000	 64.7901
3.548000	 64.8444
3.566000	 64.94
3.584000	 64.797
3.602000	 64.8104
3.620000	 64.9093
3.638000	 64.7417
3.656000	 64.9371
3.674000	 64.9459
3.692000	 64.7264
3.710000	 64.8199
3.728000	 64.8581
3.746000	 64.8365
3.764000	 64.6947
3.782000	 64.8347
3.800000	 64.7803
3.818000	 64.8381
3.836000	 64.8114
3.854000	 64.8182
3.872000	 64.5926
3.890000	 64.6914
3.908000	 64.5741
3.926000	 64.7083
3.944000	 64.6784
3.962000	 64.7131
3.980000	 64.62
3.998000	 64.6473
4.016000	 64.6593
4.034000	 64.702
4.052000	 64.622
4.070000	 64.6249
4.088000	 64.5733
4.106000	 64.5569
4.124000	 64.6973
4.141999	 64.7129
4.160000	 64.5798
4.178000	 64.579
4.196000	 64.5624
4.214000	 64.5642
4.232000	 64.5486
4.250000	 64.5687
4.268000	 64.5191
4.286000	 64.7368
4.304000	 64.5794
4.322000	 64.5087
4.340000	 64.6263
4.358000	 64.4811
4.375999	 64.4906
4.394000	 64.5871
4.412000	 64.6013
4.430000	 64.4955
4.448000	 64.56
4.466000	 64.4992
4.484000	 64.5994
4.502000	 64.5453
4.520000	 64.5175
4.538000	 64.6118
4.556000	 64.5138
4.574000	 64.569
4.592000	 64.5159
4.609999	 64.447
4.628000	 64.5898
4.646000	 64.5684
4.664000	 64.5238
4.682000	 64.4627
4.700000	 64.4999
4.718000	 64.4164
4.736000	 64.4686
4.754000	 64.3775
4.772000	 64.3607
4.790000	 64.3464
4.808000	 64.352
4.826000	 64.4024
4.843999	 64.3752
4.862000	 64.3682
4.880000	 64.3747
4.898000	 64.3224
4.916000	 64.3944
4.934000	 64.3929
4.952000	 64.4041
4.970000	 64.3378
4.988000	 64.2864
5.006000	 64.2202
5.024000	 64.2909
5.042000	 64.3248
5.060000	 64.3207
5.077999	 64.3393
5.096000	 64.4148
5.114000	 64.3526
5.132000	 64.2563
5.150000	 64.2229
5.168000	 64.2882
5.186000	 64.327
5.204000	 64.2472
5.222000	 64.1437
5.240000	 64.2608
5.258000	 64.2978
5.276000	 64.1509
5.294000	 64.2251
5.312000	 64.2318
5.330000	 64.2335
5.348000	 64.2229
5.366000	 64.2006
5.384000	 64.2253
5.402000	 64.2552
5.420000	 64.2584
5.438000	 64.3554
5.456000	 64.3403
5.474000	 64.2284
5.492000	 64.1459
5.510000	 64.1927
5.528000	 64.218
5.546000	 64.2652
5.564000	 64.1991
5.582000	 64.178
5.600000	 64.1386
5.618000	 64.1345
5.636000	 64.1868
5.654000	 64.2025
5.672000	 64.1972
5.690000	 64.159
5.708000	 63.9663
5.726000	 63.9391
5.744000	 63.9473
5.762000	 63.8942
5.780000	 63.881
5.798000	 63.8961
5.816000	 63.9688
5.834000	 64.03
5.852000	 63.9362
5.870000	 63.9644
5.888000	 63.9531
5.906000	 63.9578
5.923999	 63.9467
5.942000	 63.9348
5.960000	 64.0037
5.978000	 63.9673
5.996000	 63.9244
6.014000	 63.903
6.032000	 63.9832
6.050000	 64.0164
6.068000	 63.9976
6.086000	 64.0233
6.104000	 63.9653
6.122000	 63.9565
6.140000	 64.1132
6.158000	 64.2239
6.176000	 64.2002
6.194000	 64.1066
6.212000	 63.9762
6.230000	 63.9002
6.248000	 63.9245
6.266000	 63.9425
6.284000	 63.9276
6.302000	 64.0073
6.320000	 63.9634
6.338000	 63.8383
6.356000	 63.9115
6.374000	 63.922
6.392000	 63.8081
6.410000	 63.8045
6.428000	 63.8458
6.446000	 63.8366
6.464000	 63.8634
6.482000	 63.9627
6.500000	 63.9852
6.518000	 63.8765
6.536000	 63.8178
6.554000	 63.8546
6.572000	 63.9014
6.590000	 63.9356
6.608000	 63.9522
6.626000	 63.9253
6.644000	 63.8951
6.662000	 63.85
6.680000	 63.8269
6.698000	 63.8689
6.716000	 63.8459
6.734000	 63.8029
6.752000	 63.7869
6.770000	 63.7253
6.788000	 63.6664
6.806000	 63.6777
6.824000	 63.6983
6.842000	 63.7366
6.860000	 63.7855
6.878000	 63.768
6.896000	 63.7534
6.914000	 63.7527
6.932000	 63.7362
6.950000	 63.7744
6.968000	 63.8496
6.986000	 63.9008
7.004000	 63.9096
7.022000	 63.8719
7.040000	 63.8109
7.058000	 63.7241
7.076000	 63.612
7.094000	 63.5613
7.112000	 63.6128
7.130000	 63.6813
7.148000	 63.7284
7.166000	 63.7844
7.184000	 63.8099
7.202000	 63.7571
7.220000	 63.6799
7.238000	 63.6454
7.256000	 63.6476
7.274000	 63.6767
7.292000	 63.7065
7.310000	 63.685
7.328000	 63.6362
7.346000	 63.6206
7.364000	 63.615
7.382000	 63.5779
7.400000	 63.5492
7.418000	 63.5796
7.436000	 63.6374
7.454000	 63.6832
7.472000	 63.7312
7.490000	 63.7595
7.508000	 63.7179
7.526000	 63.6591
7.544000	 63.6653
7.562000	 63.6926
7.580000	 63.6521
7.598000	 63.5744
7.616000	 63.5572
7.634000	 63.6082
7.652000	 63.6611
7.670000	 63.6893
7.688000	 63.6992
7.706000	 63.678
7.724000	 63.6296
7.742000	 63.5813
7.760000	 63.5318
7.778000	 63.469
7.796000	 63.4115
7.814000	 63.3616
7.832000	 63.2977
7.850000	 63.2479
7.868000	 63.2637
7.886000	 63.321
7.904000	 63.356
7.922000	 63.3698
7.940000	 63.4064
7.958000	 63.4774
7.976000	 63.5613
7.994000	 63.6269
8.012000	 63.6379
8.030000	 63.5898
8.048000	 63.5287
8.065999	 63.4948
8.084000	 63.4806
8.102000	 63.4665
8.120000	 63.4623
8.138000	 63.4804
8.155999	 63.4988
8.173999	 63.4855
8.192000	 63.4466
8.210000	 63.4196
8.228000	 63.4237
8.246000	 63.4463
8.263999	 63.4694
8.282000	 63.4814
8.300000	 63.479
8.318000	 63.4715
8.336000	 63.4682
8.353999	 63.4522
8.372000	 63.3961
8.390000	 63.3166
8.408000	 63.2755
8.426000	 63.3114
8.443999	 63.3932
8.462000	 63.4541
8.480000	 63.4601
8.498000	 63.4344
8.516000	 63.4221
8.533999	 63.4416
8.552000	 63.4678
8.570000	 63.4632
8.588000	 63.4193
8.606000	 63.3633
8.624000	 63.3285
8.641999	 63.3277
8.660000	 63.3532
8.678000	 63.389
8.696000	 63.4212
8.714000	 63.4407
8.731999	 63.4472
8.750000	 63.4477
8.768000	 63.4444
8.786000	 63.4245
8.804000	 63.378
8.821999	 63.3205
8.840000	 63.2809
8.858000	 63.2784
8.876000	 63.3159
8.894000	 63.3823
8.911999	 63.4527
8.930000	 63.5041
8.948000	 63.5251
8.966000	 63.5122
8.984000	 63.4687
9.001999	 63.4098
9.020000	 63.3572
9.038000	 63.3238
9.056000	 63.3067
9.074000	 63.2925
9.092000	 63.271
9.109999	 63.2424
9.128000	 63.2163
9.146000	 63.2025
9.164000	 63.2035
9.182000	 63.215
9.199999	 63.2301
9.218000	 63.2429
9.236000	 63.2467
9.254000	 63.2336
9.272000	 63.2014
9.289999	 63.1624
9.308000	 63.1441
9.326000	 63.1725
9.344000	 63.2485
9.362000	 63.3411
9.379999	 63.4087
9.398000	 63.4298
9.416000	 63.4172
9.434000	 63.403
9.452000	 63.4092
9.469999	 63.431
9.488000	 63.4448
9.506000	 63.4321
9.524000	 63.3963
9.542000	 63.3556
9.560000	 63.3231
9.577999	 63.2959
9.596000	 63.2616
9.614000	 63.2135
9.632000	 63.1569
9.650000	 63.1046
9.667999	 63.0667
9.686000	 63.0441
9.704000	 63.0316
9.722000	 63.0262
9.740000	 63.0319
9.757999	 63.0564
9.776000	 63.103
9.794000	 63.1656
9.812000	 63.2318
9.830000	 63.2891
9.847999	 63.3313
9.866000	 63.3596
9.884000	 63.379
9.902000	 63.3949
9.920000	 63.409
9.937999	 63.4186
9.956000	 63.4183
9.974000	 63.4037
9.992000	 63.3756
10.01	63.3405
10.028	63.3077
10.046	63.2837
10.064	63.2693
10.082	63.2604
10.1	63.2523
10.118	63.2432
10.136	63.2365
10.154	63.2375
10.172	63.2491
10.19	63.2683
10.208	63.2856
10.226	63.291
10.244	63.2796
10.262	63.256
10.28	63.2332
10.298	63.2248
10.316	63.238
10.334	63.2693
10.352	63.3083
10.37	63.3432
10.388	63.3675
10.406	63.3796
10.424	63.3799
10.442	63.3662
10.46	63.335
10.478	63.285
10.496	63.2232
10.514	63.1648
10.532	63.1285
10.55	63.1261
10.568	63.1576
10.586	63.2079
10.604	63.2563
10.622	63.2834
10.64	63.2807
10.658	63.2509
10.676	63.2063
10.694	63.1621
10.712	63.1334
10.73	63.131
10.748	63.1594
10.766	63.2143
10.784	63.2827
10.802	63.3434
10.82	63.377
10.838	63.3718
10.856	63.3313
10.874	63.2725
10.892	63.217
10.91	63.1817
10.928	63.1711
10.946	63.1795
10.964	63.1975
10.982	63.2177
11	63.2395
11.018	63.265
11.036	63.2933
11.054	63.318
11.072	63.3294
11.09	63.3196
11.108	63.2893
11.126	63.2493
11.144	63.2162
11.162	63.2063
11.18	63.2278
11.198	63.2783
11.216	63.3464
11.234	63.4162
11.252	63.4723
11.27	63.5041
11.288	63.5065
11.306	63.4813
11.324	63.4369
11.342	63.3862
11.36	63.3434
11.378	63.32
11.396	63.3196
11.414	63.3372
11.432	63.3614
11.45	63.3797
11.468	63.3821
11.486	63.3661
11.504	63.3359
11.522	63.2995
11.54	63.2643
11.558	63.2356
11.576	63.2146
11.594	63.1995
11.612	63.1878
11.63	63.1766
11.648	63.1637
11.666	63.1476
11.684	63.1285
11.702	63.1088
11.72	63.0927
11.738	63.085
11.756	63.0887
11.774	63.1047
11.792	63.1308
11.81	63.1627
11.828	63.1957
11.846	63.2253
11.864	63.2489
11.882	63.2653
11.9	63.2747
11.918	63.2777
11.936	63.2747
11.954	63.2662
11.972	63.2532
11.99	63.2381
12.008	63.2238
12.026	63.2139
12.044	63.2116
12.062	63.2184
12.08	63.2335
12.098	63.2537
12.116	63.2736
12.134	63.2878
12.152	63.292
12.17	63.2843
12.188	63.2659
12.206	63.2402
12.224	63.2115
12.242	63.1831
12.26	63.1565
12.278	63.1317
12.296	63.1074
12.314	63.0828
12.332	63.0586
12.35	63.037
12.368	63.0212
12.386	63.0141
12.404	63.017
12.422	63.0284
12.44	63.0447
12.458	63.0609
12.476	63.0719
12.494	63.0747
12.512	63.0683
12.53	63.0546
12.548	63.0368
12.566	63.0185
12.584	63.0029
12.602	62.9923
12.62	62.9873
12.638	62.988
12.656	62.994
12.674	63.0055
12.692	63.0229
12.71	63.0465
12.728	63.0767
12.746	63.113
12.764	63.1535
12.782	63.1946
12.8	63.2317
12.818	63.26
12.836	63.2753
12.854	63.2751
12.872	63.2595
12.89	63.2307
12.908	63.1933
12.926	63.1527
12.944	63.1144
12.962	63.0824
12.98	63.0586
12.998	63.0427
13.016	63.0325
13.034	63.0251
13.052	63.0172
13.07	63.0067
13.088	62.9925
13.106	62.975
13.124	62.9556
13.142	62.9363
13.16	62.9196
13.178	62.9079
13.196	62.9026
13.214	62.9045
13.232	62.9133
13.25	62.9277
13.268	62.9454
13.286	62.9639
13.304	62.9804
13.322	62.9928
13.34	62.9997
13.358	63.0008
13.376	62.9965
13.394	62.9882
13.412	62.9772
13.43	62.9644
13.448	62.9504
13.466	62.9349
13.484	62.9174
13.502	62.8973
13.52	62.8743
13.538	62.8488
13.556	62.8216
13.574	62.7944
13.592	62.7687
13.61	62.7457
13.628	62.7263
13.646	62.7106
13.664	62.6986
13.682	62.6895
13.7	62.6831
13.718	62.6789
13.736	62.677
13.754	62.6775
13.772	62.6808
13.79	62.6866
13.808	62.6947
13.826	62.7042
13.844	62.7144
13.862	62.7243
13.88	62.7333
13.898	62.7413
13.916	62.7486
13.934	62.7556
13.952	62.7624
13.97	62.7688
13.988	62.7738
14.006	62.7756
14.024	62.7719
14.042	62.7602
14.06	62.7387
14.078	62.707
14.096	62.6656
14.114	62.6167
14.132	62.5641
14.15	62.5119
14.168	62.4644
14.186	62.425
14.204	62.396
14.222	62.3779
14.24	62.3698
14.258	62.3701
14.276	62.3765
14.294	62.3876
14.312	62.4026
14.33	62.422
14.348	62.4477
14.366	62.4817
14.384	62.5262
14.402	62.5824
14.42	62.65
14.438	62.7269
14.456	62.8092
14.474	62.8917
14.492	62.968
14.51	63.0318
14.528	63.0784
14.546	63.1055
14.564	63.1138
14.582	63.1061
14.6	63.0875
14.618	63.0644
14.636	63.0431
14.654	63.0281
14.672	63.0218
14.69	63.0241
14.708	63.033
14.726	63.0452
14.744	63.0558
14.762	63.0612
14.78	63.0589
14.798	63.047
14.816	63.0253
14.834	62.9945
14.852	62.9558
14.87	62.9114
14.888	62.8634
14.906	62.8142
14.924	62.7663
14.942	62.7226
14.96	62.6856
14.978	62.6578
14.996	62.6411
15.014	62.6371
15.032	62.6464
15.05	62.668
15.068	62.6995
15.086	62.7377
15.104	62.7781
15.122	62.8151
15.14	62.8436
15.158	62.8596
15.176	62.8603
15.194	62.8441
15.212	62.8116
15.23	62.7657
15.248	62.7101
15.266	62.6494
15.284	62.5892
15.302	62.534
15.32	62.487
15.338	62.4504
15.356	62.4248
15.374	62.4093
15.392	62.4016
15.41	62.3987
15.428	62.3967
15.446	62.391
15.464	62.3785
15.482	62.3571
15.5	62.3256
15.518	62.2841
15.536	62.2348
15.554	62.1805
15.572	62.125
15.59	62.0742
15.608	62.0322
15.626	62.0027
15.644	61.9897
15.662	61.9952
15.68	62.0192
15.698	62.0611
15.716	62.1184
15.734	62.1867
15.752	62.2619
15.77	62.3392
15.788	62.4122
15.806	62.4763
15.824	62.5276
15.842	62.5621
15.86	62.5769
15.878	62.5714
15.896	62.5453
15.914	62.5007
15.932	62.4403
15.95	62.3672
15.968	62.286
15.986	62.2031
16.004	62.1238
16.022	62.0536
16.04	61.9999
16.058	61.9674
16.076	61.96
16.094	61.9819
16.112	62.0339
16.13	62.1159
16.148	62.2265
16.166	62.3607
16.184	62.5139
16.202	62.6803
16.22	62.8508
16.238	63.0189
16.256	63.1781
16.274	63.3198
16.292	63.4398
16.31	63.534
16.328	63.5994
16.346	63.6364
16.364	63.6456
16.382	63.6302
16.4	63.5947
16.418	63.5425
16.436	63.4802
16.454	63.4123
16.472	63.3423
16.49	63.2745
16.508	63.2094
16.526	63.1479
16.544	63.0884
16.562	63.0288
16.58	62.9671
16.598	62.8994
16.616	62.8242
16.634	62.7398
16.652	62.6455
16.67	62.5431
16.688	62.4338
16.706	62.3226
16.724	62.2127
16.742	62.1088
16.76	62.0164
16.778	61.9378
16.796	61.8776
16.814	61.8362
16.832	61.8141
16.85	61.8103
16.868	61.8215
16.886	61.8457
16.904	61.8774
16.922	61.9141
16.94	61.9518
16.958	61.9872
16.976	62.0193
16.994	62.0461
17.012	62.0686
17.03	62.0869
17.048	62.1034
17.066	62.1194
17.084	62.1369
17.102	62.1572
17.12	62.1808
17.138	62.2084
17.156	62.2395
17.174	62.2737
17.192	62.3092
17.21	62.3452
17.228	62.3795
17.246	62.411
17.264	62.4388
17.282	62.4622
17.3	62.4815
17.318	62.497
17.336	62.5103
17.354	62.5223
17.372	62.5355
17.39	62.5509
17.408	62.5707
17.426	62.5959
17.444	62.6277
17.462	62.6664
17.48	62.7119
17.498	62.7636
17.516	62.8201
17.534	62.8806
17.552	62.9423
17.57	63.0044
17.588	63.0639
17.606	63.1201
17.624	63.1713
17.642	63.217
17.66	63.2566
17.678	63.2905
17.696	63.3191
17.714	63.3435
17.732	63.3645
17.75	63.3831
17.768	63.4006
17.786	63.4174
17.804	63.4346
17.822	63.4522
17.84	63.4703
17.858	63.488
17.876	63.5051
17.894	63.5197
17.912	63.5314
17.93	63.5379
17.948	63.539
17.966	63.5326
17.984	63.5188
18.002	63.4965
18.02	63.4663
18.038	63.428
18.056	63.3834
18.074	63.3326
18.092	63.2788
18.11	63.2224
18.128	63.1667
18.146	63.1126
18.164	63.063
18.182	63.0186
18.2	62.981
18.218	62.9504
18.236	62.9272
18.254	62.9098
18.272	62.8981
18.29	62.8887
18.308	62.8812
18.326	62.8711
18.344	62.8579
18.362	62.837
18.38	62.808
18.398	62.7679
18.416	62.7165
18.434	62.6521
18.452	62.5761
18.47	62.4885
18.488	62.3924
18.506	62.2884
18.524	62.1821
18.542	62.0743
18.56	61.9711
18.578	61.8729
18.596	61.7858
18.614	61.7103
18.632	61.651
18.65	61.6078
18.668	61.5833
18.686	61.5768
18.704	61.5879
18.722	61.6159
18.74	61.658
18.758	61.7131
18.776	61.7772
18.794	61.8489
18.812	61.9238
18.83	62.0007
18.848	62.0755
18.866	62.1473
18.884	62.2132
18.902	62.2729
18.92	62.3243
18.938	62.368
18.956	62.4034
18.974	62.4315
18.992	62.4531
19.01	62.4692
19.028	62.4812
19.046	62.49
19.064	62.4972
19.082	62.5035
19.1	62.5109
19.118	62.5195
19.136	62.5309
19.154	62.5452
19.172	62.5634
19.19	62.5853
19.208	62.611
19.226	62.6403
19.244	62.6731
19.262	62.7093
19.28	62.7474
19.298	62.7873
19.316	62.8269
19.334	62.8662
19.352	62.9018
19.37	62.9339
19.388	62.9588
19.406	62.9767
19.424	62.9842
19.442	62.9811
19.46	62.9653
19.478	62.9366
19.496	62.8943
19.514	62.8379
19.532	62.7687
19.55	62.6867
19.568	62.5938
19.586	62.4916
19.604	62.3814
19.622	62.2666
19.64	62.1475
19.658	62.0291
19.676	61.911
19.694	61.798
19.712	61.6897
19.73	61.5906
19.748	61.5005
19.766	61.4222
19.784	61.3562
19.802	61.304
19.82	61.2667
19.838	61.2444
19.856	61.238
19.874	61.2472
19.892	61.2726
19.91	61.3138
19.928	61.3704
19.946	61.4425
19.964	61.5285
19.982	61.6286
20	61.7406
20.018	61.8637
20.036	61.9964
20.054	62.1362
20.072	62.2829
20.09	62.4324
20.108	62.5852
20.126	62.7366
20.144	62.8869
20.162	63.0325
20.18	63.1718
20.198	63.3038
20.216	63.4255
20.234	63.5372
20.252	63.6361
20.27	63.7226
20.288	63.7956
20.306	63.8551
20.324	63.9012
20.342	63.9336
20.36	63.953
20.378	63.9604
20.396	63.9556
20.414	63.9405
20.432	63.9146
20.45	63.8798
20.468	63.8367
20.486	63.7859
20.504	63.7289
20.522	63.6655
20.54	63.5977
20.558	63.5254
20.576	63.4499
20.594	63.3719
20.612	63.2918
20.63	63.2119
20.648	63.1316
20.666	63.0534
20.684	62.9769
20.702	62.9039
20.72	62.8357
20.738	62.7723
20.756	62.7158
20.774	62.6656
20.792	62.6231
20.81	62.5889
20.828	62.5626
20.846	62.5446
20.864	62.5347
20.882	62.5316
20.9	62.5358
20.918	62.5452
20.936	62.5589
20.954	62.5765
20.972	62.5946
20.99	62.6139
21.008	62.6317
21.026	62.6468
21.044	62.659
21.062	62.6659
21.08	62.6681
21.098	62.6647
21.116	62.6552
21.134	62.6402
21.152	62.6203
21.17	62.5951
21.188	62.5672
21.206	62.5362
21.224	62.5037
21.242	62.4725
21.26	62.4415
21.278	62.4141
21.296	62.3905
21.314	62.3714
21.332	62.3588
21.35	62.3521
21.368	62.352
21.386	62.3591
21.404	62.3726
21.422	62.3919
21.44	62.4175
21.458	62.4471
21.476	62.4802
21.494	62.5163
21.512	62.5521
21.53	62.5885
21.548	62.6233
21.566	62.6546
21.584	62.6832
21.602	62.7067
21.62	62.7252
21.638	62.7386
21.656	62.7458
21.674	62.7471
21.692	62.7434
21.71	62.7344
21.728	62.7207
21.746	62.7042
21.764	62.684
21.782	62.6622
21.8	62.6403
21.818	62.6177
21.836	62.5973
21.854	62.5791
21.872	62.5635
21.89	62.5524
21.908	62.5454
21.926	62.543
21.944	62.5457
21.962	62.5533
21.98	62.5648
21.998	62.5806
22.016	62.5999
22.034	62.6213
22.052	62.6456
22.07	62.6705
22.088	62.6945
22.106	62.7182
22.124	62.7384
22.142	62.7549
22.16	62.7673
22.178	62.7724
22.196	62.7709
22.214	62.7618
22.232	62.7432
22.25	62.7159
22.268	62.6792
22.286	62.6327
22.304	62.5766
22.322	62.5121
22.34	62.4387
22.358	62.3572
22.376	62.2705
22.394	62.1772
22.412	62.0797
22.43	61.9812
22.448	61.8798
22.466	61.7791
22.484	61.6819
22.502	61.5865
22.52	61.4966
22.538	61.4139
22.556	61.3374
22.574	61.2699
22.592	61.212
22.61	61.1632
22.628	61.1246
22.646	61.0964
22.664	61.0779
22.682	61.0686
22.7	61.069
22.718	61.0776
22.736	61.0927
22.754	61.1156
22.772	61.1433
22.79	61.1736
22.808	61.2081
22.826	61.2435
22.844	61.2781
22.862	61.313
22.88	61.3455
22.898	61.3742
22.916	61.3999
22.934	61.4215
22.952	61.4382
22.97	61.4506
22.988	61.4585
23.006	61.4612
23.024	61.4595
23.042	61.455
23.06	61.4473
23.078	61.437
23.096	61.4266
23.114	61.4158
23.132	61.4051
23.15	61.3979
23.168	61.3938
23.186	61.3931
23.204	61.3988
23.222	61.4105
23.24	61.4285
23.258	61.4543
23.276	61.4882
23.294	61.5299
23.312	61.5795
23.33	61.6377
23.348	61.7037
23.366	61.7759
23.384	61.8551
23.402	61.9404
23.42	62.029
23.438	62.1214
23.456	62.2171
23.474	62.3122
23.492	62.4067
23.51	62.5008
23.528	62.5905
23.546	62.6753
23.564	62.756
23.582	62.8293
23.6	62.8938
23.618	62.9509
23.636	62.9982
23.654	63.0346
23.672	63.0609
23.69	63.0767
23.708	63.0815
23.726	63.0752
23.744	63.059
23.762	63.0338
23.78	62.9985
23.798	62.9552
23.816	62.9059
23.834	62.8491
23.852	62.7867
23.87	62.7217
23.888	62.6528
23.906	62.5811
23.924	62.5094
23.942	62.4377
23.96	62.3656
23.978	62.2951
23.996	62.227
24.014	62.1604
24.032	62.0962
24.05	62.0351
24.068	61.9767
24.086	61.9205
24.104	61.8664
24.122	61.8147
24.14	61.7646
24.158	61.7148
24.176	61.666
24.194	61.6177
24.212	61.5681
24.23	61.5174
24.248	61.4657
24.266	61.4114
24.284	61.3535
24.302	61.2929
24.32	61.2288
24.338	61.1601
24.356	61.0871
24.374	61.0102
24.392	60.9295
24.41	60.8447
24.428	60.7561
24.446	60.6655
24.464	60.573
24.482	60.4781
24.5	60.3826
24.518	60.2882
24.536	60.1933
24.554	60.0997
24.572	60.0097
24.59	59.9228
24.608	59.839
24.626	59.7602
24.644	59.6873
24.662	59.6193
24.68	59.5573
24.698	59.5024
24.716	59.4538
24.734	59.4121
24.752	59.3778
24.77	59.3515
24.788	59.3326
24.806	59.3206
24.824	59.3155
24.842	59.318
24.86	59.3263
24.878	59.3386
24.896	59.3561
24.914	59.3781
24.932	59.4016
24.95	59.4251
24.968	59.4504
24.986	59.4756
25.004	59.4986
25.022	59.5209
25.04	59.5416
25.058	59.5575
25.076	59.5678
25.094	59.5744
25.112	59.5739
25.13	59.5628
25.148	59.5431
25.166	59.5141
25.184	59.4726
25.202	59.4175
25.22	59.3505
25.238	59.2698
25.256	59.1738
25.274	59.0621
25.292	58.9359
25.31	58.7959
25.328	58.6422
25.346	58.4734
25.364	58.293
25.382	58.1051
25.4	57.9075
25.418	57.7008
25.436	57.4906
25.454	57.2808
25.472	57.067
25.49	56.8531
25.508	56.6447
25.526	56.4422
25.544	56.243
25.562	56.0529
25.58	55.8775
25.598	55.7137
25.616	55.5623
25.634	55.4278
25.652	55.3131
25.67	55.2155
25.688	55.1359
25.706	55.0756
25.724	55.0358
25.742	55.0156
25.76	55.0122
25.778	55.0235
25.796	55.0539
25.814	55.0993
25.832	55.1521
25.85	55.2082
25.868	55.2749
25.886	55.344
25.904	55.4051
25.922	55.4569
25.94	55.5054
25.958	55.5409
25.976	55.5538
25.994	55.5472
26.012	55.5224
26.03	55.4732
26.048	55.3944
26.066	55.2893
26.084	55.1576
26.102	54.9962
26.12	54.8025
26.138	54.5766
26.156	54.3221
26.174	54.0428
26.192	53.7373
26.21	53.4023
26.228	53.048
26.246	52.6853
26.264	52.31
26.282	51.9189
26.3	51.5277
26.318	51.1518
26.336	50.784
26.354	50.4233
26.372	50.0824
26.39	49.7728
26.408	49.4844
26.426	49.221
26.444	48.9947
26.462	48.8158
26.48	48.6755
26.498	48.5765
26.516	48.5262
26.534	48.5298
26.552	48.5811
26.57	48.683
26.588	48.8403
26.606	49.0563
26.624	49.3266
26.642	49.6531
26.66	50.0387
26.678	50.4853
26.696	50.9915
26.714	51.5558
26.732	52.1771
26.75	52.8556
26.768	53.5927
26.786	54.3848
26.804	55.228
26.822	56.1227
26.84	57.0742
26.858	58.0724
26.876	59.1063
26.894	60.1732
26.912	61.2847
26.93	62.4261
26.948	63.5811
26.966	64.7948
26.984	66.159
27.002	67.4658
27.02	68.4884
27.028	68.7618