File: Bakgrunnsmateriale/MATLAB/FTIR/ftir_data/subAa/Mapping_121/BZ1503107-1_t75_cm-1.asc
PE IR       SPECTRUM    SPECTRUM    ASCII       PEDS        1.60
  -1
BZ6DA6~1.ASC
17/04/07
19:25:00.00
17/04/07
19:25:00.00
tln
$BZ1503107-1_t0075$<tbV0>[-7.8,2.6,8.0,0.0,27,1,0]
370
64

2002,4.07
MIRTGS : RIGHTBACK : INTERNAL 2
MIR : ON : INTERNAL 2
OPTKBR

0.200000
8
8.000000
FILLER
RATIO
SPECTRUM
UNLOCKED 256

DOUBLE
64
COMBINED
1
0
0

1.000000
RATIO

1
0
TRUE
51149
0
LEFT NOT FITTED RIGHT NOT FITTED 0
NONE
NONE
15600
12
4.427000
51148
TRUE
1 0 8 72 0 0 0 0

15798

#HDR
-1
-1
#GR
CM-1
%T
2.38419e-05
0.0
5000
-1.000000
4631
8
80.3989
48.9916
#DATA
5000	64.6806
4996	64.8233
4992	64.5273
4988	64.7138
4984	64.9306
4980	64.7661
4976	64.4251
4972	64.2022
4968	64.1408
4964	64.2531
4960	64.6224
4956	64.7731
4952	64.5221
4948	64.2786
4944	64.2542
4940	64.3872
4936	64.6059
4932	64.7715
4928	64.7741
4924	64.7224
4920	64.6423
4916	64.5462
4912	64.5275
4908	64.601
4904	64.6939
4900	64.5768
4896	64.3911
4892	64.4595
4888	64.631
4884	64.6209
4880	64.4714
4876	64.4803
4872	64.798
4868	65.0608
4864	64.9467
4860	64.6924
4856	64.4869
4852	64.4139
4848	64.5588
4844	64.6943
4840	64.6416
4836	64.5729
4832	64.5371
4828	64.5194
4824	64.5694
4820	64.5513
4816	64.4882
4812	64.4852
4808	64.4568
4804	64.4876
4800	64.5737
4796	64.5564
4792	64.5062
4788	64.4418
4784	64.3869
4780	64.4129
4776	64.5763
4772	64.8789
4768	65.042
4764	64.9119
4760	64.6823
4756	64.5607
4752	64.6414
4748	64.7756
4744	64.7995
4740	64.7954
4736	64.693
4732	64.5356
4728	64.5802
4724	64.7277
4720	64.7934
4716	64.7465
4712	64.5378
4708	64.3214
4704	64.4382
4700	64.7433
4696	64.8561
4692	64.7705
4688	64.5622
4684	64.3785
4680	64.4011
4676	64.5329
4672	64.6487
4668	64.7477
4664	64.7632
4660	64.8242
4656	64.8859
4652	64.7161
4648	64.6638
4644	64.8804
4640	64.9173
4636	64.7154
4632	64.6434
4628	64.8034
4624	64.9071
4620	64.8502
4616	64.942
4612	65.1028
4608	64.9894
4604	64.7146
4600	64.6241
4596	64.836
4592	65.0591
4588	65.0417
4584	64.8703
4580	64.8027
4576	64.9017
4572	64.8429
4568	64.6174
4564	64.4526
4560	64.3149
4556	64.2008
4552	64.1672
4548	64.2158
4544	64.3225
4540	64.4253
4536	64.4518
4532	64.3135
4528	64.168
4524	64.247
4520	64.4425
4516	64.544
4512	64.5283
4508	64.5429
4504	64.5151
4500	64.4414
4496	64.538
4492	64.6925
4488	64.7765
4484	64.8513
4480	64.7686
4476	64.3087
4472	63.7456
4468	63.4404
4464	63.5095
4460	63.8657
4456	64.0418
4452	63.6038
4448	62.9221
4444	62.9708
4440	63.3443
4436	63.7852
4432	68.9701
4428	79.3277
4424	76.6697
4420	65.8156
4416	68.1263
4412	76.4763
4408	73.4027
4404	67.0244
4400	64.4143
4396	64.1613
4392	63.7243
4388	63.5052
4384	64.0832
4380	64.4767
4376	64.5169
4372	64.5952
4368	64.741
4364	64.8058
4360	64.8086
4356	64.7398
4352	64.6172
4348	64.5074
4344	64.4212
4340	64.5437
4336	64.8445
4332	64.7608
4328	64.4093
4324	64.4755
4320	64.8028
4316	64.8481
4312	64.6744
4308	64.6348
4304	64.6551
4300	64.6322
4296	64.6388
4292	64.6485
4288	64.6291
4284	64.5207
4280	64.4842
4276	64.5442
4272	64.4357
4268	64.3226
4264	64.4672
4260	64.6848
4256	64.8321
4252	64.9313
4248	64.8476
4244	64.7448
4240	64.9006
4236	65.0552
4232	64.915
4228	64.7119
4224	64.7781
4220	64.8978
4216	64.8804
4212	64.8881
4208	64.9724
4204	65.0253
4200	64.909
4196	64.7553
4192	64.7263
4188	64.7408
4184	64.8004
4180	64.9717
4176	65.0463
4172	64.9036
4168	64.8377
4164	64.9309
4160	64.9542
4156	64.8587
4152	64.7524
4148	64.7462
4144	64.8173
4140	64.8866
4136	64.8973
4132	64.902
4128	65.0083
4124	65.034
4120	64.94
4116	64.8956
4112	64.8502
4108	64.7821
4104	64.7708
4100	64.9087
4096	65.0128
4092	64.9168
4088	64.8162
4084	64.7971
4080	64.8336
4076	64.8893
4072	64.9116
4068	64.9276
4064	65.0215
4060	65.1333
4056	65.1072
4052	65.0101
4048	64.9946
4044	65.0367
4040	65.1154
4036	65.1743
4032	65.104
4028	65.0139
4024	64.9501
4020	64.8504
4016	64.7989
4012	64.9038
4008	65.0201
4004	64.9481
4000	64.7977
3996	64.7278
3992	64.7958
3988	64.9788
3984	65.0512
3980	64.9696
3976	64.9855
3972	65.1311
3968	65.168
3964	65.0506
3960	64.9136
3956	64.7553
3952	64.7217
3948	64.7941
3944	64.712
3940	64.5874
3936	64.6122
3932	64.6969
3928	64.7083
3924	64.6843
3920	64.7457
3916	64.8543
3912	64.8361
3908	64.7655
3904	64.8164
3900	64.9089
3896	64.9525
3892	65.0106
3888	64.9685
3884	64.7621
3880	64.7383
3876	64.9277
3872	65.0609
3868	65.1098
3864	65.0718
3860	65.0576
3856	64.9947
3852	64.728
3848	64.5098
3844	64.5444
3840	64.7437
3836	64.7912
3832	64.6338
3828	64.5489
3824	64.6058
3820	64.7812
3816	64.9759
3812	64.9724
3808	64.884
3804	64.9495
3800	65.0955
3796	65.1832
3792	65.1022
3788	64.9345
3784	64.8571
3780	64.8963
3776	64.9644
3772	64.9991
3768	65.0217
3764	64.944
3760	64.8597
3756	64.9408
3752	65.1
3748	65.1622
3744	65.1383
3740	65.1079
3736	65.0642
3732	65.1645
3728	65.3225
3724	65.2207
3720	64.9962
3716	64.94
3712	64.9682
3708	65.0211
3704	65.178
3700	65.228
3696	65.1366
3692	65.1045
3688	65.0467
3684	64.9667
3680	65.0263
3676	65.1119
3672	65.0677
3668	64.9957
3664	64.9746
3660	64.9411
3656	64.9406
3652	65.0254
3648	65.0524
3644	65.0102
3640	65.0471
3636	65.1006
3632	65.0948
3628	65.0434
3624	64.9544
3620	64.9529
3616	65.0481
3612	65.1107
3608	65.0759
3604	64.9259
3600	64.8182
3596	64.8592
3592	64.8784
3588	64.8114
3584	64.7376
3580	64.7719
3576	64.9377
3572	65.0466
3568	65.0613
3564	65.0545
3560	64.9598
3556	64.9087
3552	65.0252
3548	65.0476
3544	64.9502
3540	64.9441
3536	64.9855
3532	64.9869
3528	65.0101
3524	65.027
3520	64.9613
3516	64.8838
3512	64.8668
3508	64.9333
3504	65.021
3500	65.012
3496	64.9022
3492	64.7819
3488	64.7575
3484	64.7944
3480	64.8438
3476	64.9789
3472	65.0824
3468	65.0061
3464	64.8799
3460	64.8444
3456	64.907
3452	65.0191
3448	65.053
3444	64.979
3440	64.9006
3436	64.7777
3432	64.706
3428	64.7912
3424	64.8754
3420	64.9329
3416	64.8908
3412	64.7711
3408	64.7568
3404	64.7262
3400	64.6974
3396	64.8165
3392	64.9112
3388	64.8594
3384	64.7976
3380	64.8327
3376	64.9066
3372	64.9515
3368	65.0065
3364	65.04
3360	65.0159
3356	64.99
3352	64.8721
3348	64.7757
3344	64.8911
3340	64.9973
3336	64.938
3332	64.8714
3328	64.937
3324	65.0056
3320	64.9038
3316	64.7852
3312	64.8487
3308	64.9454
3304	64.8908
3300	64.8163
3296	64.8344
3292	64.8726
3288	64.8737
3284	64.8304
3280	64.8164
3276	64.8453
3272	64.8381
3268	64.8568
3264	64.914
3260	64.9094
3256	64.9075
3252	64.8911
3248	64.8301
3244	64.8372
3240	64.9034
3236	64.9539
3232	64.9659
3228	64.9477
3224	64.942
3220	64.9506
3216	64.9378
3212	64.9167
3208	64.8451
3204	64.7496
3200	64.7889
3196	64.9249
3192	65.0001
3188	65.0166
3184	64.9587
3180	64.8756
3176	64.9227
3172	64.9726
3168	64.8866
3164	64.8365
3160	64.8854
3156	64.8952
3152	64.8645
3148	64.8292
3144	64.7909
3140	64.7545
3136	64.6893
3132	64.6402
3128	64.6609
3124	64.7168
3120	64.7881
3116	64.8453
3112	64.86
3108	64.8404
3104	64.7845
3100	64.7472
3096	64.746
3092	64.7206
3088	64.7401
3084	64.8363
3080	64.8718
3076	64.8829
3072	64.9567
3068	65.0222
3064	65.0589
3060	65.0461
3056	64.9458
3052	64.8607
3048	64.8632
3044	64.8728
3040	64.8151
3036	64.734
3032	64.7425
3028	64.8176
3024	64.8598
3020	64.8501
3016	64.8258
3012	64.8028
3008	64.7975
3004	64.8568
3000	64.854
2996	64.7665
2992	64.7932
2988	64.8623
2984	64.8338
2980	64.8179
2976	64.823
2972	64.7771
2968	64.7727
2964	64.81
2960	64.7673
2956	64.6822
2952	64.6849
2948	64.7105
2944	64.6702
2940	64.6976
2936	64.8099
2932	64.8498
2928	64.7529
2924	64.6353
2920	64.6516
2916	64.7274
2912	64.7605
2908	64.7997
2904	64.8178
2900	64.7859
2896	64.7804
2892	64.8173
2888	64.8598
2884	64.8837
2880	64.8505
2876	64.7966
2872	64.762
2868	64.7079
2864	64.6846
2860	64.7355
2856	64.8097
2852	64.8278
2848	64.7608
2844	64.7136
2840	64.7737
2836	64.7849
2832	64.6827
2828	64.702
2824	64.8135
2820	64.8188
2816	64.7981
2812	64.8089
2808	64.8201
2804	64.8306
2800	64.7784
2796	64.7435
2792	64.8215
2788	64.9056
2784	64.9205
2780	64.8882
2776	64.824
2772	64.7244
2768	64.6843
2764	64.7566
2760	64.7747
2756	64.7145
2752	64.7249
2748	64.7896
2744	64.8368
2740	64.8788
2736	64.8721
2732	64.7853
2728	64.7348
2724	64.7568
2720	64.7495
2716	64.7333
2712	64.7452
2708	64.7575
2704	64.7763
2700	64.7839
2696	64.769
2692	64.7564
2688	64.7918
2684	64.8191
2680	64.7999
2676	64.7949
2672	64.7986
2668	64.7809
2664	64.7252
2660	64.6805
2656	64.6809
2652	64.6912
2648	64.7007
2644	64.7199
2640	64.7683
2636	64.7698
2632	64.7063
2628	64.7126
2624	64.7699
2620	64.792
2616	64.7894
2612	64.7707
2608	64.7748
2604	64.8129
2600	64.7887
2596	64.7544
2592	64.8135
2588	64.8227
2584	64.7697
2580	64.7624
2576	64.7557
2572	64.6944
2568	64.6056
2564	64.5773
2560	64.6109
2556	64.6284
2552	64.6431
2548	64.6851
2544	64.6731
2540	64.6165
2536	64.6199
2532	64.6779
2528	64.7471
2524	64.7628
2520	64.7056
2516	64.6524
2512	64.6275
2508	64.6537
2504	64.7386
2500	64.7632
2496	64.6628
2492	64.5675
2488	64.5987
2484	64.691
2480	64.7236
2476	64.722
2472	64.7318
2468	64.7213
2464	64.6873
2460	64.6866
2456	64.7151
2452	64.6841
2448	64.6612
2444	64.6656
2440	64.5965
2436	64.5597
2432	64.6492
2428	64.7221
2424	64.7096
2420	64.71
2416	64.7341
2412	64.7129
2408	64.6482
2404	64.6151
2400	64.5843
2396	64.4936
2392	64.4487
2388	64.4885
2384	64.5546
2380	64.6542
2376	64.7332
2372	64.7478
2368	64.7132
2364	64.6105
2360	64.5043
2356	64.4485
2352	64.4417
2348	64.4795
2344	64.5048
2340	64.5671
2336	64.6601
2332	64.631
2328	64.5467
2324	64.5643
2320	64.6062
2316	64.5787
2312	64.5742
2308	64.6245
2304	64.6143
2300	64.5196
2296	64.466
2292	64.5095
2288	64.5631
2284	64.565
2280	64.5379
2276	64.5302
2272	64.5366
2268	64.5672
2264	64.6174
2260	64.6337
2256	64.6139
2252	64.5527
2248	64.4706
2244	64.427
2240	64.4155
2236	64.4278
2232	64.5085
2228	64.5978
2224	64.5871
2220	64.5303
2216	64.5209
2212	64.5314
2208	64.516
2204	64.4607
2200	64.3805
2196	64.3604
2192	64.4214
2188	64.4848
2184	64.5141
2180	64.4815
2176	64.4001
2172	64.3643
2168	64.4416
2164	64.5411
2160	64.5327
2156	64.482
2152	64.4787
2148	64.4561
2144	64.4093
2140	64.3903
2136	64.3997
2132	64.4533
2128	64.5138
2124	64.4968
2120	64.4253
2116	64.4007
2112	64.4322
2108	64.458
2104	64.4368
2100	64.3994
2096	64.3942
2092	64.4019
2088	64.4108
2084	64.3962
2080	64.3705
2076	64.3914
2072	64.43
2068	64.4462
2064	64.4039
2060	64.3388
2056	64.3504
2052	64.3891
2048	64.3945
2044	64.3924
2040	64.3961
2036	64.4092
2032	64.4007
2028	64.4125
2024	64.4767
2020	64.5218
2016	64.5044
2012	64.4419
2008	64.4168
2004	64.4167
2000	64.3835
1996	64.3321
1992	64.2689
1988	64.2883
1984	64.3985
1980	64.4418
1976	64.3913
1972	64.3425
1968	64.3479
1964	64.3887
1960	64.4126
1956	64.4304
1952	64.4246
1948	64.3782
1944	64.3599
1940	64.3757
1936	64.3599
1932	64.2936
1928	64.2817
1924	64.3296
1920	64.3602
1916	64.4052
1912	64.4103
1908	64.3446
1904	64.3311
1900	64.3526
1896	64.3258
1892	64.288
1888	64.2475
1884	64.2251
1880	64.2661
1876	64.3038
1872	64.2997
1868	64.2899
1864	64.2711
1860	64.2335
1856	64.2344
1852	64.2755
1848	64.2506
1844	64.188
1840	64.1946
1836	64.2142
1832	64.1747
1828	64.138
1824	64.1653
1820	64.2121
1816	64.2279
1812	64.2378
1808	64.2483
1804	64.2071
1800	64.1442
1796	64.1489
1792	64.1822
1788	64.1877
1784	64.1939
1780	64.1917
1776	64.1615
1772	64.184
1768	64.2525
1764	64.2532
1760	64.201
1756	64.1057
1752	63.9599
1748	63.8858
1744	63.9353
1740	63.9669
1736	63.9066
1732	63.8742
1728	63.9184
1724	63.9596
1720	64.0145
1716	64.0792
1712	64.0638
1708	64.0087
1704	63.992
1700	63.9954
1696	64.0141
1692	64.0705
1688	64.0971
1684	64.0532
1680	64.0225
1676	64.0325
1672	64.0015
1668	63.9548
1664	63.9812
1660	64.0517
1656	64.078
1652	64.0506
1648	64.0252
1644	63.9818
1640	63.923
1636	63.8995
1632	63.9451
1628	64.0527
1624	64.1455
1620	64.1943
1616	64.1419
1612	63.9905
1608	63.9143
1604	63.943
1600	63.9822
1596	63.9361
1592	63.8448
1588	63.9219
1584	64.056
1580	64.0248
1576	63.953
1572	63.9214
1568	63.8492
1564	63.7749
1560	63.8134
1556	63.9061
1552	63.9048
1548	63.8714
1544	63.9389
1540	64.0553
1536	64.0496
1532	63.9447
1528	63.8881
1524	63.8947
1520	63.8966
1516	63.9132
1512	63.9693
1508	64.0109
1504	63.9933
1500	63.8998
1496	63.8309
1492	63.8893
1488	63.9506
1484	63.9458
1480	63.9158
1476	63.8838
1472	63.8399
1468	63.7741
1464	63.7524
1460	63.8313
1456	63.9134
1452	63.9093
1448	63.8755
1444	63.8209
1440	63.7776
1436	63.8189
1432	63.8841
1428	63.9507
1424	63.9958
1420	63.9113
1416	63.7717
1412	63.6615
1408	63.5763
1404	63.6261
1400	63.7804
1396	63.8544
1392	63.8502
1388	63.8053
1384	63.6821
1380	63.5564
1376	63.5267
1372	63.5858
1368	63.6086
1364	63.5824
1360	63.594
1356	63.592
1352	63.5809
1348	63.5906
1344	63.6379
1340	63.7405
1336	63.8047
1332	63.7707
1328	63.7402
1324	63.7917
1320	63.8018
1316	63.7398
1312	63.7166
1308	63.6996
1304	63.6671
1300	63.6091
1296	63.5173
1292	63.4917
1288	63.5409
1284	63.5751
1280	63.4977
1276	63.3854
1272	63.4259
1268	63.4908
1264	63.4397
1260	63.4421
1256	63.544
1252	63.5888
1248	63.5361
1244	63.5102
1240	63.5829
1236	63.6133
1232	63.5534
1228	63.5359
1224	63.5336
1220	63.5137
1216	63.5422
1212	63.5437
1208	63.5046
1204	63.5377
1200	63.564
1196	63.4929
1192	63.43
1188	63.4396
1184	63.476
1180	63.4835
1176	63.4592
1172	63.3833
1168	63.2697
1164	63.2241
1160	63.2732
1156	63.3752
1152	63.4583
1148	63.4727
1144	63.4806
1140	63.5534
1136	63.5512
1132	63.4184
1128	63.3406
1124	63.3285
1120	63.2737
1116	63.2693
1112	63.356
1108	63.4073
1104	63.4347
1100	63.499
1096	63.5151
1092	63.4441
1088	63.4101
1084	63.4149
1080	63.3948
1076	63.4577
1072	63.5971
1068	63.6295
1064	63.498
1060	63.3411
1056	63.2696
1052	63.2751
1048	63.3532
1044	63.4098
1040	63.3359
1036	63.2566
1032	63.2727
1028	63.2706
1024	63.2458
1020	63.2844
1016	63.2624
1012	63.1846
1008	63.2535
1004	63.3769
1000	63.3755
996	 63.3352
992	 63.3851
988	 63.4644
984	 63.5056
980	 63.4698
976	 63.34
972	 63.2616
968	 63.3118
964	 63.4369
960	 63.5193
956	 63.4474
952	 63.2917
948	 63.2419
944	 63.3355
940	 63.3703
936	 63.3054
932	 63.3532
928	 63.4698
924	 63.406
920	 63.2134
916	 63.1743
912	 63.3018
908	 63.4108
904	 63.435
900	 63.3703
896	 63.3276
892	 63.344
888	 63.3418
884	 63.3664
880	 63.4156
876	 63.5034
872	 63.6459
868	 63.6465
864	 63.419
860	 63.2525
856	 63.2938
852	 63.3231
848	 63.2798
844	 63.2076
840	 63.1444
836	 63.1718
832	 63.2078
828	 63.2408
824	 63.3659
820	 63.4604
816	 63.4144
812	 63.3099
808	 63.2553
804	 63.2884
800	 63.2617
796	 63.1081
792	 63.0547
788	 63.1663
784	 63.2761
780	 63.3247
776	 63.2576
772	 63.0576
768	 62.9282
764	 63.0163
760	 63.1913
756	 63.2118
752	 63.1864
748	 63.2962
744	 63.2772
740	 63.0828
736	 63.0223
732	 62.9532
728	 62.6997
724	 62.6691
720	 62.8922
716	 63.025
712	 63.0146
708	 62.7941
704	 62.4964
700	 62.4093
696	 62.5981
692	 63.0265
688	 63.536
684	 63.7521
680	 63.7898
676	 63.7147
672	 63.3691
668	 63.1934
664	 63.2642
660	 63.2879
656	 63.2917
652	 63.2387
648	 62.9956
644	 62.5052
640	 61.8095
636	 61.5625
632	 62.1756
628	 62.7612
624	 62.7604
620	 62.4886
616	 62.5134
612	 63.2253
608	 63.8591
604	 63.7482
600	 63.3298
596	 62.8719
592	 62.5635
588	 62.5759
584	 62.889
580	 63.3621
576	 63.4517
572	 63.1159
568	 62.8362
564	 62.8585
560	 62.9225
556	 62.8101
552	 62.8581
548	 63.0519
544	 63.1931
540	 63.2345
536	 63.112
532	 63.0235
528	 63.163
524	 63.1267
520	 62.588
516	 62.2581
512	 62.3706
508	 62.3579
504	 62.2005
500	 62.265
496	 62.6531
492	 62.9524
488	 62.8537
484	 62.68
480	 62.687
476	 62.9018
472	 63.0437
468	 62.731
464	 62.2586
460	 62.1839
456	 62.3992
452	 62.367
448	 62.2247
444	 62.1693
440	 62.6122
436	 63.4698
432	 63.5345
428	 63.043
424	 62.8021
420	 62.459
416	 61.535
412	 60.1182
408	 60.3664
404	 61.776
400	 60.9767
396	 59.1285
392	 57.8154
388	 58.4731
384	 57.8122
380	 52.3671
376	 48.9916
372	 54.6774
370	 63.6214