File: Bakgrunnsmateriale/MATLAB/FTIR/ftir_data/subAa/Mapping_121/BZ1503107-1_t71.asc
PE IR       SPECTRUM    SPECTRUM    ASCII       PEDS        1.60
  -1
BZ2D4F~1.ASC
17/04/07
19:06:31.00
17/04/07
19:06:58.00
tln
$BZ1503107-1_t0071$<tbV0>[2.6,2.6,8.0,0.0,27,1,0]
27.028
64

2002,4.07
MIRTGS : RIGHTBACK : INTERNAL 2
MIR : ON : INTERNAL 2
OPTKBR

0.200000
8
8.000000
FILLER
RATIO
SPECTRUM
UNLOCKED 256

DOUBLE
64
COMBINED
1
0
0

0.002000
RATIO

1
0
TRUE
51149
0
LEFT NOT FITTED RIGHT NOT FITTED 0
NONE
NONE
15600
12
4.427000
51148
TRUE
1 0 8 72 0 0 0 0

15798

#HDR
-1
-1
#GR
µM
%T
2.38419e-05
0.0
2.000000
0.002000
12515
8
71.0316
32.2752
#DATA
2.000000	 65.4047
2.018000	 65.1807
2.036000	 63.8885
2.054000	 64.8541
2.072000	 64.3914
2.090000	 65.1457
2.108000	 64.8328
2.126000	 64.996
2.144000	 64.8369
2.162000	 65.1067
2.180000	 64.6741
2.198000	 64.4727
2.216000	 64.7134
2.234000	 64.7738
2.252000	 64.1352
2.270000	 71.0316
2.288000	 65.6244
2.306000	 65.0414
2.324000	 65.2118
2.342000	 64.9023
2.360000	 65.1049
2.378000	 64.9834
2.396000	 65.0381
2.414000	 64.8018
2.432000	 65.1385
2.450000	 64.9348
2.468000	 64.9756
2.486000	 64.9528
2.504000	 64.7904
2.522000	 65.0874
2.540000	 64.9424
2.558000	 65.03
2.576000	 65.0175
2.594000	 65.1343
2.612000	 65.047
2.630000	 65.0023
2.648000	 65.1311
2.666000	 65.1451
2.684000	 65.0356
2.702000	 65.0174
2.720000	 65.1931
2.738000	 65.1579
2.756000	 65.1202
2.774000	 65.0144
2.792000	 64.8319
2.810000	 65.0644
2.828000	 65.008
2.846000	 65.1259
2.864000	 65.0304
2.882000	 65.1114
2.900000	 65.0278
2.918000	 64.9368
2.936000	 64.9551
2.954000	 64.9182
2.972000	 64.9629
2.990000	 65.0316
3.008000	 65.0425
3.026000	 65.0646
3.044000	 64.985
3.062000	 64.989
3.080000	 65.1203
3.098000	 65.0879
3.116000	 65.0268
3.134000	 65.0211
3.152000	 65.042
3.170000	 64.9281
3.188000	 64.8377
3.206000	 65.1336
3.224000	 64.9537
3.242000	 64.8596
3.260000	 64.9703
3.278000	 64.9486
3.296000	 64.9279
3.314000	 64.9529
3.332000	 64.9704
3.350000	 64.7516
3.368000	 64.9013
3.386000	 64.6989
3.404000	 64.7171
3.422000	 64.8604
3.440000	 64.7024
3.458000	 64.7304
3.476000	 64.7235
3.494000	 64.8877
3.512000	 64.7873
3.530000	 64.7938
3.548000	 64.9827
3.566000	 64.893
3.584000	 64.889
3.602000	 64.9204
3.620000	 64.8822
3.638000	 64.8048
3.656000	 64.9403
3.674000	 65.0061
3.692000	 64.8918
3.710000	 64.753
3.728000	 64.9461
3.746000	 64.8103
3.764000	 64.812
3.782000	 64.8189
3.800000	 64.7283
3.818000	 64.8667
3.836000	 64.7354
3.854000	 64.6964
3.872000	 64.6989
3.890000	 64.7803
3.908000	 64.7168
3.926000	 64.7227
3.944000	 64.8136
3.962000	 64.813
3.980000	 64.7186
3.998000	 64.654
4.016000	 64.7102
4.034000	 64.815
4.052000	 64.6592
4.070000	 64.7805
4.088000	 64.756
4.106000	 64.641
4.124000	 64.7133
4.141999	 64.764
4.160000	 64.7383
4.178000	 64.5833
4.196000	 64.6131
4.214000	 64.7318
4.232000	 64.6089
4.250000	 64.563
4.268000	 64.6595
4.286000	 64.7187
4.304000	 64.6251
4.322000	 64.6399
4.340000	 64.5877
4.358000	 64.5714
4.375999	 64.6029
4.394000	 64.6723
4.412000	 64.6738
4.430000	 64.699
4.448000	 64.5661
4.466000	 64.5738
4.484000	 64.5551
4.502000	 64.6253
4.520000	 64.6259
4.538000	 64.5049
4.556000	 64.4406
4.574000	 64.6083
4.592000	 64.533
4.609999	 64.5491
4.628000	 64.5008
4.646000	 64.4137
4.664000	 64.4857
4.682000	 64.575
4.700000	 64.5642
4.718000	 64.4556
4.736000	 64.5134
4.754000	 64.595
4.772000	 64.5122
4.790000	 64.5158
4.808000	 64.4832
4.826000	 64.566
4.843999	 64.4273
4.862000	 64.4848
4.880000	 64.3188
4.898000	 64.2947
4.916000	 64.4387
4.934000	 64.3375
4.952000	 64.4287
4.970000	 64.469
4.988000	 64.5006
5.006000	 64.3837
5.024000	 64.3258
5.042000	 64.4151
5.060000	 64.4283
5.077999	 64.3756
5.096000	 64.3914
5.114000	 64.4226
5.132000	 64.364
5.150000	 64.3246
5.168000	 64.243
5.186000	 64.2845
5.204000	 64.2808
5.222000	 64.2771
5.240000	 64.28
5.258000	 64.2883
5.276000	 64.2669
5.294000	 64.314
5.312000	 64.3473
5.330000	 64.3114
5.348000	 64.306
5.366000	 64.2958
5.384000	 64.289
5.402000	 64.3101
5.420000	 64.2742
5.438000	 64.289
5.456000	 64.2723
5.474000	 64.2136
5.492000	 64.1687
5.510000	 64.2339
5.528000	 64.232
5.546000	 64.1639
5.564000	 64.1934
5.582000	 64.1887
5.600000	 64.1618
5.618000	 64.2011
5.636000	 64.2912
5.654000	 64.2958
5.672000	 64.2834
5.690000	 64.2412
5.708000	 64.037
5.726000	 64.0057
5.744000	 63.9119
5.762000	 63.813
5.780000	 63.8195
5.798000	 63.9539
5.816000	 64.0684
5.834000	 64.1315
5.852000	 64.1404
5.870000	 64.0295
5.888000	 63.9738
5.906000	 64.0373
5.923999	 64.0748
5.942000	 64.0312
5.960000	 64.0168
5.978000	 64.0177
5.996000	 64.0149
6.014000	 63.9744
6.032000	 63.9713
6.050000	 64.0078
6.068000	 64.0288
6.086000	 64.0086
6.104000	 63.9506
6.122000	 64.0097
6.140000	 64.1428
6.158000	 64.2258
6.176000	 64.2106
6.194000	 64.126
6.212000	 64.004
6.230000	 63.9575
6.248000	 64.0013
6.266000	 63.9903
6.284000	 63.9552
6.302000	 64.0247
6.320000	 64.0524
6.338000	 63.9623
6.356000	 63.9462
6.374000	 63.9811
6.392000	 63.9431
6.410000	 63.9021
6.428000	 63.9134
6.446000	 63.8944
6.464000	 63.8564
6.482000	 63.8802
6.500000	 63.9096
6.518000	 63.8611
6.536000	 63.8348
6.554000	 63.9062
6.572000	 64.0151
6.590000	 64.0663
6.608000	 64.0275
6.626000	 63.9675
6.644000	 63.9438
6.662000	 63.8858
6.680000	 63.8146
6.698000	 63.8327
6.716000	 63.9136
6.734000	 63.9745
6.752000	 63.9675
6.770000	 63.9246
6.788000	 63.8724
6.806000	 63.8223
6.824000	 63.7837
6.842000	 63.8181
6.860000	 63.9268
6.878000	 63.9437
6.896000	 63.8752
6.914000	 63.8761
6.932000	 63.9318
6.950000	 63.951
6.968000	 63.9167
6.986000	 63.9003
7.004000	 63.9326
7.022000	 63.9561
7.040000	 63.9225
7.058000	 63.8457
7.076000	 63.7457
7.094000	 63.6464
7.112000	 63.6226
7.130000	 63.6975
7.148000	 63.7763
7.166000	 63.7898
7.184000	 63.7662
7.202000	 63.7348
7.220000	 63.6969
7.238000	 63.6603
7.256000	 63.6211
7.274000	 63.5915
7.292000	 63.618
7.310000	 63.6801
7.328000	 63.7073
7.346000	 63.6985
7.364000	 63.6857
7.382000	 63.6714
7.400000	 63.6747
7.418000	 63.7146
7.436000	 63.7441
7.454000	 63.7427
7.472000	 63.7709
7.490000	 63.8205
7.508000	 63.8114
7.526000	 63.764
7.544000	 63.7518
7.562000	 63.7673
7.580000	 63.772
7.598000	 63.7622
7.616000	 63.7467
7.634000	 63.7477
7.652000	 63.7861
7.670000	 63.8267
7.688000	 63.8047
7.706000	 63.7166
7.724000	 63.6298
7.742000	 63.6034
7.760000	 63.6276
7.778000	 63.6461
7.796000	 63.63
7.814000	 63.5994
7.832000	 63.574
7.850000	 63.5534
7.868000	 63.5453
7.886000	 63.5535
7.904000	 63.5585
7.922000	 63.5492
7.940000	 63.5475
7.958000	 63.5717
7.976000	 63.6017
7.994000	 63.6057
8.012000	 63.5837
8.030000	 63.5677
8.048000	 63.5824
8.065999	 63.6255
8.084000	 63.6728
8.102000	 63.6841
8.120000	 63.6354
8.138000	 63.5616
8.155999	 63.5286
8.173999	 63.5537
8.192000	 63.5938
8.210000	 63.617
8.228000	 63.6309
8.246000	 63.6488
8.263999	 63.6691
8.282000	 63.6789
8.300000	 63.672
8.318000	 63.6594
8.336000	 63.6586
8.353999	 63.6656
8.372000	 63.6554
8.390000	 63.6209
8.408000	 63.5879
8.426000	 63.5812
8.443999	 63.5913
8.462000	 63.5835
8.480000	 63.5367
8.498000	 63.4708
8.516000	 63.4244
8.533999	 63.4137
8.552000	 63.4184
8.570000	 63.4134
8.588000	 63.4011
8.606000	 63.4051
8.624000	 63.4388
8.641999	 63.488
8.660000	 63.5206
8.678000	 63.5161
8.696000	 63.4887
8.714000	 63.4751
8.731999	 63.4976
8.750000	 63.5451
8.768000	 63.5912
8.786000	 63.6161
8.804000	 63.6109
8.821999	 63.5735
8.840000	 63.5164
8.858000	 63.4692
8.876000	 63.4567
8.894000	 63.4756
8.911999	 63.5012
8.930000	 63.5177
8.948000	 63.5281
8.966000	 63.5363
8.984000	 63.5334
9.001999	 63.5096
9.020000	 63.4709
9.038000	 63.4319
9.056000	 63.3979
9.074000	 63.3637
9.092000	 63.3313
9.109999	 63.3178
9.128000	 63.3395
9.146000	 63.393
9.164000	 63.4564
9.182000	 63.5074
9.199999	 63.5352
9.218000	 63.538
9.236000	 63.5175
9.254000	 63.4807
9.272000	 63.4444
9.289999	 63.4292
9.308000	 63.443
9.326000	 63.475
9.344000	 63.5057
9.362000	 63.5236
9.379999	 63.5304
9.398000	 63.5317
9.416000	 63.5302
9.434000	 63.5286
9.452000	 63.5354
9.469999	 63.5577
9.488000	 63.5907
9.506000	 63.6185
9.524000	 63.6307
9.542000	 63.6328
9.560000	 63.6377
9.577999	 63.6469
9.596000	 63.6447
9.614000	 63.6125
9.632000	 63.5483
9.650000	 63.4703
9.667999	 63.4016
9.686000	 63.3557
9.704000	 63.3339
9.722000	 63.3309
9.740000	 63.3402
9.757999	 63.3543
9.776000	 63.3648
9.794000	 63.3634
9.812000	 63.3481
9.830000	 63.3267
9.847999	 63.314
9.866000	 63.3222
9.884000	 63.3529
9.902000	 63.3961
9.920000	 63.4363
9.937999	 63.462
9.956000	 63.4705
9.974000	 63.4668
9.992000	 63.4582
10.01	63.452
10.028	63.4538
10.046	63.4667
10.064	63.4877
10.082	63.5095
10.1	63.5273
10.118	63.5457
10.136	63.5761
10.154	63.6256
10.172	63.6852
10.19	63.7282
10.208	63.7269
10.226	63.6726
10.244	63.5827
10.262	63.4931
10.28	63.4343
10.298	63.4183
10.316	63.436
10.334	63.4674
10.352	63.4943
10.37	63.5076
10.388	63.5085
10.406	63.5026
10.424	63.494
10.442	63.4818
10.46	63.4621
10.478	63.4311
10.496	63.3913
10.514	63.352
10.532	63.3265
10.55	63.3225
10.568	63.3377
10.586	63.3591
10.604	63.372
10.622	63.3671
10.64	63.3479
10.658	63.3271
10.676	63.3216
10.694	63.343
10.712	63.3929
10.73	63.4617
10.748	63.5337
10.766	63.5922
10.784	63.6267
10.802	63.636
10.82	63.6278
10.838	63.6165
10.856	63.6154
10.874	63.6315
10.892	63.6617
10.91	63.6933
10.928	63.7115
10.946	63.7042
10.964	63.6697
10.982	63.6166
11	63.5606
11.018	63.5181
11.036	63.4985
11.054	63.5022
11.072	63.5211
11.09	63.5431
11.108	63.5579
11.126	63.5604
11.144	63.552
11.162	63.5388
11.18	63.5288
11.198	63.5296
11.216	63.5449
11.234	63.5737
11.252	63.6094
11.27	63.6428
11.288	63.6632
11.306	63.6634
11.324	63.6412
11.342	63.6014
11.36	63.5541
11.378	63.5115
11.396	63.484
11.414	63.4775
11.432	63.4911
11.45	63.518
11.468	63.5468
11.486	63.5652
11.504	63.5631
11.522	63.5363
11.54	63.4883
11.558	63.429
11.576	63.3724
11.594	63.3303
11.612	63.3092
11.63	63.3076
11.648	63.3179
11.666	63.329
11.684	63.3322
11.702	63.3247
11.72	63.3094
11.738	63.2943
11.756	63.2873
11.774	63.2942
11.792	63.3164
11.81	63.3511
11.828	63.393
11.846	63.4354
11.864	63.471
11.882	63.4935
11.9	63.4968
11.918	63.4771
11.936	63.434
11.954	63.3716
11.972	63.2993
11.99	63.2301
12.008	63.1769
12.026	63.1496
12.044	63.1521
12.062	63.1805
12.08	63.2244
12.098	63.2708
12.116	63.3085
12.134	63.3311
12.152	63.3384
12.17	63.3338
12.188	63.3222
12.206	63.3072
12.224	63.2916
12.242	63.2771
12.26	63.2663
12.278	63.2622
12.296	63.2665
12.314	63.2792
12.332	63.2977
12.35	63.3168
12.368	63.3311
12.386	63.3374
12.404	63.3354
12.422	63.3275
12.44	63.3176
12.458	63.3081
12.476	63.2981
12.494	63.2835
12.512	63.2583
12.53	63.2186
12.548	63.1647
12.566	63.102
12.584	63.0395
12.602	62.988
12.62	62.9551
12.638	62.9441
12.656	62.9544
12.674	62.982
12.692	63.0237
12.71	63.0782
12.728	63.1483
12.746	63.2384
12.764	63.3524
12.782	63.4903
12.8	63.6461
12.818	63.8068
12.836	63.9557
12.854	64.075
12.872	64.1504
12.89	64.1733
12.908	64.1438
12.926	64.0688
12.944	63.9608
12.962	63.8347
12.98	63.705
12.998	63.5838
13.016	63.4789
13.034	63.3938
13.052	63.3282
13.07	63.28
13.088	63.2458
13.106	63.2226
13.124	63.2083
13.142	63.202
13.16	63.2026
13.178	63.2094
13.196	63.2207
13.214	63.2341
13.232	63.2465
13.25	63.2536
13.268	63.2502
13.286	63.2319
13.304	63.1957
13.322	63.1402
13.34	63.066
13.358	62.9766
13.376	62.8784
13.394	62.7795
13.412	62.6884
13.43	62.6139
13.448	62.5629
13.466	62.54
13.484	62.5462
13.502	62.5786
13.52	62.6314
13.538	62.6978
13.556	62.7714
13.574	62.8481
13.592	62.9266
13.61	63.0084
13.628	63.0957
13.646	63.1897
13.664	63.2881
13.682	63.3853
13.7	63.4711
13.718	63.5329
13.736	63.5576
13.754	63.5357
13.772	63.4625
13.79	63.3402
13.808	63.1774
13.826	62.9887
13.844	62.7914
13.862	62.6032
13.88	62.4395
13.898	62.3115
13.916	62.2257
13.934	62.1842
13.952	62.1848
13.97	62.2226
13.988	62.2906
14.006	62.3801
14.024	62.4816
14.042	62.5849
14.06	62.6806
14.078	62.7601
14.096	62.8178
14.114	62.8509
14.132	62.8605
14.15	62.851
14.168	62.8296
14.186	62.805
14.204	62.7861
14.222	62.7802
14.24	62.7922
14.258	62.8236
14.276	62.8729
14.294	62.9361
14.312	63.0084
14.33	63.0847
14.348	63.1607
14.366	63.2332
14.384	63.2999
14.402	63.3598
14.42	63.4116
14.438	63.4541
14.456	63.4857
14.474	63.504
14.492	63.5064
14.51	63.4913
14.528	63.4588
14.546	63.4113
14.564	63.3534
14.582	63.2911
14.6	63.2317
14.618	63.183
14.636	63.1524
14.654	63.1447
14.672	63.1622
14.69	63.2038
14.708	63.2659
14.726	63.3428
14.744	63.4258
14.762	63.5065
14.78	63.5766
14.798	63.6289
14.816	63.6574
14.834	63.658
14.852	63.6286
14.87	63.5701
14.888	63.4855
14.906	63.3796
14.924	63.2589
14.942	63.1322
14.96	63.0085
14.978	62.8966
14.996	62.8044
15.014	62.7385
15.032	62.7038
15.05	62.7007
15.068	62.727
15.086	62.7776
15.104	62.8452
15.122	62.9191
15.14	62.9889
15.158	63.0457
15.176	63.0818
15.194	63.0913
15.212	63.0721
15.23	63.0259
15.248	62.9565
15.266	62.8696
15.284	62.7739
15.302	62.6778
15.32	62.5885
15.338	62.5121
15.356	62.4533
15.374	62.4147
15.392	62.3958
15.41	62.3947
15.428	62.4079
15.446	62.429
15.464	62.4527
15.482	62.4736
15.5	62.4866
15.518	62.4868
15.536	62.4728
15.554	62.4438
15.572	62.4004
15.59	62.3464
15.608	62.2857
15.626	62.2228
15.644	62.1632
15.662	62.113
15.68	62.0757
15.698	62.0544
15.716	62.0508
15.734	62.0638
15.752	62.0916
15.77	62.1315
15.788	62.178
15.806	62.2265
15.824	62.2728
15.842	62.3123
15.86	62.3416
15.878	62.3597
15.896	62.3661
15.914	62.3626
15.932	62.3521
15.95	62.337
15.968	62.3215
15.986	62.3096
16.004	62.3041
16.022	62.3079
16.04	62.3231
16.058	62.3504
16.076	62.3899
16.094	62.4409
16.112	62.5021
16.13	62.5722
16.148	62.6495
16.166	62.7323
16.184	62.8191
16.202	62.9086
16.22	62.9989
16.238	63.0887
16.256	63.1766
16.274	63.2605
16.292	63.3387
16.31	63.4097
16.328	63.4711
16.346	63.522
16.364	63.5613
16.382	63.5886
16.4	63.6045
16.418	63.6096
16.436	63.6059
16.454	63.5958
16.472	63.5812
16.49	63.5649
16.508	63.5478
16.526	63.5306
16.544	63.5135
16.562	63.4952
16.58	63.4748
16.598	63.4494
16.616	63.417
16.634	63.3758
16.652	63.3238
16.67	63.2609
16.688	63.1868
16.706	63.1036
16.724	63.0134
16.742	62.919
16.76	62.8252
16.778	62.7345
16.796	62.6514
16.814	62.579
16.832	62.5192
16.85	62.4744
16.868	62.4444
16.886	62.429
16.904	62.4265
16.922	62.4349
16.94	62.4522
16.958	62.4748
16.976	62.5013
16.994	62.528
17.012	62.5539
17.03	62.5776
17.048	62.5984
17.066	62.6168
17.084	62.6331
17.102	62.6484
17.12	62.6633
17.138	62.6797
17.156	62.6986
17.174	62.7209
17.192	62.7479
17.21	62.7798
17.228	62.8171
17.246	62.8596
17.264	62.9072
17.282	62.9592
17.3	63.0152
17.318	63.0743
17.336	63.1358
17.354	63.1989
17.372	63.2624
17.39	63.3256
17.408	63.3872
17.426	63.446
17.444	63.5015
17.462	63.5518
17.48	63.5963
17.498	63.6333
17.516	63.6619
17.534	63.6808
17.552	63.6893
17.57	63.687
17.588	63.6735
17.606	63.6493
17.624	63.6149
17.642	63.5719
17.66	63.5208
17.678	63.4651
17.696	63.4057
17.714	63.3458
17.732	63.2868
17.75	63.2308
17.768	63.1795
17.786	63.1335
17.804	63.094
17.822	63.0609
17.84	63.0342
17.858	63.0132
17.876	62.9973
17.894	62.9853
17.912	62.9766
17.93	62.9698
17.948	62.9646
17.966	62.9599
17.984	62.9556
18.002	62.9514
18.02	62.9476
18.038	62.9439
18.056	62.941
18.074	62.9387
18.092	62.9379
18.11	62.9387
18.128	62.9416
18.146	62.9468
18.164	62.9545
18.182	62.9645
18.2	62.9766
18.218	62.9902
18.236	63.0053
18.254	63.0207
18.272	63.0363
18.29	63.0507
18.308	63.0636
18.326	63.0736
18.344	63.0808
18.362	63.084
18.38	63.0834
18.398	63.0785
18.416	63.0696
18.434	63.0569
18.452	63.0411
18.47	63.0226
18.488	63.0031
18.506	62.9829
18.524	62.9641
18.542	62.947
18.56	62.9335
18.578	62.924
18.596	62.9196
18.614	62.9204
18.632	62.9268
18.65	62.9386
18.668	62.9552
18.686	62.9762
18.704	63.0001
18.722	63.0266
18.74	63.0537
18.758	63.0811
18.776	63.1068
18.794	63.1306
18.812	63.1513
18.83	63.1689
18.848	63.1827
18.866	63.1932
18.884	63.2005
18.902	63.2048
18.92	63.2068
18.938	63.2069
18.956	63.2057
18.974	63.2035
18.992	63.2009
19.01	63.1977
19.028	63.1941
19.046	63.1896
19.064	63.1838
19.082	63.1764
19.1	63.1666
19.118	63.1543
19.136	63.1386
19.154	63.1199
19.172	63.0979
19.19	63.0732
19.208	63.0464
19.226	63.0179
19.244	62.9898
19.262	62.9622
19.28	62.9375
19.298	62.9157
19.316	62.8988
19.334	62.8866
19.352	62.8799
19.37	62.8787
19.388	62.8819
19.406	62.8897
19.424	62.8997
19.442	62.9121
19.46	62.9239
19.478	62.935
19.496	62.943
19.514	62.9473
19.532	62.947
19.55	62.941
19.568	62.9297
19.586	62.9125
19.604	62.8902
19.622	62.8637
19.64	62.8333
19.658	62.8011
19.676	62.767
19.694	62.7334
19.712	62.7001
19.73	62.6692
19.748	62.6407
19.766	62.6159
19.784	62.5951
19.802	62.5785
19.82	62.5667
19.838	62.5592
19.856	62.5561
19.874	62.5571
19.892	62.5617
19.91	62.5699
19.928	62.5809
19.946	62.5949
19.964	62.6111
19.982	62.6296
20	62.65
20.018	62.672
20.036	62.6958
20.054	62.721
20.072	62.7477
20.09	62.7759
20.108	62.8055
20.126	62.8363
20.144	62.8684
20.162	62.9014
20.18	62.9352
20.198	62.9696
20.216	63.0042
20.234	63.0389
20.252	63.073
20.27	63.1067
20.288	63.1394
20.306	63.1711
20.324	63.2017
20.342	63.2308
20.36	63.2585
20.378	63.2848
20.396	63.3098
20.414	63.3333
20.432	63.3553
20.45	63.376
20.468	63.3955
20.486	63.4136
20.504	63.4299
20.522	63.4447
20.54	63.4573
20.558	63.4681
20.576	63.4759
20.594	63.4806
20.612	63.4816
20.63	63.4782
20.648	63.4704
20.666	63.4569
20.684	63.4375
20.702	63.4118
20.72	63.3791
20.738	63.3396
20.756	63.2926
20.774	63.2383
20.792	63.1773
20.81	63.1093
20.828	63.0353
20.846	62.9563
20.864	62.8721
20.882	62.7852
20.9	62.6952
20.918	62.6041
20.936	62.5136
20.954	62.4234
20.972	62.337
20.99	62.2535
21.008	62.1751
21.026	62.1027
21.044	62.0363
21.062	61.9775
21.08	61.9259
21.098	61.8817
21.116	61.8453
21.134	61.8161
21.152	61.7936
21.17	61.7779
21.188	61.7674
21.206	61.7621
21.224	61.7613
21.242	61.7634
21.26	61.769
21.278	61.7764
21.296	61.7853
21.314	61.7956
21.332	61.8064
21.35	61.8178
21.368	61.8297
21.386	61.8417
21.404	61.8542
21.422	61.8673
21.44	61.8809
21.458	61.8954
21.476	61.9109
21.494	61.9274
21.512	61.9449
21.53	61.9636
21.548	61.983
21.566	62.0032
21.584	62.0241
21.602	62.0445
21.62	62.0649
21.638	62.084
21.656	62.1008
21.674	62.1158
21.692	62.127
21.71	62.1341
21.728	62.1369
21.746	62.1336
21.764	62.1245
21.782	62.1092
21.8	62.0869
21.818	62.0579
21.836	62.0226
21.854	61.9806
21.872	61.9328
21.89	61.881
21.908	61.8243
21.926	61.7653
21.944	61.7054
21.962	61.6442
21.98	61.5857
21.998	61.5297
22.016	61.4775
22.034	61.4331
22.052	61.395
22.07	61.3656
22.088	61.347
22.106	61.3381
22.124	61.3403
22.142	61.3543
22.16	61.3793
22.178	61.4144
22.196	61.4607
22.214	61.516
22.232	61.5785
22.25	61.6495
22.268	61.7251
22.286	61.8035
22.304	61.8856
22.322	61.9664
22.34	62.0456
22.358	62.1226
22.376	62.1933
22.394	62.2583
22.412	62.3167
22.43	62.3659
22.448	62.4066
22.466	62.4386
22.484	62.4614
22.502	62.475
22.52	62.481
22.538	62.4796
22.556	62.4707
22.574	62.4575
22.592	62.4398
22.61	62.4182
22.628	62.3962
22.646	62.3731
22.664	62.3498
22.682	62.3291
22.7	62.3103
22.718	62.2941
22.736	62.2818
22.754	62.2733
22.772	62.268
22.79	62.2656
22.808	62.2667
22.826	62.2694
22.844	62.2728
22.862	62.2775
22.88	62.2815
22.898	62.2838
22.916	62.2851
22.934	62.2835
22.952	62.2785
22.97	62.2706
22.988	62.259
23.006	62.2433
23.024	62.2241
23.042	62.2023
23.06	62.1773
23.078	62.1499
23.096	62.1225
23.114	62.0945
23.132	62.0667
23.15	62.0423
23.168	62.021
23.186	62.003
23.204	61.9911
23.222	61.9848
23.24	61.9843
23.258	61.9915
23.276	62.0065
23.294	62.0291
23.312	62.0597
23.33	62.0987
23.348	62.1457
23.366	62.1998
23.384	62.2619
23.402	62.3311
23.42	62.4052
23.438	62.4846
23.456	62.569
23.474	62.656
23.492	62.7456
23.51	62.8379
23.528	62.931
23.546	63.0245
23.564	63.1188
23.582	63.2127
23.6	63.3056
23.618	63.3981
23.636	63.4895
23.654	63.5799
23.672	63.6692
23.69	63.7573
23.708	63.8441
23.726	63.9297
23.744	64.0136
23.762	64.0953
23.78	64.1755
23.798	64.2532
23.816	64.3275
23.834	64.3994
23.852	64.4677
23.87	64.5312
23.888	64.5908
23.906	64.6454
23.924	64.6928
23.942	64.7333
23.96	64.7669
23.978	64.7905
23.996	64.8031
24.014	64.806
24.032	64.797
24.05	64.7749
24.068	64.7406
24.086	64.6934
24.104	64.6325
24.122	64.5581
24.14	64.4705
24.158	64.3699
24.176	64.2556
24.194	64.1286
24.212	63.9901
24.23	63.8397
24.248	63.6776
24.266	63.5065
24.284	63.3279
24.302	63.14
24.32	62.9461
24.338	62.7491
24.356	62.5466
24.374	62.3413
24.392	62.1375
24.41	61.9342
24.428	61.7315
24.446	61.5332
24.464	61.3408
24.482	61.1525
24.5	60.9706
24.518	60.7972
24.536	60.6315
24.554	60.4734
24.572	60.3233
24.59	60.1815
24.608	60.0476
24.626	59.9215
24.644	59.8038
24.662	59.6945
24.68	59.5918
24.698	59.4941
24.716	59.4035
24.734	59.3173
24.752	59.2314
24.77	59.1462
24.788	59.0624
24.806	58.9754
24.824	58.8822
24.842	58.7855
24.86	58.6828
24.878	58.5709
24.896	58.4503
24.914	58.3213
24.932	58.1823
24.95	58.0322
24.968	57.8721
24.986	57.7014
25.004	57.5197
25.022	57.3257
25.04	57.1213
25.058	56.9089
25.076	56.6892
25.094	56.4604
25.112	56.2266
25.13	55.9919
25.148	55.752
25.166	55.5104
25.184	55.2744
25.202	55.0463
25.22	54.8212
25.238	54.6074
25.256	54.4133
25.274	54.2344
25.292	54.0724
25.31	53.9352
25.328	53.8275
25.346	53.7442
25.364	53.689
25.382	53.6668
25.4	53.6769
25.418	53.718
25.436	53.7925
25.454	53.9026
25.472	54.0473
25.49	54.2256
25.508	54.4369
25.526	54.6817
25.544	54.9602
25.562	55.2694
25.58	55.6064
25.598	55.9743
25.616	56.3708
25.634	56.7907
25.652	57.2313
25.67	57.6968
25.688	58.1824
25.706	58.6826
25.724	59.1982
25.742	59.7309
25.76	60.2743
25.778	60.8227
25.796	61.3811
25.814	61.9466
25.832	62.5118
25.85	63.0725
25.868	63.6354
25.886	64.1936
25.904	64.7382
25.922	65.2683
25.94	65.7889
25.958	66.2916
25.976	66.768
25.994	67.2228
26.012	67.6558
26.03	68.0576
26.048	68.4207
26.066	68.7514
26.084	69.0473
26.102	69.3014
26.12	69.5098
26.138	69.6789
26.156	69.8034
26.174	69.8769
26.192	69.8963
26.21	69.8659
26.228	69.7846
26.246	69.6509
26.264	69.4653
26.282	69.2284
26.3	68.9395
26.318	68.5977
26.336	68.2038
26.354	67.7581
26.372	67.2596
26.39	66.7073
26.408	66.1019
26.426	65.4437
26.444	64.733
26.462	63.9697
26.48	63.1516
26.498	62.282
26.516	61.3655
26.534	60.4047
26.552	59.3936
26.57	58.3386
26.588	57.2486
26.606	56.1284
26.624	54.9695
26.642	53.7796
26.66	52.5681
26.678	51.3381
26.696	50.0779
26.714	48.8024
26.732	47.5288
26.75	46.2632
26.768	44.9883
26.786	43.7229
26.804	42.4883
26.822	41.2907
26.84	40.1085
26.858	38.9663
26.876	37.8916
26.894	36.8941
26.912	35.9475
26.93	35.0772
26.948	34.3118
26.966	33.6691
26.984	33.1293
27.002	32.6949
27.02	32.3708
27.028	32.2752