File: Bakgrunnsmateriale/MATLAB/FTIR/ftir_data/subAa/Mapping_121/BZ1503107-1_t12.asc
PE IR       SPECTRUM    SPECTRUM    ASCII       PEDS        1.60
  -1
BZ215B~1.ASC
17/04/07
14:11:54.00
17/04/07
14:12:20.00
tln
$BZ1503107-1_t0012$<tbV0>[13.0,-10.4,8.0,0.0,27,1,0]
27.028
64

2002,4.07
MIRTGS : RIGHTBACK : INTERNAL 2
MIR : ON : INTERNAL 2
OPTKBR

0.200000
8
8.000000
FILLER
RATIO
SPECTRUM
UNLOCKED 256

DOUBLE
64
COMBINED
1
0
0

0.002000
RATIO

1
0
TRUE
51149
0
LEFT NOT FITTED RIGHT NOT FITTED 0
NONE
NONE
15600
12
4.427000
51148
TRUE
1 0 8 72 0 0 0 0

15798

#HDR
-1
-1
#GR
µM
%T
2.38419e-05
0.0
2.000000
0.002000
12515
8
79.6671
46.2642
#DATA
2.000000	 66.2944
2.018000	 64.3248
2.036000	 65.0633
2.054000	 65.5731
2.072000	 65.1073
2.090000	 65.3954
2.108000	 64.7928
2.126000	 64.7028
2.144000	 64.7938
2.162000	 64.514
2.180000	 65.1594
2.198000	 64.9338
2.216000	 65.2346
2.234000	 68.1662
2.252000	 67.4181
2.270000	 64.9562
2.288000	 64.9989
2.306000	 65.0159
2.324000	 65.1655
2.342000	 64.9499
2.360000	 65.2205
2.378000	 65.1088
2.396000	 65.1762
2.414000	 64.9462
2.432000	 65.3218
2.450000	 65.2876
2.468000	 65.4435
2.486000	 64.9926
2.504000	 65.288
2.522000	 65.4685
2.540000	 65.665
2.558000	 65.2381
2.576000	 65.2879
2.594000	 65.4963
2.612000	 65.2797
2.630000	 65.349
2.648000	 65.1177
2.666000	 65.462
2.684000	 65.2145
2.702000	 65.3683
2.720000	 65.4749
2.738000	 65.2476
2.756000	 65.4865
2.774000	 65.2831
2.792000	 65.2718
2.810000	 65.3087
2.828000	 65.3507
2.846000	 65.1899
2.864000	 65.0537
2.882000	 65.0627
2.900000	 65.1771
2.918000	 65.1969
2.936000	 65.1748
2.954000	 65.3101
2.972000	 65.1865
2.990000	 65.0509
3.008000	 65.2742
3.026000	 65.2224
3.044000	 65.2055
3.062000	 65.1136
3.080000	 65.0612
3.098000	 65.2556
3.116000	 65.2361
3.134000	 65.2245
3.152000	 65.1851
3.170000	 65.1058
3.188000	 65.0101
3.206000	 65.127
3.224000	 65.2936
3.242000	 65.269
3.260000	 65.1758
3.278000	 65.1349
3.296000	 65.0389
3.314000	 65.1817
3.332000	 65.2662
3.350000	 65.106
3.368000	 65.1158
3.386000	 65.0327
3.404000	 65.0518
3.422000	 65.0167
3.440000	 64.977
3.458000	 65.0554
3.476000	 65.0798
3.494000	 65.2826
3.512000	 65.0515
3.530000	 65.1317
3.548000	 65.1663
3.566000	 65.0634
3.584000	 64.9853
3.602000	 65.1196
3.620000	 65.1611
3.638000	 65.0784
3.656000	 65.1778
3.674000	 65.0502
3.692000	 65.1541
3.710000	 65.2442
3.728000	 65.16
3.746000	 65.0835
3.764000	 65.1364
3.782000	 64.918
3.800000	 64.9496
3.818000	 65.0481
3.836000	 64.992
3.854000	 65.0349
3.872000	 65.0913
3.890000	 65.1048
3.908000	 65.203
3.926000	 65.0658
3.944000	 65.0917
3.962000	 65.0998
3.980000	 65.2037
3.998000	 65.1345
4.016000	 65.0441
4.034000	 65.0284
4.052000	 65.0562
4.070000	 65.0351
4.088000	 65.0196
4.106000	 64.9703
4.124000	 64.9931
4.141999	 65.0334
4.160000	 64.956
4.178000	 65.0163
4.196000	 65.0536
4.214000	 65.0618
4.232000	 65.0718
4.250000	 65.1483
4.268000	 65.0098
4.286000	 65.074
4.304000	 64.9029
4.322000	 65.0191
4.340000	 65.0407
4.358000	 64.9133
4.375999	 65.029
4.394000	 64.9993
4.412000	 64.9078
4.430000	 65.0363
4.448000	 65.0295
4.466000	 65.0058
4.484000	 64.9414
4.502000	 65.107
4.520000	 65.0816
4.538000	 65.0302
4.556000	 64.9502
4.574000	 65.0099
4.592000	 64.9689
4.609999	 64.8936
4.628000	 64.8429
4.646000	 64.8604
4.664000	 64.8827
4.682000	 64.9201
4.700000	 64.9743
4.718000	 65.0074
4.736000	 64.9927
4.754000	 64.9742
4.772000	 64.8697
4.790000	 64.8637
4.808000	 64.9191
4.826000	 64.9187
4.843999	 64.905
4.862000	 64.8918
4.880000	 64.9784
4.898000	 64.9317
4.916000	 64.8627
4.934000	 64.9613
4.952000	 64.938
4.970000	 64.9088
4.988000	 64.8777
5.006000	 64.8278
5.024000	 64.8688
5.042000	 64.8608
5.060000	 64.8506
5.077999	 64.9019
5.096000	 64.9605
5.114000	 64.9148
5.132000	 64.9571
5.150000	 64.8755
5.168000	 64.8069
5.186000	 64.7655
5.204000	 64.7635
5.222000	 64.8305
5.240000	 64.9073
5.258000	 64.9207
5.276000	 64.8235
5.294000	 64.8898
5.312000	 64.8654
5.330000	 64.8701
5.348000	 64.8394
5.366000	 64.8416
5.384000	 64.7973
5.402000	 64.7989
5.420000	 64.8425
5.438000	 64.8239
5.456000	 64.8467
5.474000	 64.9411
5.492000	 64.918
5.510000	 64.9563
5.528000	 64.9193
5.546000	 64.905
5.564000	 64.8299
5.582000	 64.7928
5.600000	 64.8238
5.618000	 64.7987
5.636000	 64.7779
5.654000	 64.7094
5.672000	 64.7372
5.690000	 64.7588
5.708000	 64.7262
5.726000	 64.608
5.744000	 64.6038
5.762000	 64.6182
5.780000	 64.5149
5.798000	 64.5247
5.816000	 64.6095
5.834000	 64.5976
5.852000	 64.6931
5.870000	 64.9175
5.888000	 65.0209
5.906000	 64.8275
5.923999	 64.8251
5.942000	 64.8851
5.960000	 64.7999
5.978000	 64.8992
5.996000	 64.9318
6.014000	 64.8298
6.032000	 64.8235
6.050000	 64.8551
6.068000	 64.7301
6.086000	 64.6661
6.104000	 64.7236
6.122000	 64.7864
6.140000	 64.7737
6.158000	 64.7494
6.176000	 64.764
6.194000	 64.7139
6.212000	 64.6998
6.230000	 64.7706
6.248000	 64.6952
6.266000	 64.6058
6.284000	 64.6881
6.302000	 64.744
6.320000	 64.7411
6.338000	 64.7755
6.356000	 64.7228
6.374000	 64.6757
6.392000	 64.8194
6.410000	 65.0031
6.428000	 64.8642
6.446000	 64.614
6.464000	 64.6412
6.482000	 64.7834
6.500000	 64.7429
6.518000	 64.6381
6.536000	 64.6456
6.554000	 64.6876
6.572000	 64.6669
6.590000	 64.6308
6.608000	 64.668
6.626000	 64.7286
6.644000	 64.6734
6.662000	 64.5961
6.680000	 64.6565
6.698000	 64.7134
6.716000	 64.6598
6.734000	 64.596
6.752000	 64.5904
6.770000	 64.6643
6.788000	 64.7023
6.806000	 64.6409
6.824000	 64.6009
6.842000	 64.6018
6.860000	 64.5636
6.878000	 64.5188
6.896000	 64.5603
6.914000	 64.6121
6.932000	 64.5773
6.950000	 64.5441
6.968000	 64.5572
6.986000	 64.55
7.004000	 64.5571
7.022000	 64.6195
7.040000	 64.6352
7.058000	 64.5556
7.076000	 64.4715
7.094000	 64.451
7.112000	 64.4607
7.130000	 64.4439
7.148000	 64.4152
7.166000	 64.4015
7.184000	 64.3883
7.202000	 64.3963
7.220000	 64.4462
7.238000	 64.4956
7.256000	 64.4879
7.274000	 64.4117
7.292000	 64.3344
7.310000	 64.3362
7.328000	 64.3851
7.346000	 64.4073
7.364000	 64.4334
7.382000	 64.5186
7.400000	 64.6092
7.418000	 64.6159
7.436000	 64.5548
7.454000	 64.509
7.472000	 64.5021
7.490000	 64.495
7.508000	 64.4627
7.526000	 64.4102
7.544000	 64.3681
7.562000	 64.379
7.580000	 64.4283
7.598000	 64.4444
7.616000	 64.4108
7.634000	 64.3815
7.652000	 64.3881
7.670000	 64.4097
7.688000	 64.413
7.706000	 64.3875
7.724000	 64.3614
7.742000	 64.3743
7.760000	 64.412
7.778000	 64.4208
7.796000	 64.3872
7.814000	 64.3365
7.832000	 64.2826
7.850000	 64.2398
7.868000	 64.2382
7.886000	 64.2809
7.904000	 64.3314
7.922000	 64.3626
7.940000	 64.3756
7.958000	 64.3761
7.976000	 64.3664
7.994000	 64.3463
8.012000	 64.3083
8.030000	 64.2559
8.048000	 64.2209
8.065999	 64.229
8.084000	 64.2568
8.102000	 64.2624
8.120000	 64.249
8.138000	 64.2555
8.155999	 64.2909
8.173999	 64.3165
8.192000	 64.3053
8.210000	 64.2819
8.228000	 64.2821
8.246000	 64.2977
8.263999	 64.2929
8.282000	 64.259
8.300000	 64.2331
8.318000	 64.2512
8.336000	 64.3
8.353999	 64.3322
8.372000	 64.3246
8.390000	 64.2982
8.408000	 64.2789
8.426000	 64.2632
8.443999	 64.237
8.462000	 64.209
8.480000	 64.1995
8.498000	 64.2117
8.516000	 64.2295
8.533999	 64.244
8.552000	 64.2594
8.570000	 64.2713
8.588000	 64.2611
8.606000	 64.2226
8.624000	 64.1765
8.641999	 64.1438
8.660000	 64.118
8.678000	 64.0771
8.696000	 64.0205
8.714000	 63.979
8.731999	 63.9922
8.750000	 64.0784
8.768000	 64.2177
8.786000	 64.3567
8.804000	 64.4404
8.821999	 64.45
8.840000	 64.408
8.858000	 64.3528
8.876000	 64.312
8.894000	 64.3023
8.911999	 64.3347
8.930000	 64.4021
8.948000	 64.4707
8.966000	 64.5009
8.984000	 64.4814
9.001999	 64.4364
9.020000	 64.3975
9.038000	 64.3726
9.056000	 64.3473
9.074000	 64.3092
9.092000	 64.2679
9.109999	 64.249
9.128000	 64.2706
9.146000	 64.3207
9.164000	 64.3654
9.182000	 64.3811
9.199999	 64.3757
9.218000	 64.3741
9.236000	 64.3866
9.254000	 64.3984
9.272000	 64.3905
9.289999	 64.3614
9.308000	 64.3216
9.326000	 64.2732
9.344000	 64.2091
9.362000	 64.1329
9.379999	 64.0685
9.398000	 64.0456
9.416000	 64.0744
9.434000	 64.1384
9.452000	 64.2118
9.469999	 64.278
9.488000	 64.3308
9.506000	 64.362
9.524000	 64.3572
9.542000	 64.3094
9.560000	 64.2346
9.577999	 64.1679
9.596000	 64.1406
9.614000	 64.1595
9.632000	 64.2056
9.650000	 64.2502
9.667999	 64.2737
9.686000	 64.2718
9.704000	 64.2522
9.722000	 64.2264
9.740000	 64.2034
9.757999	 64.1873
9.776000	 64.1766
9.794000	 64.1667
9.812000	 64.1534
9.830000	 64.1358
9.847999	 64.1162
9.866000	 64.0978
9.884000	 64.0837
9.902000	 64.0776
9.920000	 64.0832
9.937999	 64.1036
9.956000	 64.137
9.974000	 64.176
9.992000	 64.2122
10.01	64.2398
10.028	64.2567
10.046	64.2637
10.064	64.2619
10.082	64.2539
10.1	64.2447
10.118	64.2421
10.136	64.2531
10.154	64.279
10.172	64.3129
10.19	64.3403
10.208	64.3471
10.226	64.3259
10.244	64.2813
10.262	64.2294
10.28	64.19
10.298	64.1776
10.316	64.195
10.334	64.232
10.352	64.2715
10.37	64.2968
10.388	64.2995
10.406	64.2811
10.424	64.2509
10.442	64.2222
10.46	64.2082
10.478	64.2192
10.496	64.2583
10.514	64.3195
10.532	64.3877
10.55	64.4447
10.568	64.4765
10.586	64.4782
10.604	64.4549
10.622	64.4183
10.64	64.3794
10.658	64.3453
10.676	64.3191
10.694	64.3009
10.712	64.2903
10.73	64.2858
10.748	64.2844
10.766	64.2815
10.784	64.2728
10.802	64.2562
10.82	64.2339
10.838	64.2119
10.856	64.1987
10.874	64.2016
10.892	64.2231
10.91	64.2588
10.928	64.2979
10.946	64.3259
10.964	64.3311
10.982	64.3089
11	64.2651
11.018	64.2149
11.036	64.1766
11.054	64.1651
11.072	64.1851
11.09	64.2294
11.108	64.2827
11.126	64.3248
11.144	64.3407
11.162	64.3237
11.18	64.2784
11.198	64.2193
11.216	64.1642
11.234	64.1279
11.252	64.1179
11.27	64.1322
11.288	64.161
11.306	64.1933
11.324	64.2201
11.342	64.2381
11.36	64.248
11.378	64.2523
11.396	64.2517
11.414	64.2455
11.432	64.2324
11.45	64.214
11.468	64.1953
11.486	64.1835
11.504	64.184
11.522	64.1982
11.54	64.2227
11.558	64.2504
11.576	64.2739
11.594	64.2903
11.612	64.3005
11.63	64.309
11.648	64.3202
11.666	64.3365
11.684	64.3561
11.702	64.375
11.72	64.3891
11.738	64.3973
11.756	64.4016
11.774	64.4064
11.792	64.4153
11.81	64.4283
11.828	64.4417
11.846	64.4484
11.864	64.4409
11.882	64.4147
11.9	64.3685
11.918	64.3048
11.936	64.2284
11.954	64.1443
11.972	64.0577
11.99	63.9742
12.008	63.9008
12.026	63.8462
12.044	63.8188
12.062	63.8249
12.08	63.8652
12.098	63.9337
12.116	64.0184
12.134	64.1049
12.152	64.1798
12.17	64.2347
12.188	64.2671
12.206	64.2798
12.224	64.2788
12.242	64.2702
12.26	64.2586
12.278	64.2462
12.296	64.234
12.314	64.2227
12.332	64.2127
12.35	64.204
12.368	64.1958
12.386	64.1859
12.404	64.1714
12.422	64.1495
12.44	64.1197
12.458	64.0841
12.476	64.0475
12.494	64.016
12.512	63.9956
12.53	63.9901
12.548	63.9999
12.566	64.0219
12.584	64.0508
12.602	64.0804
12.62	64.1053
12.638	64.1217
12.656	64.1285
12.674	64.1259
12.692	64.1157
12.71	64.1002
12.728	64.0824
12.746	64.0652
12.764	64.0518
12.782	64.0445
12.8	64.045
12.818	64.0542
12.836	64.0714
12.854	64.095
12.872	64.1222
12.89	64.1495
12.908	64.1734
12.926	64.1909
12.944	64.2002
12.962	64.201
12.98	64.1948
12.998	64.1844
13.016	64.1734
13.034	64.1652
13.052	64.1619
13.07	64.1644
13.088	64.1715
13.106	64.1805
13.124	64.1877
13.142	64.1897
13.16	64.1841
13.178	64.1706
13.196	64.1509
13.214	64.1284
13.232	64.1076
13.25	64.0927
13.268	64.0868
13.286	64.0906
13.304	64.1029
13.322	64.1207
13.34	64.1396
13.358	64.1556
13.376	64.1658
13.394	64.1686
13.412	64.1648
13.43	64.1562
13.448	64.1459
13.466	64.1366
13.484	64.1305
13.502	64.1283
13.52	64.1297
13.538	64.1329
13.556	64.1359
13.574	64.1368
13.592	64.1341
13.61	64.1275
13.628	64.1176
13.646	64.1056
13.664	64.0929
13.682	64.0809
13.7	64.0704
13.718	64.0617
13.736	64.0547
13.754	64.049
13.772	64.0438
13.79	64.0386
13.808	64.0327
13.826	64.0262
13.844	64.0193
13.862	64.0125
13.88	64.0061
13.898	64.001
13.916	63.9973
13.934	63.995
13.952	63.9935
13.97	63.9917
13.988	63.9885
14.006	63.9828
14.024	63.9736
14.042	63.9605
14.06	63.9439
14.078	63.9249
14.096	63.9049
14.114	63.8856
14.132	63.8685
14.15	63.8547
14.168	63.8444
14.186	63.837
14.204	63.8315
14.222	63.8266
14.24	63.8215
14.258	63.8161
14.276	63.8112
14.294	63.8079
14.312	63.8083
14.33	63.8141
14.348	63.8268
14.366	63.8471
14.384	63.8749
14.402	63.9092
14.42	63.949
14.438	63.9925
14.456	64.0383
14.474	64.0844
14.492	64.1293
14.51	64.171
14.528	64.2081
14.546	64.239
14.564	64.2625
14.582	64.2777
14.6	64.2845
14.618	64.2833
14.636	64.276
14.654	64.2647
14.672	64.2524
14.69	64.2422
14.708	64.2366
14.726	64.2377
14.744	64.2461
14.762	64.2612
14.78	64.2809
14.798	64.3024
14.816	64.3225
14.834	64.3374
14.852	64.3443
14.87	64.3411
14.888	64.327
14.906	64.3022
14.924	64.2677
14.942	64.2259
14.96	64.1798
14.978	64.1324
14.996	64.087
15.014	64.0468
15.032	64.0145
15.05	63.9921
15.068	63.9806
15.086	63.9805
15.104	63.9912
15.122	64.0111
15.14	64.0376
15.158	64.0682
15.176	64.1003
15.194	64.1309
15.212	64.1572
15.23	64.178
15.248	64.1924
15.266	64.2004
15.284	64.2033
15.302	64.2027
15.32	64.2007
15.338	64.199
15.356	64.1995
15.374	64.2036
15.392	64.2115
15.41	64.2235
15.428	64.239
15.446	64.2571
15.464	64.2768
15.482	64.2971
15.5	64.3168
15.518	64.335
15.536	64.351
15.554	64.3642
15.572	64.3741
15.59	64.3802
15.608	64.3822
15.626	64.38
15.644	64.3735
15.662	64.3631
15.68	64.3494
15.698	64.333
15.716	64.3153
15.734	64.2973
15.752	64.2803
15.77	64.265
15.788	64.2527
15.806	64.2436
15.824	64.2377
15.842	64.2347
15.86	64.2335
15.878	64.2332
15.896	64.233
15.914	64.232
15.932	64.2298
15.95	64.2263
15.968	64.2216
15.986	64.2164
16.004	64.2112
16.022	64.2067
16.04	64.2034
16.058	64.2014
16.076	64.2005
16.094	64.2
16.112	64.1993
16.13	64.1974
16.148	64.1933
16.166	64.1863
16.184	64.176
16.202	64.1624
16.22	64.1464
16.238	64.1291
16.256	64.1117
16.274	64.0966
16.292	64.085
16.31	64.0786
16.328	64.0784
16.346	64.0846
16.364	64.0972
16.382	64.1144
16.4	64.134
16.418	64.1537
16.436	64.1696
16.454	64.1784
16.472	64.1778
16.49	64.1642
16.508	64.1361
16.526	64.0928
16.544	64.0342
16.562	63.9624
16.58	63.879
16.598	63.7885
16.616	63.6947
16.634	63.601
16.652	63.5135
16.67	63.4348
16.688	63.3682
16.706	63.3168
16.724	63.281
16.742	63.2618
16.76	63.2574
16.778	63.2668
16.796	63.287
16.814	63.314
16.832	63.3455
16.85	63.3768
16.868	63.4052
16.886	63.4282
16.904	63.4434
16.922	63.4509
16.94	63.45
16.958	63.4433
16.976	63.4319
16.994	63.4191
17.012	63.408
17.03	63.4007
17.048	63.4009
17.066	63.4094
17.084	63.4281
17.102	63.457
17.12	63.4961
17.138	63.544
17.156	63.5992
17.174	63.6605
17.192	63.7251
17.21	63.792
17.228	63.8591
17.246	63.9247
17.264	63.9878
17.282	64.0464
17.3	64.0997
17.318	64.146
17.336	64.1842
17.354	64.2135
17.372	64.232
17.39	64.2395
17.408	64.2347
17.426	64.2178
17.444	64.189
17.462	64.1498
17.48	64.1012
17.498	64.0462
17.516	63.9873
17.534	63.9267
17.552	63.8692
17.57	63.8164
17.588	63.7725
17.606	63.7383
17.624	63.7158
17.642	63.7048
17.66	63.7053
17.678	63.7148
17.696	63.7323
17.714	63.7542
17.732	63.7786
17.75	63.8029
17.768	63.825
17.786	63.8437
17.804	63.8582
17.822	63.8687
17.84	63.876
17.858	63.8815
17.876	63.8866
17.894	63.8936
17.912	63.9036
17.93	63.9182
17.948	63.9378
17.966	63.9629
17.984	63.9927
18.002	64.0264
18.02	64.0624
18.038	64.0994
18.056	64.1349
18.074	64.1681
18.092	64.1966
18.11	64.2204
18.128	64.2384
18.146	64.2511
18.164	64.2593
18.182	64.2644
18.2	64.2678
18.218	64.2721
18.236	64.2787
18.254	64.2905
18.272	64.3082
18.29	64.334
18.308	64.368
18.326	64.4102
18.344	64.4601
18.362	64.5159
18.38	64.5762
18.398	64.6378
18.416	64.6984
18.434	64.7552
18.452	64.8053
18.47	64.8467
18.488	64.877
18.506	64.8953
18.524	64.9007
18.542	64.8929
18.56	64.8736
18.578	64.8428
18.596	64.8039
18.614	64.7575
18.632	64.7079
18.65	64.6556
18.668	64.6052
18.686	64.5569
18.704	64.5144
18.722	64.4778
18.74	64.4492
18.758	64.4282
18.776	64.4155
18.794	64.4104
18.812	64.412
18.83	64.4197
18.848	64.4318
18.866	64.4477
18.884	64.4655
18.902	64.4849
18.92	64.5046
18.938	64.5245
18.956	64.5439
18.974	64.5631
18.992	64.5819
19.01	64.6009
19.028	64.6204
19.046	64.6409
19.064	64.6632
19.082	64.6875
19.1	64.7142
19.118	64.7433
19.136	64.7749
19.154	64.8086
19.172	64.8443
19.19	64.8817
19.208	64.9201
19.226	64.9593
19.244	64.9984
19.262	65.0373
19.28	65.0747
19.298	65.1107
19.316	65.1442
19.334	65.1754
19.352	65.2034
19.37	65.2282
19.388	65.2494
19.406	65.2669
19.424	65.2805
19.442	65.2901
19.46	65.2959
19.478	65.2977
19.496	65.2961
19.514	65.2909
19.532	65.2828
19.55	65.2718
19.568	65.2586
19.586	65.2436
19.604	65.2271
19.622	65.2099
19.64	65.1922
19.658	65.1749
19.676	65.1579
19.694	65.1424
19.712	65.1282
19.73	65.1161
19.748	65.106
19.766	65.0981
19.784	65.0927
19.802	65.0895
19.82	65.0885
19.838	65.0897
19.856	65.0928
19.874	65.0977
19.892	65.1038
19.91	65.111
19.928	65.1183
19.946	65.1258
19.964	65.1321
19.982	65.1373
20	65.1402
20.018	65.1403
20.036	65.1372
20.054	65.1297
20.072	65.1179
20.09	65.1004
20.108	65.0776
20.126	65.0484
20.144	65.0129
20.162	64.971
20.18	64.9223
20.198	64.8676
20.216	64.8072
20.234	64.7413
20.252	64.6718
20.27	64.5982
20.288	64.5234
20.306	64.4472
20.324	64.3717
20.342	64.2982
20.36	64.2273
20.378	64.1617
20.396	64.1008
20.414	64.0469
20.432	64
20.45	63.9606
20.468	63.9293
20.486	63.9056
20.504	63.8894
20.522	63.8806
20.54	63.8776
20.558	63.8808
20.576	63.8885
20.594	63.9003
20.612	63.9154
20.63	63.9319
20.648	63.9501
20.666	63.9687
20.684	63.9875
20.702	64.0062
20.72	64.0241
20.738	64.0417
20.756	64.0592
20.774	64.0765
20.792	64.0948
20.81	64.1137
20.828	64.1342
20.846	64.1573
20.864	64.1827
20.882	64.2118
20.9	64.2445
20.918	64.281
20.936	64.3218
20.954	64.3665
20.972	64.4145
20.99	64.4661
21.008	64.5196
21.026	64.5747
21.044	64.6308
21.062	64.6853
21.08	64.7391
21.098	64.7893
21.116	64.8355
21.134	64.8769
21.152	64.9113
21.17	64.9395
21.188	64.9596
21.206	64.9713
21.224	64.9747
21.242	64.969
21.26	64.9545
21.278	64.9322
21.296	64.9016
21.314	64.864
21.332	64.821
21.35	64.7721
21.368	64.72
21.386	64.6652
21.404	64.6084
21.422	64.5523
21.44	64.4962
21.458	64.4424
21.476	64.392
21.494	64.3448
21.512	64.3025
21.53	64.2651
21.548	64.2326
21.566	64.2055
21.584	64.1836
21.602	64.1659
21.62	64.1529
21.638	64.1435
21.656	64.1365
21.674	64.1324
21.692	64.1294
21.71	64.1272
21.728	64.1256
21.746	64.1233
21.764	64.1205
21.782	64.117
21.8	64.1123
21.818	64.1066
21.836	64.1004
21.854	64.0934
21.872	64.086
21.89	64.0792
21.908	64.0725
21.926	64.0667
21.944	64.0627
21.962	64.0599
21.98	64.059
21.998	64.0602
22.016	64.0631
22.034	64.0671
22.052	64.0728
22.07	64.0787
22.088	64.0841
22.106	64.0894
22.124	64.0923
22.142	64.0924
22.16	64.0896
22.178	64.0817
22.196	64.0689
22.214	64.0509
22.232	64.0263
22.25	63.9954
22.268	63.9587
22.286	63.9159
22.304	63.8673
22.322	63.8149
22.34	63.7585
22.358	63.699
22.376	63.6402
22.394	63.5806
22.412	63.5229
22.43	63.4709
22.448	63.4226
22.466	63.3815
22.484	63.3505
22.502	63.328
22.52	63.3167
22.538	63.3184
22.556	63.3319
22.574	63.3583
22.592	63.3983
22.61	63.4509
22.628	63.5149
22.646	63.5911
22.664	63.6778
22.682	63.7719
22.7	63.8751
22.718	63.9842
22.736	64.0954
22.754	64.2109
22.772	64.3268
22.79	64.44
22.808	64.5524
22.826	64.6602
22.844	64.7611
22.862	64.8567
22.88	64.9439
22.898	65.0215
22.916	65.0904
22.934	65.1487
22.952	65.1958
22.97	65.2323
22.988	65.2579
23.006	65.2722
23.024	65.2756
23.042	65.2687
23.06	65.2515
23.078	65.2241
23.096	65.1875
23.114	65.1414
23.132	65.0863
23.15	65.0233
23.168	64.9521
23.186	64.8732
23.204	64.7884
23.222	64.697
23.24	64.5999
23.258	64.499
23.276	64.3938
23.294	64.2851
23.312	64.1754
23.33	64.064
23.348	63.9517
23.366	63.8417
23.384	63.7333
23.402	63.6273
23.42	63.5273
23.438	63.433
23.456	63.3445
23.474	63.2656
23.492	63.1962
23.51	63.1362
23.528	63.0886
23.546	63.0544
23.564	63.0324
23.582	63.0243
23.6	63.0309
23.618	63.0515
23.636	63.0851
23.654	63.1319
23.672	63.192
23.69	63.2629
23.708	63.3429
23.726	63.4339
23.744	63.532
23.762	63.6345
23.78	63.7439
23.798	63.8562
23.816	63.9665
23.834	64.0781
23.852	64.1874
23.87	64.2892
23.888	64.3847
23.906	64.4734
23.924	64.5516
23.942	64.6187
23.96	64.6758
23.978	64.7221
23.996	64.7567
24.014	64.7802
24.032	64.7938
24.05	64.7978
24.068	64.7914
24.086	64.7773
24.104	64.7578
24.122	64.7307
24.14	64.699
24.158	64.6667
24.176	64.6322
24.194	64.5965
24.212	64.5642
24.23	64.5355
24.248	64.5094
24.266	64.4895
24.284	64.4781
24.302	64.4731
24.32	64.4765
24.338	64.4901
24.356	64.5138
24.374	64.5465
24.392	64.5874
24.41	64.6375
24.428	64.6959
24.446	64.7602
24.464	64.8295
24.482	64.905
24.5	64.9846
24.518	65.0666
24.536	65.1522
24.554	65.2404
24.572	65.3293
24.59	65.4193
24.608	65.5105
24.626	65.6018
24.644	65.6926
24.662	65.7834
24.68	65.874
24.698	65.9642
24.716	66.0539
24.734	66.1434
24.752	66.2336
24.77	66.3245
24.788	66.4159
24.806	66.5082
24.824	66.6019
24.842	66.6968
24.86	66.7928
24.878	66.8902
24.896	66.9897
24.914	67.0905
24.932	67.191
24.95	67.2908
24.968	67.3909
24.986	67.4892
25.004	67.5831
25.022	67.6752
25.04	67.7635
25.058	67.8433
25.076	67.9128
25.094	67.9752
25.112	68.0257
25.13	68.0599
25.148	68.0812
25.166	68.0875
25.184	68.0727
25.202	68.0345
25.22	67.9766
25.238	67.8943
25.256	67.7826
25.274	67.6438
25.292	67.4774
25.31	67.28
25.328	67.049
25.346	66.7867
25.364	66.4926
25.382	66.1662
25.4	65.8066
25.418	65.4149
25.436	64.993
25.454	64.5419
25.472	64.0588
25.49	63.548
25.508	63.0149
25.526	62.4612
25.544	61.8842
25.562	61.2866
25.58	60.6707
25.598	60.0352
25.616	59.3808
25.634	58.7093
25.652	58.0214
25.67	57.3141
25.688	56.5928
25.706	55.8631
25.724	55.1232
25.742	54.3716
25.76	53.6174
25.778	52.868
25.796	52.109
25.814	51.3527
25.832	50.6235
25.85	49.9346
25.868	49.2625
25.886	48.6325
25.904	48.0763
25.922	47.6083
25.94	47.2114
25.958	46.8841
25.976	46.6259
25.994	46.4413
26.012	46.3265
26.03	46.272
26.048	46.2692
26.066	46.3222
26.084	46.4309
26.102	46.5921
26.12	46.8033
26.138	47.066
26.156	47.3799
26.174	47.7449
26.192	48.1471
26.21	48.5796
26.228	49.0848
26.246	49.7061
26.264	50.4428
26.282	51.276
26.3	52.232
26.318	53.3369
26.336	54.6024
26.354	56.0087
26.372	57.5322
26.39	59.1528
26.408	60.9076
26.426	62.7693
26.444	64.681
26.462	66.6058
26.48	68.6456
26.498	70.7036
26.516	72.63
26.534	74.317
26.552	75.8872
26.57	77.2767
26.588	78.3796
26.606	79.1154
26.624	79.5383
26.642	79.6671
26.66	79.51
26.678	79.054
26.696	78.2643
26.714	77.2194
26.732	76.0064
26.75	74.6237
26.768	72.9437
26.786	71.1797
26.804	69.5674
26.822	68.2169
26.84	66.9435
26.858	65.8677
26.876	65.1332
26.894	64.8409
26.912	64.917
26.93	65.3136
26.948	65.9893
26.966	67.031
26.984	68.6311
27.002	70.361
27.02	71.7522
27.028	72.1028