File: Bakgrunnsmateriale/MATLAB/FTIR/ftir_data/subAa/Mapping_121/BZ1503107-1_t35_cm-1.asc
PE IR       SPECTRUM    SPECTRUM    ASCII       PEDS        1.60
  -1
BZ6DA0~1.ASC
17/04/07
16:05:54.00
17/04/07
16:05:54.00
tln
$BZ1503107-1_t0035$<tbV0>[10.4,-5.2,8.0,0.0,27,1,0]
370
64

2002,4.07
MIRTGS : RIGHTBACK : INTERNAL 2
MIR : ON : INTERNAL 2
OPTKBR

0.200000
8
8.000000
FILLER
RATIO
SPECTRUM
UNLOCKED 256

DOUBLE
64
COMBINED
1
0
0

1.000000
RATIO

1
0
TRUE
51149
0
LEFT NOT FITTED RIGHT NOT FITTED 0
NONE
NONE
15600
12
4.427000
51148
TRUE
1 0 8 72 0 0 0 0

15798

#HDR
-1
-1
#GR
CM-1
%T
2.38419e-05
0.0
5000
-1.000000
4631
8
86.3307
53.5444
#DATA
5000	65.2747
4996	64.7199
4992	64.3617
4988	64.6496
4984	65.0769
4980	65.0268
4976	64.7177
4972	64.342
4968	63.9213
4964	63.7591
4960	63.9366
4956	64.0962
4952	64.1701
4948	64.4176
4944	64.8997
4940	65.1321
4936	64.7518
4932	64.5694
4928	64.8498
4924	64.9654
4920	64.7761
4916	64.4759
4912	64.6126
4908	65.0694
4904	65.0579
4900	64.6807
4896	64.5783
4892	64.8216
4888	65.0378
4884	65.2042
4880	65.1981
4876	64.9037
4872	64.6471
4868	64.5908
4864	64.8697
4860	65.1867
4856	65.219
4852	65.1473
4848	64.9863
4844	64.8755
4840	64.906
4836	64.8031
4832	64.7371
4828	65.0091
4824	65.1897
4820	65.0544
4816	64.9549
4812	65.01
4808	65.1146
4804	65.3562
4800	65.6063
4796	65.4915
4792	65.2071
4788	65.052
4784	64.9985
4780	65.1346
4776	65.3878
4772	65.4413
4768	65.2172
4764	65.1687
4760	65.4317
4756	65.5545
4752	65.486
4748	65.4155
4744	65.3827
4740	65.342
4736	65.3176
4732	65.4447
4728	65.4835
4724	65.3054
4720	65.2264
4716	65.3954
4712	65.6689
4708	65.722
4704	65.5642
4700	65.4433
4696	65.4257
4692	65.446
4688	65.5196
4684	65.4976
4680	65.2321
4676	64.9682
4672	64.824
4668	64.8974
4664	65.0716
4660	65.0876
4656	65.0918
4652	64.9649
4648	64.7959
4644	64.7916
4640	64.7285
4636	64.768
4632	64.867
4628	64.8691
4624	64.8807
4620	64.8211
4616	64.7337
4612	64.7341
4608	64.814
4604	64.794
4600	64.5769
4596	64.5377
4592	64.6298
4588	64.4861
4584	64.4516
4580	64.7322
4576	64.8755
4572	64.7194
4568	64.6333
4564	64.682
4560	64.5606
4556	64.3255
4552	64.288
4548	64.6079
4544	64.9279
4540	64.7564
4536	64.4695
4532	64.4601
4528	64.5221
4524	64.3499
4520	64.0408
4516	64.0164
4512	64.2691
4508	64.532
4504	64.5745
4500	64.3757
4496	64.2169
4492	64.1849
4488	64.213
4484	64.2151
4480	63.9226
4476	63.5325
4472	63.6335
4468	63.9405
4464	64.0029
4460	64.0842
4456	64.3703
4452	64.4956
4448	64.8201
4444	65.0602
4440	65.7011
4436	66.571
4432	69.9347
4428	81.1324
4424	86.0138
4420	80.3589
4416	79.6559
4412	75.1575
4408	67.3077
4404	65.385
4400	65.9473
4396	65.3138
4392	64.5815
4388	64.4958
4384	64.4288
4380	64.2463
4376	64.1807
4372	64.1371
4368	64.1416
4364	63.9679
4360	63.8546
4356	63.9907
4352	63.9641
4348	63.7765
4344	63.8259
4340	64.1545
4336	64.4746
4332	64.3915
4328	64.0942
4324	64.1299
4320	64.2625
4316	64.2143
4312	64.2112
4308	64.3105
4304	64.4762
4300	64.482
4296	64.3818
4292	64.4294
4288	64.5906
4284	64.6639
4280	64.5087
4276	64.5079
4272	64.7442
4268	64.8968
4264	65.0316
4260	65.0578
4256	64.8681
4252	64.7679
4248	64.8539
4244	64.9584
4240	64.9326
4236	64.8704
4232	64.9359
4228	64.9816
4224	65.012
4220	65.0892
4216	65.0881
4212	65.0598
4208	65.0445
4204	64.9494
4200	64.8576
4196	64.8707
4192	64.9711
4188	65.2574
4184	65.5331
4180	65.4875
4176	65.4513
4172	65.5972
4168	65.7105
4164	65.5673
4160	65.1942
4156	65.0236
4152	65.154
4148	65.3795
4144	65.464
4140	65.3427
4136	65.2448
4132	65.2086
4128	65.167
4124	65.2425
4120	65.484
4116	65.6243
4112	65.6185
4108	65.6023
4104	65.3819
4100	65.1558
4096	65.1923
4092	65.2097
4088	65.1217
4084	65.1287
4080	65.253
4076	65.3455
4072	65.3624
4068	65.3128
4064	65.2691
4060	65.2845
4056	65.2486
4052	65.1428
4048	65.0655
4044	65.1394
4040	65.3381
4036	65.4167
4032	65.3014
4028	65.1885
4024	65.2608
4020	65.3674
4016	65.2944
4012	65.239
4008	65.3118
4004	65.342
4000	65.353
3996	65.4277
3992	65.4024
3988	65.2565
3984	65.2012
3980	65.2445
3976	65.2412
3972	65.1589
3968	65.1687
3964	65.286
3960	65.2777
3956	65.1318
3952	65.0699
3948	65.144
3944	65.1776
3940	65.1115
3936	65.0659
3932	65.0663
3928	65.0718
3924	65.0636
3920	65.0352
3916	65.1196
3912	65.2336
3908	65.168
3904	65.0814
3900	65.0901
3896	65.0865
3892	65.0217
3888	64.9586
3884	64.9944
3880	65.1457
3876	65.2464
3872	65.1978
3868	65.1326
3864	65.1042
3860	65.0761
3856	65.097
3852	65.1547
3848	65.1706
3844	65.1871
3840	65.3006
3836	65.4123
3832	65.3307
3828	65.1591
3824	65.0645
3820	65.0323
3816	65.0523
3812	65.1131
3808	65.2831
3804	65.4854
3800	65.4757
3796	65.2867
3792	65.1505
3788	65.1562
3784	65.1804
3780	65.1927
3776	65.1582
3772	65.099
3768	65.1697
3764	65.2338
3760	65.1471
3756	65.0522
3752	65.0316
3748	65.046
3744	65.1507
3740	65.1852
3736	65.0289
3732	65.0696
3728	65.279
3724	65.2929
3720	65.2663
3716	65.2967
3712	65.3473
3708	65.4443
3704	65.4383
3700	65.3929
3696	65.4124
3692	65.4023
3688	65.3018
3684	65.1509
3680	65.0979
3676	65.2064
3672	65.3661
3668	65.4384
3664	65.4105
3660	65.3703
3656	65.3494
3652	65.3352
3648	65.3085
3644	65.2458
3640	65.1598
3636	65.1461
3632	65.2192
3628	65.2797
3624	65.3456
3620	65.3783
3616	65.2638
3612	65.1601
3608	65.2444
3604	65.3367
3600	65.3255
3596	65.372
3592	65.5394
3588	65.6227
3584	65.473
3580	65.285
3576	65.1826
3572	65.157
3568	65.2044
3564	65.1427
3560	65.0541
3556	65.1254
3552	65.1851
3548	65.1786
3544	65.2179
3540	65.2354
3536	65.1676
3532	65.1307
3528	65.128
3524	65.0835
3520	65.0393
3516	65.057
3512	65.1492
3508	65.2365
3504	65.2517
3500	65.2575
3496	65.301
3492	65.3136
3488	65.1993
3484	65.0622
3480	65.0468
3476	65.0872
3472	65.1325
3468	65.1664
3464	65.1513
3460	65.1995
3456	65.2706
3452	65.1851
3448	65.046
3444	65.0362
3440	65.1536
3436	65.2097
3432	65.1438
3428	65.1285
3424	65.2923
3420	65.4309
3416	65.3072
3412	65.1365
3408	65.1236
3404	65.2085
3400	65.2977
3396	65.3355
3392	65.2939
3388	65.2668
3384	65.2914
3380	65.2546
3376	65.239
3372	65.2782
3368	65.2076
3364	65.1004
3360	65.1512
3356	65.2782
3352	65.3467
3348	65.3796
3344	65.4044
3340	65.4386
3336	65.4141
3332	65.2756
3328	65.1778
3324	65.142
3320	65.0697
3316	65.0634
3312	65.1409
3308	65.2091
3304	65.1718
3300	65.0725
3296	65.0656
3292	65.0713
3288	65.0538
3284	65.1235
3280	65.2207
3276	65.2671
3272	65.2357
3268	65.179
3264	65.2222
3260	65.1893
3256	65.0902
3252	65.1916
3248	65.3094
3244	65.2925
3240	65.2451
3236	65.1709
3232	65.1005
3228	65.102
3224	65.126
3220	65.0959
3216	65.0536
3212	65.0438
3208	65.0658
3204	65.0908
3200	65.0877
3196	65.1027
3192	65.1538
3188	65.1599
3184	65.0895
3180	65.0809
3176	65.1832
3172	65.2108
3168	65.1418
3164	65.1298
3160	65.1369
3156	65.0813
3152	65.0138
3148	64.9554
3144	64.9691
3140	65.0257
3136	65.0277
3132	65.1343
3128	65.2655
3124	65.2251
3120	65.1551
3116	65.1179
3112	65.0967
3108	65.0965
3104	65.1142
3100	65.1811
3096	65.2205
3092	65.1435
3088	65.0228
3084	64.9958
3080	65.1031
3076	65.1882
3072	65.1061
3068	65.0076
3064	65.0406
3060	65.1116
3056	65.1667
3052	65.1425
3048	65.0447
3044	65.0388
3040	65.0958
3036	65.0893
3032	65.0174
3028	64.9406
3024	64.9231
3020	64.9726
3016	65.0314
3012	65.0375
3008	65.0279
3004	65.0653
3000	65.1195
2996	65.1538
2992	65.1311
2988	65.0578
2984	65.038
2980	65.1212
2976	65.1855
2972	65.1488
2968	65.0716
2964	65.0134
2960	65.0236
2956	65.0758
2952	65.0843
2948	65.0557
2944	65.0269
2940	65.0076
2936	65.0418
2932	65.1247
2928	65.1864
2924	65.2344
2920	65.2315
2916	65.1302
2912	65.0306
2908	64.9805
2904	65.0306
2900	65.1221
2896	65.1044
2892	65.0861
2888	65.11
2884	65.0661
2880	65.0174
2876	65.0448
2872	65.0601
2868	65.0447
2864	65.0663
2860	65.0766
2856	65.0411
2852	65.0047
2848	65.0013
2844	65.0196
2840	64.9999
2836	64.9461
2832	64.9342
2828	65.0189
2824	65.0799
2820	64.9945
2816	64.9412
2812	65.0064
2808	65.073
2804	65.111
2800	65.1514
2796	65.1993
2792	65.2028
2788	65.1581
2784	65.1198
2780	65.1016
2776	65.1474
2772	65.2386
2768	65.2401
2764	65.1855
2760	65.1615
2756	65.1421
2752	65.1558
2748	65.2
2744	65.1893
2740	65.145
2736	65.1337
2732	65.1283
2728	65.078
2724	64.9927
2720	64.9535
2716	64.9892
2712	65.0372
2708	65.0915
2704	65.1665
2700	65.1789
2696	65.1145
2692	65.0658
2688	65.0613
2684	65.0247
2680	64.9718
2676	65.0127
2672	65.062
2668	65.0549
2664	65.0814
2660	65.1104
2656	65.0968
2652	65.1121
2648	65.1243
2644	65.0789
2640	65.0253
2636	64.9864
2632	64.981
2628	65.0094
2624	65.0316
2620	65.0425
2616	65.0385
2612	64.9947
2608	64.9438
2604	64.9624
2600	65.0342
2596	65.0423
2592	65.0023
2588	65.0064
2584	65.0276
2580	65.0425
2576	65.0581
2572	65.0589
2568	65.0482
2564	65.0452
2560	65.0644
2556	65.1205
2552	65.1288
2548	65.0385
2544	65.0051
2540	65.0468
2536	65.065
2532	65.1003
2528	65.1203
2524	65.084
2520	65.081
2516	65.1354
2512	65.1424
2508	65.0923
2504	65.0811
2500	65.0394
2496	64.9323
2492	64.8848
2488	64.8887
2484	64.9261
2480	65.0517
2476	65.1277
2472	65.0726
2468	65.0189
2464	65.0047
2460	64.9684
2456	64.8934
2452	64.8562
2448	64.8624
2444	64.8732
2440	64.9425
2436	65.0332
2432	65.1221
2428	65.199
2424	65.1143
2420	64.9821
2416	65.0004
2412	65.0123
2408	64.9336
2404	64.859
2400	64.8674
2396	64.975
2392	65.0669
2388	65.0464
2384	64.9626
2380	64.8882
2376	64.8342
2372	64.8499
2368	64.9088
2364	64.948
2360	65.0039
2356	65.0236
2352	65.0025
2348	65.0133
2344	64.9894
2340	64.9225
2336	64.8809
2332	64.8947
2328	64.9577
2324	64.9974
2320	65.0122
2316	65.0362
2312	65.0198
2308	64.9774
2304	64.9837
2300	64.9522
2296	64.8432
2292	64.8274
2288	64.913
2284	64.9383
2280	64.8932
2276	64.8616
2272	64.8608
2268	64.8618
2264	64.8537
2260	64.8585
2256	64.8751
2252	64.9018
2248	64.9316
2244	64.9271
2240	64.9258
2236	64.9805
2232	65.0324
2228	65.0149
2224	64.9631
2220	64.9345
2216	64.8877
2212	64.7953
2208	64.7633
2204	64.8264
2200	64.8811
2196	64.8576
2192	64.8101
2188	64.8122
2184	64.8309
2180	64.8289
2176	64.8274
2172	64.8216
2168	64.7653
2164	64.7235
2160	64.7595
2156	64.7739
2152	64.7839
2148	64.8321
2144	64.8308
2140	64.7623
2136	64.7059
2132	64.749
2128	64.7944
2124	64.7305
2120	64.7087
2116	64.801
2112	64.881
2108	64.8849
2104	64.8434
2100	64.8131
2096	64.7852
2092	64.7577
2088	64.7453
2084	64.687
2080	64.6643
2076	64.7126
2072	64.6988
2068	64.6184
2064	64.5997
2060	64.679
2056	64.7766
2052	64.8113
2048	64.7494
2044	64.6896
2040	64.7222
2036	64.7757
2032	64.7811
2028	64.8159
2024	64.8844
2020	64.8802
2016	64.8366
2012	64.8349
2008	64.8578
2004	64.851
2000	64.7982
1996	64.7431
1992	64.7333
1988	64.7631
1984	64.772
1980	64.7362
1976	64.7385
1972	64.8142
1968	64.8659
1964	64.8485
1960	64.8472
1956	64.8664
1952	64.8588
1948	64.798
1944	64.7054
1940	64.682
1936	64.6957
1932	64.664
1928	64.6559
1924	64.722
1920	64.7367
1916	64.6721
1912	64.6799
1908	64.7262
1904	64.6951
1900	64.637
1896	64.6335
1892	64.715
1888	64.7872
1884	64.7613
1880	64.6854
1876	64.671
1872	64.7324
1868	64.7447
1864	64.6829
1860	64.6588
1856	64.7044
1852	64.7463
1848	64.7442
1844	64.7321
1840	64.7505
1836	64.76
1832	64.752
1828	64.7791
1824	64.7911
1820	64.7575
1816	64.7234
1812	64.6931
1808	64.689
1804	64.7121
1800	64.6895
1796	64.6179
1792	64.59
1788	64.6327
1784	64.6468
1780	64.6053
1776	64.5846
1772	64.5688
1768	64.5625
1764	64.5878
1760	64.5708
1756	64.4945
1752	64.4315
1748	64.4426
1744	64.4731
1740	64.4017
1736	64.2723
1732	64.2787
1728	64.3706
1724	64.3507
1720	64.3314
1716	64.4472
1712	64.5186
1708	64.4374
1704	64.3948
1700	64.4753
1696	64.5429
1692	64.5855
1688	64.6493
1684	64.6521
1680	64.5869
1676	64.5608
1672	64.5611
1668	64.5665
1664	64.5742
1660	64.4992
1656	64.3758
1652	64.3155
1648	64.3357
1644	64.3803
1640	64.4041
1636	64.4091
1632	64.4057
1628	64.4033
1624	64.3952
1620	64.4028
1616	64.4168
1612	64.3998
1608	64.4128
1604	64.4797
1600	64.5392
1596	64.5378
1592	64.4926
1588	64.4337
1584	64.3821
1580	64.3805
1576	64.3743
1572	64.3624
1568	64.4263
1564	64.5255
1560	64.5533
1556	64.4811
1552	64.3668
1548	64.3208
1544	64.3423
1540	64.3467
1536	64.3546
1532	64.4001
1528	64.4428
1524	64.4528
1520	64.495
1516	64.5379
1512	64.5416
1508	64.5893
1504	64.621
1500	64.5737
1496	64.4701
1492	64.3814
1488	64.3926
1484	64.4143
1480	64.3968
1476	64.3659
1472	64.3246
1468	64.3115
1464	64.3163
1460	64.3061
1456	64.3377
1452	64.3942
1448	64.4254
1444	64.4772
1440	64.5121
1436	64.4394
1432	64.2998
1428	64.246
1424	64.269
1420	64.2746
1416	64.3226
1412	64.3899
1408	64.4201
1404	64.3865
1400	64.323
1396	64.328
1392	64.3056
1388	64.2774
1384	64.3078
1380	64.3046
1376	64.3228
1372	64.3981
1368	64.4534
1364	64.4172
1360	64.312
1356	64.2512
1352	64.2284
1348	64.2304
1344	64.302
1340	64.3991
1336	64.3888
1332	64.2854
1328	64.2474
1324	64.2711
1320	64.3024
1316	64.3487
1312	64.3409
1308	64.2876
1304	64.2742
1300	64.2782
1296	64.2594
1292	64.2185
1288	64.1832
1284	64.1867
1280	64.2366
1276	64.2903
1272	64.2908
1268	64.2992
1264	64.333
1260	64.2937
1256	64.2252
1252	64.1973
1248	64.1653
1244	64.1364
1240	64.1157
1236	64.0904
1232	64.0942
1228	64.1047
1224	64.1023
1220	64.1106
1216	64.1082
1212	64.0829
1208	64.0332
1204	64.0206
1200	64.1053
1196	64.1968
1192	64.1926
1188	64.1168
1184	64.1134
1180	64.185
1176	64.1277
1172	63.9877
1168	64.0145
1164	64.1638
1160	64.1697
1156	64.0288
1152	63.9677
1148	64.0432
1144	64.0847
1140	64.019
1136	64.0205
1132	64.0207
1128	63.9199
1124	63.8978
1120	63.9724
1116	64.0306
1112	64.0241
1108	63.9941
1104	64.0275
1100	64.0603
1096	64.0074
1092	63.9162
1088	63.8604
1084	63.8592
1080	63.9361
1076	64.1178
1072	64.2151
1068	64.1301
1064	64.0201
1060	63.9738
1056	64.0157
1052	64.0721
1048	64.0477
1044	63.9901
1040	63.9714
1036	64.0041
1032	64.0232
1028	63.9799
1024	63.9333
1020	63.9127
1016	63.9425
1012	63.9777
1008	63.9725
1004	64.032
1000	64.1522
996	 64.1942
992	 64.0935
988	 63.9713
984	 64.015
980	 64.1524
976	 64.1408
972	 64.0175
968	 63.9915
964	 64.0242
960	 63.9627
956	 63.9092
952	 64.0174
948	 64.1129
944	 64.0721
940	 64.0298
936	 64.003
932	 63.9707
928	 63.9725
924	 63.9947
920	 64.0821
916	 64.1825
912	 64.1523
908	 64.0796
904	 63.9804
900	 63.8487
896	 63.8912
892	 64.0712
888	 64.2193
884	 64.328
880	 64.4071
876	 64.3104
872	 64.0343
868	 63.9309
864	 64.011
860	 64.0773
856	 64.1402
852	 64.0692
848	 63.8753
844	 63.8056
840	 63.9027
836	 64.0688
832	 64.1379
828	 64.0994
824	 64.0477
820	 63.9401
816	 63.8784
812	 64.0037
808	 64.1656
804	 64.1544
800	 64.095
796	 64.1574
792	 64.1957
788	 64.1215
784	 64.0756
780	 64.0918
776	 64.151
772	 64.1572
768	 63.9244
764	 63.747
760	 63.9503
756	 64.0845
752	 63.8878
748	 63.8285
744	 63.826
740	 63.456
736	 63.0133
732	 62.8382
728	 62.8469
724	 63.1283
720	 63.7729
716	 64.0505
712	 63.6383
708	 63.1848
704	 63.0598
700	 63.4233
696	 64.2638
692	 64.7718
688	 64.3107
684	 63.3138
680	 62.5751
676	 62.8622
672	 63.5445
668	 63.7155
664	 63.4822
660	 63.021
656	 63.1154
652	 63.6541
648	 63.6302
644	 63.4892
640	 63.8018
636	 64.2425
632	 64.6242
628	 64.6831
624	 64.1883
620	 63.6467
616	 63.5155
612	 63.6821
608	 63.8883
604	 64.0765
600	 64.3479
596	 64.3014
592	 63.8366
588	 63.6243
584	 63.8331
580	 64.0056
576	 63.9236
572	 63.6778
568	 63.2575
564	 62.9624
560	 63.2588
556	 63.8984
552	 64.1013
548	 63.6629
544	 63.268
540	 63.3121
536	 63.6113
532	 63.8192
528	 63.775
524	 63.6787
520	 63.6586
516	 63.8056
512	 64.0154
508	 64.1523
504	 64.19
500	 63.9376
496	 63.519
492	 63.4806
488	 63.7882
484	 64.0561
480	 64.3359
476	 64.3639
472	 64.2059
468	 64.3063
464	 64.4284
460	 64.21
456	 63.7171
452	 63.3486
448	 63.2681
444	 63.0986
440	 62.6151
436	 62.8361
432	 63.4964
428	 62.8016
424	 61.9394
420	 62.3636
416	 63.3008
412	 64.9258
408	 65.1155
404	 60.3977
400	 55.3066
396	 60.7636
392	 74.6485
388	 83.427
384	 78.8415
380	 62.5772
376	 53.5444
372	 60.6983
370	 64.9133