File: Bakgrunnsmateriale/MATLAB/FTIR/ftir_data/subAa/Mapping_121/BZ1503107-1_t101_cm-1.asc
PE IR       SPECTRUM    SPECTRUM    ASCII       PEDS        1.60
  -1
BZBBF5~1.ASC
17/04/07
21:32:49.00
17/04/07
21:32:49.00
tln
$BZ1503107-1_t0101$<tbV0>[10.4,10.4,8.0,0.0,27,1,0]
370
64

2002,4.07
MIRTGS : RIGHTBACK : INTERNAL 2
MIR : ON : INTERNAL 2
OPTKBR

0.200000
8
8.000000
FILLER
RATIO
SPECTRUM
UNLOCKED 256

DOUBLE
64
COMBINED
1
0
0

1.000000
RATIO

1
0
TRUE
51149
0
LEFT NOT FITTED RIGHT NOT FITTED 0
NONE
NONE
15600
12
4.427000
51148
TRUE
1 0 8 72 0 0 0 0

15798

#HDR
-1
-1
#GR
CM-1
%T
2.38419e-05
0.0
5000
-1.000000
4631
8
90.1802
30.9998
#DATA
5000	64.2932
4996	64.4757
4992	63.3055
4988	63.3013
4984	64.6564
4980	64.3654
4976	63.5603
4972	63.1936
4968	63.2526
4964	64.1555
4960	64.383
4956	64.7856
4952	66.6336
4948	67.5193
4944	65.5254
4940	63.8561
4936	64.3459
4932	64.536
4928	64.2756
4924	64.2297
4920	63.8975
4916	63.7231
4912	64.1508
4908	64.7273
4904	64.4296
4900	63.7224
4896	63.6774
4892	64.0733
4888	64.4498
4884	64.7804
4880	64.8792
4876	64.6243
4872	64.2573
4868	63.9339
4864	63.8002
4860	63.9345
4856	64.1559
4852	64.0608
4848	63.8565
4844	64.1017
4840	64.4637
4836	64.5485
4832	64.3704
4828	64.2212
4824	64.3282
4820	64.5064
4816	64.7048
4812	64.7738
4808	64.5989
4804	64.4157
4800	64.4364
4796	64.545
4792	64.5596
4788	64.456
4784	64.4012
4780	64.5565
4776	64.5882
4772	64.4761
4768	64.5841
4764	64.621
4760	64.31
4756	64.0066
4752	64.1422
4748	64.5792
4744	64.7745
4740	64.7513
4736	64.7253
4732	64.6234
4728	64.4992
4724	64.3577
4720	64.1749
4716	64.1766
4712	64.3237
4708	64.3809
4704	64.3018
4700	64.2529
4696	64.33
4692	64.3388
4688	64.2622
4684	64.3208
4680	64.6024
4676	64.7404
4672	64.6014
4668	64.5392
4664	64.5939
4660	64.5201
4656	64.352
4652	64.276
4648	64.2225
4644	64.1519
4640	64.1768
4636	64.3018
4632	64.3448
4628	64.2335
4624	64.2281
4620	64.3217
4616	64.2905
4612	64.1625
4608	64.1003
4604	64.2122
4600	64.352
4596	64.2782
4592	63.9795
4588	63.814
4584	63.8397
4580	63.8007
4576	63.718
4572	63.662
4568	63.7205
4564	63.8272
4560	63.8405
4556	63.7828
4552	63.8031
4548	63.7841
4544	63.6158
4540	63.5666
4536	63.5084
4532	63.4277
4528	63.5812
4524	63.7413
4520	63.7546
4516	63.6388
4512	63.393
4508	63.2759
4504	63.3852
4500	63.3861
4496	63.2198
4492	62.9841
4488	62.9534
4484	63.3963
4480	63.6479
4476	63.329
4472	62.8522
4468	62.601
4464	62.4995
4460	63.0459
4456	64.1412
4452	66.455
4448	70.6513
4444	81.7019
4440	90.1802
4436	78.3142
4432	63.7604
4428	62.9751
4424	67.6335
4420	66.9818
4416	64.6324
4412	63.6148
4408	63.2286
4404	63.3147
4400	63.5572
4396	63.449
4392	63.2384
4388	63.3182
4384	63.4041
4380	63.2025
4376	63.1643
4372	63.3931
4368	63.585
4364	63.7192
4360	63.8244
4356	63.8965
4352	63.9408
4348	63.802
4344	63.4982
4340	63.414
4336	63.5563
4332	63.5961
4328	63.5998
4324	63.7126
4320	63.8416
4316	63.8577
4312	63.8105
4308	63.729
4304	63.6726
4300	63.8086
4296	63.9475
4292	64.0441
4288	64.1818
4284	64.167
4280	64.0778
4276	64.1187
4272	64.1338
4268	63.951
4264	63.8895
4260	64.0283
4256	64.1428
4252	64.2889
4248	64.4198
4244	64.4846
4240	64.5283
4236	64.474
4232	64.3282
4228	64.1829
4224	64.023
4220	63.9714
4216	64.1994
4212	64.3957
4208	64.3291
4204	64.2304
4200	64.1822
4196	64.1253
4192	64.1066
4188	64.3154
4184	64.6473
4180	64.8262
4176	64.8754
4172	64.8001
4168	64.6585
4164	64.5149
4160	64.4168
4156	64.5191
4152	64.6932
4148	64.6975
4144	64.5071
4140	64.3701
4136	64.4987
4132	64.7103
4128	64.8742
4124	64.8981
4120	64.7595
4116	64.7568
4112	64.8175
4108	64.6949
4104	64.6344
4100	64.7917
4096	64.8817
4092	64.7931
4088	64.7059
4084	64.6431
4080	64.6121
4076	64.7011
4072	64.8356
4068	64.8491
4064	64.7534
4060	64.6267
4056	64.5078
4052	64.4508
4048	64.3714
4044	64.3954
4040	64.6162
4036	64.7728
4032	64.8585
4028	64.8531
4024	64.706
4020	64.5735
4016	64.4233
4012	64.265
4008	64.2246
4004	64.369
4000	64.5636
3996	64.5856
3992	64.5552
3988	64.485
3984	64.3348
3980	64.2976
3976	64.3254
3972	64.403
3968	64.4918
3964	64.4433
3960	64.3633
3956	64.3048
3952	64.1731
3948	63.9687
3944	63.9814
3940	64.2697
3936	64.4839
3932	64.6086
3928	64.6739
3924	64.5502
3920	64.3191
3916	64.1991
3912	64.3239
3908	64.4708
3904	64.4194
3900	64.2925
3896	64.1807
3892	64.163
3888	64.2354
3884	64.2601
3880	64.2471
3876	64.3052
3872	64.4181
3868	64.4342
3864	64.426
3860	64.5136
3856	64.6454
3852	64.6957
3848	64.5709
3844	64.3998
3840	64.3676
3836	64.4347
3832	64.3811
3828	64.3052
3824	64.412
3820	64.4891
3816	64.3976
3812	64.3274
3808	64.3763
3804	64.4742
3800	64.5457
3796	64.5923
3792	64.6113
3788	64.6027
3784	64.6511
3780	64.7102
3776	64.6725
3772	64.5533
3768	64.5003
3764	64.5389
3760	64.5056
3756	64.4694
3752	64.5401
3748	64.5952
3744	64.6157
3740	64.6376
3736	64.6052
3732	64.5414
3728	64.543
3724	64.6148
3720	64.6364
3716	64.6244
3712	64.6075
3708	64.5603
3704	64.5578
3700	64.5871
3696	64.6125
3692	64.6744
3688	64.7579
3684	64.7593
3680	64.6599
3676	64.605
3672	64.6916
3668	64.8083
3664	64.7992
3660	64.7232
3656	64.6909
3652	64.6892
3648	64.6854
3644	64.6319
3640	64.6085
3636	64.6797
3632	64.6857
3628	64.6034
3624	64.5564
3620	64.5138
3616	64.4909
3612	64.5221
3608	64.5032
3604	64.491
3600	64.562
3596	64.6444
3592	64.6713
3588	64.6145
3584	64.5489
3580	64.4971
3576	64.477
3572	64.5251
3568	64.599
3564	64.6338
3560	64.5513
3556	64.4352
3552	64.3814
3548	64.3427
3544	64.2888
3540	64.2748
3536	64.3769
3532	64.5658
3528	64.7037
3524	64.6885
3520	64.5677
3516	64.4692
3512	64.4767
3508	64.512
3504	64.52
3500	64.5515
3496	64.6009
3492	64.7047
3488	64.7847
3484	64.7103
3480	64.613
3476	64.5971
3472	64.5861
3468	64.4954
3464	64.3692
3460	64.367
3456	64.4021
3452	64.3394
3448	64.339
3444	64.4532
3440	64.5863
3436	64.6176
3432	64.4899
3428	64.3852
3424	64.3823
3420	64.3907
3416	64.4226
3412	64.4673
3408	64.4486
3404	64.4363
3400	64.4859
3396	64.488
3392	64.385
3388	64.2784
3384	64.2928
3380	64.3929
3376	64.5003
3372	64.5408
3368	64.4543
3364	64.387
3360	64.4386
3356	64.4773
3352	64.4511
3348	64.4303
3344	64.4473
3340	64.4285
3336	64.3682
3332	64.3466
3328	64.306
3324	64.2617
3320	64.2967
3316	64.3532
3312	64.4063
3308	64.4928
3304	64.5654
3300	64.5549
3296	64.5104
3292	64.5077
3288	64.5032
3284	64.4442
3280	64.3603
3276	64.3374
3272	64.36
3268	64.3847
3264	64.4664
3260	64.534
3256	64.5362
3252	64.53
3248	64.4792
3244	64.3894
3240	64.3666
3236	64.4377
3232	64.513
3228	64.5047
3224	64.4486
3220	64.4032
3216	64.3499
3212	64.3265
3208	64.3412
3204	64.3278
3200	64.3094
3196	64.3279
3192	64.3827
3188	64.4582
3184	64.5145
3180	64.5505
3176	64.5627
3172	64.5239
3168	64.4994
3164	64.522
3160	64.5129
3156	64.4678
3152	64.4115
3148	64.3648
3144	64.3578
3140	64.3947
3136	64.3817
3132	64.2502
3128	64.2112
3124	64.2892
3120	64.3444
3116	64.3926
3112	64.4047
3108	64.4161
3104	64.5108
3100	64.6147
3096	64.5946
3092	64.5348
3088	64.4797
3084	64.3479
3080	64.2818
3076	64.3284
3072	64.3167
3068	64.27
3064	64.3066
3060	64.3666
3056	64.4348
3052	64.5364
3048	64.5674
3044	64.501
3040	64.4355
3036	64.4327
3032	64.4686
3028	64.4846
3024	64.4441
3020	64.367
3016	64.3211
3012	64.3636
3008	64.4317
3004	64.4572
3000	64.4565
2996	64.4423
2992	64.4121
2988	64.3347
2984	64.3262
2980	64.4146
2976	64.351
2972	64.1715
2968	64.141
2964	64.2205
2960	64.226
2956	64.1657
2952	64.1374
2948	64.1933
2944	64.2872
2940	64.2946
2936	64.2432
2932	64.2844
2928	64.3915
2924	64.4178
2920	64.4003
2916	64.3616
2912	64.2896
2908	64.2972
2904	64.336
2900	64.2987
2896	64.2478
2892	64.2167
2888	64.2084
2884	64.2202
2880	64.2599
2876	64.2922
2872	64.2459
2868	64.1973
2864	64.2165
2860	64.2476
2856	64.2463
2852	64.2044
2848	64.1539
2844	64.1901
2840	64.3022
2836	64.3493
2832	64.3311
2828	64.3237
2824	64.3213
2820	64.2893
2816	64.231
2812	64.2341
2808	64.2875
2804	64.3088
2800	64.324
2796	64.3349
2792	64.2999
2788	64.2615
2784	64.2864
2780	64.3342
2776	64.3649
2772	64.3864
2768	64.3995
2764	64.392
2760	64.3406
2756	64.2958
2752	64.2915
2748	64.305
2744	64.3329
2740	64.343
2736	64.3285
2732	64.3358
2728	64.3712
2724	64.3926
2720	64.3489
2716	64.3029
2712	64.3134
2708	64.3135
2704	64.2881
2700	64.2767
2696	64.3121
2692	64.3107
2688	64.2299
2684	64.1562
2680	64.1073
2676	64.1203
2672	64.1977
2668	64.2525
2664	64.2243
2660	64.169
2656	64.149
2652	64.2117
2648	64.3682
2644	64.443
2640	64.3868
2636	64.3652
2632	64.407
2628	64.3936
2624	64.3061
2620	64.2219
2616	64.2203
2612	64.233
2608	64.1758
2604	64.1404
2600	64.1533
2596	64.1662
2592	64.1417
2588	64.106
2584	64.1569
2580	64.2155
2576	64.2152
2572	64.2168
2568	64.2197
2564	64.2453
2560	64.2668
2556	64.2347
2552	64.1899
2548	64.1597
2544	64.1415
2540	64.1772
2536	64.2697
2532	64.2743
2528	64.1639
2524	64.0997
2520	64.1312
2516	64.182
2512	64.2206
2508	64.2241
2504	64.176
2500	64.1833
2496	64.2701
2492	64.3148
2488	64.2646
2484	64.125
2480	64.0524
2476	64.1685
2472	64.2928
2468	64.3152
2464	64.2818
2460	64.2494
2456	64.272
2452	64.2608
2448	64.1697
2444	64.1032
2440	64.1145
2436	64.1634
2432	64.1848
2428	64.1875
2424	64.1949
2420	64.1799
2416	64.1185
2412	64.0433
2408	64.04
2404	64.0741
2400	64.0767
2396	64.1132
2392	64.1465
2388	64.1295
2384	64.1814
2380	64.2521
2376	64.2304
2372	64.1845
2368	64.1767
2364	64.2174
2360	64.2277
2356	64.1489
2352	64.0816
2348	64.096
2344	64.1404
2340	64.1251
2336	64.091
2332	64.1179
2328	64.1788
2324	64.2465
2320	64.2443
2316	64.1689
2312	64.145
2308	64.1586
2304	64.1189
2300	64.0801
2296	64.1095
2292	64.1193
2288	64.0557
2284	64.0174
2280	64.0465
2276	64.1141
2272	64.1804
2268	64.1453
2264	64.0563
2260	64.0455
2256	64.0789
2252	64.1042
2248	64.1078
2244	64.0903
2240	64.0685
2236	64.0345
2232	64.0549
2228	64.1132
2224	64.0877
2220	64.0328
2216	64.0406
2212	64.0875
2208	64.1035
2204	64.0712
2200	64.0501
2196	64.0418
2192	64.0224
2188	64.038
2184	64.0779
2180	64.0745
2176	64.0497
2172	64.044
2168	64.0433
2164	63.9936
2160	63.9179
2156	63.9192
2152	63.9989
2148	64.0547
2144	64.0633
2140	64.048
2136	64.0148
2132	63.9985
2128	64.0038
2124	63.9966
2120	63.9919
2116	63.9889
2112	63.9613
2108	63.9534
2104	63.976
2100	63.9842
2096	63.9788
2092	63.9537
2088	63.9311
2084	63.9519
2080	63.948
2076	63.8791
2072	63.8282
2068	63.8593
2064	63.9251
2060	63.9526
2056	64.009
2052	64.0629
2048	63.9848
2044	63.9045
2040	63.9575
2036	64.0364
2032	64.0267
2028	63.9649
2024	63.9421
2020	63.9827
2016	64.0485
2012	64.0617
2008	64.0075
2004	63.95
2000	63.9301
1996	63.9776
1992	64.0168
1988	63.9646
1984	63.9192
1980	63.9297
1976	63.9491
1972	63.9567
1968	63.9617
1964	64.0057
1960	64.0432
1956	64.0057
1952	63.9381
1948	63.8866
1944	63.8558
1940	63.8988
1936	63.9562
1932	63.9216
1928	63.88
1924	63.8879
1920	63.8986
1916	63.893
1912	63.8811
1908	63.8741
1904	63.8729
1900	63.8983
1896	63.9267
1892	63.9271
1888	63.9344
1884	63.9108
1880	63.8766
1876	63.8859
1872	63.8869
1868	63.8668
1864	63.8507
1860	63.8801
1856	63.9465
1852	63.9193
1848	63.8275
1844	63.8605
1840	63.9707
1836	63.979
1832	63.8983
1828	63.8224
1824	63.7911
1820	63.8115
1816	63.8688
1812	63.9278
1808	63.9342
1804	63.8956
1800	63.8743
1796	63.8927
1792	63.9158
1788	63.8566
1784	63.7504
1780	63.7222
1776	63.7478
1772	63.7589
1768	63.7733
1764	63.8006
1760	63.7751
1756	63.6741
1752	63.6036
1748	63.6236
1744	63.6639
1740	63.6303
1736	63.5172
1732	63.4364
1728	63.458
1724	63.5247
1720	63.5803
1716	63.6101
1712	63.6094
1708	63.622
1704	63.6337
1700	63.6199
1696	63.6316
1692	63.6496
1688	63.6454
1684	63.6256
1680	63.5989
1676	63.5988
1672	63.6086
1668	63.5728
1664	63.5415
1660	63.5729
1656	63.6287
1652	63.6779
1648	63.6827
1644	63.6646
1640	63.6978
1636	63.7003
1632	63.6076
1628	63.5231
1624	63.5189
1620	63.5423
1616	63.5449
1612	63.5646
1608	63.5933
1604	63.6164
1600	63.6528
1596	63.6947
1592	63.716
1588	63.6759
1584	63.5818
1580	63.4756
1576	63.4465
1572	63.5016
1568	63.5533
1564	63.5688
1560	63.5018
1556	63.4239
1552	63.4619
1548	63.5415
1544	63.54
1540	63.466
1536	63.4397
1532	63.4669
1528	63.4713
1524	63.4559
1520	63.4672
1516	63.5307
1512	63.5708
1508	63.5432
1504	63.4927
1500	63.4803
1496	63.5487
1492	63.6021
1488	63.5499
1484	63.4573
1480	63.4333
1476	63.5277
1472	63.6003
1468	63.5501
1464	63.4897
1460	63.4428
1456	63.3717
1452	63.3353
1448	63.3356
1444	63.3224
1440	63.3089
1436	63.325
1432	63.3301
1428	63.3305
1424	63.4007
1420	63.4892
1416	63.4696
1412	63.3915
1408	63.3995
1404	63.4556
1400	63.4439
1396	63.3707
1392	63.354
1388	63.4337
1384	63.4804
1380	63.4037
1376	63.2671
1372	63.2376
1368	63.3348
1364	63.3717
1360	63.3106
1356	63.2544
1352	63.2834
1348	63.3681
1344	63.3916
1340	63.3272
1336	63.2754
1332	63.3388
1328	63.3914
1324	63.3713
1320	63.3791
1316	63.3891
1312	63.3776
1308	63.3168
1304	63.2441
1300	63.2305
1296	63.2231
1292	63.1992
1288	63.1664
1284	63.187
1280	63.2618
1276	63.2688
1272	63.1856
1268	63.1093
1264	63.1214
1260	63.153
1256	63.1361
1252	63.1382
1248	63.184
1244	63.1957
1240	63.1345
1236	63.072
1232	63.1021
1228	63.2082
1224	63.2977
1220	63.2984
1216	63.2694
1212	63.2828
1208	63.2456
1204	63.1687
1200	63.1616
1196	63.1795
1192	63.1762
1188	63.1673
1184	63.1368
1180	63.0777
1176	63.0319
1172	62.9955
1168	62.9197
1164	62.8929
1160	62.9754
1156	63.0548
1152	63.0707
1148	63.0821
1144	63.1211
1140	63.1195
1136	63.0486
1132	62.9721
1128	62.9711
1124	63.0788
1120	63.1195
1116	63.0227
1112	62.9576
1108	62.9075
1104	62.8673
1100	62.9219
1096	62.9861
1092	62.9826
1088	62.973
1084	62.9644
1080	62.8573
1076	62.7541
1072	62.8063
1068	62.9271
1064	62.9894
1060	62.9226
1056	62.7783
1052	62.7225
1048	62.8703
1044	63.0876
1040	63.1639
1036	63.1218
1032	63.074
1028	63.0487
1024	63.0327
1020	62.9954
1016	62.9235
1012	62.9148
1008	62.9373
1004	62.8617
1000	62.8012
996	 62.8564
992	 62.9538
988	 63.0477
984	 63.1158
980	 63.1023
976	 63.0504
972	 63.0435
968	 63.049
964	 63.01
960	 62.9719
956	 63.0206
952	 63.0573
948	 62.9805
944	 62.9249
940	 62.9401
936	 62.9326
932	 62.9424
928	 62.9997
924	 63.0505
920	 63.0388
916	 62.9409
912	 62.9029
908	 62.9365
904	 62.9012
900	 62.8725
896	 62.9012
892	 62.9182
888	 62.89
884	 62.8492
880	 62.8905
876	 63.0064
872	 63.0797
868	 63.0929
864	 63.105
860	 63.0952
856	 63.061
852	 62.9792
848	 62.8859
844	 62.8837
840	 62.897
836	 62.9372
832	 63.0099
828	 62.9192
824	 62.792
820	 62.866
816	 62.9288
812	 62.9517
808	 62.9663
804	 62.7543
800	 62.5541
796	 62.6445
792	 62.8264
788	 62.948
784	 62.9425
780	 62.7569
776	 62.5531
772	 62.54
768	 62.6261
764	 62.6833
760	 62.6933
756	 62.6558
752	 62.6604
748	 62.7099
744	 62.735
740	 62.7869
736	 62.8634
732	 62.7933
728	 62.6393
724	 62.5902
720	 62.6458
716	 62.7026
712	 62.66
708	 62.5517
704	 62.4751
700	 62.5146
696	 62.6349
692	 62.6996
688	 62.6553
684	 62.5548
680	 62.4623
676	 62.3973
672	 62.4301
668	 62.5304
664	 62.4719
660	 62.2499
656	 62.1648
652	 62.3253
648	 62.5034
644	 62.6157
640	 62.723
636	 62.6509
632	 62.3859
628	 62.0808
624	 61.7747
620	 61.7779
616	 62.1538
612	 62.5375
608	 62.6642
604	 62.4202
600	 62.1706
596	 62.2324
592	 62.2875
588	 62.0482
584	 61.9649
580	 62.0947
576	 61.9497
572	 62.0479
568	 62.5311
564	 62.5104
560	 61.9817
556	 61.5752
552	 61.4841
548	 62.0295
544	 62.8437
540	 62.4504
536	 61.5565
532	 61.585
528	 61.8109
524	 61.9102
520	 62.0081
516	 61.7907
512	 61.8814
508	 61.8922
504	 60.5314
500	 58.9751
496	 59.5638
492	 61.7185
488	 62.7858
484	 62.2788
480	 61.818
476	 61.9183
472	 61.8579
468	 61.3525
464	 60.9208
460	 61.0968
456	 61.6891
452	 61.6013
448	 60.8598
444	 60.6653
440	 60.8051
436	 61.3932
432	 62.2199
428	 62.162
424	 62.6421
420	 63.9367
416	 63.2147
412	 61.257
408	 61.7831
404	 64.9478
400	 65.2093
396	 60.7325
392	 56.3028
388	 52.9896
384	 47.1843
380	 39.8792
376	 39.7273
372	 36.9008
370	 30.9998