File: Bakgrunnsmateriale/MATLAB/FTIR/ftir_data/subAa/Mapping_121/BZ1503107-1_t24_cm-1.asc
PE IR       SPECTRUM    SPECTRUM    ASCII       PEDS        1.60
  -1
BZ6C23~1.ASC
17/04/07
15:14:28.00
17/04/07
15:14:28.00
tln
$BZ1503107-1_t0024$<tbV0>[10.4,-7.8,8.0,0.0,27,1,0]
370
64

2002,4.07
MIRTGS : RIGHTBACK : INTERNAL 2
MIR : ON : INTERNAL 2
OPTKBR

0.200000
8
8.000000
FILLER
RATIO
SPECTRUM
UNLOCKED 256

DOUBLE
64
COMBINED
1
0
0

1.000000
RATIO

1
0
TRUE
51149
0
LEFT NOT FITTED RIGHT NOT FITTED 0
NONE
NONE
15600
12
4.427000
51148
TRUE
1 0 8 72 0 0 0 0

15798

#HDR
-1
-1
#GR
CM-1
%T
2.38419e-05
0.0
5000
-1.000000
4631
8
89.6182
39.9932
#DATA
5000	65.632
4996	64.7283
4992	64.2855
4988	64.4532
4984	64.7202
4980	64.6353
4976	64.5344
4972	64.5903
4968	64.4967
4964	64.6147
4960	64.7623
4956	64.4827
4952	64.1873
4948	64.2801
4944	64.6466
4940	64.9537
4936	64.7197
4932	64.1501
4928	64.2493
4924	64.7552
4920	64.7722
4916	64.5172
4912	64.494
4908	64.5407
4904	64.5373
4900	64.5379
4896	64.4499
4892	64.4858
4888	64.6296
4884	64.7948
4880	65.0857
4876	65.2324
4872	64.9785
4868	64.7027
4864	64.7682
4860	65.0129
4856	65.1715
4852	65.0241
4848	64.8292
4844	64.9009
4840	65.0018
4836	65.0404
4832	65.0881
4828	65.0304
4824	64.8777
4820	64.877
4816	64.9151
4812	64.8018
4808	64.7674
4804	64.9128
4800	65.0778
4796	65.1481
4792	65.2417
4788	65.3305
4784	65.177
4780	64.9461
4776	64.9699
4772	65.1338
4768	65.2794
4764	65.4931
4760	65.6251
4756	65.6165
4752	65.6545
4748	65.5848
4744	65.2913
4740	65.1693
4736	65.2551
4732	65.2786
4728	65.3003
4724	65.2258
4720	65.2201
4716	65.5811
4712	65.9468
4708	65.8493
4704	65.3993
4700	65.0928
4696	65.0586
4692	65.0391
4688	65.004
4684	65.0286
4680	65.0504
4676	65.0761
4672	65.0913
4668	65.1225
4664	65.2469
4660	65.2877
4656	65.1682
4652	65.11
4648	65.1244
4644	65.003
4640	64.7802
4636	64.711
4632	64.7096
4628	64.6932
4624	64.7798
4620	64.7948
4616	64.6914
4612	64.6531
4608	64.6827
4604	64.5604
4600	64.4496
4596	64.6826
4592	64.8578
4588	64.5818
4584	64.3068
4580	64.4687
4576	64.5968
4572	64.4415
4568	64.4346
4564	64.5344
4560	64.4961
4556	64.4144
4552	64.4674
4548	64.6003
4544	64.6705
4540	64.6225
4536	64.4047
4532	64.2546
4528	64.3351
4524	64.3351
4520	64.3654
4516	64.6633
4512	64.721
4508	64.3539
4504	64.0827
4500	63.9268
4496	63.9017
4492	64.2371
4488	64.7385
4484	65.0742
4480	64.884
4476	64.376
4472	64.0701
4468	63.8264
4464	63.5946
4460	63.4147
4456	63.3247
4452	63.8559
4448	64.4829
4444	64.2557
4440	64.1527
4436	62.6333
4432	61.4949
4428	73.5758
4424	84.5314
4420	72.3457
4416	64.2431
4412	66.3342
4408	67.0716
4404	66.8705
4400	66.7182
4396	66.402
4392	65.8586
4388	65.1561
4384	64.772
4380	64.4885
4376	64.1574
4372	63.9958
4368	63.9835
4364	64.1989
4360	64.5764
4356	64.5003
4352	64.1041
4348	64.0078
4344	64.2233
4340	64.4554
4336	64.4842
4332	64.4846
4328	64.5036
4324	64.3404
4320	64.192
4316	64.2072
4312	64.3625
4308	64.5926
4304	64.7723
4300	64.825
4296	64.7735
4292	64.7952
4288	64.977
4284	65.1802
4280	65.1304
4276	64.941
4272	64.8782
4268	64.8585
4264	64.8188
4260	64.7897
4256	64.7848
4252	64.7444
4248	64.694
4244	64.8307
4240	65.0082
4236	64.9943
4232	65.0089
4228	65.0456
4224	65.0248
4220	65.1484
4216	65.2881
4212	65.1761
4208	64.9171
4204	64.769
4200	64.8494
4196	64.9374
4192	64.9285
4188	65.0426
4184	65.2422
4180	65.2362
4176	64.9124
4172	64.6754
4168	64.9371
4164	65.3406
4160	65.3473
4156	65.1415
4152	65.0505
4148	65.1095
4144	65.3248
4140	65.476
4136	65.4345
4132	65.4023
4128	65.3862
4124	65.2829
4120	65.2775
4116	65.3079
4112	65.2341
4108	65.1963
4104	65.138
4100	65.0571
4096	65.1055
4092	65.2168
4088	65.2394
4084	65.1482
4080	65.093
4076	65.177
4072	65.2396
4068	65.1718
4064	65.1548
4060	65.2514
4056	65.2397
4052	65.1843
4048	65.2864
4044	65.3633
4040	65.3026
4036	65.2097
4032	65.1016
4028	65.0363
4024	65.129
4020	65.2848
4016	65.315
4012	65.2874
4008	65.3372
4004	65.3116
4000	65.1809
3996	65.247
3992	65.4098
3988	65.3862
3984	65.256
3980	65.1779
3976	65.1831
3972	65.1742
3968	65.1018
3964	65.0332
3960	65.0121
3956	65.0704
3952	65.1768
3948	65.1219
3944	65.0156
3940	65.0617
3936	65.0404
3932	64.9355
3928	64.9743
3924	65.0956
3920	65.1279
3916	65.1426
3912	65.2036
3908	65.2607
3904	65.3096
3900	65.3138
3896	65.2391
3892	65.049
3888	64.8776
3884	64.9285
3880	65.0167
3876	65.057
3872	65.1211
3868	65.1069
3864	65.0558
3860	65.05
3856	65.0542
3852	65.0326
3848	65.0426
3844	65.1105
3840	65.1805
3836	65.1985
3832	65.166
3828	65.1536
3824	65.1714
3820	65.2069
3816	65.2436
3812	65.145
3808	65.046
3804	65.1576
3800	65.2344
3796	65.1536
3792	65.0499
3788	64.983
3784	64.9907
3780	65.0765
3776	65.2583
3772	65.3907
3768	65.245
3764	65.0605
3760	65.1591
3756	65.3304
3752	65.2464
3748	65.0915
3744	65.1703
3740	65.2725
3736	65.1872
3732	65.0877
3728	65.0862
3724	65.1442
3720	65.1905
3716	65.1244
3712	65.0221
3708	65.0264
3704	65.0592
3700	65.0572
3696	65.0755
3692	65.076
3688	65.0531
3684	65.062
3680	65.1079
3676	65.2262
3672	65.3499
3668	65.4262
3664	65.4509
3660	65.3866
3656	65.3378
3652	65.3314
3648	65.2585
3644	65.1482
3640	65.0823
3636	65.0949
3632	65.1453
3628	65.1308
3624	65.0949
3620	65.0787
3616	65.06
3612	65.117
3608	65.198
3604	65.1604
3600	65.0429
3596	65.0252
3592	65.1582
3588	65.2065
3584	65.1009
3580	65.0348
3576	65.0429
3572	65.0655
3568	65.0732
3564	65.0566
3560	65.0679
3556	65.0884
3552	65.0934
3548	65.1229
3544	65.1309
3540	65.0797
3536	65.0478
3532	65.1081
3528	65.1646
3524	65.1457
3520	65.1346
3516	65.1819
3512	65.1924
3508	65.1315
3504	65.1184
3500	65.2008
3496	65.2378
3492	65.1392
3488	65.0612
3484	65.0955
3480	65.1683
3476	65.232
3472	65.2368
3468	65.1583
3464	65.0354
3460	65.0467
3456	65.2074
3452	65.2378
3448	65.1584
3444	65.0948
3440	65.0311
3436	65.0401
3432	65.0603
3428	65.0578
3424	65.1422
3420	65.2031
3416	65.1363
3412	65.0908
3408	65.1179
3404	65.13
3400	65.1384
3396	65.1449
3392	65.1091
3388	65.0853
3384	65.0907
3380	65.0563
3376	65.0598
3372	65.125
3368	65.1144
3364	65.0864
3360	65.1709
3356	65.2859
3352	65.3349
3348	65.3068
3344	65.2462
3340	65.2492
3336	65.2315
3332	65.1395
3328	65.1395
3324	65.2294
3320	65.2254
3316	65.1196
3312	65.1109
3308	65.1995
3304	65.1803
3300	65.1533
3296	65.216
3292	65.1787
3288	65.0741
3284	65.038
3280	65.085
3276	65.211
3272	65.245
3268	65.2048
3264	65.2635
3260	65.2557
3256	65.1385
3252	65.1148
3248	65.1605
3244	65.1848
3240	65.185
3236	65.1263
3232	65.0422
3228	65.0345
3224	65.0759
3220	65.0444
3216	64.9392
3212	64.8775
3208	64.9197
3204	65.0143
3200	65.1327
3196	65.2031
3192	65.2073
3188	65.201
3184	65.0984
3180	64.9872
3176	65.0462
3172	65.1623
3168	65.179
3164	65.1619
3160	65.1988
3156	65.1702
3152	65.0166
3148	64.9084
3144	64.927
3140	64.965
3136	65.0167
3132	65.0763
3128	64.9963
3124	64.8927
3120	64.9374
3116	65.0212
3112	65.0739
3108	65.1127
3104	65.1441
3100	65.13
3096	65.0522
3092	64.9726
3088	64.9512
3084	65.0578
3080	65.1982
3076	65.1767
3072	65.0926
3068	65.1217
3064	65.1707
3060	65.1551
3056	65.1308
3052	65.0959
3048	65.0496
3044	65.0528
3040	65.0487
3036	65.0059
3032	64.9862
3028	64.945
3024	64.9156
3020	64.9431
3016	65.0081
3012	65.0828
3008	65.1156
3004	65.1455
3000	65.1416
2996	65.0561
2992	65.0204
2988	65.1253
2984	65.2315
2980	65.1609
2976	65.0048
2972	64.934
2968	64.9462
2964	64.9752
2960	64.9443
2956	64.9037
2952	64.9315
2948	64.9552
2944	64.9558
2940	64.9789
2936	64.9941
2932	64.986
2928	65.0053
2924	65.0501
2920	65.0325
2916	64.9836
2912	65.0276
2908	65.101
2904	65.0858
2900	65.0555
2896	65.054
2892	65.0411
2888	65.0285
2884	64.9877
2880	64.9271
2876	64.9222
2872	64.9715
2868	65.0477
2864	65.129
2860	65.1629
2856	65.1376
2852	65.0514
2848	64.9428
2844	64.8996
2840	64.9018
2836	64.9163
2832	64.9383
2828	64.9855
2824	65.0536
2820	65.0419
2816	65.002
2812	64.9933
2808	64.9932
2804	65.0528
2800	65.1564
2796	65.2303
2792	65.2138
2788	65.1366
2784	65.0652
2780	65.0706
2776	65.17
2772	65.2411
2768	65.2101
2764	65.1191
2760	65.0749
2756	65.1795
2752	65.2993
2748	65.2571
2744	65.1569
2740	65.1074
2736	65.0514
2732	65.0079
2728	65.0267
2724	65.0766
2720	65.1108
2716	65.0719
2712	64.9861
2708	64.9701
2704	65.037
2700	65.0817
2696	65.0935
2692	65.07
2688	64.995
2684	64.9557
2680	64.99
2676	65.0144
2672	64.9749
2668	64.9547
2664	64.974
2660	65.0173
2656	65.0906
2652	65.1078
2648	65.073
2644	65.0481
2640	65.059
2636	65.0886
2632	65.0908
2628	65.0812
2624	65.0572
2620	64.9741
2616	64.8623
2612	64.8947
2608	65.0227
2604	65.0318
2600	65.0261
2596	65.0138
2592	64.9207
2588	64.8925
2584	64.9266
2580	64.9326
2576	64.8917
2572	64.8494
2568	64.8873
2564	64.9486
2560	64.9598
2556	64.9601
2552	64.9337
2548	64.876
2544	64.8447
2540	64.8749
2536	64.9698
2532	65.0442
2528	65.0444
2524	65.0191
2520	65.0357
2516	65.0541
2512	65.0069
2508	64.9629
2504	64.9856
2500	65.0285
2496	65.0001
2492	64.9167
2488	64.9234
2484	65.0099
2480	65.0458
2476	65.0318
2472	64.9905
2468	64.9127
2464	64.8393
2460	64.8026
2456	64.8312
2452	64.9405
2448	65.0451
2444	65.0509
2440	65.0307
2436	65.0558
2432	65.0788
2428	65.0653
2424	65.0099
2420	64.9853
2416	64.9811
2412	64.8633
2408	64.7347
2404	64.8011
2400	64.9431
2396	65.0284
2392	65.1085
2388	65.0833
2384	64.9729
2380	64.9493
2376	64.9637
2372	64.9322
2368	64.8896
2364	64.903
2360	64.9572
2356	64.966
2352	64.9476
2348	64.9534
2344	64.9766
2340	64.9957
2336	64.9457
2332	64.8524
2328	64.8127
2324	64.8507
2320	64.9156
2316	64.928
2312	64.9237
2308	64.9621
2304	65.002
2300	64.9769
2296	64.9053
2292	64.8902
2288	64.95
2284	64.9988
2280	64.9763
2276	64.9313
2272	64.9044
2268	64.8729
2264	64.8934
2260	64.9416
2256	64.9044
2252	64.8575
2248	64.8655
2244	64.8639
2240	64.8754
2236	64.9062
2232	64.8892
2228	64.8334
2224	64.795
2220	64.799
2216	64.7965
2212	64.7797
2208	64.8237
2204	64.9381
2200	65.0474
2196	65.0743
2192	65.0128
2188	64.9261
2184	64.8759
2180	64.8538
2176	64.8407
2172	64.8391
2168	64.852
2164	64.8771
2160	64.9244
2156	64.9475
2152	64.8706
2148	64.787
2144	64.8171
2140	64.8429
2136	64.8332
2132	64.8672
2128	64.8664
2124	64.8455
2120	64.8884
2116	64.9665
2112	64.9613
2108	64.8685
2104	64.8262
2100	64.853
2096	64.8645
2092	64.8513
2088	64.8471
2084	64.7936
2080	64.7602
2076	64.8322
2072	64.8652
2068	64.8157
2064	64.7936
2060	64.7966
2056	64.8032
2052	64.8168
2048	64.8037
2044	64.7992
2040	64.8136
2036	64.8043
2032	64.7915
2028	64.802
2024	64.8362
2020	64.8822
2016	64.91
2012	64.9061
2008	64.8796
2004	64.8507
2000	64.846
1996	64.8109
1992	64.7298
1988	64.7203
1984	64.7922
1980	64.8375
1976	64.8314
1972	64.8337
1968	64.8387
1964	64.7924
1960	64.7125
1956	64.68
1952	64.7425
1948	64.7892
1944	64.7482
1940	64.7357
1936	64.7587
1932	64.7522
1928	64.7515
1924	64.7557
1920	64.726
1916	64.7036
1912	64.74
1908	64.7526
1904	64.7092
1900	64.6881
1896	64.7233
1892	64.802
1888	64.8527
1884	64.8139
1880	64.7247
1876	64.6849
1872	64.6951
1868	64.6877
1864	64.657
1860	64.6301
1856	64.6746
1852	64.7351
1848	64.7077
1844	64.6986
1840	64.73
1836	64.686
1832	64.6271
1828	64.6436
1824	64.6697
1820	64.6719
1816	64.6703
1812	64.668
1808	64.6971
1804	64.7319
1800	64.7143
1796	64.6987
1792	64.6941
1788	64.6409
1784	64.588
1780	64.5761
1776	64.5959
1772	64.6464
1768	64.7053
1764	64.7118
1760	64.6377
1756	64.5298
1752	64.4626
1748	64.4588
1744	64.4605
1740	64.4381
1736	64.4475
1732	64.4983
1728	64.4964
1724	64.4571
1720	64.4732
1716	64.5229
1712	64.5556
1708	64.5976
1704	64.6439
1700	64.6165
1696	64.5499
1692	64.5564
1688	64.5685
1684	64.5317
1680	64.5387
1676	64.5889
1672	64.6373
1668	64.666
1664	64.658
1660	64.6079
1656	64.5371
1652	64.5408
1648	64.6161
1644	64.5972
1640	64.4702
1636	64.3804
1632	64.4145
1628	64.5053
1624	64.53
1620	64.5314
1616	64.5488
1612	64.5422
1608	64.5492
1604	64.531
1600	64.4858
1596	64.4949
1592	64.45
1588	64.3445
1584	64.363
1580	64.4678
1576	64.5134
1572	64.5154
1568	64.5449
1564	64.5668
1560	64.5308
1556	64.4584
1552	64.4063
1548	64.4166
1544	64.4325
1540	64.4442
1536	64.4595
1532	64.4649
1528	64.5046
1524	64.555
1520	64.5899
1516	64.6319
1512	64.6548
1508	64.5994
1504	64.5364
1500	64.5644
1496	64.6311
1492	64.6319
1488	64.5232
1484	64.4374
1480	64.4907
1476	64.5311
1472	64.4574
1468	64.3856
1464	64.3932
1460	64.5001
1456	64.6382
1452	64.6259
1448	64.4566
1444	64.3836
1440	64.4858
1436	64.5566
1432	64.5049
1428	64.4699
1424	64.4675
1420	64.4009
1416	64.3146
1412	64.2924
1408	64.3273
1404	64.3357
1400	64.2892
1396	64.2652
1392	64.3012
1388	64.3367
1384	64.3287
1380	64.3132
1376	64.33
1372	64.3508
1368	64.3267
1364	64.285
1360	64.2877
1356	64.3209
1352	64.2912
1348	64.2394
1344	64.2761
1340	64.3543
1336	64.3785
1332	64.3453
1328	64.3458
1324	64.337
1320	64.2634
1316	64.2693
1312	64.3282
1308	64.3451
1304	64.3764
1300	64.4136
1296	64.4331
1292	64.4219
1288	64.3411
1284	64.2563
1280	64.2764
1276	64.3207
1272	64.2915
1268	64.2733
1264	64.2927
1260	64.2762
1256	64.2626
1252	64.3027
1248	64.331
1244	64.3491
1240	64.3597
1236	64.3366
1232	64.3282
1228	64.3019
1224	64.2408
1220	64.1828
1216	64.1387
1212	64.1319
1208	64.1548
1204	64.2057
1200	64.2447
1196	64.2476
1192	64.2309
1188	64.1818
1184	64.1751
1180	64.2515
1176	64.2607
1172	64.1482
1168	64.059
1164	64.1317
1160	64.2644
1156	64.2293
1152	64.1086
1148	64.1077
1144	64.1796
1140	64.1439
1136	64.0595
1132	64.015
1128	63.9953
1124	64.0892
1120	64.2042
1116	64.2221
1112	64.2078
1108	64.1656
1104	64.1395
1100	64.1234
1096	64.1316
1092	64.2362
1088	64.2754
1084	64.1604
1080	64.1317
1076	64.2542
1072	64.2595
1068	64.1797
1064	64.1957
1060	64.2296
1056	64.2122
1052	64.1835
1048	64.074
1044	63.8998
1040	63.9135
1036	64.0599
1032	64.1262
1028	64.1051
1024	64.135
1020	64.2637
1016	64.2577
1012	64.0709
1008	63.9189
1004	63.9233
1000	64.0528
996	 64.1682
992	 64.2061
988	 64.1815
984	 64.1447
980	 64.1704
976	 64.2162
972	 64.2631
968	 64.2942
964	 64.2504
960	 64.2097
956	 64.2007
952	 64.2422
948	 64.3031
944	 64.2575
940	 64.2017
936	 64.2224
932	 64.1878
928	 64.1323
924	 64.1685
920	 64.1857
916	 64.1167
912	 64.0485
908	 64.0328
904	 64.1227
900	 64.2682
896	 64.3292
892	 64.2676
888	 64.2219
884	 64.2941
880	 64.3331
876	 64.2787
872	 64.2594
868	 64.2894
864	 64.1864
860	 64.0692
856	 64.1688
852	 64.182
848	 64.0188
844	 64.0207
840	 64.1362
836	 64.1329
832	 64.0687
828	 64.0969
824	 64.1524
820	 64.0661
816	 63.9479
812	 63.9416
808	 63.9842
804	 63.9493
800	 63.8848
796	 63.934
792	 63.9744
788	 63.9754
784	 64.0839
780	 64.2641
776	 64.321
772	 64.1802
768	 64.0555
764	 64.0303
760	 63.9671
756	 63.8805
752	 63.9167
748	 63.9915
744	 63.9677
740	 63.9015
736	 63.8297
732	 63.8175
728	 63.941
724	 64.1382
720	 64.2252
716	 64.0812
712	 63.9303
708	 64.0148
704	 64.0921
700	 63.9327
696	 63.9038
692	 64.3165
688	 64.6255
684	 64.4202
680	 64.2201
676	 64.1431
672	 63.7773
668	 63.4198
664	 63.4666
660	 63.8176
656	 64.2627
652	 64.2568
648	 64.0686
644	 64.1492
640	 63.7314
636	 63.6146
632	 64.8531
628	 65.516
624	 64.7044
620	 63.8257
616	 63.5028
612	 63.9822
608	 64.8474
604	 65.1448
600	 64.7028
596	 63.9389
592	 63.6755
588	 63.9475
584	 64.267
580	 64.4549
576	 64.5474
572	 64.5921
568	 64.1197
564	 63.6157
560	 63.7528
556	 64.0578
552	 64.3423
548	 64.1939
544	 63.4726
540	 62.9592
536	 63.1536
532	 63.669
528	 64.0161
524	 63.9326
520	 63.4831
516	 63.3743
512	 63.5979
508	 63.6641
504	 63.7563
500	 63.9208
496	 63.8248
492	 63.4408
488	 63.0001
484	 63.2799
480	 64.1639
476	 64.2964
472	 63.7975
468	 63.552
464	 63.8001
460	 64.501
456	 64.5154
452	 63.5893
448	 63.2436
444	 63.5687
440	 63.5584
436	 63.7434
432	 64.9485
428	 65.5549
424	 64.2463
420	 62.5792
416	 62.0244
412	 61.811
408	 62.4009
404	 63.5892
400	 61.842
396	 61.4319
392	 69.2958
388	 83.2012
384	 89.5941
380	 77.7321
376	 57.828
372	 43.1647
370	 39.9932