File: Bakgrunnsmateriale/MATLAB/FTIR/ftir_data/subAa/Mapping_121/BZ1503107-1_t04_cm-1.asc
PE IR       SPECTRUM    SPECTRUM    ASCII       PEDS        1.60
  -1
BZ6C22~1.ASC
17/04/07
13:34:21.00
17/04/07
13:34:21.00
tln
$BZ1503107-1_t0004$<tbV0>[5.2,-13.0,8.0,0.0,27,1,0]
370
64

2002,4.07
MIRTGS : RIGHTBACK : INTERNAL 2
MIR : ON : INTERNAL 2
OPTKBR

0.200000
8
8.000000
FILLER
RATIO
SPECTRUM
UNLOCKED 256

DOUBLE
64
COMBINED
1
0
0

1.000000
RATIO

1
0
TRUE
51149
0
LEFT NOT FITTED RIGHT NOT FITTED 0
NONE
NONE
15600
12
4.427000
51148
TRUE
1 0 8 72 0 0 0 0

15798

#HDR
-1
-1
#GR
CM-1
%T
2.38419e-05
0.0
5000
-1.000000
4631
8
76.9673
30.7092
#DATA
5000	64.354
4996	64.5333
4992	64.8446
4988	64.8383
4984	64.7887
4980	64.5708
4976	64.254
4972	64.1327
4968	64.2319
4964	64.4174
4960	64.5001
4956	64.37
4952	64.2762
4948	64.6044
4944	65.0743
4940	65.2544
4936	65.3431
4932	65.2801
4928	65.0752
4924	64.8876
4920	64.5585
4916	64.8197
4912	65.7659
4908	65.9095
4904	65.1534
4900	64.8493
4896	65.5662
4892	66.4497
4888	65.8716
4884	64.4535
4880	64.3797
4876	64.9598
4872	65.2895
4868	65.8972
4864	65.5994
4860	64.6588
4856	64.5271
4852	64.6574
4848	64.7907
4844	65.0142
4840	65.2695
4836	65.3847
4832	65.2397
4828	65.3004
4824	65.2916
4820	65.0406
4816	65.352
4812	65.5636
4808	65.0542
4804	65.3579
4800	66.105
4796	65.81
4792	65.4126
4788	65.5108
4784	65.3548
4780	64.7046
4776	64.3947
4772	64.5297
4768	64.2851
4764	64.4307
4760	65.328
4756	65.5432
4752	65.0399
4748	64.7239
4744	64.8107
4740	64.9099
4736	64.7232
4732	64.71
4728	64.6579
4724	64.2229
4720	63.9569
4716	64.3912
4712	64.7946
4708	64.5093
4704	64.3379
4700	64.3978
4696	64.3736
4692	64.4791
4688	64.7542
4684	64.9692
4680	64.9221
4676	64.7292
4672	64.5814
4668	64.5804
4664	64.6482
4660	64.683
4656	64.6163
4652	64.5765
4648	64.9163
4644	65.3201
4640	65.1464
4636	64.7401
4632	64.6733
4628	64.7064
4624	64.6886
4620	64.7297
4616	64.7911
4612	64.7899
4608	64.6471
4604	64.5508
4600	64.4889
4596	64.4193
4592	64.579
4588	64.8371
4584	64.9108
4580	64.737
4576	64.4801
4572	64.3785
4568	64.4423
4564	64.3575
4560	64.1715
4556	64.2009
4552	64.3347
4548	64.365
4544	64.3178
4540	64.2348
4536	64.179
4532	64.1673
4528	64.2693
4524	64.3785
4520	64.2697
4516	64.3607
4512	64.8319
4508	65.0452
4504	64.8895
4500	64.9463
4496	65.3251
4492	66.1108
4488	66.4429
4484	67.8786
4480	69.6794
4476	67.797
4472	64.7971
4468	63.292
4464	61.4354
4460	58.1114
4456	63.3298
4452	75.3067
4448	74.5629
4444	66.6809
4440	64.3221
4436	64.1941
4432	64.446
4428	65.0208
4424	65.4423
4420	65.4726
4416	65.1446
4412	64.8759
4408	64.6111
4404	64.2226
4400	64.1248
4396	64.5514
4392	65.1028
4388	65.2004
4384	64.9045
4380	64.7154
4376	64.6108
4372	64.5268
4368	64.539
4364	64.4887
4360	64.5399
4356	64.7073
4352	64.6884
4348	64.6991
4344	64.872
4340	64.8631
4336	64.675
4332	64.664
4328	64.8389
4324	64.8902
4320	64.75
4316	64.8128
4312	65.0765
4308	65.1202
4304	64.9956
4300	64.9249
4296	64.9228
4292	64.9194
4288	65.0005
4284	65.1032
4280	64.9877
4276	64.7429
4272	64.5825
4268	64.6012
4264	64.6906
4260	64.7193
4256	64.7957
4252	64.9416
4248	65.0424
4244	65.0782
4240	65.1066
4236	65.1809
4232	65.2229
4228	65.1581
4224	65.0824
4220	65.1245
4216	65.1342
4212	65.072
4208	65.1145
4204	65.1913
4200	65.1566
4196	65.0081
4192	64.9642
4188	65.0058
4184	65.0073
4180	65.0672
4176	65.2714
4172	65.4835
4168	65.3205
4164	65.016
4160	64.9519
4156	64.9144
4152	64.8259
4148	64.8022
4144	64.8293
4140	64.8549
4136	64.9113
4132	65.0112
4128	65.0791
4124	65.1063
4120	65.154
4116	65.2611
4112	65.4964
4108	65.6408
4104	65.5121
4100	65.2966
4096	65.0261
4092	64.8955
4088	64.9858
4084	65.0193
4080	65.061
4076	65.1118
4072	65.033
4068	64.9608
4064	65.0104
4060	65.1158
4056	65.1323
4052	65.0723
4048	65.12
4044	65.2509
4040	65.4664
4036	65.632
4032	65.4719
4028	65.1846
4024	65.0287
4020	65.0024
4016	64.9959
4012	65.0019
4008	65.1013
4004	65.1177
4000	64.9755
3996	64.8817
3992	64.8603
3988	64.8793
3984	64.9263
3980	65.009
3976	65.18
3972	65.3395
3968	65.3743
3964	65.2241
3960	65.0015
3956	64.9335
3952	65.0604
3948	65.2009
3944	65.1449
3940	64.9914
3936	64.8525
3932	64.6799
3928	64.6209
3924	64.7333
3920	64.902
3916	65.0488
3912	65.0676
3908	64.9964
3904	64.9978
3900	65.0542
3896	65.0691
3892	65.0343
3888	64.9809
3884	64.9789
3880	65.0389
3876	65.0437
3872	64.9321
3868	64.8838
3864	64.9796
3860	65.1229
3856	65.2743
3852	65.2753
3848	65.1516
3844	65.1707
3840	65.298
3836	65.3791
3832	65.3553
3828	65.2565
3824	65.1487
3820	65.0858
3816	65.1178
3812	65.1587
3808	65.1701
3804	65.205
3800	65.1277
3796	65.0319
3792	65.0768
3788	65.074
3784	65.0204
3780	65.0305
3776	65.0918
3772	65.1579
3768	65.2095
3764	65.2243
3760	65.1709
3756	65.1943
3752	65.3137
3748	65.3527
3744	65.299
3740	65.272
3736	65.2348
3732	65.0934
3728	65.0031
3724	65.0565
3720	65.133
3716	65.1589
3712	65.1297
3708	65.0927
3704	65.0841
3700	65.0583
3696	65.0376
3692	65.091
3688	65.2211
3684	65.3663
3680	65.4916
3676	65.5571
3672	65.45
3668	65.2143
3664	65.0916
3660	65.1585
3656	65.2153
3652	65.2262
3648	65.2512
3644	65.1857
3640	65.0884
3636	65.0974
3632	65.2085
3628	65.3216
3624	65.3462
3620	65.2872
3616	65.2361
3612	65.2573
3608	65.2728
3604	65.2774
3600	65.2194
3596	65.0448
3592	64.9733
3588	65.0566
3584	65.1411
3580	65.1833
3576	65.2204
3572	65.2818
3568	65.3017
3564	65.1876
3560	64.9985
3556	64.9681
3552	65.1039
3548	65.2069
3544	65.2154
3540	65.1714
3536	65.1908
3532	65.2189
3528	65.143
3524	65.0535
3520	64.9954
3516	64.9956
3512	65.102
3508	65.1678
3504	65.1097
3500	65.057
3496	65.1096
3492	65.2304
3488	65.3041
3484	65.2522
3480	65.1314
3476	65.1101
3472	65.1427
3468	65.0541
3464	64.988
3460	65.0609
3456	65.1538
3452	65.1464
3448	65.0381
3444	65.0397
3440	65.1323
3436	65.1364
3432	65.1203
3428	65.1337
3424	65.171
3420	65.2221
3416	65.2025
3412	65.1147
3408	65.0988
3404	65.149
3400	65.1026
3396	65.0285
3392	65.0447
3388	65.0954
3384	65.0733
3380	64.9929
3376	65.004
3372	65.1218
3368	65.2179
3364	65.1896
3360	65.0869
3356	65.0554
3352	65.0855
3348	65.0698
3344	65.1096
3340	65.2525
3336	65.3363
3332	65.292
3328	65.1678
3324	65.0942
3320	65.1494
3316	65.2424
3312	65.2483
3308	65.1524
3304	65.0804
3300	65.0759
3296	65.0635
3292	65.0672
3288	65.076
3284	65.0609
3280	65.0656
3276	65.0742
3272	65.0969
3268	65.1211
3264	65.1721
3260	65.2339
3256	65.2215
3252	65.1507
3248	65.0889
3244	65.0348
3240	64.973
3236	65.0099
3232	65.0396
3228	65.0036
3224	65.0706
3220	65.1708
3216	65.1359
3212	65.0615
3208	65.0686
3204	65.0434
3200	65.031
3196	65.1506
3192	65.2385
3188	65.1656
3184	65.0523
3180	65.0317
3176	65.0777
3172	65.0963
3168	65.0786
3164	65.1111
3160	65.2023
3156	65.2233
3152	65.1727
3148	65.2029
3144	65.2812
3140	65.2694
3136	65.1879
3132	65.1119
3128	65.1052
3124	65.1315
3120	65.0773
3116	65.0122
3112	64.999
3108	64.9925
3104	64.9962
3100	65.0496
3096	65.1753
3092	65.2681
3088	65.2022
3084	65.1064
3080	65.1097
3076	65.1191
3072	65.1199
3068	65.1049
3064	65.0023
3060	64.9128
3056	64.9009
3052	64.9095
3048	64.9551
3044	65.0538
3040	65.1367
3036	65.1259
3032	65.0976
3028	65.1229
3024	65.138
3020	65.1584
3016	65.1829
3012	65.1685
3008	65.189
3004	65.2134
3000	65.1354
2996	65.0325
2992	65.0237
2988	65.0563
2984	65.0526
2980	65.0601
2976	65.0759
2972	65.1029
2968	65.1008
2964	65.0198
2960	64.9545
2956	64.9317
2952	64.941
2948	64.9342
2944	64.9227
2940	64.9593
2936	65.0065
2932	65.0286
2928	64.9916
2924	64.9644
2920	64.9872
2916	65.0186
2912	65.0839
2908	65.1593
2904	65.1105
2900	65.0152
2896	65.0114
2892	65.0026
2888	64.9611
2884	64.9754
2880	65.0341
2876	65.0801
2872	65.1248
2868	65.1325
2864	65.0718
2860	65.0009
2856	64.9653
2852	64.9881
2848	65.0553
2844	65.1197
2840	65.1397
2836	65.1352
2832	65.1341
2828	65.1088
2824	65.0492
2820	65.0053
2816	64.9973
2812	64.9956
2808	65.0039
2804	65.0542
2800	65.0933
2796	65.0682
2792	65.0123
2788	64.9722
2784	64.9938
2780	65.0373
2776	65.0477
2772	65.0558
2768	65.0791
2764	65.0998
2760	65.0829
2756	64.9959
2752	64.9404
2748	65.012
2744	65.0608
2740	65.0505
2736	65.0949
2732	65.1279
2728	65.1058
2724	65.0942
2720	65.0755
2716	65.0632
2712	65.073
2708	65.0817
2704	65.1507
2700	65.1946
2696	65.1223
2692	65.0193
2688	64.9828
2684	65.0347
2680	65.0796
2676	65.087
2672	65.0604
2668	65.0047
2664	65.0196
2660	65.0917
2656	65.1107
2652	65.0655
2648	65.027
2644	65.0493
2640	65.0971
2636	65.1157
2632	65.1066
2628	65.1148
2624	65.1774
2620	65.1821
2616	65.0673
2612	65.0072
2608	65.0631
2604	65.1068
2600	65.1401
2596	65.2361
2592	65.3007
2588	65.2534
2584	65.1754
2580	65.1387
2576	65.1551
2572	65.1758
2568	65.1753
2564	65.1811
2560	65.1541
2556	65.0913
2552	65.0474
2548	65.0404
2544	65.0444
2540	65.0314
2536	65.0483
2532	65.1175
2528	65.1439
2524	65.0963
2520	65.0613
2516	65.0728
2512	65.1161
2508	65.1048
2504	65.0369
2500	65.0416
2496	65.0974
2492	65.1475
2488	65.1681
2484	65.1345
2480	65.0928
2476	65.0631
2472	65.0438
2468	65.0676
2464	65.0919
2460	65.0046
2456	64.8863
2452	64.915
2448	65.0168
2444	65.0597
2440	65.062
2436	65.0168
2432	64.9588
2428	64.9745
2424	65.0227
2420	65.0183
2416	64.9638
2412	64.9553
2408	65.0076
2404	65.045
2400	65.0767
2396	65.0891
2392	65.0801
2388	65.067
2384	65.0454
2380	65.067
2376	65.0932
2372	65.0444
2368	64.9641
2364	64.967
2360	65.0397
2356	65.0771
2352	65.0739
2348	65.0128
2344	64.9085
2340	64.8622
2336	64.9144
2332	64.9807
2328	64.9594
2324	64.8968
2320	64.8809
2316	64.9374
2312	65.0196
2308	65.017
2304	64.9344
2300	64.8996
2296	64.9239
2292	64.9235
2288	64.8931
2284	64.8985
2280	64.9643
2276	64.9896
2272	64.9456
2268	64.922
2264	64.939
2260	64.9759
2256	64.9964
2252	64.9814
2248	64.9387
2244	64.9132
2240	64.921
2236	64.9247
2232	64.9791
2228	65.0649
2224	65.0608
2220	65.0269
2216	64.9919
2212	64.8895
2208	64.8687
2204	64.9526
2200	64.9625
2196	64.9295
2192	64.9081
2188	64.8756
2184	64.8795
2180	64.8873
2176	64.892
2172	64.9332
2168	64.9668
2164	64.9532
2160	64.866
2156	64.7871
2152	64.7188
2148	64.6692
2144	64.7488
2140	64.8279
2136	64.8281
2132	64.8329
2128	64.8705
2124	64.9321
2120	64.9761
2116	64.9731
2112	64.942
2108	64.9245
2104	64.9487
2100	64.9349
2096	64.8515
2092	64.8036
2088	64.8094
2084	64.8428
2080	64.8865
2076	64.9111
2072	64.8916
2068	64.8359
2064	64.8142
2060	64.8395
2056	64.8384
2052	64.8426
2048	64.9162
2044	64.9546
2040	64.9184
2036	64.8957
2032	64.9189
2028	64.9653
2024	64.9805
2020	64.9363
2016	64.8901
2012	64.8908
2008	64.8966
2004	64.8855
2000	64.8577
1996	64.7991
1992	64.7704
1988	64.8023
1984	64.8263
1980	64.8605
1976	64.9058
1972	64.8937
1968	64.884
1964	64.9096
1960	64.8785
1956	64.8261
1952	64.8571
1948	64.9097
1944	64.8928
1940	64.8239
1936	64.7839
1932	64.795
1928	64.8129
1924	64.835
1920	64.8853
1916	64.934
1912	64.9341
1908	64.8974
1904	64.8374
1900	64.78
1896	64.8068
1892	64.8864
1888	64.8915
1884	64.845
1880	64.8189
1876	64.8144
1872	64.8536
1868	64.9086
1864	64.9153
1860	64.8802
1856	64.8304
1852	64.8116
1848	64.8372
1844	64.8531
1840	64.8797
1836	64.8926
1832	64.8416
1828	64.8086
1824	64.8321
1820	64.8801
1816	64.921
1812	64.9094
1808	64.8716
1804	64.863
1800	64.88
1796	64.9121
1792	64.926
1788	64.9168
1784	64.8746
1780	64.7915
1776	64.7812
1772	64.8505
1768	64.874
1764	64.8594
1760	64.8297
1756	64.8008
1752	64.7921
1748	64.7161
1744	64.6212
1740	64.6235
1736	64.6826
1732	64.6984
1728	64.6543
1724	64.6652
1720	64.7639
1716	64.8028
1712	64.7516
1708	64.7281
1704	64.7853
1700	64.8957
1696	64.8795
1692	64.7414
1688	64.7324
1684	64.805
1680	64.8282
1676	64.8389
1672	64.7917
1668	64.7133
1664	64.7084
1660	64.7798
1656	64.9092
1652	64.9469
1648	64.8316
1644	64.7398
1640	64.7784
1636	64.8436
1632	64.8096
1628	64.7748
1624	64.7781
1620	64.7292
1616	64.6666
1612	64.6694
1608	64.7361
1604	64.7913
1600	64.7573
1596	64.697
1592	64.6849
1588	64.6615
1584	64.615
1580	64.6006
1576	64.6122
1572	64.5997
1568	64.5937
1564	64.6544
1560	64.7369
1556	64.7653
1552	64.7511
1548	64.7541
1544	64.7927
1540	64.7638
1536	64.6254
1532	64.5482
1528	64.5889
1524	64.6545
1520	64.6852
1516	64.6693
1512	64.6122
1508	64.5242
1504	64.4724
1500	64.5203
1496	64.6358
1492	64.6584
1488	64.6054
1484	64.6055
1480	64.616
1476	64.5881
1472	64.5242
1468	64.4863
1464	64.5349
1460	64.65
1456	64.6533
1452	64.511
1448	64.4808
1444	64.578
1440	64.6611
1436	64.6733
1432	64.6165
1428	64.5924
1424	64.6176
1420	64.5854
1416	64.4442
1412	64.3487
1408	64.416
1404	64.5153
1400	64.5068
1396	64.4346
1392	64.3915
1388	64.3571
1384	64.3368
1380	64.3761
1376	64.4619
1372	64.5308
1368	64.5355
1364	64.4936
1360	64.453
1356	64.4809
1352	64.5504
1348	64.5811
1344	64.5479
1340	64.4832
1336	64.4415
1332	64.407
1328	64.3959
1324	64.4494
1320	64.4839
1316	64.4812
1312	64.4909
1308	64.4594
1304	64.4053
1300	64.3887
1296	64.3958
1292	64.4065
1288	64.412
1284	64.3826
1280	64.3311
1276	64.3244
1272	64.3135
1268	64.2628
1264	64.2915
1260	64.4075
1256	64.4684
1252	64.4711
1248	64.438
1244	64.3656
1240	64.3423
1236	64.3604
1232	64.3587
1228	64.3847
1224	64.4331
1220	64.4192
1216	64.4169
1212	64.463
1208	64.4582
1204	64.4624
1200	64.5311
1196	64.5613
1192	64.5125
1188	64.439
1184	64.337
1180	64.2259
1176	64.2416
1172	64.3764
1168	64.3956
1164	64.3076
1160	64.2832
1156	64.2706
1152	64.2273
1148	64.1757
1144	64.15
1140	64.208
1136	64.3161
1132	64.398
1128	64.3945
1124	64.3552
1120	64.3628
1116	64.3477
1112	64.3036
1108	64.2986
1104	64.2996
1100	64.2817
1096	64.3542
1092	64.4737
1088	64.4263
1084	64.3652
1080	64.3446
1076	64.2455
1072	64.1714
1068	64.1306
1064	64.1355
1060	64.1616
1056	64.2025
1052	64.2875
1048	64.2348
1044	64.0507
1040	64.0481
1036	64.2195
1032	64.3211
1028	64.3538
1024	64.3304
1020	64.2433
1016	64.2394
1012	64.3231
1008	64.3275
1004	64.2411
1000	64.1519
996	 64.1456
992	 64.2213
988	 64.2566
984	 64.3136
980	 64.3962
976	 64.3378
972	 64.2718
968	 64.327
964	 64.3305
960	 64.251
956	 64.2335
952	 64.3089
948	 64.3868
944	 64.3944
940	 64.3534
936	 64.2982
932	 64.235
928	 64.2756
924	 64.4291
920	 64.5388
916	 64.5629
912	 64.4653
908	 64.295
904	 64.2397
900	 64.3236
896	 64.4067
892	 64.3651
888	 64.2965
884	 64.2736
880	 64.2643
876	 64.316
872	 64.3385
868	 64.3877
864	 64.4656
860	 64.417
856	 64.3754
852	 64.4531
848	 64.5362
844	 64.4656
840	 64.3119
836	 64.23
832	 64.1641
828	 64.1613
824	 64.2587
820	 64.2835
816	 64.1996
812	 64.1292
808	 64.1364
804	 64.1488
800	 64.1573
796	 64.1838
792	 64.2206
788	 64.2653
784	 64.2615
780	 64.2509
776	 64.2205
772	 64.1545
768	 64.1685
764	 64.2789
760	 64.3674
756	 64.3147
752	 64.2151
748	 64.1824
744	 64.1067
740	 63.9984
736	 63.9771
732	 64.0392
728	 64.1883
724	 64.2524
720	 64.1562
716	 64.1304
712	 64.1993
708	 64.2092
704	 64.1044
700	 63.8892
696	 63.7254
692	 63.8094
688	 63.9639
684	 64.0382
680	 64.0412
676	 63.9885
672	 64.0345
668	 64.1213
664	 64.11
660	 64.0495
656	 64.0168
652	 64.0604
648	 64.1695
644	 64.204
640	 64.124
636	 64.1079
632	 64.1442
628	 64.0667
624	 63.9357
620	 63.8896
616	 63.9291
612	 63.8638
608	 63.7306
604	 63.7755
600	 63.8361
596	 63.8411
592	 63.8975
588	 63.9337
584	 64.0117
580	 64.075
576	 64.0273
572	 63.7842
568	 63.4835
564	 63.6835
560	 64.2503
556	 64.4172
552	 64.0665
548	 63.8888
544	 63.9635
540	 63.9226
536	 63.8513
532	 64.0921
528	 64.5874
524	 64.8644
520	 64.7103
516	 64.4774
512	 64.2454
508	 63.952
504	 64.1191
500	 64.6095
496	 64.6151
492	 64.2764
488	 63.8004
484	 63.6323
480	 64.2398
476	 64.9595
472	 65.2835
468	 65.1637
464	 64.9945
460	 65.8641
456	 66.6658
452	 64.9712
448	 62.6777
444	 62.8998
440	 64.3026
436	 65.1589
432	 68.226
428	 72.7344
424	 72.7847
420	 68.3395
416	 60.6927
412	 54.7857
408	 56.7147
404	 62.6261
400	 67.889
396	 70.7644
392	 67.3278
388	 55.0133
384	 46.6739
380	 37.0366
376	 41.873
372	 30.9163
370	 55.4017