File: Bakgrunnsmateriale/MATLAB/FTIR/ftir_data/subAa/Mapping_121/BZ1503107-1_t03_cm-1.asc
PE IR       SPECTRUM    SPECTRUM    ASCII       PEDS        1.60
  -1
BZ6B22~1.ASC
17/04/07
13:29:44.00
17/04/07
13:29:44.00
tln
$BZ1503107-1_t0003$<tbV0>[7.8,-13.0,8.0,0.0,27,1,0]
370
64

2002,4.07
MIRTGS : RIGHTBACK : INTERNAL 2
MIR : ON : INTERNAL 2
OPTKBR

0.200000
8
8.000000
FILLER
RATIO
SPECTRUM
UNLOCKED 256

DOUBLE
64
COMBINED
1
0
0

1.000000
RATIO

1
0
TRUE
51149
0
LEFT NOT FITTED RIGHT NOT FITTED 0
NONE
NONE
15600
12
4.427000
51148
TRUE
1 0 8 72 0 0 0 0

15798

#HDR
-1
-1
#GR
CM-1
%T
2.38419e-05
0.0
5000
-1.000000
4631
8
101.089
29.3866
#DATA
5000	64.8863
4996	64.7666
4992	64.4713
4988	64.393
4984	64.5957
4980	64.7605
4976	64.808
4972	64.733
4968	64.5313
4964	64.5553
4960	64.6955
4956	64.451
4952	64.1214
4948	64.4701
4944	65.1112
4940	65.2905
4936	65.064
4932	64.6551
4928	64.3231
4924	64.3991
4920	64.5233
4916	64.2183
4912	63.9922
4908	64.0668
4904	63.8613
4900	63.6876
4896	64.2256
4892	64.411
4888	64.1517
4884	64.8389
4880	66.2741
4876	67.8955
4872	68.1323
4868	66.1488
4864	64.5823
4860	64.8823
4856	65.4213
4852	65.161
4848	65.3393
4844	66.0923
4840	65.8336
4836	64.9989
4832	64.6046
4828	64.7883
4824	65.0887
4820	64.9088
4816	64.9124
4812	64.9487
4808	64.7104
4804	65.128
4800	65.6099
4796	65.4172
4792	65.3724
4788	65.5485
4784	65.3124
4780	64.7857
4776	64.6719
4772	64.7512
4768	64.3277
4764	64.531
4760	65.5664
4756	65.4883
4752	64.6388
4748	64.3729
4744	64.5156
4740	64.6189
4736	64.6505
4732	64.7938
4728	64.8379
4724	64.4897
4720	64.0894
4716	64.2926
4712	64.6789
4708	64.5904
4704	64.5311
4700	64.6307
4696	64.4742
4692	64.4264
4688	64.7364
4684	64.9823
4680	65.1303
4676	65.2743
4672	65.1762
4668	65.001
4664	64.9979
4660	65.0593
4656	64.9778
4652	64.8258
4648	64.9761
4644	65.0854
4640	64.7983
4636	64.5968
4632	64.6945
4628	64.7049
4624	64.5441
4620	64.5917
4616	64.8441
4612	64.8547
4608	64.6466
4604	64.603
4600	64.7145
4596	64.8666
4592	65.0532
4588	65.1979
4584	65.2429
4580	65.0512
4576	64.7882
4572	64.6823
4568	64.6293
4564	64.4909
4560	64.2907
4556	64.2253
4552	64.3011
4548	64.4115
4544	64.5911
4540	64.75
4536	64.8636
4532	64.843
4528	64.7745
4524	64.9273
4520	65.1556
4516	65.2229
4512	65.2225
4508	65.3365
4504	65.7107
4500	65.9489
4496	66.0903
4492	66.924
4488	66.9543
4484	67.3574
4480	68.6018
4476	66.9613
4472	64.5459
4468	63.5066
4464	60.9103
4460	59.1265
4456	61.2737
4452	64.3812
4448	65.9364
4444	65.9012
4440	65.7064
4436	65.6576
4432	65.3492
4428	65.0507
4424	64.738
4420	64.5054
4416	64.655
4412	64.9786
4408	65.2102
4404	65.3433
4400	65.3035
4396	65.3557
4392	65.5035
4388	65.3545
4384	65.0828
4380	65.0099
4376	64.9851
4372	65.0246
4368	65.0578
4364	64.7533
4360	64.5528
4356	64.8221
4352	65.0197
4348	65.0964
4344	65.315
4340	65.4241
4336	65.2383
4332	64.9379
4328	64.7797
4324	64.6948
4320	64.585
4316	64.7492
4312	65.0952
4308	65.2204
4304	65.1741
4300	65.1086
4296	65.011
4292	64.951
4288	64.9971
4284	65.0411
4280	65.0967
4276	65.1428
4272	65.1043
4268	65.0963
4264	65.1467
4260	65.137
4256	65.1402
4252	65.1678
4248	65.0472
4244	64.9798
4240	65.1051
4236	65.1999
4232	65.0753
4228	64.871
4224	64.8406
4220	64.8991
4216	64.9389
4212	64.9405
4208	64.8878
4204	64.9298
4200	64.9471
4196	64.7673
4192	64.6703
4188	64.7646
4184	64.8725
4180	65.0092
4176	65.2227
4172	65.3097
4168	65.2252
4164	65.168
4160	65.2009
4156	65.2449
4152	65.1387
4148	64.9159
4144	64.9076
4140	65.0687
4136	65.0679
4132	64.989
4128	65.0261
4124	65.1141
4120	65.1302
4116	65.1106
4112	65.2067
4108	65.3375
4104	65.3375
4100	65.2169
4096	65.1217
4092	65.2223
4088	65.3741
4084	65.4456
4080	65.4984
4076	65.4248
4072	65.224
4068	65.1171
4064	65.1685
4060	65.3522
4056	65.6259
4052	65.7506
4048	65.5016
4044	65.0805
4040	64.9732
4036	65.1668
4032	65.3408
4028	65.393
4024	65.2789
4020	65.1054
4016	64.9836
4012	64.8713
4008	64.8392
4004	64.9604
4000	65.1102
3996	65.1587
3992	65.0426
3988	64.873
3984	64.8182
3980	64.8466
3976	65.007
3972	65.2191
3968	65.183
3964	64.9779
3960	64.7726
3956	64.6769
3952	64.8512
3948	65.0959
3944	65.2575
3940	65.3361
3936	65.2148
3932	64.971
3928	64.8119
3924	64.8438
3920	65.0252
3916	65.1512
3912	65.0887
3908	65.0132
3904	65.0656
3900	65.1537
3896	65.2294
3892	65.2365
3888	65.1824
3884	65.1366
3880	65.0326
3876	64.9337
3872	64.9443
3868	64.9673
3864	64.9272
3860	64.999
3856	65.277
3852	65.4125
3848	65.2689
3844	65.1643
3840	65.1696
3836	65.151
3832	65.16
3828	65.2861
3824	65.3444
3820	65.254
3816	65.1668
3812	65.0721
3808	65.024
3804	65.1046
3800	65.0634
3796	64.8728
3792	64.8536
3788	65.0277
3784	65.1182
3780	65.0448
3776	65.0219
3772	65.0889
3768	65.1507
3764	65.1683
3760	65.1464
3756	65.1867
3752	65.2807
3748	65.313
3744	65.2622
3740	65.2081
3736	65.187
3732	65.2123
3728	65.2537
3724	65.2321
3720	65.1792
3716	65.1966
3712	65.2212
3708	65.1574
3704	65.1269
3700	65.1443
3696	65.1372
3692	65.2129
3688	65.3726
3684	65.408
3680	65.3774
3676	65.4444
3672	65.4403
3668	65.2565
3664	65.0885
3660	65.0597
3656	65.0676
3652	65.0806
3648	65.1206
3644	65.1606
3640	65.1424
3636	65.0815
3632	65.1263
3628	65.2713
3624	65.3383
3620	65.241
3616	65.1424
3612	65.15
3608	65.1241
3604	65.1036
3600	65.1521
3596	65.1737
3592	65.1868
3588	65.1779
3584	65.1789
3580	65.2007
3576	65.161
3572	65.0808
3568	64.9892
3564	64.9343
3560	64.9684
3556	65.0762
3552	65.1563
3548	65.184
3544	65.1617
3540	65.0637
3536	65.0106
3532	65.0265
3528	65.04
3524	65.0124
3520	64.9044
3516	64.8346
3512	64.9507
3508	65.1503
3504	65.2477
3500	65.1604
3496	64.96
3492	64.839
3488	64.916
3484	65.0652
3480	65.1282
3476	65.1119
3472	65.0182
3468	64.9375
3464	64.9544
3460	65.0098
3456	65.0901
3452	65.1422
3448	65.0476
3444	64.9133
3440	64.9124
3436	65.0084
3432	65.1189
3428	65.1817
3424	65.1541
3420	65.0489
3416	64.9638
3412	64.9527
3408	65.0082
3404	65.0875
3400	65.0482
3396	64.926
3392	64.8863
3388	64.9525
3384	65.0589
3380	65.1084
3376	64.9992
3372	64.9196
3368	65.0337
3364	65.0868
3360	64.9977
3356	64.9101
3352	64.8865
3348	64.9487
3344	65.0581
3340	65.1495
3336	65.1779
3332	65.1225
3328	65.0427
3324	65.0611
3320	65.1624
3316	65.2111
3312	65.1941
3308	65.1542
3304	65.0956
3300	65.0448
3296	65.024
3292	65.0387
3288	65.0591
3284	65.0742
3280	65.1217
3276	65.1249
3272	65.0505
3268	65.0022
3264	64.9858
3260	64.9625
3256	65.0004
3252	65.0846
3248	65.1061
3244	65.0369
3240	64.9247
3236	64.8989
3232	64.9211
3228	64.928
3224	64.9503
3220	64.9766
3216	65.0433
3212	65.1087
3208	65.1662
3204	65.2093
3200	65.1936
3196	65.1721
3192	65.1328
3188	65.0716
3184	65.0871
3180	65.101
3176	65.0214
3172	65.0106
3168	65.0979
3164	65.1752
3160	65.1488
3156	65.0019
3152	64.9577
3148	65.0764
3144	65.086
3140	64.9011
3136	64.8244
3132	64.9295
3128	64.9937
3124	65.0157
3120	64.9365
3116	64.7893
3112	64.8608
3108	65.069
3104	65.1448
3100	65.1354
3096	65.151
3092	65.1081
3088	64.9757
3084	64.9255
3080	65.0177
3076	65.123
3072	65.1654
3068	65.1779
3064	65.1907
3060	65.1162
3056	64.9951
3052	64.9822
3048	65.0166
3044	65.0412
3040	65.0869
3036	65.0767
3032	65.0249
3028	65.0035
3024	65.0397
3020	65.1558
3016	65.212
3012	65.1885
3008	65.2131
3004	65.2496
3000	65.2199
2996	65.1592
2992	65.1103
2988	65.0434
2984	65.0319
2980	65.0547
2976	65.0145
2972	64.9962
2968	64.9651
2964	64.8817
2960	64.8305
2956	64.8358
2952	64.9121
2948	64.9693
2944	64.9809
2940	65.017
2936	65.0146
2932	64.9794
2928	64.9967
2924	65.0103
2920	64.9599
2916	64.8873
2912	64.8525
2908	64.9139
2904	65.0008
2900	65.025
2896	65.0164
2892	65.0046
2888	64.9733
2884	64.933
2880	64.9348
2876	64.9971
2872	65.0818
2868	65.1242
2864	65.0953
2860	65.0757
2856	65.0918
2852	65.0618
2848	65.0123
2844	65.0029
2840	65.0198
2836	65.0321
2832	65.0366
2828	64.9883
2824	64.9172
2820	64.9565
2816	65.0341
2812	65.0403
2808	65.0425
2804	65.0981
2800	65.1308
2796	65.0841
2792	65.0047
2788	64.9822
2784	65.0472
2780	65.0966
2776	65.0297
2772	64.9244
2768	64.9155
2764	64.9719
2760	65.0269
2756	65.0405
2752	65.0138
2748	65.0272
2744	65.0684
2740	65.1023
2736	65.1212
2732	65.0884
2728	65.0369
2724	65.0124
2720	64.9851
2716	64.9737
2712	64.9783
2708	64.9717
2704	65.0442
2700	65.1404
2696	65.1098
2692	65.0308
2688	65.007
2684	64.9886
2680	64.9631
2676	64.972
2672	64.9912
2668	65.0257
2664	65.0634
2660	65.0766
2656	65.0752
2652	65.0088
2648	64.9214
2644	64.9327
2640	65.0228
2636	65.0672
2632	65.0278
2628	64.9773
2624	64.9582
2620	64.949
2616	64.9449
2612	64.9766
2608	64.986
2604	64.9764
2600	65.0335
2596	65.0887
2592	65.0746
2588	65.0574
2584	65.0744
2580	65.0885
2576	65.1179
2572	65.1555
2568	65.144
2564	65.1233
2560	65.1106
2556	65.1126
2552	65.1248
2548	65.0904
2544	65.0627
2540	65.0753
2536	65.0916
2532	65.0959
2528	65.0648
2524	65.0186
2520	65.0387
2516	65.1119
2512	65.1352
2508	65.0919
2504	65.0379
2500	64.9728
2496	64.9009
2492	64.9225
2488	64.995
2484	64.9843
2480	64.9436
2476	64.9263
2472	64.8987
2468	64.8764
2464	64.8834
2460	64.8899
2456	64.8819
2452	64.8837
2448	64.936
2444	65.0133
2440	65.0067
2436	64.9416
2432	64.9367
2428	64.94
2424	64.9042
2420	64.9314
2416	65.0172
2412	65.035
2408	64.9668
2404	64.937
2400	64.9566
2396	64.9566
2392	64.9796
2388	65.0317
2384	65.0285
2380	64.9746
2376	64.9315
2372	64.9135
2368	64.9003
2364	64.8947
2360	64.9266
2356	64.956
2352	64.9794
2348	64.9736
2344	64.8851
2340	64.8309
2336	64.8813
2332	64.9522
2328	64.9721
2324	64.9079
2320	64.842
2316	64.865
2312	64.9232
2308	64.9072
2304	64.8298
2300	64.8409
2296	64.9331
2292	64.9397
2288	64.8365
2284	64.7799
2280	64.8422
2276	64.8961
2272	64.8651
2268	64.852
2264	64.9248
2260	64.9907
2256	64.9647
2252	64.9214
2248	64.9401
2244	64.9605
2240	64.9193
2236	64.8361
2232	64.7782
2228	64.7873
2224	64.8132
2220	64.8685
2216	64.9534
2212	64.9641
2208	64.9401
2204	64.9444
2200	64.9245
2196	64.8725
2192	64.8378
2188	64.8154
2184	64.8015
2180	64.815
2176	64.8753
2172	64.9715
2168	65.0326
2164	65.0073
2160	64.8816
2156	64.7741
2152	64.7659
2148	64.7641
2144	64.7342
2140	64.728
2136	64.7629
2132	64.8162
2128	64.8838
2124	64.9353
2120	64.9252
2116	64.8865
2112	64.8445
2108	64.7929
2104	64.7777
2100	64.8137
2096	64.8283
2092	64.8074
2088	64.7955
2084	64.7701
2080	64.7413
2076	64.7251
2072	64.7689
2068	64.8624
2064	64.9151
2060	64.9216
2056	64.8651
2052	64.8195
2048	64.8833
2044	64.9139
2040	64.8411
2036	64.7978
2032	64.8176
2028	64.8651
2024	64.8816
2020	64.828
2016	64.8053
2012	64.8542
2008	64.8937
2004	64.9057
2000	64.8921
1996	64.857
1992	64.8287
1988	64.8233
1984	64.8359
1980	64.8226
1976	64.8068
1972	64.8546
1968	64.9162
1964	64.9244
1960	64.8912
1956	64.843
1952	64.8348
1948	64.8742
1944	64.9013
1940	64.8971
1936	64.8303
1932	64.7262
1928	64.6806
1924	64.7363
1920	64.8482
1916	64.9212
1912	64.8968
1908	64.8111
1904	64.748
1900	64.7316
1896	64.7609
1892	64.8255
1888	64.8257
1884	64.7773
1880	64.829
1876	64.9068
1872	64.8926
1868	64.845
1864	64.7875
1860	64.7522
1856	64.7862
1852	64.8158
1848	64.8131
1844	64.7874
1840	64.7707
1836	64.8077
1832	64.811
1828	64.7605
1824	64.7463
1820	64.7753
1816	64.8237
1812	64.8468
1808	64.8191
1804	64.8269
1800	64.8541
1796	64.8133
1792	64.7738
1788	64.7943
1784	64.7726
1780	64.6981
1776	64.6781
1772	64.6932
1768	64.6955
1764	64.7003
1760	64.6714
1756	64.6761
1752	64.7614
1748	64.7337
1744	64.6034
1740	64.5251
1736	64.4865
1732	64.4438
1728	64.3963
1724	64.4523
1720	64.6178
1716	64.6811
1712	64.6134
1708	64.6045
1704	64.7154
1700	64.8714
1696	64.8608
1692	64.6696
1688	64.6246
1684	64.684
1680	64.6532
1676	64.6496
1672	64.7014
1668	64.7446
1664	64.7519
1660	64.7292
1656	64.7295
1652	64.716
1648	64.6617
1644	64.6358
1640	64.6842
1636	64.7548
1632	64.7621
1628	64.7027
1624	64.625
1620	64.5547
1616	64.5281
1612	64.5923
1608	64.6728
1604	64.6552
1600	64.576
1596	64.5405
1592	64.5518
1588	64.5987
1584	64.6821
1580	64.7171
1576	64.6862
1572	64.627
1568	64.5599
1564	64.556
1560	64.6219
1556	64.6736
1552	64.6612
1548	64.6026
1544	64.5977
1540	64.6039
1536	64.5645
1532	64.5452
1528	64.5087
1524	64.5024
1520	64.5694
1516	64.609
1512	64.6005
1508	64.5858
1504	64.5742
1500	64.5572
1496	64.5725
1492	64.6132
1488	64.6093
1484	64.5968
1480	64.6313
1476	64.6563
1472	64.6215
1468	64.5992
1464	64.5869
1460	64.5674
1456	64.5747
1452	64.5783
1448	64.5862
1444	64.6104
1440	64.6285
1436	64.6339
1432	64.5945
1428	64.5019
1424	64.5221
1420	64.6457
1416	64.6119
1412	64.4915
1408	64.4748
1404	64.4952
1400	64.4801
1396	64.4301
1392	64.3664
1388	64.3659
1384	64.416
1380	64.4279
1376	64.4052
1372	64.3993
1368	64.4356
1364	64.5114
1360	64.5403
1356	64.5079
1352	64.4962
1348	64.4897
1344	64.4854
1340	64.4547
1336	64.3843
1332	64.3411
1328	64.3391
1324	64.3656
1320	64.3919
1316	64.3895
1312	64.3563
1308	64.322
1304	64.3317
1300	64.3626
1296	64.4003
1292	64.4516
1288	64.4246
1284	64.3046
1280	64.2441
1276	64.2692
1272	64.2951
1268	64.3197
1264	64.3722
1260	64.4096
1256	64.3887
1252	64.3653
1248	64.325
1244	64.2758
1240	64.2861
1236	64.2777
1232	64.2534
1228	64.3128
1224	64.373
1220	64.3421
1216	64.3136
1212	64.3198
1208	64.343
1204	64.4124
1200	64.459
1196	64.4416
1192	64.4049
1188	64.3671
1184	64.3014
1180	64.2225
1176	64.2324
1172	64.2714
1168	64.25
1164	64.2159
1160	64.1641
1156	64.1584
1152	64.2333
1148	64.2498
1144	64.2336
1140	64.329
1136	64.4339
1132	64.4515
1128	64.4247
1124	64.3911
1120	64.348
1116	64.2774
1112	64.2136
1108	64.1353
1104	64.1249
1100	64.2434
1096	64.3433
1092	64.3953
1088	64.3975
1084	64.3611
1080	64.3215
1076	64.2933
1072	64.2482
1068	64.1488
1064	64.0894
1060	64.0811
1056	64.1035
1052	64.1493
1048	64.1086
1044	64.0198
1040	64.0861
1036	64.2426
1032	64.3177
1028	64.3337
1024	64.309
1020	64.2327
1016	64.1794
1012	64.2314
1008	64.3034
1004	64.2797
1000	64.2231
996	 64.2257
992	 64.2735
988	 64.3064
984	 64.2482
980	 64.136
976	 64.1263
972	 64.2132
968	 64.2776
964	 64.2898
960	 64.322
956	 64.3618
952	 64.3172
948	 64.2693
944	 64.314
940	 64.3626
936	 64.3511
932	 64.3257
928	 64.3347
924	 64.3062
920	 64.2115
916	 64.2076
912	 64.2802
908	 64.2923
904	 64.2493
900	 64.233
896	 64.2634
892	 64.2462
888	 64.1594
884	 64.0733
880	 64.0779
876	 64.1495
872	 64.1585
868	 64.1086
864	 64.0504
860	 64.0695
856	 64.1802
852	 64.2544
848	 64.2541
844	 64.2368
840	 64.2421
836	 64.267
832	 64.3199
828	 64.3817
824	 64.201
820	 63.9019
816	 63.9297
812	 64.0819
808	 64.0823
804	 64.0447
800	 64.0682
796	 64.1377
792	 64.2359
788	 64.2939
784	 64.2589
780	 64.2107
776	 64.182
772	 64.064
768	 63.9129
764	 63.9383
760	 64.0787
756	 64.1175
752	 64.0879
748	 64.0891
744	 64.1061
740	 64.1045
736	 64.0357
732	 63.9878
728	 64.0462
724	 64.0529
720	 63.9712
716	 63.9126
712	 63.9003
708	 63.9256
704	 63.9548
700	 63.8522
696	 63.6653
692	 63.7022
688	 63.8891
684	 63.9544
680	 63.9028
676	 63.8416
672	 63.9657
668	 64.138
664	 64.0692
660	 63.8651
656	 63.6832
652	 63.698
648	 63.9222
644	 64.0712
640	 64.0161
636	 63.8694
632	 63.852
628	 63.9911
624	 63.9979
620	 63.9358
616	 64.0302
612	 64.019
608	 63.8607
604	 63.8007
600	 63.7529
596	 63.6962
592	 63.6734
588	 63.5252
584	 63.3331
580	 63.4522
576	 63.8164
572	 63.8425
568	 63.6929
564	 64.0486
560	 64.4929
556	 64.4942
552	 64.2326
548	 63.9884
544	 63.9493
540	 64.2409
536	 64.635
532	 64.7516
528	 64.7787
524	 64.7988
520	 64.4191
516	 63.9444
512	 63.7634
508	 63.64
504	 63.7431
500	 64.2547
496	 64.6594
492	 64.5648
488	 64.1286
484	 64.3651
480	 65.1281
476	 65.3764
472	 64.8756
468	 63.871
464	 63.2781
460	 63.5373
456	 64.0765
452	 63.9404
448	 63.248
444	 63.1172
440	 62.9097
436	 62.2031
432	 62.1457
428	 62.3588
424	 63.072
420	 64.7366
416	 63.9334
412	 62.428
408	 63.675
404	 65.2263
400	 67.1185
396	 64.6476
392	 55.7682
388	 48.6217
384	 44.5207
380	 30.8334
376	 43.233
372	 67.0776
370	 101.089