File: Bakgrunnsmateriale/MATLAB/FTIR/ftir_data/subAa/Mapping_121/BZ1503107-1_t89_cm-1.asc
PE IR       SPECTRUM    SPECTRUM    ASCII       PEDS        1.60
  -1
BZ6136~1.ASC
17/04/07
20:36:45.00
17/04/07
20:36:45.00
tln
$BZ1503107-1_t0089$<tbV0>[13.0,7.8,8.0,0.0,27,1,0]
370
64

2002,4.07
MIRTGS : RIGHTBACK : INTERNAL 2
MIR : ON : INTERNAL 2
OPTKBR

0.200000
8
8.000000
FILLER
RATIO
SPECTRUM
UNLOCKED 256

DOUBLE
64
COMBINED
1
0
0

1.000000
RATIO

1
0
TRUE
51149
0
LEFT NOT FITTED RIGHT NOT FITTED 0
NONE
NONE
15600
12
4.427000
51148
TRUE
1 0 8 72 0 0 0 0

15798

#HDR
-1
-1
#GR
CM-1
%T
2.38419e-05
0.0
5000
-1.000000
4631
8
82.3045
42.2561
#DATA
5000	64.1441
4996	64.2121
4992	64.1784
4988	64.0584
4984	64.029
4980	64.0233
4976	63.933
4972	63.8348
4968	63.9503
4964	64.0084
4960	64.1081
4956	65.2617
4952	66.6242
4948	66.2429
4944	64.8206
4940	64.6871
4936	65.2844
4932	64.8571
4928	64.1762
4924	63.8373
4920	63.7962
4916	64.285
4912	64.8844
4908	65.5592
4904	65.5834
4900	64.9508
4896	64.7522
4892	64.7759
4888	64.7393
4884	64.7481
4880	64.8554
4876	64.9591
4872	64.7718
4868	64.3898
4864	64.0605
4860	63.8057
4856	63.6942
4852	63.6996
4848	63.6992
4844	63.7902
4840	63.9031
4836	63.9362
4832	63.9611
4828	64.1024
4824	64.2639
4820	64.3244
4816	64.2884
4812	64.0326
4808	63.862
4804	63.8606
4800	63.7482
4796	63.7302
4792	63.9756
4788	64.0694
4784	64.0163
4780	64.1418
4776	64.1705
4772	64.0333
4768	63.9086
4764	63.7482
4760	63.5366
4756	63.5065
4752	63.8512
4748	64.1314
4744	64.0064
4740	63.8573
4736	63.763
4732	63.6917
4728	63.7778
4724	63.9532
4720	64.0957
4716	64.1008
4712	64.132
4708	64.2121
4704	64.1322
4700	64.0737
4696	64.0988
4692	64.0105
4688	64.0447
4684	64.3043
4680	64.4427
4676	64.3784
4672	64.3881
4668	64.5173
4664	64.5381
4660	64.4103
4656	64.2957
4652	64.2541
4648	64.2215
4644	64.1463
4640	64.2071
4636	64.5274
4632	64.825
4628	64.8487
4624	64.6625
4620	64.5916
4616	64.6746
4612	64.6889
4608	64.6311
4604	64.5703
4600	64.552
4596	64.553
4592	64.4735
4588	64.3495
4584	64.4084
4580	64.5649
4576	64.6394
4572	64.8031
4568	64.9739
4564	64.9814
4560	64.8551
4556	64.6817
4552	64.6704
4548	64.7419
4544	64.9236
4540	65.1598
4536	65.1893
4532	65.2687
4528	65.3936
4524	65.3848
4520	65.314
4516	65.077
4512	64.8998
4508	65.0401
4504	65.3368
4500	65.3631
4496	65.1256
4492	64.7753
4488	64.4112
4484	64.5821
4480	65.2892
4476	65.9222
4472	65.9415
4468	65.3762
4464	64.8547
4460	65.2179
4456	63.8855
4452	55.5344
4448	44.7997
4444	43.013
4440	51.2293
4436	59.2625
4432	64.23
4428	66.3051
4424	66.3702
4420	65.7711
4416	65.2341
4412	65.2714
4408	65.348
4404	65.1558
4400	64.9592
4396	64.6502
4392	64.6515
4388	64.9752
4384	65.02
4380	64.7601
4376	64.6874
4372	64.9648
4368	65.1617
4364	65.1415
4360	65.1515
4356	65.1484
4352	64.9531
4348	64.7844
4344	64.7897
4340	64.7646
4336	64.6945
4332	64.7661
4328	65.0493
4324	65.2282
4320	65.0902
4316	64.892
4312	64.8368
4308	64.7135
4304	64.4799
4300	64.4456
4296	64.5406
4292	64.6998
4288	64.8984
4284	64.8686
4280	64.6958
4276	64.6661
4272	64.6549
4268	64.3982
4264	64.1769
4260	64.2675
4256	64.458
4252	64.5006
4248	64.4307
4244	64.4623
4240	64.49
4236	64.3117
4232	64.1372
4228	64.1095
4224	63.9838
4220	63.8278
4216	64.0381
4212	64.4233
4208	64.601
4204	64.5873
4200	64.4844
4196	64.4242
4192	64.4269
4188	64.466
4184	64.4538
4180	64.3482
4176	64.2986
4172	64.432
4168	64.5864
4164	64.5163
4160	64.3278
4156	64.27
4152	64.366
4148	64.335
4144	64.1364
4140	64.0921
4136	64.2411
4132	64.3509
4128	64.3166
4124	64.1939
4120	64.13
4116	64.215
4112	64.3848
4108	64.4709
4104	64.3924
4100	64.3811
4096	64.5034
4092	64.4895
4088	64.305
4084	64.2015
4080	64.2553
4076	64.3637
4072	64.4553
4068	64.425
4064	64.3136
4060	64.2543
4056	64.2494
4052	64.309
4048	64.4467
4044	64.5837
4040	64.6255
4036	64.5979
4032	64.6458
4028	64.7158
4024	64.6243
4020	64.475
4016	64.4409
4012	64.4177
4008	64.3178
4004	64.3286
4000	64.4362
3996	64.4314
3992	64.4395
3988	64.5604
3984	64.6169
3980	64.5467
3976	64.4744
3972	64.4956
3968	64.5284
3964	64.533
3960	64.5465
3956	64.6161
3952	64.6248
3948	64.3876
3944	64.3569
3940	64.6705
3936	64.7437
3932	64.6839
3928	64.8169
3924	64.7856
3920	64.5048
3916	64.3324
3912	64.3949
3908	64.586
3904	64.638
3900	64.5604
3896	64.5277
3892	64.4662
3888	64.3557
3884	64.3638
3880	64.4576
3876	64.4597
3872	64.4504
3868	64.4577
3864	64.4828
3860	64.5538
3856	64.6492
3852	64.676
3848	64.5463
3844	64.461
3840	64.5257
3836	64.6772
3832	64.7742
3828	64.6291
3824	64.4108
3820	64.3335
3816	64.3622
3812	64.4204
3808	64.4371
3804	64.4198
3800	64.424
3796	64.5019
3792	64.5735
3788	64.5582
3784	64.6055
3780	64.7068
3776	64.651
3772	64.4963
3768	64.3955
3764	64.371
3760	64.454
3756	64.5505
3752	64.5619
3748	64.5627
3744	64.5777
3740	64.5384
3736	64.4969
3732	64.5066
3728	64.5324
3724	64.5939
3720	64.6426
3716	64.6321
3712	64.6228
3708	64.6198
3704	64.6392
3700	64.6448
3696	64.5968
3692	64.5935
3688	64.6109
3684	64.5842
3680	64.5468
3676	64.4758
3672	64.4369
3668	64.5075
3664	64.5373
3660	64.5138
3656	64.5285
3652	64.5241
3648	64.5624
3644	64.6411
3640	64.6404
3636	64.572
3632	64.4934
3628	64.3769
3624	64.2589
3620	64.2877
3616	64.4645
3612	64.618
3608	64.5855
3604	64.4645
3600	64.4773
3596	64.6556
3592	64.7579
3588	64.6268
3584	64.5476
3580	64.5852
3576	64.5717
3572	64.6144
3568	64.6898
3564	64.629
3560	64.4982
3556	64.4685
3552	64.4938
3548	64.4932
3544	64.5065
3540	64.5269
3536	64.5517
3532	64.6389
3528	64.7354
3524	64.7127
3520	64.6231
3516	64.5805
3512	64.5715
3508	64.6092
3504	64.6729
3500	64.6891
3496	64.7167
3492	64.8188
3488	64.879
3484	64.7741
3480	64.6664
3476	64.7828
3472	64.9552
3468	64.8784
3464	64.6595
3460	64.5387
3456	64.4972
3452	64.4765
3448	64.5208
3444	64.6319
3440	64.6942
3436	64.6605
3432	64.5715
3428	64.4876
3424	64.4825
3420	64.545
3416	64.6647
3412	64.7572
3408	64.6848
3404	64.5293
3400	64.4492
3396	64.462
3392	64.4979
3388	64.5191
3384	64.5781
3380	64.6573
3376	64.6214
3372	64.4918
3368	64.4256
3364	64.4447
3360	64.4591
3356	64.4838
3352	64.5736
3348	64.6123
3344	64.5863
3340	64.5442
3336	64.4206
3332	64.3486
3328	64.3613
3324	64.3497
3320	64.3904
3316	64.4366
3312	64.4326
3308	64.4721
3304	64.5129
3300	64.4859
3296	64.4726
3292	64.5166
3288	64.5561
3284	64.5638
3280	64.5177
3276	64.49
3272	64.4867
3268	64.4421
3264	64.4483
3260	64.4736
3256	64.4902
3252	64.5674
3248	64.6205
3244	64.5574
3240	64.4469
3236	64.4195
3232	64.4421
3228	64.4594
3224	64.4977
3220	64.4972
3216	64.4281
3212	64.3885
3208	64.4382
3204	64.4967
3200	64.503
3196	64.5391
3192	64.5667
3188	64.4817
3184	64.3955
3180	64.4075
3176	64.5068
3172	64.6148
3168	64.6333
3164	64.6152
3160	64.6262
3156	64.5608
3152	64.4483
3148	64.4609
3144	64.4955
3140	64.4614
3136	64.4709
3132	64.4783
3128	64.418
3124	64.4244
3120	64.5354
3116	64.5877
3112	64.5424
3108	64.5127
3104	64.5093
3100	64.508
3096	64.5219
3092	64.5399
3088	64.5336
3084	64.4739
3080	64.4307
3076	64.4832
3072	64.515
3068	64.4827
3064	64.5053
3060	64.5773
3056	64.6621
3052	64.7002
3048	64.6504
3044	64.5657
3040	64.4956
3036	64.5029
3032	64.5889
3028	64.6857
3024	64.6896
3020	64.6211
3016	64.6221
3012	64.6211
3008	64.5618
3004	64.5794
3000	64.6177
2996	64.5205
2992	64.398
2988	64.3745
2984	64.4126
2980	64.4829
2976	64.4812
2972	64.3852
2968	64.3227
2964	64.3045
2960	64.3058
2956	64.3257
2952	64.349
2948	64.4024
2944	64.47
2940	64.4917
2936	64.4851
2932	64.4717
2928	64.4287
2924	64.4045
2920	64.4573
2916	64.5008
2912	64.4495
2908	64.362
2904	64.3281
2900	64.3229
2896	64.3528
2892	64.4193
2888	64.4194
2884	64.3697
2880	64.3521
2876	64.3577
2872	64.368
2868	64.3575
2864	64.3471
2860	64.3846
2856	64.42
2852	64.3959
2848	64.368
2844	64.3617
2840	64.3667
2836	64.3957
2832	64.4023
2828	64.3896
2824	64.417
2820	64.4449
2816	64.4304
2812	64.4122
2808	64.4005
2804	64.4089
2800	64.4219
2796	64.4262
2792	64.4397
2788	64.4407
2784	64.4614
2780	64.4893
2776	64.4932
2772	64.4842
2768	64.47
2764	64.4906
2760	64.5003
2756	64.4207
2752	64.3486
2748	64.4021
2744	64.4806
2740	64.4944
2736	64.4861
2732	64.4694
2728	64.4795
2724	64.4929
2720	64.4472
2716	64.4439
2712	64.5152
2708	64.5552
2704	64.5363
2700	64.4998
2696	64.4838
2692	64.4637
2688	64.4347
2684	64.4528
2680	64.51
2676	64.5278
2672	64.5163
2668	64.5169
2664	64.4778
2660	64.4377
2656	64.4237
2652	64.4255
2648	64.471
2644	64.4753
2640	64.4525
2636	64.4663
2632	64.5036
2628	64.5135
2624	64.4692
2620	64.4586
2616	64.5018
2612	64.5032
2608	64.4155
2604	64.3612
2600	64.3975
2596	64.4351
2592	64.4279
2588	64.4279
2584	64.4653
2580	64.4392
2576	64.4024
2572	64.4617
2568	64.5254
2564	64.4895
2560	64.3986
2556	64.3484
2552	64.322
2548	64.2982
2544	64.3347
2540	64.3813
2536	64.371
2532	64.371
2528	64.3481
2524	64.3259
2520	64.4196
2516	64.5293
2512	64.5393
2508	64.4172
2504	64.251
2500	64.2263
2496	64.3186
2492	64.3967
2488	64.4095
2484	64.3673
2480	64.3733
2476	64.4207
2472	64.3893
2468	64.3298
2464	64.3789
2460	64.4899
2456	64.5221
2452	64.479
2448	64.4394
2444	64.4249
2440	64.396
2436	64.3451
2432	64.3283
2428	64.3239
2424	64.3094
2420	64.3098
2416	64.2689
2412	64.2253
2408	64.2805
2404	64.3591
2400	64.3785
2396	64.3526
2392	64.2895
2388	64.2541
2384	64.3443
2380	64.4381
2376	64.385
2372	64.3076
2368	64.3196
2364	64.3285
2360	64.3093
2356	64.3121
2352	64.2657
2348	64.2382
2344	64.2946
2340	64.3113
2336	64.2742
2332	64.2288
2328	64.2449
2324	64.3567
2320	64.3897
2316	64.2814
2312	64.223
2308	64.2335
2304	64.2123
2300	64.2411
2296	64.3159
2292	64.3263
2288	64.2908
2284	64.236
2280	64.2182
2276	64.2968
2272	64.3686
2268	64.3442
2264	64.3035
2260	64.3094
2256	64.31
2252	64.3021
2248	64.3262
2244	64.3241
2240	64.2841
2236	64.2774
2232	64.2822
2228	64.2523
2224	64.2064
2220	64.2109
2216	64.2793
2212	64.2994
2208	64.2013
2204	64.0952
2200	64.0994
2196	64.1703
2192	64.2153
2188	64.2217
2184	64.2266
2180	64.2496
2176	64.2497
2172	64.2123
2168	64.2316
2164	64.3034
2160	64.3045
2156	64.2503
2152	64.2144
2148	64.2087
2144	64.2837
2140	64.3742
2136	64.3724
2132	64.3319
2128	64.2676
2124	64.2032
2120	64.225
2116	64.2785
2112	64.2846
2108	64.2861
2104	64.2808
2100	64.2292
2096	64.1719
2092	64.1593
2088	64.1983
2084	64.2226
2080	64.1569
2076	64.0429
2072	63.9996
2068	64.0532
2064	64.141
2060	64.221
2056	64.2743
2052	64.2617
2048	64.1805
2044	64.1242
2040	64.1244
2036	64.1379
2032	64.1633
2028	64.1793
2024	64.176
2020	64.1808
2016	64.1479
2012	64.0691
2008	64.0433
2004	64.0714
2000	64.0837
1996	64.0991
1992	64.136
1988	64.1276
1984	64.0843
1980	64.0689
1976	64.0656
1972	64.0784
1968	64.1177
1964	64.1526
1960	64.149
1956	64.1455
1952	64.1424
1948	64.0907
1944	64.0394
1940	64.0563
1936	64.0834
1932	64.0361
1928	63.9521
1924	63.9456
1920	64.0375
1916	64.1083
1912	64.1445
1908	64.1486
1904	64.1173
1900	64.1328
1896	64.1291
1892	64.0627
1888	64.0373
1884	64.0331
1880	64.0356
1876	64.1029
1872	64.1618
1868	64.133
1864	64.1044
1860	64.1476
1856	64.1772
1852	64.1367
1848	64.0587
1844	63.9976
1840	64.0364
1836	64.0951
1832	64.0737
1828	64.0342
1824	63.9993
1820	63.9727
1816	63.9621
1812	63.974
1808	64.0383
1804	64.0897
1800	64.0465
1796	63.9619
1792	63.9119
1788	63.9037
1784	63.922
1780	63.9335
1776	63.9201
1772	63.9335
1768	64.0054
1764	64.047
1760	63.9943
1756	63.8926
1752	63.8125
1748	63.787
1744	63.7579
1740	63.7225
1736	63.7181
1732	63.744
1728	63.7855
1724	63.7924
1720	63.7831
1716	63.7954
1712	63.828
1708	63.8516
1704	63.8631
1700	63.8842
1696	63.8752
1692	63.8371
1688	63.8487
1684	63.8758
1680	63.8214
1676	63.7604
1672	63.7775
1668	63.8212
1664	63.8599
1660	63.8714
1656	63.8668
1652	63.872
1648	63.8528
1644	63.8403
1640	63.8626
1636	63.8715
1632	63.8405
1628	63.77
1624	63.7105
1620	63.7348
1616	63.7669
1612	63.7627
1608	63.8098
1604	63.8665
1600	63.899
1596	63.9379
1592	63.9451
1588	63.8968
1584	63.8232
1580	63.783
1576	63.7933
1572	63.8372
1568	63.8964
1564	63.9177
1560	63.9135
1556	63.8826
1552	63.8057
1548	63.7661
1544	63.7715
1540	63.7609
1536	63.7651
1532	63.7577
1528	63.6923
1524	63.6124
1520	63.5761
1516	63.6133
1512	63.6924
1508	63.7654
1504	63.785
1500	63.8127
1496	63.867
1492	63.8195
1488	63.7117
1484	63.6335
1480	63.6481
1476	63.7345
1472	63.7793
1468	63.7673
1464	63.7629
1460	63.778
1456	63.749
1452	63.6954
1448	63.6525
1444	63.5583
1440	63.4387
1436	63.4234
1432	63.5222
1428	63.6084
1424	63.6135
1420	63.616
1416	63.6713
1412	63.7058
1408	63.6924
1404	63.6033
1400	63.4274
1396	63.3295
1392	63.3644
1388	63.4585
1384	63.5723
1380	63.6244
1376	63.6045
1372	63.5844
1368	63.5837
1364	63.5817
1360	63.5842
1356	63.5731
1352	63.5668
1348	63.604
1344	63.5777
1340	63.4609
1336	63.415
1332	63.4888
1328	63.5036
1324	63.4852
1320	63.5836
1316	63.6332
1312	63.5797
1308	63.5366
1304	63.5076
1300	63.5089
1296	63.5019
1292	63.4559
1288	63.4002
1284	63.3696
1280	63.3658
1276	63.3719
1272	63.4392
1268	63.492
1264	63.4532
1260	63.4136
1256	63.4087
1252	63.4168
1248	63.418
1244	63.4191
1240	63.4451
1236	63.4374
1232	63.409
1228	63.4452
1224	63.51
1220	63.5437
1216	63.532
1212	63.4778
1208	63.4207
1204	63.4135
1200	63.4539
1196	63.4726
1192	63.4458
1188	63.3839
1184	63.3198
1180	63.3022
1176	63.3159
1172	63.3395
1168	63.3275
1164	63.2957
1160	63.2962
1156	63.3018
1152	63.2924
1148	63.2875
1144	63.3303
1140	63.4199
1136	63.447
1132	63.3586
1128	63.274
1124	63.2643
1120	63.2443
1116	63.1534
1112	63.0619
1108	63.0207
1104	63.0831
1100	63.2275
1096	63.2924
1092	63.2241
1088	63.1273
1084	63.1105
1080	63.1321
1076	63.1595
1072	63.1863
1068	63.175
1064	63.1499
1060	63.1178
1056	63.1121
1052	63.1763
1048	63.2358
1044	63.2232
1040	63.2273
1036	63.2494
1032	63.1953
1028	63.1217
1024	63.0958
1020	63.106
1016	63.1206
1012	63.0798
1008	63.0385
1004	63.0619
1000	63.1125
996	 63.1796
992	 63.2556
988	 63.3103
984	 63.3325
980	 63.3124
976	 63.253
972	 63.1721
968	 63.1071
964	 63.1135
960	 63.142
956	 63.0785
952	 62.978
948	 63.014
944	 63.1879
940	 63.3124
936	 63.2523
932	 63.2048
928	 63.313
924	 63.2802
920	 63.0964
916	 63.0304
912	 63.0796
908	 63.1249
904	 63.1322
900	 63.136
896	 63.0826
892	 63.0301
888	 63.0744
884	 63.0871
880	 63.0556
876	 63.129
872	 63.1987
868	 63.198
864	 63.2158
860	 63.1623
856	 63.0605
852	 63.0481
848	 63.1369
844	 63.204
840	 63.1451
836	 63.0858
832	 63.116
828	 63.116
824	 63.1184
820	 63.2174
816	 63.2654
812	 63.2237
808	 63.1185
804	 62.8959
800	 62.8044
796	 62.986
792	 63.1858
788	 63.2992
784	 63.2782
780	 63.1571
776	 63.0818
772	 63.0483
768	 63.013
764	 62.9971
760	 62.9702
756	 62.8351
752	 62.7583
748	 62.9389
744	 63.0963
740	 63.0573
736	 63.0265
732	 63.0689
728	 63.0344
724	 62.85
720	 62.7313
716	 62.7193
712	 62.7499
708	 62.8267
704	 62.8329
700	 62.7406
696	 62.6559
692	 62.7551
688	 62.9132
684	 62.8167
680	 62.6045
676	 62.5448
672	 62.5997
668	 62.684
664	 62.7923
660	 62.8189
656	 62.6391
652	 62.4286
648	 62.4633
644	 62.6087
640	 62.6784
636	 62.7918
632	 62.9595
628	 62.9439
624	 62.6049
620	 62.208
616	 61.893
612	 61.7061
608	 61.8973
604	 62.218
600	 62.4312
596	 62.5716
592	 62.6497
588	 62.7856
584	 62.7753
580	 62.5059
576	 62.2724
572	 62.3369
568	 62.6354
564	 62.7504
560	 62.7928
556	 63.0391
552	 63.1465
548	 63.0629
544	 62.7059
540	 61.9225
536	 61.5571
532	 61.8504
528	 61.9856
524	 62.1704
520	 62.366
516	 61.8898
512	 61.8079
508	 62.0058
504	 60.6841
500	 58.9188
496	 59.1965
492	 61.2629
488	 62.9634
484	 62.861
480	 62.0291
476	 61.8481
472	 61.4749
468	 61.1878
464	 62.01
460	 62.9355
456	 63.3682
452	 63.0432
448	 61.4552
444	 60.4925
440	 61.7351
436	 62.8979
432	 62.9295
428	 63.1088
424	 62.2044
420	 59.9983
416	 57.2657
412	 55.6721
408	 57.6297
404	 61.6237
400	 63.5482
396	 62.829
392	 62.6195
388	 62.1458
384	 63.0919
380	 68.474
376	 73.08
372	 78.1793
370	 82.3045