File: Bakgrunnsmateriale/MATLAB/FTIR/ftir_data/subAa/Mapping_121/BZ1503107-1_t90_cm-1.asc
PE IR       SPECTRUM    SPECTRUM    ASCII       PEDS        1.60
  -1
BZ68A5~1.ASC
17/04/07
20:41:23.00
17/04/07
20:41:23.00
tln
$BZ1503107-1_t0090$<tbV0>[10.4,7.8,8.0,0.0,27,1,0]
370
64

2002,4.07
MIRTGS : RIGHTBACK : INTERNAL 2
MIR : ON : INTERNAL 2
OPTKBR

0.200000
8
8.000000
FILLER
RATIO
SPECTRUM
UNLOCKED 256

DOUBLE
64
COMBINED
1
0
0

1.000000
RATIO

1
0
TRUE
51149
0
LEFT NOT FITTED RIGHT NOT FITTED 0
NONE
NONE
15600
12
4.427000
51148
TRUE
1 0 8 72 0 0 0 0

15798

#HDR
-1
-1
#GR
CM-1
%T
2.38419e-05
0.0
5000
-1.000000
4631
8
76.3023
52.6259
#DATA
5000	59.0833
4996	59.377
4992	59.7565
4988	59.9159
4984	59.6649
4980	59.1192
4976	58.7724
4972	59.0209
4968	59.2379
4964	59.1519
4960	59.3076
4956	59.653
4952	60.3852
4948	61.2416
4944	60.6928
4940	60.1457
4936	60.7582
4932	60.537
4928	59.5127
4924	58.9056
4920	58.5257
4916	58.4218
4912	59.0874
4908	59.9935
4904	59.4529
4900	58.3147
4896	58.6416
4892	59.3239
4888	59.1859
4884	58.9361
4880	58.798
4876	58.5656
4872	58.4244
4868	58.5965
4864	58.8056
4860	58.8397
4856	58.96
4852	59.0047
4848	58.8929
4844	58.9377
4840	59.0597
4836	59.0183
4832	58.8631
4828	59.0112
4824	59.3958
4820	59.5303
4816	59.3695
4812	59.025
4808	58.8528
4804	58.9645
4800	59.0916
4796	59.1094
4792	59.0995
4788	59.1669
4784	59.2531
4780	59.3419
4776	59.3843
4772	59.2938
4768	59.2081
4764	59.4147
4760	59.6866
4756	59.5577
4752	59.162
4748	58.8798
4744	58.8099
4740	58.9394
4736	59.1243
4732	59.2192
4728	59.3008
4724	59.4231
4720	59.4057
4716	59.1818
4712	59.0951
4708	59.1644
4704	59.1045
4700	59.0719
4696	59.1862
4692	59.2967
4688	59.4258
4684	59.5652
4680	59.5955
4676	59.5189
4672	59.5554
4668	59.633
4664	59.5673
4660	59.5297
4656	59.5401
4652	59.5517
4648	59.5521
4644	59.5177
4640	59.4903
4636	59.4788
4632	59.4212
4628	59.2717
4624	59.247
4620	59.2975
4616	59.1585
4612	59.0344
4608	59.1103
4604	59.2165
4600	59.3013
4596	59.4468
4592	59.4909
4588	59.413
4584	59.3259
4580	59.2586
4576	59.2821
4572	59.2939
4568	59.2555
4564	59.1503
4560	58.9652
4556	58.905
4552	59.0373
4548	59.0907
4544	58.9847
4540	59.0143
4536	59.0858
4532	59.099
4528	59.135
4524	59.0577
4520	58.9861
4516	59.02
4512	58.8694
4508	58.7507
4504	58.9173
4500	59.149
4496	59.0508
4492	58.6652
4488	58.3619
4484	58.2589
4480	58.4388
4476	58.8461
4472	59.2596
4468	59.5268
4464	59.1996
4460	57.9715
4456	56.8747
4452	60.5527
4448	71.8281
4444	75.0136
4440	60.638
4436	55.538
4432	58.0648
4428	58.6636
4424	58.7008
4420	58.6902
4416	58.8313
4412	59.307
4408	59.3993
4404	59.4071
4400	59.5017
4396	59.5685
4392	59.4375
4388	59.0737
4384	58.8448
4380	58.7489
4376	58.6262
4372	58.666
4368	58.8881
4364	59.0486
4360	59.108
4356	59.181
4352	59.1348
4348	59.0748
4344	59.1796
4340	59.1655
4336	59.0852
4332	59.194
4328	59.3704
4324	59.4824
4320	59.4754
4316	59.3326
4312	59.2438
4308	59.2741
4304	59.263
4300	59.3086
4296	59.3762
4292	59.3585
4288	59.4189
4284	59.4477
4280	59.3513
4276	59.2948
4272	59.1189
4268	58.7817
4264	58.737
4260	59.003
4256	59.2227
4252	59.3372
4248	59.3467
4244	59.263
4240	59.2311
4236	59.3242
4232	59.3998
4228	59.4167
4224	59.4016
4220	59.3274
4216	59.3505
4212	59.4884
4208	59.6179
4204	59.6541
4200	59.5975
4196	59.5781
4192	59.6359
4188	59.6897
4184	59.7109
4180	59.7396
4176	59.7005
4172	59.589
4168	59.509
4164	59.5458
4160	59.6884
4156	59.8082
4152	59.902
4148	59.9116
4144	59.6397
4140	59.3291
4136	59.3883
4132	59.5943
4128	59.62
4124	59.6064
4120	59.7584
4116	59.9733
4112	60.0455
4108	59.904
4104	59.725
4100	59.7211
4096	59.7988
4092	59.7688
4088	59.6663
4084	59.6435
4080	59.6525
4076	59.6397
4072	59.6214
4068	59.6135
4064	59.7047
4060	59.7775
4056	59.7047
4052	59.6715
4048	59.7645
4044	59.9015
4040	60.0497
4036	60.112
4032	60.0272
4028	59.8263
4024	59.6022
4020	59.5183
4016	59.5776
4012	59.6656
4008	59.7508
4004	59.8961
4000	60.0255
3996	59.9561
3992	59.8104
3988	59.7806
3984	59.761
3980	59.6418
3976	59.5681
3972	59.6469
3968	59.8018
3964	59.9743
3960	59.9684
3956	59.8008
3952	59.6941
3948	59.487
3944	59.3788
3940	59.5727
3936	59.6422
3932	59.6119
3928	59.7375
3924	59.7518
3920	59.5655
3916	59.4723
3912	59.5415
3908	59.6859
3904	59.7596
3900	59.7592
3896	59.8103
3892	59.7778
3888	59.6527
3884	59.6075
3880	59.6374
3876	59.7293
3872	59.8429
3868	59.8728
3864	59.9056
3860	59.9993
3856	59.9743
3852	59.8219
3848	59.7914
3844	59.9046
3840	60.0113
3836	60.0371
3832	59.9745
3828	59.8978
3824	59.8331
3820	59.8043
3816	59.7653
3812	59.7268
3808	59.7939
3804	59.8847
3800	59.929
3796	59.9547
3792	59.8935
3788	59.7877
3784	59.8049
3780	59.8644
3776	59.9102
3772	59.9984
3768	60.0047
3764	59.9005
3760	59.8529
3756	59.9405
3752	60.0245
3748	60.0071
3744	59.9988
3740	60.0448
3736	60.1212
3732	60.1501
3728	60.0555
3724	59.9988
3720	60.1011
3716	60.1824
3712	60.1226
3708	60.0481
3704	60.0152
3700	60.0221
3696	60.0504
3692	60.0492
3688	60.0761
3684	60.0705
3680	59.94
3676	59.8633
3672	59.9044
3668	59.9448
3664	59.9865
3660	59.9773
3656	59.9192
3652	59.9325
3648	60.0661
3644	60.2023
3640	60.237
3636	60.2109
3632	60.0884
3628	59.9466
3624	59.9587
3620	60.0384
3616	60.1374
3612	60.2635
3608	60.2116
3604	60.027
3600	59.9911
3596	60.1475
3592	60.325
3588	60.3144
3584	60.1249
3580	59.9437
3576	59.9274
3572	60.0638
3568	60.1884
3564	60.1985
3560	60.1097
3556	60.0368
3552	59.9433
3548	59.8373
3544	59.9063
3540	60.0716
3536	60.1552
3532	60.2221
3528	60.3108
3524	60.2705
3520	60.1445
3516	60.055
3512	60.0028
3508	60.0117
3504	60.0715
3500	60.1692
3496	60.166
3492	60.0837
3488	60.1094
3484	60.0961
3480	60.0403
3476	60.1566
3472	60.3188
3468	60.3159
3464	60.1836
3460	60.0803
3456	60.0659
3452	60.0222
3448	59.9335
3444	59.9355
3440	60.0154
3436	60.0902
3432	60.0659
3428	59.9694
3424	60.0204
3420	60.1526
3416	60.16
3412	60.1128
3408	60.1002
3404	60.0901
3400	60.0784
3396	60.077
3392	60.0829
3388	60.1414
3384	60.2207
3380	60.2428
3376	60.2215
3372	60.2044
3368	60.2324
3364	60.2951
3360	60.3238
3356	60.3007
3352	60.2813
3348	60.2369
3344	60.2443
3340	60.3486
3336	60.3262
3332	60.2071
3328	60.1965
3324	60.2464
3320	60.2704
3316	60.2494
3312	60.2022
3308	60.1641
3304	60.2005
3300	60.336
3296	60.3862
3292	60.3025
3288	60.2391
3284	60.2016
3280	60.1946
3276	60.2703
3272	60.2656
3268	60.1935
3264	60.2429
3260	60.3219
3256	60.3772
3252	60.4409
3248	60.4187
3244	60.2807
3240	60.1812
3236	60.239
3232	60.3034
3228	60.2538
3224	60.206
3220	60.2021
3216	60.2678
3212	60.3767
3208	60.355
3204	60.2767
3200	60.2762
3196	60.3231
3192	60.3732
3188	60.405
3184	60.4852
3180	60.5257
3176	60.3989
3172	60.2841
3168	60.3071
3164	60.295
3160	60.2435
3156	60.2625
3152	60.2875
3148	60.3631
3144	60.4321
3140	60.3833
3136	60.3226
3132	60.2906
3128	60.288
3124	60.3154
3120	60.3633
3116	60.454
3112	60.5249
3108	60.5131
3104	60.49
3100	60.5059
3096	60.4761
3092	60.4357
3088	60.3966
3084	60.3083
3080	60.2906
3076	60.3301
3072	60.327
3068	60.3302
3064	60.4058
3060	60.5194
3056	60.602
3052	60.6134
3048	60.5708
3044	60.5463
3040	60.508
3036	60.4218
3032	60.3859
3028	60.4247
3024	60.4643
3020	60.4794
3016	60.5073
3012	60.5082
3008	60.4292
3004	60.4004
3000	60.4642
2996	60.4949
2992	60.4482
2988	60.374
2984	60.3363
2980	60.3398
2976	60.3468
2972	60.3525
2968	60.3261
2964	60.2407
2960	60.1814
2956	60.2169
2952	60.2746
2948	60.3015
2944	60.3294
2940	60.3359
2936	60.317
2932	60.3277
2928	60.421
2924	60.5114
2920	60.5229
2916	60.512
2912	60.5389
2908	60.6055
2904	60.6157
2900	60.5607
2896	60.5019
2892	60.452
2888	60.4542
2884	60.5067
2880	60.5613
2876	60.5555
2872	60.5143
2868	60.5047
2864	60.4724
2860	60.4342
2856	60.4401
2852	60.4018
2848	60.3594
2844	60.3887
2840	60.3971
2836	60.4175
2832	60.5476
2828	60.6866
2824	60.6879
2820	60.5953
2816	60.5332
2812	60.536
2808	60.5917
2804	60.6674
2800	60.7047
2796	60.7006
2792	60.6821
2788	60.6383
2784	60.61
2780	60.6437
2776	60.6652
2772	60.6203
2768	60.5988
2764	60.6746
2760	60.7503
2756	60.6822
2752	60.5813
2748	60.6123
2744	60.6937
2740	60.7391
2736	60.7175
2732	60.7054
2728	60.7775
2724	60.8077
2720	60.7466
2716	60.717
2712	60.774
2708	60.8008
2704	60.715
2700	60.6288
2696	60.6019
2692	60.567
2688	60.5278
2684	60.538
2680	60.5872
2676	60.6486
2672	60.7271
2668	60.7684
2664	60.7165
2660	60.6771
2656	60.7054
2652	60.7632
2648	60.867
2644	60.9182
2640	60.8414
2636	60.7471
2632	60.7271
2628	60.7586
2624	60.7667
2620	60.7394
2616	60.7479
2612	60.7649
2608	60.7392
2604	60.7347
2600	60.7532
2596	60.7701
2592	60.7583
2588	60.7587
2584	60.8915
2580	60.9812
2576	60.937
2572	60.9381
2568	60.9214
2564	60.8287
2560	60.7911
2556	60.8201
2552	60.8163
2548	60.7862
2544	60.7912
2540	60.8252
2536	60.8581
2532	60.8486
2528	60.7918
2524	60.7561
2520	60.7896
2516	60.8712
2512	60.9056
2508	60.8471
2504	60.8098
2500	60.8408
2496	60.8981
2492	60.9611
2488	60.9565
2484	60.8689
2480	60.8278
2476	60.8857
2472	60.9756
2468	61.067
2464	61.1226
2460	61.0823
2456	60.9805
2452	60.9034
2448	60.8698
2444	60.8805
2440	60.9479
2436	61.0043
2432	60.9612
2428	60.9217
2424	60.9699
2420	61.0132
2416	61.014
2412	60.9919
2408	60.9668
2404	60.935
2400	60.9041
2396	60.9411
2392	61.0322
2388	61.0892
2384	61.1164
2380	61.1054
2376	61.0058
2372	60.9315
2368	61.001
2364	61.1037
2360	61.1267
2356	61.0989
2352	61.0594
2348	61.045
2344	61.0072
2340	60.9403
2336	60.9935
2332	61.0942
2328	61.1135
2324	61.1639
2320	61.214
2316	61.1628
2312	61.0973
2308	61.0972
2304	61.1242
2300	61.1257
2296	61.1467
2292	61.1715
2288	61.1244
2284	61.0542
2280	61.0504
2276	61.1229
2272	61.1761
2268	61.1572
2264	61.1292
2260	61.1202
2256	61.1257
2252	61.1179
2248	61.0832
2244	61.0738
2240	61.0934
2236	61.0939
2232	61.104
2228	61.1592
2224	61.1651
2220	61.0892
2216	61.0489
2212	61.0978
2208	61.1366
2204	61.0902
2200	61.0454
2196	61.0617
2192	61.0738
2188	61.05
2184	61.0256
2180	61.0322
2176	61.0931
2172	61.1749
2168	61.2042
2164	61.1504
2160	61.0577
2156	61.0661
2152	61.165
2148	61.2242
2144	61.2736
2140	61.2977
2136	61.2528
2132	61.2089
2128	61.2128
2124	61.2504
2120	61.2802
2116	61.2764
2112	61.2728
2108	61.3136
2104	61.304
2100	61.2135
2096	61.1779
2092	61.1846
2088	61.2014
2084	61.2905
2080	61.3493
2076	61.2824
2072	61.1991
2068	61.1539
2064	61.1705
2060	61.2363
2056	61.2601
2052	61.2348
2048	61.1888
2044	61.1674
2040	61.2079
2036	61.2736
2032	61.2956
2028	61.2664
2024	61.2366
2020	61.2054
2016	61.1738
2012	61.1887
2008	61.2281
2004	61.2272
2000	61.1934
1996	61.1734
1992	61.2117
1988	61.2535
1984	61.2264
1980	61.1864
1976	61.2118
1972	61.2808
1968	61.2862
1964	61.2573
1960	61.2839
1956	61.303
1952	61.281
1948	61.2565
1944	61.2604
1940	61.3161
1936	61.3687
1932	61.3548
1928	61.2996
1924	61.246
1920	61.2432
1916	61.2882
1912	61.3077
1908	61.3191
1904	61.3471
1900	61.3925
1896	61.4462
1892	61.4665
1888	61.4857
1884	61.4744
1880	61.4228
1876	61.3909
1872	61.3692
1868	61.3704
1864	61.383
1860	61.4091
1856	61.474
1852	61.499
1848	61.465
1844	61.46
1840	61.4881
1836	61.4898
1832	61.4479
1828	61.4231
1824	61.4519
1820	61.4644
1816	61.4243
1812	61.3676
1808	61.3711
1804	61.4537
1800	61.5085
1796	61.4741
1792	61.4262
1788	61.4145
1784	61.4159
1780	61.384
1776	61.3369
1772	61.3803
1768	61.465
1764	61.4587
1760	61.3824
1756	61.3047
1752	61.2499
1748	61.1954
1744	61.1113
1740	61.024
1736	60.9624
1732	60.9868
1728	61.0783
1724	61.1527
1720	61.2458
1716	61.3434
1712	61.3652
1708	61.3481
1704	61.364
1700	61.3946
1696	61.4068
1692	61.403
1688	61.3754
1684	61.3686
1680	61.3965
1676	61.3927
1672	61.3618
1668	61.3545
1664	61.3838
1660	61.4068
1656	61.4153
1652	61.4272
1648	61.4217
1644	61.4117
1640	61.4367
1636	61.481
1632	61.4584
1628	61.3894
1624	61.3978
1620	61.448
1616	61.4634
1612	61.4854
1608	61.5274
1604	61.531
1600	61.4732
1596	61.4377
1592	61.4797
1588	61.5338
1584	61.5069
1580	61.3951
1576	61.3498
1572	61.4415
1568	61.5198
1564	61.5142
1560	61.4757
1556	61.4484
1552	61.4458
1548	61.4616
1544	61.4757
1540	61.4528
1536	61.442
1532	61.4641
1528	61.4757
1524	61.4817
1520	61.4586
1516	61.4319
1512	61.4601
1508	61.4882
1504	61.4834
1500	61.4755
1496	61.507
1492	61.5773
1488	61.5949
1484	61.5616
1480	61.5624
1476	61.5643
1472	61.5068
1468	61.4598
1464	61.4498
1460	61.4199
1456	61.4087
1452	61.4768
1448	61.549
1444	61.5862
1440	61.628
1436	61.6689
1432	61.6587
1428	61.5925
1424	61.5535
1420	61.5728
1416	61.5869
1412	61.5788
1408	61.6457
1404	61.7423
1400	61.6752
1396	61.5454
1392	61.5636
1388	61.6129
1384	61.5961
1380	61.6201
1376	61.6589
1372	61.6597
1368	61.6589
1364	61.6334
1360	61.5802
1356	61.5558
1352	61.5861
1348	61.6309
1344	61.5988
1340	61.5011
1336	61.4713
1332	61.5632
1328	61.6868
1324	61.765
1320	61.8107
1316	61.8134
1312	61.7514
1308	61.6722
1304	61.6234
1300	61.6446
1296	61.6941
1292	61.6833
1288	61.6169
1284	61.574
1280	61.5661
1276	61.5594
1272	61.5768
1268	61.5943
1264	61.6365
1260	61.7271
1256	61.743
1252	61.6874
1248	61.6712
1244	61.6974
1240	61.7154
1236	61.6961
1232	61.6739
1228	61.6678
1224	61.6606
1220	61.6197
1216	61.5853
1212	61.6538
1208	61.7423
1204	61.7686
1200	61.7962
1196	61.797
1192	61.7743
1188	61.7768
1184	61.7638
1180	61.7406
1176	61.7017
1172	61.6121
1168	61.5164
1164	61.5101
1160	61.6325
1156	61.7552
1152	61.7323
1148	61.6824
1144	61.7329
1140	61.7947
1136	61.7897
1132	61.7263
1128	61.7099
1124	61.7753
1120	61.8202
1116	61.7796
1112	61.7372
1108	61.7794
1104	61.8685
1100	61.9401
1096	61.9549
1092	61.8825
1088	61.746
1084	61.6482
1080	61.6322
1076	61.6667
1072	61.7683
1068	61.9146
1064	61.9567
1060	61.8793
1056	61.8284
1052	61.851
1048	61.867
1044	61.8534
1040	61.8875
1036	61.8894
1032	61.7933
1028	61.7417
1024	61.7726
1020	61.7705
1016	61.703
1012	61.698
1008	61.7891
1004	61.7987
1000	61.7679
996	 61.8519
992	 61.994
988	 62.0869
984	 62.0938
980	 62.0799
976	 62.0592
972	 62.0227
968	 61.9664
964	 61.8655
960	 61.828
956	 61.8695
952	 61.8829
948	 61.8922
944	 61.9341
940	 61.9907
936	 62.0291
932	 62.015
928	 62.043
924	 62.135
920	 62.1732
916	 62.1761
912	 62.1767
908	 62.108
904	 61.981
900	 62.0036
896	 62.1415
892	 62.1791
888	 62.2094
884	 62.1509
880	 61.976
876	 62.0154
872	 62.1484
868	 62.102
864	 62.0542
860	 62.1037
856	 62.1096
852	 62.068
848	 62.1102
844	 62.2392
840	 62.2425
836	 62.0899
832	 61.9721
828	 61.9795
824	 62.1602
820	 62.3081
816	 62.2435
812	 62.1499
808	 62.0955
804	 62.025
800	 62.0044
796	 62.0769
792	 62.1984
788	 62.2972
784	 62.2233
780	 62.0143
776	 61.9162
772	 62.02
768	 62.2024
764	 62.2883
760	 62.1912
756	 62.1246
752	 62.1727
748	 62.1373
744	 62.1201
740	 62.244
736	 62.3906
732	 62.38
728	 62.1638
724	 61.9738
720	 61.9743
716	 62.0602
712	 62.1328
708	 62.1259
704	 62.0449
700	 62.0063
696	 62.0404
692	 62.1349
688	 62.1605
684	 61.9918
680	 61.8755
676	 62.0129
672	 62.1813
668	 62.1211
664	 62.0356
660	 62.1682
656	 62.1819
652	 62.0017
648	 61.9142
644	 61.8765
640	 61.8846
636	 61.9478
632	 62.0253
628	 62.0526
624	 61.8829
620	 61.7516
616	 61.7828
612	 61.7514
608	 61.7422
604	 61.9111
600	 62.1848
596	 62.2735
592	 62.2516
588	 62.2516
584	 62.1708
580	 62.1766
576	 62.0811
572	 61.9507
568	 62.209
564	 62.3369
560	 61.9884
556	 61.9498
552	 62.4335
548	 62.48
544	 61.9884
540	 61.9806
536	 62.5222
532	 62.6059
528	 62.0163
524	 62.1819
520	 63.2328
516	 63.1862
512	 62.0924
508	 61.4802
504	 61.7193
500	 62.1
496	 61.912
492	 62.102
488	 62.5599
484	 62.0989
480	 61.726
476	 61.7114
472	 60.6287
468	 58.8666
464	 58.898
460	 60.7465
456	 61.7149
452	 61.4891
448	 61.2225
444	 61.5132
440	 62.178
436	 62.6915
432	 62.8221
428	 62.343
424	 62.185
420	 62.8251
416	 62.6246
412	 61.6307
408	 63.7047
404	 69.7356
400	 72.7796
396	 70.7999
392	 68.1178
388	 65.764
384	 63.7629
380	 59.2237
376	 57.2249
372	 56.061
370	 52.6259