File: Bakgrunnsmateriale/MATLAB/FTIR/ftir_data/subAa/Mapping_121/BZ1503107-1_t103_cm-1.asc
PE IR       SPECTRUM    SPECTRUM    ASCII       PEDS        1.60
  -1
BZCBFA~1.ASC
17/04/07
21:42:04.00
17/04/07
21:42:04.00
tln
$BZ1503107-1_t0103$<tbV0>[5.2,10.4,8.0,0.0,27,1,0]
370
64

2002,4.07
MIRTGS : RIGHTBACK : INTERNAL 2
MIR : ON : INTERNAL 2
OPTKBR

0.200000
8
8.000000
FILLER
RATIO
SPECTRUM
UNLOCKED 256

DOUBLE
64
COMBINED
1
0
0

1.000000
RATIO

1
0
TRUE
51149
0
LEFT NOT FITTED RIGHT NOT FITTED 0
NONE
NONE
15600
12
4.427000
51148
TRUE
1 0 8 72 0 0 0 0

15798

#HDR
-1
-1
#GR
CM-1
%T
2.38419e-05
0.0
5000
-1.000000
4631
8
78.8896
49.847
#DATA
5000	66.379
4996	65.7551
4992	63.9868
4988	62.8218
4984	62.9633
4980	63.7334
4976	63.2417
4972	61.917
4968	61.9513
4964	62.9043
4960	63.5468
4956	64.5006
4952	66.6404
4948	67.3198
4944	65.1646
4940	64.2453
4936	65.2287
4932	65.1884
4928	64.6375
4924	64.694
4920	64.6068
4916	64.3703
4912	64.5985
4908	65.1313
4904	64.7545
4900	64.0849
4896	64.3403
4892	64.6849
4888	64.635
4884	64.7726
4880	64.9447
4876	64.7549
4872	64.6604
4868	64.8347
4864	65.0451
4860	65.1487
4856	65.0576
4852	64.7843
4848	64.5635
4844	64.6507
4840	64.798
4836	64.7304
4832	64.5875
4828	64.648
4824	64.7596
4820	64.9341
4816	65.1937
4812	65.0756
4808	64.9981
4804	65.2644
4800	65.2471
4796	64.9735
4792	64.8848
4788	64.9465
4784	65.1183
4780	65.2156
4776	65.0118
4772	64.8677
4768	64.97
4764	65.0612
4760	64.8952
4756	64.606
4752	64.5558
4748	64.7272
4744	64.7658
4740	64.6004
4736	64.5544
4732	64.6357
4728	64.6477
4724	64.5864
4720	64.4997
4716	64.5627
4712	64.7803
4708	64.8056
4704	64.6266
4700	64.6177
4696	64.7965
4692	64.9539
4688	64.9799
4684	64.9082
4680	64.8529
4676	64.8261
4672	64.8614
4668	64.8491
4664	64.7214
4660	64.6921
4656	64.8181
4652	64.9767
4648	65.075
4644	65.1206
4640	65.1875
4636	65.3439
4632	65.5615
4628	65.5516
4624	65.354
4620	65.2131
4616	65.1229
4612	65.0172
4608	64.8569
4604	64.817
4600	64.8623
4596	64.901
4592	64.9827
4588	64.9992
4584	64.8605
4580	64.6723
4576	64.721
4572	65.0547
4568	65.328
4564	65.241
4560	64.9208
4556	64.6608
4552	64.7048
4548	64.9676
4544	64.9951
4540	64.796
4536	64.7027
4532	64.7777
4528	64.8796
4524	64.8761
4520	64.7804
4516	64.7903
4512	64.9679
4508	65.0555
4504	64.9827
4500	64.763
4496	64.3984
4492	64.1067
4488	64.0974
4484	64.1401
4480	64.3009
4476	64.4866
4472	64.5499
4468	64.5625
4464	64.6888
4460	65.5168
4456	65.9865
4452	66.7519
4448	71.047
4444	78.5063
4440	73.3016
4436	57.9899
4432	49.847
4428	54.2634
4424	62.4047
4420	65.1852
4416	65.7114
4412	66.1778
4408	65.4614
4404	64.9107
4400	65.1933
4396	65.3236
4392	65.1248
4388	64.9047
4384	64.6094
4380	64.2079
4376	64.4405
4372	64.9284
4368	64.9804
4364	65.0346
4360	65.0526
4356	64.902
4352	64.8862
4348	65.0674
4344	65.1223
4340	65.0284
4336	65.0867
4332	65.2415
4328	65.3057
4324	65.3581
4320	65.2846
4316	64.9839
4312	64.776
4308	64.7767
4304	64.7425
4300	64.6531
4296	64.6789
4292	64.7135
4288	64.6405
4284	64.6617
4280	64.8642
4276	64.9955
4272	64.9111
4268	64.8175
4264	64.8868
4260	65.007
4256	65.0733
4252	65.0385
4248	64.9633
4244	64.9691
4240	64.9638
4236	64.968
4232	65.0424
4228	64.9616
4224	64.701
4220	64.5395
4216	64.6261
4212	64.8217
4208	64.9043
4204	64.8366
4200	64.8375
4196	65.0026
4192	65.0993
4188	65.0249
4184	65.0353
4180	65.2654
4176	65.3871
4172	65.2168
4168	64.9692
4164	64.9017
4160	64.9862
4156	65.0498
4152	65.0729
4148	64.9999
4144	64.9146
4140	64.913
4136	64.9319
4132	64.9254
4128	64.8512
4124	64.7984
4120	64.7624
4116	64.7432
4112	64.8504
4108	64.8953
4104	64.8913
4100	65.0202
4096	65.0996
4092	65.0965
4088	65.1529
4084	65.1724
4080	65.0074
4076	64.8471
4072	64.8436
4068	64.8499
4064	64.844
4060	64.8581
4056	64.8614
4052	64.8208
4048	64.7842
4044	64.8746
4040	65.0458
4036	65.0999
4032	65.0235
4028	64.9521
4024	64.9218
4020	64.9628
4016	65.0603
4012	65.0422
4008	64.8481
4004	64.7629
4000	64.867
3996	64.9112
3992	64.9305
3988	64.9665
3984	64.9216
3980	64.884
3976	64.9693
3972	65.0496
3968	64.9753
3964	64.8872
3960	64.8991
3956	64.9718
3952	64.9008
3948	64.5656
3944	64.3552
3940	64.5314
3936	64.885
3932	65.1598
3928	65.2615
3924	65.1273
3920	64.786
3916	64.5959
3912	64.6596
3908	64.7354
3904	64.7824
3900	64.8413
3896	64.9137
3892	64.9213
3888	64.7738
3884	64.7183
3880	64.8698
3876	64.8204
3872	64.616
3868	64.6754
3864	64.8942
3860	65.0429
3856	65.1437
3852	65.0996
3848	64.8389
3844	64.681
3840	64.8236
3836	65.0047
3832	65.0293
3828	64.8881
3824	64.6877
3820	64.672
3816	64.7893
3812	64.8845
3808	64.9668
3804	65.0168
3800	65.0474
3796	65.0885
3792	65.0764
3788	64.9453
3784	64.8489
3780	64.8986
3776	65.0177
3772	65.1196
3768	65.1111
3764	65.0034
3760	64.898
3756	64.9248
3752	65.0243
3748	65.0746
3744	65.08
3740	64.9801
3736	64.9361
3732	65.015
3728	64.9913
3724	64.9593
3720	65.0312
3716	65.0772
3712	65.0892
3708	65.099
3704	65.1185
3700	65.1397
3696	65.1086
3692	65.0883
3688	65.1184
3684	65.1238
3680	65.0829
3676	65.014
3672	64.9405
3668	64.8901
3664	64.7879
3660	64.668
3656	64.707
3652	64.896
3648	65.0727
3644	65.1407
3640	65.0899
3636	64.9468
3632	64.8485
3628	64.7899
3624	64.7824
3620	64.9207
3616	65.062
3612	65.0645
3608	64.9564
3604	64.8907
3600	64.9133
3596	64.9681
3592	64.9971
3588	64.96
3584	64.9383
3580	64.9117
3576	64.8453
3572	64.8949
3568	65.0719
3564	65.1178
3560	64.9248
3556	64.7899
3552	64.8321
3548	64.825
3544	64.7883
3540	64.8399
3536	64.8983
3532	64.9302
3528	64.9594
3524	64.9529
3520	64.9115
3516	64.8911
3512	64.9219
3508	64.9679
3504	64.9763
3500	64.9476
3496	64.9346
3492	65.0254
3488	65.0929
3484	65.0036
3480	64.9956
3476	65.1037
3472	65.107
3468	65.0522
3464	65.024
3460	64.9584
3456	64.8643
3452	64.8344
3448	64.8429
3444	64.8127
3440	64.7895
3436	64.8798
3432	65.0069
3428	64.9853
3424	64.9024
3420	64.9504
3416	65.0409
3412	65.0702
3408	65.0516
3404	64.9497
3400	64.8576
3396	64.8519
3392	64.8782
3388	64.9507
3384	65.0289
3380	65.0055
3376	64.9218
3372	64.9224
3368	64.9717
3364	64.9372
3360	64.8788
3356	64.8813
3352	64.92
3348	64.9431
3344	64.9568
3340	64.9461
3336	64.9065
3332	64.9101
3328	64.87
3324	64.7977
3320	64.8265
3316	64.8361
3312	64.7734
3308	64.7546
3304	64.8416
3300	64.9365
3296	64.9051
3292	64.816
3288	64.7741
3284	64.8133
3280	64.8705
3276	64.906
3272	64.9148
3268	64.879
3264	64.8757
3260	64.921
3256	64.9778
3252	64.9943
3248	64.9339
3244	64.9038
3240	64.952
3236	64.9639
3232	64.9009
3228	64.8394
3224	64.836
3220	64.8399
3216	64.7675
3212	64.7239
3208	64.7544
3204	64.7332
3200	64.6854
3196	64.6954
3192	64.7537
3188	64.7894
3184	64.767
3180	64.7611
3176	64.8243
3172	64.8799
3168	64.8181
3164	64.6761
3160	64.653
3156	64.7447
3152	64.7653
3148	64.7496
3144	64.7653
3140	64.7871
3136	64.8166
3132	64.8612
3128	64.8984
3124	64.87
3120	64.8244
3116	64.8104
3112	64.7923
3108	64.7467
3104	64.7192
3100	64.7691
3096	64.8512
3092	64.9126
3088	64.8572
3084	64.7412
3080	64.7269
3076	64.7499
3072	64.7598
3068	64.7488
3064	64.7223
3060	64.7713
3056	64.8209
3052	64.8134
3048	64.8432
3044	64.8267
3040	64.7533
3036	64.711
3032	64.6828
3028	64.6977
3024	64.7214
3020	64.7652
3016	64.8415
3012	64.8309
3008	64.7302
3004	64.6687
3000	64.7133
2996	64.7575
2992	64.7153
2988	64.6195
2984	64.5702
2980	64.6369
2976	64.6947
2972	64.6642
2968	64.5984
2964	64.5554
2960	64.56
2956	64.5309
2952	64.5121
2948	64.6119
2944	64.6665
2940	64.5731
2936	64.4796
2932	64.4944
2928	64.5996
2924	64.6641
2920	64.6856
2916	64.7358
2912	64.7352
2908	64.6546
2904	64.5663
2900	64.5264
2896	64.5545
2892	64.5691
2888	64.5736
2884	64.6178
2880	64.635
2876	64.621
2872	64.6115
2868	64.6382
2864	64.7009
2860	64.6824
2856	64.5926
2852	64.5563
2848	64.6038
2844	64.6421
2840	64.6242
2836	64.6479
2832	64.7123
2828	64.73
2824	64.7115
2820	64.6952
2816	64.6988
2812	64.7111
2808	64.6444
2804	64.5602
2800	64.5771
2796	64.6359
2792	64.6657
2788	64.6466
2784	64.6407
2780	64.7009
2776	64.7367
2772	64.7006
2768	64.708
2764	64.7455
2760	64.7074
2756	64.6719
2752	64.6847
2748	64.6685
2744	64.6297
2740	64.6378
2736	64.6663
2732	64.6846
2728	64.6922
2724	64.6786
2720	64.66
2716	64.6689
2712	64.7321
2708	64.7599
2704	64.6962
2700	64.6267
2696	64.5917
2692	64.5412
2688	64.5035
2684	64.5478
2680	64.6398
2676	64.7016
2672	64.6773
2668	64.6375
2664	64.6445
2660	64.6476
2656	64.6044
2652	64.5943
2648	64.67
2644	64.7133
2640	64.6788
2636	64.6147
2632	64.5679
2628	64.5416
2624	64.4885
2620	64.4716
2616	64.5571
2612	64.5924
2608	64.5239
2604	64.4726
2600	64.4592
2596	64.4953
2592	64.5283
2588	64.5207
2584	64.5681
2580	64.5941
2576	64.5584
2572	64.5801
2568	64.6039
2564	64.5846
2560	64.5895
2556	64.6021
2552	64.6053
2548	64.6035
2544	64.5576
2540	64.511
2536	64.4951
2532	64.4785
2528	64.4856
2524	64.5069
2520	64.5139
2516	64.4997
2512	64.4536
2508	64.4236
2504	64.456
2500	64.5153
2496	64.5453
2492	64.5504
2488	64.5873
2484	64.5927
2480	64.5321
2476	64.5025
2472	64.498
2468	64.4983
2464	64.5348
2460	64.5743
2456	64.5612
2452	64.5251
2448	64.521
2444	64.5069
2440	64.4734
2436	64.4647
2432	64.4593
2428	64.4303
2424	64.3915
2420	64.3907
2416	64.4369
2412	64.4692
2408	64.4446
2404	64.412
2400	64.4128
2396	64.4377
2392	64.4467
2388	64.4146
2384	64.4206
2380	64.4768
2376	64.4899
2372	64.4678
2368	64.4868
2364	64.508
2360	64.5081
2356	64.504
2352	64.4291
2348	64.3601
2344	64.4108
2340	64.4798
2336	64.4534
2332	64.3898
2328	64.4218
2324	64.5089
2320	64.4671
2316	64.3329
2312	64.2798
2308	64.3091
2304	64.3546
2300	64.398
2296	64.4242
2292	64.43
2288	64.3865
2284	64.2879
2280	64.2603
2276	64.3493
2272	64.4002
2268	64.3476
2264	64.3347
2260	64.4091
2256	64.4395
2252	64.3799
2248	64.3082
2244	64.2548
2240	64.2391
2236	64.2761
2232	64.2942
2228	64.2861
2224	64.3035
2220	64.3268
2216	64.3242
2212	64.3146
2208	64.2902
2204	64.2613
2200	64.277
2196	64.2957
2192	64.2806
2188	64.2673
2184	64.2755
2180	64.2695
2176	64.243
2172	64.2579
2168	64.3111
2164	64.3029
2160	64.2373
2156	64.2231
2152	64.2285
2148	64.2092
2144	64.2573
2140	64.3344
2136	64.3217
2132	64.2762
2128	64.2479
2124	64.2109
2120	64.1815
2116	64.1557
2112	64.1726
2108	64.2518
2104	64.293
2100	64.2695
2096	64.2303
2092	64.2114
2088	64.2161
2084	64.1973
2080	64.1195
2076	64.0334
2072	64.0373
2068	64.1083
2064	64.1613
2060	64.1839
2056	64.2149
2052	64.2507
2048	64.2258
2044	64.172
2040	64.1627
2036	64.1623
2032	64.1254
2028	64.089
2024	64.0708
2020	64.0304
2016	63.9878
2012	64.0123
2008	64.0912
2004	64.1254
2000	64.1087
1996	64.1236
1992	64.1282
1988	64.1039
1984	64.1061
1980	64.1226
1976	64.146
1972	64.1456
1968	64.1106
1964	64.052
1960	63.9971
1956	63.9952
1952	63.9928
1948	63.9819
1944	64.0119
1940	64.0439
1936	64.0275
1932	64.0022
1928	64.0053
1924	63.9998
1920	63.9776
1916	63.9632
1912	64.0028
1908	64.0551
1904	64.0511
1900	64.04
1896	64.0275
1892	64.0104
1888	64.0115
1884	63.9872
1880	63.9651
1876	63.997
1872	64.0071
1868	63.9565
1864	63.9184
1860	63.937
1856	63.9507
1852	63.916
1848	63.8732
1844	63.8527
1840	63.8995
1836	63.9685
1832	63.9656
1828	63.9281
1824	63.92
1820	63.9421
1816	63.9497
1812	63.9046
1808	63.8649
1804	63.8853
1800	63.8824
1796	63.8535
1792	63.8547
1788	63.8214
1784	63.7661
1780	63.7565
1776	63.7684
1772	63.7978
1768	63.8497
1764	63.8739
1760	63.8372
1756	63.7454
1752	63.6749
1748	63.6792
1744	63.6889
1740	63.6509
1736	63.5652
1732	63.5178
1728	63.5866
1724	63.6666
1720	63.6982
1716	63.7246
1712	63.7347
1708	63.7354
1704	63.6855
1700	63.5896
1696	63.6008
1692	63.6652
1688	63.6122
1684	63.5277
1680	63.5231
1676	63.5623
1672	63.5994
1668	63.6082
1664	63.6453
1660	63.7079
1656	63.6962
1652	63.6649
1648	63.6894
1644	63.672
1640	63.5961
1636	63.5558
1632	63.5479
1628	63.5503
1624	63.6006
1620	63.665
1616	63.655
1612	63.612
1608	63.6365
1604	63.6581
1600	63.5973
1596	63.5904
1592	63.6776
1588	63.7156
1584	63.6131
1580	63.4429
1576	63.3986
1572	63.5256
1568	63.6659
1564	63.6815
1560	63.6331
1556	63.6253
1552	63.5974
1548	63.5648
1544	63.6228
1540	63.6726
1536	63.6031
1532	63.4925
1528	63.4527
1524	63.4615
1520	63.4522
1516	63.4623
1512	63.4684
1508	63.4294
1504	63.4491
1500	63.5781
1496	63.6752
1492	63.6038
1488	63.4663
1484	63.3511
1480	63.3031
1476	63.3722
1472	63.3968
1468	63.2854
1464	63.1975
1460	63.22
1456	63.2859
1452	63.3058
1448	63.2991
1444	63.2935
1440	63.2911
1436	63.3325
1432	63.3351
1428	63.2834
1424	63.3072
1420	63.3691
1416	63.397
1412	63.4321
1408	63.4523
1404	63.4244
1400	63.3647
1396	63.2935
1392	63.2764
1388	63.3125
1384	63.3356
1380	63.3411
1376	63.3337
1372	63.311
1368	63.2528
1364	63.1796
1360	63.1918
1356	63.2667
1352	63.2921
1348	63.2787
1344	63.2465
1340	63.1682
1336	63.1409
1332	63.2103
1328	63.2209
1324	63.1858
1320	63.2576
1316	63.3308
1312	63.2625
1308	63.1696
1304	63.1918
1300	63.2236
1296	63.1571
1292	63.1012
1288	63.1069
1284	63.1402
1280	63.1798
1276	63.1704
1272	63.098
1268	63.0062
1264	62.9694
1260	62.9773
1256	62.9841
1252	63.0209
1248	63.0643
1244	63.0598
1240	63.0178
1236	62.9797
1232	62.992
1228	63.0723
1224	63.1534
1220	63.1607
1216	63.0965
1212	63.0322
1208	63.0065
1204	63.0257
1200	63.0545
1196	63.0156
1192	62.9541
1188	62.9246
1184	62.9268
1180	62.9616
1176	62.9753
1172	62.9628
1168	62.9188
1164	62.8429
1160	62.8563
1156	62.9817
1152	63.0587
1148	63.0232
1144	62.9139
1140	62.8209
1136	62.8397
1132	62.8812
1128	62.8812
1124	62.9002
1120	62.9148
1116	62.934
1112	62.9995
1108	63.018
1104	62.9709
1100	62.9942
1096	63.0574
1092	62.9889
1088	62.8651
1084	62.8101
1080	62.7685
1076	62.7521
1072	62.786
1068	62.8442
1064	62.881
1060	62.8348
1056	62.7979
1052	62.8325
1048	62.8139
1044	62.7566
1040	62.7558
1036	62.7568
1032	62.8096
1028	62.9468
1024	62.9801
1020	62.8676
1016	62.7821
1012	62.7936
1008	62.804
1004	62.7694
1000	62.7841
996	 62.8417
992	 62.832
988	 62.8036
984	 62.8045
980	 62.7927
976	 62.7933
972	 62.7519
968	 62.6587
964	 62.6356
960	 62.671
956	 62.7273
952	 62.8145
948	 62.8858
944	 62.8933
940	 62.8337
936	 62.776
932	 62.8666
928	 63.0193
924	 63.0396
920	 63.0081
916	 62.9657
912	 62.9162
908	 62.8546
904	 62.6955
900	 62.6005
896	 62.5876
892	 62.549
888	 62.6064
884	 62.6853
880	 62.6117
876	 62.6124
872	 62.8294
868	 62.9569
864	 62.9292
860	 62.8848
856	 62.818
852	 62.6693
848	 62.5088
844	 62.4976
840	 62.5784
836	 62.6195
832	 62.5875
828	 62.5458
824	 62.6617
820	 62.8024
816	 62.7569
812	 62.6499
808	 62.5978
804	 62.5854
800	 62.5769
796	 62.5464
792	 62.5213
788	 62.5854
784	 62.626
780	 62.5635
776	 62.5152
772	 62.4719
768	 62.4015
764	 62.4451
760	 62.5687
756	 62.5737
752	 62.5022
748	 62.4951
744	 62.6249
740	 62.7291
736	 62.6133
732	 62.4916
728	 62.517
724	 62.5025
720	 62.3647
716	 62.1507
712	 61.9661
708	 61.9982
704	 62.166
700	 62.2797
696	 62.3677
692	 62.4252
688	 62.4487
684	 62.4209
680	 62.2149
676	 62.0471
672	 62.1463
668	 62.2527
664	 62.1981
660	 62.11
656	 62.1079
652	 62.1213
648	 62.0828
644	 62.0712
640	 61.9732
636	 61.8255
632	 61.8904
628	 61.9562
624	 61.6856
620	 61.4142
616	 61.3633
612	 61.6175
608	 62.3065
604	 62.776
600	 62.6691
596	 62.1953
592	 62.0432
588	 62.5575
584	 62.4802
580	 61.7255
576	 61.622
572	 61.7837
568	 61.5765
564	 61.8528
560	 62.4015
556	 62.3866
552	 62.1548
548	 61.9128
544	 62.0333
540	 62.4172
536	 62.3172
532	 61.768
528	 61.0249
524	 61.0161
520	 62.0417
516	 62.4678
512	 62.1242
508	 61.9727
504	 61.4376
500	 60.017
496	 59.2621
492	 60.4562
488	 61.9659
484	 61.88
480	 61.2231
476	 61.2162
472	 60.9897
468	 60.3666
464	 60.2782
460	 60.711
456	 61.3065
452	 61.6032
448	 60.9828
444	 60.4398
440	 60.5191
436	 60.1873
432	 59.8231
428	 59.9164
424	 60.7661
420	 62.9267
416	 64.6642
412	 63.9716
408	 62.1609
404	 63.1799
400	 64.2874
396	 61.6742
392	 61.7006
388	 66.9472
384	 69.4446
380	 60.0382
376	 52.7615
372	 59.1087
370	 63.8644