File: Bakgrunnsmateriale/MATLAB/FTIR/ftir_data/subAa/Mapping_121/BZ1503107-1_t113.asc
PE IR       SPECTRUM    SPECTRUM    ASCII       PEDS        1.60
  -1
BZDABE~1.ASC
17/04/07
22:34:29.00
17/04/07
22:34:55.00
tln
$BZ1503107-1_t0113$<tbV0>[7.8,13.0,8.0,0.0,27,1,0]
27.028
64

2002,4.07
MIRTGS : RIGHTBACK : INTERNAL 2
MIR : ON : INTERNAL 2
OPTKBR

0.200000
8
8.000000
FILLER
RATIO
SPECTRUM
UNLOCKED 256

DOUBLE
64
COMBINED
1
0
0

0.002000
RATIO

1
0
TRUE
51149
0
LEFT NOT FITTED RIGHT NOT FITTED 0
NONE
NONE
15600
12
4.427000
51148
TRUE
1 0 8 72 0 0 0 0

15798

#HDR
-1
-1
#GR
µM
%T
2.38419e-05
0.0
2.000000
0.002000
12515
8
68.9041
50.3434
#DATA
2.000000	 65.4717
2.018000	 65.64
2.036000	 65.2541
2.054000	 64.6022
2.072000	 64.8619
2.090000	 64.3566
2.108000	 64.7765
2.126000	 64.699
2.144000	 64.6204
2.162000	 64.8358
2.180000	 65.0816
2.198000	 65.1542
2.216000	 65.1271
2.234000	 64.9611
2.252000	 59.8258
2.270000	 65.6865
2.288000	 65.7019
2.306000	 65.2695
2.324000	 64.8123
2.342000	 65.124
2.360000	 64.6473
2.378000	 65.0288
2.396000	 64.9725
2.414000	 64.6219
2.432000	 64.9556
2.450000	 64.9157
2.468000	 65.109
2.486000	 64.9128
2.504000	 64.8811
2.522000	 64.9882
2.540000	 65.0351
2.558000	 64.8083
2.576000	 65.2773
2.594000	 65.069
2.612000	 65.0575
2.630000	 65.2009
2.648000	 64.9953
2.666000	 64.8135
2.684000	 65.0863
2.702000	 64.8528
2.720000	 64.9327
2.738000	 64.8685
2.756000	 65.0849
2.774000	 65.0406
2.792000	 64.9426
2.810000	 64.9659
2.828000	 64.8755
2.846000	 64.9366
2.864000	 64.8411
2.882000	 65.1432
2.900000	 64.869
2.918000	 65.0386
2.936000	 65.0178
2.954000	 64.9041
2.972000	 64.9208
2.990000	 64.9169
3.008000	 65.0019
3.026000	 64.8648
3.044000	 64.9232
3.062000	 64.8712
3.080000	 64.8372
3.098000	 64.6896
3.116000	 64.7304
3.134000	 64.7184
3.152000	 64.8115
3.170000	 64.8705
3.188000	 64.7285
3.206000	 64.9387
3.224000	 64.7628
3.242000	 65.014
3.260000	 64.7317
3.278000	 64.789
3.296000	 64.7848
3.314000	 64.7775
3.332000	 64.7306
3.350000	 64.7054
3.368000	 64.641
3.386000	 64.6513
3.404000	 64.8539
3.422000	 64.6991
3.440000	 64.5207
3.458000	 64.6481
3.476000	 64.6521
3.494000	 64.6817
3.512000	 64.7106
3.530000	 64.6657
3.548000	 64.6235
3.566000	 64.6881
3.584000	 64.6743
3.602000	 64.7348
3.620000	 64.7321
3.638000	 64.4804
3.656000	 64.6911
3.674000	 64.6592
3.692000	 64.6999
3.710000	 64.5969
3.728000	 64.5882
3.746000	 64.5845
3.764000	 64.5585
3.782000	 64.5756
3.800000	 64.5129
3.818000	 64.4613
3.836000	 64.6219
3.854000	 64.6115
3.872000	 64.4759
3.890000	 64.5656
3.908000	 64.5175
3.926000	 64.5414
3.944000	 64.6096
3.962000	 64.4718
3.980000	 64.4442
3.998000	 64.5288
4.016000	 64.415
4.034000	 64.4374
4.052000	 64.4094
4.070000	 64.5095
4.088000	 64.4419
4.106000	 64.4145
4.124000	 64.2261
4.141999	 64.2852
4.160000	 64.3684
4.178000	 64.5508
4.196000	 64.488
4.214000	 64.3568
4.232000	 64.4242
4.250000	 64.3449
4.268000	 64.3112
4.286000	 64.3564
4.304000	 64.3503
4.322000	 64.2283
4.340000	 64.2718
4.358000	 64.3615
4.375999	 64.3459
4.394000	 64.3687
4.412000	 64.2987
4.430000	 64.3144
4.448000	 64.2784
4.466000	 64.3405
4.484000	 64.2011
4.502000	 64.2737
4.520000	 64.2914
4.538000	 64.3142
4.556000	 64.2709
4.574000	 64.2238
4.592000	 64.3152
4.609999	 64.1526
4.628000	 64.2019
4.646000	 64.2131
4.664000	 64.0781
4.682000	 64.1433
4.700000	 64.1511
4.718000	 64.1589
4.736000	 64.1848
4.754000	 64.0844
4.772000	 64.0877
4.790000	 64.1107
4.808000	 64.2311
4.826000	 64.1467
4.843999	 64.0119
4.862000	 64.0895
4.880000	 64.0324
4.898000	 64.0055
4.916000	 64.0953
4.934000	 64.0359
4.952000	 64.0099
4.970000	 63.9672
4.988000	 63.9593
5.006000	 64.0664
5.024000	 64.0523
5.042000	 63.9734
5.060000	 64.0086
5.077999	 63.998
5.096000	 64.0113
5.114000	 63.9823
5.132000	 63.9185
5.150000	 63.9847
5.168000	 64.0208
5.186000	 64.0155
5.204000	 63.9933
5.222000	 63.9088
5.240000	 63.9481
5.258000	 63.9266
5.276000	 63.9643
5.294000	 63.9208
5.312000	 63.8756
5.330000	 63.8971
5.348000	 63.8496
5.366000	 63.8411
5.384000	 63.9511
5.402000	 63.9301
5.420000	 63.8606
5.438000	 63.8695
5.456000	 63.8704
5.474000	 63.8241
5.492000	 63.8485
5.510000	 63.8205
5.528000	 63.9096
5.546000	 63.8662
5.564000	 63.7868
5.582000	 63.8285
5.600000	 63.9154
5.618000	 63.931
5.636000	 63.902
5.654000	 63.8103
5.672000	 63.7415
5.690000	 63.6826
5.708000	 63.6856
5.726000	 63.7097
5.744000	 63.6836
5.762000	 63.6181
5.780000	 63.6147
5.798000	 63.5866
5.816000	 63.5437
5.834000	 63.544
5.852000	 63.5716
5.870000	 63.6242
5.888000	 63.6902
5.906000	 63.6472
5.923999	 63.6942
5.942000	 63.7177
5.960000	 63.6678
5.978000	 63.6654
5.996000	 63.5777
6.014000	 63.5624
6.032000	 63.562
6.050000	 63.5174
6.068000	 63.5201
6.086000	 63.5744
6.104000	 63.5531
6.122000	 63.518
6.140000	 63.4683
6.158000	 63.4109
6.176000	 63.3881
6.194000	 63.3973
6.212000	 63.4115
6.230000	 63.4514
6.248000	 63.4742
6.266000	 63.4927
6.284000	 63.5433
6.302000	 63.4875
6.320000	 63.4034
6.338000	 63.3762
6.356000	 63.3963
6.374000	 63.4367
6.392000	 63.4459
6.410000	 63.4256
6.428000	 63.4072
6.446000	 63.3928
6.464000	 63.4305
6.482000	 63.4774
6.500000	 63.4438
6.518000	 63.4183
6.536000	 63.4301
6.554000	 63.4283
6.572000	 63.4071
6.590000	 63.4216
6.608000	 63.4479
6.626000	 63.4475
6.644000	 63.4419
6.662000	 63.3994
6.680000	 63.3349
6.698000	 63.3457
6.716000	 63.3775
6.734000	 63.3439
6.752000	 63.2917
6.770000	 63.2732
6.788000	 63.3246
6.806000	 63.3775
6.824000	 63.3345
6.842000	 63.2507
6.860000	 63.2435
6.878000	 63.32
6.896000	 63.3729
6.914000	 63.3473
6.932000	 63.2667
6.950000	 63.194
6.968000	 63.1698
6.986000	 63.1382
7.004000	 63.1081
7.022000	 63.1438
7.040000	 63.2085
7.058000	 63.2361
7.076000	 63.2139
7.094000	 63.1952
7.112000	 63.225
7.130000	 63.2388
7.148000	 63.1904
7.166000	 63.1396
7.184000	 63.1229
7.202000	 63.1175
7.220000	 63.1099
7.238000	 63.1067
7.256000	 63.1083
7.274000	 63.1103
7.292000	 63.1146
7.310000	 63.1192
7.328000	 63.1299
7.346000	 63.157
7.364000	 63.1852
7.382000	 63.1992
7.400000	 63.2023
7.418000	 63.1884
7.436000	 63.164
7.454000	 63.1488
7.472000	 63.1451
7.490000	 63.1535
7.508000	 63.1713
7.526000	 63.189
7.544000	 63.2231
7.562000	 63.2566
7.580000	 63.225
7.598000	 63.1399
7.616000	 63.0825
7.634000	 63.0724
7.652000	 63.0774
7.670000	 63.0904
7.688000	 63.109
7.706000	 63.1108
7.724000	 63.084
7.742000	 63.0525
7.760000	 63.0505
7.778000	 63.0742
7.796000	 63.0809
7.814000	 63.0463
7.832000	 62.9964
7.850000	 62.9685
7.868000	 62.9654
7.886000	 62.9609
7.904000	 62.9385
7.922000	 62.9042
7.940000	 62.8729
7.958000	 62.8557
7.976000	 62.8549
7.994000	 62.8647
8.012000	 62.8852
8.030000	 62.9229
8.048000	 62.9656
8.065999	 62.9852
8.084000	 62.9764
8.102000	 62.9632
8.120000	 62.9656
8.138000	 62.9813
8.155999	 62.9928
8.173999	 62.9859
8.192000	 62.97
8.210000	 62.9742
8.228000	 63.0073
8.246000	 63.0329
8.263999	 63.0138
8.282000	 62.9709
8.300000	 62.9568
8.318000	 62.9826
8.336000	 63.0096
8.353999	 63.0056
8.372000	 62.9753
8.390000	 62.942
8.408000	 62.9198
8.426000	 62.9075
8.443999	 62.8977
8.462000	 62.8836
8.480000	 62.8622
8.498000	 62.8355
8.516000	 62.8119
8.533999	 62.8038
8.552000	 62.8171
8.570000	 62.8453
8.588000	 62.875
8.606000	 62.8928
8.624000	 62.8914
8.641999	 62.8737
8.660000	 62.8539
8.678000	 62.8494
8.696000	 62.8645
8.714000	 62.8848
8.731999	 62.8894
8.750000	 62.8675
8.768000	 62.825
8.786000	 62.777
8.804000	 62.7378
8.821999	 62.7156
8.840000	 62.7113
8.858000	 62.7239
8.876000	 62.752
8.894000	 62.787
8.911999	 62.8076
8.930000	 62.7917
8.948000	 62.7369
8.966000	 62.6685
8.984000	 62.6214
9.001999	 62.6163
9.020000	 62.656
9.038000	 62.7309
9.056000	 62.8196
9.074000	 62.8891
9.092000	 62.9095
9.109999	 62.8697
9.128000	 62.7836
9.146000	 62.6846
9.164000	 62.6103
9.182000	 62.5829
9.199999	 62.599
9.218000	 62.6332
9.236000	 62.6521
9.254000	 62.6332
9.272000	 62.5781
9.289999	 62.5125
9.308000	 62.4729
9.326000	 62.4847
9.344000	 62.5464
9.362000	 62.6309
9.379999	 62.7063
9.398000	 62.7533
9.416000	 62.7686
9.434000	 62.7551
9.452000	 62.7125
9.469999	 62.6442
9.488000	 62.5671
9.506000	 62.5132
9.524000	 62.5125
9.542000	 62.5717
9.560000	 62.6651
9.577999	 62.7487
9.596000	 62.7857
9.614000	 62.7666
9.632000	 62.7102
9.650000	 62.6478
9.667999	 62.6039
9.686000	 62.5853
9.704000	 62.5839
9.722000	 62.5875
9.740000	 62.5895
9.757999	 62.5881
9.776000	 62.5823
9.794000	 62.5693
9.812000	 62.5479
9.830000	 62.5219
9.847999	 62.5003
9.866000	 62.4946
9.884000	 62.5145
9.902000	 62.5604
9.920000	 62.621
9.937999	 62.6751
9.956000	 62.702
9.974000	 62.693
9.992000	 62.6545
10.01	62.6039
10.028	62.5592
10.046	62.5307
10.064	62.5208
10.082	62.5287
10.1	62.5551
10.118	62.601
10.136	62.6616
10.154	62.724
10.172	62.7699
10.19	62.7834
10.208	62.761
10.226	62.7118
10.244	62.654
10.262	62.6063
10.28	62.5792
10.298	62.5744
10.316	62.584
10.334	62.5946
10.352	62.5932
10.37	62.5718
10.388	62.5332
10.406	62.4908
10.424	62.4645
10.442	62.4717
10.46	62.5192
10.478	62.5998
10.496	62.6949
10.514	62.7823
10.532	62.8412
10.55	62.8591
10.568	62.8319
10.586	62.7662
10.604	62.6766
10.622	62.5844
10.64	62.5102
10.658	62.4679
10.676	62.461
10.694	62.4837
10.712	62.5238
10.73	62.5702
10.748	62.6153
10.766	62.6559
10.784	62.692
10.802	62.7238
10.82	62.7501
10.838	62.7685
10.856	62.7766
10.874	62.7733
10.892	62.7596
10.91	62.7398
10.928	62.7195
10.946	62.7044
10.964	62.6972
10.982	62.6977
11	62.7028
11.018	62.7086
11.036	62.7127
11.054	62.7138
11.072	62.7128
11.09	62.7117
11.108	62.7117
11.126	62.7127
11.144	62.7127
11.162	62.7081
11.18	62.6953
11.198	62.672
11.216	62.6385
11.234	62.5983
11.252	62.5573
11.27	62.5208
11.288	62.4926
11.306	62.4733
11.324	62.4614
11.342	62.455
11.36	62.4532
11.378	62.4558
11.396	62.4628
11.414	62.4737
11.432	62.4875
11.45	62.5029
11.468	62.5189
11.486	62.5351
11.504	62.5504
11.522	62.5619
11.54	62.5651
11.558	62.5553
11.576	62.5306
11.594	62.4931
11.612	62.4504
11.63	62.4118
11.648	62.3849
11.666	62.373
11.684	62.3741
11.702	62.3834
11.72	62.396
11.738	62.4094
11.756	62.424
11.774	62.4415
11.792	62.4615
11.81	62.4797
11.828	62.4901
11.846	62.4867
11.864	62.4681
11.882	62.4394
11.9	62.4112
11.918	62.3956
11.936	62.4014
11.954	62.4305
11.972	62.4771
11.99	62.5297
12.008	62.5743
12.026	62.6001
12.044	62.6024
12.062	62.5847
12.08	62.557
12.098	62.5322
12.116	62.5216
12.134	62.5307
12.152	62.5578
12.17	62.5962
12.188	62.6366
12.206	62.6701
12.224	62.6906
12.242	62.6955
12.26	62.6844
12.278	62.6588
12.296	62.6215
12.314	62.576
12.332	62.5271
12.35	62.4803
12.368	62.4419
12.386	62.4177
12.404	62.4123
12.422	62.4278
12.44	62.4635
12.458	62.5155
12.476	62.5782
12.494	62.6439
12.512	62.7047
12.53	62.7534
12.548	62.784
12.566	62.7927
12.584	62.7783
12.602	62.7425
12.62	62.6901
12.638	62.6279
12.656	62.5636
12.674	62.5045
12.692	62.4555
12.71	62.4193
12.728	62.3951
12.746	62.3799
12.764	62.3687
12.782	62.3569
12.8	62.3408
12.818	62.3188
12.836	62.2912
12.854	62.2602
12.872	62.2291
12.89	62.2015
12.908	62.1806
12.926	62.1683
12.944	62.165
12.962	62.1692
12.98	62.1777
12.998	62.1865
13.016	62.1912
13.034	62.1887
13.052	62.1779
13.07	62.1592
13.088	62.135
13.106	62.1084
13.124	62.0829
13.142	62.0611
13.16	62.0445
13.178	62.0331
13.196	62.0263
13.214	62.0231
13.232	62.023
13.25	62.0262
13.268	62.0337
13.286	62.0463
13.304	62.0642
13.322	62.0867
13.34	62.1118
13.358	62.1364
13.376	62.157
13.394	62.1707
13.412	62.1756
13.43	62.1715
13.448	62.1601
13.466	62.1444
13.484	62.1281
13.502	62.1152
13.52	62.1091
13.538	62.112
13.556	62.1243
13.574	62.145
13.592	62.1714
13.61	62.1997
13.628	62.2255
13.646	62.2443
13.664	62.2523
13.682	62.247
13.7	62.2285
13.718	62.1984
13.736	62.1611
13.754	62.1223
13.772	62.0888
13.79	62.0667
13.808	62.0605
13.826	62.0722
13.844	62.1006
13.862	62.1417
13.88	62.1888
13.898	62.2344
13.916	62.2709
13.934	62.2919
13.952	62.2932
13.97	62.2733
13.988	62.2337
14.006	62.1782
14.024	62.1126
14.042	62.0435
14.06	61.9771
14.078	61.9186
14.096	61.8719
14.114	61.8388
14.132	61.8201
14.15	61.8151
14.168	61.8229
14.186	61.8419
14.204	61.8702
14.222	61.9057
14.24	61.9462
14.258	61.9895
14.276	62.0328
14.294	62.0736
14.312	62.1098
14.33	62.1401
14.348	62.1646
14.366	62.1841
14.384	62.2011
14.402	62.2186
14.42	62.2396
14.438	62.2667
14.456	62.3015
14.474	62.344
14.492	62.3925
14.51	62.4438
14.528	62.4937
14.546	62.5379
14.564	62.5726
14.582	62.5948
14.6	62.6027
14.618	62.5961
14.636	62.5758
14.654	62.5439
14.672	62.5027
14.69	62.4542
14.708	62.4005
14.726	62.3437
14.744	62.2851
14.762	62.2261
14.78	62.1679
14.798	62.1114
14.816	62.0575
14.834	62.0068
14.852	61.9597
14.87	61.9161
14.888	61.8757
14.906	61.8379
14.924	61.802
14.942	61.767
14.96	61.7331
14.978	61.7011
14.996	61.6724
15.014	61.6497
15.032	61.6354
15.05	61.633
15.068	61.6452
15.086	61.6739
15.104	61.7201
15.122	61.7817
15.14	61.8549
15.158	61.9343
15.176	62.0135
15.194	62.0848
15.212	62.1397
15.23	62.1721
15.248	62.1777
15.266	62.1538
15.284	62.1009
15.302	62.023
15.32	61.9255
15.338	61.8149
15.356	61.6998
15.374	61.5892
15.392	61.4902
15.41	61.4086
15.428	61.3495
15.446	61.3154
15.464	61.3065
15.482	61.3222
15.5	61.3598
15.518	61.4145
15.536	61.4807
15.554	61.553
15.572	61.6252
15.59	61.6899
15.608	61.7413
15.626	61.7743
15.644	61.7833
15.662	61.7642
15.68	61.7157
15.698	61.6371
15.716	61.5297
15.734	61.398
15.752	61.247
15.77	61.0826
15.788	60.9142
15.806	60.7494
15.824	60.5952
15.842	60.4593
15.86	60.3486
15.878	60.2661
15.896	60.2145
15.914	60.1945
15.932	60.2037
15.95	60.2395
15.968	60.298
15.986	60.3725
16.004	60.4582
16.022	60.5501
16.04	60.6413
16.058	60.7286
16.076	60.8096
16.094	60.8812
16.112	60.9441
16.13	60.999
16.148	61.0476
16.166	61.093
16.184	61.1374
16.202	61.1834
16.22	61.2328
16.238	61.2859
16.256	61.3429
16.274	61.4011
16.292	61.457
16.31	61.5077
16.328	61.5466
16.346	61.5695
16.364	61.5731
16.382	61.5533
16.4	61.5108
16.418	61.4462
16.436	61.3636
16.454	61.2697
16.472	61.1696
16.49	61.0741
16.508	60.9913
16.526	60.9275
16.544	60.8918
16.562	60.8873
16.58	60.9168
16.598	60.981
16.616	61.0767
16.634	61.2014
16.652	61.3475
16.67	61.5092
16.688	61.6804
16.706	61.8506
16.724	62.0148
16.742	62.1661
16.76	62.298
16.778	62.4081
16.796	62.4927
16.814	62.5512
16.832	62.5836
16.85	62.5913
16.868	62.577
16.886	62.5429
16.904	62.4938
16.922	62.4326
16.94	62.3634
16.958	62.2904
16.976	62.2154
16.994	62.1426
17.012	62.0732
17.03	62.0082
17.048	61.9488
17.066	61.8946
17.084	61.8451
17.102	61.7993
17.12	61.7567
17.138	61.7153
17.156	61.6745
17.174	61.6332
17.192	61.5902
17.21	61.5451
17.228	61.4972
17.246	61.446
17.264	61.3912
17.282	61.3322
17.3	61.269
17.318	61.201
17.336	61.1284
17.354	61.0512
17.372	60.9704
17.39	60.887
17.408	60.803
17.426	60.7214
17.444	60.6438
17.462	60.5757
17.48	60.5186
17.498	60.4776
17.516	60.4547
17.534	60.4526
17.552	60.4726
17.57	60.5148
17.588	60.578
17.606	60.6598
17.624	60.7575
17.642	60.8656
17.66	60.9818
17.678	61.0973
17.696	61.21
17.714	61.3126
17.732	61.4032
17.75	61.478
17.768	61.5365
17.786	61.578
17.804	61.6045
17.822	61.6172
17.84	61.6202
17.858	61.6166
17.876	61.6101
17.894	61.6049
17.912	61.6032
17.93	61.6086
17.948	61.6218
17.966	61.6439
17.984	61.6742
18.002	61.7117
18.02	61.7541
18.038	61.7996
18.056	61.8447
18.074	61.8883
18.092	61.9264
18.11	61.9584
18.128	61.9816
18.146	61.9963
18.164	62.0016
18.182	61.9987
18.2	61.9883
18.218	61.9725
18.236	61.9525
18.254	61.9314
18.272	61.9098
18.29	61.8913
18.308	61.8763
18.326	61.8671
18.344	61.8636
18.362	61.8669
18.38	61.8761
18.398	61.8902
18.416	61.9079
18.434	61.9281
18.452	61.9483
18.47	61.967
18.488	61.9808
18.506	61.9887
18.524	61.9873
18.542	61.9758
18.56	61.9517
18.578	61.9146
18.596	61.8638
18.614	61.7993
18.632	61.7228
18.65	61.6346
18.668	61.5385
18.686	61.4349
18.704	61.3287
18.722	61.2207
18.74	61.1158
18.758	61.0149
18.776	60.9223
18.794	60.8384
18.812	60.7661
18.83	60.705
18.848	60.656
18.866	60.6182
18.884	60.5913
18.902	60.5743
18.92	60.5657
18.938	60.5645
18.956	60.569
18.974	60.5785
18.992	60.5913
19.01	60.6071
19.028	60.6246
19.046	60.644
19.064	60.6647
19.082	60.6868
19.1	60.7102
19.118	60.7351
19.136	60.7616
19.154	60.7899
19.172	60.8205
19.19	60.8533
19.208	60.889
19.226	60.9275
19.244	60.9695
19.262	61.0147
19.28	61.0634
19.298	61.1156
19.316	61.171
19.334	61.2297
19.352	61.2907
19.37	61.3542
19.388	61.4188
19.406	61.4848
19.424	61.5503
19.442	61.6152
19.46	61.6775
19.478	61.7372
19.496	61.792
19.514	61.8413
19.532	61.884
19.55	61.9192
19.568	61.9461
19.586	61.9635
19.604	61.9714
19.622	61.969
19.64	61.9564
19.658	61.9332
19.676	61.8998
19.694	61.8571
19.712	61.8051
19.73	61.7457
19.748	61.6786
19.766	61.6061
19.784	61.5285
19.802	61.4475
19.82	61.3641
19.838	61.2792
19.856	61.1949
19.874	61.1111
19.892	61.0297
19.91	60.9506
19.928	60.8751
19.946	60.8031
19.964	60.7353
19.982	60.6718
20	60.6128
20.018	60.5586
20.036	60.5091
20.054	60.4642
20.072	60.4239
20.09	60.3881
20.108	60.3566
20.126	60.3293
20.144	60.306
20.162	60.2869
20.18	60.2717
20.198	60.2607
20.216	60.2537
20.234	60.251
20.252	60.2527
20.27	60.259
20.288	60.2697
20.306	60.285
20.324	60.3047
20.342	60.3289
20.36	60.3572
20.378	60.389
20.396	60.4244
20.414	60.4624
20.432	60.5032
20.45	60.5454
20.468	60.5884
20.486	60.6318
20.504	60.6745
20.522	60.7166
20.54	60.7575
20.558	60.7969
20.576	60.8352
20.594	60.8721
20.612	60.908
20.63	60.9435
20.648	60.9785
20.666	61.0139
20.684	61.0497
20.702	61.0866
20.72	61.1251
20.738	61.1651
20.756	61.2068
20.774	61.2503
20.792	61.2949
20.81	61.3406
20.828	61.3866
20.846	61.4318
20.864	61.4763
20.882	61.518
20.9	61.5571
20.918	61.5923
20.936	61.6225
20.954	61.6479
20.972	61.6672
20.99	61.6807
21.008	61.6885
21.026	61.6905
21.044	61.6872
21.062	61.6801
21.08	61.6686
21.098	61.6553
21.116	61.6405
21.134	61.6251
21.152	61.6117
21.17	61.5996
21.188	61.5911
21.206	61.5867
21.224	61.5865
21.242	61.5918
21.26	61.6022
21.278	61.6176
21.296	61.6383
21.314	61.6634
21.332	61.6917
21.35	61.7237
21.368	61.7571
21.386	61.7918
21.404	61.827
21.422	61.8601
21.44	61.892
21.458	61.921
21.476	61.9465
21.494	61.9684
21.512	61.9857
21.53	61.9985
21.548	62.0064
21.566	62.0092
21.584	62.0069
21.602	61.9994
21.62	61.9867
21.638	61.9689
21.656	61.9458
21.674	61.9176
21.692	61.8845
21.71	61.8464
21.728	61.8034
21.746	61.7558
21.764	61.7034
21.782	61.6467
21.8	61.586
21.818	61.5213
21.836	61.4538
21.854	61.3832
21.872	61.3104
21.89	61.2371
21.908	61.1625
21.926	61.0888
21.944	61.0174
21.962	60.9478
21.98	60.8829
21.998	60.8225
22.016	60.7675
22.034	60.72
22.052	60.6796
22.07	60.6469
22.088	60.623
22.106	60.6073
22.124	60.5996
22.142	60.6003
22.16	60.6085
22.178	60.6222
22.196	60.6424
22.214	60.6667
22.232	60.6922
22.25	60.7206
22.268	60.748
22.286	60.7722
22.304	60.7944
22.322	60.8104
22.34	60.8198
22.358	60.8226
22.376	60.8158
22.394	60.7996
22.412	60.7739
22.43	60.7376
22.448	60.6907
22.466	60.6343
22.484	60.569
22.502	60.4941
22.52	60.413
22.538	60.3265
22.556	60.2342
22.574	60.1408
22.592	60.0461
22.61	59.9508
22.628	59.8601
22.646	59.7726
22.664	59.6902
22.682	59.617
22.7	59.5516
22.718	59.4957
22.736	59.452
22.754	59.4195
22.772	59.3993
22.79	59.3927
22.808	59.3992
22.826	59.4185
22.844	59.4509
22.862	59.4963
22.88	59.5529
22.898	59.6204
22.916	59.6989
22.934	59.7853
22.952	59.8789
22.97	59.98
22.988	60.0847
23.006	60.1926
23.024	60.3038
23.042	60.414
23.06	60.5233
23.078	60.6315
23.096	60.7345
23.114	60.8324
23.132	60.9252
23.15	61.0096
23.168	61.0859
23.186	61.154
23.204	61.2122
23.222	61.2604
23.24	61.2989
23.258	61.3276
23.276	61.3461
23.294	61.3549
23.312	61.3548
23.33	61.3453
23.348	61.3271
23.366	61.3022
23.384	61.2698
23.402	61.2309
23.42	61.1886
23.438	61.1426
23.456	61.0931
23.474	61.0432
23.492	60.993
23.51	60.9422
23.528	60.8936
23.546	60.8477
23.564	60.8039
23.582	60.7635
23.6	60.7272
23.618	60.6943
23.636	60.6655
23.654	60.6412
23.672	60.6213
23.69	60.6045
23.708	60.59
23.726	60.5789
23.744	60.5686
23.762	60.5572
23.78	60.5465
23.798	60.5338
23.816	60.5164
23.834	60.4957
23.852	60.4703
23.87	60.4374
23.888	60.3979
23.906	60.3514
23.924	60.2964
23.942	60.2322
23.96	60.1597
23.978	60.0793
23.996	59.9904
24.014	59.8931
24.032	59.7898
24.05	59.6814
24.068	59.5662
24.086	59.4481
24.104	59.33
24.122	59.209
24.14	59.089
24.158	58.9751
24.176	58.865
24.194	58.7604
24.212	58.667
24.23	58.5857
24.248	58.5148
24.266	58.458
24.284	58.4174
24.302	58.3913
24.32	58.3807
24.338	58.3869
24.356	58.4099
24.374	58.4487
24.392	58.5027
24.41	58.5726
24.428	58.6577
24.446	58.7554
24.464	58.8654
24.482	58.9888
24.5	59.1216
24.518	59.2605
24.536	59.4083
24.554	59.5622
24.572	59.7181
24.59	59.8771
24.608	60.0391
24.626	60.2004
24.644	60.3593
24.662	60.5175
24.68	60.6736
24.698	60.8259
24.716	60.9749
24.734	61.1208
24.752	61.2638
24.77	61.4031
24.788	61.5391
24.806	61.6735
24.824	61.8071
24.842	61.9388
24.86	62.07
24.878	62.2023
24.896	62.335
24.914	62.4683
24.932	62.6037
24.95	62.7422
24.968	62.8828
24.986	63.0263
25.004	63.1738
25.022	63.3254
25.04	63.4805
25.058	63.6388
25.076	63.8005
25.094	63.9661
25.112	64.1334
25.13	64.3002
25.148	64.468
25.166	64.6359
25.184	64.8014
25.202	64.9634
25.22	65.1235
25.238	65.2798
25.256	65.4305
25.274	65.5759
25.292	65.7163
25.31	65.8516
25.328	65.9812
25.346	66.1048
25.364	66.2241
25.382	66.3406
25.4	66.4534
25.418	66.5628
25.436	66.6713
25.454	66.7808
25.472	66.8895
25.49	66.9987
25.508	67.1107
25.526	67.2262
25.544	67.3441
25.562	67.4646
25.58	67.5881
25.598	67.716
25.616	67.8465
25.634	67.9765
25.652	68.1051
25.67	68.2358
25.688	68.3628
25.706	68.4795
25.724	68.5876
25.742	68.6893
25.76	68.7749
25.778	68.8359
25.796	68.88
25.814	68.903
25.832	68.8939
25.85	68.846
25.868	68.768
25.886	68.6531
25.904	68.492
25.922	68.2822
25.94	68.0289
25.958	67.7283
25.976	67.3767
25.994	66.9724
26.012	66.5184
26.03	66.0181
26.048	65.4741
26.066	64.8801
26.084	64.2427
26.102	63.5718
26.12	62.8722
26.138	62.1327
26.156	61.3669
26.174	60.5909
26.192	59.8077
26.21	59.0054
26.228	58.2021
26.246	57.4169
26.264	56.6463
26.282	55.8831
26.3	55.1467
26.318	54.456
26.336	53.8021
26.354	53.1837
26.372	52.6157
26.39	52.1118
26.408	51.6628
26.426	51.2701
26.444	50.9431
26.462	50.6901
26.48	50.5077
26.498	50.3931
26.516	50.3451
26.534	50.3637
26.552	50.4514
26.57	50.6039
26.588	50.8153
26.606	51.0829
26.624	51.4124
26.642	51.7976
26.66	52.2307
26.678	52.708
26.696	53.2368
26.714	53.8098
26.732	54.4189
26.75	55.06
26.768	55.7402
26.786	56.4535
26.804	57.1928
26.822	57.9559
26.84	58.749
26.858	59.5653
26.876	60.3969
26.894	61.2413
26.912	62.1059
26.93	62.9826
26.948	63.8623
26.966	64.7791
26.984	65.7979
27.002	66.7685
27.02	67.5269
27.028	67.7303