File: Bakgrunnsmateriale/MATLAB/FTIR/ftir_data/subAa/Mapping_121/BZ1503107-1_t32.asc
PE IR       SPECTRUM    SPECTRUM    ASCII       PEDS        1.60
  -1
BZ2157~1.ASC
17/04/07
15:51:25.00
17/04/07
15:51:52.00
tln
$BZ1503107-1_t0032$<tbV0>[-10.4,-7.8,8.0,0.0,27,1,0]
27.028
64

2002,4.07
MIRTGS : RIGHTBACK : INTERNAL 2
MIR : ON : INTERNAL 2
OPTKBR

0.200000
8
8.000000
FILLER
RATIO
SPECTRUM
UNLOCKED 256

DOUBLE
64
COMBINED
1
0
0

0.002000
RATIO

1
0
TRUE
51149
0
LEFT NOT FITTED RIGHT NOT FITTED 0
NONE
NONE
15600
12
4.427000
51148
TRUE
1 0 8 72 0 0 0 0

15798

#HDR
-1
-1
#GR
µM
%T
2.38419e-05
0.0
2.000000
0.002000
12515
8
73.3845
44.7724
#DATA
2.000000	 64.1541
2.018000	 63.831
2.036000	 63.1874
2.054000	 63.3261
2.072000	 63.7243
2.090000	 63.3108
2.108000	 63.6699
2.126000	 63.7902
2.144000	 63.1952
2.162000	 63.3949
2.180000	 63.9547
2.198000	 63.3925
2.216000	 64.0823
2.234000	 64.1732
2.252000	 65.1837
2.270000	 55.1876
2.288000	 63.864
2.306000	 64.2324
2.324000	 64.1952
2.342000	 63.8366
2.360000	 63.8892
2.378000	 63.6305
2.396000	 63.6799
2.414000	 63.9842
2.432000	 63.9897
2.450000	 63.7004
2.468000	 64.0075
2.486000	 63.927
2.504000	 64.0148
2.522000	 63.9598
2.540000	 63.9343
2.558000	 64.1365
2.576000	 63.7459
2.594000	 64.1644
2.612000	 63.9631
2.630000	 64.3333
2.648000	 63.946
2.666000	 64.048
2.684000	 64.0876
2.702000	 63.9866
2.720000	 64.1147
2.738000	 64.2153
2.756000	 64.0991
2.774000	 64.2521
2.792000	 64.0349
2.810000	 64.1534
2.828000	 63.9386
2.846000	 63.9864
2.864000	 64.0966
2.882000	 64.1671
2.900000	 64.0749
2.918000	 64.1621
2.936000	 64.2508
2.954000	 64.2929
2.972000	 64.2055
2.990000	 63.9792
3.008000	 64.0916
3.026000	 64.069
3.044000	 64.0038
3.062000	 64.1839
3.080000	 64.1286
3.098000	 64.0521
3.116000	 64.0252
3.134000	 63.9014
3.152000	 64.1649
3.170000	 64.2148
3.188000	 63.8925
3.206000	 64.0886
3.224000	 64.1634
3.242000	 64.0305
3.260000	 64.2197
3.278000	 64.0986
3.296000	 64.0875
3.314000	 64.0163
3.332000	 64.0957
3.350000	 64.2697
3.368000	 63.9515
3.386000	 64.0375
3.404000	 64.123
3.422000	 64.0925
3.440000	 64.1093
3.458000	 64.1804
3.476000	 64.0264
3.494000	 64.1251
3.512000	 64.0954
3.530000	 64.1988
3.548000	 64.1685
3.566000	 64.2463
3.584000	 64.3438
3.602000	 64.2054
3.620000	 64.1718
3.638000	 64.2028
3.656000	 64.0873
3.674000	 64.2595
3.692000	 64.062
3.710000	 64.2231
3.728000	 64.2773
3.746000	 64.0625
3.764000	 64.1
3.782000	 64.2873
3.800000	 64.2569
3.818000	 64.1461
3.836000	 64.1854
3.854000	 64.1984
3.872000	 64.1261
3.890000	 64.1054
3.908000	 64.2647
3.926000	 64.1039
3.944000	 64.2432
3.962000	 64.2774
3.980000	 64.2498
3.998000	 64.1614
4.016000	 64.3269
4.034000	 64.1532
4.052000	 64.1196
4.070000	 64.1371
4.088000	 64.1731
4.106000	 64.1172
4.124000	 64.1985
4.141999	 64.2897
4.160000	 64.163
4.178000	 64.2704
4.196000	 64.1421
4.214000	 64.1971
4.232000	 64.1745
4.250000	 64.2619
4.268000	 64.2587
4.286000	 64.1946
4.304000	 64.1552
4.322000	 64.2107
4.340000	 64.2753
4.358000	 64.1248
4.375999	 64.0909
4.394000	 64.1202
4.412000	 64.1183
4.430000	 64.1534
4.448000	 64.1477
4.466000	 64.1188
4.484000	 64.2303
4.502000	 64.2093
4.520000	 64.1928
4.538000	 64.1965
4.556000	 64.2087
4.574000	 64.1652
4.592000	 64.1813
4.609999	 64.1562
4.628000	 64.17
4.646000	 64.2116
4.664000	 64.0879
4.682000	 64.2003
4.700000	 64.2171
4.718000	 64.2171
4.736000	 64.3032
4.754000	 64.1412
4.772000	 64.2191
4.790000	 64.0714
4.808000	 64.1596
4.826000	 64.2257
4.843999	 64.1967
4.862000	 64.2217
4.880000	 64.0659
4.898000	 64.0033
4.916000	 64.062
4.934000	 64.1907
4.952000	 64.2294
4.970000	 64.0739
4.988000	 64.1542
5.006000	 64.1377
5.024000	 64.128
5.042000	 64.0784
5.060000	 64.1161
5.077999	 64.1828
5.096000	 64.1854
5.114000	 64.2011
5.132000	 64.1399
5.150000	 64.0963
5.168000	 64.0969
5.186000	 64.0858
5.204000	 64.1034
5.222000	 64.0628
5.240000	 64.1335
5.258000	 64.0522
5.276000	 64.0018
5.294000	 64.1437
5.312000	 64.1957
5.330000	 64.1906
5.348000	 64.2617
5.366000	 64.1839
5.384000	 64.1158
5.402000	 64.1355
5.420000	 64.0946
5.438000	 64.1668
5.456000	 64.1868
5.474000	 64.1623
5.492000	 64.12
5.510000	 64.0826
5.528000	 64.1184
5.546000	 64.1866
5.564000	 64.1481
5.582000	 64.0653
5.600000	 64.0675
5.618000	 64.0832
5.636000	 64.0677
5.654000	 64.0614
5.672000	 63.9956
5.690000	 63.9813
5.708000	 64.0299
5.726000	 63.8863
5.744000	 63.7166
5.762000	 63.6104
5.780000	 63.6278
5.798000	 63.7543
5.816000	 63.8622
5.834000	 63.9194
5.852000	 63.9858
5.870000	 64.0582
5.888000	 64.09
5.906000	 64.0797
5.923999	 64.184
5.942000	 64.1782
5.960000	 64.0674
5.978000	 64.064
5.996000	 64.0935
6.014000	 64.0472
6.032000	 63.9456
6.050000	 63.9049
6.068000	 63.884
6.086000	 63.8826
6.104000	 63.9818
6.122000	 63.9836
6.140000	 63.9097
6.158000	 63.9142
6.176000	 63.9588
6.194000	 63.9586
6.212000	 63.9842
6.230000	 64.0498
6.248000	 64.0211
6.266000	 63.9502
6.284000	 63.9282
6.302000	 63.9019
6.320000	 63.8975
6.338000	 63.8908
6.356000	 63.8706
6.374000	 63.9869
6.392000	 64.1211
6.410000	 64.0677
6.428000	 63.947
6.446000	 63.9163
6.464000	 63.9313
6.482000	 63.9146
6.500000	 63.9045
6.518000	 63.9554
6.536000	 63.979
6.554000	 63.9156
6.572000	 63.8913
6.590000	 63.9545
6.608000	 64.0036
6.626000	 64.0276
6.644000	 64.0472
6.662000	 64.048
6.680000	 64.0001
6.698000	 63.9732
6.716000	 64.0187
6.734000	 64.0192
6.752000	 63.9827
6.770000	 63.946
6.788000	 63.9016
6.806000	 63.9325
6.824000	 63.9574
6.842000	 63.8399
6.860000	 63.7355
6.878000	 63.7874
6.896000	 63.8831
6.914000	 63.9266
6.932000	 63.9674
6.950000	 64.0167
6.968000	 64.014
6.986000	 63.9569
7.004000	 63.9045
7.022000	 63.8795
7.040000	 63.8778
7.058000	 63.9024
7.076000	 63.9251
7.094000	 63.9168
7.112000	 63.8745
7.130000	 63.811
7.148000	 63.793
7.166000	 63.8449
7.184000	 63.8941
7.202000	 63.9144
7.220000	 63.911
7.238000	 63.8728
7.256000	 63.855
7.274000	 63.8962
7.292000	 63.9362
7.310000	 63.9157
7.328000	 63.8565
7.346000	 63.8448
7.364000	 63.907
7.382000	 63.9378
7.400000	 63.8785
7.418000	 63.8164
7.436000	 63.8332
7.454000	 63.9272
7.472000	 64.0481
7.490000	 64.1072
7.508000	 64.0612
7.526000	 63.9755
7.544000	 63.9163
7.562000	 63.8685
7.580000	 63.8356
7.598000	 63.8535
7.616000	 63.8809
7.634000	 63.8613
7.652000	 63.8295
7.670000	 63.8222
7.688000	 63.8155
7.706000	 63.8088
7.724000	 63.8182
7.742000	 63.8202
7.760000	 63.8002
7.778000	 63.7853
7.796000	 63.783
7.814000	 63.7709
7.832000	 63.7516
7.850000	 63.7508
7.868000	 63.773
7.886000	 63.7953
7.904000	 63.8026
7.922000	 63.7908
7.940000	 63.7576
7.958000	 63.7248
7.976000	 63.7305
7.994000	 63.7739
8.012000	 63.806
8.030000	 63.7981
8.048000	 63.7751
8.065999	 63.7672
8.084000	 63.7697
8.102000	 63.7645
8.120000	 63.7565
8.138000	 63.7642
8.155999	 63.7882
8.173999	 63.8034
8.192000	 63.7924
8.210000	 63.7689
8.228000	 63.7563
8.246000	 63.7548
8.263999	 63.7498
8.282000	 63.7428
8.300000	 63.7487
8.318000	 63.7686
8.336000	 63.7899
8.353999	 63.8001
8.372000	 63.7936
8.390000	 63.7765
8.408000	 63.7622
8.426000	 63.7596
8.443999	 63.7658
8.462000	 63.7693
8.480000	 63.7584
8.498000	 63.7295
8.516000	 63.694
8.533999	 63.6718
8.552000	 63.6713
8.570000	 63.6859
8.588000	 63.7066
8.606000	 63.7241
8.624000	 63.7279
8.641999	 63.715
8.660000	 63.6965
8.678000	 63.6867
8.696000	 63.6888
8.714000	 63.6988
8.731999	 63.718
8.750000	 63.7431
8.768000	 63.7633
8.786000	 63.7744
8.804000	 63.7817
8.821999	 63.7857
8.840000	 63.78
8.858000	 63.7603
8.876000	 63.7273
8.894000	 63.6929
8.911999	 63.6813
8.930000	 63.7091
8.948000	 63.7623
8.966000	 63.8029
8.984000	 63.8038
9.001999	 63.7753
9.020000	 63.7521
9.038000	 63.7544
9.056000	 63.7647
9.074000	 63.7542
9.092000	 63.7218
9.109999	 63.6943
9.128000	 63.6935
9.146000	 63.7178
9.164000	 63.7494
9.182000	 63.7685
9.199999	 63.7613
9.218000	 63.7285
9.236000	 63.6909
9.254000	 63.6808
9.272000	 63.7169
9.289999	 63.7869
9.308000	 63.8594
9.326000	 63.9075
9.344000	 63.9173
9.362000	 63.8834
9.379999	 63.8099
9.398000	 63.719
9.416000	 63.6478
9.434000	 63.6304
9.452000	 63.6755
9.469999	 63.7607
9.488000	 63.8466
9.506000	 63.8974
9.524000	 63.895
9.542000	 63.8459
9.560000	 63.7787
9.577999	 63.7291
9.596000	 63.7192
9.614000	 63.7472
9.632000	 63.7949
9.650000	 63.8433
9.667999	 63.8855
9.686000	 63.9246
9.704000	 63.9634
9.722000	 63.9948
9.740000	 64.0036
9.757999	 63.9775
9.776000	 63.9165
9.794000	 63.8347
9.812000	 63.7527
9.830000	 63.689
9.847999	 63.655
9.866000	 63.6551
9.884000	 63.6885
9.902000	 63.7493
9.920000	 63.8263
9.937999	 63.9039
9.956000	 63.9667
9.974000	 64.0024
9.992000	 64.0065
10.01	63.9841
10.028	63.9493
10.046	63.9184
10.064	63.9001
10.082	63.8914
10.1	63.881
10.118	63.8611
10.136	63.8355
10.154	63.8178
10.172	63.82
10.19	63.8409
10.208	63.8654
10.226	63.8759
10.244	63.8625
10.262	63.8279
10.28	63.7808
10.298	63.7308
10.316	63.6858
10.334	63.6522
10.352	63.6354
10.37	63.6386
10.388	63.6593
10.406	63.6893
10.424	63.7183
10.442	63.7391
10.46	63.7502
10.478	63.7548
10.496	63.7574
10.514	63.7603
10.532	63.763
10.55	63.7627
10.568	63.7556
10.586	63.7415
10.604	63.7254
10.622	63.7157
10.64	63.7187
10.658	63.7345
10.676	63.755
10.694	63.7683
10.712	63.7656
10.73	63.7478
10.748	63.7257
10.766	63.7162
10.784	63.733
10.802	63.7805
10.82	63.851
10.838	63.9261
10.856	63.9841
10.874	64.0062
10.892	63.9861
10.91	63.9327
10.928	63.8675
10.946	63.817
10.964	63.7989
10.982	63.8162
11	63.8551
11.018	63.892
11.036	63.9074
11.054	63.8935
11.072	63.8579
11.09	63.8202
11.108	63.799
11.126	63.8058
11.144	63.8391
11.162	63.8872
11.18	63.9346
11.198	63.9675
11.216	63.9788
11.234	63.9699
11.252	63.9495
11.27	63.9295
11.288	63.923
11.306	63.9391
11.324	63.9803
11.342	64.0413
11.36	64.1091
11.378	64.1646
11.396	64.1907
11.414	64.176
11.432	64.1214
11.45	64.0401
11.468	63.9547
11.486	63.8872
11.504	63.8536
11.522	63.8585
11.54	63.8951
11.558	63.9497
11.576	64.0064
11.594	64.0534
11.612	64.0833
11.63	64.0936
11.648	64.0849
11.666	64.059
11.684	64.0182
11.702	63.9659
11.72	63.9072
11.738	63.8499
11.756	63.8021
11.774	63.7705
11.792	63.7599
11.81	63.7702
11.828	63.7975
11.846	63.8352
11.864	63.876
11.882	63.9137
11.9	63.944
11.918	63.9649
11.936	63.9768
11.954	63.9811
11.972	63.9797
11.99	63.975
12.008	63.9702
12.026	63.9674
12.044	63.9685
12.062	63.973
12.08	63.9783
12.098	63.9803
12.116	63.9734
12.134	63.9529
12.152	63.917
12.17	63.8677
12.188	63.8101
12.206	63.7517
12.224	63.7006
12.242	63.6636
12.26	63.6444
12.278	63.6445
12.296	63.6634
12.314	63.699
12.332	63.7478
12.35	63.8059
12.368	63.8678
12.386	63.927
12.404	63.9764
12.422	64.0103
12.44	64.026
12.458	64.0249
12.476	64.0127
12.494	63.9987
12.512	63.9923
12.53	63.9996
12.548	64.021
12.566	64.0513
12.584	64.0805
12.602	64.0973
12.62	64.0927
12.638	64.0636
12.656	64.0138
12.674	63.9523
12.692	63.8912
12.71	63.8408
12.728	63.8079
12.746	63.7931
12.764	63.7924
12.782	63.7992
12.8	63.8066
12.818	63.8106
12.836	63.8111
12.854	63.8114
12.872	63.8164
12.89	63.8307
12.908	63.8568
12.926	63.8935
12.944	63.936
12.962	63.9769
12.98	64.0086
12.998	64.0243
13.016	64.0201
13.034	63.9953
13.052	63.9529
13.07	63.8992
13.088	63.8412
13.106	63.7857
13.124	63.7386
13.142	63.7031
13.16	63.6793
13.178	63.6641
13.196	63.6527
13.214	63.6405
13.232	63.6236
13.25	63.6009
13.268	63.5739
13.286	63.5466
13.304	63.5238
13.322	63.5097
13.34	63.5058
13.358	63.5107
13.376	63.5195
13.394	63.5249
13.412	63.5196
13.43	63.4985
13.448	63.461
13.466	63.4114
13.484	63.3587
13.502	63.316
13.52	63.2972
13.538	63.3142
13.556	63.3741
13.574	63.4781
13.592	63.6206
13.61	63.79
13.628	63.9703
13.646	64.1439
13.664	64.2941
13.682	64.4078
13.7	64.4774
13.718	64.5009
13.736	64.4822
13.754	64.4303
13.772	64.3567
13.79	64.274
13.808	64.1926
13.826	64.1217
13.844	64.0658
13.862	64.0255
13.88	63.9977
13.898	63.9772
13.916	63.9579
13.934	63.934
13.952	63.9014
13.97	63.8582
13.988	63.8046
14.006	63.743
14.024	63.6777
14.042	63.6129
14.06	63.5525
14.078	63.4998
14.096	63.4573
14.114	63.4265
14.132	63.4079
14.15	63.401
14.168	63.4049
14.186	63.4178
14.204	63.4371
14.222	63.4603
14.24	63.4848
14.258	63.5092
14.276	63.5321
14.294	63.5534
14.312	63.5746
14.33	63.5982
14.348	63.6278
14.366	63.6674
14.384	63.7195
14.402	63.7843
14.42	63.8594
14.438	63.9402
14.456	64.0199
14.474	64.0903
14.492	64.1423
14.51	64.1677
14.528	64.1612
14.546	64.1205
14.564	64.0458
14.582	63.9406
14.6	63.8108
14.618	63.6646
14.636	63.5122
14.654	63.3632
14.672	63.2269
14.69	63.1107
14.708	63.0201
14.726	62.9585
14.744	62.9262
14.762	62.9201
14.78	62.9359
14.798	62.9677
14.816	63.0092
14.834	63.055
14.852	63.0995
14.87	63.1405
14.888	63.1776
14.906	63.2124
14.924	63.2478
14.942	63.2877
14.96	63.3354
14.978	63.3925
14.996	63.4595
15.014	63.5348
15.032	63.6144
15.05	63.6934
15.068	63.7676
15.086	63.8335
15.104	63.8886
15.122	63.9325
15.14	63.9666
15.158	63.9932
15.176	64.0144
15.194	64.0326
15.212	64.0489
15.23	64.0625
15.248	64.0715
15.266	64.0731
15.284	64.0638
15.302	64.0408
15.32	64.0028
15.338	63.9495
15.356	63.8821
15.374	63.8054
15.392	63.7247
15.41	63.6458
15.428	63.575
15.446	63.5184
15.464	63.4789
15.482	63.4583
15.5	63.4563
15.518	63.4697
15.536	63.4941
15.554	63.5245
15.572	63.5551
15.59	63.5799
15.608	63.5954
15.626	63.599
15.644	63.5896
15.662	63.5681
15.68	63.5368
15.698	63.4985
15.716	63.4575
15.734	63.4184
15.752	63.3841
15.77	63.3578
15.788	63.3417
15.806	63.3363
15.824	63.3415
15.842	63.3566
15.86	63.3797
15.878	63.4092
15.896	63.4437
15.914	63.4812
15.932	63.521
15.95	63.5621
15.968	63.6038
15.986	63.6454
16.004	63.6858
16.022	63.7241
16.04	63.7583
16.058	63.7868
16.076	63.8083
16.094	63.8207
16.112	63.8231
16.13	63.8152
16.148	63.7973
16.166	63.7709
16.184	63.7379
16.202	63.7003
16.22	63.6616
16.238	63.6242
16.256	63.5905
16.274	63.5631
16.292	63.5429
16.31	63.5306
16.328	63.5261
16.346	63.5285
16.364	63.5369
16.382	63.5499
16.4	63.5665
16.418	63.5861
16.436	63.6082
16.454	63.6332
16.472	63.6614
16.49	63.694
16.508	63.7316
16.526	63.775
16.544	63.8249
16.562	63.8808
16.58	63.9426
16.598	64.0085
16.616	64.0765
16.634	64.1451
16.652	64.2108
16.67	64.2713
16.688	64.3244
16.706	64.367
16.724	64.3981
16.742	64.4162
16.76	64.4208
16.778	64.4122
16.796	64.3909
16.814	64.359
16.832	64.3176
16.85	64.2699
16.868	64.2183
16.886	64.1648
16.904	64.1132
16.922	64.0649
16.94	64.0222
16.958	63.9871
16.976	63.9601
16.994	63.9425
17.012	63.9339
17.03	63.9343
17.048	63.9427
17.066	63.9582
17.084	63.9795
17.102	64.0049
17.12	64.0336
17.138	64.0638
17.156	64.0945
17.174	64.1247
17.192	64.1535
17.21	64.1803
17.228	64.2044
17.246	64.2256
17.264	64.2437
17.282	64.2588
17.3	64.2707
17.318	64.2793
17.336	64.2842
17.354	64.2851
17.372	64.2817
17.39	64.2738
17.408	64.261
17.426	64.2432
17.444	64.2201
17.462	64.1922
17.48	64.1597
17.498	64.1237
17.516	64.0855
17.534	64.0461
17.552	64.0079
17.57	63.9716
17.588	63.9398
17.606	63.9135
17.624	63.8944
17.642	63.8834
17.66	63.8812
17.678	63.8879
17.696	63.9031
17.714	63.9262
17.732	63.956
17.75	63.9916
17.768	64.0312
17.786	64.0741
17.804	64.1183
17.822	64.1635
17.84	64.2085
17.858	64.2529
17.876	64.2965
17.894	64.3389
17.912	64.3801
17.93	64.4202
17.948	64.4592
17.966	64.4962
17.984	64.5306
18.002	64.5613
18.02	64.5865
18.038	64.605
18.056	64.6141
18.074	64.613
18.092	64.599
18.11	64.5719
18.128	64.5302
18.146	64.4745
18.164	64.4053
18.182	64.3244
18.2	64.2334
18.218	64.136
18.236	64.0337
18.254	63.9315
18.272	63.8306
18.29	63.7361
18.308	63.6484
18.326	63.5713
18.344	63.5049
18.362	63.4508
18.38	63.4085
18.398	63.3778
18.416	63.3575
18.434	63.3464
18.452	63.3425
18.47	63.3444
18.488	63.3496
18.506	63.3568
18.524	63.3642
18.542	63.371
18.56	63.3756
18.578	63.3777
18.596	63.3773
18.614	63.3745
18.632	63.3701
18.65	63.3642
18.668	63.3588
18.686	63.3542
18.704	63.3521
18.722	63.3528
18.74	63.358
18.758	63.3675
18.776	63.3823
18.794	63.402
18.812	63.4266
18.83	63.4553
18.848	63.4875
18.866	63.5221
18.884	63.5576
18.902	63.5931
18.92	63.6267
18.938	63.6576
18.956	63.6841
18.974	63.7057
18.992	63.721
19.01	63.73
19.028	63.7321
19.046	63.7277
19.064	63.7169
19.082	63.7008
19.1	63.6802
19.118	63.6562
19.136	63.6304
19.154	63.6035
19.172	63.5775
19.19	63.5525
19.208	63.5304
19.226	63.5111
19.244	63.4957
19.262	63.4841
19.28	63.4765
19.298	63.4727
19.316	63.4722
19.334	63.475
19.352	63.4797
19.37	63.4866
19.388	63.4945
19.406	63.5036
19.424	63.513
19.442	63.5226
19.46	63.5317
19.478	63.54
19.496	63.5472
19.514	63.5532
19.532	63.5578
19.55	63.5606
19.568	63.5619
19.586	63.5617
19.604	63.5601
19.622	63.5573
19.64	63.5534
19.658	63.5489
19.676	63.544
19.694	63.5393
19.712	63.5349
19.73	63.5315
19.748	63.5293
19.766	63.5288
19.784	63.5302
19.802	63.5337
19.82	63.5395
19.838	63.5472
19.856	63.5568
19.874	63.568
19.892	63.5802
19.91	63.5932
19.928	63.6059
19.946	63.6185
19.964	63.6298
19.982	63.6397
20	63.6474
20.018	63.6526
20.036	63.6554
20.054	63.6554
20.072	63.653
20.09	63.6489
20.108	63.6428
20.126	63.6361
20.144	63.6288
20.162	63.6221
20.18	63.6164
20.198	63.612
20.216	63.61
20.234	63.61
20.252	63.6128
20.27	63.6182
20.288	63.6257
20.306	63.6356
20.324	63.6469
20.342	63.6595
20.36	63.6731
20.378	63.6867
20.396	63.7006
20.414	63.7144
20.432	63.7279
20.45	63.7417
20.468	63.7557
20.486	63.7705
20.504	63.7871
20.522	63.8054
20.54	63.8272
20.558	63.8522
20.576	63.8816
20.594	63.9159
20.612	63.9549
20.63	63.9994
20.648	64.049
20.666	64.1027
20.684	64.1609
20.702	64.2215
20.72	64.2837
20.738	64.3469
20.756	64.4075
20.774	64.4664
20.792	64.5197
20.81	64.5673
20.828	64.6076
20.846	64.6379
20.864	64.6589
20.882	64.6687
20.9	64.6671
20.918	64.6543
20.936	64.6297
20.954	64.5939
20.972	64.5484
20.99	64.4926
21.008	64.4291
21.026	64.3584
21.044	64.2813
21.062	64.2009
21.08	64.1164
21.098	64.0306
21.116	63.9442
21.134	63.8576
21.152	63.7728
21.17	63.6892
21.188	63.6084
21.206	63.5307
21.224	63.4562
21.242	63.3859
21.26	63.3195
21.278	63.2576
21.296	63.2004
21.314	63.1479
21.332	63.1007
21.35	63.0584
21.368	63.0214
21.386	62.9898
21.404	62.9635
21.422	62.9427
21.44	62.9275
21.458	62.9174
21.476	62.9125
21.494	62.9125
21.512	62.917
21.53	62.9262
21.548	62.9391
21.566	62.9551
21.584	62.9743
21.602	62.9952
21.62	63.0182
21.638	63.0424
21.656	63.0669
21.674	63.092
21.692	63.1168
21.71	63.1411
21.728	63.1649
21.746	63.1875
21.764	63.209
21.782	63.2293
21.8	63.2484
21.818	63.2663
21.836	63.2832
21.854	63.299
21.872	63.3139
21.89	63.3284
21.908	63.3422
21.926	63.3559
21.944	63.37
21.962	63.3842
21.98	63.3989
21.998	63.4144
22.016	63.4304
22.034	63.4472
22.052	63.4648
22.07	63.4827
22.088	63.5008
22.106	63.519
22.124	63.5367
22.142	63.5538
22.16	63.5702
22.178	63.5841
22.196	63.5963
22.214	63.6056
22.232	63.611
22.25	63.6129
22.268	63.6099
22.286	63.601
22.304	63.5867
22.322	63.5653
22.34	63.5367
22.358	63.5009
22.376	63.4567
22.394	63.4042
22.412	63.3437
22.43	63.2748
22.448	63.1975
22.466	63.1128
22.484	63.021
22.502	62.9218
22.52	62.8176
22.538	62.709
22.556	62.5958
22.574	62.4816
22.592	62.3662
22.61	62.2503
22.628	62.1384
22.646	62.0292
22.664	61.9247
22.682	61.8293
22.7	61.741
22.718	61.6625
22.736	61.5975
22.754	61.5443
22.772	61.505
22.79	61.4818
22.808	61.4735
22.826	61.4811
22.844	61.5058
22.862	61.5468
22.88	61.6036
22.898	61.6763
22.916	61.7649
22.934	61.8667
22.952	61.9816
22.97	62.1096
22.988	62.2464
23.006	62.3922
23.024	62.5466
23.042	62.7042
23.06	62.8654
23.078	63.0296
23.096	63.1913
23.114	63.351
23.132	63.508
23.15	63.6569
23.168	63.7985
23.186	63.932
23.204	64.053
23.222	64.1621
23.24	64.2589
23.258	64.3403
23.276	64.4063
23.294	64.4571
23.312	64.4913
23.33	64.5085
23.348	64.5095
23.366	64.4943
23.384	64.4627
23.402	64.4151
23.42	64.353
23.438	64.2757
23.456	64.184
23.474	64.0811
23.492	63.9665
23.51	63.8407
23.528	63.7087
23.546	63.5709
23.564	63.4267
23.582	63.2817
23.6	63.1376
23.618	62.9926
23.636	62.8523
23.654	62.7196
23.672	62.5919
23.69	62.4735
23.708	62.3674
23.726	62.2715
23.744	62.1878
23.762	62.1185
23.78	62.0628
23.798	62.0206
23.816	61.9922
23.834	61.9783
23.852	61.9772
23.87	61.9873
23.888	62.0102
23.906	62.0437
23.924	62.0835
23.942	62.1307
23.96	62.1845
23.978	62.2392
23.996	62.2933
24.014	62.3489
24.032	62.3997
24.05	62.442
24.068	62.4793
24.086	62.507
24.104	62.5206
24.122	62.5226
24.14	62.5114
24.158	62.484
24.176	62.4406
24.194	62.3819
24.212	62.3081
24.23	62.2184
24.248	62.1134
24.266	61.9954
24.284	61.8651
24.302	61.7209
24.32	61.5671
24.338	61.4072
24.356	61.238
24.374	61.0632
24.392	60.8884
24.41	60.7119
24.428	60.5344
24.446	60.3617
24.464	60.1959
24.482	60.0342
24.5	59.8814
24.518	59.7414
24.536	59.6116
24.554	59.4937
24.572	59.3905
24.59	59.3016
24.608	59.2266
24.626	59.167
24.644	59.1241
24.662	59.0972
24.68	59.0845
24.698	59.0844
24.716	59.0986
24.734	59.125
24.752	59.16
24.77	59.2051
24.788	59.2602
24.806	59.3186
24.824	59.3765
24.842	59.4391
24.86	59.4994
24.878	59.5484
24.896	59.5901
24.914	59.623
24.932	59.6385
24.95	59.6319
24.968	59.609
24.986	59.5635
25.004	59.4891
25.022	59.3877
25.04	59.2597
25.058	59.1026
25.076	58.9144
25.094	58.6965
25.112	58.4502
25.13	58.1764
25.148	57.8711
25.166	57.539
25.184	57.1883
25.202	56.8209
25.22	56.4308
25.238	56.0305
25.256	55.6324
25.274	55.2274
25.292	54.8205
25.31	54.4291
25.328	54.0616
25.346	53.7053
25.364	53.3751
25.382	53.088
25.4	52.8401
25.418	52.6289
25.436	52.4667
25.454	52.3632
25.472	52.3119
25.49	52.3138
25.508	52.3725
25.526	52.4913
25.544	52.6681
25.562	52.8965
25.58	53.1714
25.598	53.501
25.616	53.8779
25.634	54.2872
25.652	54.7223
25.67	55.1971
25.688	55.6927
25.706	56.1865
25.724	56.6818
25.742	57.186
25.76	57.6746
25.778	58.1253
25.796	58.5535
25.814	58.9535
25.832	59.3054
25.85	59.596
25.868	59.839
25.886	60.0269
25.904	60.1489
25.922	60.1997
25.94	60.1857
25.958	60.108
25.976	59.9673
25.994	59.7582
26.012	59.4849
26.03	59.159
26.048	58.7894
26.066	58.3641
26.084	57.8927
26.102	57.3925
26.12	56.8729
26.138	56.3183
26.156	55.744
26.174	55.1692
26.192	54.6001
26.21	54.0236
26.228	53.4531
26.246	52.903
26.264	52.3725
26.282	51.8557
26.3	51.3626
26.318	50.9033
26.336	50.4751
26.354	50.0757
26.372	49.7092
26.39	49.3796
26.408	49.0845
26.426	48.8237
26.444	48.5993
26.462	48.4127
26.48	48.2628
26.498	48.1495
26.516	48.0729
26.534	48.033
26.552	48.0282
26.57	48.0602
26.588	48.1316
26.606	48.2432
26.624	48.3914
26.642	48.58
26.66	48.8137
26.678	49.0945
26.696	49.4171
26.714	49.7865
26.732	50.2083
26.75	50.6854
26.768	51.2129
26.786	51.7935
26.804	52.4306
26.822	53.1264
26.84	53.879
26.858	54.6868
26.876	55.5488
26.894	56.4656
26.912	57.4401
26.93	58.4655
26.948	59.5348
26.966	60.7044
26.984	62.0692
27.002	63.3991
27.02	64.4441
27.028	64.721