File: Bakgrunnsmateriale/MATLAB/FTIR/ftir_data/subAa/Mapping_121/BZ1503107-1_t16_cm-1.asc
PE IR       SPECTRUM    SPECTRUM    ASCII       PEDS        1.60
  -1
BZ6EA1~1.ASC
17/04/07
14:30:22.00
17/04/07
14:30:22.00
tln
$BZ1503107-1_t0016$<tbV0>[2.6,-10.4,8.0,0.0,27,1,0]
370
64

2002,4.07
MIRTGS : RIGHTBACK : INTERNAL 2
MIR : ON : INTERNAL 2
OPTKBR

0.200000
8
8.000000
FILLER
RATIO
SPECTRUM
UNLOCKED 256

DOUBLE
64
COMBINED
1
0
0

1.000000
RATIO

1
0
TRUE
51149
0
LEFT NOT FITTED RIGHT NOT FITTED 0
NONE
NONE
15600
12
4.427000
51148
TRUE
1 0 8 72 0 0 0 0

15798

#HDR
-1
-1
#GR
CM-1
%T
2.38419e-05
0.0
5000
-1.000000
4631
8
75.3547
38.1804
#DATA
5000	64.2256
4996	63.5813
4992	63.7476
4988	64.6134
4984	65.4515
4980	65.0711
4976	63.9789
4972	63.682
4968	64.2866
4964	65.4678
4960	66.0728
4956	66.1173
4952	66.3897
4948	65.8895
4944	65.0759
4940	64.4484
4936	63.5376
4932	63.058
4928	63.5985
4924	64.7843
4920	65.4395
4916	65.5263
4912	65.4626
4908	64.9741
4904	64.5523
4900	64.5312
4896	64.9045
4892	65.3779
4888	65.5398
4884	65.5231
4880	65.3358
4876	64.913
4872	64.4736
4868	64.3807
4864	64.8013
4860	65.1249
4856	64.8958
4852	64.7516
4848	65.1608
4844	65.5771
4840	65.4844
4836	65.2018
4832	65.0416
4828	65.2328
4824	65.4782
4820	65.2713
4816	65.2201
4812	65.1667
4808	64.8539
4804	65.2325
4800	65.8342
4796	65.7263
4792	65.4878
4788	65.4246
4784	65.0789
4780	64.6938
4776	64.8951
4772	65.0052
4768	64.4763
4764	64.5946
4760	65.533
4756	65.6278
4752	65.0002
4748	64.7725
4744	64.8422
4740	64.7758
4736	64.6125
4732	64.7439
4728	64.9911
4724	64.9511
4720	64.6591
4716	64.5177
4712	64.464
4708	64.2842
4704	64.4703
4700	64.8389
4696	64.885
4692	64.974
4688	65.1946
4684	65.1468
4680	65.0366
4676	65.1526
4672	65.2212
4668	65.0965
4664	65.0455
4660	65.089
4656	64.9256
4652	64.6386
4648	64.5862
4644	64.6967
4640	64.6769
4636	64.6244
4632	64.7776
4628	64.9654
4624	64.8617
4620	64.6144
4616	64.5976
4612	64.6727
4608	64.5655
4604	64.5076
4600	64.5842
4596	64.6362
4592	64.6734
4588	64.6391
4584	64.6201
4580	64.6831
4576	64.7996
4572	64.7961
4568	64.5827
4564	64.5035
4560	64.5665
4556	64.5099
4552	64.307
4548	64.1446
4544	64.1838
4540	64.3404
4536	64.5176
4532	64.5513
4528	64.4773
4524	64.4681
4520	64.5291
4516	64.5168
4512	64.5654
4508	64.8657
4504	65.0509
4500	65.1855
4496	66.0091
4492	67.381
4488	67.7057
4484	68.5663
4480	69.6949
4476	67.7879
4472	65.1348
4468	63.7933
4464	63.1288
4460	63.1054
4456	62.3245
4452	63.2599
4448	67.1484
4444	68.2778
4440	68.6803
4436	67.9534
4432	65.5092
4428	66.7066
4424	67.4719
4420	66.2618
4416	65.72
4412	65.1567
4408	64.8115
4404	65.0123
4400	65.2633
4396	65.3257
4392	65.1866
4388	64.865
4384	64.7259
4380	64.9083
4376	65.0339
4372	64.8756
4368	64.611
4364	64.3915
4360	64.4654
4356	64.7474
4352	65.0029
4348	65.2992
4344	65.4579
4340	65.3293
4336	65.1064
4332	64.9263
4328	64.8776
4324	64.9142
4320	64.8786
4316	64.8874
4312	65.0331
4308	65.1748
4304	65.268
4300	65.2
4296	65.0222
4292	64.9369
4288	64.925
4284	64.9652
4280	64.9968
4276	65.0494
4272	65.124
4268	65.0956
4264	65.0496
4260	65.0211
4256	65.032
4252	65.1635
4248	65.1433
4244	64.9347
4240	64.948
4236	65.1103
4232	65.1051
4228	64.9999
4224	65.0122
4220	65.1445
4216	65.16
4212	65.0746
4208	65.1389
4204	65.2682
4200	65.2353
4196	65.0141
4192	64.8201
4188	64.8098
4184	64.8539
4180	64.8557
4176	64.9693
4172	65.2514
4168	65.2779
4164	65.0378
4160	64.964
4156	65.0274
4152	65.0653
4148	64.951
4144	64.8483
4140	65.0268
4136	65.2747
4132	65.3385
4128	65.2116
4124	65.0165
4120	65.0222
4116	65.2619
4112	65.4291
4108	65.37
4104	65.2632
4100	65.2168
4096	65.1384
4092	65.1001
4088	65.118
4084	65.0752
4080	65.1126
4076	65.2493
4072	65.2345
4068	65.1387
4064	65.1352
4060	65.1371
4056	65.165
4052	65.2497
4048	65.2549
4044	65.1767
4040	65.1471
4036	65.156
4032	65.1378
4028	65.1177
4024	65.1273
4020	65.1926
4016	65.2346
4012	65.1762
4008	65.1352
4004	65.1742
4000	65.2366
3996	65.2264
3992	65.1368
3988	65.0695
3984	65.0908
3980	65.1383
3976	65.1191
3972	65.1503
3968	65.2004
3964	65.2098
3960	65.1814
3956	65.0501
3952	65.0661
3948	65.2963
3944	65.519
3940	65.5385
3936	65.2417
3932	64.9208
3928	64.8244
3924	64.9254
3920	65.1134
3916	65.1439
3912	64.9801
3908	64.8088
3904	64.7275
3900	64.8018
3896	65.0092
3892	65.1759
3888	65.2302
3884	65.1804
3880	65.0429
3876	64.938
3872	64.9517
3868	65.0736
3864	65.1094
3860	65.0811
3856	65.3162
3852	65.5397
3848	65.4366
3844	65.3436
3840	65.4103
3836	65.4276
3832	65.3359
3828	65.248
3824	65.2485
3820	65.3655
3816	65.3565
3812	65.1996
3808	65.1591
3804	65.1593
3800	65.1077
3796	65.0972
3792	65.1546
3788	65.1904
3784	65.1554
3780	65.0825
3776	64.994
3772	65.0345
3768	65.25
3764	65.3604
3760	65.3283
3756	65.4006
3752	65.5269
3748	65.5413
3744	65.4854
3740	65.4261
3736	65.3523
3732	65.2299
3728	65.127
3724	65.131
3720	65.2375
3716	65.3498
3712	65.3336
3708	65.2768
3704	65.2853
3700	65.2343
3696	65.1419
3692	65.1807
3688	65.3182
3684	65.4405
3680	65.5291
3676	65.5838
3672	65.5545
3668	65.3872
3664	65.2373
3660	65.2502
3656	65.2844
3652	65.3008
3648	65.3467
3644	65.3161
3640	65.2657
3636	65.3057
3632	65.4131
3628	65.5314
3624	65.5569
3620	65.4193
3616	65.2521
3612	65.2527
3608	65.3203
3604	65.3155
3600	65.2667
3596	65.2144
3592	65.235
3588	65.2497
3584	65.2384
3580	65.2859
3576	65.3288
3572	65.3744
3568	65.4037
3564	65.334
3560	65.1788
3556	65.0806
3552	65.1033
3548	65.109
3544	65.0988
3540	65.1328
3536	65.1047
3532	65.0291
3528	65.0361
3524	65.1055
3520	65.1896
3516	65.2463
3512	65.2743
3508	65.3
3504	65.2696
3500	65.1761
3496	65.0937
3492	65.0899
3488	65.1672
3484	65.2642
3480	65.3175
3476	65.2426
3472	65.0363
3468	64.919
3464	64.9523
3460	65.0032
3456	65.0564
3452	65.0851
3448	65.104
3444	65.1955
3440	65.2972
3436	65.3085
3432	65.3017
3428	65.3238
3424	65.3208
3420	65.3395
3416	65.369
3412	65.3247
3408	65.2707
3404	65.2683
3400	65.2429
3396	65.1664
3392	65.0945
3388	65.0843
3384	65.1486
3380	65.1555
3376	65.0684
3372	65.0783
3368	65.1731
3364	65.1683
3360	65.1339
3356	65.155
3352	65.1246
3348	65.0478
3344	65.0696
3340	65.1747
3336	65.3073
3332	65.4732
3328	65.5105
3324	65.4181
3320	65.3726
3316	65.3498
3312	65.2773
3308	65.1755
3304	65.1051
3300	65.1089
3296	65.2103
3292	65.3281
3288	65.3516
3284	65.358
3280	65.3973
3276	65.3487
3272	65.2343
3268	65.1911
3264	65.2014
3260	65.1945
3256	65.2221
3252	65.2111
3248	65.0842
3244	64.9858
3240	64.9878
3236	65.0867
3232	65.1607
3228	65.1346
3224	65.1062
3220	65.0795
3216	65.0544
3212	65.0896
3208	65.222
3204	65.3285
3200	65.3061
3196	65.2675
3192	65.2433
3188	65.1519
3184	65.0678
3180	65.1337
3176	65.2692
3172	65.3163
3168	65.2467
3164	65.1908
3160	65.2259
3156	65.2191
3152	65.1553
3148	65.1163
3144	65.0476
3140	64.9742
3136	64.994
3132	65.0558
3128	65.0812
3124	65.0738
3120	65.0679
3116	65.0494
3112	65.0365
3108	65.0989
3104	65.1938
3100	65.2654
3096	65.2895
3092	65.2518
3088	65.1565
3084	65.085
3080	65.0906
3076	65.1232
3072	65.1864
3068	65.224
3064	65.2024
3060	65.1615
3056	65.1183
3052	65.1304
3048	65.1443
3044	65.1417
3040	65.1964
3036	65.2217
3032	65.2041
3028	65.2075
3024	65.1959
3020	65.178
3016	65.1589
3012	65.169
3008	65.2182
3004	65.1655
3000	65.076
2996	65.1471
2992	65.2479
2988	65.2017
2984	65.1027
2980	65.0815
2976	65.1771
2972	65.2769
2968	65.1874
2964	65.0485
2960	65.0264
2956	64.977
2952	64.9224
2948	64.9222
2944	64.9498
2940	65.0575
2936	65.1278
2932	65.098
2928	65.0594
2924	64.9981
2920	65.0083
2916	65.0781
2912	65.0757
2908	65.0572
2904	65.0455
2900	65.0228
2896	65.0121
2892	65.043
2888	65.0643
2884	64.9899
2880	64.9505
2876	65.0342
2872	65.1159
2868	65.1295
2864	65.1003
2860	65.0556
2856	65.0119
2852	65.0135
2848	65.0373
2844	65.052
2840	65.096
2836	65.1305
2832	65.1275
2828	65.0679
2824	64.9762
2820	64.986
2816	65.0718
2812	65.0778
2808	65.0509
2804	65.0843
2800	65.1042
2796	65.0987
2792	65.0861
2788	65.0665
2784	65.0951
2780	65.1542
2776	65.1628
2772	65.1289
2768	65.0925
2764	65.0676
2760	65.0671
2756	65.0901
2752	65.1343
2748	65.1494
2744	65.0854
2740	65.0189
2736	65.0269
2732	65.0496
2728	65.0875
2724	65.1489
2720	65.13
2716	65.1093
2712	65.1409
2708	65.1225
2704	65.1095
2700	65.1288
2696	65.1196
2692	65.1232
2688	65.1268
2684	65.0812
2680	65.0842
2676	65.1547
2672	65.1656
2668	65.1063
2664	65.047
2660	65.0487
2656	65.094
2652	65.0829
2648	65.048
2644	65.0313
2640	65.0153
2636	65.0453
2632	65.0977
2628	65.1066
2624	65.102
2620	65.1017
2616	65.0995
2612	65.1225
2608	65.0987
2604	65.0227
2600	65.0312
2596	65.1056
2592	65.1591
2588	65.179
2584	65.1519
2580	65.1159
2576	65.0967
2572	65.0531
2568	65.0373
2564	65.0898
2560	65.1281
2556	65.1316
2552	65.1208
2548	65.075
2544	65.0223
2540	65.0171
2536	65.0829
2532	65.1713
2528	65.2382
2524	65.2323
2520	65.1415
2516	65.1063
2512	65.1495
2508	65.1715
2504	65.1398
2500	65.0521
2496	64.9939
2492	65.0349
2488	65.0989
2484	65.0852
2480	65.0214
2476	65.0232
2472	65.0862
2468	65.102
2464	65.0666
2460	65.0491
2456	65.0647
2452	65.0574
2448	65.0145
2444	64.9733
2440	64.9556
2436	64.9877
2432	65.0236
2428	65.0219
2424	65.0218
2420	65.0346
2416	65.0443
2412	65.0448
2408	65.0282
2404	65.0331
2400	65.0453
2396	64.9882
2392	64.9266
2388	64.947
2384	65.0045
2380	65.0619
2376	65.0999
2372	65.103
2368	65.1174
2364	65.1327
2360	65.1085
2356	65.0793
2352	65.0748
2348	65.0802
2344	65.0711
2340	65.0509
2336	65.0547
2332	65.0462
2328	65.0091
2324	64.9791
2320	64.934
2316	64.9212
2312	64.9616
2308	64.9522
2304	64.89
2300	64.8739
2296	64.9279
2292	64.9743
2288	64.9738
2284	64.9745
2280	65.0178
2276	65.0471
2272	64.9996
2268	64.9428
2264	64.9461
2260	64.9733
2256	64.9667
2252	64.9543
2248	64.9718
2244	64.9982
2240	64.9801
2236	64.9274
2232	64.9374
2228	64.974
2224	64.9654
2220	64.9533
2216	64.9468
2212	64.9466
2208	64.9469
2204	64.9444
2200	64.9506
2196	64.9276
2192	64.9225
2188	64.95
2184	64.9469
2180	64.9214
2176	64.9114
2172	64.9635
2168	65.036
2164	64.9807
2160	64.7857
2156	64.6929
2152	64.7335
2148	64.7649
2144	64.8006
2140	64.8287
2136	64.8338
2132	64.8572
2128	64.9137
2124	64.9817
2120	65.0132
2116	64.9593
2112	64.8852
2108	64.8649
2104	64.8389
2100	64.7982
2096	64.8169
2092	64.8705
2088	64.9046
2084	64.9469
2080	64.9742
2076	64.9395
2072	64.8962
2068	64.8661
2064	64.8574
2060	64.8685
2056	64.8668
2052	64.8897
2048	64.9287
2044	64.8915
2040	64.8273
2036	64.8567
2032	64.9267
2028	64.938
2024	64.8831
2020	64.8356
2016	64.8767
2012	64.9588
2008	64.9528
2004	64.8892
2000	64.8604
1996	64.8503
1992	64.8445
1988	64.8097
1984	64.7792
1980	64.8099
1976	64.8284
1972	64.8088
1968	64.7893
1964	64.824
1960	64.8811
1956	64.8568
1952	64.8249
1948	64.8536
1944	64.8785
1940	64.8346
1936	64.7724
1932	64.7609
1928	64.7506
1924	64.7731
1920	64.8379
1916	64.8584
1912	64.8456
1908	64.8517
1904	64.8892
1900	64.9256
1896	64.9209
1892	64.8795
1888	64.8153
1884	64.7766
1880	64.7841
1876	64.8023
1872	64.8295
1868	64.848
1864	64.8182
1860	64.7784
1856	64.796
1852	64.8058
1848	64.8109
1844	64.864
1840	64.8575
1836	64.7864
1832	64.762
1828	64.7956
1824	64.8452
1820	64.8799
1816	64.8792
1812	64.8444
1808	64.813
1804	64.8284
1800	64.8488
1796	64.7982
1792	64.7424
1788	64.771
1784	64.8069
1780	64.8164
1776	64.8697
1772	64.9208
1768	64.896
1764	64.8596
1760	64.8421
1756	64.7874
1752	64.7037
1748	64.6007
1744	64.4705
1740	64.4061
1736	64.4413
1732	64.4084
1728	64.3406
1724	64.4573
1720	64.6614
1716	64.7259
1712	64.6669
1708	64.6411
1704	64.7396
1700	64.8736
1696	64.8623
1692	64.7623
1688	64.7584
1684	64.7542
1680	64.6858
1676	64.696
1672	64.7591
1668	64.779
1664	64.724
1660	64.6773
1656	64.7761
1652	64.8519
1648	64.7661
1644	64.7022
1640	64.7177
1636	64.6849
1632	64.6314
1628	64.6747
1624	64.75
1620	64.7941
1616	64.7481
1612	64.6293
1608	64.6426
1604	64.7461
1600	64.7737
1596	64.7413
1592	64.7068
1588	64.7096
1584	64.759
1580	64.8171
1576	64.818
1572	64.7422
1568	64.6863
1564	64.7698
1560	64.9416
1556	64.9538
1552	64.8452
1548	64.8371
1544	64.8539
1540	64.7716
1536	64.6691
1532	64.6625
1528	64.7113
1524	64.7349
1520	64.7407
1516	64.7496
1512	64.8055
1508	64.8795
1504	64.8635
1500	64.8185
1496	64.7869
1492	64.6931
1488	64.6197
1484	64.5887
1480	64.5863
1476	64.6315
1472	64.6073
1468	64.5329
1464	64.4974
1460	64.5253
1456	64.5961
1452	64.5841
1448	64.5426
1444	64.5828
1440	64.6614
1436	64.6669
1432	64.5974
1428	64.512
1424	64.4335
1420	64.423
1416	64.4472
1412	64.469
1408	64.5185
1404	64.5585
1400	64.5301
1396	64.4794
1392	64.4427
1388	64.4012
1384	64.4012
1380	64.4321
1376	64.4347
1372	64.4363
1368	64.4813
1364	64.5199
1360	64.4588
1356	64.3909
1352	64.4453
1348	64.5505
1344	64.5929
1340	64.5528
1336	64.4952
1332	64.4759
1328	64.4573
1324	64.4063
1320	64.3324
1316	64.2598
1312	64.23
1308	64.2143
1304	64.2388
1300	64.3146
1296	64.3561
1292	64.4008
1288	64.4322
1284	64.3442
1280	64.2244
1276	64.1769
1272	64.1876
1268	64.2387
1264	64.2748
1260	64.2548
1256	64.242
1252	64.2399
1248	64.1917
1244	64.1773
1240	64.2317
1236	64.2562
1232	64.2393
1228	64.2354
1224	64.252
1220	64.231
1216	64.1927
1212	64.2143
1208	64.2428
1204	64.2005
1200	64.1949
1196	64.2969
1192	64.3889
1188	64.3832
1184	64.2971
1180	64.1772
1176	64.088
1172	64.0732
1168	64.0898
1164	64.0954
1160	64.1205
1156	64.175
1152	64.1682
1148	64.1417
1144	64.219
1140	64.3635
1136	64.4557
1132	64.5009
1128	64.5187
1124	64.441
1120	64.3076
1116	64.2221
1112	64.175
1108	64.0961
1104	64.0521
1100	64.0648
1096	64.0837
1092	64.1766
1088	64.2687
1084	64.356
1080	64.4006
1076	64.2509
1072	64.076
1068	64.0356
1064	64.1062
1060	64.219
1056	64.2668
1052	64.2442
1048	64.1836
1044	64.0798
1040	64.0658
1036	64.182
1032	64.2838
1028	64.2638
1024	64.1565
1020	64.1378
1016	64.2233
1012	64.2819
1008	64.2718
1004	64.211
1000	64.1579
996	 64.2427
992	 64.3377
988	 64.1826
984	 63.915
980	 63.7975
976	 63.9215
972	 64.144
968	 64.2407
964	 64.2197
960	 64.2207
956	 64.2565
952	 64.2814
948	 64.2929
944	 64.2543
940	 64.2034
936	 64.2135
932	 64.2835
928	 64.3724
924	 64.3667
920	 64.3421
916	 64.4211
912	 64.4184
908	 64.2494
904	 64.1368
900	 64.2037
896	 64.2124
892	 64.0658
888	 64.0274
884	 64.0932
880	 64.1315
876	 64.1895
872	 64.1667
868	 64.0547
864	 64.0469
860	 64.1615
856	 64.3011
852	 64.4049
848	 64.4312
844	 64.3598
840	 64.1955
836	 64.0914
832	 64.0875
828	 64.0759
824	 64.0912
820	 64.0762
816	 64.0719
812	 64.164
808	 64.2111
804	 64.1641
800	 64.101
796	 64.0992
792	 64.1851
788	 64.3056
784	 64.3723
780	 64.3388
776	 64.2246
772	 64.1565
768	 64.1256
764	 64.0637
760	 64.0983
756	 64.2074
752	 64.1724
748	 64.0398
744	 63.9965
740	 63.9896
736	 63.9358
732	 63.9792
728	 64.1206
724	 64.1207
720	 64.0681
716	 64.1426
712	 64.2174
708	 64.114
704	 63.9466
700	 63.99
696	 64.193
692	 64.349
688	 64.3324
684	 64.0544
680	 63.7838
676	 63.7564
672	 63.7269
668	 63.5859
664	 63.5299
660	 63.6639
656	 63.7922
652	 63.8499
648	 64.0686
644	 64.3094
640	 64.3241
636	 64.1536
632	 63.9971
628	 64.0411
624	 64.1016
620	 63.9883
616	 63.8976
612	 63.9428
608	 64.052
604	 64.2044
600	 64.2604
596	 64.2159
592	 64.322
588	 64.4054
584	 64.4325
580	 64.7466
576	 64.9376
572	 64.4745
568	 63.8409
564	 64.0648
560	 64.7547
556	 65.0061
552	 65.0163
548	 64.8231
544	 64.9483
540	 65.2912
536	 64.4759
532	 63.2134
528	 63.0563
524	 63.5236
520	 63.4984
516	 63.6496
512	 64.2515
508	 63.8149
504	 63.0894
500	 63.751
496	 64.5199
492	 64.1953
488	 63.3914
484	 63.1453
480	 63.2402
476	 63.172
472	 63.4379
468	 63.752
464	 64.1034
460	 64.279
456	 63.6085
452	 63.8488
448	 64.6034
444	 64.0247
440	 64.459
436	 66.0897
432	 66.3993
428	 66.2495
424	 65.5068
420	 63.3545
416	 63.3828
412	 65.6473
408	 65.065
404	 60.6207
400	 59.4864
396	 62.8189
392	 61.6711
388	 58.0132
384	 63.3937
380	 70.8087
376	 73.4749
372	 38.1804
370	 51.1831