File: Bakgrunnsmateriale/MATLAB/FTIR/ftir_data/subAa/Mapping_121/BZ1503107-1_t103.asc
PE IR       SPECTRUM    SPECTRUM    ASCII       PEDS        1.60
  -1
BZD6BE~1.ASC
17/04/07
21:42:04.00
17/04/07
21:42:30.00
tln
$BZ1503107-1_t0103$<tbV0>[5.2,10.4,8.0,0.0,27,1,0]
27.028
64

2002,4.07
MIRTGS : RIGHTBACK : INTERNAL 2
MIR : ON : INTERNAL 2
OPTKBR

0.200000
8
8.000000
FILLER
RATIO
SPECTRUM
UNLOCKED 256

DOUBLE
64
COMBINED
1
0
0

0.002000
RATIO

1
0
TRUE
51149
0
LEFT NOT FITTED RIGHT NOT FITTED 0
NONE
NONE
15600
12
4.427000
51148
TRUE
1 0 8 72 0 0 0 0

15798

#HDR
-1
-1
#GR
µM
%T
2.38419e-05
0.0
2.000000
0.002000
12515
8
78.0134
50.2427
#DATA
2.000000	 66.379
2.018000	 64.7632
2.036000	 64.6571
2.054000	 64.8041
2.072000	 64.7049
2.090000	 65.0831
2.108000	 64.7613
2.126000	 64.6156
2.144000	 64.7266
2.162000	 65.4207
2.180000	 64.9832
2.198000	 64.867
2.216000	 64.9397
2.234000	 64.4796
2.252000	 74.8561
2.270000	 64.9687
2.288000	 64.9821
2.306000	 65.068
2.324000	 64.7155
2.342000	 64.8438
2.360000	 64.9557
2.378000	 64.8625
2.396000	 65.3126
2.414000	 64.9072
2.432000	 64.8549
2.450000	 65.0924
2.468000	 64.8188
2.486000	 64.9261
2.504000	 64.9165
2.522000	 64.9026
2.540000	 64.7959
2.558000	 64.7171
2.576000	 64.7906
2.594000	 65.1542
2.612000	 64.9127
2.630000	 65.0293
2.648000	 65.0038
2.666000	 65.0422
2.684000	 64.9591
2.702000	 65.1385
2.720000	 65.0233
2.738000	 64.8801
2.756000	 64.7964
2.774000	 64.8961
2.792000	 64.9304
2.810000	 64.8588
2.828000	 64.8976
2.846000	 64.9033
2.864000	 65.037
2.882000	 65.0742
2.900000	 64.8431
2.918000	 64.9602
2.936000	 65.0094
2.954000	 65.0118
2.972000	 64.9494
2.990000	 64.9553
3.008000	 64.8015
3.026000	 64.8207
3.044000	 64.796
3.062000	 64.8689
3.080000	 64.9148
3.098000	 64.8384
3.116000	 64.7454
3.134000	 64.7703
3.152000	 64.8772
3.170000	 64.764
3.188000	 64.81
3.206000	 64.8195
3.224000	 64.7395
3.242000	 64.7519
3.260000	 64.7444
3.278000	 64.8193
3.296000	 64.6939
3.314000	 64.8163
3.332000	 64.6929
3.350000	 64.5716
3.368000	 64.6172
3.386000	 64.5061
3.404000	 64.51
3.422000	 64.6717
3.440000	 64.6303
3.458000	 64.5689
3.476000	 64.6243
3.494000	 64.7072
3.512000	 64.6135
3.530000	 64.7004
3.548000	 64.6928
3.566000	 64.563
3.584000	 64.6614
3.602000	 64.7371
3.620000	 64.7388
3.638000	 64.6755
3.656000	 64.6704
3.674000	 64.6677
3.692000	 64.7621
3.710000	 64.5863
3.728000	 64.5826
3.746000	 64.6474
3.764000	 64.6141
3.782000	 64.7133
3.800000	 64.565
3.818000	 64.4831
3.836000	 64.5048
3.854000	 64.5118
3.872000	 64.5871
3.890000	 64.5937
3.908000	 64.5946
3.926000	 64.5975
3.944000	 64.4931
3.962000	 64.5069
3.980000	 64.4609
3.998000	 64.4976
4.016000	 64.5649
4.034000	 64.5186
4.052000	 64.4986
4.070000	 64.5696
4.088000	 64.5192
4.106000	 64.4647
4.124000	 64.3981
4.141999	 64.4568
4.160000	 64.4114
4.178000	 64.449
4.196000	 64.4302
4.214000	 64.4713
4.232000	 64.508
4.250000	 64.4525
4.268000	 64.4327
4.286000	 64.4034
4.304000	 64.5137
4.322000	 64.2885
4.340000	 64.3529
4.358000	 64.4288
4.375999	 64.3171
4.394000	 64.3535
4.412000	 64.3305
4.430000	 64.4412
4.448000	 64.3114
4.466000	 64.2443
4.484000	 64.2897
4.502000	 64.322
4.520000	 64.3157
4.538000	 64.2607
4.556000	 64.2941
4.574000	 64.2694
4.592000	 64.2533
4.609999	 64.297
4.628000	 64.2483
4.646000	 64.2297
4.664000	 64.2555
4.682000	 64.3197
4.700000	 64.2451
4.718000	 64.1785
4.736000	 64.1807
4.754000	 64.2927
4.772000	 64.2267
4.790000	 64.2162
4.808000	 64.1162
4.826000	 64.0359
4.843999	 64.1577
4.862000	 64.2069
4.880000	 64.2403
4.898000	 64.1611
4.916000	 64.1492
4.934000	 64.0829
4.952000	 64.0221
4.970000	 64.0111
4.988000	 64.1251
5.006000	 64.1136
5.024000	 64.1183
5.042000	 64.1084
5.060000	 64.1446
5.077999	 64.1243
5.096000	 64.0243
5.114000	 63.9967
5.132000	 63.9814
5.150000	 64.0345
5.168000	 64.0189
5.186000	 64.005
5.204000	 63.9876
5.222000	 63.9673
5.240000	 64.0524
5.258000	 64.0432
5.276000	 64.0241
5.294000	 64.0117
5.312000	 63.9738
5.330000	 63.9953
5.348000	 63.9842
5.366000	 63.918
5.384000	 63.9518
5.402000	 63.9065
5.420000	 63.8533
5.438000	 63.9213
5.456000	 63.9721
5.474000	 63.9214
5.492000	 63.9367
5.510000	 63.9421
5.528000	 63.8685
5.546000	 63.8899
5.564000	 63.8597
5.582000	 63.8538
5.600000	 63.7862
5.618000	 63.7565
5.636000	 63.7771
5.654000	 63.8415
5.672000	 63.8712
5.690000	 63.7822
5.708000	 63.6743
5.726000	 63.687
5.744000	 63.6649
5.762000	 63.5545
5.780000	 63.5391
5.798000	 63.6565
5.816000	 63.7023
5.834000	 63.7318
5.852000	 63.7367
5.870000	 63.6753
5.888000	 63.5764
5.906000	 63.654
5.923999	 63.6134
5.942000	 63.5187
5.960000	 63.5419
5.978000	 63.5943
5.996000	 63.6088
6.014000	 63.6667
6.032000	 63.712
6.050000	 63.6668
6.068000	 63.6895
6.086000	 63.6568
6.104000	 63.5717
6.122000	 63.5503
6.140000	 63.5475
6.158000	 63.6024
6.176000	 63.6704
6.194000	 63.6354
6.212000	 63.6168
6.230000	 63.6612
6.248000	 63.6058
6.266000	 63.5916
6.284000	 63.6912
6.302000	 63.7001
6.320000	 63.537
6.338000	 63.3937
6.356000	 63.4726
6.374000	 63.6435
6.392000	 63.6858
6.410000	 63.6336
6.428000	 63.625
6.446000	 63.5889
6.464000	 63.5706
6.482000	 63.6479
6.500000	 63.6593
6.518000	 63.5501
6.536000	 63.4613
6.554000	 63.458
6.572000	 63.457
6.590000	 63.4547
6.608000	 63.4724
6.626000	 63.4413
6.644000	 63.4314
6.662000	 63.5385
6.680000	 63.6653
6.698000	 63.634
6.716000	 63.4988
6.734000	 63.3768
6.752000	 63.3035
6.770000	 63.3475
6.788000	 63.406
6.806000	 63.3282
6.824000	 63.2162
6.842000	 63.2003
6.860000	 63.2593
6.878000	 63.3038
6.896000	 63.302
6.914000	 63.298
6.932000	 63.2895
6.950000	 63.2994
6.968000	 63.3406
6.986000	 63.3281
7.004000	 63.2819
7.022000	 63.3057
7.040000	 63.3639
7.058000	 63.3921
7.076000	 63.4199
7.094000	 63.4497
7.112000	 63.4439
7.130000	 63.4056
7.148000	 63.346
7.166000	 63.2869
7.184000	 63.2765
7.202000	 63.3078
7.220000	 63.332
7.238000	 63.3402
7.256000	 63.3395
7.274000	 63.3286
7.292000	 63.3049
7.310000	 63.2526
7.328000	 63.1877
7.346000	 63.1758
7.364000	 63.2306
7.382000	 63.2833
7.400000	 63.2909
7.418000	 63.279
7.436000	 63.2569
7.454000	 63.201
7.472000	 63.1423
7.490000	 63.1519
7.508000	 63.2117
7.526000	 63.2273
7.544000	 63.1921
7.562000	 63.2007
7.580000	 63.2779
7.598000	 63.3306
7.616000	 63.2908
7.634000	 63.2041
7.652000	 63.1642
7.670000	 63.1951
7.688000	 63.2254
7.706000	 63.1928
7.724000	 63.1309
7.742000	 63.0998
7.760000	 63.1036
7.778000	 63.1235
7.796000	 63.1546
7.814000	 63.1811
7.832000	 63.1779
7.850000	 63.1384
7.868000	 63.0732
7.886000	 63.0075
7.904000	 62.9726
7.922000	 62.9718
7.940000	 62.9781
7.958000	 62.982
7.976000	 63.0002
7.994000	 63.0347
8.012000	 63.0635
8.030000	 63.0673
8.048000	 63.0469
8.065999	 63.0151
8.084000	 62.9865
8.102000	 62.9762
8.120000	 62.9985
8.138000	 63.0529
8.155999	 63.1167
8.173999	 63.1602
8.192000	 63.1659
8.210000	 63.1341
8.228000	 63.0844
8.246000	 63.041
8.263999	 63.0147
8.282000	 63.0064
8.300000	 63.0183
8.318000	 63.0432
8.336000	 63.0542
8.353999	 63.0319
8.372000	 62.9893
8.390000	 62.9529
8.408000	 62.9313
8.426000	 62.9211
8.443999	 62.9253
8.462000	 62.9453
8.480000	 62.9671
8.498000	 62.9756
8.516000	 62.9718
8.533999	 62.9616
8.552000	 62.9391
8.570000	 62.897
8.588000	 62.8491
8.606000	 62.831
8.624000	 62.867
8.641999	 62.9434
8.660000	 63.0182
8.678000	 63.0568
8.696000	 63.0526
8.714000	 63.0144
8.731999	 62.9514
8.750000	 62.8794
8.768000	 62.827
8.786000	 62.8169
8.804000	 62.8418
8.821999	 62.8713
8.840000	 62.8829
8.858000	 62.8813
8.876000	 62.8845
8.894000	 62.8978
8.911999	 62.9104
8.930000	 62.915
8.948000	 62.9208
8.966000	 62.9429
8.984000	 62.9809
9.001999	 63.0146
9.020000	 63.0218
9.038000	 63.0006
9.056000	 62.973
9.074000	 62.968
9.092000	 62.9966
9.109999	 63.039
9.128000	 63.0577
9.146000	 63.0287
9.164000	 62.9627
9.182000	 62.8929
9.199999	 62.8448
9.218000	 62.8181
9.236000	 62.7976
9.254000	 62.7749
9.272000	 62.7562
9.289999	 62.7511
9.308000	 62.7615
9.326000	 62.7826
9.344000	 62.8103
9.362000	 62.8419
9.379999	 62.87
9.398000	 62.8811
9.416000	 62.8668
9.434000	 62.8347
9.452000	 62.8055
9.469999	 62.798
9.488000	 62.8129
9.506000	 62.8327
9.524000	 62.8354
9.542000	 62.8139
9.560000	 62.781
9.577999	 62.757
9.596000	 62.751
9.614000	 62.7555
9.632000	 62.7578
9.650000	 62.7565
9.667999	 62.7649
9.686000	 62.7984
9.704000	 62.8588
9.722000	 62.9278
9.740000	 62.9779
9.757999	 62.9887
9.776000	 62.958
9.794000	 62.9015
9.812000	 62.8419
9.830000	 62.7981
9.847999	 62.7789
9.866000	 62.7819
9.884000	 62.7957
9.902000	 62.8063
9.920000	 62.8043
9.937999	 62.7899
9.956000	 62.7725
9.974000	 62.7646
9.992000	 62.7743
10.01	62.7994
10.028	62.828
10.046	62.8455
10.064	62.845
10.082	62.8307
10.1	62.8139
10.118	62.8044
10.136	62.8033
10.154	62.8048
10.172	62.8028
10.19	62.7969
10.208	62.792
10.226	62.7918
10.244	62.7934
10.262	62.7877
10.28	62.7667
10.298	62.7303
10.316	62.6881
10.334	62.6533
10.352	62.6351
10.37	62.6342
10.388	62.6447
10.406	62.6606
10.424	62.6787
10.442	62.7001
10.46	62.7269
10.478	62.7601
10.496	62.7973
10.514	62.8341
10.532	62.8653
10.55	62.8872
10.568	62.8978
10.586	62.8969
10.604	62.8845
10.622	62.8614
10.64	62.8306
10.658	62.7991
10.676	62.7785
10.694	62.7804
10.712	62.8116
10.73	62.8679
10.748	62.9354
10.766	62.9951
10.784	63.0332
10.802	63.0463
10.82	63.0411
10.838	63.0286
10.856	63.0164
10.874	63.0053
10.892	62.9921
10.91	62.9739
10.928	62.9525
10.946	62.9327
10.964	62.9169
10.982	62.9023
11	62.8804
11.018	62.8427
11.036	62.7876
11.054	62.7233
11.072	62.6639
11.09	62.6224
11.108	62.6023
11.126	62.5967
11.144	62.5947
11.162	62.5868
11.18	62.5714
11.198	62.5554
11.216	62.5486
11.234	62.5587
11.252	62.5869
11.27	62.626
11.288	62.6625
11.306	62.6834
11.324	62.6805
11.342	62.6555
11.36	62.6188
11.378	62.5886
11.396	62.5817
11.414	62.6085
11.432	62.6679
11.45	62.7479
11.468	62.8299
11.486	62.897
11.504	62.9397
11.522	62.9575
11.54	62.9559
11.558	62.9435
11.576	62.9275
11.594	62.9118
11.612	62.8974
11.63	62.8831
11.648	62.8664
11.666	62.8446
11.684	62.8147
11.702	62.7746
11.72	62.7242
11.738	62.6663
11.756	62.606
11.774	62.5512
11.792	62.5096
11.81	62.4863
11.828	62.4824
11.846	62.4951
11.864	62.5183
11.882	62.5458
11.9	62.5721
11.918	62.5939
11.936	62.6095
11.954	62.618
11.972	62.6193
11.99	62.6128
12.008	62.599
12.026	62.5799
12.044	62.5602
12.062	62.5468
12.08	62.5469
12.098	62.5657
12.116	62.6037
12.134	62.6558
12.152	62.7121
12.17	62.7616
12.188	62.7948
12.206	62.8076
12.224	62.8007
12.242	62.7787
12.26	62.7476
12.278	62.7133
12.296	62.6803
12.314	62.6517
12.332	62.6289
12.35	62.6123
12.368	62.6013
12.386	62.5945
12.404	62.5902
12.422	62.5874
12.44	62.5852
12.458	62.5832
12.476	62.5811
12.494	62.5782
12.512	62.5736
12.53	62.5663
12.548	62.5563
12.566	62.5442
12.584	62.5321
12.602	62.523
12.62	62.5203
12.638	62.5263
12.656	62.5414
12.674	62.5632
12.692	62.5875
12.71	62.6092
12.728	62.6236
12.746	62.6278
12.764	62.6217
12.782	62.6069
12.8	62.5872
12.818	62.5663
12.836	62.5475
12.854	62.5326
12.872	62.5219
12.89	62.5138
12.908	62.5059
12.926	62.4955
12.944	62.4811
12.962	62.4625
12.98	62.4413
12.998	62.4206
13.016	62.4045
13.034	62.3969
13.052	62.4007
13.07	62.4167
13.088	62.4434
13.106	62.4772
13.124	62.5132
13.142	62.5459
13.16	62.5711
13.178	62.5859
13.196	62.5896
13.214	62.5835
13.232	62.5698
13.25	62.5518
13.268	62.532
13.286	62.5131
13.304	62.4973
13.322	62.4866
13.34	62.4828
13.358	62.4875
13.376	62.502
13.394	62.5265
13.412	62.56
13.43	62.5996
13.448	62.6414
13.466	62.6799
13.484	62.7099
13.502	62.7266
13.52	62.7275
13.538	62.7122
13.556	62.683
13.574	62.6442
13.592	62.6014
13.61	62.5605
13.628	62.5265
13.646	62.5028
13.664	62.4904
13.682	62.4887
13.7	62.4951
13.718	62.5058
13.736	62.5169
13.754	62.5246
13.772	62.5264
13.79	62.5206
13.808	62.5068
13.826	62.4854
13.844	62.4574
13.862	62.4238
13.88	62.3853
13.898	62.3426
13.916	62.296
13.934	62.246
13.952	62.1936
13.97	62.1403
13.988	62.0882
14.006	62.0403
14.024	61.9998
14.042	61.9698
14.06	61.9525
14.078	61.9489
14.096	61.959
14.114	61.9812
14.132	62.0127
14.15	62.0502
14.168	62.09
14.186	62.1291
14.204	62.165
14.222	62.1968
14.24	62.2242
14.258	62.2479
14.276	62.269
14.294	62.2888
14.312	62.3082
14.33	62.3277
14.348	62.3471
14.366	62.3659
14.384	62.3831
14.402	62.3981
14.42	62.4103
14.438	62.4198
14.456	62.4271
14.474	62.4328
14.492	62.4377
14.51	62.4425
14.528	62.4471
14.546	62.4511
14.564	62.4527
14.582	62.45
14.6	62.4408
14.618	62.4233
14.636	62.3959
14.654	62.3589
14.672	62.3135
14.69	62.2623
14.708	62.2087
14.726	62.157
14.744	62.1119
14.762	62.077
14.78	62.0547
14.798	62.0462
14.816	62.0514
14.834	62.0686
14.852	62.0948
14.87	62.1262
14.888	62.1591
14.906	62.1903
14.924	62.2171
14.942	62.237
14.96	62.2493
14.978	62.2536
14.996	62.2507
15.014	62.2413
15.032	62.227
15.05	62.2092
15.068	62.1894
15.086	62.169
15.104	62.1493
15.122	62.1317
15.14	62.1173
15.158	62.1067
15.176	62.1002
15.194	62.0979
15.212	62.0992
15.23	62.1034
15.248	62.1093
15.266	62.1157
15.284	62.121
15.302	62.124
15.32	62.1242
15.338	62.1211
15.356	62.1151
15.374	62.1074
15.392	62.0989
15.41	62.0907
15.428	62.084
15.446	62.0795
15.464	62.0769
15.482	62.0759
15.5	62.0753
15.518	62.0733
15.536	62.0685
15.554	62.0596
15.572	62.0454
15.59	62.0257
15.608	62.0008
15.626	61.9715
15.644	61.9393
15.662	61.9068
15.68	61.8764
15.698	61.8503
15.716	61.831
15.734	61.8201
15.752	61.8184
15.77	61.8263
15.788	61.8427
15.806	61.8655
15.824	61.8922
15.842	61.9195
15.86	61.9432
15.878	61.9603
15.896	61.9681
15.914	61.9637
15.932	61.9463
15.95	61.9158
15.968	61.8729
15.986	61.8205
16.004	61.7612
16.022	61.6982
16.04	61.6359
16.058	61.5771
16.076	61.5242
16.094	61.479
16.112	61.4419
16.13	61.4128
16.148	61.3909
16.166	61.375
16.184	61.3647
16.202	61.3591
16.22	61.359
16.238	61.3655
16.256	61.3797
16.274	61.4047
16.292	61.4424
16.31	61.4947
16.328	61.5635
16.346	61.6481
16.364	61.7476
16.382	61.8595
16.4	61.9797
16.418	62.1052
16.436	62.2299
16.454	62.3495
16.472	62.4605
16.49	62.5581
16.508	62.6404
16.526	62.7057
16.544	62.7533
16.562	62.7838
16.58	62.7976
16.598	62.7962
16.616	62.7807
16.634	62.7519
16.652	62.7109
16.67	62.6586
16.688	62.5957
16.706	62.524
16.724	62.4453
16.742	62.3616
16.76	62.2781
16.778	62.1975
16.796	62.1252
16.814	62.0663
16.832	62.0239
16.85	62.0028
16.868	62.0043
16.886	62.03
16.904	62.0782
16.922	62.146
16.94	62.2298
16.958	62.3209
16.976	62.4151
16.994	62.5027
17.012	62.5768
17.03	62.6324
17.048	62.6619
17.066	62.6641
17.084	62.6361
17.102	62.5801
17.12	62.4974
17.138	62.3941
17.156	62.2763
17.174	62.1492
17.192	62.0232
17.21	61.9022
17.228	61.7947
17.246	61.7045
17.264	61.6352
17.282	61.5891
17.3	61.5655
17.318	61.5635
17.336	61.5784
17.354	61.6083
17.372	61.6451
17.39	61.6861
17.408	61.7247
17.426	61.7569
17.444	61.7791
17.462	61.7886
17.48	61.7852
17.498	61.7685
17.516	61.7415
17.534	61.7061
17.552	61.6683
17.57	61.63
17.588	61.5985
17.606	61.5762
17.624	61.5677
17.642	61.5753
17.66	61.6004
17.678	61.6432
17.696	61.7027
17.714	61.7761
17.732	61.86
17.75	61.9514
17.768	62.0439
17.786	62.1354
17.804	62.2192
17.822	62.2942
17.84	62.3556
17.858	62.4034
17.876	62.436
17.894	62.4548
17.912	62.4598
17.93	62.4541
17.948	62.4384
17.966	62.4164
17.984	62.3891
18.002	62.3593
18.02	62.3277
18.038	62.2957
18.056	62.2636
18.074	62.2315
18.092	62.199
18.11	62.166
18.128	62.1316
18.146	62.096
18.164	62.0596
18.182	62.0232
18.2	61.988
18.218	61.956
18.236	61.928
18.254	61.9069
18.272	61.8933
18.29	61.8896
18.308	61.8959
18.326	61.9135
18.344	61.9418
18.362	61.9799
18.38	62.0268
18.398	62.08
18.416	62.1375
18.434	62.1966
18.452	62.2542
18.47	62.3082
18.488	62.3557
18.506	62.3954
18.524	62.425
18.542	62.4439
18.56	62.4516
18.578	62.4481
18.596	62.4341
18.614	62.4095
18.632	62.3763
18.65	62.3346
18.668	62.2859
18.686	62.2305
18.704	62.1692
18.722	62.1022
18.74	62.03
18.758	61.9525
18.776	61.87
18.794	61.7828
18.812	61.6915
18.83	61.5964
18.848	61.4983
18.866	61.3987
18.884	61.2996
18.902	61.2031
18.92	61.1127
18.938	61.0307
18.956	60.9612
18.974	60.9061
18.992	60.8696
19.01	60.8524
19.028	60.8577
19.046	60.8849
19.064	60.9353
19.082	61.0071
19.1	61.099
19.118	61.2084
19.136	61.3314
19.154	61.4652
19.172	61.6035
19.19	61.7443
19.208	61.8799
19.226	62.0097
19.244	62.1263
19.262	62.2302
19.28	62.3162
19.298	62.385
19.316	62.4345
19.334	62.4653
19.352	62.4788
19.37	62.4752
19.388	62.4588
19.406	62.4292
19.424	62.392
19.442	62.3473
19.46	62.3004
19.478	62.252
19.496	62.2055
19.514	62.1618
19.532	62.1227
19.55	62.09
19.568	62.0629
19.586	62.0415
19.604	62.0249
19.622	62.0123
19.64	62.0026
19.658	61.9919
19.676	61.9805
19.694	61.9638
19.712	61.9422
19.73	61.911
19.748	61.8701
19.766	61.8165
19.784	61.7494
19.802	61.668
19.82	61.5711
19.838	61.4594
19.856	61.3329
19.874	61.1925
19.892	61.041
19.91	60.8783
19.928	60.7097
19.946	60.5345
19.964	60.3597
19.982	60.1853
20	60.017
20.018	59.8575
20.036	59.7094
20.054	59.5786
20.072	59.4648
20.09	59.3743
20.108	59.3063
20.126	59.2649
20.144	59.2504
20.162	59.2632
20.18	59.3045
20.198	59.3725
20.216	59.4665
20.234	59.5856
20.252	59.725
20.27	59.8857
20.288	60.0598
20.306	60.2478
20.324	60.4431
20.342	60.642
20.36	60.8427
20.378	61.0367
20.396	61.2256
20.414	61.4008
20.432	61.5633
20.45	61.7081
20.468	61.8327
20.486	61.9371
20.504	62.0184
20.522	62.0774
20.54	62.1143
20.558	62.1284
20.576	62.1228
20.594	62.0979
20.612	62.0558
20.63	62.0014
20.648	61.9337
20.666	61.8596
20.684	61.7784
20.702	61.695
20.72	61.6128
20.738	61.5317
20.756	61.457
20.774	61.3874
20.792	61.3265
20.81	61.2754
20.828	61.2336
20.846	61.202
20.864	61.1802
20.882	61.1667
20.9	61.1624
20.918	61.1643
20.936	61.1709
20.954	61.1819
20.972	61.1932
20.99	61.2058
21.008	61.2161
21.026	61.2226
21.044	61.2251
21.062	61.2205
21.08	61.2097
21.098	61.1913
21.116	61.1646
21.134	61.1303
21.152	61.0886
21.17	61.0394
21.188	60.9848
21.206	60.9246
21.224	60.8602
21.242	60.7942
21.26	60.7256
21.278	60.6581
21.296	60.5918
21.314	60.5278
21.332	60.4688
21.35	60.414
21.368	60.3654
21.386	60.3236
21.404	60.2886
21.422	60.2614
21.44	60.2419
21.458	60.2298
21.476	60.2252
21.494	60.2278
21.512	60.2367
21.53	60.2523
21.548	60.2733
21.566	60.2992
21.584	60.3299
21.602	60.3643
21.62	60.4025
21.638	60.4438
21.656	60.4871
21.674	60.5328
21.692	60.5803
21.71	60.629
21.728	60.6793
21.746	60.7308
21.764	60.7837
21.782	60.8377
21.8	60.8929
21.818	60.9493
21.836	61.0064
21.854	61.0644
21.872	61.1228
21.89	61.1807
21.908	61.2386
21.926	61.295
21.944	61.3491
21.962	61.4012
21.98	61.4489
21.998	61.4924
22.016	61.5308
22.034	61.5622
22.052	61.5872
22.07	61.6045
22.088	61.6127
22.106	61.6126
22.124	61.6031
22.142	61.5835
22.16	61.5545
22.178	61.5166
22.196	61.4689
22.214	61.4135
22.232	61.3519
22.25	61.2833
22.268	61.2107
22.286	61.1357
22.304	61.0576
22.322	60.9804
22.34	60.9042
22.358	60.8296
22.376	60.7601
22.394	60.6951
22.412	60.6357
22.43	60.5842
22.448	60.5399
22.466	60.5032
22.484	60.4748
22.502	60.4545
22.52	60.4412
22.538	60.4349
22.556	60.4353
22.574	60.4398
22.592	60.4485
22.61	60.4608
22.628	60.4731
22.646	60.4864
22.664	60.4992
22.682	60.5087
22.7	60.5158
22.718	60.5193
22.736	60.5175
22.754	60.511
22.772	60.4994
22.79	60.4821
22.808	60.4592
22.826	60.4315
22.844	60.3996
22.862	60.3629
22.88	60.3233
22.898	60.2814
22.916	60.2367
22.934	60.1917
22.952	60.1469
22.97	60.102
22.988	60.0592
23.006	60.0187
23.024	59.9804
23.042	59.9459
23.06	59.9155
23.078	59.8888
23.096	59.8662
23.114	59.8476
23.132	59.8331
23.15	59.8222
23.168	59.8152
23.186	59.8119
23.204	59.8111
23.222	59.8129
23.24	59.8174
23.258	59.8241
23.276	59.8329
23.294	59.8441
23.312	59.8582
23.33	59.8747
23.348	59.8943
23.366	59.9186
23.384	59.9473
23.402	59.9807
23.42	60.0207
23.438	60.0669
23.456	60.1196
23.474	60.1809
23.492	60.2511
23.51	60.3299
23.528	60.4186
23.546	60.5176
23.564	60.6266
23.582	60.7458
23.6	60.8758
23.618	61.0162
23.636	61.1657
23.654	61.3242
23.672	61.4921
23.69	61.6669
23.708	61.8472
23.726	62.0345
23.744	62.2253
23.762	62.4166
23.78	62.6109
23.798	62.8048
23.816	62.9945
23.834	63.1822
23.852	63.3656
23.87	63.541
23.888	63.7099
23.906	63.8711
23.924	64.0205
23.942	64.1586
23.96	64.2856
23.978	64.3981
23.996	64.4951
24.014	64.578
24.032	64.6446
24.05	64.6937
24.068	64.7262
24.086	64.7417
24.104	64.7398
24.122	64.7204
24.14	64.6843
24.158	64.6324
24.176	64.5635
24.194	64.4791
24.212	64.382
24.23	64.2719
24.248	64.1487
24.266	64.016
24.284	63.8758
24.302	63.7255
24.32	63.57
24.338	63.4133
24.356	63.2515
24.374	63.0893
24.392	62.9342
24.41	62.7839
24.428	62.6392
24.446	62.5073
24.464	62.3907
24.482	62.2858
24.5	62.1987
24.518	62.1344
24.536	62.0901
24.554	62.0669
24.572	62.0672
24.59	62.0921
24.608	62.1399
24.626	62.2086
24.644	62.2988
24.662	62.4116
24.68	62.5409
24.698	62.6814
24.716	62.8388
24.734	63.0068
24.752	63.1755
24.77	63.346
24.788	63.5199
24.806	63.6864
24.824	63.8383
24.842	63.9829
24.86	64.1129
24.878	64.2189
24.896	64.303
24.914	64.366
24.932	64.4026
24.95	64.4095
24.968	64.3891
24.986	64.342
25.004	64.2688
25.022	64.1666
25.04	64.0389
25.058	63.8914
25.076	63.7256
25.094	63.5375
25.112	63.3358
25.13	63.1285
25.148	62.9095
25.166	62.683
25.184	62.4598
25.202	62.2444
25.22	62.03
25.238	61.8255
25.256	61.6401
25.274	61.4692
25.292	61.3142
25.31	61.1832
25.328	61.0807
25.346	61.0017
25.364	60.9498
25.382	60.93
25.4	60.9419
25.418	60.9842
25.436	61.0579
25.454	61.1646
25.472	61.3046
25.49	61.4754
25.508	61.6744
25.526	61.902
25.544	62.1592
25.562	62.4415
25.58	62.7451
25.598	63.0737
25.616	63.4246
25.634	63.7916
25.652	64.1716
25.67	64.5705
25.688	64.9806
25.706	65.3928
25.724	65.8091
25.742	66.2321
25.76	66.6504
25.778	67.0533
25.796	67.4503
25.814	67.8363
25.832	68.1977
25.85	68.5265
25.868	68.8342
25.886	69.1106
25.904	69.3427
25.922	69.5287
25.94	69.6763
25.958	69.7741
25.976	69.8104
25.994	69.7885
26.012	69.7107
26.03	69.571
26.048	69.3639
26.066	69.0907
26.084	68.7541
26.102	68.3562
26.12	67.8966
26.138	67.3705
26.156	66.7875
26.174	66.1588
26.192	65.484
26.21	64.7544
26.228	63.9894
26.246	63.2093
26.264	62.4088
26.282	61.5809
26.3	60.7502
26.318	59.9403
26.336	59.1385
26.354	58.3445
26.372	57.581
26.39	56.8686
26.408	56.1925
26.426	55.5561
26.444	54.9764
26.462	54.4679
26.48	54.0205
26.498	53.6352
26.516	53.3179
26.534	53.0741
26.552	52.9014
26.57	52.7969
26.588	52.7584
26.606	52.7854
26.624	52.8824
26.642	53.0421
26.66	53.2558
26.678	53.5201
26.696	53.8441
26.714	54.2173
26.732	54.6272
26.75	55.0691
26.768	55.5537
26.786	56.0704
26.804	56.6066
26.822	57.1572
26.84	57.733
26.858	58.3243
26.876	58.9202
26.894	59.5157
26.912	60.1199
26.93	60.726
26.948	61.3261
26.966	61.9398
26.984	62.6086
27.002	63.2397
27.02	63.7318
27.028	63.8644