File: Bakgrunnsmateriale/MATLAB/FTIR/ftir_data/subAa/Mapping_121/BZ1503107-1_e126_cm-1.asc
PE IR       SPECTRUM    SPECTRUM    ASCII       PEDS        1.60
  -1
BZ0979~1.ASC
17/04/07
20:31:16.00
17/04/07
20:31:16.00
tln
$BZ1503107-1_e0126$<ebV0>[-23.3,12.1,10.0,0.0,27,1,0]
370
64

2002,4.07
MIRTGS : RIGHTBACK : INTERNAL 2
MIR : ON : INTERNAL 2
OPTKBR

0.200000
8
8.000000
FILLER
SINGLE
SPECTRUM
UNLOCKED 256

DOUBLE

COMBINED
1
0
0

1.000000
BACKG

1
0
TRUE
51149
0
LEFT NOT FITTED RIGHT NOT FITTED 0
NONE
NONE
15600
12
4.427000
51148
TRUE
1 0 8 72 0 0 0 0

15798

#HDR
-1
-1
#GR
CM-1
EGY
2.38419e-05
0.0
5000
-1.000000
4631
8
2.464175
0.007677
#DATA
5000	0.780081
4996	0.782275
4992	0.786542
4988	0.790548
4984	0.792717
4980	0.798034
4976	0.801420
4972	0.799322
4968	0.798869
4964	0.798463
4960	0.797820
4956	0.793457
4952	0.780010
4948	0.777745
4944	0.795602
4940	0.805664
4936	0.803446
4932	0.806570
4928	0.807881
4924	0.805473
4920	0.808691
4916	0.814747
4912	0.813889
4908	0.807166
4904	0.811266
4900	0.821518
4896	0.823068
4892	0.822925
4888	0.824570
4884	0.824022
4880	0.824475
4876	0.828242
4872	0.831627
4868	0.834131
4864	0.836682
4860	0.838470
4856	0.840020
4852	0.843954
4848	0.848674
4844	0.849986
4840	0.850248
4836	0.852370
4832	0.855326
4828	0.857925
4824	0.859713
4820	0.860595
4816	0.861358
4812	0.864839
4808	0.869154
4804	0.871658
4800	0.873780
4796	0.876617
4792	0.878739
4788	0.880765
4784	0.883698
4780	0.886130
4776	0.888967
4772	0.892758
4768	0.895380
4764	0.896239
4760	0.897645
4756	0.901412
4752	0.904035
4748	0.903820
4744	0.904417
4740	0.906181
4736	0.907874
4732	0.909781
4728	0.911164
4724	0.911450
4720	0.911688
4716	0.912499
4712	0.913190
4708	0.913858
4704	0.915241
4700	0.916457
4696	0.917124
4692	0.917482
4688	0.916361
4684	0.914597
4680	0.914168
4676	0.915169
4672	0.915694
4668	0.916123
4664	0.917315
4660	0.918555
4656	0.919628
4652	0.920796
4648	0.922465
4644	0.924324
4640	0.925922
4636	0.926899
4632	0.927281
4628	0.928997
4624	0.931930
4620	0.934362
4616	0.937557
4612	0.941419
4608	0.944280
4604	0.946545
4600	0.948739
4596	0.950670
4592	0.953865
4588	0.957942
4584	0.960659
4580	0.963115
4576	0.966882
4572	0.970172
4568	0.972318
4564	0.975656
4560	0.980424
4556	0.984835
4552	0.987744
4548	0.990557
4544	0.993347
4540	0.994491
4536	0.996637
4532	0.999474
4528	1.000857
4524	1.002860
4520	1.006221
4516	1.009750
4512	1.013374
4508	1.015138
4504	1.014328
4500	1.014924
4496	1.017975
4492	1.022887
4488	1.027250
4484	1.026868
4480	1.024270
4476	1.024675
4472	1.024317
4468	1.023054
4464	1.020550
4460	1.011109
4456	1.001811
4452	0.975131
4448	0.883817
4444	0.776386
4440	0.823879
4436	0.986003
4432	1.056933
4428	1.048254
4424	1.041626
4420	1.040005
4416	1.039600
4412	1.040101
4408	1.042485
4404	1.043295
4400	1.044249
4396	1.048493
4392	1.053786
4388	1.056027
4384	1.055979
4380	1.057672
4376	1.059007
4372	1.058459
4368	1.058983
4364	1.060700
4360	1.063442
4356	1.067638
4352	1.071953
4348	1.075625
4344	1.080489
4340	1.085996
4336	1.090645
4332	1.094627
4328	1.097989
4324	1.101064
4320	1.105427
4316	1.111865
4312	1.118230
4308	1.123547
4304	1.128530
4300	1.132082
4296	1.135182
4292	1.138353
4288	1.141905
4284	1.147270
4280	1.152896
4276	1.156497
4272	1.160573
4268	1.166391
4264	1.170301
4260	1.171398
4256	1.172137
4252	1.174068
4248	1.177549
4244	1.181316
4240	1.184988
4236	1.188945
4232	1.191592
4228	1.193523
4224	1.196813
4220	1.199555
4216	1.199579
4212	1.198887
4208	1.199340
4204	1.201128
4200	1.204490
4196	1.207685
4192	1.209330
4188	1.209807
4184	1.209878
4180	1.210927
4176	1.212549
4172	1.214051
4168	1.216816
4164	1.220107
4160	1.222276
4156	1.224088
4152	1.226353
4148	1.230382
4144	1.235771
4140	1.239347
4136	1.240372
4132	1.241683
4128	1.245331
4124	1.250219
4120	1.254391
4116	1.257157
4112	1.259541
4108	1.263904
4104	1.269507
4100	1.273846
4096	1.277709
4092	1.282930
4088	1.289319
4084	1.295351
4080	1.300454
4076	1.305222
4072	1.310992
4068	1.318049
4064	1.323890
4060	1.329326
4056	1.336216
4052	1.342558
4048	1.348376
4044	1.353335
4040	1.356506
4036	1.360416
4032	1.364946
4028	1.369571
4024	1.375913
4020	1.381778
4016	1.385545
4012	1.389765
4008	1.395535
4004	1.399636
4000	1.401114
3996	1.403546
3992	1.406931
3988	1.409959
3984	1.413488
3980	1.417207
3976	1.419663
3972	1.419568
3968	1.419520
3964	1.421737
3960	1.425409
3956	1.428222
3952	1.429677
3948	1.432919
3944	1.434469
3940	1.431751
3936	1.430368
3932	1.431107
3928	1.432585
3924	1.435256
3920	1.438331
3916	1.441526
3912	1.443004
3908	1.440024
3904	1.437234
3900	1.440215
3896	1.444935
3892	1.447129
3888	1.448822
3884	1.451015
3880	1.453518
3876	1.455569
3872	1.455760
3868	1.457214
3864	1.461482
3860	1.462197
3856	1.457142
3852	1.460361
3848	1.474142
3844	1.481461
3840	1.480293
3836	1.482892
3832	1.492404
3828	1.500415
3824	1.501893
3820	1.502680
3816	1.509141
3812	1.516842
3808	1.520371
3804	1.522898
3800	1.528358
3796	1.536059
3792	1.543474
3788	1.548862
3784	1.551699
3780	1.554393
3776	1.557779
3772	1.559853
3768	1.562643
3764	1.567053
3760	1.569199
3756	1.565313
3752	1.558589
3748	1.556420
3744	1.560926
3740	1.567435
3736	1.570677
3732	1.574420
3728	1.579856
3724	1.582193
3720	1.582479
3716	1.580905
3712	1.579284
3708	1.582145
3704	1.585459
3700	1.585793
3696	1.584243
3692	1.580071
3688	1.578497
3684	1.581835
3680	1.581859
3676	1.577425
3672	1.576352
3668	1.581192
3664	1.586771
3660	1.587891
3656	1.584744
3652	1.579904
3648	1.579213
3644	1.584887
3640	1.589035
3636	1.587772
3632	1.584839
3628	1.586484
3624	1.591563
3620	1.593160
3616	1.592874
3612	1.593518
3608	1.596760
3604	1.601552
3600	1.603746
3596	1.603746
3592	1.603770
3588	1.606321
3584	1.611351
3580	1.616549
3576	1.620221
3572	1.620388
3568	1.619195
3564	1.621723
3560	1.627635
3556	1.632308
3552	1.635026
3548	1.637220
3544	1.638078
3540	1.636481
3536	1.634597
3532	1.634430
3528	1.634812
3524	1.636815
3520	1.640248
3516	1.641678
3512	1.640748
3508	1.638936
3504	1.636648
3500	1.634287
3496	1.632761
3492	1.631093
3488	1.628541
3484	1.627016
3480	1.625633
3476	1.622223
3472	1.618814
3468	1.617670
3464	1.617455
3460	1.615977
3456	1.613092
3452	1.610398
3448	1.608037
3444	1.604509
3440	1.599884
3436	1.596474
3432	1.595950
3428	1.596879
3424	1.596784
3420	1.596713
3416	1.597642
3412	1.598954
3408	1.601552
3404	1.605486
3400	1.609301
3396	1.612162
3392	1.614379
3388	1.616215
3384	1.617479
3380	1.619482
3376	1.623106
3372	1.627898
3368	1.633572
3364	1.639318
3360	1.645302
3356	1.651263
3352	1.656603
3348	1.662564
3344	1.668691
3340	1.674675
3336	1.681399
3332	1.687955
3328	1.694631
3324	1.700854
3320	1.705503
3316	1.710462
3312	1.716971
3308	1.722764
3304	1.727032
3300	1.731657
3296	1.737046
3292	1.742768
3288	1.748466
3284	1.753830
3280	1.759147
3276	1.763391
3272	1.767420
3268	1.772046
3264	1.775503
3260	1.778054
3256	1.780033
3252	1.781964
3248	1.785540
3244	1.789259
3240	1.791429
3236	1.792931
3232	1.794886
3228	1.797437
3224	1.799869
3220	1.801562
3216	1.802349
3212	1.802206
3208	1.802206
3204	1.802325
3200	1.802325
3196	1.802563
3192	1.803255
3188	1.804876
3184	1.806306
3180	1.806473
3176	1.806855
3172	1.808381
3168	1.810407
3164	1.813244
3160	1.816487
3156	1.819896
3152	1.823854
3148	1.827049
3144	1.829743
3140	1.832485
3136	1.835870
3132	1.841306
3128	1.847434
3124	1.852440
3120	1.857471
3116	1.862740
3112	1.868224
3108	1.874756
3104	1.881408
3100	1.887583
3096	1.894736
3092	1.902699
3088	1.911401
3084	1.921653
3080	1.930546
3076	1.936244
3072	1.941037
3068	1.945924
3064	1.950216
3060	1.954555
3056	1.960611
3052	1.967549
3048	1.973128
3044	1.978707
3040	1.984763
3036	1.989221
3032	1.990294
3028	1.985931
3024	1.977610
3020	1.971745
3016	1.976442
3012	1.993489
3008	2.014207
3004	2.029061
3000	2.037262
2996	2.041959
2992	2.044129
2988	2.043414
2984	2.038717
2980	2.029180
2976	2.015447
2972	1.996278
2968	1.972007
2964	1.950693
2960	1.939415
2956	1.935958
2952	1.932692
2948	1.920628
2944	1.894307
2940	1.858878
2936	1.824259
2932	1.794981
2928	1.774740
2924	1.777124
2920	1.810622
2916	1.860785
2912	1.905703
2908	1.935911
2904	1.955699
2900	1.972079
2896	1.986336
2892	1.998567
2888	2.009129
2884	2.016782
2880	2.019143
2876	2.013468
2872	1.996064
2868	1.963901
2864	1.928758
2860	1.917099
2856	1.938867
2852	1.978898
2848	2.020215
2844	2.055382
2840	2.082657
2836	2.102804
2832	2.117753
2828	2.129745
2824	2.140736
2820	2.151775
2816	2.162480
2812	2.171754
2808	2.179837
2804	2.187395
2800	2.194333
2796	2.200746
2792	2.207255
2788	2.214479
2784	2.221560
2780	2.228260
2776	2.235364
2772	2.242136
2768	2.247118
2764	2.250456
2760	2.254652
2756	2.260041
2752	2.263617
2748	2.264523
2744	2.265000
2740	2.266263
2736	2.267789
2732	2.267694
2728	2.265596
2724	2.264285
2720	2.264547
2716	2.263998
2712	2.261853
2708	2.259325
2704	2.257156
2700	2.255606
2696	2.254080
2692	2.252769
2688	2.251863
2684	2.249884
2680	2.246499
2676	2.242827
2672	2.240061
2668	2.237653
2664	2.235341
2660	2.233219
2656	2.230715
2652	2.227425
2648	2.224588
2644	2.224302
2640	2.225708
2636	2.226734
2632	2.226972
2628	2.227663
2624	2.229619
2620	2.231502
2616	2.232003
2612	2.232646
2608	2.234888
2604	2.236914
2600	2.237892
2596	2.238559
2592	2.240777
2588	2.245092
2584	2.249503
2580	2.255487
2576	2.262854
2572	2.268695
2568	2.274131
2564	2.280569
2560	2.286481
2556	2.291178
2552	2.295565
2548	2.300620
2544	2.306222
2540	2.311086
2536	2.314853
2532	2.318310
2528	2.322340
2524	2.326512
2520	2.329134
2516	2.330684
2512	2.332592
2508	2.335500
2504	2.337646
2500	2.337145
2496	2.335572
2492	2.334785
2488	2.334690
2484	2.335357
2480	2.334666
2476	2.330994
2472	2.326965
2468	2.323484
2464	2.319145
2460	2.314496
2456	2.310395
2452	2.307391
2448	2.304959
2444	2.302026
2440	2.298188
2436	2.293634
2432	2.288413
2428	2.282595
2424	2.278017
2420	2.275037
2416	2.272605
2412	2.270579
2408	2.268362
2404	2.265930
2400	2.263164
2396	2.259707
2392	2.257943
2388	2.257537
2384	2.254867
2380	2.251195
2376	2.248835
2372	2.245712
2368	2.241134
2364	2.239155
2360	2.242541
2356	2.250957
2352	2.262163
2348	2.269768
2344	2.272224
2340	2.274823
2336	2.279472
2332	2.285337
2328	2.291917
2324	2.298450
2320	2.306771
2316	2.316689
2312	2.325367
2308	2.332901
2304	2.340579
2300	2.347016
2296	2.351212
2292	2.355718
2288	2.361989
2284	2.368259
2280	2.372646
2276	2.374649
2272	2.376103
2268	2.379441
2264	2.383089
2260	2.384877
2256	2.385807
2252	2.386474
2248	2.387261
2244	2.388715
2240	2.389430
2236	2.388668
2232	2.386808
2228	2.384257
2224	2.382707
2220	2.381753
2216	2.379655
2212	2.376651
2208	2.373909
2204	2.371716
2200	2.368903
2196	2.365040
2192	2.361440
2188	2.358102
2184	2.354145
2180	2.350807
2176	2.348661
2172	2.346229
2168	2.343630
2164	2.342295
2160	2.341985
2156	2.341794
2152	2.341985
2148	2.342557
2144	2.342271
2140	2.340984
2136	2.340722
2132	2.341246
2128	2.341532
2124	2.342104
2120	2.342867
2116	2.343773
2112	2.345275
2108	2.346205
2104	2.346205
2100	2.345967
2096	2.345466
2092	2.345705
2088	2.347254
2084	2.349328
2080	2.352881
2076	2.359080
2072	2.366924
2068	2.375125
2064	2.381896
2060	2.387976
2056	2.395367
2052	2.404856
2048	2.415776
2044	2.425146
2040	2.431416
2036	2.435946
2032	2.440881
2028	2.446532
2024	2.450942
2020	2.453684
2016	2.456331
2012	2.459645
2008	2.462577
2004	2.463960
2000	2.464056
1996	2.462697
1992	2.460384
1988	2.459311
1984	2.458786
1980	2.456235
1976	2.452230
1972	2.447986
1968	2.444219
1964	2.440881
1960	2.437067
1956	2.433300
1952	2.431035
1948	2.429366
1944	2.426528
1940	2.422189
1936	2.418375
1932	2.416110
1928	2.413034
1924	2.407717
1920	2.401709
1916	2.397084
1912	2.392172
1908	2.386975
1904	2.382946
1900	2.379250
1896	2.376317
1892	2.374935
1888	2.375674
1884	2.379107
1880	2.382302
1876	2.382946
1872	2.382326
1868	2.383756
1864	2.388191
1860	2.391839
1856	2.394461
1852	2.397799
1848	2.400255
1844	2.402782
1840	2.407336
1836	2.410793
1832	2.412223
1828	2.414774
1824	2.419662
1820	2.425146
1816	2.429533
1812	2.432847
1808	2.434992
1804	2.435612
1800	2.435421
1796	2.433681
1792	2.432751
1788	2.435398
1784	2.436876
1780	2.433991
1776	2.426767
1772	2.419781
1768	2.418637
1764	2.417826
1760	2.413535
1756	2.405858
1752	2.393960
1748	2.380800
1744	2.367019
1740	2.349925
1736	2.333450
1732	2.327990
1728	2.330875
1724	2.327179
1720	2.314066
1716	2.305793
1712	2.305579
1708	2.298259
1704	2.279853
1700	2.262210
1696	2.258682
1692	2.263164
1688	2.255821
1684	2.245283
1680	2.245092
1676	2.241992
1672	2.232956
1668	2.225446
1664	2.218079
1660	2.205419
1656	2.183508
1652	2.166676
1648	2.165055
1644	2.166128
1640	2.158164
1636	2.145552
1632	2.138853
1628	2.130436
1624	2.111077
1620	2.080965
1616	2.042222
1612	2.001667
1608	1.975440
1604	1.977443
1600	1.996231
1596	2.011919
1592	2.018070
1588	2.016544
1584	2.010154
1580	1.999282
1576	1.989030
1572	1.984024
1568	1.977038
1564	1.957488
1560	1.935243
1556	1.937294
1552	1.956820
1548	1.963877
1544	1.962280
1540	1.984834
1536	2.037239
1532	2.086782
1528	2.111697
1524	2.116751
1520	2.114582
1516	2.109003
1512	2.095150
1508	2.067065
1504	1.999402
1500	1.855301
1496	1.703715
1492	1.684427
1488	1.791048
1484	1.904511
1480	1.962780
1476	1.976084
1472	1.973795
1468	1.964998
1464	1.939320
1460	1.884388
1456	1.809811
1452	1.765251
1448	1.786398
1444	1.835584
1440	1.861739
1436	1.868152
1432	1.872301
1428	1.873588
1424	1.868128
1420	1.857924
1416	1.845216
1412	1.817393
1408	1.767969
1404	1.728987
1400	1.733827
1396	1.768016
1392	1.792693
1388	1.791954
1384	1.787734
1380	1.798415
1376	1.811504
1372	1.817488
1368	1.819014
1364	1.818943
1360	1.819610
1356	1.820135
1352	1.818299
1348	1.815223
1344	1.814770
1340	1.820015
1336	1.830434
1332	1.840543
1328	1.847362
1324	1.851916
1320	1.854228
1316	1.855206
1312	1.856040
1308	1.856923
1304	1.857686
1300	1.857972
1296	1.857972
1292	1.857805
1288	1.857805
1284	1.856088
1280	1.849412
1276	1.835346
1272	1.808071
1268	1.764941
1264	1.725220
1260	1.722407
1256	1.758956
1252	1.800227
1248	1.823878
1244	1.833629
1240	1.836752
1236	1.836133
1232	1.831889
1228	1.824092
1224	1.813411
1220	1.798725
1216	1.779770
1212	1.761102
1208	1.749658
1204	1.746177
1200	1.745986
1196	1.745104
1192	1.740860
1188	1.733446
1184	1.723766
1180	1.712393
1176	1.700401
1172	1.686859
1168	1.669907
1164	1.650214
1160	1.631402
1156	1.618361
1152	1.611638
1148	1.605916
1144	1.597595
1140	1.587271
1136	1.574802
1132	1.559925
1128	1.541996
1124	1.521015
1120	1.499462
1116	1.479125
1112	1.459789
1108	1.443934
1104	1.433491
1100	1.427078
1096	1.423954
1092	1.425194
1088	1.429224
1084	1.431632
1080	1.430726
1076	1.430630
1072	1.434135
1068	1.437902
1064	1.437139
1060	1.421046
1056	1.371788
1052	1.313185
1048	1.307797
1044	1.349687
1040	1.379799
1036	1.384735
1032	1.379013
1028	1.369833
1024	1.362562
1020	1.361966
1016	1.368880
1012	1.379537
1008	1.390194
1004	1.398754
1000	1.402878
996	 1.401829
992	 1.397013
988	 1.389956
984	 1.382136
980	 1.374268
976	 1.365971
972	 1.355934
968	 1.343846
964	 1.330304
960	 1.315760
956	 1.301145
952	 1.288199
948	 1.277422
944	 1.268029
940	 1.259446
936	 1.251626
932	 1.242971
928	 1.232933
924	 1.224136
920	 1.215529
916	 1.203036
912	 1.186394
908	 1.171588
904	 1.163291
900	 1.158070
896	 1.152491
892	 1.142597
888	 1.121211
884	 1.087784
880	 1.052618
876	 1.032137
872	 1.038002
868	 1.061892
864	 1.083278
860	 1.093268
856	 1.093888
852	 1.089310
848	 1.083374
844	 1.075863
840	 1.061511
836	 1.028299
832	 0.964546
828	 0.886869
824	 0.847339
820	 0.871539
816	 0.918149
812	 0.943636
808	 0.948119
804	 0.946807
800	 0.946927
796	 0.950908
792	 0.959396
788	 0.969099
784	 0.976371
780	 0.979709
776	 0.979137
772	 0.976085
768	 0.972223
764	 0.968575
760	 0.964856
756	 0.960612
752	 0.955152
748	 0.948166
744	 0.940418
740	 0.932288
736	 0.923109
732	 0.912499
728	 0.901293
724	 0.890469
720	 0.879764
716	 0.868964
712	 0.857830
708	 0.845384
704	 0.831532
700	 0.815224
696	 0.792765
692	 0.761795
688	 0.735640
684	 0.730586
680	 0.735831
676	 0.733852
672	 0.724959
668	 0.715517
664	 0.707197
660	 0.698566
656	 0.689148
652	 0.677824
648	 0.665378
644	 0.653886
640	 0.643324
636	 0.632643
632	 0.622129
628	 0.612711
624	 0.603890
620	 0.593543
616	 0.579500
612	 0.559306
608	 0.536704
604	 0.524783
600	 0.523757
596	 0.522017
592	 0.517249
588	 0.512290
584	 0.508308
580	 0.504779
576	 0.500702
572	 0.496077
568	 0.490927
564	 0.485634
560	 0.479602
556	 0.472044
552	 0.464057
548	 0.457239
544	 0.452566
540	 0.448060
536	 0.439572
532	 0.428509
528	 0.419688
524	 0.410151
520	 0.398325
516	 0.389695
512	 0.381278
508	 0.369834
504	 0.361108
500	 0.354409
496	 0.340700
492	 0.319290
488	 0.300502
484	 0.288558
480	 0.276684
476	 0.262498
472	 0.251221
468	 0.242257
464	 0.229191
460	 0.212311
456	 0.195956
452	 0.182604
448	 0.173068
444	 0.163555
440	 0.151157
436	 0.137543
432	 0.124573
428	 0.112628
424	 0.099039
420	 0.084304
416	 0.073266
412	 0.065398
408	 0.056624
404	 0.046753
400	 0.038599
396	 0.032448
392	 0.026893
388	 0.021409
384	 0.016522
380	 0.013494
376	 0.011491
372	 0.009036
370	 0.007677