File: Bakgrunnsmateriale/MATLAB/FTIR/ftir_data/subAa/Mapping_121/BZ1503107-1_t09.asc
PE IR       SPECTRUM    SPECTRUM    ASCII       PEDS        1.60
  -1
BZ1D65~1.ASC
17/04/07
13:57:25.00
17/04/07
13:57:52.00
tln
$BZ1503107-1_t0009$<tbV0>[-7.8,-13.0,8.0,0.0,27,1,0]
27.028
64

2002,4.07
MIRTGS : RIGHTBACK : INTERNAL 2
MIR : ON : INTERNAL 2
OPTKBR

0.200000
8
8.000000
FILLER
RATIO
SPECTRUM
UNLOCKED 256

DOUBLE
64
COMBINED
1
0
0

0.002000
RATIO

1
0
TRUE
51149
0
LEFT NOT FITTED RIGHT NOT FITTED 0
NONE
NONE
15600
12
4.427000
51148
TRUE
1 0 8 72 0 0 0 0

15798

#HDR
-1
-1
#GR
µM
%T
2.38419e-05
0.0
2.000000
0.002000
12515
8
91.8674
57.5744
#DATA
2.000000	 64.0221
2.018000	 65.0577
2.036000	 64.8618
2.054000	 64.8591
2.072000	 65.2834
2.090000	 65.6698
2.108000	 64.9089
2.126000	 64.7149
2.144000	 64.6387
2.162000	 64.5565
2.180000	 65.1832
2.198000	 64.4743
2.216000	 64.6027
2.234000	 67.8268
2.252000	 71.1217
2.270000	 64.6184
2.288000	 65.0155
2.306000	 64.9881
2.324000	 65.2558
2.342000	 64.7809
2.360000	 65.0711
2.378000	 64.9384
2.396000	 65.2342
2.414000	 65.1562
2.432000	 65.1727
2.450000	 65.2214
2.468000	 65.1745
2.486000	 65.1177
2.504000	 65.059
2.522000	 64.8698
2.540000	 65.1739
2.558000	 64.8665
2.576000	 65.0899
2.594000	 65.3162
2.612000	 65.2161
2.630000	 65.1936
2.648000	 64.9006
2.666000	 65.4749
2.684000	 65.046
2.702000	 65.3228
2.720000	 65.4253
2.738000	 65.0632
2.756000	 65.2703
2.774000	 65.2376
2.792000	 65.1935
2.810000	 65.1134
2.828000	 65.2625
2.846000	 65.0234
2.864000	 65.127
2.882000	 64.9936
2.900000	 64.9999
2.918000	 65.0911
2.936000	 65.2284
2.954000	 65.1439
2.972000	 65.1562
2.990000	 65.0139
3.008000	 65.1578
3.026000	 64.9895
3.044000	 65.2289
3.062000	 64.9997
3.080000	 65.0262
3.098000	 64.8853
3.116000	 65.2646
3.134000	 65.0302
3.152000	 65.1771
3.170000	 65.1189
3.188000	 65.1008
3.206000	 65.1911
3.224000	 65.1696
3.242000	 65.0636
3.260000	 65.1208
3.278000	 65.1616
3.296000	 65.1562
3.314000	 65.1845
3.332000	 65.1959
3.350000	 65.0424
3.368000	 65.1378
3.386000	 64.9722
3.404000	 64.9016
3.422000	 65.053
3.440000	 64.9598
3.458000	 65.1484
3.476000	 64.9833
3.494000	 65.0138
3.512000	 65.0022
3.530000	 65.1454
3.548000	 65.0101
3.566000	 65.1088
3.584000	 65.0417
3.602000	 65.047
3.620000	 65.0186
3.638000	 64.9853
3.656000	 65.1031
3.674000	 65.1103
3.692000	 64.9773
3.710000	 65.1085
3.728000	 65.1162
3.746000	 64.9999
3.764000	 65.1104
3.782000	 64.9666
3.800000	 65.0175
3.818000	 65.0305
3.836000	 65.0355
3.854000	 65.0717
3.872000	 65.0505
3.890000	 65.0101
3.908000	 65.0881
3.926000	 65.011
3.944000	 65.0579
3.962000	 65.0052
3.980000	 65.0785
3.998000	 64.9944
4.016000	 64.8746
4.034000	 65.0346
4.052000	 65.2066
4.070000	 65.0511
4.088000	 65.0072
4.106000	 65.0544
4.124000	 64.9621
4.141999	 65.0122
4.160000	 64.9872
4.178000	 64.9659
4.196000	 64.9804
4.214000	 65.0586
4.232000	 65.0593
4.250000	 64.8827
4.268000	 65.0505
4.286000	 64.9926
4.304000	 64.9559
4.322000	 65.0625
4.340000	 64.9517
4.358000	 64.9307
4.375999	 64.9874
4.394000	 64.9711
4.412000	 64.9685
4.430000	 65.0122
4.448000	 64.9749
4.466000	 65.0077
4.484000	 64.8806
4.502000	 64.9098
4.520000	 64.8983
4.538000	 64.9028
4.556000	 64.8496
4.574000	 64.943
4.592000	 64.939
4.609999	 65.0439
4.628000	 64.9434
4.646000	 64.7656
4.664000	 64.8208
4.682000	 64.8938
4.700000	 64.9794
4.718000	 65.0165
4.736000	 64.933
4.754000	 64.9183
4.772000	 64.9251
4.790000	 64.9934
4.808000	 64.9954
4.826000	 64.9003
4.843999	 64.7968
4.862000	 64.8596
4.880000	 65.0441
4.898000	 64.9533
4.916000	 64.8946
4.934000	 64.9323
4.952000	 64.8894
4.970000	 64.8685
4.988000	 64.8577
5.006000	 64.8949
5.024000	 64.8989
5.042000	 64.8436
5.060000	 64.8733
5.077999	 64.9626
5.096000	 64.9178
5.114000	 64.8776
5.132000	 64.9109
5.150000	 64.8455
5.168000	 64.8751
5.186000	 64.954
5.204000	 64.9093
5.222000	 64.9278
5.240000	 64.8223
5.258000	 64.8161
5.276000	 64.9351
5.294000	 64.9224
5.312000	 64.8749
5.330000	 64.829
5.348000	 64.8232
5.366000	 64.7973
5.384000	 64.7964
5.402000	 64.8822
5.420000	 64.9755
5.438000	 64.8968
5.456000	 64.7887
5.474000	 64.778
5.492000	 64.9107
5.510000	 64.9964
5.528000	 64.9089
5.546000	 64.8545
5.564000	 64.8524
5.582000	 64.8433
5.600000	 64.7824
5.618000	 64.7604
5.636000	 64.8896
5.654000	 64.8755
5.672000	 64.823
5.690000	 64.8281
5.708000	 64.7945
5.726000	 64.6776
5.744000	 64.598
5.762000	 64.5925
5.780000	 64.4978
5.798000	 64.5238
5.816000	 64.6635
5.834000	 64.6522
5.852000	 64.6504
5.870000	 64.7346
5.888000	 64.7706
5.906000	 64.6763
5.923999	 64.6443
5.942000	 64.7048
5.960000	 64.773
5.978000	 64.7835
5.996000	 64.7959
6.014000	 64.816
6.032000	 64.8258
6.050000	 64.9103
6.068000	 64.8658
6.086000	 64.7539
6.104000	 64.7257
6.122000	 64.742
6.140000	 64.7198
6.158000	 64.7423
6.176000	 64.7985
6.194000	 64.7194
6.212000	 64.7103
6.230000	 64.7736
6.248000	 64.6898
6.266000	 64.6102
6.284000	 64.5979
6.302000	 64.6134
6.320000	 64.6565
6.338000	 64.6845
6.356000	 64.6656
6.374000	 64.6188
6.392000	 64.6485
6.410000	 64.7562
6.428000	 64.756
6.446000	 64.6411
6.464000	 64.6013
6.482000	 64.6859
6.500000	 64.7169
6.518000	 64.6474
6.536000	 64.627
6.554000	 64.6995
6.572000	 64.7539
6.590000	 64.7477
6.608000	 64.7787
6.626000	 64.8376
6.644000	 64.8353
6.662000	 64.7887
6.680000	 64.7524
6.698000	 64.6867
6.716000	 64.6628
6.734000	 64.6963
6.752000	 64.6941
6.770000	 64.6923
6.788000	 64.7131
6.806000	 64.716
6.824000	 64.7151
6.842000	 64.7797
6.860000	 64.8605
6.878000	 64.7976
6.896000	 64.6343
6.914000	 64.5769
6.932000	 64.6761
6.950000	 64.7827
6.968000	 64.7644
6.986000	 64.6934
7.004000	 64.6662
7.022000	 64.6751
7.040000	 64.6911
7.058000	 64.679
7.076000	 64.6293
7.094000	 64.5901
7.112000	 64.573
7.130000	 64.5539
7.148000	 64.5477
7.166000	 64.54
7.184000	 64.5063
7.202000	 64.4921
7.220000	 64.5084
7.238000	 64.5081
7.256000	 64.4723
7.274000	 64.4275
7.292000	 64.4183
7.310000	 64.4592
7.328000	 64.5212
7.346000	 64.5714
7.364000	 64.5948
7.382000	 64.5975
7.400000	 64.5876
7.418000	 64.5702
7.436000	 64.5644
7.454000	 64.565
7.472000	 64.5426
7.490000	 64.5173
7.508000	 64.5152
7.526000	 64.485
7.544000	 64.3843
7.562000	 64.2791
7.580000	 64.2486
7.598000	 64.2836
7.616000	 64.3328
7.634000	 64.3682
7.652000	 64.3881
7.670000	 64.4044
7.688000	 64.4242
7.706000	 64.4339
7.724000	 64.42
7.742000	 64.4029
7.760000	 64.4119
7.778000	 64.44
7.796000	 64.4559
7.814000	 64.4517
7.832000	 64.4507
7.850000	 64.4607
7.868000	 64.4451
7.886000	 64.372
7.904000	 64.2826
7.922000	 64.249
7.940000	 64.2766
7.958000	 64.317
7.976000	 64.3523
7.994000	 64.3991
8.012000	 64.4481
8.030000	 64.4608
8.048000	 64.4162
8.065999	 64.3378
8.084000	 64.2805
8.102000	 64.2841
8.120000	 64.3381
8.138000	 64.4033
8.155999	 64.454
8.173999	 64.4831
8.192000	 64.4852
8.210000	 64.4579
8.228000	 64.4092
8.246000	 64.3485
8.263999	 64.2811
8.282000	 64.2164
8.300000	 64.1734
8.318000	 64.1705
8.336000	 64.2115
8.353999	 64.279
8.372000	 64.3409
8.390000	 64.37
8.408000	 64.3621
8.426000	 64.3322
8.443999	 64.293
8.462000	 64.2487
8.480000	 64.2112
8.498000	 64.2037
8.516000	 64.2427
8.533999	 64.3163
8.552000	 64.3866
8.570000	 64.4142
8.588000	 64.3854
8.606000	 64.3195
8.624000	 64.25
8.641999	 64.2
8.660000	 64.1743
8.678000	 64.1666
8.696000	 64.168
8.714000	 64.1776
8.731999	 64.2049
8.750000	 64.2531
8.768000	 64.305
8.786000	 64.3357
8.804000	 64.3397
8.821999	 64.3346
8.840000	 64.3376
8.858000	 64.3486
8.876000	 64.3572
8.894000	 64.3549
8.911999	 64.3387
8.930000	 64.3156
8.948000	 64.3022
8.966000	 64.3097
8.984000	 64.3282
9.001999	 64.3347
9.020000	 64.3178
9.038000	 64.2908
9.056000	 64.2776
9.074000	 64.2856
9.092000	 64.3026
9.109999	 64.3181
9.128000	 64.3359
9.146000	 64.3615
9.164000	 64.3876
9.182000	 64.4084
9.199999	 64.4337
9.218000	 64.4746
9.236000	 64.518
9.254000	 64.527
9.272000	 64.4781
9.289999	 64.389
9.308000	 64.3013
9.326000	 64.2403
9.344000	 64.1989
9.362000	 64.1598
9.379999	 64.122
9.398000	 64.1009
9.416000	 64.1108
9.434000	 64.149
9.452000	 64.199
9.469999	 64.2429
9.488000	 64.2683
9.506000	 64.2687
9.524000	 64.243
9.542000	 64.198
9.560000	 64.1487
9.577999	 64.1133
9.596000	 64.1016
9.614000	 64.1084
9.632000	 64.1175
9.650000	 64.1168
9.667999	 64.1101
9.686000	 64.1128
9.704000	 64.1375
9.722000	 64.1824
9.740000	 64.2329
9.757999	 64.2733
9.776000	 64.2977
9.794000	 64.3106
9.812000	 64.3176
9.830000	 64.3179
9.847999	 64.3048
9.866000	 64.2741
9.884000	 64.2313
9.902000	 64.1917
9.920000	 64.1709
9.937999	 64.1736
9.956000	 64.1894
9.974000	 64.2014
9.992000	 64.2009
10.01	64.1925
10.028	64.1884
10.046	64.1953
10.064	64.2078
10.082	64.2127
10.1	64.1996
10.118	64.1687
10.136	64.13
10.154	64.0952
10.172	64.0708
10.19	64.0563
10.208	64.0484
10.226	64.0445
10.244	64.0456
10.262	64.0556
10.28	64.0773
10.298	64.1108
10.316	64.1517
10.334	64.1935
10.352	64.2303
10.37	64.2577
10.388	64.2731
10.406	64.2761
10.424	64.2691
10.442	64.2588
10.46	64.2541
10.478	64.2633
10.496	64.2879
10.514	64.3202
10.532	64.3463
10.55	64.3533
10.568	64.3367
10.586	64.3041
10.604	64.2702
10.622	64.249
10.64	64.2461
10.658	64.2577
10.676	64.2741
10.694	64.2878
10.712	64.2968
10.73	64.3044
10.748	64.3139
10.766	64.3243
10.784	64.3308
10.802	64.3298
10.82	64.3239
10.838	64.3224
10.856	64.3362
10.874	64.3704
10.892	64.4187
10.91	64.4657
10.928	64.4958
10.946	64.5001
10.964	64.4815
10.982	64.4509
11	64.4184
11.018	64.3883
11.036	64.3583
11.054	64.3237
11.072	64.2838
11.09	64.2427
11.108	64.2068
11.126	64.1799
11.144	64.1606
11.162	64.1421
11.18	64.1186
11.198	64.088
11.216	64.0549
11.234	64.0275
11.252	64.0138
11.27	64.0173
11.288	64.0361
11.306	64.0649
11.324	64.0982
11.342	64.1328
11.36	64.1681
11.378	64.2046
11.396	64.2415
11.414	64.2759
11.432	64.3027
11.45	64.317
11.468	64.3162
11.486	64.3014
11.504	64.2778
11.522	64.2532
11.54	64.2343
11.558	64.2261
11.576	64.2296
11.594	64.2426
11.612	64.2605
11.63	64.2785
11.648	64.2936
11.666	64.3048
11.684	64.3137
11.702	64.3232
11.72	64.3358
11.738	64.3527
11.756	64.3725
11.774	64.3913
11.792	64.4038
11.81	64.4058
11.828	64.395
11.846	64.372
11.864	64.3403
11.882	64.3042
11.9	64.2679
11.918	64.2337
11.936	64.2019
11.954	64.1715
11.972	64.1409
11.99	64.1101
12.008	64.0807
12.026	64.056
12.044	64.0388
12.062	64.0303
12.08	64.0288
12.098	64.0305
12.116	64.0311
12.134	64.028
12.152	64.0213
12.17	64.0134
12.188	64.0077
12.206	64.007
12.224	64.0128
12.242	64.0253
12.26	64.0444
12.278	64.0694
12.296	64.099
12.314	64.1314
12.332	64.1631
12.35	64.1896
12.368	64.2059
12.386	64.2077
12.404	64.1939
12.422	64.167
12.44	64.1327
12.458	64.0983
12.476	64.0707
12.494	64.0537
12.512	64.0478
12.53	64.0505
12.548	64.0581
12.566	64.0674
12.584	64.0766
12.602	64.0863
12.62	64.0981
12.638	64.1145
12.656	64.1373
12.674	64.1667
12.692	64.2011
12.71	64.2377
12.728	64.2726
12.746	64.3016
12.764	64.3211
12.782	64.3291
12.8	64.325
12.818	64.3096
12.836	64.2852
12.854	64.2548
12.872	64.2216
12.89	64.1882
12.908	64.156
12.926	64.1257
12.944	64.0974
12.962	64.0712
12.98	64.0484
12.998	64.0313
13.016	64.0232
13.034	64.0272
13.052	64.0453
13.07	64.077
13.088	64.1191
13.106	64.1659
13.124	64.2103
13.142	64.2447
13.16	64.2632
13.178	64.262
13.196	64.241
13.214	64.2031
13.232	64.1533
13.25	64.0978
13.268	64.0429
13.286	63.9935
13.304	63.9534
13.322	63.9246
13.34	63.9081
13.358	63.9039
13.376	63.9116
13.394	63.9306
13.412	63.9595
13.43	63.9962
13.448	64.0376
13.466	64.0795
13.484	64.1174
13.502	64.1469
13.52	64.165
13.538	64.1704
13.556	64.1644
13.574	64.1506
13.592	64.1343
13.61	64.1216
13.628	64.1179
13.646	64.1271
13.664	64.1505
13.682	64.187
13.7	64.2326
13.718	64.2821
13.736	64.3296
13.754	64.3697
13.772	64.3986
13.79	64.4141
13.808	64.4162
13.826	64.4067
13.844	64.389
13.862	64.3669
13.88	64.3439
13.898	64.3235
13.916	64.3078
13.934	64.2974
13.952	64.2917
13.97	64.2887
13.988	64.2861
14.006	64.2811
14.024	64.2716
14.042	64.2561
14.06	64.2344
14.078	64.2075
14.096	64.1772
14.114	64.1457
14.132	64.1154
14.15	64.0882
14.168	64.0654
14.186	64.048
14.204	64.0356
14.222	64.0278
14.24	64.0235
14.258	64.0219
14.276	64.022
14.294	64.0236
14.312	64.0265
14.33	64.0309
14.348	64.0373
14.366	64.0458
14.384	64.0569
14.402	64.0706
14.42	64.0869
14.438	64.1059
14.456	64.1275
14.474	64.1515
14.492	64.1775
14.51	64.205
14.528	64.2337
14.546	64.2627
14.564	64.2914
14.582	64.3189
14.6	64.3441
14.618	64.3658
14.636	64.3826
14.654	64.3928
14.672	64.3949
14.69	64.3881
14.708	64.3718
14.726	64.3463
14.744	64.3129
14.762	64.274
14.78	64.2323
14.798	64.1911
14.816	64.1531
14.834	64.1212
14.852	64.0971
14.87	64.0816
14.888	64.075
14.906	64.0767
14.924	64.0861
14.942	64.1021
14.96	64.1237
14.978	64.15
14.996	64.1805
15.014	64.2141
15.032	64.2501
15.05	64.2869
15.068	64.3226
15.086	64.3552
15.104	64.3821
15.122	64.4006
15.14	64.4088
15.158	64.4056
15.176	64.3911
15.194	64.3662
15.212	64.3336
15.23	64.2968
15.248	64.2594
15.266	64.2252
15.284	64.1981
15.302	64.1802
15.32	64.1724
15.338	64.1746
15.356	64.1854
15.374	64.2015
15.392	64.2198
15.41	64.2368
15.428	64.249
15.446	64.2536
15.464	64.2489
15.482	64.2346
15.5	64.2112
15.518	64.1807
15.536	64.146
15.554	64.1102
15.572	64.0766
15.59	64.0494
15.608	64.0309
15.626	64.023
15.644	64.0272
15.662	64.0431
15.68	64.0695
15.698	64.1047
15.716	64.1458
15.734	64.1892
15.752	64.2321
15.77	64.2713
15.788	64.3034
15.806	64.3267
15.824	64.3397
15.842	64.3418
15.86	64.3336
15.878	64.3164
15.896	64.2919
15.914	64.2628
15.932	64.2319
15.95	64.2014
15.968	64.174
15.986	64.1514
16.004	64.1344
16.022	64.1234
16.04	64.1179
16.058	64.1166
16.076	64.1185
16.094	64.1217
16.112	64.1246
16.13	64.1262
16.148	64.1252
16.166	64.1212
16.184	64.1141
16.202	64.1038
16.22	64.091
16.238	64.0758
16.256	64.0586
16.274	64.0398
16.292	64.0194
16.31	63.9975
16.328	63.9743
16.346	63.9497
16.364	63.924
16.382	63.8978
16.4	63.8715
16.418	63.8458
16.436	63.8221
16.454	63.8017
16.472	63.7856
16.49	63.7754
16.508	63.7718
16.526	63.7752
16.544	63.786
16.562	63.8035
16.58	63.8273
16.598	63.8555
16.616	63.8865
16.634	63.9189
16.652	63.9498
16.67	63.9779
16.688	64.0014
16.706	64.0184
16.724	64.0283
16.742	64.0305
16.76	64.0248
16.778	64.0117
16.796	63.9918
16.814	63.9664
16.832	63.9364
16.85	63.9036
16.868	63.8692
16.886	63.8342
16.904	63.8004
16.922	63.7683
16.94	63.739
16.958	63.7132
16.976	63.6911
16.994	63.6729
17.012	63.6587
17.03	63.6486
17.048	63.6427
17.066	63.6412
17.084	63.6443
17.102	63.6522
17.12	63.6651
17.138	63.6836
17.156	63.7081
17.174	63.739
17.192	63.7768
17.21	63.8214
17.228	63.8729
17.246	63.9308
17.264	63.9949
17.282	64.0642
17.3	64.1381
17.318	64.2152
17.336	64.2939
17.354	64.3732
17.372	64.4504
17.39	64.5244
17.408	64.5927
17.426	64.6539
17.444	64.7068
17.462	64.7496
17.48	64.7821
17.498	64.8035
17.516	64.8141
17.534	64.8138
17.552	64.8044
17.57	64.7864
17.588	64.7621
17.606	64.7323
17.624	64.6992
17.642	64.6638
17.66	64.6269
17.678	64.5901
17.696	64.5535
17.714	64.5175
17.732	64.4819
17.75	64.4468
17.768	64.4112
17.786	64.3747
17.804	64.3366
17.822	64.2968
17.84	64.2541
17.858	64.2083
17.876	64.1593
17.894	64.1066
17.912	64.0499
17.93	63.9891
17.948	63.9241
17.966	63.8545
17.984	63.7804
18.002	63.7016
18.02	63.6181
18.038	63.5297
18.056	63.4371
18.074	63.3403
18.092	63.2404
18.11	63.1378
18.128	63.0345
18.146	62.9313
18.164	62.8308
18.182	62.7348
18.2	62.6457
18.218	62.566
18.236	62.4974
18.254	62.4429
18.272	62.4035
18.29	62.3811
18.308	62.3759
18.326	62.3888
18.344	62.4193
18.362	62.4665
18.38	62.5292
18.398	62.6055
18.416	62.6933
18.434	62.79
18.452	62.8925
18.47	62.9987
18.488	63.1051
18.506	63.2101
18.524	63.3105
18.542	63.4052
18.56	63.4919
18.578	63.5703
18.596	63.6387
18.614	63.6971
18.632	63.7444
18.65	63.7808
18.668	63.806
18.686	63.8201
18.704	63.8235
18.722	63.8163
18.74	63.7994
18.758	63.773
18.776	63.7382
18.794	63.6954
18.812	63.6461
18.83	63.5912
18.848	63.5327
18.866	63.4717
18.884	63.4106
18.902	63.3507
18.92	63.2946
18.938	63.2437
18.956	63.2007
18.974	63.1667
18.992	63.1441
19.01	63.1338
19.028	63.1377
19.046	63.1563
19.064	63.1908
19.082	63.2409
19.1	63.3074
19.118	63.3891
19.136	63.4854
19.154	63.5947
19.172	63.7144
19.19	63.8431
19.208	63.9762
19.226	64.1123
19.244	64.2452
19.262	64.3743
19.28	64.4928
19.298	64.6008
19.316	64.6921
19.334	64.7672
19.352	64.8226
19.37	64.8587
19.388	64.8754
19.406	64.8726
19.424	64.854
19.442	64.8192
19.46	64.7745
19.478	64.7198
19.496	64.662
19.514	64.6021
19.532	64.5458
19.55	64.4961
19.568	64.4554
19.586	64.4277
19.604	64.4132
19.622	64.4155
19.64	64.4335
19.658	64.4674
19.676	64.5166
19.694	64.5787
19.712	64.6538
19.73	64.7357
19.748	64.8248
19.766	64.914
19.784	65.0026
19.802	65.0849
19.82	65.1576
19.838	65.2185
19.856	65.2623
19.874	65.2896
19.892	65.2964
19.91	65.2835
19.928	65.2509
19.946	65.1982
19.964	65.1297
19.982	65.0448
20	64.949
20.018	64.8443
20.036	64.7339
20.054	64.6242
20.072	64.5149
20.09	64.4139
20.108	64.3201
20.126	64.2391
20.144	64.1712
20.162	64.1176
20.18	64.0798
20.198	64.0561
20.216	64.0458
20.234	64.0482
20.252	64.0584
20.27	64.0773
20.288	64.0984
20.306	64.1216
20.324	64.1427
20.342	64.1586
20.36	64.1691
20.378	64.17
20.396	64.162
20.414	64.1445
20.432	64.1168
20.45	64.0811
20.468	64.037
20.486	63.9868
20.504	63.9346
20.522	63.8797
20.54	63.8287
20.558	63.7803
20.576	63.7401
20.594	63.7104
20.612	63.6917
20.63	63.6878
20.648	63.6978
20.666	63.7237
20.684	63.7657
20.702	63.8231
20.72	63.8962
20.738	63.984
20.756	64.0836
20.774	64.1958
20.792	64.3162
20.81	64.4451
20.828	64.5793
20.846	64.7146
20.864	64.8519
20.882	64.9847
20.9	65.1142
20.918	65.2357
20.936	65.346
20.954	65.4456
20.972	65.5287
20.99	65.5964
21.008	65.6457
21.026	65.675
21.044	65.6846
21.062	65.6729
21.08	65.6402
21.098	65.5877
21.116	65.515
21.134	65.4238
21.152	65.3174
21.17	65.1946
21.188	65.0617
21.206	64.9187
21.224	64.7688
21.242	64.6184
21.26	64.4653
21.278	64.3181
21.296	64.1773
21.314	64.0452
21.332	63.9287
21.35	63.8255
21.368	63.7409
21.386	63.6765
21.404	63.6319
21.422	63.6095
21.44	63.6089
21.458	63.6293
21.476	63.6714
21.494	63.7337
21.512	63.8122
21.53	63.9087
21.548	64.0177
21.566	64.1359
21.584	64.2642
21.602	64.3935
21.62	64.5254
21.638	64.6551
21.656	64.7758
21.674	64.8901
21.692	64.991
21.71	65.0766
21.728	65.1469
21.746	65.1968
21.764	65.227
21.782	65.237
21.8	65.2252
21.818	65.1924
21.836	65.1404
21.854	65.068
21.872	64.978
21.89	64.8744
21.908	64.7552
21.926	64.6263
21.944	64.4912
21.962	64.3484
21.98	64.206
21.998	64.0635
22.016	63.923
22.034	63.7912
22.052	63.6662
22.07	63.5509
22.088	63.4486
22.106	63.3577
22.124	63.2796
22.142	63.2156
22.16	63.1642
22.178	63.1238
22.196	63.0955
22.214	63.0765
22.232	63.0635
22.25	63.0584
22.268	63.0564
22.286	63.0552
22.304	63.056
22.322	63.0544
22.34	63.0495
22.358	63.0416
22.376	63.0283
22.394	63.0095
22.412	62.9857
22.43	62.957
22.448	62.9226
22.466	62.8851
22.484	62.846
22.502	62.8041
22.52	62.7639
22.538	62.7265
22.556	62.6914
22.574	62.6636
22.592	62.6434
22.61	62.631
22.628	62.6302
22.646	62.641
22.664	62.6633
22.682	62.6983
22.7	62.7466
22.718	62.8064
22.736	62.8768
22.754	62.9588
22.772	63.0495
22.79	63.1466
22.808	63.2519
22.826	63.3607
22.844	63.4707
22.862	63.5835
22.88	63.6937
22.898	63.799
22.916	63.901
22.934	63.9946
22.952	64.0782
22.97	64.153
22.988	64.216
23.006	64.2661
23.024	64.3044
23.042	64.3301
23.06	64.3426
23.078	64.3428
23.096	64.3321
23.114	64.3099
23.132	64.277
23.15	64.2369
23.168	64.1887
23.186	64.1334
23.204	64.0753
23.222	64.0136
23.24	63.9491
23.258	63.8859
23.276	63.8235
23.294	63.7623
23.312	63.7055
23.33	63.6531
23.348	63.6048
23.366	63.5626
23.384	63.5263
23.402	63.4959
23.42	63.4717
23.438	63.4542
23.456	63.4428
23.474	63.4365
23.492	63.4356
23.51	63.4399
23.528	63.4477
23.546	63.4592
23.564	63.4744
23.582	63.4911
23.6	63.5088
23.618	63.5282
23.636	63.5471
23.654	63.5646
23.672	63.5815
23.69	63.5962
23.708	63.6077
23.726	63.6167
23.744	63.6223
23.762	63.6238
23.78	63.6215
23.798	63.6154
23.816	63.6054
23.834	63.5912
23.852	63.5736
23.87	63.5533
23.888	63.5297
23.906	63.5037
23.924	63.4775
23.942	63.4505
23.96	63.4229
23.978	63.3981
23.996	63.3765
24.014	63.3571
24.032	63.3441
24.05	63.34
24.068	63.3421
24.086	63.3546
24.104	63.3816
24.122	63.4204
24.14	63.4733
24.158	63.5441
24.176	63.6318
24.194	63.7366
24.212	63.8606
24.23	64.0042
24.248	64.1667
24.266	64.3486
24.284	64.5504
24.302	64.7722
24.32	65.012
24.338	65.2682
24.356	65.5434
24.374	65.8337
24.392	66.1338
24.41	66.4459
24.428	66.7686
24.446	67.0946
24.464	67.4216
24.482	67.7533
24.5	68.0818
24.518	68.4007
24.536	68.7152
24.554	69.0206
24.572	69.3099
24.59	69.5844
24.608	69.8446
24.626	70.0861
24.644	70.3069
24.662	70.5089
24.68	70.6912
24.698	70.8527
24.716	70.9927
24.734	71.1131
24.752	71.216
24.77	71.3006
24.788	71.3671
24.806	71.4191
24.824	71.4589
24.842	71.4834
24.86	71.4968
24.878	71.5041
24.896	71.5039
24.914	71.4963
24.932	71.4846
24.95	71.471
24.968	71.4536
24.986	71.4335
25.004	71.4121
25.022	71.39
25.04	71.366
25.058	71.3388
25.076	71.308
25.094	71.2747
25.112	71.2369
25.13	71.1928
25.148	71.1444
25.166	71.0902
25.184	71.0263
25.202	70.9515
25.22	70.8684
25.238	70.7731
25.256	70.662
25.274	70.5358
25.292	70.3952
25.31	70.2391
25.328	70.0661
25.346	69.8762
25.364	69.6718
25.382	69.4554
25.4	69.2238
25.418	68.9787
25.436	68.7278
25.454	68.4759
25.472	68.2149
25.49	67.9542
25.508	67.7063
25.526	67.4738
25.544	67.2504
25.562	67.0443
25.58	66.8634
25.598	66.7042
25.616	66.5667
25.634	66.4546
25.652	66.3694
25.67	66.3071
25.688	66.2731
25.706	66.2738
25.724	66.3096
25.742	66.3775
25.76	66.4817
25.778	66.6255
25.796	66.7999
25.814	67.0129
25.832	67.2788
25.85	67.6063
25.868	67.9826
25.886	68.4191
25.904	68.9304
25.922	69.5334
25.94	70.2211
25.958	70.9629
25.976	71.7285
25.994	72.5393
26.012	73.39
26.03	74.238
26.048	75.0469
26.066	75.8448
26.084	76.6208
26.102	77.346
26.12	78.0013
26.138	78.6067
26.156	79.1527
26.174	79.625
26.192	79.9983
26.21	80.2719
26.228	80.503
26.246	80.7497
26.264	81.004
26.282	81.2437
26.3	81.5213
26.318	81.8882
26.336	82.3422
26.354	82.8641
26.372	83.4558
26.39	84.1206
26.408	84.877
26.426	85.7042
26.444	86.5683
26.462	87.4525
26.48	88.4495
26.498	89.459
26.516	90.3331
26.534	90.9652
26.552	91.4755
26.57	91.8023
26.588	91.8427
26.606	91.5149
26.624	90.8635
26.642	89.9235
26.66	88.7226
26.678	87.2561
26.696	85.4707
26.714	83.4624
26.732	81.3393
26.75	79.103
26.768	76.5992
26.786	74.0788
26.804	71.8197
26.822	69.9555
26.84	68.2727
26.858	66.8987
26.876	65.9873
26.894	65.6548
26.912	65.8322
26.93	66.4377
26.948	67.394
26.966	68.7982
26.984	70.9126
27.002	73.1851
27.02	75.0105
27.028	75.4718