File: Bakgrunnsmateriale/MATLAB/FTIR/ftir_data/subAa/Mapping_121/BZ1503107-1_t11_cm-1.asc
PE IR       SPECTRUM    SPECTRUM    ASCII       PEDS        1.60
  -1
BZ69A1~1.ASC
17/04/07
14:06:39.00
17/04/07
14:06:39.00
tln
$BZ1503107-1_t0011$<tbV0>[-13.0,-13.0,8.0,0.0,27,1,0]
370
64

2002,4.07
MIRTGS : RIGHTBACK : INTERNAL 2
MIR : ON : INTERNAL 2
OPTKBR

0.200000
8
8.000000
FILLER
RATIO
SPECTRUM
UNLOCKED 256

DOUBLE
64
COMBINED
1
0
0

1.000000
RATIO

1
0
TRUE
51149
0
LEFT NOT FITTED RIGHT NOT FITTED 0
NONE
NONE
15600
12
4.427000
51148
TRUE
1 0 8 72 0 0 0 0

15798

#HDR
-1
-1
#GR
CM-1
%T
2.38419e-05
0.0
5000
-1.000000
4631
8
92.8159
61.6125
#DATA
5000	65.1273
4996	64.4849
4992	64.6954
4988	64.7568
4984	63.7483
4980	63.514
4976	64.4747
4972	65.1699
4968	65.5776
4964	65.3916
4960	64.4557
4956	63.6898
4952	63.0722
4948	63.0693
4944	64.5087
4940	65.822
4936	65.6505
4932	65.0162
4928	64.2276
4924	63.4079
4920	63.7452
4916	64.728
4912	65.0011
4908	64.9216
4904	64.7923
4900	64.4524
4896	64.7037
4892	65.2775
4888	65.3887
4884	65.4161
4880	65.4011
4876	65.1303
4872	64.8174
4868	64.8791
4864	65.1888
4860	65.323
4856	65.1423
4852	64.9407
4848	65.2348
4844	65.6648
4840	65.6551
4836	65.2936
4832	64.8084
4828	64.5996
4824	64.688
4820	64.7048
4816	65.1196
4812	65.4822
4808	65.3025
4804	65.8208
4800	66.4273
4796	66.0379
4792	65.7115
4788	65.7651
4784	65.4755
4780	65.0691
4776	65.1426
4772	65.1487
4768	64.6401
4764	64.7281
4760	65.6053
4756	65.7023
4752	65.0569
4748	64.8338
4744	64.9213
4740	64.9524
4736	64.9876
4732	65.0348
4728	64.8693
4724	64.5195
4720	64.4101
4716	64.7089
4712	65.0081
4708	64.8837
4704	64.7428
4700	64.8632
4696	64.9322
4692	65.0024
4688	65.1532
4684	65.1602
4680	64.9899
4676	64.848
4672	64.8465
4668	64.9331
4664	64.8933
4660	64.7217
4656	64.6244
4652	64.6377
4648	64.8218
4644	64.9261
4640	64.7042
4636	64.469
4632	64.3972
4628	64.4462
4624	64.4861
4620	64.4044
4616	64.421
4612	64.5976
4608	64.5116
4604	64.2747
4600	64.3481
4596	64.4797
4592	64.4514
4588	64.3633
4584	64.1911
4580	64.0528
4576	64.1271
4572	64.1469
4568	64.0458
4564	63.9342
4560	63.6719
4556	63.4549
4552	63.4851
4548	63.6928
4544	63.8
4540	63.8479
4536	64.1063
4532	64.1254
4528	63.7881
4524	63.5038
4520	63.4646
4516	63.6132
4512	63.6974
4508	63.6719
4504	63.8207
4500	64.1989
4496	65.2432
4492	67.0826
4488	67.8017
4484	68.1923
4480	68.488
4476	66.0952
4472	63.3844
4468	62.418
4464	62.0479
4460	62.7061
4456	63.4249
4452	63.8637
4448	69.2856
4444	77.7357
4440	82.1503
4436	80.4505
4432	72.6138
4428	66.0025
4424	64.6219
4420	64.5251
4416	64.2392
4412	63.9269
4408	64.0321
4404	64.0611
4400	63.6516
4396	63.6668
4392	64.1325
4388	64.1792
4384	63.8043
4380	63.4685
4376	63.1818
4372	63.2712
4368	63.7309
4364	63.9608
4360	64.0935
4356	64.4017
4352	64.4997
4348	64.2588
4344	64.0847
4340	64.0505
4336	64.1117
4332	64.2709
4328	64.3727
4324	64.368
4320	64.3181
4316	64.4625
4312	64.7742
4308	64.9676
4304	64.9702
4300	64.7067
4296	64.4018
4292	64.3668
4288	64.5337
4284	64.6702
4280	64.6515
4276	64.6645
4272	64.7313
4268	64.7613
4264	64.7505
4260	64.6215
4256	64.5903
4252	64.7769
4248	64.8226
4244	64.6824
4240	64.6415
4236	64.7442
4232	64.9491
4228	65.1353
4224	65.1249
4220	64.9893
4216	64.8941
4212	64.8532
4208	64.7494
4204	64.7605
4200	65.0222
4196	65.0871
4192	64.9503
4188	64.9649
4184	65.061
4180	65.0901
4176	65.0513
4172	65.0544
4168	65.1009
4164	65.1707
4160	65.2295
4156	65.1588
4152	65.0004
4148	65.0004
4144	65.2009
4140	65.3446
4136	65.4136
4132	65.4715
4128	65.4389
4124	65.4158
4120	65.4725
4116	65.5591
4112	65.6706
4108	65.6864
4104	65.6232
4100	65.5787
4096	65.4515
4092	65.3952
4088	65.4528
4084	65.3728
4080	65.2117
4076	65.1394
4072	65.1479
4068	65.238
4064	65.4042
4060	65.4814
4056	65.3922
4052	65.3014
4048	65.3038
4044	65.2639
4040	65.1689
4036	65.1962
4032	65.2526
4028	65.1628
4024	65.0577
4020	65.0213
4016	64.9818
4012	65.0059
4008	65.0739
4004	65.0592
4000	65.068
3996	65.1365
3992	65.0775
3988	64.9121
3984	64.8786
3980	64.9844
3976	65.1159
3972	65.2469
3968	65.2147
3964	65.0142
3960	64.8788
3956	64.8698
3952	64.8993
3948	64.9266
3944	65.0399
3940	65.1262
3936	65.023
3932	64.9386
3928	64.9442
3924	64.8491
3920	64.7796
3916	64.9364
3912	65.1356
3908	65.1969
3904	65.1119
3900	64.8796
3896	64.7491
3892	64.8892
3888	65.0253
3884	64.9784
3880	64.866
3876	64.8561
3872	64.8784
3868	64.8484
3864	64.8412
3860	64.9317
3856	65.1459
3852	65.2997
3848	65.3125
3844	65.2763
3840	65.16
3836	65.0522
3832	65.0887
3828	65.1268
3824	65.0676
3820	65.0316
3816	65.0198
3812	65.0537
3808	65.1326
3804	65.1689
3800	65.1594
3796	65.0925
3792	65.0221
3788	64.9987
3784	64.9722
3780	65.0091
3776	65.1483
3772	65.2454
3768	65.3085
3764	65.335
3760	65.2731
3756	65.276
3752	65.3536
3748	65.4038
3744	65.3865
3740	65.3173
3736	65.257
3732	65.1348
3728	65.0658
3724	65.1413
3720	65.1916
3716	65.2366
3712	65.302
3708	65.3207
3704	65.3078
3700	65.2904
3696	65.3069
3692	65.3527
3688	65.3967
3684	65.4069
3680	65.3741
3676	65.3584
3672	65.3494
3668	65.2786
3664	65.243
3660	65.333
3656	65.3863
3652	65.3773
3648	65.3906
3644	65.3668
3640	65.2828
3636	65.2706
3632	65.3994
3628	65.4854
3624	65.4252
3620	65.3347
3616	65.3302
3612	65.3258
3608	65.2597
3604	65.2729
3600	65.2748
3596	65.1474
3592	65.0764
3588	65.1173
3584	65.1649
3580	65.1315
3576	65.0838
3572	65.1449
3568	65.1898
3564	65.1403
3560	65.1113
3556	65.2316
3552	65.3913
3548	65.3931
3544	65.27
3540	65.1436
3536	65.0709
3532	65.0124
3528	65.0108
3524	65.0804
3520	65.0683
3516	65.0399
3512	65.1562
3508	65.2977
3504	65.3797
3500	65.3259
3496	65.1467
3492	65.0604
3488	65.1278
3484	65.2064
3480	65.149
3476	65.0427
3472	65.012
3468	65.0289
3464	65.0387
3460	65.046
3456	65.055
3452	65.023
3448	64.9842
3444	64.988
3440	65.0062
3436	65.0349
3432	65.0939
3428	65.1293
3424	65.1434
3420	65.1974
3416	65.2481
3412	65.1939
3408	65.0887
3404	65.0482
3400	65.0552
3396	65.0859
3392	65.1041
3388	65.1209
3384	65.1509
3380	65.0851
3376	64.9848
3372	65.005
3368	65.065
3364	65.0706
3360	65.0434
3356	65.0386
3352	65.1035
3348	65.1765
3344	65.1971
3340	65.1627
3336	65.1681
3332	65.2454
3328	65.2695
3324	65.2456
3320	65.2225
3316	65.222
3312	65.2541
3308	65.2323
3304	65.1683
3300	65.1234
3296	65.0936
3292	65.1536
3288	65.2187
3284	65.1317
3280	65.0151
3276	65.0141
3272	65.0848
3268	65.0698
3264	65.0318
3260	65.134
3256	65.2622
3252	65.2399
3248	65.1627
3244	65.1067
3240	65.0141
3236	64.9968
3232	65.042
3228	65.1124
3224	65.2289
3220	65.2988
3216	65.3286
3212	65.3144
3208	65.2672
3204	65.1953
3200	65.0891
3196	65.0508
3192	65.0068
3188	64.9248
3184	64.9612
3180	65.0058
3176	64.978
3172	64.9939
3168	65.0192
3164	65.0517
3160	65.1365
3156	65.1704
3152	65.1198
3148	65.1329
3144	65.1815
3140	65.153
3136	65.1195
3132	65.0874
3128	65.0766
3124	65.1575
3120	65.1714
3116	65.0528
3112	64.9985
3108	65.081
3104	65.1944
3100	65.2448
3096	65.2418
3092	65.2072
3088	65.1104
3084	65.0358
3080	65.0713
3076	65.1614
3072	65.1882
3068	65.1296
3064	65.0849
3060	65.0582
3056	65.0303
3052	65.0921
3048	65.1856
3044	65.1525
3040	65.0804
3036	65.058
3032	65.0365
3028	65.0512
3024	65.1139
3020	65.1798
3016	65.2205
3012	65.2011
3008	65.1717
3004	65.1996
3000	65.1855
2996	65.0712
2992	65.0116
2988	65.0279
2984	65.0335
2980	65.0624
2976	65.0932
2972	65.1165
2968	65.0908
2964	64.9959
2960	64.9335
2956	64.9333
2952	64.9759
2948	65.0208
2944	65.0574
2940	65.0608
2936	65.0058
2932	64.9904
2928	65.0424
2924	65.0196
2920	64.9349
2916	64.8793
2912	64.8305
2908	64.8805
2904	64.9834
2900	64.9663
2896	64.9554
2892	65.0198
2888	65.0049
2884	64.9829
2880	65.0918
2876	65.1873
2872	65.143
2868	65.0393
2864	65.0153
2860	65.1105
2856	65.1957
2852	65.1721
2848	65.1043
2844	65.1241
2840	65.1939
2836	65.2013
2832	65.2033
2828	65.1739
2824	65.0719
2820	65.0154
2816	65.0421
2812	65.1014
2808	65.1438
2804	65.1563
2800	65.1411
2796	65.1143
2792	65.0962
2788	65.0901
2784	65.0933
2780	65.1203
2776	65.1175
2772	65.0196
2768	64.9553
2764	64.9769
2760	64.9992
2756	65.023
2752	65.0862
2748	65.1627
2744	65.1461
2740	65.093
2736	65.1011
2732	65.1086
2728	65.1024
2724	65.1023
2720	65.1171
2716	65.1247
2712	65.043
2708	64.9437
2704	64.983
2700	65.1033
2696	65.1547
2692	65.1545
2688	65.1708
2684	65.175
2680	65.1675
2676	65.1606
2672	65.1537
2668	65.1774
2664	65.1791
2660	65.169
2656	65.1869
2652	65.1161
2648	65.0057
2644	65.0199
2640	65.0944
2636	65.1045
2632	65.0946
2628	65.107
2624	65.101
2620	65.065
2616	65.0199
2612	65.0162
2608	65.0314
2604	65.0247
2600	65.066
2596	65.1366
2592	65.1355
2588	65.0721
2584	65.0467
2580	65.09
2576	65.1062
2572	65.0908
2568	65.138
2564	65.1966
2560	65.1668
2556	65.0959
2552	65.0722
2548	65.0864
2544	65.0948
2540	65.0746
2536	65.0653
2532	65.0847
2528	65.0635
2524	65.0044
2520	64.9651
2516	64.9845
2512	65.0285
2508	65.0277
2504	65.0331
2500	65.1177
2496	65.1944
2492	65.2251
2488	65.2798
2484	65.2698
2480	65.1701
2476	65.1017
2472	65.0685
2468	65.0249
2464	65.0424
2460	65.1088
2456	65.1236
2452	65.1282
2448	65.1182
2444	65.0772
2440	65.0893
2436	65.1419
2432	65.1162
2428	65.0152
2424	64.989
2420	65.0582
2416	65.1218
2412	65.1384
2408	65.1049
2404	65.0557
2400	65.0625
2396	65.0807
2392	65.0572
2388	65.0393
2384	65.0213
2380	65.0412
2376	65.1061
2372	65.1056
2368	65.0549
2364	65.0746
2360	65.1487
2356	65.1471
2352	65.1083
2348	65.0975
2344	65.0389
2340	64.9683
2336	64.9637
2332	65.0124
2328	65.0326
2324	64.9609
2320	64.8897
2316	64.8929
2312	64.9403
2308	64.9672
2304	64.9425
2300	64.9395
2296	64.9603
2292	64.9501
2288	64.9251
2284	64.8822
2280	64.8522
2276	64.8538
2272	64.8389
2268	64.8308
2264	64.8732
2260	64.9318
2256	64.9695
2252	65.0006
2248	65.0169
2244	65.0199
2240	65.0203
2236	64.9944
2232	64.967
2228	64.9438
2224	64.9222
2220	64.9552
2216	64.9661
2212	64.9185
2208	64.9179
2204	64.9249
2200	64.936
2196	64.9763
2192	64.9499
2188	64.8875
2184	64.8864
2180	64.9142
2176	64.9192
2172	64.9118
2168	64.9325
2164	64.9445
2160	64.844
2156	64.7223
2152	64.6736
2148	64.7207
2144	64.854
2140	64.8998
2136	64.8537
2132	64.8675
2128	64.958
2124	65.0213
2120	65.0051
2116	64.9809
2112	64.9884
2108	64.9611
2104	64.9167
2100	64.887
2096	64.8173
2092	64.7669
2088	64.7863
2084	64.8336
2080	64.8712
2076	64.87
2072	64.8712
2068	64.9023
2064	64.8991
2060	64.8717
2056	64.8853
2052	64.9182
2048	64.9809
2044	65.0158
2040	64.9756
2036	64.9539
2032	64.9767
2028	65.0048
2024	64.9861
2020	64.9123
2016	64.8916
2012	64.9396
2008	64.9485
2004	64.9312
2000	64.9143
1996	64.8956
1992	64.9124
1988	64.9365
1984	64.9108
1980	64.8726
1976	64.8961
1972	64.9257
1968	64.9274
1964	64.9629
1960	64.986
1956	64.9848
1952	64.9998
1948	64.9516
1944	64.8989
1940	64.9074
1936	64.889
1932	64.8544
1928	64.8443
1924	64.8525
1920	64.8733
1916	64.9201
1912	64.9796
1908	64.9759
1904	64.9311
1900	64.9112
1896	64.9101
1892	64.9491
1888	64.976
1884	64.9153
1880	64.8361
1876	64.8244
1872	64.905
1868	64.9763
1864	64.9221
1860	64.8408
1856	64.8416
1852	64.8636
1848	64.8368
1844	64.8036
1840	64.7968
1836	64.7817
1832	64.7827
1828	64.8025
1824	64.8108
1820	64.8208
1816	64.8231
1812	64.7878
1808	64.7755
1804	64.8306
1800	64.8793
1796	64.8459
1792	64.7704
1788	64.7727
1784	64.7957
1780	64.7707
1776	64.7965
1772	64.8832
1768	64.9141
1764	64.8727
1760	64.839
1756	64.8101
1752	64.7519
1748	64.6535
1744	64.5955
1740	64.6699
1736	64.7594
1732	64.6987
1728	64.5448
1724	64.5067
1720	64.5931
1716	64.6474
1712	64.6728
1708	64.7046
1704	64.7468
1700	64.7971
1696	64.7725
1692	64.7386
1688	64.8212
1684	64.868
1680	64.7576
1676	64.7034
1672	64.782
1668	64.8023
1664	64.7889
1660	64.8526
1656	64.9205
1652	64.8735
1648	64.7508
1644	64.7077
1640	64.7622
1636	64.7973
1632	64.7725
1628	64.7586
1624	64.7708
1620	64.7948
1616	64.7536
1612	64.6491
1608	64.6433
1604	64.6885
1600	64.6699
1596	64.6551
1592	64.6564
1588	64.6461
1584	64.7029
1580	64.8206
1576	64.8633
1572	64.7932
1568	64.7282
1564	64.7805
1560	64.9111
1556	64.9394
1552	64.8488
1548	64.7609
1544	64.7562
1540	64.8162
1536	64.7987
1532	64.7202
1528	64.7017
1524	64.7182
1520	64.7312
1516	64.7677
1512	64.8279
1508	64.8551
1504	64.7706
1500	64.7026
1496	64.7802
1492	64.8204
1488	64.7745
1484	64.7355
1480	64.7452
1476	64.7863
1472	64.7566
1468	64.6852
1464	64.6435
1460	64.6676
1456	64.6859
1452	64.6008
1448	64.5343
1444	64.5651
1440	64.6437
1436	64.7267
1432	64.7308
1428	64.6843
1424	64.6787
1420	64.6371
1416	64.571
1412	64.5975
1408	64.6003
1404	64.5074
1400	64.477
1396	64.5276
1392	64.5383
1388	64.5028
1384	64.4487
1380	64.4459
1376	64.5038
1372	64.5171
1368	64.5444
1364	64.5911
1360	64.5609
1356	64.5479
1352	64.5501
1348	64.492
1344	64.4725
1340	64.4775
1336	64.4874
1332	64.5277
1328	64.5092
1324	64.4775
1320	64.4706
1316	64.4109
1312	64.364
1308	64.3717
1304	64.3821
1300	64.3779
1296	64.3867
1292	64.4777
1288	64.5225
1284	64.4089
1280	64.3167
1276	64.3299
1272	64.366
1268	64.3644
1264	64.3553
1260	64.3738
1256	64.4036
1252	64.442
1248	64.3998
1244	64.2758
1240	64.2421
1236	64.2842
1232	64.2544
1228	64.2349
1224	64.3016
1220	64.3736
1216	64.4705
1212	64.5585
1208	64.51
1204	64.38
1200	64.3691
1196	64.4338
1192	64.3834
1188	64.2827
1184	64.2493
1180	64.2506
1176	64.2816
1172	64.3753
1168	64.4154
1164	64.3451
1160	64.3048
1156	64.2981
1152	64.2777
1148	64.3035
1144	64.3764
1140	64.4562
1136	64.494
1132	64.5295
1128	64.5169
1124	64.414
1120	64.3557
1116	64.3707
1112	64.3844
1108	64.3304
1104	64.2251
1100	64.2189
1096	64.3751
1092	64.524
1088	64.5194
1084	64.4573
1080	64.4185
1076	64.3545
1072	64.2848
1068	64.2299
1064	64.2047
1060	64.2533
1056	64.3331
1052	64.2924
1048	64.1311
1044	64.022
1040	64.0493
1036	64.2003
1032	64.3545
1028	64.4142
1024	64.413
1020	64.409
1016	64.4218
1012	64.4217
1008	64.4167
1004	64.3837
1000	64.2874
996	 64.2336
992	 64.2493
988	 64.3185
984	 64.4534
980	 64.5295
976	 64.4865
972	 64.4052
968	 64.378
964	 64.3988
960	 64.3565
956	 64.3125
952	 64.3575
948	 64.4423
944	 64.519
940	 64.5156
936	 64.4152
932	 64.287
928	 64.2517
924	 64.3281
920	 64.412
916	 64.4592
912	 64.4589
908	 64.4211
904	 64.3771
900	 64.3651
896	 64.3491
892	 64.2217
888	 64.0659
884	 64.0521
880	 64.1441
876	 64.1932
872	 64.1877
868	 64.2112
864	 64.2443
860	 64.2803
856	 64.3821
852	 64.4951
848	 64.504
844	 64.4123
840	 64.3034
836	 64.2891
832	 64.3302
828	 64.3025
824	 64.3043
820	 64.3633
816	 64.3732
812	 64.3267
808	 64.2331
804	 64.1415
800	 64.1655
796	 64.3048
792	 64.3615
788	 64.3134
784	 64.2547
780	 64.2758
776	 64.3945
772	 64.3975
768	 64.2514
764	 64.1628
760	 64.1585
756	 64.1646
752	 64.183
748	 64.1785
744	 64.1496
740	 64.1289
736	 64.1132
732	 64.1897
728	 64.3036
724	 64.2279
720	 64.0604
716	 64.082
712	 64.1929
708	 64.1615
704	 64.1145
700	 64.1056
696	 64.0092
692	 63.9232
688	 63.8831
684	 63.9791
680	 64.1634
676	 64.1126
672	 63.958
668	 63.9472
664	 64.0027
660	 63.9931
656	 63.8055
652	 63.6605
648	 63.8781
644	 64.1369
640	 64.2713
636	 64.2855
632	 64.1139
628	 64.011
624	 63.9195
620	 63.8719
616	 64.0162
612	 64.1804
608	 64.278
604	 64.2524
600	 63.975
596	 63.6613
592	 63.7674
588	 64.1457
584	 64.3152
580	 64.4412
576	 64.4251
572	 63.8878
568	 63.609
564	 63.8947
560	 64.0639
556	 64.6656
552	 65.3571
548	 64.5344
544	 63.3511
540	 63.7039
536	 64.6222
532	 65.2083
528	 65.4566
524	 65.2776
520	 65.3178
516	 65.6719
512	 65.5137
508	 64.8751
504	 64.6077
500	 64.3095
496	 63.4764
492	 63.4906
488	 64.2787
484	 64.6725
480	 64.3724
476	 63.3824
472	 62.7517
468	 62.9484
464	 63.4953
460	 63.8915
456	 63.8574
452	 64.1668
448	 64.4829
444	 64.2902
440	 64.3123
436	 63.7707
432	 63.0202
428	 63.6183
424	 64.1428
420	 63.7232
416	 64.033
412	 65.8386
408	 67.0629
404	 66.6594
400	 66.7565
396	 65.7316
392	 62.9917
388	 61.6876
384	 63.8616
380	 64.3027
376	 73.1319
372	 70.5168
370	 92.8159