File: Bakgrunnsmateriale/MATLAB/FTIR/ftir_data/subAa/Mapping_121/BZ1503107-1_t31.asc
PE IR       SPECTRUM    SPECTRUM    ASCII       PEDS        1.60
  -1
BZ2D47~1.ASC
17/04/07
15:46:48.00
17/04/07
15:47:14.00
tln
$BZ1503107-1_t0031$<tbV0>[-7.8,-7.8,8.0,0.0,27,1,0]
27.028
64

2002,4.07
MIRTGS : RIGHTBACK : INTERNAL 2
MIR : ON : INTERNAL 2
OPTKBR

0.200000
8
8.000000
FILLER
RATIO
SPECTRUM
UNLOCKED 256

DOUBLE
64
COMBINED
1
0
0

0.002000
RATIO

1
0
TRUE
51149
0
LEFT NOT FITTED RIGHT NOT FITTED 0
NONE
NONE
15600
12
4.427000
51148
TRUE
1 0 8 72 0 0 0 0

15798

#HDR
-1
-1
#GR
µM
%T
2.38419e-05
0.0
2.000000
0.002000
12515
8
87.6863
44.0556
#DATA
2.000000	 64.7804
2.018000	 64.8446
2.036000	 64.3891
2.054000	 64.6092
2.072000	 65.0392
2.090000	 65.097
2.108000	 64.6979
2.126000	 65.1576
2.144000	 64.8117
2.162000	 64.8222
2.180000	 64.6963
2.198000	 64.4127
2.216000	 65.0251
2.234000	 64.503
2.252000	 65.4074
2.270000	 66.7471
2.288000	 65.2498
2.306000	 65.1085
2.324000	 64.6824
2.342000	 65.1523
2.360000	 64.7577
2.378000	 64.9719
2.396000	 64.7991
2.414000	 65.1836
2.432000	 65.1889
2.450000	 65.0178
2.468000	 65.1027
2.486000	 64.9695
2.504000	 65.1521
2.522000	 64.9413
2.540000	 65.1104
2.558000	 64.8027
2.576000	 65.0943
2.594000	 65.1153
2.612000	 65.1232
2.630000	 65.307
2.648000	 65.0806
2.666000	 65.191
2.684000	 65.2756
2.702000	 65.1652
2.720000	 65.0354
2.738000	 65.3043
2.756000	 65.2098
2.774000	 65.3129
2.792000	 65.1171
2.810000	 65.1095
2.828000	 64.9895
2.846000	 64.9873
2.864000	 65.0468
2.882000	 65.1893
2.900000	 65.147
2.918000	 65.115
2.936000	 65.2776
2.954000	 65.3652
2.972000	 65.0639
2.990000	 65.2456
3.008000	 65.0708
3.026000	 64.9265
3.044000	 65.0719
3.062000	 65.0217
3.080000	 65.1562
3.098000	 65.0469
3.116000	 65.0665
3.134000	 64.9663
3.152000	 65.182
3.170000	 65.1669
3.188000	 65.0041
3.206000	 65.103
3.224000	 65.1293
3.242000	 65.0177
3.260000	 65.0081
3.278000	 65.1855
3.296000	 65.0377
3.314000	 64.9687
3.332000	 65.1151
3.350000	 65.1549
3.368000	 64.9165
3.386000	 64.9817
3.404000	 64.9067
3.422000	 65.098
3.440000	 65.0195
3.458000	 65.04
3.476000	 65.1671
3.494000	 65.0959
3.512000	 64.9704
3.530000	 64.9821
3.548000	 64.9442
3.566000	 65.0119
3.584000	 65.1933
3.602000	 65.0536
3.620000	 65.1558
3.638000	 65.2053
3.656000	 65.0533
3.674000	 65.1429
3.692000	 64.8675
3.710000	 65.0373
3.728000	 65.014
3.746000	 64.979
3.764000	 64.971
3.782000	 64.9543
3.800000	 65.0241
3.818000	 64.942
3.836000	 64.9652
3.854000	 64.9613
3.872000	 65.0024
3.890000	 64.9967
3.908000	 65.0971
3.926000	 64.9796
3.944000	 64.9856
3.962000	 64.9215
3.980000	 64.9425
3.998000	 64.9813
4.016000	 64.8969
4.034000	 64.9009
4.052000	 64.9704
4.070000	 64.8381
4.088000	 65.0424
4.106000	 64.9748
4.124000	 64.9524
4.141999	 64.9922
4.160000	 64.9982
4.178000	 65.0097
4.196000	 64.9004
4.214000	 64.9278
4.232000	 64.9031
4.250000	 65.004
4.268000	 64.9415
4.286000	 64.9851
4.304000	 64.9416
4.322000	 64.9756
4.340000	 64.884
4.358000	 64.8592
4.375999	 64.9432
4.394000	 64.8426
4.412000	 64.8017
4.430000	 64.87
4.448000	 64.9207
4.466000	 64.8499
4.484000	 64.9424
4.502000	 64.9192
4.520000	 64.8465
4.538000	 64.9918
4.556000	 64.9998
4.574000	 64.9055
4.592000	 64.9341
4.609999	 64.8328
4.628000	 64.7553
4.646000	 64.7514
4.664000	 64.7286
4.682000	 64.7989
4.700000	 64.7731
4.718000	 64.7785
4.736000	 64.7907
4.754000	 64.8058
4.772000	 64.8937
4.790000	 64.8717
4.808000	 64.7858
4.826000	 64.8647
4.843999	 64.7824
4.862000	 64.774
4.880000	 64.8163
4.898000	 64.7492
4.916000	 64.7691
4.934000	 64.8415
4.952000	 64.8449
4.970000	 64.7671
4.988000	 64.7787
5.006000	 64.7493
5.024000	 64.7161
5.042000	 64.8103
5.060000	 64.7816
5.077999	 64.8701
5.096000	 64.7084
5.114000	 64.6236
5.132000	 64.753
5.150000	 64.7626
5.168000	 64.7927
5.186000	 64.7053
5.204000	 64.7158
5.222000	 64.7088
5.240000	 64.6614
5.258000	 64.6063
5.276000	 64.6722
5.294000	 64.8044
5.312000	 64.709
5.330000	 64.6637
5.348000	 64.6608
5.366000	 64.6219
5.384000	 64.7138
5.402000	 64.7658
5.420000	 64.7163
5.438000	 64.6777
5.456000	 64.6745
5.474000	 64.6322
5.492000	 64.618
5.510000	 64.6043
5.528000	 64.5462
5.546000	 64.6123
5.564000	 64.6873
5.582000	 64.7364
5.600000	 64.6756
5.618000	 64.5781
5.636000	 64.5229
5.654000	 64.547
5.672000	 64.5924
5.690000	 64.5445
5.708000	 64.5127
5.726000	 64.4436
5.744000	 64.3944
5.762000	 64.3482
5.780000	 64.3045
5.798000	 64.3483
5.816000	 64.4117
5.834000	 64.4175
5.852000	 64.4232
5.870000	 64.4969
5.888000	 64.5956
5.906000	 64.6394
5.923999	 64.6331
5.942000	 64.5208
5.960000	 64.5294
5.978000	 64.6648
5.996000	 64.7005
6.014000	 64.6086
6.032000	 64.4583
6.050000	 64.4458
6.068000	 64.5198
6.086000	 64.5005
6.104000	 64.5071
6.122000	 64.4923
6.140000	 64.3959
6.158000	 64.3313
6.176000	 64.3055
6.194000	 64.3813
6.212000	 64.4909
6.230000	 64.4845
6.248000	 64.388
6.266000	 64.38
6.284000	 64.4216
6.302000	 64.4187
6.320000	 64.3961
6.338000	 64.4082
6.356000	 64.4856
6.374000	 64.5283
6.392000	 64.5643
6.410000	 64.5528
6.428000	 64.4495
6.446000	 64.4025
6.464000	 64.4428
6.482000	 64.4014
6.500000	 64.3136
6.518000	 64.329
6.536000	 64.3053
6.554000	 64.2458
6.572000	 64.2945
6.590000	 64.3979
6.608000	 64.4454
6.626000	 64.4317
6.644000	 64.4129
6.662000	 64.4096
6.680000	 64.3533
6.698000	 64.3564
6.716000	 64.5061
6.734000	 64.5765
6.752000	 64.514
6.770000	 64.4366
6.788000	 64.4045
6.806000	 64.3795
6.824000	 64.3237
6.842000	 64.2585
6.860000	 64.2307
6.878000	 64.2563
6.896000	 64.2881
6.914000	 64.3154
6.932000	 64.3671
6.950000	 64.4132
6.968000	 64.4112
6.986000	 64.3797
7.004000	 64.3773
7.022000	 64.3949
7.040000	 64.37
7.058000	 64.3287
7.076000	 64.3095
7.094000	 64.2882
7.112000	 64.2714
7.130000	 64.2693
7.148000	 64.2644
7.166000	 64.2498
7.184000	 64.2177
7.202000	 64.1903
7.220000	 64.1963
7.238000	 64.1972
7.256000	 64.1801
7.274000	 64.2222
7.292000	 64.3412
7.310000	 64.4063
7.328000	 64.3298
7.346000	 64.2152
7.364000	 64.174
7.382000	 64.1644
7.400000	 64.1333
7.418000	 64.1252
7.436000	 64.1948
7.454000	 64.321
7.472000	 64.4189
7.490000	 64.4291
7.508000	 64.3781
7.526000	 64.3142
7.544000	 64.2506
7.562000	 64.2071
7.580000	 64.2167
7.598000	 64.265
7.616000	 64.2962
7.634000	 64.2844
7.652000	 64.2473
7.670000	 64.2065
7.688000	 64.1692
7.706000	 64.1413
7.724000	 64.1342
7.742000	 64.1425
7.760000	 64.1398
7.778000	 64.121
7.796000	 64.1136
7.814000	 64.1319
7.832000	 64.1611
7.850000	 64.1865
7.868000	 64.2079
7.886000	 64.2293
7.904000	 64.2471
7.922000	 64.2409
7.940000	 64.2006
7.958000	 64.1674
7.976000	 64.1897
7.994000	 64.2486
8.012000	 64.2834
8.030000	 64.2708
8.048000	 64.2385
8.065999	 64.2164
8.084000	 64.2074
8.102000	 64.1953
8.120000	 64.1646
8.138000	 64.1206
8.155999	 64.093
8.173999	 64.1092
8.192000	 64.1632
8.210000	 64.218
8.228000	 64.2364
8.246000	 64.2034
8.263999	 64.1353
8.282000	 64.077
8.300000	 64.0767
8.318000	 64.1413
8.336000	 64.2215
8.353999	 64.2568
8.372000	 64.231
8.390000	 64.1702
8.408000	 64.1028
8.426000	 64.044
8.443999	 64.0094
8.462000	 64.0134
8.480000	 64.0465
8.498000	 64.0767
8.516000	 64.084
8.533999	 64.0808
8.552000	 64.0913
8.570000	 64.12
8.588000	 64.1476
8.606000	 64.1527
8.624000	 64.1281
8.641999	 64.0777
8.660000	 64.0145
8.678000	 63.9644
8.696000	 63.956
8.714000	 63.9965
8.731999	 64.0536
8.750000	 64.0725
8.768000	 64.0306
8.786000	 63.9717
8.804000	 63.9604
8.821999	 64.0077
8.840000	 64.0645
8.858000	 64.0829
8.876000	 64.0658
8.894000	 64.056
8.911999	 64.0864
8.930000	 64.1437
8.948000	 64.1876
8.966000	 64.1944
8.984000	 64.1738
9.001999	 64.147
9.020000	 64.128
9.038000	 64.12
9.056000	 64.1173
9.074000	 64.1118
9.092000	 64.1005
9.109999	 64.0865
9.128000	 64.076
9.146000	 64.0756
9.164000	 64.0904
9.182000	 64.1177
9.199999	 64.1431
9.218000	 64.1499
9.236000	 64.1331
9.254000	 64.1063
9.272000	 64.0882
9.289999	 64.0857
9.308000	 64.0914
9.326000	 64.095
9.344000	 64.0948
9.362000	 64.0949
9.379999	 64.0956
9.398000	 64.0909
9.416000	 64.0755
9.434000	 64.0524
9.452000	 64.0326
9.469999	 64.0325
9.488000	 64.0664
9.506000	 64.1325
9.524000	 64.2033
9.542000	 64.2379
9.560000	 64.212
9.577999	 64.1363
9.596000	 64.0476
9.614000	 63.9823
9.632000	 63.9555
9.650000	 63.9612
9.667999	 63.9852
9.686000	 64.0159
9.704000	 64.0451
9.722000	 64.0657
9.740000	 64.0731
9.757999	 64.0677
9.776000	 64.054
9.794000	 64.0382
9.812000	 64.0246
9.830000	 64.0168
9.847999	 64.019
9.866000	 64.0312
9.884000	 64.0456
9.902000	 64.0482
9.920000	 64.0297
9.937999	 63.9962
9.956000	 63.9667
9.974000	 63.9619
9.992000	 63.9902
10.01	64.0415
10.028	64.092
10.046	64.1185
10.064	64.1107
10.082	64.0739
10.1	64.0243
10.118	63.9796
10.136	63.9503
10.154	63.9386
10.172	63.9419
10.19	63.9569
10.208	63.9807
10.226	64.0094
10.244	64.0364
10.262	64.0551
10.28	64.0619
10.298	64.0569
10.316	64.0433
10.334	64.0259
10.352	64.0105
10.37	64.0031
10.388	64.0085
10.406	64.0277
10.424	64.0566
10.442	64.0886
10.46	64.1182
10.478	64.1443
10.496	64.1685
10.514	64.1893
10.532	64.1993
10.55	64.1885
10.568	64.1513
10.586	64.0941
10.604	64.0327
10.622	63.987
10.64	63.9696
10.658	63.9804
10.676	64.006
10.694	64.0299
10.712	64.0393
10.73	64.0329
10.748	64.0186
10.766	64.0099
10.784	64.0185
10.802	64.0503
10.82	64.1035
10.838	64.1704
10.856	64.241
10.874	64.3039
10.892	64.3482
10.91	64.363
10.928	64.3414
10.946	64.2818
10.964	64.1923
10.982	64.0897
11	63.9931
11.018	63.9191
11.036	63.8756
11.054	63.8609
11.072	63.8672
11.09	63.8857
11.108	63.911
11.126	63.9402
11.144	63.9714
11.162	63.9999
11.18	64.0188
11.198	64.0214
11.216	64.005
11.234	63.9739
11.252	63.9391
11.27	63.914
11.288	63.9108
11.306	63.9352
11.324	63.9831
11.342	64.0423
11.36	64.0975
11.378	64.1342
11.396	64.1461
11.414	64.1356
11.432	64.1128
11.45	64.0899
11.468	64.0776
11.486	64.0798
11.504	64.0938
11.522	64.1116
11.54	64.1249
11.558	64.1282
11.576	64.1211
11.594	64.1078
11.612	64.0947
11.63	64.0877
11.648	64.0895
11.666	64.0989
11.684	64.1108
11.702	64.1189
11.72	64.118
11.738	64.1064
11.756	64.086
11.774	64.0609
11.792	64.0354
11.81	64.0123
11.828	63.9917
11.846	63.973
11.864	63.9561
11.882	63.9429
11.9	63.9368
11.918	63.9411
11.936	63.9575
11.954	63.9835
11.972	64.0132
11.99	64.0385
12.008	64.0524
12.026	64.0514
12.044	64.0362
12.062	64.0115
12.08	63.9834
12.098	63.9575
12.116	63.9372
12.134	63.9234
12.152	63.9154
12.17	63.9119
12.188	63.912
12.206	63.9158
12.224	63.9241
12.242	63.9377
12.26	63.9567
12.278	63.9806
12.296	64.0081
12.314	64.0379
12.332	64.0686
12.35	64.0988
12.368	64.1269
12.386	64.1513
12.404	64.1702
12.422	64.1824
12.44	64.1869
12.458	64.1839
12.476	64.175
12.494	64.1628
12.512	64.1507
12.53	64.1421
12.548	64.1399
12.566	64.1462
12.584	64.1612
12.602	64.1838
12.62	64.211
12.638	64.2391
12.656	64.265
12.674	64.2859
12.692	64.3006
12.71	64.3099
12.728	64.3157
12.746	64.3208
12.764	64.3275
12.782	64.3368
12.8	64.3483
12.818	64.3589
12.836	64.3644
12.854	64.3602
12.872	64.3426
12.89	64.3101
12.908	64.2642
12.926	64.209
12.944	64.1508
12.962	64.0961
12.98	64.0502
12.998	64.0155
13.016	63.9916
13.034	63.9754
13.052	63.9619
13.07	63.9463
13.088	63.9244
13.106	63.8945
13.124	63.8568
13.142	63.8138
13.16	63.7692
13.178	63.7271
13.196	63.6914
13.214	63.6649
13.232	63.649
13.25	63.6443
13.268	63.6502
13.286	63.6659
13.304	63.6904
13.322	63.7228
13.34	63.7619
13.358	63.8056
13.376	63.8514
13.394	63.8957
13.412	63.9345
13.43	63.9638
13.448	63.9804
13.466	63.9821
13.484	63.9682
13.502	63.9404
13.52	63.9023
13.538	63.8587
13.556	63.8153
13.574	63.7783
13.592	63.7532
13.61	63.7445
13.628	63.7553
13.646	63.7863
13.664	63.8358
13.682	63.9007
13.7	63.9753
13.718	64.052
13.736	64.1229
13.754	64.1809
13.772	64.221
13.79	64.2416
13.808	64.2443
13.826	64.234
13.844	64.2163
13.862	64.1968
13.88	64.1781
13.898	64.1598
13.916	64.1372
13.934	64.1025
13.952	64.0463
13.97	63.9605
13.988	63.8401
14.006	63.6851
14.024	63.5018
14.042	63.3013
14.06	63.099
14.078	62.911
14.096	62.7532
14.114	62.6378
14.132	62.5724
14.15	62.5599
14.168	62.5983
14.186	62.6818
14.204	62.8015
14.222	62.9467
14.24	63.1058
14.258	63.2678
14.276	63.4216
14.294	63.5577
14.312	63.6677
14.33	63.7452
14.348	63.7871
14.366	63.7926
14.384	63.7665
14.402	63.7175
14.42	63.6575
14.438	63.5998
14.456	63.5572
14.474	63.5403
14.492	63.5561
14.51	63.6058
14.528	63.6842
14.546	63.7815
14.564	63.8856
14.582	63.9834
14.6	64.0635
14.618	64.1173
14.636	64.1407
14.654	64.1355
14.672	64.1072
14.69	64.0636
14.708	64.0143
14.726	63.9681
14.744	63.9327
14.762	63.9129
14.78	63.9108
14.798	63.9267
14.816	63.9591
14.834	64.0047
14.852	64.0603
14.87	64.1216
14.888	64.1842
14.906	64.243
14.924	64.2919
14.942	64.3237
14.96	64.3314
14.978	64.3095
14.996	64.2537
15.014	64.162
15.032	64.0359
15.05	63.881
15.068	63.7053
15.086	63.5184
15.104	63.3315
15.122	63.1575
15.14	63.0058
15.158	62.8832
15.176	62.7936
15.194	62.7382
15.212	62.7138
15.23	62.7151
15.248	62.7362
15.266	62.7707
15.284	62.8112
15.302	62.8533
15.32	62.894
15.338	62.9319
15.356	62.9678
15.374	63.0028
15.392	63.0389
15.41	63.0778
15.428	63.1207
15.446	63.1685
15.464	63.2208
15.482	63.2768
15.5	63.3351
15.518	63.3934
15.536	63.4502
15.554	63.504
15.572	63.5538
15.59	63.599
15.608	63.6403
15.626	63.6782
15.644	63.7139
15.662	63.7487
15.68	63.7836
15.698	63.8194
15.716	63.8566
15.734	63.8951
15.752	63.9345
15.77	63.9742
15.788	64.0129
15.806	64.0494
15.824	64.0826
15.842	64.1119
15.86	64.1369
15.878	64.1575
15.896	64.1732
15.914	64.1836
15.932	64.1888
15.95	64.1886
15.968	64.183
15.986	64.1721
16.004	64.156
16.022	64.1349
16.04	64.1093
16.058	64.0798
16.076	64.0473
16.094	64.0135
16.112	63.9801
16.13	63.9485
16.148	63.9205
16.166	63.8979
16.184	63.8819
16.202	63.8737
16.22	63.8737
16.238	63.8816
16.256	63.8968
16.274	63.9171
16.292	63.9399
16.31	63.9631
16.328	63.9823
16.346	63.9945
16.364	63.9973
16.382	63.9877
16.4	63.9653
16.418	63.93
16.436	63.8836
16.454	63.8297
16.472	63.7712
16.49	63.7143
16.508	63.6642
16.526	63.6247
16.544	63.6022
16.562	63.5986
16.58	63.616
16.598	63.6548
16.616	63.7123
16.634	63.7866
16.652	63.8711
16.67	63.9607
16.688	64.05
16.706	64.1308
16.724	64.1995
16.742	64.2509
16.76	64.2816
16.778	64.2908
16.796	64.2777
16.814	64.2447
16.832	64.1933
16.85	64.1282
16.868	64.0535
16.886	63.9724
16.904	63.8909
16.922	63.8117
16.94	63.7385
16.958	63.6743
16.976	63.6203
16.994	63.5784
17.012	63.5486
17.03	63.531
17.048	63.5247
17.066	63.5289
17.084	63.5424
17.102	63.5635
17.12	63.5913
17.138	63.6242
17.156	63.6615
17.174	63.7022
17.192	63.7455
17.21	63.7909
17.228	63.8378
17.246	63.8857
17.264	63.9343
17.282	63.9827
17.3	64.0306
17.318	64.077
17.336	64.121
17.354	64.1618
17.372	64.1979
17.39	64.2286
17.408	64.2524
17.426	64.2688
17.444	64.2771
17.462	64.277
17.48	64.2686
17.498	64.2524
17.516	64.2294
17.534	64.2002
17.552	64.167
17.57	64.1306
17.588	64.0934
17.606	64.0562
17.624	64.0209
17.642	63.9885
17.66	63.9596
17.678	63.9347
17.696	63.9139
17.714	63.897
17.732	63.8835
17.75	63.873
17.768	63.8649
17.786	63.8588
17.804	63.8545
17.822	63.8518
17.84	63.8508
17.858	63.8518
17.876	63.855
17.894	63.8609
17.912	63.8699
17.93	63.8822
17.948	63.8981
17.966	63.9172
17.984	63.9392
18.002	63.9633
18.02	63.9884
18.038	64.0136
18.056	64.0369
18.074	64.0577
18.092	64.0741
18.11	64.0856
18.128	64.0911
18.146	64.0907
18.164	64.084
18.182	64.0718
18.2	64.0543
18.218	64.0332
18.236	64.009
18.254	63.984
18.272	63.9587
18.29	63.935
18.308	63.9132
18.326	63.8947
18.344	63.8795
18.362	63.8682
18.38	63.8606
18.398	63.8566
18.416	63.8556
18.434	63.8574
18.452	63.8613
18.47	63.8668
18.488	63.8732
18.506	63.8801
18.524	63.887
18.542	63.8938
18.56	63.9001
18.578	63.9059
18.596	63.9113
18.614	63.9165
18.632	63.9214
18.65	63.9263
18.668	63.9314
18.686	63.9368
18.704	63.9429
18.722	63.9496
18.74	63.9572
18.758	63.9656
18.776	63.9748
18.794	63.9846
18.812	63.9948
18.83	64.0052
18.848	64.0157
18.866	64.026
18.884	64.036
18.902	64.0455
18.92	64.0544
18.938	64.0628
18.956	64.0704
18.974	64.0773
18.992	64.0832
19.01	64.0882
19.028	64.0919
19.046	64.0941
19.064	64.0945
19.082	64.0928
19.1	64.0884
19.118	64.0811
19.136	64.0702
19.154	64.0557
19.172	64.0368
19.19	64.0139
19.208	63.9865
19.226	63.9551
19.244	63.92
19.262	63.8815
19.28	63.8408
19.298	63.7982
19.316	63.7555
19.334	63.7128
19.352	63.6726
19.37	63.6349
19.388	63.6021
19.406	63.5739
19.424	63.5526
19.442	63.5382
19.46	63.5314
19.478	63.5324
19.496	63.5412
19.514	63.5581
19.532	63.582
19.55	63.6129
19.568	63.6497
19.586	63.6917
19.604	63.7381
19.622	63.7874
19.64	63.8393
19.658	63.8919
19.676	63.9451
19.694	63.9972
19.712	64.0481
19.73	64.0962
19.748	64.1415
19.766	64.1826
19.784	64.2195
19.802	64.2511
19.82	64.2771
19.838	64.297
19.856	64.31
19.874	64.3163
19.892	64.3151
19.91	64.3067
19.928	64.291
19.946	64.268
19.964	64.2385
19.982	64.2024
20	64.1611
20.018	64.115
20.036	64.065
20.054	64.0129
20.072	63.9588
20.09	63.9052
20.108	63.8519
20.126	63.8013
20.144	63.7533
20.162	63.7095
20.18	63.6704
20.198	63.6363
20.216	63.608
20.234	63.5853
20.252	63.5681
20.27	63.5566
20.288	63.5497
20.306	63.5474
20.324	63.5487
20.342	63.5529
20.36	63.5597
20.378	63.5678
20.396	63.5772
20.414	63.5872
20.432	63.5976
20.45	63.6082
20.468	63.6187
20.486	63.6294
20.504	63.6406
20.522	63.6523
20.54	63.6655
20.558	63.6798
20.576	63.6964
20.594	63.7155
20.612	63.7372
20.63	63.7621
20.648	63.7901
20.666	63.8211
20.684	63.8553
20.702	63.8919
20.72	63.9304
20.738	63.9707
20.756	64.0108
20.774	64.0513
20.792	64.0899
20.81	64.1265
20.828	64.1602
20.846	64.189
20.864	64.2134
20.882	64.2316
20.9	64.2437
20.918	64.2491
20.936	64.2472
20.954	64.2383
20.972	64.2229
20.99	64.2006
21.008	64.1727
21.026	64.1396
21.044	64.1018
21.062	64.0613
21.08	64.0175
21.098	63.9728
21.116	63.9275
21.134	63.8823
21.152	63.839
21.17	63.7971
21.188	63.7579
21.206	63.7217
21.224	63.6884
21.242	63.6582
21.26	63.6313
21.278	63.6068
21.296	63.5848
21.314	63.5647
21.332	63.5453
21.35	63.5271
21.368	63.5082
21.386	63.4885
21.404	63.4678
21.422	63.4444
21.44	63.4189
21.458	63.3907
21.476	63.3592
21.494	63.3248
21.512	63.2876
21.53	63.2474
21.548	63.205
21.566	63.1607
21.584	63.1146
21.602	63.0682
21.62	63.0211
21.638	62.9744
21.656	62.9291
21.674	62.8848
21.692	62.8428
21.71	62.8035
21.728	62.7668
21.746	62.7332
21.764	62.7027
21.782	62.6752
21.8	62.6509
21.818	62.6298
21.836	62.6109
21.854	62.5943
21.872	62.5797
21.89	62.5666
21.908	62.555
21.926	62.5448
21.944	62.5356
21.962	62.5277
21.98	62.5216
21.998	62.517
22.016	62.5144
22.034	62.515
22.052	62.5182
22.07	62.5252
22.088	62.5368
22.106	62.5525
22.124	62.5734
22.142	62.5995
22.16	62.6308
22.178	62.6672
22.196	62.709
22.214	62.7555
22.232	62.8058
22.25	62.8607
22.268	62.9181
22.286	62.9771
22.304	63.0381
22.322	63.0982
22.34	63.1573
22.358	63.2149
22.376	63.268
22.394	63.3174
22.412	63.3618
22.43	63.3993
22.448	63.4307
22.466	63.4549
22.484	63.4709
22.502	63.479
22.52	63.4792
22.538	63.4711
22.556	63.4548
22.574	63.4316
22.592	63.401
22.61	63.3637
22.628	63.3218
22.646	63.2746
22.664	63.2235
22.682	63.171
22.7	63.1161
22.718	63.0607
22.736	63.0074
22.754	62.9548
22.772	62.9053
22.79	62.8609
22.808	62.8206
22.826	62.786
22.844	62.7584
22.862	62.737
22.88	62.7231
22.898	62.7174
22.916	62.7194
22.934	62.7286
22.952	62.7455
22.97	62.7696
22.988	62.7989
23.006	62.8334
23.024	62.873
23.042	62.9139
23.06	62.9566
23.078	63.0005
23.096	63.0415
23.114	63.08
23.132	63.1155
23.15	63.1446
23.168	63.1677
23.186	63.1843
23.204	63.1916
23.222	63.1891
23.24	63.1776
23.258	63.1567
23.276	63.1256
23.294	63.0854
23.312	63.0384
23.33	62.9829
23.348	62.9209
23.366	62.8572
23.384	62.7903
23.402	62.7218
23.42	62.6581
23.438	62.5984
23.456	62.5434
23.474	62.4993
23.492	62.4669
23.51	62.4451
23.528	62.4385
23.546	62.4484
23.564	62.4735
23.582	62.5152
23.6	62.5748
23.618	62.6516
23.636	62.7437
23.654	62.8511
23.672	62.9744
23.69	63.1093
23.708	63.2534
23.726	63.4093
23.744	63.5714
23.762	63.735
23.78	63.9035
23.798	64.0723
23.816	64.2359
23.834	64.3972
23.852	64.5537
23.87	64.7007
23.888	64.8395
23.906	64.9697
23.924	65.0885
23.942	65.1957
23.96	65.292
23.978	65.3769
23.996	65.4501
24.014	65.5117
24.032	65.5632
24.05	65.6055
24.068	65.6376
24.086	65.6614
24.104	65.6786
24.122	65.6877
24.14	65.6906
24.158	65.69
24.176	65.6853
24.194	65.6766
24.212	65.6656
24.23	65.653
24.248	65.6381
24.266	65.6202
24.284	65.5996
24.302	65.5769
24.32	65.5494
24.338	65.5146
24.356	65.4743
24.374	65.4267
24.392	65.3689
24.41	65.3019
24.428	65.2253
24.446	65.1356
24.464	65.0316
24.482	64.9149
24.5	64.7834
24.518	64.6354
24.536	64.4718
24.554	64.2925
24.572	64.0972
24.59	63.8855
24.608	63.6582
24.626	63.4159
24.644	63.1585
24.662	62.8852
24.68	62.5998
24.698	62.3053
24.716	61.998
24.734	61.6823
24.752	61.3647
24.77	61.0439
24.788	60.7191
24.806	60.3991
24.824	60.0897
24.842	59.7849
24.86	59.4908
24.878	59.2152
24.896	58.9549
24.914	58.7108
24.932	58.4906
24.95	58.2978
24.968	58.1277
24.986	57.9858
25.004	57.8785
25.022	57.8037
25.04	57.7611
25.058	57.7535
25.076	57.7831
25.094	57.8487
25.112	57.9476
25.13	58.0773
25.148	58.241
25.166	58.4356
25.184	58.6549
25.202	58.8975
25.22	59.1674
25.238	59.4563
25.256	59.7552
25.274	60.0687
25.292	60.3951
25.31	60.7265
25.328	61.0582
25.346	61.3955
25.364	61.7339
25.382	62.0678
25.4	62.3977
25.418	62.7249
25.436	63.0473
25.454	63.3632
25.472	63.6733
25.49	63.9781
25.508	64.2779
25.526	64.5725
25.544	64.862
25.562	65.1468
25.58	65.4276
25.598	65.7052
25.616	65.9785
25.634	66.2455
25.652	66.5058
25.67	66.7625
25.688	67.0103
25.706	67.2432
25.724	67.4638
25.742	67.6736
25.76	67.8619
25.778	68.0194
25.796	68.1556
25.814	68.2649
25.832	68.3331
25.85	68.3519
25.868	68.3334
25.886	68.267
25.904	68.1394
25.922	67.9484
25.94	67.7016
25.958	67.3893
25.976	67.0016
25.994	66.5388
26.012	66.005
26.03	65.3994
26.048	64.7209
26.066	63.9644
26.084	63.1378
26.102	62.252
26.12	61.3111
26.138	60.3008
26.156	59.2413
26.174	58.1566
26.192	57.05
26.21	55.9037
26.228	54.7473
26.246	53.6119
26.264	52.4897
26.282	51.3697
26.3	50.2881
26.318	49.2802
26.336	48.3279
26.354	47.4297
26.372	46.6173
26.39	45.9192
26.408	45.314
26.426	44.8068
26.444	44.4217
26.462	44.1795
26.48	44.0653
26.498	44.0804
26.516	44.2335
26.534	44.5319
26.552	44.9724
26.57	45.5505
26.588	46.2622
26.606	47.1071
26.624	48.0924
26.642	49.2057
26.66	50.4324
26.678	51.7677
26.696	53.2278
26.714	54.7918
26.732	56.4353
26.75	58.1495
26.768	59.9572
26.786	61.8336
26.804	63.7502
26.822	65.6977
26.84	67.7031
26.858	69.7368
26.876	71.7658
26.894	73.778
26.912	75.8041
26.93	77.8144
26.948	79.7747
26.966	81.7343
26.984	83.8199
27.002	85.7647
27.02	87.2764
27.028	87.6863