File: Bakgrunnsmateriale/MATLAB/FTIR/ftir_data/subAa/Mapping_121/BZ1503107-1_t75.asc
PE IR       SPECTRUM    SPECTRUM    ASCII       PEDS        1.60
  -1
BZ2D5F~1.ASC
17/04/07
19:25:00.00
17/04/07
19:25:26.00
tln
$BZ1503107-1_t0075$<tbV0>[-7.8,2.6,8.0,0.0,27,1,0]
27.028
64

2002,4.07
MIRTGS : RIGHTBACK : INTERNAL 2
MIR : ON : INTERNAL 2
OPTKBR

0.200000
8
8.000000
FILLER
RATIO
SPECTRUM
UNLOCKED 256

DOUBLE
64
COMBINED
1
0
0

0.002000
RATIO

1
0
TRUE
51149
0
LEFT NOT FITTED RIGHT NOT FITTED 0
NONE
NONE
15600
12
4.427000
51148
TRUE
1 0 8 72 0 0 0 0

15798

#HDR
-1
-1
#GR
µM
%T
2.38419e-05
0.0
2.000000
0.002000
12515
8
78.5345
48.9913
#DATA
2.000000	 64.6806
2.018000	 64.7539
2.036000	 64.5307
2.054000	 65.0463
2.072000	 64.5382
2.090000	 64.3916
2.108000	 64.7994
2.126000	 64.4628
2.144000	 64.763
2.162000	 64.8972
2.180000	 65.011
2.198000	 64.187
2.216000	 64.5315
2.234000	 64.3495
2.252000	 63.3061
2.270000	 68.7488
2.288000	 64.6483
2.306000	 64.816
2.324000	 64.6496
2.342000	 64.3496
2.360000	 65.0324
2.378000	 65.0239
2.396000	 64.9734
2.414000	 64.8468
2.432000	 64.8476
2.450000	 64.8133
2.468000	 65.0079
2.486000	 64.9168
2.504000	 64.7488
2.522000	 65.0883
2.540000	 64.5931
2.558000	 64.7795
2.576000	 64.7092
2.594000	 64.9458
2.612000	 64.5508
2.630000	 65.0116
2.648000	 64.9589
2.666000	 65.1303
2.684000	 65.3022
2.702000	 65.2364
2.720000	 65.108
2.738000	 65.0188
2.756000	 65.0521
2.774000	 64.9647
2.792000	 64.7373
2.810000	 64.925
2.828000	 64.9851
2.846000	 64.8645
2.864000	 64.7745
2.882000	 65.0597
2.900000	 65.0552
2.918000	 64.8168
2.936000	 64.7527
2.954000	 64.8079
2.972000	 65.0397
2.990000	 64.871
3.008000	 65.0054
3.026000	 64.9082
3.044000	 64.8442
3.062000	 64.8916
3.080000	 64.8216
3.098000	 64.9472
3.116000	 64.8755
3.134000	 65.0096
3.152000	 64.9745
3.170000	 64.8852
3.188000	 64.7034
3.206000	 64.8031
3.224000	 64.7567
3.242000	 64.8247
3.260000	 65.028
3.278000	 64.8536
3.296000	 64.724
3.314000	 64.8342
3.332000	 64.8702
3.350000	 64.8465
3.368000	 64.7651
3.386000	 64.6732
3.404000	 64.7611
3.422000	 64.6245
3.440000	 64.8097
3.458000	 64.819
3.476000	 64.806
3.494000	 64.702
3.512000	 64.7481
3.530000	 64.7028
3.548000	 64.8062
3.566000	 64.8314
3.584000	 64.867
3.602000	 64.829
3.620000	 64.7789
3.638000	 64.7779
3.656000	 64.8596
3.674000	 64.7589
3.692000	 64.7556
3.710000	 64.7657
3.728000	 64.8136
3.746000	 64.792
3.764000	 64.679
3.782000	 64.719
3.800000	 64.702
3.818000	 64.7929
3.836000	 64.7854
3.854000	 64.7667
3.872000	 64.7615
3.890000	 64.6643
3.908000	 64.6195
3.926000	 64.69
3.944000	 64.6252
3.962000	 64.7627
3.980000	 64.6291
3.998000	 64.77
4.016000	 64.5665
4.034000	 64.7229
4.052000	 64.7207
4.070000	 64.7114
4.088000	 64.6679
4.106000	 64.5657
4.124000	 64.7145
4.141999	 64.7332
4.160000	 64.6146
4.178000	 64.453
4.196000	 64.5715
4.214000	 64.7485
4.232000	 64.5788
4.250000	 64.4378
4.268000	 64.5129
4.286000	 64.6542
4.304000	 64.5729
4.322000	 64.5664
4.340000	 64.6166
4.358000	 64.4727
4.375999	 64.5698
4.394000	 64.5303
4.412000	 64.5862
4.430000	 64.6243
4.448000	 64.4741
4.466000	 64.4146
4.484000	 64.5574
4.502000	 64.5449
4.520000	 64.5312
4.538000	 64.4531
4.556000	 64.3718
4.574000	 64.5027
4.592000	 64.4357
4.609999	 64.4087
4.628000	 64.5423
4.646000	 64.4785
4.664000	 64.41
4.682000	 64.4009
4.700000	 64.516
4.718000	 64.4187
4.736000	 64.437
4.754000	 64.4314
4.772000	 64.3948
4.790000	 64.4109
4.808000	 64.3704
4.826000	 64.4292
4.843999	 64.4112
4.862000	 64.3425
4.880000	 64.3949
4.898000	 64.3928
4.916000	 64.4081
4.934000	 64.4294
4.952000	 64.5236
4.970000	 64.4429
4.988000	 64.4191
5.006000	 64.3553
5.024000	 64.2605
5.042000	 64.4138
5.060000	 64.3959
5.077999	 64.3399
5.096000	 64.4015
5.114000	 64.4324
5.132000	 64.3845
5.150000	 64.3681
5.168000	 64.345
5.186000	 64.2796
5.204000	 64.3489
5.222000	 64.4151
5.240000	 64.3506
5.258000	 64.3463
5.276000	 64.3193
5.294000	 64.2578
5.312000	 64.2343
5.330000	 64.3032
5.348000	 64.2939
5.366000	 64.2677
5.384000	 64.2262
5.402000	 64.2783
5.420000	 64.1996
5.438000	 64.2038
5.456000	 64.1863
5.474000	 64.1396
5.492000	 64.2044
5.510000	 64.2295
5.528000	 64.2486
5.546000	 64.1909
5.564000	 64.1397
5.582000	 64.1844
5.600000	 64.1898
5.618000	 64.1917
5.636000	 64.1599
5.654000	 64.2439
5.672000	 64.2433
5.690000	 64.1487
5.708000	 63.9574
5.726000	 63.8958
5.744000	 63.969
5.762000	 63.8982
5.780000	 63.8906
5.798000	 63.9531
5.816000	 64.0259
5.834000	 64.0833
5.852000	 64.018
5.870000	 63.9922
5.888000	 63.9988
5.906000	 64.0523
5.923999	 64.0973
5.942000	 64.0397
5.960000	 64.0279
5.978000	 64.0123
5.996000	 63.954
6.014000	 64.0022
6.032000	 64.075
6.050000	 64.0579
6.068000	 64.0251
6.086000	 63.9681
6.104000	 63.9065
6.122000	 63.919
6.140000	 64.0338
6.158000	 64.1473
6.176000	 64.1947
6.194000	 64.087
6.212000	 63.9312
6.230000	 63.9298
6.248000	 63.9799
6.266000	 63.934
6.284000	 63.8428
6.302000	 63.9714
6.320000	 64.0618
6.338000	 63.9782
6.356000	 63.933
6.374000	 63.8692
6.392000	 63.7791
6.410000	 63.8119
6.428000	 63.9101
6.446000	 63.897
6.464000	 63.8765
6.482000	 63.979
6.500000	 64.0727
6.518000	 64.005
6.536000	 63.9052
6.554000	 63.889
6.572000	 63.8975
6.590000	 63.9018
6.608000	 63.9492
6.626000	 64.0032
6.644000	 64.0059
6.662000	 63.9292
6.680000	 63.8361
6.698000	 63.8681
6.716000	 63.9423
6.734000	 63.9511
6.752000	 63.9242
6.770000	 63.8927
6.788000	 63.8558
6.806000	 63.7953
6.824000	 63.7489
6.842000	 63.7914
6.860000	 63.8873
6.878000	 63.9199
6.896000	 63.894
6.914000	 63.8567
6.932000	 63.7985
6.950000	 63.7812
6.968000	 63.8339
6.986000	 63.8926
7.004000	 63.9551
7.022000	 63.996
7.040000	 63.9268
7.058000	 63.7982
7.076000	 63.6942
7.094000	 63.6028
7.112000	 63.5779
7.130000	 63.6817
7.148000	 63.8107
7.166000	 63.8562
7.184000	 63.8502
7.202000	 63.8152
7.220000	 63.7195
7.238000	 63.599
7.256000	 63.5282
7.274000	 63.5399
7.292000	 63.5952
7.310000	 63.6086
7.328000	 63.5846
7.346000	 63.588
7.364000	 63.5977
7.382000	 63.5864
7.400000	 63.5813
7.418000	 63.5902
7.436000	 63.623
7.454000	 63.6979
7.472000	 63.7787
7.490000	 63.8044
7.508000	 63.7695
7.526000	 63.7391
7.544000	 63.767
7.562000	 63.8088
7.580000	 63.7921
7.598000	 63.7416
7.616000	 63.7187
7.634000	 63.7111
7.652000	 63.6907
7.670000	 63.665
7.688000	 63.6237
7.706000	 63.5544
7.724000	 63.4975
7.742000	 63.494
7.760000	 63.5309
7.778000	 63.5697
7.796000	 63.5646
7.814000	 63.4896
7.832000	 63.3992
7.850000	 63.3874
7.868000	 63.4513
7.886000	 63.4908
7.904000	 63.4593
7.922000	 63.4237
7.940000	 63.4533
7.958000	 63.5288
7.976000	 63.5836
7.994000	 63.5812
8.012000	 63.5382
8.030000	 63.5068
8.048000	 63.5292
8.065999	 63.5875
8.084000	 63.6176
8.102000	 63.5905
8.120000	 63.5475
8.138000	 63.5345
8.155999	 63.5394
8.173999	 63.5298
8.192000	 63.5145
8.210000	 63.523
8.228000	 63.5473
8.246000	 63.5493
8.263999	 63.5215
8.282000	 63.504
8.300000	 63.5257
8.318000	 63.5607
8.336000	 63.5608
8.353999	 63.5162
8.372000	 63.4609
8.390000	 63.4294
8.408000	 63.4299
8.426000	 63.4509
8.443999	 63.4741
8.462000	 63.4848
8.480000	 63.4811
8.498000	 63.4663
8.516000	 63.4347
8.533999	 63.3773
8.552000	 63.3046
8.570000	 63.2462
8.588000	 63.2239
8.606000	 63.2391
8.624000	 63.283
8.641999	 63.3444
8.660000	 63.4075
8.678000	 63.4538
8.696000	 63.4731
8.714000	 63.4718
8.731999	 63.4719
8.750000	 63.4964
8.768000	 63.5436
8.786000	 63.5738
8.804000	 63.5477
8.821999	 63.4728
8.840000	 63.3944
8.858000	 63.3485
8.876000	 63.3361
8.894000	 63.3307
8.911999	 63.3069
8.930000	 63.2712
8.948000	 63.256
8.966000	 63.2808
8.984000	 63.3313
9.001999	 63.3774
9.020000	 63.4032
9.038000	 63.4152
9.056000	 63.432
9.074000	 63.4637
9.092000	 63.5009
9.109999	 63.5216
9.128000	 63.5097
9.146000	 63.4714
9.164000	 63.4311
9.182000	 63.4112
9.199999	 63.4125
9.218000	 63.4165
9.236000	 63.4085
9.254000	 63.396
9.272000	 63.4026
9.289999	 63.4448
9.308000	 63.5159
9.326000	 63.589
9.344000	 63.6339
9.362000	 63.6316
9.379999	 63.5816
9.398000	 63.5004
9.416000	 63.413
9.434000	 63.341
9.452000	 63.2937
9.469999	 63.2693
9.488000	 63.2632
9.506000	 63.2754
9.524000	 63.3074
9.542000	 63.3533
9.560000	 63.3947
9.577999	 63.4099
9.596000	 63.3884
9.614000	 63.3401
9.632000	 63.2892
9.650000	 63.2586
9.667999	 63.2558
9.686000	 63.2695
9.704000	 63.2802
9.722000	 63.2752
9.740000	 63.2585
9.757999	 63.246
9.776000	 63.2516
9.794000	 63.2728
9.812000	 63.2904
9.830000	 63.2839
9.847999	 63.2497
9.866000	 63.2067
9.884000	 63.1836
9.902000	 63.1995
9.920000	 63.2514
9.937999	 63.3166
9.956000	 63.3687
9.974000	 63.3915
9.992000	 63.3849
10.01	63.3617
10.028	63.3404
10.046	63.3364
10.064	63.3543
10.082	63.3879
10.1	63.4258
10.118	63.4589
10.136	63.4842
10.154	63.5011
10.172	63.5068
10.19	63.4948
10.208	63.4603
10.226	63.4065
10.244	63.346
10.262	63.2954
10.28	63.2663
10.298	63.2628
10.316	63.2823
10.334	63.3201
10.352	63.3707
10.37	63.4265
10.388	63.4771
10.406	63.5111
10.424	63.5188
10.442	63.4966
10.46	63.4482
10.478	63.3838
10.496	63.3181
10.514	63.2658
10.532	63.2392
10.55	63.2433
10.568	63.2742
10.586	63.3182
10.604	63.3573
10.622	63.3759
10.64	63.3686
10.658	63.3423
10.676	63.3138
10.694	63.3009
10.712	63.3147
10.73	63.3542
10.748	63.4069
10.766	63.4535
10.784	63.4761
10.802	63.4633
10.82	63.4149
10.838	63.3424
10.856	63.2639
10.874	63.2
10.892	63.1652
10.91	63.1655
10.928	63.1959
10.946	63.2447
10.964	63.2991
10.982	63.3487
11	63.3885
11.018	63.4173
11.036	63.4343
11.054	63.4379
11.072	63.4275
11.09	63.4046
11.108	63.3753
11.126	63.3487
11.144	63.332
11.162	63.3277
11.18	63.3327
11.198	63.3403
11.216	63.3448
11.234	63.3446
11.252	63.3423
11.27	63.3425
11.288	63.3488
11.306	63.3611
11.324	63.3771
11.342	63.3942
11.36	63.4118
11.378	63.4326
11.396	63.4609
11.414	63.4996
11.432	63.5478
11.45	63.6001
11.468	63.6462
11.486	63.6744
11.504	63.6751
11.522	63.6433
11.54	63.5811
11.558	63.4982
11.576	63.4098
11.594	63.3315
11.612	63.2766
11.63	63.251
11.648	63.2525
11.666	63.2717
11.684	63.296
11.702	63.3157
11.72	63.3247
11.738	63.3228
11.756	63.3126
11.774	63.2977
11.792	63.2803
11.81	63.2604
11.828	63.2372
11.846	63.2111
11.864	63.1845
11.882	63.1614
11.9	63.1465
11.918	63.1428
11.936	63.15
11.954	63.1646
11.972	63.1812
11.99	63.1953
12.008	63.2044
12.026	63.2094
12.044	63.2144
12.062	63.2246
12.08	63.2445
12.098	63.2757
12.116	63.3163
12.134	63.3612
12.152	63.4035
12.17	63.4368
12.188	63.4567
12.206	63.4617
12.224	63.453
12.242	63.4333
12.26	63.4062
12.278	63.3749
12.296	63.3425
12.314	63.3119
12.332	63.2857
12.35	63.2667
12.368	63.2566
12.386	63.2562
12.404	63.2643
12.422	63.2772
12.44	63.2897
12.458	63.296
12.476	63.2909
12.494	63.2714
12.512	63.2376
12.53	63.1934
12.548	63.1453
12.566	63.101
12.584	63.0676
12.602	63.0502
12.62	63.0507
12.638	63.0673
12.656	63.0962
12.674	63.132
12.692	63.1697
12.71	63.2055
12.728	63.2372
12.746	63.2642
12.764	63.2866
12.782	63.3044
12.8	63.3175
12.818	63.3244
12.836	63.3231
12.854	63.311
12.872	63.2867
12.89	63.2496
12.908	63.2015
12.926	63.1457
12.944	63.0872
12.962	63.0316
12.98	62.9843
12.998	62.9496
13.016	62.9305
13.034	62.9282
13.052	62.9427
13.07	62.9723
13.088	63.0138
13.106	63.0626
13.124	63.1129
13.142	63.1588
13.16	63.1949
13.178	63.2177
13.196	63.226
13.214	63.2213
13.232	63.2082
13.25	63.1928
13.268	63.1818
13.286	63.1805
13.304	63.1917
13.322	63.2146
13.34	63.2457
13.358	63.2785
13.376	63.3055
13.394	63.3201
13.412	63.318
13.43	63.2977
13.448	63.261
13.466	63.213
13.484	63.1604
13.502	63.1105
13.52	63.0695
13.538	63.0411
13.556	63.0261
13.574	63.0217
13.592	63.0225
13.61	63.0213
13.628	63.011
13.646	62.9865
13.664	62.9459
13.682	62.8906
13.7	62.8259
13.718	62.7594
13.736	62.7004
13.754	62.657
13.772	62.6351
13.79	62.6369
13.808	62.6609
13.826	62.7027
13.844	62.7556
13.862	62.8125
13.88	62.8672
13.898	62.9156
13.916	62.9558
13.934	62.9875
13.952	63.0111
13.97	63.0278
13.988	63.0378
14.006	63.0407
14.024	63.0348
14.042	63.0184
14.06	62.9902
14.078	62.9495
14.096	62.8967
14.114	62.8336
14.132	62.7636
14.15	62.6907
14.168	62.6194
14.186	62.554
14.204	62.498
14.222	62.4539
14.24	62.4231
14.258	62.4068
14.276	62.4046
14.294	62.4165
14.312	62.4417
14.33	62.4794
14.348	62.5296
14.366	62.5913
14.384	62.6643
14.402	62.7484
14.42	62.8431
14.438	62.9473
14.456	63.059
14.474	63.175
14.492	63.2912
14.51	63.402
14.528	63.5017
14.546	63.5861
14.564	63.6526
14.582	63.7005
14.6	63.732
14.618	63.7505
14.636	63.7615
14.654	63.769
14.672	63.776
14.69	63.7835
14.708	63.7905
14.726	63.7945
14.744	63.7907
14.762	63.7754
14.78	63.7457
14.798	63.7003
14.816	63.6403
14.834	63.5689
14.852	63.4914
14.87	63.4139
14.888	63.3423
14.906	63.2819
14.924	63.2367
14.942	63.208
14.96	63.1948
14.978	63.1948
14.996	63.2048
15.014	63.221
15.032	63.239
15.05	63.2558
15.068	63.2696
15.086	63.2795
15.104	63.2853
15.122	63.2878
15.14	63.2882
15.158	63.2878
15.176	63.2875
15.194	63.2881
15.212	63.2894
15.23	63.2909
15.248	63.2917
15.266	63.2905
15.284	63.2859
15.302	63.2761
15.32	63.2603
15.338	63.2378
15.356	63.2076
15.374	63.17
15.392	63.1247
15.41	63.0715
15.428	63.0107
15.446	62.9413
15.464	62.8629
15.482	62.7752
15.5	62.6776
15.518	62.5693
15.536	62.4512
15.554	62.3244
15.572	62.1912
15.59	62.0566
15.608	61.9255
15.626	61.8032
15.644	61.6967
15.662	61.6134
15.68	61.5583
15.698	61.5355
15.716	61.5479
15.734	61.5946
15.752	61.673
15.77	61.7791
15.788	61.9048
15.806	62.0424
15.824	62.1851
15.842	62.3244
15.86	62.4527
15.878	62.5655
15.896	62.6592
15.914	62.7315
15.932	62.7823
15.95	62.8124
15.968	62.8234
15.986	62.8181
16.004	62.7987
16.022	62.7677
16.04	62.728
16.058	62.6819
16.076	62.6317
16.094	62.5803
16.112	62.5309
16.13	62.4864
16.148	62.4505
16.166	62.4279
16.184	62.4214
16.202	62.4345
16.22	62.4703
16.238	62.5296
16.256	62.613
16.274	62.7185
16.292	62.8425
16.31	62.9814
16.328	63.1276
16.346	63.2751
16.364	63.4187
16.382	63.55
16.4	63.6645
16.418	63.7583
16.436	63.8277
16.454	63.8728
16.472	63.8936
16.49	63.8923
16.508	63.872
16.526	63.8352
16.544	63.7867
16.562	63.7293
16.58	63.6656
16.598	63.5987
16.616	63.5296
16.634	63.4593
16.652	63.3883
16.67	63.3164
16.688	63.2432
16.706	63.1689
16.724	63.0941
16.742	63.0191
16.76	62.9455
16.778	62.8739
16.796	62.8064
16.814	62.7443
16.832	62.6886
16.85	62.6411
16.868	62.6021
16.886	62.5716
16.904	62.55
16.922	62.5369
16.94	62.5316
16.958	62.5339
16.976	62.5436
16.994	62.56
17.012	62.5833
17.03	62.6137
17.048	62.6514
17.066	62.6967
17.084	62.7496
17.102	62.8096
17.12	62.8763
17.138	62.9482
17.156	63.0238
17.174	63.1015
17.192	63.1777
17.21	63.2511
17.228	63.3179
17.246	63.3759
17.264	63.4233
17.282	63.4579
17.3	63.4793
17.318	63.4866
17.336	63.4808
17.354	63.462
17.372	63.4325
17.39	63.3933
17.408	63.3465
17.426	63.2943
17.444	63.2382
17.462	63.1811
17.48	63.1237
17.498	63.0684
17.516	63.0161
17.534	62.9678
17.552	62.925
17.57	62.8882
17.588	62.8584
17.606	62.8358
17.624	62.8209
17.642	62.8131
17.66	62.8125
17.678	62.8178
17.696	62.8285
17.714	62.843
17.732	62.8599
17.75	62.8777
17.768	62.8943
17.786	62.9091
17.804	62.9197
17.822	62.9259
17.84	62.9266
17.858	62.9222
17.876	62.9125
17.894	62.8987
17.912	62.8813
17.93	62.8628
17.948	62.8434
17.966	62.826
17.984	62.8111
18.002	62.8008
18.02	62.7954
18.038	62.7959
18.056	62.8019
18.074	62.8135
18.092	62.8298
18.11	62.8506
18.128	62.8743
18.146	62.9006
18.164	62.928
18.182	62.956
18.2	62.9835
18.218	63.0101
18.236	63.0355
18.254	63.0595
18.272	63.0821
18.29	63.1034
18.308	63.1234
18.326	63.1422
18.344	63.1598
18.362	63.1762
18.38	63.1913
18.398	63.2047
18.416	63.2164
18.434	63.2261
18.452	63.2334
18.47	63.2379
18.488	63.2394
18.506	63.2376
18.524	63.2325
18.542	63.224
18.56	63.2122
18.578	63.1974
18.596	63.1803
18.614	63.1611
18.632	63.1408
18.65	63.1197
18.668	63.0992
18.686	63.0794
18.704	63.0618
18.722	63.0464
18.74	63.0345
18.758	63.0262
18.776	63.0223
18.794	63.0229
18.812	63.0283
18.83	63.0383
18.848	63.0527
18.866	63.0709
18.884	63.0921
18.902	63.1151
18.92	63.1386
18.938	63.1614
18.956	63.1813
18.974	63.1974
18.992	63.2075
19.01	63.2107
19.028	63.2052
19.046	63.1906
19.064	63.1657
19.082	63.1311
19.1	63.0863
19.118	63.0326
19.136	62.9712
19.154	62.9031
19.172	62.8309
19.19	62.7557
19.208	62.6808
19.226	62.6068
19.244	62.5374
19.262	62.4726
19.28	62.4156
19.298	62.3661
19.316	62.3261
19.334	62.2953
19.352	62.2738
19.37	62.2615
19.388	62.257
19.406	62.2605
19.424	62.2692
19.442	62.2832
19.46	62.2997
19.478	62.3184
19.496	62.3371
19.514	62.3552
19.532	62.3712
19.55	62.3841
19.568	62.3937
19.586	62.3991
19.604	62.4004
19.622	62.3974
19.64	62.3903
19.658	62.3797
19.676	62.3658
19.694	62.3495
19.712	62.3308
19.73	62.3112
19.748	62.2906
19.766	62.2705
19.784	62.2508
19.802	62.2325
19.82	62.2164
19.838	62.2026
19.856	62.1922
19.874	62.1852
19.892	62.1825
19.91	62.184
19.928	62.1903
19.946	62.2014
19.964	62.2176
19.982	62.2389
20	62.265
20.018	62.2959
20.036	62.3312
20.054	62.3705
20.072	62.4134
20.09	62.4588
20.108	62.507
20.126	62.5559
20.144	62.6058
20.162	62.655
20.18	62.7029
20.198	62.7489
20.216	62.7915
20.234	62.8308
20.252	62.8653
20.27	62.8952
20.288	62.9196
20.306	62.9384
20.324	62.9517
20.342	62.9592
20.36	62.9612
20.378	62.9582
20.396	62.9503
20.414	62.9384
20.432	62.9225
20.45	62.904
20.468	62.8833
20.486	62.8609
20.504	62.8383
20.522	62.8151
20.54	62.7927
20.558	62.7711
20.576	62.7508
20.594	62.7322
20.612	62.7154
20.63	62.7006
20.648	62.6879
20.666	62.6774
20.684	62.669
20.702	62.6629
20.72	62.6589
20.738	62.6572
20.756	62.6578
20.774	62.6606
20.792	62.6658
20.81	62.6734
20.828	62.6835
20.846	62.6961
20.864	62.7112
20.882	62.7286
20.9	62.7486
20.918	62.7706
20.936	62.7945
20.954	62.8202
20.972	62.8466
20.99	62.874
21.008	62.9012
21.026	62.9279
21.044	62.9537
21.062	62.9771
21.08	62.9985
21.098	63.0165
21.116	63.0308
21.134	63.0412
21.152	63.0467
21.17	63.0475
21.188	63.0431
21.206	63.0332
21.224	63.0181
21.242	62.9976
21.26	62.9717
21.278	62.9412
21.296	62.9059
21.314	62.8664
21.332	62.8238
21.35	62.7777
21.368	62.7297
21.386	62.6799
21.404	62.6288
21.422	62.578
21.44	62.5269
21.458	62.4771
21.476	62.4293
21.494	62.3832
21.512	62.3406
21.53	62.301
21.548	62.2654
21.566	62.2344
21.584	62.2077
21.602	62.1861
21.62	62.1697
21.638	62.1583
21.656	62.1521
21.674	62.151
21.692	62.1545
21.71	62.1625
21.728	62.1748
21.746	62.1901
21.764	62.2087
21.782	62.2296
21.8	62.2517
21.818	62.2755
21.836	62.2989
21.854	62.3218
21.872	62.3438
21.89	62.3635
21.908	62.3813
21.926	62.3964
21.944	62.4082
21.962	62.4169
21.98	62.4223
21.998	62.4242
22.016	62.423
22.034	62.4191
22.052	62.4123
22.07	62.4033
22.088	62.3927
22.106	62.3802
22.124	62.3669
22.142	62.3531
22.16	62.3386
22.178	62.3245
22.196	62.3105
22.214	62.2968
22.232	62.2836
22.25	62.2708
22.268	62.2585
22.286	62.2466
22.304	62.2353
22.322	62.2244
22.34	62.2139
22.358	62.2039
22.376	62.1947
22.394	62.186
22.412	62.1782
22.43	62.1717
22.448	62.1661
22.466	62.1626
22.484	62.1617
22.502	62.163
22.52	62.1682
22.538	62.1777
22.556	62.1913
22.574	62.2103
22.592	62.2351
22.61	62.2654
22.628	62.302
22.646	62.345
22.664	62.3941
22.682	62.449
22.7	62.5102
22.718	62.5765
22.736	62.6469
22.754	62.7221
22.772	62.8001
22.79	62.8793
22.808	62.9609
22.826	63.0421
22.844	63.1212
22.862	63.1994
22.88	63.2736
22.898	63.3425
22.916	63.4071
22.934	63.4646
22.952	63.5143
22.97	63.5568
22.988	63.5908
23.006	63.6158
23.024	63.6323
23.042	63.6405
23.06	63.6398
23.078	63.631
23.096	63.6155
23.114	63.593
23.132	63.564
23.15	63.531
23.168	63.4933
23.186	63.4518
23.204	63.409
23.222	63.3646
23.24	63.319
23.258	63.2743
23.276	63.2303
23.294	63.1873
23.312	63.1467
23.33	63.1088
23.348	63.0732
23.366	63.0404
23.384	63.0106
23.402	62.9836
23.42	62.9589
23.438	62.9369
23.456	62.9172
23.474	62.8988
23.492	62.8816
23.51	62.8657
23.528	62.8502
23.546	62.835
23.564	62.8202
23.582	62.8047
23.6	62.7882
23.618	62.7711
23.636	62.7525
23.654	62.7321
23.672	62.7102
23.69	62.6862
23.708	62.6597
23.726	62.6308
23.744	62.5993
23.762	62.5648
23.78	62.5275
23.798	62.4869
23.816	62.4426
23.834	62.3948
23.852	62.3432
23.87	62.2873
23.888	62.2272
23.906	62.1629
23.924	62.0935
23.942	62.0191
23.96	61.9399
23.978	61.8555
23.996	61.7659
24.014	61.6711
24.032	61.5717
24.05	61.4677
24.068	61.3587
24.086	61.2462
24.104	61.1315
24.122	61.0128
24.14	60.8927
24.158	60.7748
24.176	60.6568
24.194	60.5407
24.212	60.431
24.23	60.328
24.248	60.2306
24.266	60.1435
24.284	60.0693
24.302	60.0054
24.32	59.9547
24.338	59.9202
24.356	59.9005
24.374	59.896
24.392	59.908
24.41	59.9373
24.428	59.9826
24.446	60.0424
24.464	60.1171
24.482	60.2073
24.5	60.3085
24.518	60.417
24.536	60.5367
24.554	60.6629
24.572	60.7891
24.59	60.9174
24.608	61.0472
24.626	61.1715
24.644	61.2878
24.662	61.3996
24.68	61.5018
24.698	61.5894
24.716	61.6651
24.734	61.7279
24.752	61.775
24.77	61.8059
24.788	61.8215
24.806	61.8219
24.824	61.8066
24.842	61.7753
24.86	61.7295
24.878	61.671
24.896	61.5983
24.914	61.5124
24.932	61.4166
24.95	61.312
24.968	61.1965
24.986	61.074
25.004	60.9487
25.022	60.8188
25.04	60.6849
25.058	60.5505
25.076	60.4174
25.094	60.2839
25.112	60.1505
25.13	60.0177
25.148	59.8851
25.166	59.7529
25.184	59.6215
25.202	59.4906
25.22	59.36
25.238	59.2308
25.256	59.1043
25.274	58.9796
25.292	58.8572
25.31	58.7386
25.328	58.6244
25.346	58.5134
25.364	58.4073
25.382	58.3077
25.4	58.2136
25.418	58.1253
25.436	58.0452
25.454	57.975
25.472	57.9128
25.49	57.8602
25.508	57.8195
25.526	57.7914
25.544	57.7748
25.562	57.7703
25.58	57.7786
25.598	57.8005
25.616	57.8346
25.634	57.8792
25.652	57.9338
25.67	58.0007
25.688	58.0758
25.706	58.1541
25.724	58.2371
25.742	58.326
25.76	58.4138
25.778	58.4937
25.796	58.5717
25.814	58.6446
25.832	58.7041
25.85	58.7452
25.868	58.7745
25.886	58.7866
25.904	58.7744
25.922	58.7359
25.94	58.6752
25.958	58.589
25.976	58.4734
25.994	58.3285
26.012	58.1557
26.03	57.9559
26.048	57.7292
26.066	57.4733
26.084	57.1912
26.102	56.8879
26.12	56.5653
26.138	56.2184
26.156	55.8536
26.174	55.4789
26.192	55.096
26.21	54.6994
26.228	54.2969
26.246	53.8969
26.264	53.4976
26.282	53.0961
26.3	52.7012
26.318	52.3215
26.336	51.9537
26.354	51.5968
26.372	51.2561
26.39	50.9366
26.408	50.6338
26.426	50.3494
26.444	50.0888
26.462	49.8565
26.48	49.6488
26.498	49.4666
26.516	49.313
26.534	49.1897
26.552	49.0926
26.57	49.0253
26.588	48.9933
26.606	48.9996
26.624	49.0393
26.642	49.1156
26.66	49.2327
26.678	49.3918
26.696	49.5874
26.714	49.826
26.732	50.1154
26.75	50.4585
26.768	50.848
26.786	51.2904
26.804	51.7934
26.822	52.3597
26.84	52.9819
26.858	53.6667
26.876	54.4216
26.894	55.2502
26.912	56.1459
26.93	57.1124
26.948	58.1539
26.966	59.3433
26.984	60.7812
27.002	62.2042
27.02	63.3263
27.028	63.6214