File: Bakgrunnsmateriale/MATLAB/FTIR/ftir_data/subAa/Mapping_121/BZ1503107-1_e127.asc
PE IR       SPECTRUM    SPECTRUM    ASCII       PEDS        1.60
  -1
BZE0AE~1.ASC
17/04/07
22:19:52.00
17/04/07
22:20:18.00
tln
$BZ1503107-1_e0127$<ebV0>[-23.3,12.1,10.0,0.0,27,1,0]
27.028
64

2002,4.07
MIRTGS : RIGHTBACK : INTERNAL 2
MIR : ON : INTERNAL 2
OPTKBR

0.200000
8
8.000000
FILLER
SINGLE
SPECTRUM
UNLOCKED 256

DOUBLE

COMBINED
1
0
0

0.002000
BACKG

1
0
TRUE
51149
0
LEFT NOT FITTED RIGHT NOT FITTED 0
NONE
NONE
15600
12
4.427000
51148
TRUE
1 0 8 72 0 0 0 0

15798

#HDR
-1
-1
#GR
µM
EGY
2.38419e-05
0.0
2.000000
0.002000
12515
8
2.465510
0.008058
#DATA
2.000000	 0.772833
2.018000	 0.786094
2.036000	 0.809797
2.054000	 0.831699
2.072000	 0.859493
2.090000	 0.890460
2.108000	 0.907233
2.126000	 0.917855
2.144000	 0.920405
2.162000	 0.932705
2.180000	 0.952966
2.198000	 0.980370
2.216000	 0.998327
2.234000	 1.007262
2.252000	 1.027943
2.270000	 1.025850
2.288000	 1.044334
2.306000	 1.079116
2.324000	 1.123785
2.342000	 1.158324
2.360000	 1.186239
2.378000	 1.199907
2.396000	 1.217940
2.414000	 1.238651
2.432000	 1.263942
2.450000	 1.301551
2.468000	 1.340840
2.486000	 1.379870
2.504000	 1.405666
2.522000	 1.422149
2.540000	 1.430222
2.558000	 1.438861
2.576000	 1.446447
2.594000	 1.454636
2.612000	 1.494784
2.630000	 1.518136
2.648000	 1.555821
2.666000	 1.557960
2.684000	 1.581141
2.702000	 1.587686
2.720000	 1.577103
2.738000	 1.581133
2.756000	 1.582069
2.774000	 1.600254
2.792000	 1.614199
2.810000	 1.627485
2.828000	 1.635200
2.846000	 1.640556
2.864000	 1.631790
2.882000	 1.618158
2.900000	 1.605625
2.918000	 1.592372
2.936000	 1.602726
2.954000	 1.617885
2.972000	 1.634936
2.990000	 1.668347
3.008000	 1.696528
3.026000	 1.728283
3.044000	 1.752816
3.062000	 1.774040
3.080000	 1.787771
3.098000	 1.798115
3.116000	 1.799981
3.134000	 1.802791
3.152000	 1.807517
3.170000	 1.817195
3.188000	 1.835632
3.206000	 1.855412
3.224000	 1.886582
3.242000	 1.917722
3.260000	 1.945459
3.278000	 1.973137
3.296000	 1.986880
3.314000	 1.973154
3.332000	 2.032205
3.350000	 2.038696
3.368000	 1.976362
3.386000	 1.929965
3.404000	 1.838285
3.422000	 1.789507
3.440000	 1.944571
3.458000	 1.995388
3.476000	 2.013106
3.494000	 1.918579
3.512000	 2.022183
3.530000	 2.113691
3.548000	 2.157407
3.566000	 2.185900
3.584000	 2.210295
3.602000	 2.235868
3.620000	 2.253212
3.638000	 2.264337
3.656000	 2.265863
3.674000	 2.265403
3.692000	 2.258029
3.710000	 2.254385
3.728000	 2.247248
3.746000	 2.237469
3.764000	 2.230517
3.782000	 2.226477
3.800000	 2.228422
3.818000	 2.229751
3.836000	 2.231789
3.854000	 2.237855
3.872000	 2.251395
3.890000	 2.269353
3.908000	 2.287009
3.926000	 2.300867
3.944000	 2.313222
3.962000	 2.323096
3.980000	 2.331970
3.998000	 2.335133
4.016000	 2.335623
4.034000	 2.330881
4.052000	 2.322969
4.070000	 2.313139
4.088000	 2.302724
4.106000	 2.291814
4.124000	 2.283305
4.141999	 2.274686
4.160000	 2.264471
4.178000	 2.257398
4.196000	 2.254129
4.214000	 2.247305
4.232000	 2.242995
4.250000	 2.260698
4.268000	 2.271359
4.286000	 2.281986
4.304000	 2.302416
4.322000	 2.324394
4.340000	 2.340860
4.358000	 2.353595
4.375999	 2.365895
4.394000	 2.374558
4.412000	 2.381747
4.430000	 2.386893
4.448000	 2.388915
4.466000	 2.388208
4.484000	 2.388019
4.502000	 2.380706
4.520000	 2.372999
4.538000	 2.366867
4.556000	 2.361319
4.574000	 2.355176
4.592000	 2.346409
4.609999	 2.344315
4.628000	 2.340684
4.646000	 2.340195
4.664000	 2.339789
4.682000	 2.338990
4.700000	 2.339792
4.718000	 2.342260
4.736000	 2.343253
4.754000	 2.346391
4.772000	 2.345973
4.790000	 2.345540
4.808000	 2.351029
4.826000	 2.364526
4.843999	 2.380506
4.862000	 2.397288
4.880000	 2.414442
4.898000	 2.429073
4.916000	 2.439451
4.934000	 2.449064
4.952000	 2.454350
4.970000	 2.459111
4.988000	 2.463477
5.006000	 2.464567
5.024000	 2.465510
5.042000	 2.461861
5.060000	 2.453661
5.077999	 2.446623
5.096000	 2.441773
5.114000	 2.437014
5.132000	 2.430891
5.150000	 2.423635
5.168000	 2.416354
5.186000	 2.409747
5.204000	 2.402510
5.222000	 2.396800
5.240000	 2.388194
5.258000	 2.382239
5.276000	 2.378779
5.294000	 2.377043
5.312000	 2.379512
5.330000	 2.381916
5.348000	 2.383877
5.366000	 2.389729
5.384000	 2.395439
5.402000	 2.399280
5.420000	 2.401549
5.438000	 2.409778
5.456000	 2.413517
5.474000	 2.417625
5.492000	 2.425837
5.510000	 2.431701
5.528000	 2.433901
5.546000	 2.434669
5.564000	 2.434734
5.582000	 2.434274
5.600000	 2.434607
5.618000	 2.430239
5.636000	 2.420610
5.654000	 2.418957
5.672000	 2.418734
5.690000	 2.408698
5.708000	 2.391602
5.726000	 2.375097
5.744000	 2.353225
5.762000	 2.330500
5.780000	 2.328711
5.798000	 2.328706
5.816000	 2.311251
5.834000	 2.304004
5.852000	 2.299084
5.870000	 2.276512
5.888000	 2.257340
5.906000	 2.260824
5.923999	 2.253693
5.942000	 2.242180
5.960000	 2.241421
5.978000	 2.230826
5.996000	 2.223084
6.014000	 2.215486
6.032000	 2.195007
6.050000	 2.170609
6.068000	 2.167276
6.086000	 2.165874
6.104000	 2.153106
6.122000	 2.140759
6.140000	 2.131903
6.158000	 2.111317
6.176000	 2.075266
6.194000	 2.028255
6.212000	 1.987541
6.230000	 1.978693
6.248000	 1.997948
6.266000	 2.015393
6.284000	 2.020099
6.302000	 2.016523
6.320000	 2.006231
6.338000	 1.992430
6.356000	 1.986442
6.374000	 1.981580
6.392000	 1.961721
6.410000	 1.936572
6.428000	 1.939095
6.446000	 1.958306
6.464000	 1.962606
6.482000	 1.965818
6.500000	 2.002704
6.518000	 2.061533
6.536000	 2.102905
6.554000	 2.116170
6.572000	 2.113565
6.590000	 2.107740
6.608000	 2.098337
6.626000	 2.076721
6.644000	 2.023385
6.662000	 1.897467
6.680000	 1.733857
6.698000	 1.675252
6.716000	 1.760955
6.734000	 1.881251
6.752000	 1.953723
6.770000	 1.977297
6.788000	 1.978517
6.806000	 1.971639
6.824000	 1.952163
6.842000	 1.908377
6.860000	 1.839134
6.878000	 1.776469
6.896000	 1.766254
6.914000	 1.806331
6.932000	 1.847175
6.950000	 1.863596
6.968000	 1.869104
6.986000	 1.873081
7.004000	 1.873054
7.022000	 1.867342
7.040000	 1.857717
7.058000	 1.846586
7.076000	 1.826977
7.094000	 1.788927
7.112000	 1.744921
7.130000	 1.725469
7.148000	 1.740390
7.166000	 1.769766
7.184000	 1.789839
7.202000	 1.792074
7.220000	 1.788099
7.238000	 1.793090
7.256000	 1.804646
7.274000	 1.812966
7.292000	 1.816975
7.310000	 1.819114
7.328000	 1.819793
7.346000	 1.819679
7.364000	 1.819340
7.382000	 1.818158
7.400000	 1.815832
7.418000	 1.813660
7.436000	 1.813077
7.454000	 1.815297
7.472000	 1.821549
7.490000	 1.830606
7.508000	 1.839195
7.526000	 1.845166
7.544000	 1.848820
7.562000	 1.851548
7.580000	 1.853848
7.598000	 1.855314
7.616000	 1.855729
7.634000	 1.856053
7.652000	 1.856634
7.670000	 1.856608
7.688000	 1.856042
7.706000	 1.856006
7.724000	 1.856789
7.742000	 1.857410
7.760000	 1.856674
7.778000	 1.854606
7.796000	 1.851541
7.814000	 1.846831
7.832000	 1.838090
7.850000	 1.822228
7.868000	 1.797022
7.886000	 1.764347
7.904000	 1.733672
7.922000	 1.718853
7.940000	 1.727603
7.958000	 1.754596
7.976000	 1.786153
7.994000	 1.810986
8.012000	 1.825639
8.030000	 1.832475
8.048000	 1.835135
8.065999	 1.835904
8.084000	 1.835209
8.102000	 1.833018
8.120000	 1.829764
8.138000	 1.825764
8.155999	 1.820127
8.173999	 1.812092
8.192000	 1.801602
8.210000	 1.789037
8.228000	 1.775093
8.246000	 1.761735
8.263999	 1.751782
8.282000	 1.746681
8.300000	 1.745317
8.318000	 1.745589
8.336000	 1.745938
8.353999	 1.745523
8.372000	 1.743747
8.390000	 1.740431
8.408000	 1.735683
8.426000	 1.729729
8.443999	 1.722931
8.462000	 1.715740
8.480000	 1.708732
8.498000	 1.701840
8.516000	 1.694481
8.533999	 1.685812
8.552000	 1.675319
8.570000	 1.663304
8.588000	 1.650416
8.606000	 1.638006
8.624000	 1.627597
8.641999	 1.620172
8.660000	 1.615664
8.678000	 1.612979
8.696000	 1.610657
8.714000	 1.607460
8.731999	 1.602888
8.750000	 1.597124
8.768000	 1.590572
8.786000	 1.583402
8.804000	 1.575337
8.821999	 1.566134
8.840000	 1.555828
8.858000	 1.544965
8.876000	 1.534076
8.894000	 1.523215
8.911999	 1.512175
8.930000	 1.500648
8.948000	 1.488717
8.966000	 1.476763
8.984000	 1.465286
9.001999	 1.454930
9.020000	 1.446162
9.038000	 1.439193
9.056000	 1.433989
9.074000	 1.430224
9.092000	 1.427690
9.109999	 1.426100
9.128000	 1.425513
9.146000	 1.425986
9.164000	 1.427433
9.182000	 1.429385
9.199999	 1.430914
9.218000	 1.431220
9.236000	 1.430132
9.254000	 1.428661
9.272000	 1.428024
9.289999	 1.429229
9.308000	 1.431982
9.326000	 1.435206
9.344000	 1.437662
9.362000	 1.438757
9.379999	 1.438434
9.398000	 1.436331
9.416000	 1.430909
9.434000	 1.419415
9.452000	 1.399091
9.469999	 1.370259
9.488000	 1.338278
9.506000	 1.312508
9.524000	 1.301285
9.542000	 1.307260
9.560000	 1.325995
9.577999	 1.348859
9.596000	 1.368293
9.614000	 1.380780
9.632000	 1.386537
9.650000	 1.387413
9.667999	 1.385251
9.686000	 1.381349
9.704000	 1.376465
9.722000	 1.371374
9.740000	 1.366739
9.757999	 1.363081
9.776000	 1.360979
9.794000	 1.360761
9.812000	 1.362367
9.830000	 1.365592
9.847999	 1.369784
9.866000	 1.374367
9.884000	 1.379019
9.902000	 1.383403
9.920000	 1.387641
9.937999	 1.391603
9.956000	 1.395233
9.974000	 1.398184
9.992000	 1.400270
10.01	1.401400
10.028	1.401620
10.046	1.401064
10.064	1.399837
10.082	1.397919
10.1	1.395362
10.118	1.392217
10.136	1.388715
10.154	1.385083
10.172	1.381549
10.19	1.378309
10.208	1.375162
10.226	1.371977
10.244	1.368445
10.262	1.364442
10.28	1.359817
10.298	1.354722
10.316	1.349260
10.334	1.343617
10.352	1.337875
10.37	1.332162
10.388	1.326405
10.406	1.320639
10.424	1.314717
10.442	1.308683
10.46	1.302589
10.478	1.296548
10.496	1.290747
10.514	1.285316
10.532	1.280373
10.55	1.276041
10.568	1.272308
10.586	1.269089
10.604	1.266308
10.622	1.263670
10.64	1.260993
10.658	1.258051
10.676	1.254807
10.694	1.251293
10.712	1.247580
10.73	1.243844
10.748	1.240132
10.766	1.236629
10.784	1.233225
10.802	1.229867
10.82	1.226380
10.838	1.222643
10.856	1.218464
10.874	1.213820
10.892	1.208723
10.91	1.203177
10.928	1.197345
10.946	1.191356
10.964	1.185403
10.982	1.179723
11	1.174534
11.018	1.169920
11.036	1.165874
11.054	1.162388
11.072	1.159384
11.09	1.156804
11.108	1.154527
11.126	1.152488
11.144	1.150413
11.162	1.148247
11.18	1.145648
11.198	1.142331
11.216	1.137975
11.234	1.132275
11.252	1.124927
11.27	1.115800
11.288	1.104913
11.306	1.092624
11.324	1.079503
11.342	1.066351
11.36	1.054059
11.378	1.043653
11.396	1.035923
11.414	1.031476
11.432	1.030455
11.45	1.032847
11.468	1.038089
11.486	1.045381
11.504	1.053897
11.522	1.062665
11.54	1.071009
11.558	1.078315
11.576	1.084306
11.594	1.088893
11.612	1.091988
11.63	1.093665
11.648	1.094166
11.666	1.093605
11.684	1.092332
11.702	1.090563
11.72	1.088562
11.738	1.086614
11.756	1.084741
11.774	1.083060
11.792	1.081483
11.81	1.079832
11.828	1.077978
11.846	1.075707
11.864	1.072727
11.882	1.068801
11.9	1.063474
11.918	1.056280
11.936	1.046715
11.954	1.034304
11.972	1.018700
11.99	0.999749
12.008	0.977751
12.026	0.953391
12.044	0.927950
12.062	0.903106
12.08	0.880865
12.098	0.862965
12.116	0.850963
12.134	0.845711
12.152	0.847153
12.17	0.854409
12.188	0.866025
12.206	0.880187
12.224	0.895007
12.242	0.908984
12.26	0.921081
12.278	0.930762
12.296	0.937913
12.314	0.942816
12.332	0.945814
12.35	0.947374
12.368	0.947813
12.386	0.947540
12.404	0.946832
12.422	0.945850
12.44	0.944834
12.458	0.944019
12.476	0.943500
12.494	0.943407
12.512	0.943877
12.53	0.944897
12.548	0.946499
12.566	0.948608
12.584	0.951266
12.602	0.954295
12.62	0.957565
12.638	0.960938
12.656	0.964304
12.674	0.967528
12.692	0.970397
12.71	0.972925
12.728	0.975051
12.746	0.976778
12.764	0.978137
12.782	0.979140
12.8	0.979885
12.818	0.980356
12.836	0.980564
12.854	0.980514
12.872	0.980183
12.89	0.979582
12.908	0.978782
12.926	0.977782
12.944	0.976658
12.962	0.975460
12.98	0.974285
12.998	0.973168
13.016	0.972144
13.034	0.971237
13.052	0.970395
13.07	0.969612
13.088	0.968788
13.106	0.967963
13.124	0.967063
13.142	0.966063
13.16	0.964988
13.178	0.963847
13.196	0.962704
13.214	0.961524
13.232	0.960378
13.25	0.959244
13.268	0.958059
13.286	0.956814
13.304	0.955478
13.322	0.954059
13.34	0.952516
13.358	0.950860
13.376	0.949151
13.394	0.947422
13.412	0.945658
13.43	0.943923
13.448	0.942173
13.466	0.940381
13.484	0.938514
13.502	0.936504
13.52	0.934362
13.538	0.932080
13.556	0.929633
13.574	0.927026
13.592	0.924315
13.61	0.921519
13.628	0.918709
13.646	0.915870
13.664	0.913069
13.682	0.910318
13.7	0.907596
13.718	0.904902
13.736	0.902214
13.754	0.899601
13.772	0.896996
13.79	0.894397
13.808	0.891802
13.826	0.889255
13.844	0.886712
13.862	0.884116
13.88	0.881505
13.898	0.878894
13.916	0.876257
13.934	0.873583
13.952	0.870887
13.97	0.868198
13.988	0.865495
14.006	0.862801
14.024	0.860113
14.042	0.857454
14.06	0.854787
14.078	0.852095
14.096	0.849321
14.114	0.846499
14.132	0.843591
14.15	0.840540
14.168	0.837384
14.186	0.834122
14.204	0.830753
14.222	0.827302
14.24	0.823730
14.258	0.820021
14.276	0.816168
14.294	0.812102
14.312	0.807737
14.33	0.803009
14.348	0.797843
14.366	0.792195
14.384	0.786031
14.402	0.779387
14.42	0.772429
14.438	0.765355
14.456	0.758378
14.474	0.751734
14.492	0.745697
14.51	0.740494
14.528	0.736313
14.546	0.733212
14.564	0.731169
14.582	0.730109
14.6	0.729899
14.618	0.730307
14.636	0.731084
14.654	0.732025
14.672	0.732969
14.69	0.733760
14.708	0.734281
14.726	0.734537
14.744	0.734459
14.762	0.734064
14.78	0.733389
14.798	0.732477
14.816	0.731365
14.834	0.730061
14.852	0.728633
14.87	0.727080
14.888	0.725418
14.906	0.723676
14.924	0.721880
14.942	0.720020
14.96	0.718144
14.978	0.716259
14.996	0.714359
15.014	0.712432
15.032	0.710495
15.05	0.708548
15.068	0.706590
15.086	0.704622
15.104	0.702644
15.122	0.700652
15.14	0.698675
15.158	0.696720
15.176	0.694781
15.194	0.692844
15.212	0.690928
15.23	0.689020
15.248	0.687122
15.266	0.685243
15.284	0.683321
15.302	0.681360
15.32	0.679368
15.338	0.677353
15.356	0.675298
15.374	0.673217
15.392	0.671122
15.41	0.669020
15.428	0.666909
15.446	0.664788
15.464	0.662665
15.482	0.660552
15.5	0.658459
15.518	0.656384
15.536	0.654330
15.554	0.652287
15.572	0.650231
15.59	0.648179
15.608	0.646141
15.626	0.644118
15.644	0.642081
15.662	0.640047
15.68	0.638026
15.698	0.636023
15.716	0.634019
15.734	0.632041
15.752	0.630094
15.77	0.628177
15.788	0.626300
15.806	0.624477
15.824	0.622701
15.842	0.620932
15.86	0.619207
15.878	0.617511
15.896	0.615829
15.914	0.614177
15.932	0.612547
15.95	0.610924
15.968	0.609272
15.986	0.607636
16.004	0.606004
16.022	0.604349
16.04	0.602649
16.058	0.600908
16.076	0.599122
16.094	0.597244
16.112	0.595262
16.13	0.593164
16.148	0.590930
16.166	0.588572
16.184	0.586061
16.202	0.583341
16.22	0.580436
16.238	0.577353
16.256	0.574101
16.274	0.570675
16.292	0.567096
16.31	0.563385
16.328	0.559586
16.346	0.555772
16.364	0.552002
16.382	0.548291
16.4	0.544733
16.418	0.541390
16.436	0.538294
16.454	0.535502
16.472	0.533053
16.49	0.530959
16.508	0.529214
16.526	0.527817
16.544	0.526753
16.562	0.525962
16.58	0.525400
16.598	0.525047
16.616	0.524823
16.634	0.524659
16.652	0.524507
16.67	0.524342
16.688	0.524130
16.706	0.523885
16.724	0.523583
16.742	0.523169
16.76	0.522673
16.778	0.522106
16.796	0.521495
16.814	0.520843
16.832	0.520155
16.85	0.519447
16.868	0.518738
16.886	0.518041
16.904	0.517385
16.922	0.516769
16.94	0.516190
16.958	0.515661
16.976	0.515178
16.994	0.514704
17.012	0.514268
17.03	0.513886
17.048	0.513525
17.066	0.513172
17.084	0.512807
17.102	0.512433
17.12	0.512051
17.138	0.511649
17.156	0.511235
17.174	0.510815
17.192	0.510376
17.21	0.509923
17.228	0.509482
17.246	0.509061
17.264	0.508669
17.282	0.508310
17.3	0.507991
17.318	0.507732
17.336	0.507509
17.354	0.507312
17.372	0.507119
17.39	0.506918
17.408	0.506676
17.426	0.506362
17.444	0.505955
17.462	0.505415
17.48	0.504741
17.498	0.503942
17.516	0.502995
17.534	0.501878
17.552	0.500611
17.57	0.499201
17.588	0.497699
17.606	0.496116
17.624	0.494464
17.642	0.492797
17.66	0.491137
17.678	0.489518
17.696	0.487947
17.714	0.486462
17.732	0.485069
17.75	0.483785
17.768	0.482605
17.786	0.481528
17.804	0.480558
17.822	0.479686
17.84	0.478862
17.858	0.478088
17.876	0.477367
17.894	0.476671
17.912	0.475990
17.93	0.475313
17.948	0.474636
17.966	0.473915
17.984	0.473161
18.002	0.472404
18.02	0.471622
18.038	0.470798
18.056	0.469951
18.074	0.469090
18.092	0.468183
18.11	0.467233
18.128	0.466284
18.146	0.465330
18.164	0.464351
18.182	0.463356
18.2	0.462357
18.218	0.461327
18.236	0.460251
18.254	0.459141
18.272	0.458000
18.29	0.456827
18.308	0.455623
18.326	0.454369
18.344	0.453071
18.362	0.451740
18.38	0.450383
18.398	0.449023
18.416	0.447646
18.434	0.446232
18.452	0.444820
18.47	0.443435
18.488	0.442087
18.506	0.440777
18.524	0.439537
18.542	0.438372
18.56	0.437300
18.578	0.436325
18.596	0.435436
18.614	0.434632
18.632	0.433917
18.65	0.433287
18.668	0.432699
18.686	0.432153
18.704	0.431644
18.722	0.431162
18.74	0.430672
18.758	0.430170
18.776	0.429620
18.794	0.429021
18.812	0.428350
18.83	0.427611
18.848	0.426808
18.866	0.425936
18.884	0.424988
18.902	0.423976
18.92	0.422914
18.938	0.421802
18.956	0.420641
18.974	0.419443
18.992	0.418227
19.01	0.416995
19.028	0.415753
19.046	0.414507
19.064	0.413264
19.082	0.412026
19.1	0.410798
19.118	0.409578
19.136	0.408367
19.154	0.407163
19.172	0.405959
19.19	0.404758
19.208	0.403560
19.226	0.402363
19.244	0.401162
19.262	0.399957
19.28	0.398741
19.298	0.397516
19.316	0.396290
19.334	0.395061
19.352	0.393822
19.37	0.392573
19.388	0.391321
19.406	0.390068
19.424	0.388806
19.442	0.387533
19.46	0.386260
19.478	0.384991
19.496	0.383728
19.514	0.382472
19.532	0.381227
19.55	0.379993
19.568	0.378778
19.586	0.377590
19.604	0.376423
19.622	0.375272
19.64	0.374139
19.658	0.373031
19.676	0.371946
19.694	0.370880
19.712	0.369834
19.73	0.368785
19.748	0.367733
19.766	0.366665
19.784	0.365579
19.802	0.364469
19.82	0.363334
19.838	0.362162
19.856	0.360932
19.874	0.359647
19.892	0.358305
19.91	0.356905
19.928	0.355449
19.946	0.353934
19.964	0.352373
19.982	0.350772
20	0.349116
20.018	0.347384
20.036	0.345608
20.054	0.343828
20.072	0.342034
20.09	0.340227
20.108	0.338408
20.126	0.336592
20.144	0.334779
20.162	0.332976
20.18	0.331183
20.198	0.329409
20.216	0.327665
20.234	0.325948
20.252	0.324256
20.27	0.322590
20.288	0.320953
20.306	0.319351
20.324	0.317773
20.342	0.316215
20.36	0.314676
20.378	0.313153
20.396	0.311647
20.414	0.310151
20.432	0.308667
20.45	0.307194
20.468	0.305732
20.486	0.304281
20.504	0.302844
20.522	0.301418
20.54	0.299994
20.558	0.298571
20.576	0.297151
20.594	0.295729
20.612	0.294314
20.63	0.292920
20.648	0.291545
20.666	0.290162
20.684	0.288766
20.702	0.287371
20.72	0.285988
20.738	0.284611
20.756	0.283237
20.774	0.281868
20.792	0.280490
20.81	0.279094
20.828	0.277694
20.846	0.276299
20.864	0.274907
20.882	0.273521
20.9	0.272140
20.918	0.270770
20.936	0.269420
20.954	0.268083
20.972	0.266746
20.99	0.265404
21.008	0.264078
21.026	0.262776
21.044	0.261490
21.062	0.260213
21.08	0.258945
21.098	0.257687
21.116	0.256439
21.134	0.255201
21.152	0.253974
21.17	0.252758
21.188	0.251545
21.206	0.250333
21.224	0.249123
21.242	0.247910
21.26	0.246698
21.278	0.245474
21.296	0.244232
21.314	0.242979
21.332	0.241723
21.35	0.240465
21.368	0.239195
21.386	0.237911
21.404	0.236614
21.422	0.235298
21.44	0.233963
21.458	0.232621
21.476	0.231276
21.494	0.229927
21.512	0.228573
21.53	0.227211
21.548	0.225849
21.566	0.224492
21.584	0.223137
21.602	0.221781
21.62	0.220420
21.638	0.219061
21.656	0.217715
21.674	0.216380
21.692	0.215051
21.71	0.213730
21.728	0.212413
21.746	0.211089
21.764	0.209758
21.782	0.208424
21.8	0.207091
21.818	0.205759
21.836	0.204418
21.854	0.203067
21.872	0.201708
21.89	0.200342
21.908	0.198968
21.926	0.197586
21.944	0.196196
21.962	0.194798
21.98	0.193393
21.998	0.191974
22.016	0.190552
22.034	0.189142
22.052	0.187743
22.07	0.186354
22.088	0.184975
22.106	0.183606
22.124	0.182263
22.142	0.180951
22.16	0.179667
22.178	0.178419
22.196	0.177202
22.214	0.176023
22.232	0.174890
22.25	0.173800
22.268	0.172754
22.286	0.171750
22.304	0.170790
22.322	0.169868
22.34	0.168987
22.358	0.168144
22.376	0.167329
22.394	0.166547
22.412	0.165788
22.43	0.165039
22.448	0.164306
22.466	0.163580
22.484	0.162852
22.502	0.162129
22.52	0.161394
22.538	0.160643
22.556	0.159879
22.574	0.159092
22.592	0.158280
22.61	0.157445
22.628	0.156588
22.646	0.155713
22.664	0.154813
22.682	0.153879
22.7	0.152910
22.718	0.151914
22.736	0.150904
22.754	0.149877
22.772	0.148831
22.79	0.147760
22.808	0.146663
22.826	0.145555
22.844	0.144446
22.862	0.143332
22.88	0.142208
22.898	0.141073
22.916	0.139928
22.934	0.138777
22.952	0.137624
22.97	0.136467
22.988	0.135311
23.006	0.134158
23.024	0.133008
23.042	0.131859
23.06	0.130713
23.078	0.129569
23.096	0.128424
23.114	0.127274
23.132	0.126125
23.15	0.124980
23.168	0.123842
23.186	0.122708
23.204	0.121578
23.222	0.120453
23.24	0.119332
23.258	0.118215
23.276	0.117102
23.294	0.115993
23.312	0.114892
23.33	0.113797
23.348	0.112710
23.366	0.111632
23.384	0.110567
23.402	0.109510
23.42	0.108457
23.438	0.107406
23.456	0.106359
23.474	0.105319
23.492	0.104286
23.51	0.103259
23.528	0.102241
23.546	0.101236
23.564	0.100242
23.582	0.099247
23.6	0.098246
23.618	0.097243
23.636	0.096244
23.654	0.095256
23.672	0.094275
23.69	0.093298
23.708	0.092320
23.726	0.091342
23.744	0.090367
23.762	0.089397
23.78	0.088428
23.798	0.087466
23.816	0.086514
23.834	0.085569
23.852	0.084634
23.87	0.083714
23.888	0.082809
23.906	0.081916
23.924	0.081035
23.942	0.080164
23.96	0.079304
23.978	0.078453
23.996	0.077607
24.014	0.076767
24.032	0.075942
24.05	0.075135
24.068	0.074348
24.086	0.073570
24.104	0.072795
24.122	0.072025
24.14	0.071261
24.158	0.070499
24.176	0.069740
24.194	0.068984
24.212	0.068232
24.23	0.067485
24.248	0.066741
24.266	0.065998
24.284	0.065250
24.302	0.064501
24.32	0.063752
24.338	0.063006
24.356	0.062262
24.374	0.061518
24.392	0.060771
24.41	0.060016
24.428	0.059258
24.446	0.058502
24.464	0.057751
24.482	0.057002
24.5	0.056260
24.518	0.055530
24.536	0.054812
24.554	0.054102
24.572	0.053400
24.59	0.052703
24.608	0.052012
24.626	0.051333
24.644	0.050668
24.662	0.050013
24.68	0.049370
24.698	0.048739
24.716	0.048120
24.734	0.047512
24.752	0.046912
24.77	0.046322
24.788	0.045741
24.806	0.045167
24.824	0.044600
24.842	0.044042
24.86	0.043489
24.878	0.042937
24.896	0.042387
24.914	0.041839
24.932	0.041296
24.95	0.040759
24.968	0.040229
24.986	0.039701
25.004	0.039173
25.022	0.038643
25.04	0.038114
25.058	0.037590
25.076	0.037071
25.094	0.036555
25.112	0.036046
25.13	0.035547
25.148	0.035058
25.166	0.034577
25.184	0.034103
25.202	0.033634
25.22	0.033172
25.238	0.032716
25.256	0.032267
25.274	0.031823
25.292	0.031385
25.31	0.030955
25.328	0.030535
25.346	0.030124
25.364	0.029721
25.382	0.029320
25.4	0.028923
25.418	0.028530
25.436	0.028141
25.454	0.027757
25.472	0.027376
25.49	0.027000
25.508	0.026628
25.526	0.026263
25.544	0.025903
25.562	0.025544
25.58	0.025179
25.598	0.024808
25.616	0.024435
25.634	0.024059
25.652	0.023683
25.67	0.023305
25.688	0.022926
25.706	0.022550
25.724	0.022177
25.742	0.021807
25.76	0.021439
25.778	0.021074
25.796	0.020710
25.814	0.020348
25.832	0.019989
25.85	0.019636
25.868	0.019284
25.886	0.018938
25.904	0.018599
25.922	0.018268
25.94	0.017942
25.958	0.017626
25.976	0.017324
25.994	0.017037
26.012	0.016763
26.03	0.016499
26.048	0.016241
26.066	0.015990
26.084	0.015747
26.102	0.015518
26.12	0.015305
26.138	0.015110
26.156	0.014926
26.174	0.014749
26.192	0.014576
26.21	0.014412
26.228	0.014253
26.246	0.014096
26.264	0.013942
26.282	0.013790
26.3	0.013643
26.318	0.013501
26.336	0.013367
26.354	0.013238
26.372	0.013111
26.39	0.012983
26.408	0.012853
26.426	0.012724
26.444	0.012595
26.462	0.012467
26.48	0.012340
26.498	0.012213
26.516	0.012084
26.534	0.011949
26.552	0.011810
26.57	0.011667
26.588	0.011527
26.606	0.011391
26.624	0.011259
26.642	0.011128
26.66	0.010994
26.678	0.010855
26.696	0.010712
26.714	0.010566
26.732	0.010419
26.75	0.010272
26.768	0.010121
26.786	0.009970
26.804	0.009821
26.822	0.009675
26.84	0.009533
26.858	0.009391
26.876	0.009248
26.894	0.009102
26.912	0.008952
26.93	0.008802
26.948	0.008655
26.966	0.008508
26.984	0.008351
27.002	0.008204
27.02	0.008089
27.028	0.008058