File: Bakgrunnsmateriale/MATLAB/FTIR/ftir_data/subAa/Mapping_121/BZ1503107-1_t115.asc
PE IR       SPECTRUM    SPECTRUM    ASCII       PEDS        1.60
  -1
BZDAB6~1.ASC
17/04/07
22:43:44.00
17/04/07
22:44:10.00
tln
$BZ1503107-1_t0115$<tbV0>[2.6,13.0,8.0,0.0,27,1,0]
27.028
64

2002,4.07
MIRTGS : RIGHTBACK : INTERNAL 2
MIR : ON : INTERNAL 2
OPTKBR

0.200000
8
8.000000
FILLER
RATIO
SPECTRUM
UNLOCKED 256

DOUBLE
64
COMBINED
1
0
0

0.002000
RATIO

1
0
TRUE
51149
0
LEFT NOT FITTED RIGHT NOT FITTED 0
NONE
NONE
15600
12
4.427000
51148
TRUE
1 0 8 72 0 0 0 0

15798

#HDR
-1
-1
#GR
µM
%T
2.38419e-05
0.0
2.000000
0.002000
12515
8
67.9772
40.6172
#DATA
2.000000	 65.9962
2.018000	 66.5608
2.036000	 65.6069
2.054000	 64.637
2.072000	 65.1697
2.090000	 65.0783
2.108000	 64.9055
2.126000	 64.7613
2.144000	 65.0754
2.162000	 65.0938
2.180000	 65.6341
2.198000	 66.0649
2.216000	 66.0851
2.234000	 66.5524
2.252000	 62.2912
2.270000	 67.5455
2.288000	 66.7233
2.306000	 65.9986
2.324000	 65.7052
2.342000	 65.6687
2.360000	 65.5197
2.378000	 65.4971
2.396000	 65.1112
2.414000	 64.8074
2.432000	 65.1074
2.450000	 65.1598
2.468000	 65.1711
2.486000	 64.8375
2.504000	 65.1776
2.522000	 65.2006
2.540000	 65.5028
2.558000	 65.3224
2.576000	 65.5227
2.594000	 65.7099
2.612000	 65.5263
2.630000	 65.4567
2.648000	 65.2856
2.666000	 65.2306
2.684000	 65.1644
2.702000	 65.1386
2.720000	 65.2441
2.738000	 65.132
2.756000	 65.448
2.774000	 65.1528
2.792000	 65.0957
2.810000	 65.3342
2.828000	 65.1545
2.846000	 65.0617
2.864000	 65.1421
2.882000	 65.2081
2.900000	 65.2774
2.918000	 65.4541
2.936000	 65.1903
2.954000	 65.1261
2.972000	 65.241
2.990000	 65.0813
3.008000	 65.1778
3.026000	 64.9504
3.044000	 64.9319
3.062000	 65.1112
3.080000	 64.9737
3.098000	 64.9972
3.116000	 64.9792
3.134000	 65.043
3.152000	 64.9371
3.170000	 65.0652
3.188000	 64.9979
3.206000	 64.9087
3.224000	 64.8181
3.242000	 64.9246
3.260000	 64.9209
3.278000	 64.9295
3.296000	 65.0775
3.314000	 64.9442
3.332000	 64.8494
3.350000	 64.7933
3.368000	 64.591
3.386000	 64.5178
3.404000	 64.6467
3.422000	 64.4781
3.440000	 64.6072
3.458000	 64.8126
3.476000	 64.6815
3.494000	 64.6527
3.512000	 64.722
3.530000	 64.6446
3.548000	 64.7278
3.566000	 64.8311
3.584000	 64.6619
3.602000	 64.7697
3.620000	 64.7514
3.638000	 64.6378
3.656000	 64.7178
3.674000	 64.8144
3.692000	 64.7724
3.710000	 64.7472
3.728000	 64.644
3.746000	 64.6952
3.764000	 64.6472
3.782000	 64.6991
3.800000	 64.636
3.818000	 64.6661
3.836000	 64.7249
3.854000	 64.7108
3.872000	 64.6237
3.890000	 64.5902
3.908000	 64.6342
3.926000	 64.7082
3.944000	 64.5134
3.962000	 64.4886
3.980000	 64.5784
3.998000	 64.671
4.016000	 64.5648
4.034000	 64.6544
4.052000	 64.7013
4.070000	 64.5433
4.088000	 64.5274
4.106000	 64.5786
4.124000	 64.4405
4.141999	 64.3453
4.160000	 64.4399
4.178000	 64.4889
4.196000	 64.4558
4.214000	 64.4835
4.232000	 64.4114
4.250000	 64.3429
4.268000	 64.4051
4.286000	 64.4133
4.304000	 64.3769
4.322000	 64.3224
4.340000	 64.3292
4.358000	 64.3133
4.375999	 64.4429
4.394000	 64.3946
4.412000	 64.3195
4.430000	 64.2095
4.448000	 64.3094
4.466000	 64.3543
4.484000	 64.148
4.502000	 64.3798
4.520000	 64.4088
4.538000	 64.3715
4.556000	 64.1803
4.574000	 64.2772
4.592000	 64.297
4.609999	 64.2158
4.628000	 64.2204
4.646000	 64.2831
4.664000	 64.2997
4.682000	 64.2906
4.700000	 64.2944
4.718000	 64.2625
4.736000	 64.2087
4.754000	 64.2177
4.772000	 64.1444
4.790000	 64.1663
4.808000	 64.1843
4.826000	 64.2057
4.843999	 64.1184
4.862000	 64.0949
4.880000	 64.0716
4.898000	 64.0219
4.916000	 64.0744
4.934000	 64.0415
4.952000	 64.035
4.970000	 64.0085
4.988000	 63.9959
5.006000	 64.0289
5.024000	 63.9511
5.042000	 63.8756
5.060000	 63.9126
5.077999	 63.9471
5.096000	 63.9386
5.114000	 63.9047
5.132000	 63.8879
5.150000	 63.9443
5.168000	 64.0296
5.186000	 64.0212
5.204000	 63.9031
5.222000	 63.8503
5.240000	 63.9204
5.258000	 63.9905
5.276000	 63.8504
5.294000	 63.8746
5.312000	 63.8208
5.330000	 63.8946
5.348000	 63.8844
5.366000	 63.8442
5.384000	 63.8565
5.402000	 63.8571
5.420000	 63.8169
5.438000	 63.8088
5.456000	 63.8016
5.474000	 63.7691
5.492000	 63.8317
5.510000	 63.8897
5.528000	 63.9499
5.546000	 63.8955
5.564000	 63.7369
5.582000	 63.6594
5.600000	 63.6935
5.618000	 63.7598
5.636000	 63.7278
5.654000	 63.7338
5.672000	 63.749
5.690000	 63.6814
5.708000	 63.5375
5.726000	 63.2661
5.744000	 63.0375
5.762000	 62.876
5.780000	 62.914
5.798000	 63.1161
5.816000	 63.3033
5.834000	 63.4593
5.852000	 63.561
5.870000	 63.589
5.888000	 63.587
5.906000	 63.649
5.923999	 63.7127
5.942000	 63.6524
5.960000	 63.6156
5.978000	 63.6295
5.996000	 63.5949
6.014000	 63.5842
6.032000	 63.5577
6.050000	 63.5097
6.068000	 63.5062
6.086000	 63.5282
6.104000	 63.5583
6.122000	 63.5461
6.140000	 63.4417
6.158000	 63.3753
6.176000	 63.3432
6.194000	 63.2762
6.212000	 63.3062
6.230000	 63.4103
6.248000	 63.4027
6.266000	 63.369
6.284000	 63.4303
6.302000	 63.4064
6.320000	 63.3417
6.338000	 63.3679
6.356000	 63.4183
6.374000	 63.4288
6.392000	 63.3937
6.410000	 63.3504
6.428000	 63.3806
6.446000	 63.4323
6.464000	 63.426
6.482000	 63.3991
6.500000	 63.3607
6.518000	 63.3354
6.536000	 63.3318
6.554000	 63.3316
6.572000	 63.3903
6.590000	 63.465
6.608000	 63.4362
6.626000	 63.371
6.644000	 63.3817
6.662000	 63.4693
6.680000	 63.5637
6.698000	 63.5533
6.716000	 63.4413
6.734000	 63.349
6.752000	 63.3059
6.770000	 63.2695
6.788000	 63.227
6.806000	 63.1509
6.824000	 63.0728
6.842000	 63.1213
6.860000	 63.2335
6.878000	 63.2101
6.896000	 63.1027
6.914000	 63.0876
6.932000	 63.1229
6.950000	 63.1178
6.968000	 63.1142
6.986000	 63.144
7.004000	 63.165
7.022000	 63.1815
7.040000	 63.2078
7.058000	 63.2153
7.076000	 63.1958
7.094000	 63.1603
7.112000	 63.1264
7.130000	 63.1119
7.148000	 63.1266
7.166000	 63.1493
7.184000	 63.1145
7.202000	 63.0321
7.220000	 63.0062
7.238000	 63.0471
7.256000	 63.0713
7.274000	 63.0578
7.292000	 63.0448
7.310000	 63.0434
7.328000	 63.0458
7.346000	 63.0515
7.364000	 63.061
7.382000	 63.0804
7.400000	 63.0983
7.418000	 63.0792
7.436000	 63.0384
7.454000	 63.0241
7.472000	 63.0305
7.490000	 63.0324
7.508000	 63.0342
7.526000	 63.0407
7.544000	 63.0565
7.562000	 63.0738
7.580000	 63.0752
7.598000	 63.0742
7.616000	 63.0818
7.634000	 63.0674
7.652000	 63.0224
7.670000	 62.9962
7.688000	 63.0157
7.706000	 63.0342
7.724000	 62.9962
7.742000	 62.9145
7.760000	 62.8477
7.778000	 62.82
7.796000	 62.8112
7.814000	 62.8145
7.832000	 62.8328
7.850000	 62.8396
7.868000	 62.8108
7.886000	 62.7577
7.904000	 62.6986
7.922000	 62.6459
7.940000	 62.6224
7.958000	 62.6279
7.976000	 62.6247
7.994000	 62.5999
8.012000	 62.5981
8.030000	 62.645
8.048000	 62.6926
8.065999	 62.6982
8.084000	 62.6965
8.102000	 62.7265
8.120000	 62.7506
8.138000	 62.7224
8.155999	 62.6717
8.173999	 62.6586
8.192000	 62.6881
8.210000	 62.727
8.228000	 62.7629
8.246000	 62.7978
8.263999	 62.8144
8.282000	 62.7906
8.300000	 62.7316
8.318000	 62.6677
8.336000	 62.6359
8.353999	 62.6547
8.372000	 62.703
8.390000	 62.7321
8.408000	 62.7121
8.426000	 62.6573
8.443999	 62.5974
8.462000	 62.5425
8.480000	 62.4864
8.498000	 62.4239
8.516000	 62.3589
8.533999	 62.3066
8.552000	 62.2913
8.570000	 62.3283
8.588000	 62.398
8.606000	 62.4533
8.624000	 62.4623
8.641999	 62.4389
8.660000	 62.4251
8.678000	 62.4488
8.696000	 62.5037
8.714000	 62.5621
8.731999	 62.5979
8.750000	 62.6027
8.768000	 62.5877
8.786000	 62.5741
8.804000	 62.5777
8.821999	 62.5975
8.840000	 62.6193
8.858000	 62.6335
8.876000	 62.6457
8.894000	 62.6629
8.911999	 62.6756
8.930000	 62.6642
8.948000	 62.6235
8.966000	 62.5707
8.984000	 62.5254
9.001999	 62.4928
9.020000	 62.4707
9.038000	 62.4652
9.056000	 62.4848
9.074000	 62.5247
9.092000	 62.5677
9.109999	 62.5968
9.128000	 62.6045
9.146000	 62.591
9.164000	 62.5578
9.182000	 62.5099
9.199999	 62.466
9.218000	 62.4581
9.236000	 62.5039
9.254000	 62.5802
9.272000	 62.6331
9.289999	 62.6244
9.308000	 62.5675
9.326000	 62.5141
9.344000	 62.506
9.362000	 62.5409
9.379999	 62.5838
9.398000	 62.6011
9.416000	 62.5833
9.434000	 62.5404
9.452000	 62.488
9.469999	 62.4382
9.488000	 62.4
9.506000	 62.3838
9.524000	 62.3982
9.542000	 62.4409
9.560000	 62.4931
9.577999	 62.5268
9.596000	 62.5237
9.614000	 62.4876
9.632000	 62.4407
9.650000	 62.405
9.667999	 62.3863
9.686000	 62.3778
9.704000	 62.3747
9.722000	 62.3798
9.740000	 62.3964
9.757999	 62.417
9.776000	 62.4233
9.794000	 62.4029
9.812000	 62.3645
9.830000	 62.3348
9.847999	 62.3394
9.866000	 62.3839
9.884000	 62.4512
9.902000	 62.512
9.920000	 62.5412
9.937999	 62.531
9.956000	 62.4942
9.974000	 62.4561
9.992000	 62.44
10.01	62.4542
10.028	62.4876
10.046	62.5177
10.064	62.5265
10.082	62.5116
10.1	62.4866
10.118	62.4727
10.136	62.4844
10.154	62.5228
10.172	62.5758
10.19	62.6232
10.208	62.6461
10.226	62.6352
10.244	62.5924
10.262	62.5307
10.28	62.4667
10.298	62.4143
10.316	62.3797
10.334	62.362
10.352	62.3578
10.37	62.365
10.388	62.3844
10.406	62.4167
10.424	62.4588
10.442	62.5026
10.46	62.5372
10.478	62.5532
10.496	62.548
10.514	62.5266
10.532	62.499
10.55	62.474
10.568	62.4561
10.586	62.4432
10.604	62.43
10.622	62.4114
10.64	62.3855
10.658	62.3542
10.676	62.3235
10.694	62.3
10.712	62.2898
10.73	62.2958
10.748	62.3174
10.766	62.351
10.784	62.3907
10.802	62.4291
10.82	62.4593
10.838	62.4758
10.856	62.4773
10.874	62.4683
10.892	62.4577
10.91	62.4555
10.928	62.468
10.946	62.4945
10.964	62.5273
10.982	62.5562
11	62.5736
11.018	62.5787
11.036	62.5766
11.054	62.5745
11.072	62.5762
11.09	62.5785
11.108	62.5734
11.126	62.5515
11.144	62.5084
11.162	62.4469
11.18	62.3763
11.198	62.3093
11.216	62.2558
11.234	62.2213
11.252	62.2064
11.27	62.2092
11.288	62.228
11.306	62.2615
11.324	62.3079
11.342	62.3634
11.36	62.4209
11.378	62.4706
11.396	62.5044
11.414	62.5176
11.432	62.5107
11.45	62.4883
11.468	62.457
11.486	62.4217
11.504	62.3853
11.522	62.3497
11.54	62.3164
11.558	62.2888
11.576	62.2696
11.594	62.2601
11.612	62.2584
11.63	62.2599
11.648	62.2595
11.666	62.2549
11.684	62.2478
11.702	62.2436
11.72	62.2486
11.738	62.2665
11.756	62.2959
11.774	62.33
11.792	62.3589
11.81	62.3745
11.828	62.3731
11.846	62.3565
11.864	62.3308
11.882	62.304
11.9	62.2834
11.918	62.273
11.936	62.2742
11.954	62.2858
11.972	62.3059
11.99	62.3328
12.008	62.365
12.026	62.4012
12.044	62.4392
12.062	62.4753
12.08	62.5044
12.098	62.522
12.116	62.5247
12.134	62.5125
12.152	62.4885
12.17	62.4586
12.188	62.4298
12.206	62.4084
12.224	62.3979
12.242	62.3992
12.26	62.4101
12.278	62.4258
12.296	62.4401
12.314	62.4474
12.332	62.4437
12.35	62.4279
12.368	62.4027
12.386	62.3731
12.404	62.3464
12.422	62.3289
12.44	62.3253
12.458	62.3365
12.476	62.3603
12.494	62.3907
12.512	62.4201
12.53	62.4398
12.548	62.4427
12.566	62.4243
12.584	62.3837
12.602	62.3245
12.62	62.254
12.638	62.1818
12.656	62.1174
12.674	62.0689
12.692	62.0405
12.71	62.0323
12.728	62.0402
12.746	62.0571
12.764	62.0752
12.782	62.0878
12.8	62.0909
12.818	62.0842
12.836	62.0703
12.854	62.0538
12.872	62.0398
12.89	62.0328
12.908	62.0352
12.926	62.0469
12.944	62.066
12.962	62.0884
12.98	62.1093
12.998	62.124
13.016	62.129
13.034	62.1226
13.052	62.1055
13.07	62.0798
13.088	62.0491
13.106	62.017
13.124	61.9868
13.142	61.9605
13.16	61.9387
13.178	61.9207
13.196	61.9059
13.214	61.8938
13.232	61.8849
13.25	61.8809
13.268	61.8838
13.286	61.8954
13.304	61.9159
13.322	61.9433
13.34	61.9733
13.358	62.0005
13.376	62.0195
13.394	62.0262
13.412	62.019
13.43	61.9994
13.448	61.9716
13.466	61.9416
13.484	61.9152
13.502	61.8975
13.52	61.891
13.538	61.8958
13.556	61.9095
13.574	61.9288
13.592	61.9503
13.61	61.9714
13.628	61.9906
13.646	62.0077
13.664	62.0234
13.682	62.0388
13.7	62.055
13.718	62.0724
13.736	62.091
13.754	62.1105
13.772	62.1299
13.79	62.1482
13.808	62.1632
13.826	62.1737
13.844	62.1781
13.862	62.1751
13.88	62.1638
13.898	62.1441
13.916	62.1169
13.934	62.0838
13.952	62.0471
13.97	62.0092
13.988	61.9721
14.006	61.9369
14.024	61.9035
14.042	61.8704
14.06	61.8357
14.078	61.7969
14.096	61.7526
14.114	61.7025
14.132	61.6478
14.15	61.5915
14.168	61.538
14.186	61.4924
14.204	61.4587
14.222	61.441
14.24	61.4408
14.258	61.4588
14.276	61.4934
14.294	61.5425
14.312	61.6035
14.33	61.674
14.348	61.7517
14.366	61.8347
14.384	61.921
14.402	62.0082
14.42	62.0934
14.438	62.1728
14.456	62.242
14.474	62.2967
14.492	62.3332
14.51	62.3491
14.528	62.3445
14.546	62.3215
14.564	62.2841
14.582	62.2372
14.6	62.1868
14.618	62.1385
14.636	62.0968
14.654	62.0638
14.672	62.0398
14.69	62.0237
14.708	62.0133
14.726	62.006
14.744	61.9993
14.762	61.9917
14.78	61.9833
14.798	61.9744
14.816	61.9662
14.834	61.9603
14.852	61.9573
14.87	61.9573
14.888	61.9592
14.906	61.9616
14.924	61.962
14.942	61.9576
14.96	61.9458
14.978	61.9256
14.996	61.8967
15.014	61.8594
15.032	61.8156
15.05	61.7682
15.068	61.7203
15.086	61.6756
15.104	61.6373
15.122	61.6083
15.14	61.5904
15.158	61.5845
15.176	61.5907
15.194	61.6085
15.212	61.6358
15.23	61.6704
15.248	61.7099
15.266	61.752
15.284	61.7936
15.302	61.8327
15.32	61.8675
15.338	61.8966
15.356	61.9189
15.374	61.9343
15.392	61.943
15.41	61.9451
15.428	61.9417
15.446	61.9329
15.464	61.9195
15.482	61.9018
15.5	61.8797
15.518	61.8527
15.536	61.8203
15.554	61.7819
15.572	61.7375
15.59	61.6871
15.608	61.6316
15.626	61.572
15.644	61.5101
15.662	61.4486
15.68	61.3898
15.698	61.336
15.716	61.2897
15.734	61.2525
15.752	61.2248
15.77	61.207
15.788	61.1976
15.806	61.1946
15.824	61.1961
15.842	61.1996
15.86	61.2027
15.878	61.2039
15.896	61.2019
15.914	61.1961
15.932	61.1868
15.95	61.1747
15.968	61.1609
15.986	61.1465
16.004	61.1322
16.022	61.1189
16.04	61.1062
16.058	61.0941
16.076	61.0825
16.094	61.0712
16.112	61.0611
16.13	61.053
16.148	61.0482
16.166	61.0489
16.184	61.0572
16.202	61.0754
16.22	61.1054
16.238	61.148
16.256	61.2037
16.274	61.2704
16.292	61.345
16.31	61.4243
16.328	61.5017
16.346	61.5721
16.364	61.631
16.382	61.6724
16.4	61.6943
16.418	61.6954
16.436	61.6761
16.454	61.6403
16.472	61.5909
16.49	61.5355
16.508	61.4804
16.526	61.4306
16.544	61.3942
16.562	61.3746
16.58	61.3747
16.598	61.397
16.616	61.44
16.634	61.5027
16.652	61.5812
16.67	61.6712
16.688	61.7686
16.706	61.8657
16.724	61.9582
16.742	62.0403
16.76	62.1058
16.778	62.1523
16.796	62.1758
16.814	62.1751
16.832	62.1496
16.85	62.1006
16.868	62.0314
16.886	61.9441
16.904	61.8457
16.922	61.7402
16.94	61.6334
16.958	61.5322
16.976	61.4398
16.994	61.3629
17.012	61.3035
17.03	61.2638
17.048	61.2448
17.066	61.245
17.084	61.2628
17.102	61.2934
17.12	61.3343
17.138	61.3785
17.156	61.4219
17.174	61.4602
17.192	61.4872
17.21	61.5012
17.228	61.4981
17.246	61.4773
17.264	61.4381
17.282	61.3823
17.3	61.3115
17.318	61.2289
17.336	61.1392
17.354	61.0447
17.372	60.953
17.39	60.8664
17.408	60.7912
17.426	60.731
17.444	60.689
17.462	60.6689
17.48	60.6711
17.498	60.6968
17.516	60.7441
17.534	60.8121
17.552	60.8957
17.57	60.9932
17.588	61.0978
17.606	61.2065
17.624	61.314
17.642	61.4158
17.66	61.5096
17.678	61.5908
17.696	61.659
17.714	61.7124
17.732	61.7518
17.75	61.7774
17.768	61.7919
17.786	61.7961
17.804	61.7938
17.822	61.7857
17.84	61.7749
17.858	61.7624
17.876	61.7499
17.894	61.7377
17.912	61.7262
17.93	61.715
17.948	61.7041
17.966	61.6921
17.984	61.6786
18.002	61.6626
18.02	61.6437
18.038	61.6214
18.056	61.5958
18.074	61.5671
18.092	61.5363
18.11	61.5037
18.128	61.4712
18.146	61.4393
18.164	61.4097
18.182	61.3832
18.2	61.3612
18.218	61.3447
18.236	61.3341
18.254	61.3306
18.272	61.3343
18.29	61.3461
18.308	61.366
18.326	61.3942
18.344	61.4305
18.362	61.4746
18.38	61.5257
18.398	61.5826
18.416	61.6441
18.434	61.7091
18.452	61.775
18.47	61.8407
18.488	61.9027
18.506	61.9602
18.524	62.0089
18.542	62.048
18.56	62.074
18.578	62.0864
18.596	62.0823
18.614	62.0618
18.632	62.0242
18.65	61.9697
18.668	61.8995
18.686	61.8145
18.704	61.7178
18.722	61.6104
18.74	61.4968
18.758	61.3782
18.776	61.2598
18.794	61.1426
18.812	61.0312
18.83	60.9265
18.848	60.8318
18.866	60.7472
18.884	60.6748
18.902	60.6139
18.92	60.5649
18.938	60.5268
18.956	60.4985
18.974	60.4787
18.992	60.4656
19.01	60.4582
19.028	60.4542
19.046	60.4533
19.064	60.4538
19.082	60.4557
19.1	60.458
19.118	60.4614
19.136	60.466
19.154	60.4726
19.172	60.4824
19.19	60.4962
19.208	60.5162
19.226	60.5424
19.244	60.577
19.262	60.6197
19.28	60.6718
19.298	60.7329
19.316	60.8026
19.334	60.8808
19.352	60.9651
19.37	61.0557
19.388	61.1486
19.406	61.2442
19.424	61.3378
19.442	61.4296
19.46	61.5157
19.478	61.5957
19.496	61.667
19.514	61.7288
19.532	61.7803
19.55	61.8206
19.568	61.8501
19.586	61.8685
19.604	61.8766
19.622	61.8757
19.64	61.8661
19.658	61.85
19.676	61.8273
19.694	61.8009
19.712	61.7706
19.73	61.7387
19.748	61.7051
19.766	61.6712
19.784	61.6375
19.802	61.6043
19.82	61.5719
19.838	61.5403
19.856	61.5099
19.874	61.4804
19.892	61.4516
19.91	61.4236
19.928	61.3961
19.946	61.3691
19.964	61.3424
19.982	61.3161
20	61.2904
20.018	61.2655
20.036	61.2414
20.054	61.2183
20.072	61.1963
20.09	61.1752
20.108	61.1551
20.126	61.1358
20.144	61.1173
20.162	61.0992
20.18	61.0816
20.198	61.064
20.216	61.0459
20.234	61.0274
20.252	61.0075
20.27	60.9865
20.288	60.9639
20.306	60.9396
20.324	60.9136
20.342	60.8858
20.36	60.8565
20.378	60.8258
20.396	60.7939
20.414	60.7613
20.432	60.7281
20.45	60.6947
20.468	60.6616
20.486	60.6287
20.504	60.5969
20.522	60.5658
20.54	60.5361
20.558	60.5078
20.576	60.4809
20.594	60.4557
20.612	60.4321
20.63	60.4101
20.648	60.3896
20.666	60.3704
20.684	60.3525
20.702	60.3359
20.72	60.3203
20.738	60.3059
20.756	60.2924
20.774	60.2798
20.792	60.2678
20.81	60.2564
20.828	60.2455
20.846	60.235
20.864	60.225
20.882	60.2152
20.9	60.2058
20.918	60.1967
20.936	60.1881
20.954	60.1798
20.972	60.1718
20.99	60.164
21.008	60.1567
21.026	60.1498
21.044	60.1435
21.062	60.1382
21.08	60.1338
21.098	60.1312
21.116	60.1304
21.134	60.1318
21.152	60.1364
21.17	60.1439
21.188	60.1557
21.206	60.1718
21.224	60.1928
21.242	60.2197
21.26	60.2522
21.278	60.2912
21.296	60.3369
21.314	60.3891
21.332	60.4481
21.35	60.5138
21.368	60.5854
21.386	60.663
21.404	60.7459
21.422	60.8323
21.44	60.9231
21.458	61.0157
21.476	61.1095
21.494	61.2041
21.512	61.2964
21.53	61.3874
21.548	61.4746
21.566	61.5563
21.584	61.6331
21.602	61.7024
21.62	61.7642
21.638	61.8181
21.656	61.8628
21.674	61.8989
21.692	61.9263
21.71	61.9447
21.728	61.9548
21.746	61.9582
21.764	61.954
21.782	61.9442
21.8	61.93
21.818	61.9109
21.836	61.8903
21.854	61.8681
21.872	61.845
21.89	61.8232
21.908	61.802
21.926	61.7825
21.944	61.7659
21.962	61.7516
21.98	61.7392
21.998	61.7292
22.016	61.7206
22.034	61.7121
22.052	61.7046
22.07	61.6957
22.088	61.6839
22.106	61.6701
22.124	61.6515
22.142	61.6276
22.16	61.5986
22.178	61.5623
22.196	61.5189
22.214	61.4685
22.232	61.4104
22.25	61.3446
22.268	61.2724
22.286	61.1939
22.304	61.1091
22.322	61.0209
22.34	60.929
22.358	60.8342
22.376	60.7402
22.394	60.6457
22.412	60.5526
22.43	60.464
22.448	60.3783
22.466	60.2978
22.484	60.2244
22.502	60.1571
22.52	60.0972
22.538	60.0458
22.556	60.0022
22.574	59.9664
22.592	59.9389
22.61	59.919
22.628	59.9055
22.646	59.899
22.664	59.8985
22.682	59.9021
22.7	59.9106
22.718	59.9228
22.736	59.9369
22.754	59.9539
22.772	59.9725
22.79	59.9915
22.808	60.0115
22.826	60.032
22.844	60.0524
22.862	60.073
22.88	60.0939
22.898	60.1148
22.916	60.1359
22.934	60.1577
22.952	60.1803
22.97	60.2037
22.988	60.2284
23.006	60.2545
23.024	60.282
23.042	60.311
23.06	60.3416
23.078	60.3738
23.096	60.407
23.114	60.4416
23.132	60.4773
23.15	60.5126
23.168	60.5481
23.186	60.5832
23.204	60.6163
23.222	60.6481
23.24	60.6778
23.258	60.7034
23.276	60.7254
23.294	60.7434
23.312	60.7552
23.33	60.761
23.348	60.7609
23.366	60.7531
23.384	60.7377
23.402	60.7149
23.42	60.6845
23.438	60.646
23.456	60.6001
23.474	60.5475
23.492	60.4878
23.51	60.4214
23.528	60.3505
23.546	60.275
23.564	60.1949
23.582	60.1126
23.6	60.0287
23.618	59.9426
23.636	59.8566
23.654	59.7719
23.672	59.6876
23.69	59.6052
23.708	59.5258
23.726	59.4488
23.744	59.3745
23.762	59.3039
23.78	59.2368
23.798	59.1726
23.816	59.1108
23.834	59.0519
23.852	58.995
23.87	58.9385
23.888	58.8831
23.906	58.8281
23.924	58.7716
23.942	58.7136
23.96	58.6542
23.978	58.5922
23.996	58.527
24.014	58.4589
24.032	58.3882
24.05	58.3146
24.068	58.2376
24.086	58.159
24.104	58.0802
24.122	57.9993
24.14	57.9189
24.158	57.8423
24.176	57.7676
24.194	57.6964
24.212	57.6327
24.23	57.577
24.248	57.5281
24.266	57.4899
24.284	57.4642
24.302	57.4494
24.32	57.447
24.338	57.4592
24.356	57.4857
24.374	57.5254
24.392	57.5777
24.41	57.6436
24.428	57.7221
24.446	57.8103
24.464	57.9078
24.482	58.016
24.5	58.1301
24.518	58.2463
24.536	58.3679
24.554	58.4916
24.572	58.6126
24.59	58.7322
24.608	58.8503
24.626	58.963
24.644	59.0683
24.662	59.1682
24.68	59.2615
24.698	59.3472
24.716	59.425
24.734	59.496
24.752	59.5617
24.77	59.621
24.788	59.6743
24.806	59.7249
24.824	59.7746
24.842	59.8204
24.86	59.8668
24.878	59.9192
24.896	59.9761
24.914	60.0374
24.932	60.1067
24.95	60.1864
24.968	60.2748
24.986	60.3715
25.004	60.476
25.022	60.5905
25.04	60.7125
25.058	60.838
25.076	60.966
25.094	61.0993
25.112	61.2321
25.13	61.3587
25.148	61.4838
25.166	61.6042
25.184	61.712
25.202	61.804
25.22	61.8854
25.238	61.9492
25.256	61.9877
25.274	62.0037
25.292	61.9972
25.31	61.9641
25.328	61.901
25.346	61.8101
25.364	61.6923
25.382	61.5488
25.4	61.3768
25.418	61.1783
25.436	60.9593
25.454	60.7233
25.472	60.4645
25.49	60.1898
25.508	59.9089
25.526	59.622
25.544	59.3248
25.562	59.0279
25.58	58.7414
25.598	58.4588
25.616	58.1827
25.634	57.9225
25.652	57.6841
25.67	57.4612
25.688	57.2577
25.706	57.0789
25.724	56.9261
25.742	56.7968
25.76	56.6914
25.778	56.6106
25.796	56.5568
25.814	56.5267
25.832	56.5152
25.85	56.5196
25.868	56.5452
25.886	56.5855
25.904	56.633
25.922	56.6863
25.94	56.7498
25.958	56.8169
25.976	56.881
25.994	56.9438
26.012	57.0064
26.03	57.0653
26.048	57.1172
26.066	57.1627
26.084	57.2033
26.102	57.2396
26.12	57.2716
26.138	57.2974
26.156	57.3205
26.174	57.3446
26.192	57.3699
26.21	57.393
26.228	57.4205
26.246	57.4589
26.264	57.5083
26.282	57.5657
26.3	57.635
26.318	57.7199
26.336	57.8196
26.354	57.9331
26.372	58.0615
26.39	58.2061
26.408	58.3709
26.426	58.5512
26.444	58.7392
26.462	58.9295
26.48	59.1322
26.498	59.339
26.516	59.5361
26.534	59.7152
26.552	59.8927
26.57	60.054
26.588	60.1787
26.606	60.2556
26.624	60.3047
26.642	60.3097
26.66	60.2494
26.678	60.1131
26.696	59.9196
26.714	59.655
26.732	59.3017
26.75	58.8507
26.768	58.3152
26.786	57.6893
26.804	56.9649
26.822	56.1362
26.84	55.2069
26.858	54.1822
26.876	53.067
26.894	51.8596
26.912	50.5519
26.93	49.161
26.948	47.7056
26.966	46.1134
26.984	44.2484
27.002	42.4276
27.02	40.9961
27.028	40.6172