File: Bakgrunnsmateriale/MATLAB/FTIR/ftir_data/subAa/Mapping_121/BZ1503107-1_t88.asc
PE IR       SPECTRUM    SPECTRUM    ASCII       PEDS        1.60
  -1
BZ2965~1.ASC
17/04/07
20:25:39.00
17/04/07
20:26:06.00
tln
$BZ1503107-1_t0088$<tbV0>[-13.0,5.2,8.0,0.0,27,1,0]
27.028
64

2002,4.07
MIRTGS : RIGHTBACK : INTERNAL 2
MIR : ON : INTERNAL 2
OPTKBR

0.200000
8
8.000000
FILLER
RATIO
SPECTRUM
UNLOCKED 256

DOUBLE
64
COMBINED
1
0
0

0.002000
RATIO

1
0
TRUE
51149
0
LEFT NOT FITTED RIGHT NOT FITTED 0
NONE
NONE
15600
12
4.427000
51148
TRUE
1 0 8 72 0 0 0 0

15798

#HDR
-1
-1
#GR
µM
%T
2.38419e-05
0.0
2.000000
0.002000
12515
8
71.3338
43.6634
#DATA
2.000000	 64.2308
2.018000	 66.7493
2.036000	 66.1068
2.054000	 65.6038
2.072000	 65.2033
2.090000	 65.3369
2.108000	 65.2984
2.126000	 65.4014
2.144000	 65.2497
2.162000	 65.3138
2.180000	 65.6407
2.198000	 65.5589
2.216000	 65.4236
2.234000	 65.7118
2.252000	 51.9178
2.270000	 66.0076
2.288000	 65.2143
2.306000	 65.2578
2.324000	 65.3523
2.342000	 65.3035
2.360000	 65.4591
2.378000	 65.1385
2.396000	 65.1877
2.414000	 64.9733
2.432000	 65.1962
2.450000	 65.1435
2.468000	 65.1159
2.486000	 65.2838
2.504000	 65.123
2.522000	 65.1035
2.540000	 65.5776
2.558000	 65.5981
2.576000	 65.2671
2.594000	 65.3538
2.612000	 65.1207
2.630000	 65.4193
2.648000	 65.4862
2.666000	 65.3255
2.684000	 65.298
2.702000	 65.366
2.720000	 65.352
2.738000	 65.388
2.756000	 65.1787
2.774000	 65.2774
2.792000	 65.2148
2.810000	 65.3332
2.828000	 65.3958
2.846000	 65.2651
2.864000	 65.2147
2.882000	 65.507
2.900000	 65.2113
2.918000	 65.1987
2.936000	 65.1287
2.954000	 65.3137
2.972000	 65.1625
2.990000	 65.4176
3.008000	 65.344
3.026000	 65.2947
3.044000	 65.1457
3.062000	 65.0461
3.080000	 65.2301
3.098000	 65.1841
3.116000	 65.1616
3.134000	 65.1132
3.152000	 65.0657
3.170000	 65.058
3.188000	 65.081
3.206000	 65.2196
3.224000	 65.0308
3.242000	 64.9284
3.260000	 65.1723
3.278000	 65.2012
3.296000	 65.1521
3.314000	 65.0746
3.332000	 64.9793
3.350000	 64.8914
3.368000	 64.7265
3.386000	 64.6533
3.404000	 64.729
3.422000	 64.6906
3.440000	 64.8874
3.458000	 64.7835
3.476000	 64.7606
3.494000	 64.7825
3.512000	 64.945
3.530000	 64.9977
3.548000	 65.0668
3.566000	 65.0717
3.584000	 64.9666
3.602000	 65.0823
3.620000	 65.0834
3.638000	 64.9182
3.656000	 64.9314
3.674000	 64.9
3.692000	 65.0559
3.710000	 65.1046
3.728000	 65.0631
3.746000	 64.9854
3.764000	 64.9176
3.782000	 65.0185
3.800000	 64.8828
3.818000	 64.9733
3.836000	 64.8155
3.854000	 64.9003
3.872000	 65.0246
3.890000	 64.8267
3.908000	 64.9562
3.926000	 64.8421
3.944000	 64.8394
3.962000	 64.9608
3.980000	 64.7891
3.998000	 64.8475
4.016000	 64.8106
4.034000	 64.8642
4.052000	 64.8002
4.070000	 64.9145
4.088000	 64.7577
4.106000	 64.8175
4.124000	 64.774
4.141999	 64.8272
4.160000	 64.8664
4.178000	 64.6848
4.196000	 64.6759
4.214000	 64.6589
4.232000	 64.674
4.250000	 64.6557
4.268000	 64.6015
4.286000	 64.7525
4.304000	 64.6954
4.322000	 64.7395
4.340000	 64.6971
4.358000	 64.5266
4.375999	 64.6567
4.394000	 64.7152
4.412000	 64.6699
4.430000	 64.6337
4.448000	 64.6443
4.466000	 64.6637
4.484000	 64.5795
4.502000	 64.6254
4.520000	 64.6304
4.538000	 64.6509
4.556000	 64.4413
4.574000	 64.5395
4.592000	 64.6062
4.609999	 64.5045
4.628000	 64.5247
4.646000	 64.5091
4.664000	 64.5575
4.682000	 64.6222
4.700000	 64.6162
4.718000	 64.52
4.736000	 64.563
4.754000	 64.5102
4.772000	 64.5104
4.790000	 64.5119
4.808000	 64.5286
4.826000	 64.4495
4.843999	 64.4611
4.862000	 64.5105
4.880000	 64.4679
4.898000	 64.4218
4.916000	 64.547
4.934000	 64.3634
4.952000	 64.3731
4.970000	 64.4704
4.988000	 64.4816
5.006000	 64.4181
5.024000	 64.3721
5.042000	 64.3296
5.060000	 64.3346
5.077999	 64.4
5.096000	 64.4166
5.114000	 64.432
5.132000	 64.3452
5.150000	 64.4008
5.168000	 64.3749
5.186000	 64.3508
5.204000	 64.3345
5.222000	 64.4236
5.240000	 64.4092
5.258000	 64.3662
5.276000	 64.3543
5.294000	 64.4542
5.312000	 64.4201
5.330000	 64.4219
5.348000	 64.3717
5.366000	 64.2441
5.384000	 64.2861
5.402000	 64.3869
5.420000	 64.3017
5.438000	 64.2208
5.456000	 64.2353
5.474000	 64.2536
5.492000	 64.2108
5.510000	 64.2172
5.528000	 64.2382
5.546000	 64.2023
5.564000	 64.2394
5.582000	 64.2839
5.600000	 64.2033
5.618000	 64.1358
5.636000	 64.2169
5.654000	 64.2602
5.672000	 64.0983
5.690000	 63.9772
5.708000	 63.7754
5.726000	 63.5048
5.744000	 63.1633
5.762000	 62.9541
5.780000	 63.1243
5.798000	 63.4024
5.816000	 63.6778
5.834000	 63.8763
5.852000	 63.89
5.870000	 63.8631
5.888000	 63.9875
5.906000	 64.0962
5.923999	 64.1102
5.942000	 64.0425
5.960000	 64.0275
5.978000	 63.9764
5.996000	 63.9135
6.014000	 63.9347
6.032000	 63.9532
6.050000	 63.9447
6.068000	 64.0177
6.086000	 64.0139
6.104000	 63.9233
6.122000	 63.9721
6.140000	 64.0656
6.158000	 64.0747
6.176000	 64.1049
6.194000	 64.1215
6.212000	 64.0041
6.230000	 63.9577
6.248000	 63.9909
6.266000	 63.9455
6.284000	 63.8927
6.302000	 63.9837
6.320000	 63.981
6.338000	 63.9188
6.356000	 63.9726
6.374000	 63.9815
6.392000	 63.9511
6.410000	 63.9911
6.428000	 63.9712
6.446000	 63.8482
6.464000	 63.8502
6.482000	 64.0049
6.500000	 64.1054
6.518000	 64.0678
6.536000	 64.0091
6.554000	 64.0108
6.572000	 64.02
6.590000	 64.0185
6.608000	 63.9721
6.626000	 63.8972
6.644000	 63.8849
6.662000	 63.8841
6.680000	 63.9031
6.698000	 63.9133
6.716000	 63.8704
6.734000	 63.8487
6.752000	 63.8283
6.770000	 63.8118
6.788000	 63.8138
6.806000	 63.7659
6.824000	 63.6702
6.842000	 63.6323
6.860000	 63.6482
6.878000	 63.6343
6.896000	 63.6306
6.914000	 63.6852
6.932000	 63.7323
6.950000	 63.7328
6.968000	 63.7428
6.986000	 63.8023
7.004000	 63.838
7.022000	 63.7676
7.040000	 63.6804
7.058000	 63.7004
7.076000	 63.7467
7.094000	 63.7135
7.112000	 63.6444
7.130000	 63.5835
7.148000	 63.5603
7.166000	 63.6266
7.184000	 63.7197
7.202000	 63.7189
7.220000	 63.64
7.238000	 63.5644
7.256000	 63.519
7.274000	 63.5258
7.292000	 63.5784
7.310000	 63.6231
7.328000	 63.6476
7.346000	 63.6609
7.364000	 63.6452
7.382000	 63.6179
7.400000	 63.6204
7.418000	 63.6497
7.436000	 63.6875
7.454000	 63.7239
7.472000	 63.7412
7.490000	 63.7362
7.508000	 63.7358
7.526000	 63.7617
7.544000	 63.7884
7.562000	 63.7554
7.580000	 63.6502
7.598000	 63.5448
7.616000	 63.5038
7.634000	 63.5161
7.652000	 63.5519
7.670000	 63.5911
7.688000	 63.5963
7.706000	 63.5601
7.724000	 63.5376
7.742000	 63.5582
7.760000	 63.5669
7.778000	 63.5087
7.796000	 63.414
7.814000	 63.3532
7.832000	 63.3514
7.850000	 63.3755
7.868000	 63.3766
7.886000	 63.3285
7.904000	 63.2455
7.922000	 63.1724
7.940000	 63.1488
7.958000	 63.1776
7.976000	 63.2199
7.994000	 63.2392
8.012000	 63.2433
8.030000	 63.2504
8.048000	 63.2501
8.065999	 63.233
8.084000	 63.2181
8.102000	 63.2165
8.120000	 63.2162
8.138000	 63.2238
8.155999	 63.2636
8.173999	 63.324
8.192000	 63.3548
8.210000	 63.3326
8.228000	 63.2923
8.246000	 63.2819
8.263999	 63.3122
8.282000	 63.3578
8.300000	 63.3909
8.318000	 63.406
8.336000	 63.4158
8.353999	 63.4188
8.372000	 63.388
8.390000	 63.3113
8.408000	 63.22
8.426000	 63.156
8.443999	 63.1202
8.462000	 63.083
8.480000	 63.0349
8.498000	 62.9967
8.516000	 62.9844
8.533999	 62.9879
8.552000	 62.9918
8.570000	 63
8.588000	 63.0266
8.606000	 63.0675
8.624000	 63.0951
8.641999	 63.0891
8.660000	 63.0647
8.678000	 63.0613
8.696000	 63.1034
8.714000	 63.1823
8.731999	 63.274
8.750000	 63.3585
8.768000	 63.4203
8.786000	 63.4404
8.804000	 63.4025
8.821999	 63.3126
8.840000	 63.2091
8.858000	 63.1463
8.876000	 63.1588
8.894000	 63.2351
8.911999	 63.3279
8.930000	 63.395
8.948000	 63.4267
8.966000	 63.4355
8.984000	 63.4316
9.001999	 63.4124
9.020000	 63.374
9.038000	 63.3213
9.056000	 63.2691
9.074000	 63.2338
9.092000	 63.2238
9.109999	 63.2338
9.128000	 63.2471
9.146000	 63.2503
9.164000	 63.2448
9.182000	 63.2415
9.199999	 63.243
9.218000	 63.2378
9.236000	 63.2138
9.254000	 63.1766
9.272000	 63.1486
9.289999	 63.1509
9.308000	 63.1851
9.326000	 63.233
9.344000	 63.2687
9.362000	 63.2733
9.379999	 63.2449
9.398000	 63.1994
9.416000	 63.1611
9.434000	 63.1481
9.452000	 63.1612
9.469999	 63.1847
9.488000	 63.2
9.506000	 63.2016
9.524000	 63.2012
9.542000	 63.2126
9.560000	 63.2349
9.577999	 63.2491
9.596000	 63.2348
9.614000	 63.1887
9.632000	 63.128
9.650000	 63.0784
9.667999	 63.056
9.686000	 63.0579
9.704000	 63.0673
9.722000	 63.0673
9.740000	 63.0521
9.757999	 63.0288
9.776000	 63.01
9.794000	 63.0065
9.812000	 63.0225
9.830000	 63.0545
9.847999	 63.0934
9.866000	 63.1293
9.884000	 63.1567
9.902000	 63.1758
9.920000	 63.1915
9.937999	 63.2085
9.956000	 63.2264
9.974000	 63.2414
9.992000	 63.249
10.01	63.2472
10.028	63.2375
10.046	63.2245
10.064	63.2138
10.082	63.2104
10.1	63.2167
10.118	63.2309
10.136	63.2485
10.154	63.2659
10.172	63.2827
10.19	63.3025
10.208	63.3263
10.226	63.3484
10.244	63.358
10.262	63.3451
10.28	63.3101
10.298	63.2642
10.316	63.2245
10.334	63.2061
10.352	63.2164
10.37	63.2536
10.388	63.3048
10.406	63.3505
10.424	63.3674
10.442	63.3382
10.46	63.2613
10.478	63.1554
10.496	63.055
10.514	62.9954
10.532	62.998
10.55	63.0594
10.568	63.156
10.586	63.254
10.604	63.3277
10.622	63.3656
10.64	63.3735
10.658	63.3667
10.676	63.3619
10.694	63.3687
10.712	63.3888
10.73	63.416
10.748	63.4405
10.766	63.454
10.784	63.4519
10.802	63.435
10.82	63.4079
10.838	63.3783
10.856	63.3525
10.874	63.335
10.892	63.3262
10.91	63.3221
10.928	63.3171
10.946	63.3067
10.964	63.2903
10.982	63.2711
11	63.2554
11.018	63.2482
11.036	63.2497
11.054	63.2553
11.072	63.2575
11.09	63.2511
11.108	63.2359
11.126	63.2176
11.144	63.2036
11.162	63.2002
11.18	63.2103
11.198	63.234
11.216	63.269
11.234	63.3124
11.252	63.3597
11.27	63.4051
11.288	63.4405
11.306	63.458
11.324	63.4524
11.342	63.4237
11.36	63.3773
11.378	63.323
11.396	63.2704
11.414	63.2276
11.432	63.1993
11.45	63.1865
11.468	63.1876
11.486	63.1987
11.504	63.214
11.522	63.2274
11.54	63.2346
11.558	63.2334
11.576	63.2258
11.594	63.2158
11.612	63.2086
11.63	63.2074
11.648	63.2124
11.666	63.2208
11.684	63.2291
11.702	63.235
11.72	63.238
11.738	63.2394
11.756	63.2408
11.774	63.2427
11.792	63.2445
11.81	63.2451
11.828	63.2436
11.846	63.2399
11.864	63.2343
11.882	63.2275
11.9	63.22
11.918	63.2122
11.936	63.2049
11.954	63.2
11.972	63.1999
11.99	63.2067
12.008	63.2201
12.026	63.2359
12.044	63.2471
12.062	63.2452
12.08	63.2246
12.098	63.1847
12.116	63.1309
12.134	63.0738
12.152	63.0255
12.17	62.9952
12.188	62.9868
12.206	62.9979
12.224	63.0209
12.242	63.0463
12.26	63.0663
12.278	63.0769
12.296	63.0778
12.314	63.0719
12.332	63.063
12.35	63.0544
12.368	63.0472
12.386	63.0413
12.404	63.0341
12.422	63.0225
12.44	63.0038
12.458	62.9779
12.476	62.9469
12.494	62.916
12.512	62.892
12.53	62.8815
12.548	62.8888
12.566	62.9152
12.584	62.9586
12.602	63.0144
12.62	63.0765
12.638	63.1382
12.656	63.193
12.674	63.2363
12.692	63.2656
12.71	63.2812
12.728	63.2861
12.746	63.2852
12.764	63.2842
12.782	63.2878
12.8	63.2985
12.818	63.3161
12.836	63.3375
12.854	63.3577
12.872	63.372
12.89	63.3761
12.908	63.3683
12.926	63.349
12.944	63.3205
12.962	63.2858
12.98	63.2476
12.998	63.208
13.016	63.1683
13.034	63.1295
13.052	63.0931
13.07	63.0611
13.088	63.036
13.106	63.0204
13.124	63.0154
13.142	63.0211
13.16	63.0364
13.178	63.0594
13.196	63.0872
13.214	63.117
13.232	63.1466
13.25	63.1739
13.268	63.1974
13.286	63.2154
13.304	63.2266
13.322	63.2296
13.34	63.2236
13.358	63.2085
13.376	63.1856
13.394	63.1573
13.412	63.1271
13.43	63.0986
13.448	63.0748
13.466	63.0571
13.484	63.0458
13.502	63.0394
13.52	63.0352
13.538	63.0305
13.556	63.0226
13.574	63.0096
13.592	62.9909
13.61	62.9669
13.628	62.9388
13.646	62.9086
13.664	62.8784
13.682	62.8501
13.7	62.8248
13.718	62.8034
13.736	62.7857
13.754	62.7713
13.772	62.76
13.79	62.7515
13.808	62.7467
13.826	62.747
13.844	62.7543
13.862	62.7709
13.88	62.799
13.898	62.8396
13.916	62.8924
13.934	62.9546
13.952	63.0219
13.97	63.0882
13.988	63.1464
14.006	63.1902
14.024	63.2139
14.042	63.2149
14.06	63.1934
14.078	63.1528
14.096	63.0982
14.114	63.0367
14.132	62.9755
14.15	62.921
14.168	62.878
14.186	62.8488
14.204	62.8339
14.222	62.8315
14.24	62.8389
14.258	62.8527
14.276	62.8701
14.294	62.8889
14.312	62.9077
14.33	62.926
14.348	62.9439
14.366	62.9614
14.384	62.9789
14.402	62.9967
14.42	63.0149
14.438	63.0336
14.456	63.053
14.474	63.073
14.492	63.0939
14.51	63.1158
14.528	63.1387
14.546	63.1629
14.564	63.1888
14.582	63.2167
14.6	63.2472
14.618	63.2802
14.636	63.316
14.654	63.3541
14.672	63.3937
14.69	63.4338
14.708	63.4726
14.726	63.5083
14.744	63.5382
14.762	63.5602
14.78	63.5723
14.798	63.5725
14.816	63.5595
14.834	63.5322
14.852	63.4908
14.87	63.4365
14.888	63.3713
14.906	63.2984
14.924	63.2216
14.942	63.1457
14.96	63.0755
14.978	63.0151
14.996	62.9683
15.014	62.9378
15.032	62.925
15.05	62.9292
15.068	62.9483
15.086	62.9792
15.104	63.018
15.122	63.0592
15.14	63.098
15.158	63.1305
15.176	63.1533
15.194	63.164
15.212	63.1617
15.23	63.1472
15.248	63.1222
15.266	63.089
15.284	63.051
15.302	63.0112
15.32	62.9723
15.338	62.9363
15.356	62.9045
15.374	62.8777
15.392	62.855
15.41	62.8355
15.428	62.8173
15.446	62.7978
15.464	62.7749
15.482	62.7469
15.5	62.7122
15.518	62.6696
15.536	62.619
15.554	62.5612
15.572	62.4973
15.59	62.4304
15.608	62.3632
15.626	62.2984
15.644	62.2399
15.662	62.1916
15.68	62.156
15.698	62.1352
15.716	62.1309
15.734	62.1428
15.752	62.1699
15.77	62.2108
15.788	62.2617
15.806	62.3187
15.824	62.3781
15.842	62.435
15.86	62.4849
15.878	62.5252
15.896	62.5534
15.914	62.5688
15.932	62.5722
15.95	62.5648
15.968	62.5493
15.986	62.5298
16.004	62.5097
16.022	62.4927
16.04	62.4833
16.058	62.4838
16.076	62.4962
16.094	62.5222
16.112	62.5615
16.13	62.6135
16.148	62.6769
16.166	62.7489
16.184	62.8268
16.202	62.9079
16.22	62.9879
16.238	63.0644
16.256	63.1347
16.274	63.196
16.292	63.2475
16.31	63.2882
16.328	63.3187
16.346	63.3408
16.364	63.3558
16.382	63.3669
16.4	63.3768
16.418	63.3873
16.436	63.4012
16.454	63.4193
16.472	63.4422
16.49	63.4688
16.508	63.4961
16.526	63.5217
16.544	63.5403
16.562	63.5477
16.58	63.5404
16.598	63.5134
16.616	63.4655
16.634	63.3951
16.652	63.3032
16.67	63.1927
16.688	63.0661
16.706	62.9311
16.724	62.7923
16.742	62.6561
16.76	62.5301
16.778	62.4176
16.796	62.3241
16.814	62.2511
16.832	62.1996
16.85	62.1686
16.868	62.1552
16.886	62.1572
16.904	62.1687
16.922	62.1868
16.94	62.2072
16.958	62.2263
16.976	62.2429
16.994	62.2543
17.012	62.2615
17.03	62.2648
17.048	62.267
17.066	62.27
17.084	62.2769
17.102	62.2903
17.12	62.3115
17.138	62.3429
17.156	62.3848
17.174	62.4376
17.192	62.5001
17.21	62.5714
17.228	62.6489
17.246	62.7297
17.264	62.8118
17.282	62.8901
17.3	62.9628
17.318	63.0258
17.336	63.0768
17.354	63.114
17.372	63.1354
17.39	63.1407
17.408	63.1298
17.426	63.1043
17.444	63.0648
17.462	63.0154
17.48	62.9576
17.498	62.896
17.516	62.8335
17.534	62.773
17.552	62.7192
17.57	62.6736
17.588	62.6397
17.606	62.6183
17.624	62.6112
17.642	62.6174
17.66	62.6371
17.678	62.6681
17.696	62.7093
17.714	62.7569
17.732	62.8076
17.75	62.8582
17.768	62.903
17.786	62.9402
17.804	62.9635
17.822	62.972
17.84	62.9617
17.858	62.9326
17.876	62.8831
17.894	62.8156
17.912	62.7305
17.93	62.6331
17.948	62.5245
17.966	62.4128
17.984	62.3003
18.002	62.1946
18.02	62.0996
18.038	62.0201
18.056	61.9603
18.074	61.922
18.092	61.9077
18.11	61.9173
18.128	61.9498
18.146	62.0039
18.164	62.0757
18.182	62.1621
18.2	62.2589
18.218	62.3607
18.236	62.4644
18.254	62.5639
18.272	62.6576
18.29	62.7401
18.308	62.8108
18.326	62.8668
18.344	62.9085
18.362	62.9359
18.38	62.9501
18.398	62.9531
18.416	62.9467
18.434	62.9332
18.452	62.915
18.47	62.8941
18.488	62.8732
18.506	62.8536
18.524	62.8373
18.542	62.8249
18.56	62.8175
18.578	62.8153
18.596	62.818
18.614	62.8255
18.632	62.8371
18.65	62.8527
18.668	62.8707
18.686	62.891
18.704	62.9125
18.722	62.935
18.74	62.9573
18.758	62.979
18.776	62.9991
18.794	63.0173
18.812	63.0321
18.83	63.0433
18.848	63.0495
18.866	63.0502
18.884	63.044
18.902	63.0303
18.92	63.0076
18.938	62.976
18.956	62.9347
18.974	62.8844
18.992	62.8253
19.01	62.7591
19.028	62.6874
19.046	62.6124
19.064	62.537
19.082	62.4637
19.1	62.397
19.118	62.3385
19.136	62.293
19.154	62.2609
19.172	62.2462
19.19	62.2477
19.208	62.2665
19.226	62.3009
19.244	62.3484
19.262	62.4073
19.28	62.4707
19.298	62.538
19.316	62.5991
19.334	62.6544
19.352	62.6934
19.37	62.7166
19.388	62.7156
19.406	62.6906
19.424	62.6383
19.442	62.5579
19.46	62.4519
19.478	62.319
19.496	62.1664
19.514	61.9944
19.532	61.811
19.55	61.6193
19.568	61.4258
19.586	61.2377
19.604	61.0573
19.622	60.8934
19.64	60.7456
19.658	60.622
19.676	60.5212
19.694	60.4469
19.712	60.3986
19.73	60.3756
19.748	60.3784
19.766	60.4031
19.784	60.4499
19.802	60.5145
19.82	60.595
19.838	60.6892
19.856	60.7929
19.874	60.9058
19.892	61.0233
19.91	61.1458
19.928	61.2694
19.946	61.3946
19.964	61.5184
19.982	61.6408
20	61.76
20.018	61.8749
20.036	61.985
20.054	62.0886
20.072	62.186
20.09	62.2753
20.108	62.3568
20.126	62.4295
20.144	62.4932
20.162	62.5479
20.18	62.593
20.198	62.6293
20.216	62.6574
20.234	62.6775
20.252	62.6912
20.27	62.6982
20.288	62.7015
20.306	62.7011
20.324	62.6988
20.342	62.6959
20.36	62.6926
20.378	62.6908
20.396	62.6901
20.414	62.6911
20.432	62.694
20.45	62.6981
20.468	62.7034
20.486	62.7092
20.504	62.7144
20.522	62.7191
20.54	62.7216
20.558	62.7221
20.576	62.7197
20.594	62.7137
20.612	62.7046
20.63	62.6927
20.648	62.678
20.666	62.6618
20.684	62.6439
20.702	62.6258
20.72	62.6086
20.738	62.5924
20.756	62.5787
20.774	62.5674
20.792	62.5591
20.81	62.5544
20.828	62.5525
20.846	62.5532
20.864	62.5564
20.882	62.5598
20.9	62.5639
20.918	62.5666
20.936	62.5663
20.954	62.563
20.972	62.5538
20.99	62.5393
21.008	62.5177
21.026	62.4879
21.044	62.4505
21.062	62.4044
21.08	62.3498
21.098	62.2876
21.116	62.2175
21.134	62.1407
21.152	62.0591
21.17	61.9719
21.188	61.8827
21.206	61.7913
21.224	61.6992
21.242	61.6095
21.26	61.5212
21.278	61.4371
21.296	61.3576
21.314	61.2833
21.332	61.2158
21.35	61.1547
21.368	61.1002
21.386	61.0528
21.404	61.0119
21.422	60.9771
21.44	60.9486
21.458	60.9254
21.476	60.9069
21.494	60.8932
21.512	60.8832
21.53	60.8772
21.548	60.8748
21.566	60.8757
21.584	60.8799
21.602	60.8882
21.62	60.9002
21.638	60.9166
21.656	60.938
21.674	60.9641
21.692	60.996
21.71	61.034
21.728	61.078
21.746	61.1285
21.764	61.1857
21.782	61.2488
21.8	61.3178
21.818	61.3926
21.836	61.471
21.854	61.5536
21.872	61.6389
21.89	61.7236
21.908	61.8094
21.926	61.8923
21.944	61.9704
21.962	62.0445
21.98	62.1099
21.998	62.1667
22.016	62.2142
22.034	62.249
22.052	62.272
22.07	62.2824
22.088	62.2788
22.106	62.2619
22.124	62.2325
22.142	62.1902
22.16	62.1361
22.178	62.073
22.196	61.9997
22.214	61.9191
22.232	61.8345
22.25	61.7443
22.268	61.6529
22.286	61.5624
22.304	61.4718
22.322	61.3856
22.34	61.3043
22.358	61.2281
22.376	61.1601
22.394	61.1001
22.412	61.0484
22.43	61.0069
22.448	60.9749
22.466	60.9529
22.484	60.9416
22.502	60.9405
22.52	60.9499
22.538	60.9695
22.556	60.9995
22.574	61.0398
22.592	61.0904
22.61	61.1513
22.628	61.2223
22.646	61.3036
22.664	61.3948
22.682	61.4954
22.7	61.6058
22.718	61.7249
22.736	61.8515
22.754	61.9866
22.772	62.128
22.79	62.274
22.808	62.4258
22.826	62.5802
22.844	62.7353
22.862	62.8926
22.88	63.0472
22.898	63.1974
22.916	63.3445
22.934	63.4835
22.952	63.6131
22.97	63.7344
22.988	63.8428
23.006	63.9374
23.024	64.0192
23.042	64.0855
23.06	64.1355
23.078	64.1704
23.096	64.1907
23.114	64.1956
23.132	64.1863
23.15	64.1659
23.168	64.1332
23.186	64.0897
23.204	64.0406
23.222	63.9847
23.24	63.9234
23.258	63.8619
23.276	63.7993
23.294	63.7366
23.312	63.6782
23.33	63.6241
23.348	63.5742
23.366	63.5308
23.384	63.4943
23.402	63.464
23.42	63.4397
23.438	63.4222
23.456	63.4107
23.474	63.4026
23.492	63.3983
23.51	63.3976
23.528	63.3971
23.546	63.3964
23.564	63.3961
23.582	63.3928
23.6	63.3853
23.618	63.3747
23.636	63.359
23.654	63.3372
23.672	63.3101
23.69	63.2772
23.708	63.2379
23.726	63.1922
23.744	63.1413
23.762	63.0856
23.78	63.0242
23.798	62.9592
23.816	62.8923
23.834	62.8222
23.852	62.7508
23.87	62.681
23.888	62.6117
23.906	62.5439
23.924	62.4809
23.942	62.4226
23.96	62.3687
23.978	62.3221
23.996	62.2837
24.014	62.2524
24.032	62.2308
24.05	62.2207
24.068	62.2205
24.086	62.232
24.104	62.2568
24.122	62.2938
24.14	62.3437
24.158	62.4077
24.176	62.486
24.194	62.578
24.212	62.6829
24.23	62.8015
24.248	62.9334
24.266	63.0763
24.284	63.2294
24.302	63.3944
24.32	63.567
24.338	63.7432
24.356	63.9265
24.374	64.113
24.392	64.2966
24.41	64.4797
24.428	64.6611
24.446	64.8335
24.464	64.9949
24.482	65.1488
24.5	65.2874
24.518	65.4041
24.536	65.504
24.554	65.5828
24.572	65.634
24.59	65.658
24.608	65.6561
24.626	65.6257
24.644	65.5648
24.662	65.4747
24.68	65.357
24.698	65.2126
24.716	65.0392
24.734	64.8404
24.752	64.6219
24.77	64.3822
24.788	64.121
24.806	63.8467
24.824	63.5645
24.842	63.2684
24.86	62.9657
24.878	62.6657
24.896	62.3648
24.914	62.064
24.932	61.7721
24.95	61.4936
24.968	61.223
24.986	60.9664
25.004	60.7307
25.022	60.5132
25.04	60.3142
25.058	60.1375
25.076	59.9854
25.094	59.856
25.112	59.749
25.13	59.664
25.148	59.6021
25.166	59.562
25.184	59.5414
25.202	59.5396
25.22	59.5581
25.238	59.5939
25.256	59.6439
25.274	59.7097
25.292	59.7906
25.31	59.8838
25.328	59.9876
25.346	60.1038
25.364	60.2309
25.382	60.3673
25.4	60.5132
25.418	60.6688
25.436	60.8333
25.454	61.006
25.472	61.1875
25.49	61.3773
25.508	61.5747
25.526	61.7795
25.544	61.992
25.562	62.2119
25.58	62.439
25.598	62.6737
25.616	62.9156
25.634	63.1637
25.652	63.4176
25.67	63.6785
25.688	63.9444
25.706	64.2134
25.724	64.4866
25.742	64.7644
25.76	65.0424
25.778	65.3168
25.796	65.5908
25.814	65.8628
25.832	66.1276
25.85	66.3827
25.868	66.633
25.886	66.8729
25.904	67.0956
25.922	67.3006
25.94	67.4921
25.958	67.6623
25.976	67.8037
25.994	67.9207
26.012	68.013
26.03	68.0719
26.048	68.09
26.066	68.0737
26.084	68.0205
26.102	67.9237
26.12	67.7793
26.138	67.5926
26.156	67.3604
26.174	67.0786
26.192	66.7454
26.21	66.3632
26.228	65.9321
26.246	65.4517
26.264	64.9201
26.282	64.3382
26.3	63.7111
26.318	63.0432
26.336	62.331
26.354	61.5757
26.372	60.7842
26.39	59.9628
26.408	59.1022
26.426	58.2087
26.444	57.2958
26.462	56.3742
26.48	55.4298
26.498	54.4721
26.516	53.518
26.534	52.5783
26.552	51.6344
26.57	50.7016
26.588	49.8019
26.606	48.9475
26.624	48.1166
26.642	47.3273
26.66	46.6028
26.678	45.9546
26.696	45.3616
26.714	44.8404
26.732	44.412
26.75	44.0857
26.768	43.8439
26.786	43.6991
26.804	43.6667
26.822	43.7554
26.84	43.955
26.858	44.266
26.876	44.6898
26.894	45.231
26.912	45.8924
26.93	46.6605
26.948	47.521
26.966	48.5311
26.984	49.7971
27.002	51.0697
27.02	52.0769
27.028	52.3396