File: Bakgrunnsmateriale/MATLAB/FTIR/ftir_data/subAa/Mapping_121/BZ1503107-1_t29.asc
PE IR       SPECTRUM    SPECTRUM    ASCII       PEDS        1.60
  -1
BZ2D69~1.ASC
17/04/07
15:37:34.00
17/04/07
15:38:00.00
tln
$BZ1503107-1_t0029$<tbV0>[-2.6,-7.8,8.0,0.0,27,1,0]
27.028
64

2002,4.07
MIRTGS : RIGHTBACK : INTERNAL 2
MIR : ON : INTERNAL 2
OPTKBR

0.200000
8
8.000000
FILLER
RATIO
SPECTRUM
UNLOCKED 256

DOUBLE
64
COMBINED
1
0
0

0.002000
RATIO

1
0
TRUE
51149
0
LEFT NOT FITTED RIGHT NOT FITTED 0
NONE
NONE
15600
12
4.427000
51148
TRUE
1 0 8 72 0 0 0 0

15798

#HDR
-1
-1
#GR
µM
%T
2.38419e-05
0.0
2.000000
0.002000
12515
8
77.1468
49.761
#DATA
2.000000	 65.9522
2.018000	 64.2775
2.036000	 64.634
2.054000	 64.819
2.072000	 65.2136
2.090000	 65.0768
2.108000	 64.6746
2.126000	 65.1958
2.144000	 64.6858
2.162000	 64.7396
2.180000	 64.615
2.198000	 65.1045
2.216000	 65.3786
2.234000	 64.8894
2.252000	 66.1059
2.270000	 68.0393
2.288000	 65.0946
2.306000	 64.9141
2.324000	 65.1699
2.342000	 65.0189
2.360000	 65.0461
2.378000	 65.0979
2.396000	 64.9041
2.414000	 65.2024
2.432000	 64.9773
2.450000	 64.6048
2.468000	 65.0729
2.486000	 65.0266
2.504000	 65.0794
2.522000	 64.9767
2.540000	 64.899
2.558000	 65.5021
2.576000	 65.1326
2.594000	 65.2385
2.612000	 65.1611
2.630000	 65.3551
2.648000	 65.2414
2.666000	 65.064
2.684000	 65.2317
2.702000	 65.1707
2.720000	 65.1158
2.738000	 65.3651
2.756000	 65.1678
2.774000	 65.338
2.792000	 65.0298
2.810000	 65.1146
2.828000	 65.0199
2.846000	 65.2069
2.864000	 65.1093
2.882000	 65.1758
2.900000	 65.0197
2.918000	 65.0956
2.936000	 65.0626
2.954000	 65.3634
2.972000	 64.9256
2.990000	 65.0524
3.008000	 65.1419
3.026000	 64.9839
3.044000	 64.9836
3.062000	 65.0082
3.080000	 65.046
3.098000	 64.9837
3.116000	 65.0927
3.134000	 64.9353
3.152000	 65.1368
3.170000	 65.1129
3.188000	 65.0743
3.206000	 65.1402
3.224000	 64.971
3.242000	 64.9573
3.260000	 65.1027
3.278000	 65.0836
3.296000	 65.0859
3.314000	 65.0258
3.332000	 64.9616
3.350000	 65.0107
3.368000	 64.72
3.386000	 64.9535
3.404000	 64.8853
3.422000	 65.0446
3.440000	 64.9514
3.458000	 64.8923
3.476000	 64.8789
3.494000	 65.0819
3.512000	 64.9458
3.530000	 65.0339
3.548000	 64.9178
3.566000	 65.0986
3.584000	 65.1666
3.602000	 65.0914
3.620000	 65.115
3.638000	 65.1207
3.656000	 65.0001
3.674000	 65.0405
3.692000	 64.992
3.710000	 65.1151
3.728000	 65.0011
3.746000	 64.9834
3.764000	 65.1438
3.782000	 64.9064
3.800000	 64.9594
3.818000	 64.9711
3.836000	 64.9421
3.854000	 64.9958
3.872000	 64.9396
3.890000	 64.9472
3.908000	 64.9386
3.926000	 64.9225
3.944000	 64.9711
3.962000	 65.0456
3.980000	 65.0511
3.998000	 64.9844
4.016000	 64.8613
4.034000	 65.0053
4.052000	 64.8899
4.070000	 64.8592
4.088000	 64.882
4.106000	 65.0114
4.124000	 64.8991
4.141999	 64.9637
4.160000	 64.9291
4.178000	 65.0145
4.196000	 65.0291
4.214000	 64.7985
4.232000	 64.7418
4.250000	 64.9238
4.268000	 65.0283
4.286000	 64.9074
4.304000	 65.0256
4.322000	 64.9978
4.340000	 64.9545
4.358000	 64.8656
4.375999	 64.9154
4.394000	 64.8368
4.412000	 64.8209
4.430000	 64.8897
4.448000	 64.8609
4.466000	 64.8274
4.484000	 64.91
4.502000	 64.8484
4.520000	 64.8133
4.538000	 64.8235
4.556000	 64.951
4.574000	 64.8561
4.592000	 64.7752
4.609999	 64.774
4.628000	 64.7879
4.646000	 64.8503
4.664000	 64.816
4.682000	 64.7858
4.700000	 64.7868
4.718000	 64.7454
4.736000	 64.7972
4.754000	 64.7202
4.772000	 64.7616
4.790000	 64.8013
4.808000	 64.7839
4.826000	 64.8561
4.843999	 64.8277
4.862000	 64.7521
4.880000	 64.8575
4.898000	 64.7964
4.916000	 64.7044
4.934000	 64.777
4.952000	 64.7399
4.970000	 64.7292
4.988000	 64.8029
5.006000	 64.6612
5.024000	 64.608
5.042000	 64.7637
5.060000	 64.7679
5.077999	 64.8322
5.096000	 64.7816
5.114000	 64.7908
5.132000	 64.8434
5.150000	 64.7138
5.168000	 64.7784
5.186000	 64.7466
5.204000	 64.6429
5.222000	 64.6139
5.240000	 64.7121
5.258000	 64.7266
5.276000	 64.7298
5.294000	 64.7305
5.312000	 64.7384
5.330000	 64.6655
5.348000	 64.6829
5.366000	 64.6011
5.384000	 64.593
5.402000	 64.708
5.420000	 64.7477
5.438000	 64.7358
5.456000	 64.6123
5.474000	 64.6434
5.492000	 64.6298
5.510000	 64.6425
5.528000	 64.6981
5.546000	 64.7774
5.564000	 64.7649
5.582000	 64.6459
5.600000	 64.5731
5.618000	 64.5707
5.636000	 64.6477
5.654000	 64.576
5.672000	 64.4928
5.690000	 64.4167
5.708000	 64.4529
5.726000	 64.2848
5.744000	 64.0614
5.762000	 63.8918
5.780000	 63.9847
5.798000	 64.1961
5.816000	 64.2617
5.834000	 64.3598
5.852000	 64.4371
5.870000	 64.5357
5.888000	 64.6261
5.906000	 64.6116
5.923999	 64.576
5.942000	 64.4513
5.960000	 64.4342
5.978000	 64.5835
5.996000	 64.6255
6.014000	 64.5578
6.032000	 64.5011
6.050000	 64.4389
6.068000	 64.3402
6.086000	 64.3362
6.104000	 64.4537
6.122000	 64.4464
6.140000	 64.3783
6.158000	 64.3548
6.176000	 64.3054
6.194000	 64.3104
6.212000	 64.3759
6.230000	 64.4442
6.248000	 64.4081
6.266000	 64.3192
6.284000	 64.3856
6.302000	 64.4411
6.320000	 64.3766
6.338000	 64.3141
6.356000	 64.3262
6.374000	 64.4175
6.392000	 64.5185
6.410000	 64.5286
6.428000	 64.3926
6.446000	 64.234
6.464000	 64.2135
6.482000	 64.2912
6.500000	 64.3142
6.518000	 64.304
6.536000	 64.3253
6.554000	 64.3325
6.572000	 64.3436
6.590000	 64.4229
6.608000	 64.5
6.626000	 64.5194
6.644000	 64.4493
6.662000	 64.3528
6.680000	 64.3321
6.698000	 64.3656
6.716000	 64.3904
6.734000	 64.3625
6.752000	 64.3225
6.770000	 64.3249
6.788000	 64.3258
6.806000	 64.3089
6.824000	 64.2717
6.842000	 64.2054
6.860000	 64.2071
6.878000	 64.2867
6.896000	 64.2899
6.914000	 64.2531
6.932000	 64.3448
6.950000	 64.4909
6.968000	 64.4982
6.986000	 64.3818
7.004000	 64.3033
7.022000	 64.3111
7.040000	 64.3254
7.058000	 64.2967
7.076000	 64.2655
7.094000	 64.2913
7.112000	 64.3517
7.130000	 64.3743
7.148000	 64.3368
7.166000	 64.2459
7.184000	 64.1248
7.202000	 64.0482
7.220000	 64.0727
7.238000	 64.1659
7.256000	 64.2587
7.274000	 64.3174
7.292000	 64.3142
7.310000	 64.2385
7.328000	 64.162
7.346000	 64.1622
7.364000	 64.199
7.382000	 64.184
7.400000	 64.1297
7.418000	 64.1311
7.436000	 64.2078
7.454000	 64.2688
7.472000	 64.2439
7.490000	 64.1712
7.508000	 64.1326
7.526000	 64.1451
7.544000	 64.1513
7.562000	 64.1309
7.580000	 64.1341
7.598000	 64.1632
7.616000	 64.1548
7.634000	 64.1183
7.652000	 64.1315
7.670000	 64.1951
7.688000	 64.2378
7.706000	 64.2318
7.724000	 64.2006
7.742000	 64.17
7.760000	 64.1557
7.778000	 64.1539
7.796000	 64.1448
7.814000	 64.1333
7.832000	 64.1416
7.850000	 64.1615
7.868000	 64.1656
7.886000	 64.1524
7.904000	 64.1376
7.922000	 64.1137
7.940000	 64.0629
7.958000	 63.999
7.976000	 63.9584
7.994000	 63.9604
8.012000	 63.9998
8.030000	 64.0536
8.048000	 64.0841
8.065999	 64.0603
8.084000	 63.9921
8.102000	 63.9265
8.120000	 63.8968
8.138000	 63.897
8.155999	 63.9115
8.173999	 63.939
8.192000	 63.9812
8.210000	 64.0297
8.228000	 64.0705
8.246000	 64.0851
8.263999	 64.0622
8.282000	 64.0219
8.300000	 63.9981
8.318000	 63.995
8.336000	 63.993
8.353999	 63.9887
8.372000	 63.9909
8.390000	 63.9923
8.408000	 63.9784
8.426000	 63.9616
8.443999	 63.9694
8.462000	 63.9956
8.480000	 63.9969
8.498000	 63.9466
8.516000	 63.8685
8.533999	 63.8065
8.552000	 63.7798
8.570000	 63.7856
8.588000	 63.8147
8.606000	 63.8485
8.624000	 63.8608
8.641999	 63.8416
8.660000	 63.8106
8.678000	 63.7981
8.696000	 63.8209
8.714000	 63.8757
8.731999	 63.9432
8.750000	 63.9954
8.768000	 64.0135
8.786000	 64.0034
8.804000	 63.9847
8.821999	 63.9651
8.840000	 63.9351
8.858000	 63.8929
8.876000	 63.8594
8.894000	 63.8598
8.911999	 63.8947
8.930000	 63.9361
8.948000	 63.9566
8.966000	 63.9536
8.984000	 63.949
9.001999	 63.9653
9.020000	 64.0057
9.038000	 64.0518
9.056000	 64.0747
9.074000	 64.0557
9.092000	 64.0013
9.109999	 63.9424
9.128000	 63.9146
9.146000	 63.9337
9.164000	 63.9846
9.182000	 64.0344
9.199999	 64.0556
9.218000	 64.045
9.236000	 64.0217
9.254000	 64.0099
9.272000	 64.0175
9.289999	 64.0308
9.308000	 64.0316
9.326000	 64.0142
9.344000	 63.9858
9.362000	 63.9533
9.379999	 63.9178
9.398000	 63.8828
9.416000	 63.8619
9.434000	 63.8736
9.452000	 63.925
9.469999	 64.0005
9.488000	 64.0697
9.506000	 64.1066
9.524000	 64.1053
9.542000	 64.0799
9.560000	 64.0495
9.577999	 64.0251
9.596000	 64.0058
9.614000	 63.9862
9.632000	 63.9651
9.650000	 63.9481
9.667999	 63.9426
9.686000	 63.9521
9.704000	 63.9755
9.722000	 64.0095
9.740000	 64.0516
9.757999	 64.1007
9.776000	 64.154
9.794000	 64.2056
9.812000	 64.2463
9.830000	 64.266
9.847999	 64.2578
9.866000	 64.2193
9.884000	 64.1547
9.902000	 64.075
9.920000	 63.997
9.937999	 63.9383
9.956000	 63.9117
9.974000	 63.919
9.992000	 63.9514
10.01	63.9938
10.028	64.0332
10.046	64.0626
10.064	64.0807
10.082	64.0887
10.1	64.089
10.118	64.0859
10.136	64.0853
10.154	64.0915
10.172	64.1022
10.19	64.1075
10.208	64.0956
10.226	64.0615
10.244	64.0111
10.262	63.9579
10.28	63.914
10.298	63.8854
10.316	63.8725
10.334	63.8749
10.352	63.8935
10.37	63.9284
10.388	63.9737
10.406	64.0171
10.424	64.0463
10.442	64.058
10.46	64.0585
10.478	64.059
10.496	64.0661
10.514	64.0776
10.532	64.0843
10.55	64.0766
10.568	64.0511
10.586	64.0133
10.604	63.9747
10.622	63.9472
10.64	63.9366
10.658	63.9423
10.676	63.9581
10.694	63.979
10.712	64.0037
10.73	64.0359
10.748	64.0796
10.766	64.1332
10.784	64.1875
10.802	64.2274
10.82	64.2404
10.838	64.2235
10.856	64.1842
10.874	64.1374
10.892	64.0976
10.91	64.0749
10.928	64.0714
10.946	64.0821
10.964	64.0996
10.982	64.1167
11	64.129
11.018	64.1344
11.036	64.1324
11.054	64.1217
11.072	64.1018
11.09	64.0748
11.108	64.0465
11.126	64.0257
11.144	64.0192
11.162	64.0274
11.18	64.0431
11.198	64.0522
11.216	64.0418
11.234	64.0076
11.252	63.9583
11.27	63.9116
11.288	63.8879
11.306	63.8996
11.324	63.9457
11.342	64.0121
11.36	64.0792
11.378	64.1286
11.396	64.1525
11.414	64.1542
11.432	64.1458
11.45	64.1403
11.468	64.1465
11.486	64.1638
11.504	64.184
11.522	64.1943
11.54	64.1843
11.558	64.15
11.576	64.0972
11.594	64.039
11.612	63.9914
11.63	63.9676
11.648	63.9719
11.666	64
11.684	64.0393
11.702	64.0759
11.72	64.098
11.738	64.1002
11.756	64.0837
11.774	64.0545
11.792	64.0215
11.81	63.9927
11.828	63.9731
11.846	63.9638
11.864	63.9626
11.882	63.965
11.9	63.9654
11.918	63.9585
11.936	63.9417
11.954	63.915
11.972	63.8824
11.99	63.8511
12.008	63.8301
12.026	63.8284
12.044	63.852
12.062	63.9001
12.08	63.9642
12.098	64.0311
12.116	64.0855
12.134	64.1152
12.152	64.1157
12.17	64.0912
12.188	64.053
12.206	64.0153
12.224	63.9908
12.242	63.9863
12.26	64.0019
12.278	64.0308
12.296	64.063
12.314	64.0876
12.332	64.0971
12.35	64.0886
12.368	64.0644
12.386	64.0305
12.404	63.9955
12.422	63.9688
12.44	63.9577
12.458	63.9671
12.476	63.9982
12.494	64.0486
12.512	64.1119
12.53	64.1791
12.548	64.2403
12.566	64.2861
12.584	64.31
12.602	64.3095
12.62	64.2864
12.638	64.2459
12.656	64.1949
12.674	64.14
12.692	64.0862
12.71	64.0368
12.728	63.993
12.746	63.9554
12.764	63.9244
12.782	63.901
12.8	63.8864
12.818	63.8814
12.836	63.8856
12.854	63.8971
12.872	63.9121
12.89	63.9264
12.908	63.936
12.926	63.9387
12.944	63.9343
12.962	63.9248
12.98	63.9134
12.998	63.9035
13.016	63.8977
13.034	63.8969
13.052	63.9002
13.07	63.905
13.088	63.9075
13.106	63.9038
13.124	63.8907
13.142	63.8667
13.16	63.8318
13.178	63.7882
13.196	63.7399
13.214	63.6923
13.232	63.6503
13.25	63.618
13.268	63.5981
13.286	63.5908
13.304	63.5943
13.322	63.6049
13.34	63.6181
13.358	63.63
13.376	63.6383
13.394	63.6424
13.412	63.6435
13.43	63.6444
13.448	63.6481
13.466	63.6565
13.484	63.6703
13.502	63.6884
13.52	63.7085
13.538	63.7277
13.556	63.7437
13.574	63.7549
13.592	63.7613
13.61	63.7648
13.628	63.7686
13.646	63.7759
13.664	63.7894
13.682	63.8105
13.7	63.8385
13.718	63.8707
13.736	63.9025
13.754	63.9289
13.772	63.9447
13.79	63.9454
13.808	63.9279
13.826	63.8918
13.844	63.8386
13.862	63.7717
13.88	63.6955
13.898	63.6146
13.916	63.5328
13.934	63.4539
13.952	63.3803
13.97	63.3136
13.988	63.2543
14.006	63.2037
14.024	63.1635
14.042	63.1368
14.06	63.127
14.078	63.1379
14.096	63.172
14.114	63.23
14.132	63.31
14.15	63.4075
14.168	63.515
14.186	63.6241
14.204	63.7254
14.222	63.8115
14.24	63.8778
14.258	63.9235
14.276	63.9522
14.294	63.9698
14.312	63.984
14.33	64.0028
14.348	64.031
14.366	64.0714
14.384	64.1193
14.402	64.166
14.42	64.1986
14.438	64.2032
14.456	64.1677
14.474	64.0839
14.492	63.9498
14.51	63.7718
14.528	63.5647
14.546	63.3474
14.564	63.1405
14.582	62.9635
14.6	62.8323
14.618	62.7573
14.636	62.7416
14.654	62.7805
14.672	62.8644
14.69	62.981
14.708	63.1159
14.726	63.2547
14.744	63.3846
14.762	63.4961
14.78	63.5841
14.798	63.6466
14.816	63.6841
14.834	63.7005
14.852	63.7009
14.87	63.6906
14.888	63.6746
14.906	63.657
14.924	63.6405
14.942	63.6265
14.96	63.6145
14.978	63.6033
14.996	63.5917
15.014	63.578
15.032	63.5613
15.05	63.5416
15.068	63.5201
15.086	63.4983
15.104	63.4787
15.122	63.4644
15.14	63.4576
15.158	63.4597
15.176	63.4712
15.194	63.4914
15.212	63.5183
15.23	63.5489
15.248	63.5801
15.266	63.609
15.284	63.6329
15.302	63.6512
15.32	63.664
15.338	63.6725
15.356	63.6787
15.374	63.6855
15.392	63.6946
15.41	63.7073
15.428	63.7244
15.446	63.7446
15.464	63.7651
15.482	63.7827
15.5	63.7933
15.518	63.7928
15.536	63.7791
15.554	63.7506
15.572	63.7075
15.59	63.652
15.608	63.5877
15.626	63.5186
15.644	63.4498
15.662	63.3873
15.68	63.3347
15.698	63.2954
15.716	63.2715
15.734	63.2631
15.752	63.2692
15.77	63.2883
15.788	63.3169
15.806	63.3519
15.824	63.3905
15.842	63.4297
15.86	63.4671
15.878	63.5011
15.896	63.5306
15.914	63.5546
15.932	63.573
15.95	63.5856
15.968	63.5925
15.986	63.594
16.004	63.5901
16.022	63.581
16.04	63.5668
16.058	63.5473
16.076	63.5222
16.094	63.4912
16.112	63.4537
16.13	63.4096
16.148	63.3584
16.166	63.3007
16.184	63.2376
16.202	63.1704
16.22	63.1025
16.238	63.037
16.256	62.977
16.274	62.9281
16.292	62.8936
16.31	62.8767
16.328	62.881
16.346	62.907
16.364	62.9552
16.382	63.0237
16.4	63.1087
16.418	63.2074
16.436	63.3132
16.454	63.4212
16.472	63.5272
16.49	63.6256
16.508	63.7139
16.526	63.7903
16.544	63.8542
16.562	63.9068
16.58	63.9494
16.598	63.985
16.616	64.0155
16.634	64.0425
16.652	64.068
16.67	64.0915
16.688	64.1132
16.706	64.1315
16.724	64.145
16.742	64.1516
16.76	64.1497
16.778	64.1385
16.796	64.1165
16.814	64.0842
16.832	64.0418
16.85	63.9908
16.868	63.9329
16.886	63.8695
16.904	63.8039
16.922	63.7377
16.94	63.673
16.958	63.6125
16.976	63.5572
16.994	63.5092
17.012	63.4694
17.03	63.4383
17.048	63.4168
17.066	63.4048
17.084	63.4023
17.102	63.409
17.12	63.4245
17.138	63.4479
17.156	63.4785
17.174	63.5154
17.192	63.5569
17.21	63.6023
17.228	63.6498
17.246	63.6979
17.264	63.7459
17.282	63.7919
17.3	63.8355
17.318	63.8755
17.336	63.911
17.354	63.9415
17.372	63.9666
17.39	63.9863
17.408	64.0006
17.426	64.0095
17.444	64.013
17.462	64.0112
17.48	64.0042
17.498	63.9926
17.516	63.9769
17.534	63.9574
17.552	63.9351
17.57	63.9104
17.588	63.8843
17.606	63.8574
17.624	63.8305
17.642	63.8044
17.66	63.7794
17.678	63.7564
17.696	63.7355
17.714	63.7172
17.732	63.7016
17.75	63.6888
17.768	63.6792
17.786	63.6727
17.804	63.6695
17.822	63.6699
17.84	63.6741
17.858	63.6824
17.876	63.6949
17.894	63.7118
17.912	63.7333
17.93	63.7597
17.948	63.7908
17.966	63.8263
17.984	63.8657
18.002	63.9079
18.02	63.9516
18.038	63.9959
18.056	64.0384
18.074	64.0785
18.092	64.1131
18.11	64.1419
18.128	64.162
18.146	64.1731
18.164	64.1732
18.182	64.1625
18.2	64.1401
18.218	64.1066
18.236	64.0618
18.254	64.0072
18.272	63.9431
18.29	63.8718
18.308	63.7937
18.326	63.7115
18.344	63.6258
18.362	63.5397
18.38	63.454
18.398	63.3711
18.416	63.292
18.434	63.2187
18.452	63.1521
18.47	63.0931
18.488	63.0422
18.506	62.9999
18.524	62.9659
18.542	62.9404
18.56	62.922
18.578	62.9106
18.596	62.9046
18.614	62.9039
18.632	62.9067
18.65	62.9128
18.668	62.9214
18.686	62.9324
18.704	62.9451
18.722	62.9599
18.74	62.9772
18.758	62.9972
18.776	63.0209
18.794	63.0485
18.812	63.0814
18.83	63.1196
18.848	63.1641
18.866	63.2147
18.884	63.2721
18.902	63.3357
18.92	63.4054
18.938	63.4804
18.956	63.5598
18.974	63.6426
18.992	63.7271
19.01	63.8123
19.028	63.8965
19.046	63.9784
19.064	64.0563
19.082	64.1295
19.1	64.1961
19.118	64.2559
19.136	64.3073
19.154	64.3502
19.172	64.3839
19.19	64.4082
19.208	64.4229
19.226	64.428
19.244	64.4237
19.262	64.4102
19.28	64.3881
19.298	64.3576
19.316	64.32
19.334	64.2754
19.352	64.2255
19.37	64.1702
19.388	64.1121
19.406	64.0511
19.424	63.9896
19.442	63.9276
19.46	63.8671
19.478	63.8084
19.496	63.7527
19.514	63.7004
19.532	63.6523
19.55	63.6088
19.568	63.5702
19.586	63.5368
19.604	63.5086
19.622	63.4856
19.64	63.4676
19.658	63.4544
19.676	63.4459
19.694	63.4415
19.712	63.4413
19.73	63.4445
19.748	63.4512
19.766	63.4605
19.784	63.4724
19.802	63.4859
19.82	63.5007
19.838	63.5161
19.856	63.5309
19.874	63.5452
19.892	63.5573
19.91	63.5675
19.928	63.5742
19.946	63.5777
19.964	63.577
19.982	63.5721
20	63.5629
20.018	63.5491
20.036	63.5311
20.054	63.5093
20.072	63.484
20.09	63.4563
20.108	63.4261
20.126	63.3952
20.144	63.3634
20.162	63.3321
20.18	63.3018
20.198	63.2727
20.216	63.2457
20.234	63.2206
20.252	63.1977
20.27	63.1769
20.288	63.1575
20.306	63.1395
20.324	63.1222
20.342	63.1049
20.36	63.0876
20.378	63.0695
20.396	63.0506
20.414	63.0311
20.432	63.0106
20.45	62.9902
20.468	62.9699
20.486	62.9503
20.504	62.9331
20.522	62.9178
20.54	62.9072
20.558	62.9009
20.576	62.9004
20.594	62.9067
20.612	62.9196
20.63	62.9402
20.648	62.9682
20.666	63.0027
20.684	63.0442
20.702	63.0906
20.72	63.1411
20.738	63.1949
20.756	63.2482
20.774	63.3019
20.792	63.3518
20.81	63.3975
20.828	63.4372
20.846	63.468
20.864	63.4906
20.882	63.5023
20.9	63.5031
20.918	63.4931
20.936	63.4716
20.954	63.4393
20.972	63.3981
20.99	63.3473
21.008	63.2904
21.026	63.2281
21.044	63.1615
21.062	63.0948
21.08	63.0268
21.098	62.9619
21.116	62.901
21.134	62.8448
21.152	62.7965
21.17	62.7553
21.188	62.7232
21.206	62.7008
21.224	62.6877
21.242	62.6844
21.26	62.6908
21.278	62.7057
21.296	62.7294
21.314	62.7606
21.332	62.7973
21.35	62.8402
21.368	62.8863
21.386	62.9352
21.404	62.9859
21.422	63.0355
21.44	63.0848
21.458	63.1311
21.476	63.1731
21.494	63.2111
21.512	63.2423
21.53	63.2673
21.548	63.285
21.566	63.2941
21.584	63.2951
21.602	63.2874
21.62	63.2707
21.638	63.2455
21.656	63.2118
21.674	63.1696
21.692	63.1203
21.71	63.0637
21.728	63.0004
21.746	62.9323
21.764	62.8587
21.782	62.7813
21.8	62.7016
21.818	62.619
21.836	62.5361
21.854	62.4528
21.872	62.3697
21.89	62.2893
21.908	62.2107
21.926	62.1356
21.944	62.0653
21.962	61.9992
21.98	61.9395
21.998	61.886
22.016	61.8392
22.034	61.8001
22.052	61.7684
22.07	61.7448
22.088	61.7299
22.106	61.7233
22.124	61.7255
22.142	61.7367
22.16	61.7567
22.178	61.7852
22.196	61.8227
22.214	61.8682
22.232	61.9211
22.25	61.9817
22.268	62.0486
22.286	62.121
22.304	62.1992
22.322	62.2807
22.34	62.3656
22.358	62.4532
22.376	62.5403
22.394	62.6282
22.412	62.7148
22.43	62.7972
22.448	62.8768
22.466	62.9511
22.484	63.0179
22.502	63.0783
22.52	63.13
22.538	63.1716
22.556	63.2039
22.574	63.2255
22.592	63.2358
22.61	63.2355
22.628	63.2244
22.646	63.2022
22.664	63.1698
22.682	63.1283
22.7	63.0769
22.718	63.0173
22.736	62.9514
22.754	62.8781
22.772	62.7999
22.79	62.7192
22.808	62.6344
22.826	62.5488
22.844	62.4642
22.862	62.3793
22.88	62.2976
22.898	62.2206
22.916	62.1472
22.934	62.0801
22.952	62.0202
22.97	61.9667
22.988	61.9213
23.006	61.8846
23.024	61.8561
23.042	61.8356
23.06	61.8235
23.078	61.8193
23.096	61.8215
23.114	61.8307
23.132	61.846
23.15	61.8648
23.168	61.8875
23.186	61.9134
23.204	61.9394
23.222	61.966
23.24	61.9926
23.258	62.0157
23.276	62.0361
23.294	62.0532
23.312	62.0641
23.33	62.0691
23.348	62.068
23.366	62.0593
23.384	62.0426
23.402	62.0184
23.42	61.9867
23.438	61.947
23.456	61.8998
23.474	61.8462
23.492	61.7859
23.51	61.7192
23.528	61.6479
23.546	61.5723
23.564	61.492
23.582	61.4091
23.6	61.3242
23.618	61.2368
23.636	61.1485
23.654	61.0602
23.672	60.9712
23.69	60.8826
23.708	60.7956
23.726	60.7092
23.744	60.6245
23.762	60.5422
23.78	60.4616
23.798	60.3835
23.816	60.3087
23.834	60.2366
23.852	60.1679
23.87	60.1037
23.888	60.0432
23.906	59.9872
23.924	59.937
23.942	59.8923
23.96	59.8532
23.978	59.8212
23.996	59.7967
24.014	59.779
24.032	59.7699
24.05	59.7702
24.068	59.7793
24.086	59.7978
24.104	59.8266
24.122	59.8655
24.14	59.9142
24.158	59.9724
24.176	60.0408
24.194	60.1185
24.212	60.2032
24.23	60.2958
24.248	60.3961
24.266	60.4996
24.284	60.6044
24.302	60.713
24.32	60.8206
24.338	60.9223
24.356	61.0218
24.374	61.1157
24.392	61.1982
24.41	61.2704
24.428	61.3325
24.446	61.3806
24.464	61.4129
24.482	61.4312
24.5	61.4344
24.518	61.4209
24.536	61.3906
24.554	61.3454
24.572	61.2878
24.59	61.2158
24.608	61.1308
24.626	61.038
24.644	60.9385
24.662	60.8295
24.68	60.718
24.698	60.6099
24.716	60.5001
24.734	60.3934
24.752	60.2984
24.77	60.2148
24.788	60.1408
24.806	60.0834
24.824	60.0475
24.842	60.029
24.86	60.0307
24.878	60.0562
24.896	60.1059
24.914	60.1784
24.932	60.2727
24.95	60.3893
24.968	60.5291
24.986	60.6884
25.004	60.8632
25.022	61.058
25.04	61.2689
25.058	61.4875
25.076	61.7114
25.094	61.9461
25.112	62.1813
25.13	62.4066
25.148	62.6284
25.166	62.8435
25.184	63.0413
25.202	63.2173
25.22	63.378
25.238	63.5163
25.256	63.6247
25.274	63.7046
25.292	63.7575
25.31	63.7819
25.328	63.7758
25.346	63.7387
25.364	63.6755
25.382	63.5909
25.4	63.4807
25.418	63.3469
25.436	63.2002
25.454	63.0477
25.472	62.88
25.49	62.7066
25.508	62.5406
25.526	62.3834
25.544	62.2287
25.562	62.0886
25.58	61.9742
25.598	61.8798
25.616	61.8065
25.634	61.7615
25.652	61.7498
25.67	61.7675
25.688	61.8148
25.706	61.8923
25.724	62.0028
25.742	62.145
25.76	62.3123
25.778	62.4989
25.796	62.7128
25.814	62.9479
25.832	63.191
25.85	63.4349
25.868	63.6914
25.886	63.9482
25.904	64.1898
25.922	64.4145
25.94	64.631
25.958	64.8247
25.976	64.9806
25.994	65.1034
26.012	65.1952
26.03	65.2468
26.048	65.2497
26.066	65.2068
26.084	65.1205
26.102	64.9915
26.12	64.8185
26.138	64.5974
26.156	64.3374
26.174	64.0489
26.192	63.7328
26.21	63.3812
26.228	63.0087
26.246	62.6307
26.264	62.2429
26.282	61.84
26.3	61.441
26.318	61.0642
26.336	60.7004
26.354	60.3488
26.372	60.0258
26.39	59.7464
26.408	59.4995
26.426	59.2879
26.444	59.1239
26.462	59.0179
26.48	58.9628
26.498	58.959
26.516	59.0108
26.534	59.1219
26.552	59.2904
26.57	59.5146
26.588	59.7928
26.606	60.1249
26.624	60.5141
26.642	60.9549
26.66	61.4411
26.678	61.9703
26.696	62.5491
26.714	63.1695
26.732	63.8224
26.75	64.5033
26.768	65.2193
26.786	65.9651
26.804	66.7344
26.822	67.5259
26.84	68.3462
26.858	69.1863
26.876	70.0357
26.894	70.8919
26.912	71.7658
26.93	72.6439
26.948	73.5114
26.966	74.3935
26.984	75.3514
27.002	76.2539
27.02	76.9571
27.028	77.1468