File: Bakgrunnsmateriale/MATLAB/FTIR/ftir_data/subAa/Mapping_121/BZ1503107-1_t78_cm-1.asc
PE IR       SPECTRUM    SPECTRUM    ASCII       PEDS        1.60
  -1
BZ60B6~1.ASC
17/04/07
19:39:28.00
17/04/07
19:39:28.00
tln
$BZ1503107-1_t0078$<tbV0>[13.0,5.2,8.0,0.0,27,1,0]
370
64

2002,4.07
MIRTGS : RIGHTBACK : INTERNAL 2
MIR : ON : INTERNAL 2
OPTKBR

0.200000
8
8.000000
FILLER
RATIO
SPECTRUM
UNLOCKED 256

DOUBLE
64
COMBINED
1
0
0

1.000000
RATIO

1
0
TRUE
51149
0
LEFT NOT FITTED RIGHT NOT FITTED 0
NONE
NONE
15600
12
4.427000
51148
TRUE
1 0 8 72 0 0 0 0

15798

#HDR
-1
-1
#GR
CM-1
%T
2.38419e-05
0.0
5000
-1.000000
4631
8
80.4742
57.0446
#DATA
5000	61.636
4996	61.7894
4992	60.501
4988	59.4864
4984	59.5817
4980	59.7476
4976	59.4067
4972	58.9592
4968	59.1235
4964	59.7
4960	60.0187
4956	60.1945
4952	60.4538
4948	60.3997
4944	60.0931
4940	59.7939
4936	59.5359
4932	59.5682
4928	59.6948
4924	59.9171
4920	60.1752
4916	60.0076
4912	59.8328
4908	60.0032
4904	60.1759
4900	60.2606
4896	60.3997
4892	60.4452
4888	60.468
4884	60.6858
4880	60.7548
4876	60.5137
4872	60.3962
4868	60.6056
4864	60.6235
4860	60.3862
4856	60.4356
4852	60.6776
4848	60.7492
4844	60.8073
4840	60.9913
4836	61.041
4832	60.8474
4828	60.5673
4824	60.3983
4820	60.4233
4816	60.5924
4812	60.5864
4808	60.3674
4804	60.2792
4800	60.1498
4796	60.0933
4792	60.4263
4788	60.656
4784	60.5664
4780	60.5439
4776	60.6512
4772	60.7701
4768	60.7697
4764	60.6154
4760	60.3881
4756	60.151
4752	60.2213
4748	60.5514
4744	60.663
4740	60.4639
4736	60.3715
4732	60.6274
4728	60.845
4724	60.8815
4720	60.8006
4716	60.5314
4712	60.3474
4708	60.325
4704	60.3179
4700	60.3463
4696	60.3579
4692	60.2556
4688	60.1343
4684	60.2005
4680	60.4348
4676	60.5415
4672	60.5419
4668	60.6721
4664	60.6687
4660	60.4086
4656	60.2051
4652	60.1496
4648	60.152
4644	60.2645
4640	60.5219
4636	60.7675
4632	60.8598
4628	60.7626
4624	60.599
4620	60.5742
4616	60.6249
4612	60.5236
4608	60.3862
4604	60.4521
4600	60.6487
4596	60.8564
4592	60.8343
4588	60.5321
4584	60.4079
4580	60.5294
4576	60.5583
4572	60.3385
4568	60.2376
4564	60.401
4560	60.3594
4556	60.1747
4552	60.1129
4548	60.1763
4544	60.3136
4540	60.3624
4536	60.4208
4532	60.4418
4528	60.3554
4524	60.4485
4520	60.7374
4516	60.8862
4512	60.7945
4508	60.6741
4504	60.5237
4500	60.3524
4496	60.3695
4492	60.5407
4488	60.6689
4484	60.5268
4480	60.2714
4476	60.2829
4472	60.1733
4468	59.7687
4464	59.2188
4460	58.6528
4456	58.6366
4452	59.8961
4448	59.6937
4444	57.5835
4440	60.5765
4436	71.7926
4432	80.4742
4428	72.1875
4424	59.3793
4420	57.5523
4416	61.7334
4412	63.9729
4408	62.3687
4404	60.2741
4400	59.7868
4396	60.192
4392	60.0483
4388	59.7949
4384	59.985
4380	60.3419
4376	60.342
4372	60.3706
4368	60.5968
4364	60.7092
4360	60.8972
4356	60.9744
4352	60.8037
4348	60.7863
4344	61.0152
4340	61.1068
4336	60.8767
4332	60.6019
4328	60.6093
4324	60.8968
4320	61.0363
4316	60.8607
4312	60.7449
4308	60.7903
4304	60.9009
4300	61.0689
4296	61.1566
4292	61.1663
4288	61.1728
4284	61.1113
4280	61.0729
4276	61.1051
4272	61.0201
4268	60.8175
4264	60.7126
4260	60.8875
4256	61.2021
4252	61.3422
4248	61.2732
4244	61.1755
4240	61.253
4236	61.3482
4232	61.1856
4228	61.0327
4224	61.2233
4220	61.4079
4216	61.2482
4212	60.98
4208	60.8004
4204	60.8163
4200	60.9633
4196	61.0221
4192	61.0507
4188	61.1527
4184	61.3079
4180	61.4429
4176	61.476
4172	61.3811
4168	61.2857
4164	61.2624
4160	61.241
4156	61.2659
4152	61.2511
4148	61.1715
4144	61.2709
4140	61.4603
4136	61.4649
4132	61.4153
4128	61.4784
4124	61.4604
4120	61.3238
4116	61.2552
4112	61.3446
4108	61.4985
4104	61.551
4100	61.5796
4096	61.6437
4092	61.6014
4088	61.455
4084	61.2898
4080	61.2242
4076	61.3218
4072	61.3939
4068	61.3988
4064	61.447
4060	61.5186
4056	61.5997
4052	61.6364
4048	61.519
4044	61.309
4040	61.2722
4036	61.45
4032	61.5619
4028	61.5324
4024	61.4537
4020	61.3352
4016	61.3024
4012	61.3962
4008	61.483
4004	61.502
4000	61.3956
3996	61.2536
3992	61.2594
3988	61.3521
3984	61.4266
3980	61.464
3976	61.467
3972	61.4944
3968	61.5694
3964	61.6118
3960	61.5071
3956	61.3585
3952	61.4853
3948	61.7563
3944	61.7805
3940	61.7043
3936	61.6214
3932	61.3953
3928	61.2603
3924	61.3408
3920	61.3781
3916	61.3536
3912	61.3668
3908	61.3894
3904	61.5338
3900	61.7614
3896	61.8275
3892	61.6853
3888	61.4498
3884	61.2817
3880	61.2942
3876	61.448
3872	61.6653
3868	61.7904
3864	61.7399
3860	61.6586
3856	61.5804
3852	61.446
3848	61.3721
3844	61.4802
3840	61.5905
3836	61.5159
3832	61.409
3828	61.4308
3824	61.4997
3820	61.5472
3816	61.6493
3812	61.7415
3808	61.7283
3804	61.7273
3800	61.7939
3796	61.8471
3792	61.8651
3788	61.8721
3784	61.8587
3780	61.8401
3776	61.7834
3772	61.6665
3768	61.5875
3764	61.6054
3760	61.6683
3756	61.6774
3752	61.7014
3748	61.7875
3744	61.821
3740	61.8158
3736	61.8336
3732	61.856
3728	61.8418
3724	61.8227
3720	61.8588
3716	61.8639
3712	61.8123
3708	61.8453
3704	62.0002
3700	62.1445
3696	62.1484
3692	62.0362
3688	61.954
3684	61.933
3680	61.9143
3676	61.9432
3672	62.0035
3668	61.9762
3664	61.8996
3660	61.9263
3656	62.0445
3652	62.0603
3648	61.9363
3644	61.8651
3640	61.931
3636	62.0178
3632	62.0536
3628	62.0065
3624	61.8891
3620	61.8782
3616	61.9809
3612	62.0417
3608	62.0364
3604	61.9649
3600	61.9661
3596	62.1267
3592	62.1915
3588	62.1362
3584	62.1026
3580	62.0303
3576	61.9557
3572	61.9662
3568	62.0159
3564	62.0401
3560	61.9706
3556	61.8891
3552	61.9475
3548	62.0051
3544	62.0327
3540	62.1407
3536	62.2338
3532	62.2167
3528	62.0754
3524	61.9479
3520	61.9553
3516	61.997
3512	61.9951
3508	62.0334
3504	62.1286
3500	62.1064
3496	61.9788
3492	61.979
3488	62.0917
3484	62.0536
3480	61.9436
3476	62.0077
3472	62.1082
3468	62.1335
3464	62.1284
3460	62.0761
3456	62.0744
3452	62.2029
3448	62.3357
3444	62.3158
3440	62.1213
3436	61.914
3432	61.9019
3428	62.0336
3424	62.099
3420	62.1087
3416	62.0662
3412	61.9633
3408	61.9755
3404	62.0597
3400	62.1246
3396	62.1913
3392	62.2037
3388	62.1758
3384	62.1634
3380	62.2026
3376	62.2703
3372	62.3037
3368	62.3009
3364	62.2461
3360	62.1725
3356	62.1504
3352	62.1141
3348	62.0978
3344	62.1602
3340	62.226
3336	62.2846
3332	62.349
3328	62.4074
3324	62.3536
3320	62.2068
3316	62.1783
3312	62.288
3308	62.379
3304	62.4053
3300	62.3918
3296	62.3158
3292	62.2174
3288	62.1625
3284	62.173
3280	62.2094
3276	62.2439
3272	62.2685
3268	62.2848
3264	62.2923
3260	62.2738
3256	62.2794
3252	62.296
3248	62.2934
3244	62.2519
3240	62.2406
3236	62.3632
3232	62.4535
3228	62.4179
3224	62.413
3220	62.4419
3216	62.4073
3212	62.4233
3208	62.4866
3204	62.3686
3200	62.2126
3196	62.2971
3192	62.4723
3188	62.5503
3184	62.5322
3180	62.4691
3176	62.4753
3172	62.4941
3168	62.4217
3164	62.4096
3160	62.4692
3156	62.4642
3152	62.4999
3148	62.5963
3144	62.6188
3140	62.5559
3136	62.4333
3132	62.3189
3128	62.2959
3124	62.3776
3120	62.5093
3116	62.5794
3112	62.539
3108	62.4466
3104	62.4197
3100	62.4737
3096	62.4536
3092	62.3503
3088	62.2916
3084	62.3007
3080	62.3626
3076	62.4028
3072	62.4058
3068	62.4541
3064	62.5371
3060	62.5955
3056	62.5837
3052	62.5646
3048	62.6004
3044	62.6083
3040	62.5492
3036	62.4315
3032	62.3063
3028	62.2839
3024	62.3981
3020	62.5246
3016	62.5311
3012	62.5155
3008	62.5905
3004	62.6308
3000	62.533
2996	62.4806
2992	62.5246
2988	62.4601
2984	62.343
2980	62.3571
2976	62.4226
2972	62.4367
2968	62.4714
2964	62.4967
2960	62.4521
2956	62.419
2952	62.4122
2948	62.418
2944	62.4547
2940	62.4927
2936	62.4939
2932	62.4821
2928	62.4705
2924	62.4616
2920	62.4902
2916	62.5009
2912	62.5061
2908	62.5283
2904	62.5206
2900	62.5808
2896	62.6678
2892	62.6214
2888	62.5515
2884	62.5341
2880	62.5434
2876	62.5987
2872	62.5906
2868	62.5136
2864	62.4805
2860	62.4856
2856	62.5469
2852	62.6138
2848	62.5922
2844	62.574
2840	62.5906
2836	62.5785
2832	62.5698
2828	62.6009
2824	62.6426
2820	62.6623
2816	62.6735
2812	62.6944
2808	62.7099
2804	62.679
2800	62.6221
2796	62.602
2792	62.674
2788	62.7931
2784	62.8272
2780	62.7843
2776	62.7514
2772	62.7567
2768	62.78
2764	62.8122
2760	62.8689
2756	62.91
2752	62.8725
2748	62.7937
2744	62.7763
2740	62.802
2736	62.8011
2732	62.8023
2728	62.8273
2724	62.8493
2720	62.8114
2716	62.7216
2712	62.6888
2708	62.7492
2704	62.8237
2700	62.8338
2696	62.8057
2692	62.8019
2688	62.8223
2684	62.846
2680	62.821
2676	62.7621
2672	62.76
2668	62.7716
2664	62.7532
2660	62.7415
2656	62.7607
2652	62.7829
2648	62.7612
2644	62.7437
2640	62.7557
2636	62.7319
2632	62.7317
2628	62.8397
2624	62.9296
2620	62.8928
2616	62.8216
2612	62.813
2608	62.8135
2604	62.7839
2600	62.7801
2596	62.8167
2592	62.8267
2588	62.7819
2584	62.7894
2580	62.8637
2576	62.8952
2572	62.8844
2568	62.8776
2564	62.8496
2560	62.806
2556	62.7705
2552	62.7304
2548	62.7295
2544	62.7747
2540	62.8128
2536	62.8641
2532	62.9368
2528	62.9929
2524	63.013
2520	63.0108
2516	63.0006
2512	62.9724
2508	62.9829
2504	63.0486
2500	63.0627
2496	63.0205
2492	62.9845
2488	62.9621
2484	62.9699
2480	63.0169
2476	63.0544
2472	63.0267
2468	63.0054
2464	63.0365
2460	63.0509
2456	63.0266
2452	62.9889
2448	63.0075
2444	63.0401
2440	63.0037
2436	62.9625
2432	62.9774
2428	63.0062
2424	62.9725
2420	62.9288
2416	62.9527
2412	62.9925
2408	62.9729
2404	62.9587
2400	63.0296
2396	63.057
2392	63.005
2388	62.9825
2384	62.9585
2380	62.9003
2376	62.8921
2372	62.9643
2368	63.0021
2364	62.9717
2360	62.9586
2356	62.9125
2352	62.8375
2348	62.8399
2344	62.9003
2340	62.9887
2336	63.0564
2332	63.0521
2328	63.025
2324	63.0206
2320	63.0306
2316	63.07
2312	63.1226
2308	63.121
2304	63.083
2300	63.0302
2296	62.9893
2292	63.0113
2288	63.0481
2284	63.0426
2280	63.0468
2276	63.0932
2272	63.131
2268	63.1432
2264	63.1216
2260	63.0869
2256	63.0865
2252	63.0991
2248	63.0918
2244	63.0567
2240	63.0213
2236	63.053
2232	63.1413
2228	63.2
2224	63.1862
2220	63.1262
2216	63.059
2212	63.0171
2208	62.9921
2204	62.9644
2200	62.9857
2196	63.0464
2192	63.0687
2188	63.0338
2184	62.9957
2180	62.9868
2176	62.9831
2172	63.003
2168	63.0558
2164	63.1003
2160	63.1053
2156	63.097
2152	63.0829
2148	63.0343
2144	63.0033
2140	63.0114
2136	63.0356
2132	63.0769
2128	63.0972
2124	63.0496
2120	62.989
2116	63.0358
2112	63.158
2108	63.2191
2104	63.1829
2100	63.1026
2096	63.0482
2092	63.0424
2088	63.0511
2084	63.079
2080	63.116
2076	63.105
2072	63.0741
2068	63.0771
2064	63.0823
2060	63.0889
2056	63.1314
2052	63.1712
2048	63.184
2044	63.1857
2040	63.186
2036	63.1861
2032	63.187
2028	63.1776
2024	63.1592
2020	63.1794
2016	63.203
2012	63.1747
2008	63.1417
2004	63.108
2000	63.0372
1996	62.9975
1992	63.0438
1988	63.091
1984	63.1003
1980	63.1428
1976	63.1776
1972	63.1702
1968	63.1958
1964	63.2066
1960	63.1774
1956	63.1699
1952	63.1515
1948	63.1192
1944	63.1212
1940	63.1189
1936	63.0797
1932	63.0601
1928	63.0842
1924	63.1302
1920	63.168
1916	63.1424
1912	63.0792
1908	63.0591
1904	63.103
1900	63.1485
1896	63.1403
1892	63.1649
1888	63.2289
1884	63.2231
1880	63.1531
1876	63.1102
1872	63.1338
1868	63.1513
1864	63.1611
1860	63.1922
1856	63.1981
1852	63.2091
1848	63.2285
1844	63.1968
1840	63.1347
1836	63.0965
1832	63.1026
1828	63.1217
1824	63.1417
1820	63.1967
1816	63.2326
1812	63.2077
1808	63.1975
1804	63.2256
1800	63.2124
1796	63.1478
1792	63.1228
1788	63.1508
1784	63.1662
1780	63.1522
1776	63.1555
1772	63.1895
1768	63.185
1764	63.1608
1760	63.1855
1756	63.1207
1752	62.9437
1748	62.8457
1744	62.8328
1740	62.8252
1736	62.8195
1732	62.8708
1728	62.9671
1724	62.9877
1720	62.9629
1716	63.0142
1712	63.0845
1708	63.1093
1704	63.1523
1700	63.2228
1696	63.2562
1692	63.2475
1688	63.2513
1684	63.2463
1680	63.1652
1676	63.0651
1672	63.0716
1668	63.152
1664	63.1977
1660	63.2145
1656	63.182
1652	63.0807
1648	62.9966
1644	62.9723
1640	62.956
1636	62.9097
1632	62.9331
1628	63.067
1624	63.163
1620	63.1772
1616	63.184
1612	63.1612
1608	63.1204
1604	63.1651
1600	63.2557
1596	63.2287
1592	63.121
1588	63.1298
1584	63.213
1580	63.2679
1576	63.3067
1572	63.2511
1568	63.1169
1564	63.081
1560	63.1676
1556	63.181
1552	63.1052
1548	63.1005
1544	63.1875
1540	63.2689
1536	63.2616
1532	63.2213
1528	63.2356
1524	63.2471
1520	63.1925
1516	63.203
1512	63.3172
1508	63.4043
1504	63.3751
1500	63.2439
1496	63.1694
1492	63.2058
1488	63.2534
1484	63.2823
1480	63.2562
1476	63.1858
1472	63.1314
1468	63.0789
1464	63.0022
1460	62.9746
1456	63.0118
1452	63.0692
1448	63.1018
1444	63.0608
1440	63.0076
1436	63.0526
1432	63.1579
1428	63.2284
1424	63.2374
1420	63.1614
1416	63.1129
1412	63.1207
1408	63.0943
1404	63.0911
1400	63.0883
1396	63.0726
1392	63.112
1388	63.114
1384	63.0501
1380	63.0339
1376	63.0679
1372	63.0785
1368	63.0391
1364	63.0409
1360	63.0862
1356	63.0654
1352	63.0337
1348	63.0722
1344	63.1232
1340	63.1587
1336	63.1941
1332	63.2032
1328	63.2216
1324	63.2354
1320	63.1857
1316	63.1306
1312	63.1032
1308	63.0755
1304	63.1405
1300	63.2522
1296	63.1922
1292	63.074
1288	63.0549
1284	63.0263
1280	63.0003
1276	63.0356
1272	63.04
1268	62.9849
1264	62.9398
1260	62.9637
1256	63.0423
1252	63.092
1248	63.0949
1244	63.0997
1240	63.0959
1236	63.0542
1232	63.0312
1228	63.1125
1224	63.21
1220	63.161
1216	63.0337
1212	63.0072
1208	63.0521
1204	63.0398
1200	63.0546
1196	63.1354
1192	63.1429
1188	63.1047
1184	63.1034
1180	63.0785
1176	62.9909
1172	62.9174
1168	62.9301
1164	63.016
1160	63.0825
1156	63.0898
1152	63.1385
1148	63.1734
1144	63.094
1140	63.0252
1136	63.0426
1132	63.0814
1128	63.0888
1124	63.0909
1120	63.0605
1116	62.9907
1112	62.9502
1108	62.9102
1104	62.8669
1100	62.8673
1096	62.9485
1092	63.0832
1088	63.1857
1084	63.1712
1080	63.0472
1076	63.0075
1072	63.1068
1068	63.1943
1064	63.1993
1060	63.1598
1056	63.1201
1052	63.1125
1048	63.1903
1044	63.2724
1040	63.1863
1036	63.069
1032	63.1266
1028	63.1722
1024	63.1109
1020	63.0853
1016	63.0451
1012	63.0129
1008	63.1096
1004	63.1911
1000	63.1363
996	 63.0799
992	 63.1105
988	 63.1752
984	 63.2986
980	 63.4137
976	 63.3309
972	 63.2056
968	 63.151
964	 63.0912
960	 63.1707
956	 63.3239
952	 63.3346
948	 63.3029
944	 63.2999
940	 63.2188
936	 63.1159
932	 63.1055
928	 63.1667
924	 63.1554
920	 63.0461
916	 63.1213
912	 63.2513
908	 63.1414
904	 63.0318
900	 63.0219
896	 63.0283
892	 63.0935
888	 63.1917
884	 63.2272
880	 63.1661
876	 63.1638
872	 63.2223
868	 63.102
864	 62.8344
860	 62.6843
856	 62.75
852	 62.929
848	 63.0635
844	 63.0888
840	 63.0478
836	 62.9281
832	 62.8503
828	 62.9497
824	 63.0753
820	 63.1021
816	 63.0256
812	 62.9499
808	 62.9737
804	 62.9802
800	 62.9355
796	 63.0025
792	 63.1239
788	 63.0732
784	 63.0025
780	 63.1621
776	 63.3214
772	 63.1923
768	 62.9202
764	 62.73
760	 62.6949
756	 62.8389
752	 63.0635
748	 63.1021
744	 62.9221
740	 62.8603
736	 62.9421
732	 62.8747
728	 62.7096
724	 62.6967
720	 62.8794
716	 63.0883
712	 63.0697
708	 62.7918
704	 62.5681
700	 62.534
696	 62.6499
692	 62.9882
688	 63.2591
684	 63.3841
680	 63.493
676	 63.3214
672	 62.9822
668	 62.5958
664	 62.5116
660	 62.9754
656	 63.0503
652	 62.5933
648	 62.2808
644	 62.1467
640	 62.1447
636	 62.1808
632	 62.1857
628	 62.3924
624	 62.8092
620	 63.3113
616	 63.865
612	 63.9414
608	 63.1601
604	 62.4196
600	 62.3836
596	 62.8565
592	 63.4263
588	 63.3062
584	 62.5624
580	 62.0442
576	 62.3062
572	 62.462
568	 62.0188
564	 62.0321
560	 62.6464
556	 63.2382
552	 63.5226
548	 63.6075
544	 62.8879
540	 61.6915
536	 61.3825
532	 61.6246
528	 61.8327
524	 62.172
520	 62.4623
516	 62.4958
512	 62.6261
508	 63.0562
504	 63.37
500	 63.2039
496	 62.9817
492	 63.0938
488	 63.0807
484	 63.1334
480	 63.5161
476	 63.394
472	 62.8188
468	 62.5699
464	 62.5099
460	 62.4848
456	 62.2787
452	 61.8596
448	 62.1722
444	 62.8451
440	 62.7075
436	 62.0718
432	 61.4577
428	 61.5924
424	 62.8759
420	 63.9477
416	 64.8732
412	 66.2491
408	 65.5776
404	 62.6183
400	 59.6035
396	 57.5158
392	 58.7748
388	 62.7424
384	 64.2954
380	 61.2441
376	 57.9672
372	 63.1277
370	 71.1083