File: Bakgrunnsmateriale/MATLAB/FTIR/ftir_data/subAa/Mapping_121/BZ1503107-1_t53.asc
PE IR       SPECTRUM    SPECTRUM    ASCII       PEDS        1.60
  -1
BZ2553~1.ASC
17/04/07
17:36:00.00
17/04/07
17:36:26.00
tln
$BZ1503107-1_t0053$<tbV0>[-7.8,-2.6,8.0,0.0,27,1,0]
27.028
64

2002,4.07
MIRTGS : RIGHTBACK : INTERNAL 2
MIR : ON : INTERNAL 2
OPTKBR

0.200000
8
8.000000
FILLER
RATIO
SPECTRUM
UNLOCKED 256

DOUBLE
64
COMBINED
1
0
0

0.002000
RATIO

1
0
TRUE
51149
0
LEFT NOT FITTED RIGHT NOT FITTED 0
NONE
NONE
15600
12
4.427000
51148
TRUE
1 0 8 72 0 0 0 0

15798

#HDR
-1
-1
#GR
µM
%T
2.38419e-05
0.0
2.000000
0.002000
12515
8
81.6241
48.9519
#DATA
2.000000	 65.5801
2.018000	 64.1523
2.036000	 64.8217
2.054000	 64.5553
2.072000	 64.6476
2.090000	 64.4917
2.108000	 64.1705
2.126000	 64.3683
2.144000	 64.474
2.162000	 65.0689
2.180000	 65.3427
2.198000	 65.3823
2.216000	 65.5835
2.234000	 65.9643
2.252000	 53.0349
2.270000	 65.615
2.288000	 65.5827
2.306000	 65.5604
2.324000	 65.6588
2.342000	 65.2717
2.360000	 65.1335
2.378000	 65.0203
2.396000	 64.9186
2.414000	 64.6294
2.432000	 64.5262
2.450000	 64.9071
2.468000	 64.6332
2.486000	 64.7892
2.504000	 65.2233
2.522000	 64.9122
2.540000	 65.0989
2.558000	 65.1658
2.576000	 65.2528
2.594000	 65.0374
2.612000	 65.2194
2.630000	 65.0135
2.648000	 65.2098
2.666000	 64.824
2.684000	 65.001
2.702000	 65.0237
2.720000	 64.9547
2.738000	 65.0827
2.756000	 65.1832
2.774000	 64.9682
2.792000	 65.0356
2.810000	 65.1534
2.828000	 65.0232
2.846000	 65.1413
2.864000	 65.1558
2.882000	 65.137
2.900000	 65.218
2.918000	 65.0256
2.936000	 65.1021
2.954000	 64.9986
2.972000	 65.0724
2.990000	 65.032
3.008000	 65.0083
3.026000	 65.1028
3.044000	 65.0904
3.062000	 64.8703
3.080000	 64.9422
3.098000	 64.9164
3.116000	 64.9612
3.134000	 65.0863
3.152000	 65.012
3.170000	 65.0171
3.188000	 64.9787
3.206000	 65.0753
3.224000	 65.0649
3.242000	 64.9033
3.260000	 65.0667
3.278000	 64.9763
3.296000	 65.0887
3.314000	 64.8459
3.332000	 65.1994
3.350000	 64.9662
3.368000	 64.7364
3.386000	 64.7942
3.404000	 64.846
3.422000	 65.0286
3.440000	 64.9999
3.458000	 64.875
3.476000	 64.8347
3.494000	 65.0166
3.512000	 64.8846
3.530000	 64.8805
3.548000	 64.8753
3.566000	 64.9512
3.584000	 64.985
3.602000	 64.8639
3.620000	 64.8708
3.638000	 64.8968
3.656000	 64.8308
3.674000	 64.9739
3.692000	 65.026
3.710000	 64.9456
3.728000	 64.9686
3.746000	 64.9169
3.764000	 64.9448
3.782000	 65.0205
3.800000	 64.9017
3.818000	 64.9147
3.836000	 64.9092
3.854000	 64.9888
3.872000	 64.9146
3.890000	 64.7741
3.908000	 64.7918
3.926000	 64.9708
3.944000	 64.8796
3.962000	 64.9721
3.980000	 64.9786
3.998000	 64.8107
4.016000	 64.9111
4.034000	 64.9869
4.052000	 64.8362
4.070000	 64.9202
4.088000	 64.9144
4.106000	 64.85
4.124000	 64.8132
4.141999	 64.9083
4.160000	 64.7897
4.178000	 64.8621
4.196000	 64.7041
4.214000	 64.8003
4.232000	 64.7641
4.250000	 64.7143
4.268000	 64.7508
4.286000	 64.8086
4.304000	 64.8208
4.322000	 64.7539
4.340000	 64.7389
4.358000	 64.7851
4.375999	 64.7583
4.394000	 64.7119
4.412000	 64.7072
4.430000	 64.7842
4.448000	 64.7121
4.466000	 64.7637
4.484000	 64.723
4.502000	 64.7968
4.520000	 64.7369
4.538000	 64.772
4.556000	 64.7081
4.574000	 64.767
4.592000	 64.6533
4.609999	 64.6208
4.628000	 64.7522
4.646000	 64.7214
4.664000	 64.8266
4.682000	 64.7434
4.700000	 64.8031
4.718000	 64.6862
4.736000	 64.7322
4.754000	 64.7515
4.772000	 64.8002
4.790000	 64.6897
4.808000	 64.6403
4.826000	 64.614
4.843999	 64.7728
4.862000	 64.7289
4.880000	 64.6457
4.898000	 64.6243
4.916000	 64.622
4.934000	 64.5648
4.952000	 64.5552
4.970000	 64.6359
4.988000	 64.6922
5.006000	 64.7238
5.024000	 64.7664
5.042000	 64.6479
5.060000	 64.6354
5.077999	 64.6383
5.096000	 64.5588
5.114000	 64.5259
5.132000	 64.6593
5.150000	 64.6415
5.168000	 64.6572
5.186000	 64.612
5.204000	 64.5737
5.222000	 64.5841
5.240000	 64.6055
5.258000	 64.554
5.276000	 64.5185
5.294000	 64.5595
5.312000	 64.5522
5.330000	 64.4869
5.348000	 64.4593
5.366000	 64.4352
5.384000	 64.4995
5.402000	 64.5926
5.420000	 64.5694
5.438000	 64.5294
5.456000	 64.545
5.474000	 64.4775
5.492000	 64.4684
5.510000	 64.4829
5.528000	 64.5117
5.546000	 64.5131
5.564000	 64.5716
5.582000	 64.5358
5.600000	 64.499
5.618000	 64.5086
5.636000	 64.516
5.654000	 64.4579
5.672000	 64.4114
5.690000	 64.3961
5.708000	 64.3187
5.726000	 64.2323
5.744000	 64.2541
5.762000	 64.1927
5.780000	 64.1384
5.798000	 64.148
5.816000	 64.2623
5.834000	 64.3631
5.852000	 64.3427
5.870000	 64.3212
5.888000	 64.3331
5.906000	 64.3703
5.923999	 64.3034
5.942000	 64.3011
5.960000	 64.3633
5.978000	 64.3374
5.996000	 64.2715
6.014000	 64.2348
6.032000	 64.2413
6.050000	 64.2454
6.068000	 64.335
6.086000	 64.3915
6.104000	 64.3347
6.122000	 64.3412
6.140000	 64.3318
6.158000	 64.2551
6.176000	 64.213
6.194000	 64.2611
6.212000	 64.313
6.230000	 64.26
6.248000	 64.2066
6.266000	 64.2186
6.284000	 64.2176
6.302000	 64.191
6.320000	 64.1995
6.338000	 64.1769
6.356000	 64.1387
6.374000	 64.1026
6.392000	 64.1064
6.410000	 64.163
6.428000	 64.216
6.446000	 64.2563
6.464000	 64.2588
6.482000	 64.2027
6.500000	 64.1565
6.518000	 64.182
6.536000	 64.2451
6.554000	 64.2732
6.572000	 64.1919
6.590000	 64.0879
6.608000	 64.1036
6.626000	 64.1677
6.644000	 64.1867
6.662000	 64.1632
6.680000	 64.1382
6.698000	 64.1768
6.716000	 64.2475
6.734000	 64.3188
6.752000	 64.306
6.770000	 64.2035
6.788000	 64.1308
6.806000	 64.0885
6.824000	 64.0356
6.842000	 64.0208
6.860000	 64.041
6.878000	 64.0644
6.896000	 64.0919
6.914000	 64.0888
6.932000	 64.0702
6.950000	 64.0748
6.968000	 64.0822
6.986000	 64.0632
7.004000	 64.0382
7.022000	 64.0956
7.040000	 64.2434
7.058000	 64.3156
7.076000	 64.2533
7.094000	 64.1965
7.112000	 64.187
7.130000	 64.1561
7.148000	 64.1069
7.166000	 64.0881
7.184000	 64.104
7.202000	 64.1123
7.220000	 64.0887
7.238000	 64.0569
7.256000	 64.0475
7.274000	 64.0756
7.292000	 64.1157
7.310000	 64.1194
7.328000	 64.088
7.346000	 64.0661
7.364000	 64.069
7.382000	 64.0724
7.400000	 64.0639
7.418000	 64.0587
7.436000	 64.0555
7.454000	 64.0248
7.472000	 63.9649
7.490000	 63.9249
7.508000	 63.9472
7.526000	 64.0123
7.544000	 64.0623
7.562000	 64.0568
7.580000	 64.0062
7.598000	 63.9518
7.616000	 63.9172
7.634000	 63.8978
7.652000	 63.8942
7.670000	 63.9183
7.688000	 63.9626
7.706000	 63.9894
7.724000	 63.9748
7.742000	 63.9547
7.760000	 63.9751
7.778000	 64.0165
7.796000	 64.039
7.814000	 64.0525
7.832000	 64.0656
7.850000	 64.0494
7.868000	 64.007
7.886000	 63.9834
7.904000	 63.9941
7.922000	 64.0125
7.940000	 64.0181
7.958000	 64.0091
7.976000	 63.9858
7.994000	 63.9493
8.012000	 63.9163
8.030000	 63.9097
8.048000	 63.9225
8.065999	 63.9209
8.084000	 63.8987
8.102000	 63.8823
8.120000	 63.8736
8.138000	 63.845
8.155999	 63.8011
8.173999	 63.792
8.192000	 63.8421
8.210000	 63.9138
8.228000	 63.9551
8.246000	 63.9528
8.263999	 63.9307
8.282000	 63.9259
8.300000	 63.9497
8.318000	 63.9707
8.336000	 63.9502
8.353999	 63.8911
8.372000	 63.8311
8.390000	 63.7997
8.408000	 63.7983
8.426000	 63.8121
8.443999	 63.8237
8.462000	 63.8161
8.480000	 63.7858
8.498000	 63.7564
8.516000	 63.7502
8.533999	 63.7533
8.552000	 63.737
8.570000	 63.699
8.588000	 63.6643
8.606000	 63.6551
8.624000	 63.6655
8.641999	 63.6667
8.660000	 63.6458
8.678000	 63.624
8.696000	 63.6249
8.714000	 63.6471
8.731999	 63.6778
8.750000	 63.709
8.768000	 63.7425
8.786000	 63.7844
8.804000	 63.8262
8.821999	 63.8424
8.840000	 63.8216
8.858000	 63.7907
8.876000	 63.7909
8.894000	 63.8344
8.911999	 63.8923
8.930000	 63.9264
8.948000	 63.9266
8.966000	 63.9142
8.984000	 63.9123
9.001999	 63.921
9.020000	 63.9244
9.038000	 63.9143
9.056000	 63.9018
9.074000	 63.9055
9.092000	 63.9291
9.109999	 63.9536
9.128000	 63.952
9.146000	 63.9089
9.164000	 63.8327
9.182000	 63.7509
9.199999	 63.6919
9.218000	 63.6718
9.236000	 63.6932
9.254000	 63.7511
9.272000	 63.8322
9.289999	 63.9093
9.308000	 63.9459
9.326000	 63.9205
9.344000	 63.8472
9.362000	 63.7695
9.379999	 63.7244
9.398000	 63.7148
9.416000	 63.7162
9.434000	 63.7077
9.452000	 63.6921
9.469999	 63.6904
9.488000	 63.7196
9.506000	 63.779
9.524000	 63.8513
9.542000	 63.9151
9.560000	 63.9555
9.577999	 63.9666
9.596000	 63.95
9.614000	 63.9125
9.632000	 63.8635
9.650000	 63.8103
9.667999	 63.7587
9.686000	 63.7144
9.704000	 63.6833
9.722000	 63.6668
9.740000	 63.6571
9.757999	 63.6414
9.776000	 63.6118
9.794000	 63.5749
9.812000	 63.5472
9.830000	 63.5434
9.847999	 63.5663
9.866000	 63.6084
9.884000	 63.6605
9.902000	 63.7164
9.920000	 63.7721
9.937999	 63.8214
9.956000	 63.8569
9.974000	 63.8754
9.992000	 63.8793
10.01	63.8748
10.028	63.8668
10.046	63.8559
10.064	63.8412
10.082	63.8253
10.1	63.8152
10.118	63.8189
10.136	63.8375
10.154	63.8628
10.172	63.8828
10.19	63.8903
10.208	63.8882
10.226	63.8866
10.244	63.893
10.262	63.9047
10.28	63.9097
10.298	63.8961
10.316	63.8621
10.334	63.819
10.352	63.7844
10.37	63.7705
10.388	63.7755
10.406	63.786
10.424	63.7855
10.442	63.7666
10.46	63.7361
10.478	63.711
10.496	63.7059
10.514	63.7229
10.532	63.7486
10.55	63.763
10.568	63.7502
10.586	63.7083
10.604	63.6482
10.622	63.5879
10.64	63.5426
10.658	63.5204
10.676	63.523
10.694	63.5484
10.712	63.5934
10.73	63.6525
10.748	63.717
10.766	63.7757
10.784	63.8188
10.802	63.8401
10.82	63.8389
10.838	63.8194
10.856	63.787
10.874	63.7483
10.892	63.71
10.91	63.6799
10.928	63.6663
10.946	63.6753
10.964	63.7072
10.982	63.7544
11	63.8034
11.018	63.8393
11.036	63.8522
11.054	63.8394
11.072	63.8068
11.09	63.7657
11.108	63.7265
11.126	63.6961
11.144	63.6762
11.162	63.6646
11.18	63.6604
11.198	63.6655
11.216	63.6846
11.234	63.721
11.252	63.774
11.27	63.8358
11.288	63.8924
11.306	63.931
11.324	63.9437
11.342	63.932
11.36	63.9047
11.378	63.8738
11.396	63.8479
11.414	63.8301
11.432	63.8184
11.45	63.8098
11.468	63.8026
11.486	63.7975
11.504	63.7964
11.522	63.8
11.54	63.8074
11.558	63.8162
11.576	63.8252
11.594	63.8352
11.612	63.8493
11.63	63.8704
11.648	63.8988
11.666	63.9306
11.684	63.9586
11.702	63.976
11.72	63.9789
11.738	63.9694
11.756	63.9541
11.774	63.9413
11.792	63.937
11.81	63.9419
11.828	63.9517
11.846	63.9594
11.864	63.9598
11.882	63.9521
11.9	63.9405
11.918	63.9317
11.936	63.9312
11.954	63.9405
11.972	63.9562
11.99	63.971
12.008	63.9779
12.026	63.9728
12.044	63.9562
12.062	63.9332
12.08	63.9107
12.098	63.8939
12.116	63.8844
12.134	63.8793
12.152	63.8725
12.17	63.8583
12.188	63.8327
12.206	63.796
12.224	63.7518
12.242	63.706
12.26	63.6639
12.278	63.6294
12.296	63.6039
12.314	63.5863
12.332	63.5741
12.35	63.5635
12.368	63.5509
12.386	63.5332
12.404	63.5094
12.422	63.4807
12.44	63.4506
12.458	63.4243
12.476	63.4072
12.494	63.4036
12.512	63.416
12.53	63.4445
12.548	63.4869
12.566	63.539
12.584	63.5954
12.602	63.6504
12.62	63.6982
12.638	63.7346
12.656	63.757
12.674	63.7654
12.692	63.7617
12.71	63.7492
12.728	63.7318
12.746	63.7136
12.764	63.697
12.782	63.6827
12.8	63.6702
12.818	63.6585
12.836	63.6469
12.854	63.6356
12.872	63.6263
12.89	63.6213
12.908	63.622
12.926	63.6284
12.944	63.6378
12.962	63.6456
12.98	63.6456
12.998	63.6319
13.016	63.6007
13.034	63.5516
13.052	63.4883
13.07	63.4173
13.088	63.3476
13.106	63.2883
13.124	63.2465
13.142	63.2267
13.16	63.2298
13.178	63.2538
13.196	63.294
13.214	63.3447
13.232	63.3997
13.25	63.4542
13.268	63.5046
13.286	63.5499
13.304	63.5904
13.322	63.6283
13.34	63.666
13.358	63.7053
13.376	63.7467
13.394	63.7883
13.412	63.8269
13.43	63.8575
13.448	63.8749
13.466	63.8751
13.484	63.8558
13.502	63.8179
13.52	63.7647
13.538	63.7017
13.556	63.6356
13.574	63.5724
13.592	63.5167
13.61	63.4713
13.628	63.4369
13.646	63.4124
13.664	63.3968
13.682	63.3889
13.7	63.3885
13.718	63.3955
13.736	63.4106
13.754	63.4338
13.772	63.4644
13.79	63.5009
13.808	63.5407
13.826	63.5804
13.844	63.6162
13.862	63.6445
13.88	63.6622
13.898	63.6672
13.916	63.6587
13.934	63.6371
13.952	63.6043
13.97	63.5628
13.988	63.516
14.006	63.4671
14.024	63.419
14.042	63.3744
14.06	63.3356
14.078	63.3039
14.096	63.2801
14.114	63.2646
14.132	63.2571
14.15	63.257
14.168	63.2626
14.186	63.2721
14.204	63.2826
14.222	63.2917
14.24	63.2969
14.258	63.2971
14.276	63.2916
14.294	63.2812
14.312	63.268
14.33	63.2551
14.348	63.2461
14.366	63.2443
14.384	63.2519
14.402	63.2698
14.42	63.2968
14.438	63.3305
14.456	63.3671
14.474	63.4024
14.492	63.4323
14.51	63.4538
14.528	63.4663
14.546	63.471
14.564	63.4712
14.582	63.4714
14.6	63.4766
14.618	63.4916
14.636	63.5202
14.654	63.5628
14.672	63.6182
14.69	63.6827
14.708	63.7511
14.726	63.8167
14.744	63.872
14.762	63.9113
14.78	63.9301
14.798	63.9264
14.816	63.9001
14.834	63.8531
14.852	63.7894
14.87	63.7138
14.888	63.6311
14.906	63.5463
14.924	63.464
14.942	63.388
14.96	63.3216
14.978	63.2672
14.996	63.227
15.014	63.2028
15.032	63.1959
15.05	63.2071
15.068	63.2362
15.086	63.2825
15.104	63.3442
15.122	63.4179
15.14	63.4994
15.158	63.5842
15.176	63.6678
15.194	63.746
15.212	63.8147
15.23	63.8723
15.248	63.918
15.266	63.9517
15.284	63.9753
15.302	63.9907
15.32	63.9992
15.338	64.0015
15.356	63.9971
15.374	63.9846
15.392	63.9618
15.41	63.9267
15.428	63.8776
15.446	63.8135
15.464	63.7357
15.482	63.646
15.5	63.5476
15.518	63.4463
15.536	63.3471
15.554	63.2542
15.572	63.172
15.59	63.103
15.608	63.0472
15.626	63.0038
15.644	62.9705
15.662	62.9437
15.68	62.9204
15.698	62.8983
15.716	62.8752
15.734	62.8512
15.752	62.8273
15.77	62.805
15.788	62.7878
15.806	62.7789
15.824	62.7807
15.842	62.7957
15.86	62.8248
15.878	62.8682
15.896	62.9256
15.914	62.9956
15.932	63.0769
15.95	63.168
15.968	63.2665
15.986	63.3698
16.004	63.475
16.022	63.5786
16.04	63.6758
16.058	63.7618
16.076	63.8322
16.094	63.8803
16.112	63.9008
16.13	63.8904
16.148	63.8456
16.166	63.7665
16.184	63.6554
16.202	63.5156
16.22	63.3561
16.238	63.1854
16.256	63.0121
16.274	62.8502
16.292	62.7081
16.31	62.5935
16.328	62.5146
16.346	62.4727
16.364	62.4688
16.382	62.4988
16.4	62.5554
16.418	62.6327
16.436	62.7183
16.454	62.803
16.472	62.8798
16.49	62.9385
16.508	62.9759
16.526	62.9893
16.544	62.9784
16.562	62.9474
16.58	62.8994
16.598	62.8429
16.616	62.7848
16.634	62.731
16.652	62.691
16.67	62.6684
16.688	62.6678
16.706	62.6921
16.724	62.7409
16.742	62.8136
16.76	62.9066
16.778	63.0174
16.796	63.1405
16.814	63.27
16.832	63.4026
16.85	63.5307
16.868	63.6502
16.886	63.7575
16.904	63.8473
16.922	63.9177
16.94	63.9661
16.958	63.9911
16.976	63.9924
16.994	63.9703
17.012	63.9269
17.03	63.8633
17.048	63.7841
17.066	63.6922
17.084	63.5917
17.102	63.4891
17.12	63.3871
17.138	63.2928
17.156	63.2096
17.174	63.1413
17.192	63.092
17.21	63.0627
17.228	63.0556
17.246	63.0692
17.264	63.1031
17.282	63.1535
17.3	63.218
17.318	63.2912
17.336	63.3683
17.354	63.446
17.372	63.5179
17.39	63.5828
17.408	63.637
17.426	63.6802
17.444	63.7112
17.462	63.7321
17.48	63.7438
17.498	63.7499
17.516	63.7536
17.534	63.7577
17.552	63.767
17.57	63.7827
17.588	63.8084
17.606	63.8445
17.624	63.8927
17.642	63.9512
17.66	64.0197
17.678	64.0952
17.696	64.1762
17.714	64.2578
17.732	64.3374
17.75	64.4119
17.768	64.4768
17.786	64.5305
17.804	64.569
17.822	64.5918
17.84	64.5967
17.858	64.5842
17.876	64.5541
17.894	64.5086
17.912	64.448
17.93	64.3767
17.948	64.2955
17.966	64.2092
17.984	64.1191
18.002	64.0292
18.02	63.9412
18.038	63.8574
18.056	63.7798
18.074	63.7092
18.092	63.6465
18.11	63.5915
18.128	63.5434
18.146	63.5014
18.164	63.4639
18.182	63.4295
18.2	63.3965
18.218	63.3629
18.236	63.3276
18.254	63.2891
18.272	63.2469
18.29	63.1998
18.308	63.1478
18.326	63.0911
18.344	63.0303
18.362	62.9668
18.38	62.9016
18.398	62.8371
18.416	62.7746
18.434	62.7157
18.452	62.6621
18.47	62.6152
18.488	62.5762
18.506	62.5457
18.524	62.5244
18.542	62.5127
18.56	62.5097
18.578	62.5155
18.596	62.5288
18.614	62.5494
18.632	62.5756
18.65	62.6072
18.668	62.6429
18.686	62.6825
18.704	62.7248
18.722	62.7698
18.74	62.8172
18.758	62.8674
18.776	62.9207
18.794	62.9773
18.812	63.0382
18.83	63.1034
18.848	63.1735
18.866	63.2484
18.884	63.328
18.902	63.4119
18.92	63.4993
18.938	63.589
18.956	63.6798
18.974	63.7701
18.992	63.858
19.01	63.9421
19.028	64.0199
19.046	64.0902
19.064	64.1503
19.082	64.1999
19.1	64.2368
19.118	64.2611
19.136	64.2716
19.154	64.2685
19.172	64.2512
19.19	64.2202
19.208	64.1758
19.226	64.1184
19.244	64.0492
19.262	63.9687
19.28	63.8791
19.298	63.7805
19.316	63.6763
19.334	63.5664
19.352	63.4548
19.37	63.3413
19.388	63.2311
19.406	63.1237
19.424	63.0237
19.442	62.9311
19.46	62.8493
19.478	62.7787
19.496	62.7208
19.514	62.6762
19.532	62.6444
19.55	62.6258
19.568	62.6189
19.586	62.6225
19.604	62.6352
19.622	62.6537
19.64	62.6775
19.658	62.7021
19.676	62.7278
19.694	62.7494
19.712	62.7674
19.73	62.7785
19.748	62.7827
19.766	62.7789
19.784	62.7666
19.802	62.747
19.82	62.7203
19.838	62.6879
19.856	62.6517
19.874	62.6122
19.892	62.5733
19.91	62.5344
19.928	62.4996
19.946	62.4685
19.964	62.4437
19.982	62.4256
20	62.4148
20.018	62.412
20.036	62.4165
20.054	62.4283
20.072	62.4469
20.09	62.4705
20.108	62.4994
20.126	62.5311
20.144	62.5656
20.162	62.601
20.18	62.6364
20.198	62.6712
20.216	62.7036
20.234	62.7339
20.252	62.7609
20.27	62.7846
20.288	62.8044
20.306	62.82
20.324	62.8318
20.342	62.8398
20.36	62.8441
20.378	62.8455
20.396	62.8438
20.414	62.8404
20.432	62.835
20.45	62.8291
20.468	62.8233
20.486	62.8179
20.504	62.8143
20.522	62.8122
20.54	62.8127
20.558	62.8159
20.576	62.8217
20.594	62.8303
20.612	62.8414
20.63	62.8547
20.648	62.8702
20.666	62.8864
20.684	62.9036
20.702	62.9202
20.72	62.9352
20.738	62.9485
20.756	62.9579
20.774	62.9639
20.792	62.9648
20.81	62.9601
20.828	62.9499
20.846	62.9336
20.864	62.9114
20.882	62.8841
20.9	62.8512
20.918	62.8145
20.936	62.7751
20.954	62.7333
20.972	62.6924
20.99	62.6515
21.008	62.6142
21.026	62.5814
21.044	62.5537
21.062	62.5342
21.08	62.5221
21.098	62.5194
21.116	62.5269
21.134	62.5441
21.152	62.5715
21.17	62.6092
21.188	62.6557
21.206	62.7113
21.224	62.7748
21.242	62.8438
21.26	62.9193
21.278	62.9975
21.296	63.0782
21.314	63.1602
21.332	63.24
21.35	63.3189
21.368	63.3934
21.386	63.4627
21.404	63.5266
21.422	63.5826
21.44	63.6316
21.458	63.6721
21.476	63.7036
21.494	63.7264
21.512	63.7406
21.53	63.7458
21.548	63.7436
21.566	63.7348
21.584	63.7192
21.602	63.6999
21.62	63.6761
21.638	63.6501
21.656	63.6246
21.674	63.5986
21.692	63.575
21.71	63.5546
21.728	63.5375
21.746	63.5256
21.764	63.519
21.782	63.5172
21.8	63.5208
21.818	63.5295
21.836	63.5418
21.854	63.5581
21.872	63.5771
21.89	63.5963
21.908	63.6167
21.926	63.6355
21.944	63.6508
21.962	63.6635
21.98	63.6705
21.998	63.6716
22.016	63.6669
22.034	63.6551
22.052	63.636
22.07	63.6107
22.088	63.5796
22.106	63.5422
22.124	63.5018
22.142	63.4579
22.16	63.4117
22.178	63.3673
22.196	63.3233
22.214	63.2824
22.232	63.248
22.25	63.2186
22.268	63.197
22.286	63.185
22.304	63.1816
22.322	63.188
22.34	63.2051
22.358	63.2318
22.376	63.267
22.394	63.3116
22.412	63.3634
22.43	63.4196
22.448	63.4818
22.466	63.5461
22.484	63.6094
22.502	63.6735
22.52	63.7337
22.538	63.7879
22.556	63.8372
22.574	63.8776
22.592	63.9084
22.61	63.93
22.628	63.9402
22.646	63.9389
22.664	63.9267
22.682	63.9036
22.7	63.8689
22.718	63.8244
22.736	63.772
22.754	63.7104
22.772	63.6421
22.79	63.5692
22.808	63.4903
22.826	63.4085
22.844	63.3257
22.862	63.2405
22.88	63.1567
22.898	63.0758
22.916	62.9967
22.934	62.9226
22.952	62.8548
22.97	62.7923
22.988	62.737
23.006	62.6895
23.024	62.6493
23.042	62.6172
23.06	62.5935
23.078	62.5778
23.096	62.5701
23.114	62.5706
23.132	62.579
23.15	62.5947
23.168	62.6178
23.186	62.648
23.204	62.6843
23.222	62.7269
23.24	62.7756
23.258	62.8293
23.276	62.8883
23.294	62.9523
23.312	63.0199
23.33	63.0914
23.348	63.1665
23.366	63.2442
23.384	63.3245
23.402	63.4074
23.42	63.492
23.438	63.5785
23.456	63.6668
23.474	63.7557
23.492	63.8455
23.51	63.9359
23.528	64.0252
23.546	64.1132
23.564	64.2002
23.582	64.2842
23.6	64.3647
23.618	64.4424
23.636	64.5152
23.654	64.5823
23.672	64.6444
23.69	64.7004
23.708	64.7491
23.726	64.7913
23.744	64.8264
23.762	64.8537
23.78	64.8733
23.798	64.8859
23.816	64.892
23.834	64.8909
23.852	64.8838
23.87	64.8726
23.888	64.8561
23.906	64.8356
23.924	64.8139
23.942	64.7908
23.96	64.7662
23.978	64.7427
23.996	64.7212
24.014	64.7007
24.032	64.6833
24.05	64.6704
24.068	64.6613
24.086	64.6559
24.104	64.6544
24.122	64.6579
24.14	64.6641
24.158	64.6705
24.176	64.6794
24.194	64.6885
24.212	64.6923
24.23	64.6909
24.248	64.6855
24.266	64.669
24.284	64.6382
24.302	64.5968
24.32	64.5392
24.338	64.46
24.356	64.3626
24.374	64.2445
24.392	64.1008
24.41	63.9313
24.428	63.7374
24.446	63.5184
24.464	63.2728
24.482	63.001
24.5	62.7071
24.518	62.394
24.536	62.0569
24.554	61.7031
24.572	61.3419
24.59	60.969
24.608	60.5866
24.626	60.2065
24.644	59.8327
24.662	59.4584
24.68	59.0963
24.698	58.7576
24.716	58.4343
24.734	58.1324
24.752	57.8635
24.77	57.6278
24.788	57.4221
24.806	57.255
24.824	57.1325
24.842	57.05
24.86	57.0096
24.878	57.0148
24.896	57.0663
24.914	57.162
24.932	57.2999
24.95	57.4802
24.968	57.7048
24.986	57.9669
25.004	58.2594
25.022	58.588
25.04	58.9482
25.058	59.3295
25.076	59.728
25.094	60.1503
25.112	60.5855
25.13	61.0225
25.148	61.4684
25.166	61.9193
25.184	62.3636
25.202	62.7967
25.22	63.2259
25.238	63.6419
25.256	64.035
25.274	64.409
25.292	64.7636
25.31	65.0926
25.328	65.3922
25.346	65.6658
25.364	65.9123
25.382	66.1298
25.4	66.3175
25.418	66.4769
25.436	66.6094
25.454	66.716
25.472	66.7946
25.49	66.8484
25.508	66.8812
25.526	66.8927
25.544	66.8813
25.562	66.853
25.58	66.8135
25.598	66.7583
25.616	66.6899
25.634	66.615
25.652	66.5372
25.67	66.4508
25.688	66.3621
25.706	66.2787
25.724	66.1999
25.742	66.1232
25.76	66.0555
25.778	66.0035
25.796	65.9643
25.814	65.9377
25.832	65.9266
25.85	65.9333
25.868	65.9562
25.886	65.9951
25.904	66.05
25.922	66.1207
25.94	66.2073
25.958	66.3097
25.976	66.4281
25.994	66.5622
26.012	66.712
26.03	66.8779
26.048	67.0603
26.066	67.2595
26.084	67.4748
26.102	67.7049
26.12	67.9493
26.138	68.2087
26.156	68.4823
26.174	68.7692
26.192	69.0685
26.21	69.3801
26.228	69.7058
26.246	70.0472
26.264	70.4044
26.282	70.7767
26.3	71.1644
26.318	71.5681
26.336	71.9886
26.354	72.4249
26.372	72.8752
26.39	73.338
26.408	73.817
26.426	74.3091
26.444	74.8085
26.462	75.311
26.48	75.8243
26.498	76.342
26.516	76.8536
26.534	77.3522
26.552	77.849
26.57	78.3352
26.588	78.798
26.606	79.2297
26.624	79.6414
26.642	80.0259
26.66	80.3733
26.678	80.6787
26.696	80.9508
26.714	81.1832
26.732	81.3677
26.75	81.4998
26.768	81.5854
26.786	81.6226
26.804	81.6089
26.822	81.5428
26.84	81.426
26.858	81.259
26.876	81.0415
26.894	80.7726
26.912	80.4513
26.93	80.0816
26.948	79.6679
26.966	79.181
26.984	78.5713
27.002	77.9588
27.02	77.4741
27.028	77.3476