File: Bakgrunnsmateriale/MATLAB/FTIR/ftir_data/subAa/Mapping_121/BZ1503107-1_t88_cm-1.asc
PE IR       SPECTRUM    SPECTRUM    ASCII       PEDS        1.60
  -1
BZ6036~1.ASC
17/04/07
20:25:39.00
17/04/07
20:25:39.00
tln
$BZ1503107-1_t0088$<tbV0>[-13.0,5.2,8.0,0.0,27,1,0]
370
64

2002,4.07
MIRTGS : RIGHTBACK : INTERNAL 2
MIR : ON : INTERNAL 2
OPTKBR

0.200000
8
8.000000
FILLER
RATIO
SPECTRUM
UNLOCKED 256

DOUBLE
64
COMBINED
1
0
0

1.000000
RATIO

1
0
TRUE
51149
0
LEFT NOT FITTED RIGHT NOT FITTED 0
NONE
NONE
15600
12
4.427000
51148
TRUE
1 0 8 72 0 0 0 0

15798

#HDR
-1
-1
#GR
CM-1
%T
2.38419e-05
0.0
5000
-1.000000
4631
8
72.2717
43.682
#DATA
5000	64.2308
4996	65.0848
4992	65.3088
4988	65.6449
4984	65.8149
4980	65.0281
4976	64.4145
4972	64.6286
4968	64.9036
4964	65.0808
4960	65.5337
4956	66.5834
4952	67.0531
4948	65.5838
4944	64.4018
4940	65.019
4936	65.6573
4932	65.4169
4928	65.2097
4924	64.8317
4920	64.3341
4916	65.1672
4912	66.1053
4908	65.3754
4904	64.3384
4900	64.1931
4896	64.3565
4892	64.5739
4888	64.9217
4884	65.2977
4880	65.6944
4876	65.9252
4872	65.8114
4868	65.5751
4864	65.4144
4860	65.3572
4856	65.4378
4852	65.3007
4848	65.0478
4844	65.0368
4840	64.9462
4836	64.8568
4832	64.9555
4828	65.1232
4824	65.2948
4820	65.3974
4816	65.3938
4812	65.1969
4808	65.0305
4804	65.0643
4800	65.0315
4796	64.9269
4792	64.954
4788	65.1502
4784	65.3624
4780	65.3616
4776	65.2102
4772	65.1182
4768	65.2178
4764	65.2693
4760	64.9403
4756	64.5868
4752	64.7475
4748	65.1528
4744	65.2985
4740	65.2174
4736	65.0546
4732	65.0745
4728	65.3518
4724	65.5058
4720	65.5471
4716	65.6112
4712	65.4338
4708	65.2741
4704	65.3899
4700	65.4425
4696	65.2863
4692	64.9716
4688	64.6768
4684	64.6191
4680	64.6821
4676	64.7726
4672	65.0294
4668	65.2617
4664	65.2463
4660	65.1958
4656	65.1525
4652	65.0106
4648	64.8698
4644	64.8066
4640	64.8951
4636	65.1323
4632	65.3551
4628	65.3904
4624	65.2685
4620	65.2153
4616	65.2926
4612	65.3424
4608	65.3021
4604	65.292
4600	65.4555
4596	65.7203
4592	65.8444
4588	65.6984
4584	65.399
4580	65.156
4576	65.1305
4572	65.3013
4568	65.4327
4564	65.323
4560	65.2035
4556	65.3021
4552	65.4584
4548	65.6458
4544	65.8965
4540	65.9697
4536	65.8015
4532	65.4857
4528	65.1892
4524	65.1976
4520	65.3324
4516	65.3772
4512	65.4348
4508	65.4186
4504	65.2932
4500	65.2969
4496	65.3191
4492	65.2201
4488	65.3123
4484	65.6422
4480	65.6896
4476	65.7116
4472	65.503
4468	65.1507
4464	64.3825
4460	63.5898
4456	63.2323
4452	63.9106
4448	62.6153
4444	54.1018
4440	52.624
4436	63.6805
4432	71.7305
4428	70.5223
4424	64.1936
4420	63.2542
4416	67.7919
4412	69.3926
4408	67.4489
4404	65.5224
4400	65.0461
4396	65.1287
4392	64.7956
4388	64.8252
4384	65.0582
4380	65.25
4376	65.2804
4372	65.2059
4368	65.2821
4364	65.4666
4360	65.7138
4356	65.8225
4352	65.7161
4348	65.5051
4344	65.3336
4340	65.2444
4336	65.2682
4332	65.3295
4328	65.2223
4324	65.2685
4320	65.5932
4316	65.6826
4312	65.5155
4308	65.4099
4304	65.3523
4300	65.4016
4296	65.4489
4292	65.397
4288	65.4145
4284	65.3898
4280	65.3664
4276	65.4397
4272	65.39
4268	65.241
4264	65.2722
4260	65.4551
4256	65.4407
4252	65.1909
4248	65.1684
4244	65.4667
4240	65.5825
4236	65.3754
4232	65.1683
4228	65.1833
4224	65.37
4220	65.4024
4216	65.2337
4212	65.0922
4208	65.0637
4204	65.183
4200	65.2633
4196	65.1603
4192	65.004
4188	64.9824
4184	65.0325
4180	65.0598
4176	65.13
4172	65.2279
4168	65.2831
4164	65.209
4160	65.1483
4156	65.1866
4152	65.2082
4148	65.1432
4144	65.0017
4140	64.9908
4136	65.1075
4132	65.201
4128	65.2514
4124	65.2391
4120	65.2189
4116	65.215
4112	65.198
4108	65.1044
4104	65.005
4100	65.1148
4096	65.2791
4092	65.2484
4088	65.1361
4084	65.1206
4080	65.1573
4076	65.1759
4072	65.2009
4068	65.2197
4064	65.2352
4060	65.2337
4056	65.163
4052	65.1158
4048	65.1275
4044	65.0819
4040	65.0973
4036	65.2085
4032	65.2543
4028	65.2987
4024	65.3016
4020	65.2718
4016	65.3341
4012	65.3554
4008	65.405
4004	65.5552
4000	65.5012
3996	65.2374
3992	65.0867
3988	65.0806
3984	65.0953
3980	65.0585
3976	64.9496
3972	64.9022
3968	64.9809
3964	65.1616
3960	65.3409
3956	65.2938
3952	65.1397
3948	65.1418
3944	65.2431
3940	65.4344
3936	65.5998
3932	65.5118
3928	65.3198
3924	65.2748
3920	65.3913
3916	65.572
3912	65.6609
3908	65.5502
3904	65.5082
3900	65.6491
3896	65.6341
3892	65.4614
3888	65.3494
3884	65.2731
3880	65.2939
3876	65.332
3872	65.2504
3868	65.2417
3864	65.272
3860	65.3054
3856	65.3601
3852	65.2728
3848	65.1748
3844	65.2095
3840	65.2912
3836	65.3073
3832	65.2108
3828	65.1136
3824	65.1081
3820	65.1347
3816	65.1711
3812	65.2336
3808	65.3286
3804	65.4155
3800	65.3916
3796	65.329
3792	65.3245
3788	65.3894
3784	65.4582
3780	65.4796
3776	65.4854
3772	65.4395
3768	65.332
3764	65.2596
3760	65.2854
3756	65.3243
3752	65.3292
3748	65.3075
3744	65.3208
3740	65.3876
3736	65.3695
3732	65.3412
3728	65.339
3724	65.2569
3720	65.2657
3716	65.4004
3712	65.3987
3708	65.2952
3704	65.3065
3700	65.383
3696	65.4216
3692	65.4062
3688	65.3885
3684	65.3913
3680	65.363
3676	65.3545
3672	65.4053
3668	65.4476
3664	65.4031
3660	65.3216
3656	65.3357
3652	65.3895
3648	65.3577
3644	65.3306
3640	65.3927
3636	65.4024
3632	65.2898
3628	65.1679
3624	65.1191
3620	65.1492
3616	65.2092
3612	65.2832
3608	65.3281
3604	65.2534
3600	65.1911
3596	65.2157
3592	65.1879
3588	65.1698
3584	65.212
3580	65.2013
3576	65.1873
3572	65.2783
3568	65.3535
3564	65.3438
3560	65.335
3556	65.329
3552	65.3484
3548	65.3656
3544	65.3262
3540	65.3303
3536	65.3968
3532	65.4207
3528	65.361
3524	65.2431
3520	65.1942
3516	65.2524
3512	65.2501
3508	65.2081
3504	65.251
3500	65.2688
3496	65.2189
3492	65.2112
3488	65.2598
3484	65.263
3480	65.239
3476	65.2899
3472	65.427
3468	65.5411
3464	65.4341
3460	65.2387
3456	65.1988
3452	65.2167
3448	65.2104
3444	65.1735
3440	65.1003
3436	65.0907
3432	65.1426
3428	65.1892
3424	65.2162
3420	65.1973
3416	65.1672
3412	65.1641
3408	65.1451
3404	65.1243
3400	65.1912
3396	65.2921
3392	65.2907
3388	65.2704
3384	65.3415
3380	65.4099
3376	65.43
3372	65.3705
3368	65.233
3364	65.1567
3360	65.1567
3356	65.1659
3352	65.2601
3348	65.4184
3344	65.4033
3340	65.2407
3336	65.1761
3332	65.2058
3328	65.2707
3324	65.3489
3320	65.2982
3316	65.2024
3312	65.2197
3308	65.2622
3304	65.2997
3300	65.2564
3296	65.0926
3292	65.0163
3288	65.0897
3284	65.1568
3280	65.1521
3276	65.1305
3272	65.0977
3268	65.0582
3264	65.0398
3260	65.0517
3256	65.1548
3252	65.2726
3248	65.2627
3244	65.1238
3240	64.9911
3236	65.0406
3232	65.1495
3228	65.1832
3224	65.229
3220	65.2297
3216	65.1817
3212	65.1647
3208	65.1587
3204	65.1228
3200	65.0486
3196	65.0376
3192	65.095
3188	65.1575
3184	65.2103
3180	65.1684
3176	65.08
3172	65.0689
3168	65.1056
3164	65.1432
3160	65.1325
3156	65.0695
3152	65.0716
3148	65.1593
3144	65.24
3140	65.1854
3136	65.064
3132	65.0697
3128	65.1521
3124	65.2121
3120	65.2272
3116	65.156
3112	65.0746
3108	65.0791
3104	65.0691
3100	65.001
3096	64.9759
3092	64.9818
3088	64.9603
3084	64.9251
3080	64.9322
3076	64.9987
3072	65.092
3068	65.1654
3064	65.2133
3060	65.2358
3056	65.1886
3052	65.1792
3048	65.2544
3044	65.286
3040	65.2416
3036	65.1675
3032	65.1614
3028	65.1984
3024	65.1756
3020	65.1191
3016	65.0477
3012	65.0175
3008	65.0267
3004	64.9866
3000	64.9923
2996	65.0603
2992	65.063
2988	64.9683
2984	64.8789
2980	64.9216
2976	64.9384
2972	64.8133
2968	64.7089
2964	64.7178
2960	64.7456
2956	64.7021
2952	64.6327
2948	64.6133
2944	64.6608
2940	64.7129
2936	64.7351
2932	64.7146
2928	64.6447
2924	64.6489
2920	64.7495
2916	64.7884
2912	64.8126
2908	64.8787
2904	64.8739
2900	64.8284
2896	64.8257
2892	64.7863
2888	64.7162
2884	64.6972
2880	64.7161
2876	64.7766
2872	64.8259
2868	64.809
2864	64.7931
2860	64.7617
2856	64.7433
2852	64.8312
2848	64.9353
2844	64.974
2840	65.0039
2836	65.019
2832	64.9917
2828	64.9998
2824	65.0429
2820	65.059
2816	65.0934
2812	65.1438
2808	65.1369
2804	65.0659
2800	64.9746
2796	64.9175
2792	64.9402
2788	64.9956
2784	65.041
2780	65.0865
2776	65.0804
2772	65.0487
2768	65.0427
2764	65.0671
2760	65.0967
2756	65.0398
2752	64.9464
2748	64.9169
2744	64.9202
2740	64.9368
2736	64.939
2732	64.8735
2728	64.8239
2724	64.8623
2720	64.9339
2716	65.0141
2712	65.0641
2708	65.0527
2704	65.0462
2700	65.0759
2696	65.1038
2692	65.0873
2688	65.0565
2684	65.0611
2680	65.052
2676	65.0117
2672	64.9981
2668	64.9626
2664	64.865
2660	64.8433
2656	64.9387
2652	65.0264
2648	65.0483
2644	65.0174
2640	64.9722
2636	64.9231
2632	64.8837
2628	64.9064
2624	64.9608
2620	64.9777
2616	64.9299
2612	64.8424
2608	64.8073
2604	64.8571
2600	64.8957
2596	64.896
2592	64.9243
2588	64.9787
2584	65.0205
2580	65.0094
2576	64.9251
2572	64.8352
2568	64.8553
2564	64.9568
2560	64.9769
2556	64.8822
2552	64.8327
2548	64.8459
2544	64.8015
2540	64.7749
2536	64.8308
2532	64.8863
2528	64.9218
2524	64.9607
2520	64.9512
2516	64.8634
2512	64.7824
2508	64.791
2504	64.8402
2500	64.8428
2496	64.8193
2492	64.8096
2488	64.8094
2484	64.7951
2480	64.8381
2476	64.9237
2472	64.8908
2468	64.8016
2464	64.771
2460	64.8362
2456	64.9292
2452	64.8869
2448	64.7831
2444	64.7508
2440	64.7832
2436	64.8166
2432	64.8019
2428	64.7711
2424	64.7802
2420	64.819
2416	64.8298
2412	64.8258
2408	64.8358
2404	64.8651
2400	64.8706
2396	64.7638
2392	64.661
2388	64.6832
2384	64.6849
2380	64.6371
2376	64.6347
2372	64.6697
2368	64.7004
2364	64.6829
2360	64.6586
2356	64.6634
2352	64.6475
2348	64.5958
2344	64.5887
2340	64.6634
2336	64.7374
2332	64.749
2328	64.7129
2324	64.6938
2320	64.7189
2316	64.7397
2312	64.7392
2308	64.7452
2304	64.6933
2300	64.564
2296	64.5087
2292	64.597
2288	64.6789
2284	64.6366
2280	64.6233
2276	64.7119
2272	64.7389
2268	64.6894
2264	64.6392
2260	64.6157
2256	64.6488
2252	64.6697
2248	64.6431
2244	64.645
2240	64.6652
2236	64.6323
2232	64.5809
2228	64.5988
2224	64.6363
2220	64.6141
2216	64.5974
2212	64.6356
2208	64.6796
2204	64.6582
2200	64.5516
2196	64.4532
2192	64.4448
2188	64.5061
2184	64.5781
2180	64.6107
2176	64.5929
2172	64.5385
2168	64.4974
2164	64.5068
2160	64.5269
2156	64.5225
2152	64.5085
2148	64.5243
2144	64.5581
2140	64.5761
2136	64.6199
2132	64.6597
2128	64.6222
2124	64.5523
2120	64.5203
2116	64.5346
2112	64.5613
2108	64.5539
2104	64.515
2100	64.4895
2096	64.5057
2092	64.5462
2088	64.5171
2084	64.4749
2080	64.5265
2076	64.5388
2072	64.4471
2068	64.4167
2064	64.4657
2060	64.4897
2056	64.5165
2052	64.5151
2048	64.4439
2044	64.3983
2040	64.4608
2036	64.5516
2032	64.4964
2028	64.3819
2024	64.3507
2020	64.3668
2016	64.4251
2012	64.4707
2008	64.4739
2004	64.4825
2000	64.454
1996	64.3979
1992	64.3771
1988	64.3573
1984	64.3315
1980	64.3284
1976	64.3358
1972	64.3717
1968	64.4078
1964	64.4135
1960	64.4269
1956	64.4351
1952	64.3881
1948	64.3437
1944	64.3782
1940	64.4042
1936	64.3807
1932	64.3656
1928	64.3492
1924	64.3275
1920	64.3517
1916	64.4119
1912	64.4355
1908	64.4049
1904	64.372
1900	64.3621
1896	64.3522
1892	64.4
1888	64.4614
1884	64.4352
1880	64.411
1876	64.4221
1872	64.4023
1868	64.3349
1864	64.2503
1860	64.2388
1856	64.317
1852	64.3831
1848	64.3633
1844	64.2794
1840	64.2249
1836	64.2225
1832	64.2401
1828	64.2562
1824	64.2337
1820	64.2078
1816	64.2121
1812	64.2329
1808	64.2346
1804	64.2059
1800	64.2118
1796	64.2534
1792	64.2833
1788	64.2526
1784	64.1661
1780	64.1358
1776	64.186
1772	64.2549
1768	64.2502
1764	64.1301
1760	64.0228
1756	63.9414
1752	63.7789
1748	63.584
1744	63.3658
1740	63.1034
1736	62.9561
1732	63.0352
1728	63.2336
1724	63.4403
1720	63.6477
1716	63.8226
1712	63.9046
1708	63.8798
1704	63.8591
1700	63.9407
1696	64.0476
1692	64.109
1688	64.1098
1684	64.0557
1680	64.0271
1676	64.0204
1672	63.9619
1668	63.9143
1664	63.9259
1660	63.9511
1656	63.9474
1652	63.9512
1648	64.0175
1644	64.0285
1640	63.9468
1636	63.9271
1632	64.0058
1628	64.0716
1624	64.0748
1620	64.0944
1616	64.1324
1612	64.0663
1608	63.9685
1604	63.9653
1600	63.9915
1596	63.9471
1592	63.8908
1588	63.9558
1584	64.0049
1580	63.9367
1576	63.9321
1572	63.9864
1568	63.9732
1564	63.9522
1560	63.9917
1556	63.9777
1552	63.8644
1548	63.8312
1544	63.9553
1540	64.0863
1536	64.0953
1532	64.0308
1528	64.004
1524	64.0169
1520	64.0205
1516	64.0106
1512	63.9451
1508	63.8872
1504	63.8858
1500	63.8853
1496	63.9107
1492	63.9052
1488	63.8618
1484	63.8453
1480	63.8215
1476	63.8125
1472	63.8075
1468	63.7345
1464	63.6456
1460	63.6381
1456	63.6466
1452	63.6253
1448	63.6565
1444	63.7204
1440	63.7353
1436	63.7358
1432	63.7917
1428	63.8387
1424	63.7648
1420	63.6765
1416	63.7148
1412	63.7444
1408	63.6819
1404	63.6071
1400	63.5592
1396	63.6118
1392	63.7194
1388	63.7101
1384	63.6147
1380	63.5386
1376	63.5162
1372	63.5676
1368	63.623
1364	63.6513
1360	63.6587
1356	63.6272
1352	63.617
1348	63.6504
1344	63.6973
1340	63.7357
1336	63.7387
1332	63.7354
1328	63.7698
1324	63.7826
1320	63.6786
1316	63.5415
1312	63.5038
1308	63.5368
1304	63.589
1300	63.59
1296	63.5419
1292	63.555
1288	63.5602
1284	63.4549
1280	63.3559
1276	63.3577
1272	63.3813
1268	63.3268
1264	63.2116
1260	63.1486
1256	63.1871
1252	63.235
1248	63.2436
1244	63.2524
1240	63.2347
1236	63.2164
1232	63.2163
1228	63.2315
1224	63.3111
1220	63.3536
1216	63.3006
1212	63.2866
1208	63.3484
1204	63.3971
1200	63.4144
1196	63.4121
1192	63.315
1188	63.1816
1184	63.1167
1180	63.0496
1176	62.9903
1172	62.9875
1168	62.9946
1164	63.0331
1160	63.0924
1156	63.0776
1152	63.0644
1148	63.1667
1144	63.3193
1140	63.429
1136	63.4068
1132	63.2422
1128	63.1418
1124	63.2497
1120	63.3911
1116	63.4344
1112	63.4245
1108	63.3595
1104	63.2642
1100	63.2237
1096	63.2448
1092	63.2471
1088	63.2421
1084	63.2308
1080	63.1662
1076	63.1556
1072	63.2389
1068	63.2722
1064	63.1982
1060	63.1481
1056	63.1844
1052	63.2017
1048	63.2126
1044	63.2491
1040	63.1843
1036	63.0734
1032	63.06
1028	63.064
1024	63.0195
1020	63.013
1016	63.0815
1012	63.1533
1008	63.1921
1004	63.2303
1000	63.2493
996	 63.2288
992	 63.2103
988	 63.2341
984	 63.2738
980	 63.3209
976	 63.3578
972	 63.2899
968	 63.2074
964	 63.2627
960	 63.3653
956	 63.26
952	 63.0209
948	 63.0527
944	 63.2877
940	 63.3736
936	 63.3631
932	 63.4154
928	 63.4548
924	 63.4038
920	 63.3384
916	 63.3206
912	 63.2893
908	 63.2491
904	 63.2571
900	 63.2328
896	 63.2
892	 63.2578
888	 63.3838
884	 63.4588
880	 63.3667
876	 63.2246
872	 63.1875
868	 63.2267
864	 63.2268
860	 63.2072
856	 63.2283
852	 63.2394
848	 63.2446
844	 63.2393
840	 63.2179
836	 63.1992
832	 63.2301
828	 63.229
824	 63.0681
820	 62.9891
816	 63.0616
812	 63.0713
808	 63.0445
804	 63.0065
800	 62.907
796	 62.9092
792	 63.0983
788	 63.2635
784	 63.2843
780	 63.3189
776	 63.3763
772	 63.303
768	 63.1578
764	 63.0349
760	 63.0342
756	 63.1394
752	 63.2236
748	 63.1954
744	 63.0835
740	 63.0367
736	 62.9968
732	 62.883
728	 62.7855
724	 62.7463
720	 62.8174
716	 63.0758
712	 63.2129
708	 63.0011
704	 62.8337
700	 62.8802
696	 62.9632
692	 63.0474
688	 63.1478
684	 63.2838
680	 63.4682
676	 63.5738
672	 63.3979
668	 63.0402
664	 62.9384
660	 63.1199
656	 63.1287
652	 62.9374
648	 62.813
644	 62.6426
640	 62.3018
636	 62.1337
632	 62.3742
628	 62.5721
624	 62.4902
620	 62.6104
616	 63.0471
612	 63.3341
608	 63.412
604	 63.547
600	 63.2143
596	 62.4146
592	 62.1598
588	 62.2599
584	 62.3165
580	 62.7089
576	 63.1244
572	 62.9493
568	 62.6186
564	 62.8034
560	 62.9344
556	 62.2907
552	 61.9254
548	 62.5325
544	 62.9512
540	 62.8417
536	 62.8591
532	 63.0199
528	 62.9731
524	 62.4562
520	 62.312
516	 62.7192
512	 61.8187
508	 60.4805
504	 60.7071
500	 61.76
496	 62.5459
492	 62.6987
488	 62.7109
484	 62.6663
480	 62.5524
476	 62.5171
472	 61.8904
468	 61.1016
464	 60.8747
460	 61.1084
456	 61.9092
452	 62.2327
448	 61.3883
444	 60.952
440	 61.7891
436	 63.4966
432	 64.1685
428	 63.5341
424	 63.3918
420	 62.9166
416	 62.226
412	 63.1246
408	 65.3534
404	 64.6159
400	 60.7811
396	 59.6332
392	 61.5994
388	 65.2439
384	 68.0881
380	 63.1273
376	 49.4304
372	 44.8484
370	 52.3396