File: Bakgrunnsmateriale/MATLAB/FTIR/ftir_data/subAa/Mapping_121/BZ1503107-1_t71_cm-1.asc
PE IR       SPECTRUM    SPECTRUM    ASCII       PEDS        1.60
  -1
BZ69A6~1.ASC
17/04/07
19:06:31.00
17/04/07
19:06:31.00
tln
$BZ1503107-1_t0071$<tbV0>[2.6,2.6,8.0,0.0,27,1,0]
370
64

2002,4.07
MIRTGS : RIGHTBACK : INTERNAL 2
MIR : ON : INTERNAL 2
OPTKBR

0.200000
8
8.000000
FILLER
RATIO
SPECTRUM
UNLOCKED 256

DOUBLE
64
COMBINED
1
0
0

1.000000
RATIO

1
0
TRUE
51149
0
LEFT NOT FITTED RIGHT NOT FITTED 0
NONE
NONE
15600
12
4.427000
51148
TRUE
1 0 8 72 0 0 0 0

15798

#HDR
-1
-1
#GR
CM-1
%T
2.38419e-05
0.0
5000
-1.000000
4631
8
71.0231
32.2752
#DATA
5000	65.4047
4996	65.6571
4992	65.6291
4988	65.6415
4984	65.4864
4980	65.099
4976	64.83
4972	64.7317
4968	64.6327
4964	64.6818
4960	64.9734
4956	65.1869
4952	64.9747
4948	64.7269
4944	64.6111
4940	64.4734
4936	64.6165
4932	64.9272
4928	65.0581
4924	64.9399
4920	64.5503
4916	64.0711
4912	63.8794
4908	64.1433
4904	64.3938
4900	64.4214
4896	64.6287
4892	64.9028
4888	65.058
4884	65.1944
4880	65.2333
4876	65.1849
4872	65.0531
4868	64.8251
4864	64.7395
4860	64.8049
4856	64.7627
4852	64.6553
4848	64.6016
4844	64.4716
4840	64.3521
4836	64.4473
4832	64.5272
4828	64.4277
4824	64.409
4820	64.6384
4816	64.8905
4812	64.8696
4808	64.7449
4804	64.7887
4800	64.7991
4796	64.8205
4792	65.0815
4788	65.2471
4784	65.1087
4780	64.906
4776	64.8264
4772	64.8702
4768	64.977
4764	65.0378
4760	64.9512
4756	64.7683
4752	64.7026
4748	64.7974
4744	64.8346
4740	64.7256
4736	64.5959
4732	64.7139
4728	65.0318
4724	65.071
4720	64.9794
4716	65.0371
4712	64.9128
4708	64.817
4704	64.9817
4700	65.078
4696	65.0699
4692	65.054
4688	64.992
4684	64.8184
4680	64.6511
4676	64.7348
4672	64.9123
4668	64.925
4664	64.8337
4660	64.8241
4656	64.8304
4652	64.7512
4648	64.7949
4644	64.9158
4640	64.9171
4636	64.8414
4632	64.8574
4628	65.0288
4624	65.1049
4620	64.9979
4616	65.0269
4612	65.179
4608	65.1078
4604	64.854
4600	64.6939
4596	64.7744
4592	64.8444
4588	64.7032
4584	64.6569
4580	64.8004
4576	64.9101
4572	64.8102
4568	64.6422
4564	64.7255
4560	64.9012
4556	64.8296
4552	64.587
4548	64.4348
4544	64.4892
4540	64.6941
4536	64.848
4532	64.7188
4528	64.4763
4524	64.5139
4520	64.6951
4516	64.7401
4512	64.7098
4508	64.689
4504	64.6645
4500	64.7972
4496	64.9633
4492	65.0322
4488	65.2692
4484	65.4203
4480	65.1689
4476	64.7472
4472	64.467
4468	64.3048
4464	64.0987
4460	64.1457
4456	64.5208
4452	64.6531
4448	64.3209
4444	64.0886
4440	64.1383
4436	64.6549
4432	67.3648
4428	67.7956
4424	62.9368
4420	58.6491
4416	54.7544
4412	57.2621
4408	67.8235
4404	70.5388
4400	66.0109
4396	65.0247
4392	65.6551
4388	65.164
4384	65.1235
4380	65.4168
4376	65.5196
4372	65.5774
4368	65.7027
4364	65.7825
4360	65.9344
4356	65.9563
4352	65.6781
4348	65.3019
4344	65.0748
4340	65.0374
4336	65.0367
4332	64.9101
4328	64.7859
4324	64.9848
4320	65.2258
4316	65.1353
4312	64.9831
4308	65.0559
4304	65.1996
4300	65.1656
4296	65.0337
4292	65.0768
4288	65.2159
4284	65.1111
4280	64.947
4276	65.0234
4272	65.0347
4268	64.7411
4264	64.5072
4260	64.6176
4256	64.8216
4252	64.9339
4248	64.9905
4244	65.0585
4240	65.1147
4236	65.094
4232	65.0797
4228	65.0618
4224	64.9238
4220	64.6403
4216	64.5156
4212	64.6766
4208	64.8654
4204	65.0289
4200	65.0707
4196	64.9707
4192	64.919
4188	64.8344
4184	64.7149
4180	64.7824
4176	64.9614
4172	65.085
4168	65.2226
4164	65.2467
4160	65.0516
4156	64.7835
4152	64.6042
4148	64.6329
4144	64.7666
4140	64.8172
4136	64.7594
4132	64.7362
4128	64.7449
4124	64.7005
4120	64.7129
4116	64.8946
4112	65.1319
4108	65.1871
4104	65.0998
4100	65.0926
4096	65.1376
4092	65.0741
4088	64.9487
4084	64.9148
4080	64.9554
4076	65.0153
4072	65.0106
4068	64.8489
4064	64.718
4060	64.7226
4056	64.7945
4052	64.9698
4048	65.0467
4044	64.9727
4040	64.9705
4036	65.0568
4032	65.1007
4028	65.0115
4024	64.9523
4020	64.948
4016	64.9251
4012	65.0099
4008	65.1179
4004	65.0512
4000	64.877
3996	64.7798
3992	64.8252
3988	64.9457
3984	64.9415
3980	64.8105
3976	64.7907
3972	64.9243
3968	65.0676
3964	65.0662
3960	64.889
3956	64.7384
3952	64.7797
3948	64.8977
3944	64.9611
3940	64.9844
3936	64.9168
3932	64.8466
3928	64.8802
3924	64.8611
3920	64.846
3916	64.948
3912	65.0227
3908	65.0383
3904	65.1286
3900	65.1796
3896	65.0533
3892	65.0134
3888	65.1331
3884	65.1095
3880	64.9163
3876	64.8241
3872	64.9386
3868	65.0791
3864	65.0923
3860	65.1012
3856	65.1393
3852	65.0596
3848	64.9017
3844	64.8388
3840	64.902
3836	64.9767
3832	65.0168
3828	65.05
3824	65.0414
3820	65.0125
3816	65.0744
3812	65.0968
3808	64.977
3804	64.9555
3800	65.0796
3796	65.1685
3792	65.1697
3788	65.0984
3784	65.041
3780	65.0789
3776	65.1337
3772	65.0997
3768	65.0061
3764	64.9813
3760	65.0576
3756	65.1068
3752	65.1317
3748	65.1872
3744	65.2292
3740	65.244
3736	65.1568
3732	65.0335
3728	65.0096
3724	65.0715
3720	65.1669
3716	65.1892
3712	65.1363
3708	65.0831
3704	65.0455
3700	65.0132
3696	65.082
3692	65.2511
3688	65.2761
3684	65.1892
3680	65.1568
3676	65.2017
3672	65.2784
3668	65.3
3664	65.2663
3660	65.182
3656	65.1364
3652	65.1575
3648	65.0882
3644	65.0565
3640	65.1656
3636	65.2329
3632	65.2277
3628	65.0988
3624	64.9306
3620	64.9711
3616	65.1343
3612	65.2178
3608	65.1459
3604	64.9738
3600	64.8357
3596	64.8088
3592	64.8294
3588	64.8187
3584	64.8108
3580	64.8677
3576	65.0119
3572	65.097
3568	65.0579
3564	65.0253
3560	65.05
3556	65.0919
3552	65.0992
3548	65.0442
3544	64.9365
3540	64.9111
3536	65.0097
3532	65.0444
3528	64.965
3524	64.916
3520	64.993
3516	65.1018
3512	65.1262
3508	65.1339
3504	65.1822
3500	65.1618
3496	65.0943
3492	65.037
3488	64.9551
3484	64.8878
3480	64.9091
3476	65.0123
3472	65.0935
3468	65.1092
3464	65.0371
3460	64.9433
3456	64.9576
3452	65.0266
3448	65.0253
3444	64.9754
3440	64.9193
3436	64.9066
3432	64.9752
3428	64.9613
3424	64.8713
3420	64.9238
3416	65.0416
3412	65.0349
3408	64.9648
3404	64.9751
3400	65.082
3396	65.1676
3392	65.1164
3388	64.9849
3384	64.9014
3380	64.916
3376	65.0219
3372	65.0618
3368	64.9914
3364	64.9641
3360	65.0023
3356	65.0471
3352	65.0041
3348	64.9582
3344	65.0455
3340	65.1178
3336	65.0984
3332	65.0635
3328	65.0425
3324	65.0429
3320	65.0311
3316	65.0119
3312	65.0585
3308	65.0977
3304	65.0545
3300	65.0114
3296	64.9732
3292	64.9199
3288	64.9415
3284	64.9924
3280	64.962
3276	64.955
3272	64.9833
3268	64.9913
3264	64.9748
3260	64.9052
3256	64.8874
3252	64.9767
3248	65.0949
3244	65.1458
3240	65.1586
3236	65.2045
3232	65.1899
3228	65.0905
3224	65.028
3220	65.0091
3216	65.0049
3212	65.0135
3208	65.0369
3204	65.0599
3200	65.0312
3196	65.023
3192	65.0281
3188	64.999
3184	64.982
3180	64.9884
3176	65.0259
3172	65.0412
3168	65.0358
3164	65.0604
3160	65.0503
3156	64.9588
3152	64.9146
3148	65.0098
3144	65.0706
3140	64.954
3136	64.822
3132	64.8294
3128	64.9214
3124	65.0439
3120	65.1316
3116	65.0713
3112	64.9014
3108	64.8251
3104	64.9015
3100	64.976
3096	64.9582
3092	64.8999
3088	64.8645
3084	64.8607
3080	64.8767
3076	64.8788
3072	64.887
3068	64.9583
3064	65.0407
3060	65.0738
3056	65.0532
3052	64.9769
3048	64.9101
3044	64.9004
3040	64.9244
3036	64.9447
3032	64.8915
3028	64.8447
3024	64.9209
3020	64.9724
3016	64.9368
3012	64.9244
3008	64.9664
3004	65.0089
3000	64.9362
2996	64.8361
2992	64.8482
2988	64.8336
2984	64.722
2980	64.7108
2976	64.8336
2972	64.9014
2968	64.8993
2964	64.877
2960	64.7884
2956	64.7038
2952	64.7091
2948	64.7418
2944	64.7224
2940	64.6963
2936	64.7438
2932	64.7673
2928	64.7369
2924	64.797
2920	64.9436
2916	64.957
2912	64.7882
2908	64.6984
2904	64.7369
2900	64.7515
2896	64.7276
2892	64.7294
2888	64.754
2884	64.7295
2880	64.6918
2876	64.7429
2872	64.8299
2868	64.8331
2864	64.8527
2860	64.9119
2856	64.8674
2852	64.802
2848	64.7882
2844	64.7924
2840	64.8335
2836	64.8425
2832	64.7772
2828	64.7372
2824	64.8121
2820	64.9443
2816	65.0187
2812	65.012
2808	64.9566
2804	64.8885
2800	64.829
2796	64.8281
2792	64.8763
2788	64.8938
2784	64.9159
2780	64.9517
2776	64.9162
2772	64.836
2768	64.8099
2764	64.8615
2760	64.8899
2756	64.8472
2752	64.8153
2748	64.8028
2744	64.8172
2740	64.8919
2736	64.9405
2732	64.928
2728	64.9593
2724	65.0114
2720	64.9882
2716	64.9673
2712	64.9565
2708	64.8774
2704	64.7831
2700	64.7464
2696	64.752
2692	64.7619
2688	64.822
2684	64.9231
2680	64.9425
2676	64.8728
2672	64.8257
2668	64.798
2664	64.768
2660	64.7888
2656	64.8123
2652	64.7862
2648	64.7782
2644	64.82
2640	64.8286
2636	64.7558
2632	64.7246
2628	64.7901
2624	64.847
2620	64.8654
2616	64.8596
2612	64.813
2608	64.7489
2604	64.7137
2600	64.6883
2596	64.6817
2592	64.7401
2588	64.7444
2584	64.6977
2580	64.7327
2576	64.7972
2572	64.7965
2568	64.7419
2564	64.7257
2560	64.7267
2556	64.6788
2552	64.662
2548	64.7114
2544	64.7446
2540	64.7566
2536	64.8066
2532	64.8399
2528	64.8269
2524	64.8131
2520	64.793
2516	64.7629
2512	64.7098
2508	64.657
2504	64.6461
2500	64.6593
2496	64.6774
2492	64.6931
2488	64.738
2484	64.7889
2480	64.8109
2476	64.8111
2472	64.7346
2468	64.6598
2464	64.6785
2460	64.7401
2456	64.787
2452	64.7734
2448	64.7577
2444	64.741
2440	64.6667
2436	64.6354
2432	64.7163
2428	64.7644
2424	64.695
2420	64.654
2416	64.7229
2412	64.8015
2408	64.7865
2404	64.7395
2400	64.7098
2396	64.6349
2392	64.5661
2388	64.5802
2384	64.6121
2380	64.6117
2376	64.6664
2372	64.7428
2368	64.688
2364	64.6112
2360	64.6185
2356	64.582
2352	64.5727
2348	64.6618
2344	64.6728
2340	64.6279
2336	64.6711
2332	64.727
2328	64.6869
2324	64.6281
2320	64.6337
2316	64.6477
2312	64.628
2308	64.6003
2304	64.5871
2300	64.563
2296	64.559
2292	64.6014
2288	64.6129
2284	64.6023
2280	64.6298
2276	64.6711
2272	64.6805
2268	64.6721
2264	64.6867
2260	64.7076
2256	64.6871
2252	64.6317
2248	64.5631
2244	64.539
2240	64.5703
2236	64.5607
2232	64.5404
2228	64.5877
2224	64.6309
2220	64.6191
2216	64.6158
2212	64.6255
2208	64.5878
2204	64.5117
2200	64.4579
2196	64.4381
2192	64.4775
2188	64.5783
2184	64.6137
2180	64.5626
2176	64.5165
2172	64.5077
2168	64.5735
2164	64.5927
2160	64.4752
2156	64.4021
2152	64.4156
2148	64.4365
2144	64.4868
2140	64.5311
2136	64.5731
2132	64.6042
2128	64.5692
2124	64.5112
2120	64.4606
2116	64.4418
2112	64.5017
2108	64.584
2104	64.5992
2100	64.5469
2096	64.512
2092	64.5299
2088	64.5192
2084	64.4717
2080	64.4814
2076	64.5506
2072	64.5648
2068	64.4832
2064	64.4262
2060	64.4616
2056	64.481
2052	64.3987
2048	64.2929
2044	64.2659
2040	64.3305
2036	64.4239
2032	64.4192
2028	64.3453
2024	64.361
2020	64.4229
2016	64.446
2012	64.4696
2008	64.4965
2004	64.4967
2000	64.4375
1996	64.3525
1992	64.32
1988	64.3512
1984	64.4078
1980	64.4328
1976	64.4276
1972	64.406
1968	64.3625
1964	64.3674
1960	64.4254
1956	64.4284
1952	64.3822
1948	64.3633
1944	64.3506
1940	64.2973
1936	64.2475
1932	64.2515
1928	64.2865
1924	64.2929
1920	64.2745
1916	64.2758
1912	64.2769
1908	64.2811
1904	64.2914
1900	64.2808
1896	64.2669
1892	64.2834
1888	64.323
1884	64.3461
1880	64.34
1876	64.3101
1872	64.2981
1868	64.3119
1864	64.2987
1860	64.279
1856	64.2993
1852	64.3139
1848	64.2844
1844	64.2764
1840	64.289
1836	64.2822
1832	64.2686
1828	64.2309
1824	64.1757
1820	64.1748
1816	64.2229
1812	64.2456
1808	64.2226
1804	64.1724
1800	64.1634
1796	64.2057
1792	64.1947
1788	64.1587
1784	64.1719
1780	64.201
1776	64.2615
1772	64.3134
1768	64.2892
1764	64.2776
1760	64.29
1756	64.1875
1752	64.0387
1748	64.006
1744	63.9817
1740	63.8885
1736	63.818
1732	63.8019
1728	63.8614
1724	63.9747
1720	64.0598
1716	64.1094
1712	64.1498
1708	64.1285
1704	64.039
1700	63.9768
1696	63.9929
1692	64.0556
1688	64.0746
1684	64.0396
1680	64.0193
1676	64.0159
1672	64.0188
1668	64.0159
1664	63.9848
1660	63.9634
1656	63.9849
1652	64.0129
1648	64.0288
1644	64.018
1640	63.9657
1636	63.9594
1632	64.0498
1628	64.159
1624	64.2251
1620	64.2197
1616	64.1593
1612	64.062
1608	63.97
1604	63.9654
1600	64.0048
1596	63.9912
1592	63.9546
1588	63.9998
1584	64.0609
1580	64.0098
1576	63.9405
1572	63.9591
1568	63.98
1564	63.9366
1560	63.902
1556	63.9127
1552	63.9006
1548	63.8613
1544	63.8666
1540	63.9074
1536	63.8875
1532	63.8364
1528	63.8574
1524	63.9544
1520	64.0455
1516	64.0616
1512	64.0053
1508	63.9583
1504	63.9342
1500	63.8635
1496	63.8094
1492	63.8499
1488	63.9335
1484	63.9788
1480	63.9578
1476	63.9103
1472	63.8566
1468	63.8068
1464	63.7833
1460	63.8616
1456	63.9532
1452	63.9085
1448	63.8636
1444	63.9109
1440	63.9522
1436	63.9262
1432	63.8991
1428	63.9299
1424	63.956
1420	63.9146
1416	63.8244
1412	63.7088
1408	63.6214
1404	63.6589
1400	63.7595
1396	63.7914
1392	63.7663
1388	63.7296
1384	63.6855
1380	63.643
1376	63.598
1372	63.6081
1368	63.6799
1364	63.7072
1360	63.6934
1356	63.6771
1352	63.6709
1348	63.7156
1344	63.7449
1340	63.7497
1336	63.8099
1332	63.8126
1328	63.7568
1324	63.759
1320	63.7725
1316	63.7616
1312	63.7436
1308	63.768
1304	63.8253
1300	63.7878
1296	63.6629
1292	63.603
1288	63.6341
1284	63.6407
1280	63.6018
1276	63.5677
1272	63.546
1268	63.5538
1264	63.5558
1260	63.5458
1256	63.5787
1252	63.6083
1248	63.5825
1244	63.5704
1240	63.6214
1236	63.6833
1232	63.6475
1228	63.5452
1224	63.5448
1220	63.6018
1216	63.6275
1212	63.6545
1208	63.6782
1204	63.6677
1200	63.6578
1196	63.6648
1192	63.6225
1188	63.5808
1184	63.592
1180	63.5545
1176	63.4532
1172	63.4136
1168	63.4176
1164	63.4
1160	63.4306
1156	63.5074
1152	63.5129
1148	63.475
1144	63.5206
1140	63.5989
1136	63.6123
1132	63.5364
1128	63.4595
1124	63.4798
1120	63.5168
1116	63.5344
1112	63.5244
1108	63.4589
1104	63.3943
1100	63.3329
1096	63.3316
1092	63.434
1088	63.5247
1084	63.5326
1080	63.4691
1076	63.4297
1072	63.4794
1068	63.5244
1064	63.5317
1060	63.5286
1056	63.5572
1052	63.6182
1048	63.6328
1044	63.6471
1040	63.6086
1036	63.4598
1032	63.349
1028	63.3328
1024	63.3597
1020	63.3564
1016	63.3161
1012	63.3474
1008	63.4375
1004	63.4705
1000	63.4547
996	 63.4614
992	 63.508
988	 63.5502
984	 63.6541
980	 63.7319
976	 63.5727
972	 63.4219
968	 63.4613
964	 63.5086
960	 63.4977
956	 63.4617
952	 63.3725
948	 63.322
944	 63.3661
940	 63.35
936	 63.3271
932	 63.4602
928	 63.6144
924	 63.6261
920	 63.6259
916	 63.7029
912	 63.6674
908	 63.5273
904	 63.5093
900	 63.5593
896	 63.5397
892	 63.5389
888	 63.6276
884	 63.6582
880	 63.5448
876	 63.4779
872	 63.5467
868	 63.5389
864	 63.3779
860	 63.3071
856	 63.3324
852	 63.2949
848	 63.3171
844	 63.4405
840	 63.4939
836	 63.3412
832	 63.1564
828	 63.2174
824	 63.3326
820	 63.3165
816	 63.2688
812	 63.2803
808	 63.3351
804	 63.3188
800	 63.2765
796	 63.1133
792	 62.9487
788	 63.0193
784	 63.2929
780	 63.8285
776	 64.1732
772	 63.8964
768	 63.454
764	 63.2442
760	 63.2022
756	 63.2438
752	 63.2102
748	 62.9172
744	 62.5799
740	 62.6105
736	 62.9044
732	 63.2728
728	 63.5576
724	 63.1359
720	 62.3712
716	 62.2127
712	 62.6012
708	 62.8591
704	 62.7857
700	 62.9056
696	 63.2402
692	 63.4779
688	 63.4423
684	 63.1789
680	 63.2578
676	 63.6165
672	 63.5215
668	 62.9438
664	 62.7122
660	 63.0275
656	 62.9739
652	 62.5142
648	 62.412
644	 62.481
640	 62.2262
636	 62.054
632	 62.2699
628	 62.3578
624	 62.3101
620	 62.5683
616	 63.0677
612	 63.506
608	 63.6
604	 63.5012
600	 63.2734
596	 62.732
592	 62.4267
588	 62.5467
584	 62.6662
580	 62.8482
576	 63.2239
572	 63.6019
568	 63.6499
564	 63.2916
560	 63.0141
556	 62.9552
552	 62.9394
548	 63.0157
544	 63.083
540	 62.9696
536	 62.9442
532	 63.1343
528	 63.2069
524	 63.1754
520	 63.0105
516	 62.8798
512	 62.9471
508	 62.7501
504	 62.5583
500	 62.65
496	 62.9
492	 63.2037
488	 63.419
484	 63.4611
480	 63.0125
476	 62.1734
472	 61.7681
468	 61.8294
464	 61.9871
460	 62.1356
456	 61.7528
452	 61.3403
448	 61.9639
444	 62.4814
440	 62.2873
436	 62.2832
432	 62.0445
428	 62.195
424	 63.2277
420	 64.3011
416	 64.7905
412	 63.4495
408	 60.8751
404	 59.2291
400	 57.5611
396	 54.4491
392	 54.465
388	 60.6758
384	 68.2972
380	 68.6425
376	 56.771
372	 37.5686
370	 32.2752