File: Bakgrunnsmateriale/MATLAB/FTIR/ftir_data/subAa/Mapping_121/BZ1503107-1_t84.asc
PE IR       SPECTRUM    SPECTRUM    ASCII       PEDS        1.60
  -1
BZ2955~1.ASC
17/04/07
20:07:11.00
17/04/07
20:07:37.00
tln
$BZ1503107-1_t0084$<tbV0>[-2.6,5.2,8.0,0.0,27,1,0]
27.028
64

2002,4.07
MIRTGS : RIGHTBACK : INTERNAL 2
MIR : ON : INTERNAL 2
OPTKBR

0.200000
8
8.000000
FILLER
RATIO
SPECTRUM
UNLOCKED 256

DOUBLE
64
COMBINED
1
0
0

0.002000
RATIO

1
0
TRUE
51149
0
LEFT NOT FITTED RIGHT NOT FITTED 0
NONE
NONE
15600
12
4.427000
51148
TRUE
1 0 8 72 0 0 0 0

15798

#HDR
-1
-1
#GR
µM
%T
2.38419e-05
0.0
2.000000
0.002000
12515
8
69.1703
40.0123
#DATA
2.000000	 65.9016
2.018000	 65.1031
2.036000	 64.9639
2.054000	 64.3505
2.072000	 64.54
2.090000	 64.5389
2.108000	 64.8676
2.126000	 64.7355
2.144000	 64.7535
2.162000	 64.6111
2.180000	 64.9293
2.198000	 65.1168
2.216000	 64.8865
2.234000	 64.4238
2.252000	 66.2198
2.270000	 65.6097
2.288000	 65.0573
2.306000	 65.0157
2.324000	 65.0586
2.342000	 65.2841
2.360000	 64.8049
2.378000	 64.8011
2.396000	 64.7746
2.414000	 64.6266
2.432000	 65.2822
2.450000	 64.9439
2.468000	 64.8997
2.486000	 65.0004
2.504000	 64.9369
2.522000	 64.9621
2.540000	 64.9173
2.558000	 64.9637
2.576000	 65.0886
2.594000	 65.0332
2.612000	 64.869
2.630000	 64.993
2.648000	 65.0777
2.666000	 65.0257
2.684000	 65.0695
2.702000	 65.1403
2.720000	 65.2113
2.738000	 65.0892
2.756000	 64.9279
2.774000	 65.0693
2.792000	 64.788
2.810000	 64.9671
2.828000	 64.9857
2.846000	 65.1262
2.864000	 64.8676
2.882000	 65.038
2.900000	 65.0785
2.918000	 64.9812
2.936000	 64.904
2.954000	 64.8668
2.972000	 64.9503
2.990000	 64.9086
3.008000	 64.9983
3.026000	 64.9381
3.044000	 64.8878
3.062000	 64.8358
3.080000	 64.9156
3.098000	 64.8572
3.116000	 64.8496
3.134000	 65.0189
3.152000	 65.015
3.170000	 64.9536
3.188000	 64.917
3.206000	 64.9673
3.224000	 64.9416
3.242000	 64.8276
3.260000	 64.9876
3.278000	 64.7616
3.296000	 64.7519
3.314000	 64.9269
3.332000	 64.7923
3.350000	 64.7176
3.368000	 64.6826
3.386000	 64.6766
3.404000	 64.7671
3.422000	 64.6299
3.440000	 64.7235
3.458000	 64.7069
3.476000	 64.776
3.494000	 64.6283
3.512000	 64.822
3.530000	 64.7831
3.548000	 64.8771
3.566000	 64.81
3.584000	 64.8558
3.602000	 64.8893
3.620000	 64.8936
3.638000	 64.7796
3.656000	 64.7041
3.674000	 64.8604
3.692000	 64.7759
3.710000	 64.687
3.728000	 64.8572
3.746000	 64.7397
3.764000	 64.7157
3.782000	 64.6257
3.800000	 64.6928
3.818000	 64.6916
3.836000	 64.6729
3.854000	 64.7541
3.872000	 64.6227
3.890000	 64.6376
3.908000	 64.66
3.926000	 64.6169
3.944000	 64.5818
3.962000	 64.7449
3.980000	 64.586
3.998000	 64.6975
4.016000	 64.6783
4.034000	 64.6724
4.052000	 64.5845
4.070000	 64.6715
4.088000	 64.6652
4.106000	 64.6024
4.124000	 64.6748
4.141999	 64.7075
4.160000	 64.597
4.178000	 64.4884
4.196000	 64.578
4.214000	 64.5612
4.232000	 64.4406
4.250000	 64.5455
4.268000	 64.5656
4.286000	 64.6213
4.304000	 64.5546
4.322000	 64.4634
4.340000	 64.4645
4.358000	 64.5313
4.375999	 64.5239
4.394000	 64.5523
4.412000	 64.5038
4.430000	 64.5605
4.448000	 64.4911
4.466000	 64.5117
4.484000	 64.5449
4.502000	 64.4501
4.520000	 64.5169
4.538000	 64.4667
4.556000	 64.4392
4.574000	 64.4354
4.592000	 64.3843
4.609999	 64.3578
4.628000	 64.4388
4.646000	 64.51
4.664000	 64.4522
4.682000	 64.3152
4.700000	 64.3002
4.718000	 64.2868
4.736000	 64.3926
4.754000	 64.4093
4.772000	 64.3123
4.790000	 64.2717
4.808000	 64.3358
4.826000	 64.3011
4.843999	 64.2324
4.862000	 64.2574
4.880000	 64.2958
4.898000	 64.233
4.916000	 64.2082
4.934000	 64.225
4.952000	 64.2245
4.970000	 64.2574
4.988000	 64.3548
5.006000	 64.1957
5.024000	 64.1509
5.042000	 64.2389
5.060000	 64.2852
5.077999	 64.1765
5.096000	 64.1846
5.114000	 64.2528
5.132000	 64.1846
5.150000	 64.1616
5.168000	 64.2791
5.186000	 64.2031
5.204000	 64.2153
5.222000	 64.2694
5.240000	 64.2696
5.258000	 64.181
5.276000	 64.179
5.294000	 64.2357
5.312000	 64.1611
5.330000	 64.1793
5.348000	 64.1372
5.366000	 64.1846
5.384000	 64.1901
5.402000	 64.1689
5.420000	 64.1159
5.438000	 64.0837
5.456000	 64.1992
5.474000	 64.1556
5.492000	 64.0681
5.510000	 64.2234
5.528000	 64.1771
5.546000	 64.1156
5.564000	 64.0847
5.582000	 64.0703
5.600000	 64.1301
5.618000	 64.0822
5.636000	 64.0762
5.654000	 64.0939
5.672000	 64.1056
5.690000	 64.0314
5.708000	 63.7936
5.726000	 63.7421
5.744000	 63.8484
5.762000	 63.8563
5.780000	 63.891
5.798000	 63.8874
5.816000	 63.881
5.834000	 63.9285
5.852000	 63.8918
5.870000	 63.8432
5.888000	 63.9133
5.906000	 64.0122
5.923999	 63.9808
5.942000	 63.907
5.960000	 63.8849
5.978000	 63.8221
5.996000	 63.793
6.014000	 63.9294
6.032000	 63.9996
6.050000	 63.8788
6.068000	 63.8517
6.086000	 63.838
6.104000	 63.7211
6.122000	 63.7504
6.140000	 63.8628
6.158000	 63.8857
6.176000	 63.9628
6.194000	 63.9324
6.212000	 63.7276
6.230000	 63.6287
6.248000	 63.7237
6.266000	 63.8295
6.284000	 63.8412
6.302000	 63.9199
6.320000	 63.9812
6.338000	 63.9228
6.356000	 63.8616
6.374000	 63.8171
6.392000	 63.7674
6.410000	 63.8057
6.428000	 63.8333
6.446000	 63.7552
6.464000	 63.7608
6.482000	 63.8565
6.500000	 63.8461
6.518000	 63.7223
6.536000	 63.7047
6.554000	 63.7855
6.572000	 63.7954
6.590000	 63.7433
6.608000	 63.758
6.626000	 63.819
6.644000	 63.82
6.662000	 63.7648
6.680000	 63.7154
6.698000	 63.7245
6.716000	 63.7749
6.734000	 63.7998
6.752000	 63.7917
6.770000	 63.7631
6.788000	 63.7053
6.806000	 63.6451
6.824000	 63.6348
6.842000	 63.6798
6.860000	 63.7142
6.878000	 63.6756
6.896000	 63.6154
6.914000	 63.6063
6.932000	 63.6334
6.950000	 63.6944
6.968000	 63.7452
6.986000	 63.7079
7.004000	 63.6371
7.022000	 63.6002
7.040000	 63.5885
7.058000	 63.6145
7.076000	 63.6388
7.094000	 63.611
7.112000	 63.5816
7.130000	 63.576
7.148000	 63.5787
7.166000	 63.6066
7.184000	 63.6488
7.202000	 63.6676
7.220000	 63.6448
7.238000	 63.577
7.256000	 63.4887
7.274000	 63.4479
7.292000	 63.4995
7.310000	 63.5802
7.328000	 63.5956
7.346000	 63.5619
7.364000	 63.5528
7.382000	 63.5729
7.400000	 63.5829
7.418000	 63.5604
7.436000	 63.5192
7.454000	 63.5219
7.472000	 63.6022
7.490000	 63.6835
7.508000	 63.6845
7.526000	 63.6435
7.544000	 63.6326
7.562000	 63.627
7.580000	 63.565
7.598000	 63.488
7.616000	 63.4924
7.634000	 63.5651
7.652000	 63.6113
7.670000	 63.5864
7.688000	 63.5012
7.706000	 63.3922
7.724000	 63.3219
7.742000	 63.3237
7.760000	 63.3593
7.778000	 63.377
7.796000	 63.3672
7.814000	 63.3455
7.832000	 63.329
7.850000	 63.3387
7.868000	 63.3772
7.886000	 63.4004
7.904000	 63.3721
7.922000	 63.3255
7.940000	 63.3219
7.958000	 63.3756
7.976000	 63.4481
7.994000	 63.4916
8.012000	 63.484
8.030000	 63.4413
8.048000	 63.3925
8.065999	 63.3518
8.084000	 63.3248
8.102000	 63.3149
8.120000	 63.3202
8.138000	 63.338
8.155999	 63.3656
8.173999	 63.3841
8.192000	 63.3706
8.210000	 63.3409
8.228000	 63.3445
8.246000	 63.4032
8.263999	 63.4855
8.282000	 63.5432
8.300000	 63.5541
8.318000	 63.5294
8.336000	 63.5013
8.353999	 63.4867
8.372000	 63.4638
8.390000	 63.4089
8.408000	 63.3435
8.426000	 63.3124
8.443999	 63.3217
8.462000	 63.3358
8.480000	 63.3303
8.498000	 63.3124
8.516000	 63.2941
8.533999	 63.2732
8.552000	 63.247
8.570000	 63.2266
8.588000	 63.2281
8.606000	 63.2558
8.624000	 63.2939
8.641999	 63.3179
8.660000	 63.3196
8.678000	 63.3183
8.696000	 63.3376
8.714000	 63.3758
8.731999	 63.4076
8.750000	 63.4126
8.768000	 63.3929
8.786000	 63.3619
8.804000	 63.3297
8.821999	 63.3
8.840000	 63.2742
8.858000	 63.2562
8.876000	 63.2558
8.894000	 63.2835
8.911999	 63.3367
8.930000	 63.3949
8.948000	 63.4318
8.966000	 63.4346
8.984000	 63.4113
9.001999	 63.3786
9.020000	 63.3481
9.038000	 63.3234
9.056000	 63.3032
9.074000	 63.2863
9.092000	 63.2718
9.109999	 63.2549
9.128000	 63.2294
9.146000	 63.1981
9.164000	 63.1777
9.182000	 63.1845
9.199999	 63.2153
9.218000	 63.2455
9.236000	 63.2516
9.254000	 63.236
9.272000	 63.2257
9.289999	 63.245
9.308000	 63.2909
9.326000	 63.3356
9.344000	 63.3518
9.362000	 63.3346
9.379999	 63.3024
9.398000	 63.2767
9.416000	 63.2652
9.434000	 63.262
9.452000	 63.2602
9.469999	 63.2617
9.488000	 63.2726
9.506000	 63.2919
9.524000	 63.3077
9.542000	 63.3062
9.560000	 63.2844
9.577999	 63.2513
9.596000	 63.2179
9.614000	 63.1916
9.632000	 63.1785
9.650000	 63.1855
9.667999	 63.2162
9.686000	 63.26
9.704000	 63.2908
9.722000	 63.2816
9.740000	 63.2236
9.757999	 63.1366
9.776000	 63.0566
9.794000	 63.01
9.812000	 62.996
9.830000	 62.9938
9.847999	 62.986
9.866000	 62.9762
9.884000	 62.9854
9.902000	 63.0334
9.920000	 63.1184
9.937999	 63.2136
9.956000	 63.281
9.974000	 63.2939
9.992000	 63.2506
10.01	63.1734
10.028	63.0952
10.046	63.0414
10.064	63.0187
10.082	63.0194
10.1	63.0321
10.118	63.0542
10.136	63.0926
10.154	63.1536
10.172	63.2324
10.19	63.3083
10.208	63.3538
10.226	63.3495
10.244	63.2952
10.262	63.2136
10.28	63.1377
10.298	63.0962
10.316	63.1016
10.334	63.1451
10.352	63.2054
10.37	63.2585
10.388	63.2898
10.406	63.2972
10.424	63.287
10.442	63.2679
10.46	63.2456
10.478	63.2234
10.496	63.2031
10.514	63.1873
10.532	63.1785
10.55	63.1786
10.568	63.187
10.586	63.1985
10.604	63.2059
10.622	63.2014
10.64	63.1817
10.658	63.1488
10.676	63.1119
10.694	63.082
10.712	63.0681
10.73	63.073
10.748	63.0918
10.766	63.1154
10.784	63.1356
10.802	63.1481
10.82	63.1546
10.838	63.1612
10.856	63.1745
10.874	63.199
10.892	63.2326
10.91	63.2667
10.928	63.289
10.946	63.2893
10.964	63.2651
10.982	63.2231
11	63.1757
11.018	63.1358
11.036	63.1096
11.054	63.0956
11.072	63.0877
11.09	63.0801
11.108	63.0719
11.126	63.0675
11.144	63.0733
11.162	63.0932
11.18	63.1275
11.198	63.172
11.216	63.2199
11.234	63.2636
11.252	63.2947
11.27	63.3064
11.288	63.2936
11.306	63.2558
11.324	63.2001
11.342	63.1403
11.36	63.0923
11.378	63.0698
11.396	63.0773
11.414	63.1092
11.432	63.1519
11.45	63.1907
11.468	63.2135
11.486	63.2153
11.504	63.1967
11.522	63.163
11.54	63.1213
11.558	63.0799
11.576	63.047
11.594	63.0296
11.612	63.0323
11.63	63.054
11.648	63.0877
11.666	63.1207
11.684	63.1398
11.702	63.1364
11.72	63.1098
11.738	63.0674
11.756	63.0208
11.774	62.9823
11.792	62.9604
11.81	62.9573
11.828	62.9699
11.846	62.992
11.864	63.0167
11.882	63.0384
11.9	63.0534
11.918	63.0597
11.936	63.0568
11.954	63.0451
11.972	63.0277
11.99	63.0099
12.008	62.9988
12.026	63.002
12.044	63.0255
12.062	63.0719
12.08	63.1379
12.098	63.2155
12.116	63.2919
12.134	63.3529
12.152	63.3863
12.17	63.3845
12.188	63.3462
12.206	63.2769
12.224	63.1884
12.242	63.0952
12.26	63.0119
12.278	62.9504
12.296	62.9178
12.314	62.9147
12.332	62.9363
12.35	62.9744
12.368	63.0191
12.386	63.0609
12.404	63.0931
12.422	63.1123
12.44	63.1176
12.458	63.1105
12.476	63.0934
12.494	63.0697
12.512	63.0428
12.53	63.0168
12.548	62.9954
12.566	62.982
12.584	62.9781
12.602	62.9829
12.62	62.9924
12.638	63.0009
12.656	63.003
12.674	62.995
12.692	62.9776
12.71	62.9553
12.728	62.9356
12.746	62.9272
12.764	62.936
12.782	62.9629
12.8	63.0028
12.818	63.0459
12.836	63.0799
12.854	63.0941
12.872	63.0819
12.89	63.0431
12.908	62.984
12.926	62.9153
12.944	62.8488
12.962	62.7948
12.98	62.7594
12.998	62.7435
13.016	62.7436
13.034	62.7533
13.052	62.7658
13.07	62.7764
13.088	62.7824
13.106	62.7845
13.124	62.7848
13.142	62.7863
13.16	62.7916
13.178	62.8019
13.196	62.8166
13.214	62.8338
13.232	62.851
13.25	62.8654
13.268	62.875
13.286	62.8781
13.304	62.8741
13.322	62.8628
13.34	62.8447
13.358	62.8208
13.376	62.7926
13.394	62.7622
13.412	62.7321
13.43	62.7051
13.448	62.6839
13.466	62.6712
13.484	62.6686
13.502	62.6768
13.52	62.6952
13.538	62.7218
13.556	62.7536
13.574	62.7873
13.592	62.819
13.61	62.8451
13.628	62.8629
13.646	62.8704
13.664	62.8673
13.682	62.8543
13.7	62.8334
13.718	62.8077
13.736	62.7805
13.754	62.7556
13.772	62.7356
13.79	62.7221
13.808	62.7153
13.826	62.7139
13.844	62.7159
13.862	62.7186
13.88	62.72
13.898	62.7187
13.916	62.7141
13.934	62.7068
13.952	62.6977
13.97	62.6877
13.988	62.6774
14.006	62.6665
14.024	62.6537
14.042	62.6374
14.06	62.6161
14.078	62.5893
14.096	62.5575
14.114	62.5229
14.132	62.4888
14.15	62.4592
14.168	62.4383
14.186	62.4294
14.204	62.4339
14.222	62.4513
14.24	62.4798
14.258	62.5163
14.276	62.5573
14.294	62.5994
14.312	62.64
14.33	62.6777
14.348	62.712
14.366	62.7433
14.384	62.772
14.402	62.7986
14.42	62.8226
14.438	62.8436
14.456	62.8601
14.474	62.8708
14.492	62.8743
14.51	62.8699
14.528	62.8585
14.546	62.8424
14.564	62.8249
14.582	62.8101
14.6	62.8023
14.618	62.805
14.636	62.82
14.654	62.8471
14.672	62.8836
14.69	62.9252
14.708	62.9664
14.726	63.0012
14.744	63.0233
14.762	63.0287
14.78	63.015
14.798	62.9816
14.816	62.9295
14.834	62.8612
14.852	62.7802
14.87	62.6908
14.888	62.5973
14.906	62.5043
14.924	62.4164
14.942	62.3381
14.96	62.2734
14.978	62.2262
14.996	62.1994
15.014	62.1954
15.032	62.2151
15.05	62.2572
15.068	62.3183
15.086	62.3933
15.104	62.4758
15.122	62.5571
15.14	62.6288
15.158	62.6837
15.176	62.716
15.194	62.7213
15.212	62.6985
15.23	62.65
15.248	62.58
15.266	62.494
15.284	62.4006
15.302	62.3076
15.32	62.2216
15.338	62.1482
15.356	62.0915
15.374	62.0533
15.392	62.0325
15.41	62.0268
15.428	62.0324
15.446	62.0432
15.464	62.0538
15.482	62.0594
15.5	62.0552
15.518	62.0372
15.536	62.0044
15.554	61.9571
15.572	61.8963
15.59	61.8272
15.608	61.7544
15.626	61.6835
15.644	61.6215
15.662	61.5759
15.68	61.5519
15.698	61.5538
15.716	61.5854
15.734	61.6465
15.752	61.7351
15.77	61.8482
15.788	61.9778
15.806	62.1155
15.824	62.2533
15.842	62.3812
15.86	62.4892
15.878	62.5716
15.896	62.6234
15.914	62.6419
15.932	62.6292
15.95	62.5881
15.968	62.5242
15.986	62.4465
16.004	62.3619
16.022	62.2779
16.04	62.2035
16.058	62.1432
16.076	62.1006
16.094	62.0779
16.112	62.0737
16.13	62.0868
16.148	62.1144
16.166	62.1524
16.184	62.198
16.202	62.2484
16.22	62.3006
16.238	62.3535
16.256	62.4059
16.274	62.4571
16.292	62.5064
16.31	62.5534
16.328	62.5969
16.346	62.6356
16.364	62.6685
16.382	62.6937
16.4	62.7107
16.418	62.7189
16.436	62.7188
16.454	62.7123
16.472	62.7009
16.49	62.6876
16.508	62.6752
16.526	62.6653
16.544	62.6606
16.562	62.6612
16.58	62.6675
16.598	62.6779
16.616	62.69
16.634	62.702
16.652	62.7095
16.67	62.7108
16.688	62.7035
16.706	62.6866
16.724	62.6609
16.742	62.6272
16.76	62.5894
16.778	62.5497
16.796	62.5127
16.814	62.4822
16.832	62.4605
16.85	62.4508
16.868	62.453
16.886	62.467
16.904	62.4903
16.922	62.5204
16.94	62.5542
16.958	62.5869
16.976	62.6165
16.994	62.6388
17.012	62.6526
17.03	62.6567
17.048	62.6513
17.066	62.6376
17.084	62.6174
17.102	62.5942
17.12	62.5695
17.138	62.5477
17.156	62.5305
17.174	62.5202
17.192	62.5187
17.21	62.5265
17.228	62.5441
17.246	62.5707
17.264	62.606
17.282	62.6482
17.3	62.6964
17.318	62.7488
17.336	62.804
17.354	62.8609
17.372	62.9183
17.39	62.9756
17.408	63.0319
17.426	63.0869
17.444	63.1402
17.462	63.1909
17.48	63.2384
17.498	63.2819
17.516	63.3198
17.534	63.3508
17.552	63.3727
17.57	63.385
17.588	63.3843
17.606	63.3696
17.624	63.3388
17.642	63.2903
17.66	63.2229
17.678	63.136
17.696	63.0298
17.714	62.9055
17.732	62.7657
17.75	62.6122
17.768	62.4516
17.786	62.2859
17.804	62.1244
17.822	61.9692
17.84	61.8299
17.858	61.7099
17.876	61.6152
17.894	61.5503
17.912	61.5176
17.93	61.5191
17.948	61.5546
17.966	61.6223
17.984	61.7196
18.002	61.842
18.02	61.9834
18.038	62.1392
18.056	62.2994
18.074	62.4612
18.092	62.6129
18.11	62.7528
18.128	62.871
18.146	62.9667
18.164	63.0337
18.182	63.0725
18.2	63.0809
18.218	63.0621
18.236	63.0163
18.254	62.9504
18.272	62.8656
18.29	62.772
18.308	62.6708
18.326	62.5728
18.344	62.4793
18.362	62.4002
18.38	62.3361
18.398	62.2928
18.416	62.2705
18.434	62.2722
18.452	62.2952
18.47	62.3395
18.488	62.3994
18.506	62.4742
18.524	62.555
18.542	62.6406
18.56	62.7214
18.578	62.7963
18.596	62.8569
18.614	62.9027
18.632	62.9282
18.65	62.9335
18.668	62.9176
18.686	62.8812
18.704	62.827
18.722	62.7565
18.74	62.6756
18.758	62.5861
18.776	62.4951
18.794	62.4044
18.812	62.3209
18.83	62.2456
18.848	62.184
18.866	62.136
18.884	62.1046
18.902	62.0887
18.92	62.0886
18.938	62.1023
18.956	62.1281
18.974	62.1638
18.992	62.2063
19.01	62.2535
19.028	62.3018
19.046	62.3496
19.064	62.3936
19.082	62.4333
19.1	62.4659
19.118	62.4916
19.136	62.5092
19.154	62.5193
19.172	62.5221
19.19	62.5184
19.208	62.51
19.226	62.4973
19.244	62.4826
19.262	62.4661
19.28	62.4503
19.298	62.4353
19.316	62.4235
19.334	62.4147
19.352	62.4104
19.37	62.4105
19.388	62.4163
19.406	62.4277
19.424	62.4448
19.442	62.4674
19.46	62.4952
19.478	62.5281
19.496	62.5645
19.514	62.6042
19.532	62.6455
19.55	62.6881
19.568	62.7302
19.586	62.7702
19.604	62.8072
19.622	62.8389
19.64	62.865
19.658	62.8828
19.676	62.8925
19.694	62.8916
19.712	62.8805
19.73	62.8584
19.748	62.8251
19.766	62.7816
19.784	62.7277
19.802	62.6657
19.82	62.5964
19.838	62.5217
19.856	62.4446
19.874	62.3655
19.892	62.2893
19.91	62.2155
19.928	62.1492
19.946	62.09
19.964	62.0415
19.982	62.0042
20	61.9791
20.018	61.9676
20.036	61.9687
20.054	61.9825
20.072	62.0084
20.09	62.0437
20.108	62.0888
20.126	62.1391
20.144	62.1951
20.162	62.2525
20.18	62.3101
20.198	62.3661
20.216	62.4172
20.234	62.464
20.252	62.5035
20.27	62.5362
20.288	62.5613
20.306	62.5784
20.324	62.5888
20.342	62.5927
20.36	62.591
20.378	62.586
20.396	62.5772
20.414	62.5681
20.432	62.5584
20.45	62.5503
20.468	62.545
20.486	62.5427
20.504	62.5448
20.522	62.551
20.54	62.5616
20.558	62.577
20.576	62.5959
20.594	62.6181
20.612	62.6429
20.63	62.6687
20.648	62.6959
20.666	62.7219
20.684	62.7468
20.702	62.7693
20.72	62.7883
20.738	62.8038
20.756	62.8144
20.774	62.8203
20.792	62.8211
20.81	62.8166
20.828	62.8071
20.846	62.7927
20.864	62.7734
20.882	62.75
20.9	62.7223
20.918	62.6911
20.936	62.657
20.954	62.6198
20.972	62.5809
20.99	62.5399
21.008	62.4978
21.026	62.455
21.044	62.4116
21.062	62.3688
21.08	62.3262
21.098	62.2849
21.116	62.2452
21.134	62.2075
21.152	62.1727
21.17	62.1406
21.188	62.1122
21.206	62.0877
21.224	62.0672
21.242	62.0512
21.26	62.0397
21.278	62.0327
21.296	62.0304
21.314	62.0324
21.332	62.0386
21.35	62.0491
21.368	62.0628
21.386	62.0797
21.404	62.0994
21.422	62.1207
21.44	62.1441
21.458	62.1683
21.476	62.1927
21.494	62.2173
21.512	62.241
21.53	62.2639
21.548	62.2855
21.566	62.3052
21.584	62.3233
21.602	62.3394
21.62	62.3535
21.638	62.3656
21.656	62.3752
21.674	62.3827
21.692	62.3879
21.71	62.3908
21.728	62.3915
21.746	62.39
21.764	62.3863
21.782	62.3807
21.8	62.3733
21.818	62.3641
21.836	62.3533
21.854	62.3408
21.872	62.3269
21.89	62.3123
21.908	62.2966
21.926	62.2806
21.944	62.2647
21.962	62.2487
21.98	62.2341
21.998	62.2207
22.016	62.209
22.034	62.2003
22.052	62.1942
22.07	62.1915
22.088	62.1932
22.106	62.1988
22.124	62.2093
22.142	62.225
22.16	62.2457
22.178	62.2715
22.196	62.3026
22.214	62.3381
22.232	62.3775
22.25	62.4211
22.268	62.4672
22.286	62.515
22.304	62.5649
22.322	62.6144
22.34	62.6633
22.358	62.7113
22.376	62.756
22.394	62.798
22.412	62.8363
22.43	62.8694
22.448	62.8978
22.466	62.9211
22.484	62.9386
22.502	62.9506
22.52	62.9577
22.538	62.9596
22.556	62.9565
22.574	62.9503
22.592	62.9407
22.61	62.9283
22.628	62.9154
22.646	62.9013
22.664	62.8871
22.682	62.8747
22.7	62.8636
22.718	62.8544
22.736	62.8483
22.754	62.8449
22.772	62.844
22.79	62.846
22.808	62.8509
22.826	62.8575
22.844	62.865
22.862	62.8741
22.88	62.8826
22.898	62.8896
22.916	62.8959
22.934	62.8989
22.952	62.8978
22.97	62.8932
22.988	62.883
23.006	62.8666
23.024	62.8444
23.042	62.8156
23.06	62.7796
23.078	62.737
23.096	62.6887
23.114	62.634
23.132	62.5738
23.15	62.5103
23.168	62.4427
23.186	62.3719
23.204	62.3012
23.222	62.2299
23.24	62.1587
23.258	62.0906
23.276	62.0253
23.294	61.9631
23.312	61.9062
23.33	61.8548
23.348	61.8086
23.366	61.7681
23.384	61.7338
23.402	61.705
23.42	61.6807
23.438	61.6615
23.456	61.6467
23.474	61.6336
23.492	61.6225
23.51	61.6133
23.528	61.6026
23.546	61.5898
23.564	61.5756
23.582	61.5569
23.6	61.5327
23.618	61.5039
23.636	61.4688
23.654	61.4262
23.672	61.3768
23.69	61.3207
23.708	61.2577
23.726	61.1874
23.744	61.1118
23.762	61.032
23.78	60.9466
23.798	60.8585
23.816	60.7708
23.834	60.6813
23.852	60.5928
23.87	60.5094
23.888	60.4295
23.906	60.3544
23.924	60.2885
23.942	60.2316
23.96	60.1833
23.978	60.1465
23.996	60.1225
24.014	60.11
24.032	60.11
24.05	60.1235
24.068	60.1503
24.086	60.1888
24.104	60.2381
24.122	60.2996
24.14	60.3709
24.158	60.4487
24.176	60.5349
24.194	60.6278
24.212	60.7225
24.23	60.8192
24.248	60.9186
24.266	61.0145
24.284	61.1036
24.302	61.1894
24.32	61.2668
24.338	61.3306
24.356	61.3836
24.374	61.4243
24.392	61.4493
24.41	61.4586
24.428	61.453
24.446	61.432
24.464	61.395
24.482	61.3422
24.5	61.2752
24.518	61.1952
24.536	61.1002
24.554	60.9932
24.572	60.8779
24.59	60.7527
24.608	60.6184
24.626	60.4797
24.644	60.3382
24.662	60.1913
24.68	60.0437
24.698	59.8995
24.716	59.7557
24.734	59.6146
24.752	59.4804
24.77	59.3533
24.788	59.232
24.806	59.1197
24.824	59.0183
24.842	58.9261
24.86	58.8443
24.878	58.7746
24.896	58.7169
24.914	58.6706
24.932	58.6358
24.95	58.6126
24.968	58.6012
24.986	58.6005
25.004	58.609
25.022	58.6281
25.04	58.6567
25.058	58.6923
25.076	58.7342
25.094	58.7839
25.112	58.8386
25.13	58.8956
25.148	58.9566
25.166	59.0207
25.184	59.0849
25.202	59.148
25.22	59.2119
25.238	59.2743
25.256	59.3327
25.274	59.388
25.292	59.4403
25.31	59.4882
25.328	59.5309
25.346	59.5691
25.364	59.6026
25.382	59.6309
25.4	59.6528
25.418	59.6694
25.436	59.6829
25.454	59.6947
25.472	59.7024
25.49	59.7088
25.508	59.718
25.526	59.7302
25.544	59.7437
25.562	59.7621
25.58	59.789
25.598	59.8232
25.616	59.8643
25.634	59.9136
25.652	59.972
25.67	60.0393
25.688	60.1144
25.706	60.1963
25.724	60.2868
25.742	60.3857
25.76	60.4878
25.778	60.5889
25.796	60.696
25.814	60.8034
25.832	60.8997
25.85	60.9785
25.868	61.0511
25.886	61.1053
25.904	61.1261
25.922	61.1112
25.94	61.0692
25.958	60.9877
25.976	60.8543
25.994	60.6725
26.012	60.4447
26.03	60.1637
26.048	59.8236
26.066	59.4281
26.084	58.9772
26.102	58.4681
26.12	57.8976
26.138	57.2647
26.156	56.5761
26.174	55.8388
26.192	55.0509
26.21	54.2058
26.228	53.322
26.246	52.4187
26.264	51.4894
26.282	50.5281
26.3	49.561
26.318	48.6134
26.336	47.67
26.354	46.7317
26.372	45.826
26.39	44.9781
26.408	44.1689
26.426	43.4036
26.444	42.7039
26.462	42.0883
26.48	41.542
26.498	41.0685
26.516	40.679
26.534	40.3828
26.552	40.1754
26.57	40.0529
26.588	40.0123
26.606	40.054
26.624	40.1853
26.642	40.3934
26.66	40.6637
26.678	40.9912
26.696	41.3927
26.714	41.8474
26.732	42.3308
26.75	42.835
26.768	43.3842
26.786	43.9509
26.804	44.5034
26.822	45.0284
26.84	45.5522
26.858	46.0539
26.876	46.5093
26.894	46.9064
26.912	47.2636
26.93	47.5715
26.948	47.8182
26.966	47.988
26.984	48.0763
27.002	48.1144
27.02	48.1354
27.028	48.146