File: Bakgrunnsmateriale/MATLAB/FTIR/ftir_data/subAa/Mapping_121/BZ1503107-1_t19.asc
PE IR       SPECTRUM    SPECTRUM    ASCII       PEDS        1.60
  -1
BZ2D6B~1.ASC
17/04/07
14:44:13.00
17/04/07
14:44:39.00
tln
$BZ1503107-1_t0019$<tbV0>[-5.2,-10.4,8.0,0.0,27,1,0]
27.028
64

2002,4.07
MIRTGS : RIGHTBACK : INTERNAL 2
MIR : ON : INTERNAL 2
OPTKBR

0.200000
8
8.000000
FILLER
RATIO
SPECTRUM
UNLOCKED 256

DOUBLE
64
COMBINED
1
0
0

0.002000
RATIO

1
0
TRUE
51149
0
LEFT NOT FITTED RIGHT NOT FITTED 0
NONE
NONE
15600
12
4.427000
51148
TRUE
1 0 8 72 0 0 0 0

15798

#HDR
-1
-1
#GR
µM
%T
2.38419e-05
0.0
2.000000
0.002000
12515
8
73.3686
50.2451
#DATA
2.000000	 64.1699
2.018000	 64.3742
2.036000	 64.6949
2.054000	 64.5672
2.072000	 64.8906
2.090000	 65.408
2.108000	 64.8299
2.126000	 64.4818
2.144000	 65.2441
2.162000	 64.8931
2.180000	 65.3052
2.198000	 64.6942
2.216000	 64.7123
2.234000	 67.7587
2.252000	 68.1323
2.270000	 64.7543
2.288000	 64.7073
2.306000	 65.0679
2.324000	 65.2041
2.342000	 65.1405
2.360000	 65.0967
2.378000	 65.0484
2.396000	 65.0725
2.414000	 64.6335
2.432000	 65.124
2.450000	 65.2256
2.468000	 65.2459
2.486000	 64.8375
2.504000	 64.9843
2.522000	 65.2022
2.540000	 65.2142
2.558000	 64.7898
2.576000	 64.9606
2.594000	 65.5303
2.612000	 65.1489
2.630000	 65.3399
2.648000	 65.2283
2.666000	 65.3184
2.684000	 65.1389
2.702000	 65.1959
2.720000	 65.3692
2.738000	 65.3213
2.756000	 65.3464
2.774000	 65.0506
2.792000	 65.2886
2.810000	 65.0255
2.828000	 65.1874
2.846000	 65.1404
2.864000	 65.1703
2.882000	 64.9983
2.900000	 64.9928
2.918000	 65.2689
2.936000	 65.1639
2.954000	 65.1467
2.972000	 65.1776
2.990000	 65.3135
3.008000	 65.2301
3.026000	 65.1519
3.044000	 65.0776
3.062000	 65.1358
3.080000	 65.1044
3.098000	 64.9149
3.116000	 65.1764
3.134000	 65.2616
3.152000	 65.2625
3.170000	 65.157
3.188000	 65.1058
3.206000	 65.1551
3.224000	 65.1065
3.242000	 65.177
3.260000	 65.1831
3.278000	 65.208
3.296000	 64.9859
3.314000	 65.3734
3.332000	 65.239
3.350000	 65.0818
3.368000	 65.0197
3.386000	 64.9956
3.404000	 65.113
3.422000	 65.1093
3.440000	 65.0638
3.458000	 64.942
3.476000	 65.0068
3.494000	 65.1828
3.512000	 65.0723
3.530000	 65.2164
3.548000	 65.0791
3.566000	 65.0578
3.584000	 64.9494
3.602000	 65.0971
3.620000	 65.0451
3.638000	 64.9563
3.656000	 65.1379
3.674000	 65.0785
3.692000	 64.9583
3.710000	 65.1864
3.728000	 65.133
3.746000	 65.0582
3.764000	 64.9972
3.782000	 65.0535
3.800000	 64.832
3.818000	 65.0305
3.836000	 65.0286
3.854000	 65.1493
3.872000	 65.1295
3.890000	 65.0243
3.908000	 65.086
3.926000	 65.0794
3.944000	 65.0953
3.962000	 65.0516
3.980000	 65.0487
3.998000	 64.9655
4.016000	 65.0321
4.034000	 65.0692
4.052000	 65.0631
4.070000	 64.8508
4.088000	 65.067
4.106000	 64.9472
4.124000	 64.7369
4.141999	 65.1002
4.160000	 65.0654
4.178000	 64.9777
4.196000	 64.9791
4.214000	 64.9886
4.232000	 65.0895
4.250000	 64.9791
4.268000	 64.925
4.286000	 65.026
4.304000	 64.9564
4.322000	 65.005
4.340000	 64.9153
4.358000	 64.9973
4.375999	 64.9674
4.394000	 64.9664
4.412000	 64.9901
4.430000	 64.9151
4.448000	 64.9872
4.466000	 64.9956
4.484000	 64.9185
4.502000	 65.0259
4.520000	 64.97
4.538000	 65.0502
4.556000	 64.997
4.574000	 64.8676
4.592000	 64.953
4.609999	 64.9442
4.628000	 64.9366
4.646000	 64.8398
4.664000	 64.8583
4.682000	 64.8003
4.700000	 64.9974
4.718000	 65.021
4.736000	 65.008
4.754000	 64.8633
4.772000	 64.8857
4.790000	 64.968
4.808000	 64.9413
4.826000	 64.788
4.843999	 64.9004
4.862000	 64.8259
4.880000	 64.9197
4.898000	 64.9203
4.916000	 64.8502
4.934000	 64.9043
4.952000	 64.9772
4.970000	 64.9543
4.988000	 64.8296
5.006000	 64.85
5.024000	 64.7605
5.042000	 64.8284
5.060000	 64.8547
5.077999	 64.9121
5.096000	 64.94
5.114000	 64.8667
5.132000	 64.8254
5.150000	 64.8532
5.168000	 64.8677
5.186000	 64.8477
5.204000	 64.7667
5.222000	 64.8477
5.240000	 64.8768
5.258000	 64.8148
5.276000	 64.8308
5.294000	 64.8386
5.312000	 64.8025
5.330000	 64.8491
5.348000	 64.8837
5.366000	 64.8436
5.384000	 64.8414
5.402000	 64.8362
5.420000	 64.832
5.438000	 64.7522
5.456000	 64.7787
5.474000	 64.7877
5.492000	 64.8371
5.510000	 64.9235
5.528000	 64.804
5.546000	 64.7322
5.564000	 64.7894
5.582000	 64.7347
5.600000	 64.7912
5.618000	 64.7675
5.636000	 64.7117
5.654000	 64.6814
5.672000	 64.7124
5.690000	 64.688
5.708000	 64.6146
5.726000	 64.5063
5.744000	 64.4137
5.762000	 64.5091
5.780000	 64.5667
5.798000	 64.5613
5.816000	 64.5878
5.834000	 64.6681
5.852000	 64.666
5.870000	 64.7539
5.888000	 64.989
5.906000	 64.916
5.923999	 64.8885
5.942000	 64.9295
5.960000	 64.7843
5.978000	 64.711
5.996000	 64.6717
6.014000	 64.7239
6.032000	 64.7752
6.050000	 64.7455
6.068000	 64.5901
6.086000	 64.5969
6.104000	 64.6534
6.122000	 64.6168
6.140000	 64.5897
6.158000	 64.6093
6.176000	 64.6847
6.194000	 64.7359
6.212000	 64.6544
6.230000	 64.5997
6.248000	 64.6199
6.266000	 64.7105
6.284000	 64.7796
6.302000	 64.7641
6.320000	 64.8142
6.338000	 64.91
6.356000	 64.8178
6.374000	 64.6593
6.392000	 64.6782
6.410000	 64.8655
6.428000	 64.8343
6.446000	 64.6204
6.464000	 64.5856
6.482000	 64.6498
6.500000	 64.6463
6.518000	 64.6151
6.536000	 64.6131
6.554000	 64.6776
6.572000	 64.7138
6.590000	 64.6659
6.608000	 64.6798
6.626000	 64.7509
6.644000	 64.7117
6.662000	 64.6286
6.680000	 64.6462
6.698000	 64.6172
6.716000	 64.5492
6.734000	 64.5587
6.752000	 64.6086
6.770000	 64.6933
6.788000	 64.741
6.806000	 64.7075
6.824000	 64.6551
6.842000	 64.596
6.860000	 64.5253
6.878000	 64.4797
6.896000	 64.489
6.914000	 64.5209
6.932000	 64.5501
6.950000	 64.5494
6.968000	 64.4919
6.986000	 64.4508
7.004000	 64.4421
7.022000	 64.4419
7.040000	 64.4737
7.058000	 64.4623
7.076000	 64.3714
7.094000	 64.3239
7.112000	 64.3705
7.130000	 64.4252
7.148000	 64.4273
7.166000	 64.3877
7.184000	 64.3578
7.202000	 64.3808
7.220000	 64.4208
7.238000	 64.4239
7.256000	 64.3972
7.274000	 64.3608
7.292000	 64.3484
7.310000	 64.4192
7.328000	 64.526
7.346000	 64.5461
7.364000	 64.4958
7.382000	 64.477
7.400000	 64.4844
7.418000	 64.4666
7.436000	 64.4268
7.454000	 64.3846
7.472000	 64.3538
7.490000	 64.3457
7.508000	 64.3556
7.526000	 64.3799
7.544000	 64.4234
7.562000	 64.4649
7.580000	 64.4495
7.598000	 64.3741
7.616000	 64.3232
7.634000	 64.3341
7.652000	 64.35
7.670000	 64.341
7.688000	 64.3334
7.706000	 64.3364
7.724000	 64.3524
7.742000	 64.3871
7.760000	 64.3988
7.778000	 64.338
7.796000	 64.248
7.814000	 64.2249
7.832000	 64.2798
7.850000	 64.3297
7.868000	 64.322
7.886000	 64.2895
7.904000	 64.2781
7.922000	 64.2866
7.940000	 64.2952
7.958000	 64.3078
7.976000	 64.3406
7.994000	 64.386
8.012000	 64.4088
8.030000	 64.3812
8.048000	 64.3113
8.065999	 64.2336
8.084000	 64.1772
8.102000	 64.143
8.120000	 64.124
8.138000	 64.1323
8.155999	 64.1769
8.173999	 64.2249
8.192000	 64.2325
8.210000	 64.2091
8.228000	 64.2029
8.246000	 64.2328
8.263999	 64.2719
8.282000	 64.2892
8.300000	 64.2875
8.318000	 64.2927
8.336000	 64.3129
8.353999	 64.3273
8.372000	 64.3174
8.390000	 64.293
8.408000	 64.2781
8.426000	 64.2775
8.443999	 64.2684
8.462000	 64.2253
8.480000	 64.1576
8.498000	 64.1184
8.516000	 64.1509
8.533999	 64.2313
8.552000	 64.2901
8.570000	 64.2882
8.588000	 64.25
8.606000	 64.2233
8.624000	 64.2218
8.641999	 64.2181
8.660000	 64.1868
8.678000	 64.1364
8.696000	 64.0985
8.714000	 64.0976
8.731999	 64.1368
8.750000	 64.2012
8.768000	 64.2671
8.786000	 64.312
8.804000	 64.3293
8.821999	 64.3305
8.840000	 64.3297
8.858000	 64.3279
8.876000	 64.3156
8.894000	 64.2859
8.911999	 64.2443
8.930000	 64.2092
8.948000	 64.2026
8.966000	 64.2301
8.984000	 64.2679
9.001999	 64.2761
9.020000	 64.2368
9.038000	 64.1731
9.056000	 64.1294
9.074000	 64.1292
9.092000	 64.1608
9.109999	 64.2048
9.128000	 64.2576
9.146000	 64.3179
9.164000	 64.3687
9.182000	 64.3911
9.199999	 64.388
9.218000	 64.3743
9.236000	 64.3505
9.254000	 64.3003
9.272000	 64.2213
9.289999	 64.1427
9.308000	 64.0979
9.326000	 64.0858
9.344000	 64.0755
9.362000	 64.0472
9.379999	 64.0185
9.398000	 64.0228
9.416000	 64.0727
9.434000	 64.1454
9.452000	 64.2053
9.469999	 64.236
9.488000	 64.2458
9.506000	 64.2447
9.524000	 64.2253
9.542000	 64.1727
9.560000	 64.091
9.577999	 64.013
9.596000	 63.9765
9.614000	 63.9898
9.632000	 64.0238
9.650000	 64.0374
9.667999	 64.0139
9.686000	 63.9725
9.704000	 63.9479
9.722000	 63.9623
9.740000	 64.0119
9.757999	 64.0777
9.776000	 64.142
9.794000	 64.1946
9.812000	 64.2286
9.830000	 64.2354
9.847999	 64.2114
9.866000	 64.1647
9.884000	 64.1146
9.902000	 64.0802
9.920000	 64.0668
9.937999	 64.065
9.956000	 64.0604
9.974000	 64.0469
9.992000	 64.0308
10.01	64.0233
10.028	64.0306
10.046	64.0495
10.064	64.0716
10.082	64.0894
10.1	64.1005
10.118	64.1069
10.136	64.1124
10.154	64.1204
10.172	64.1322
10.19	64.1442
10.208	64.1481
10.226	64.1347
10.244	64.1003
10.262	64.0537
10.28	64.0142
10.298	64.0017
10.316	64.0254
10.334	64.0777
10.352	64.1412
10.37	64.198
10.388	64.2392
10.406	64.265
10.424	64.2784
10.442	64.2804
10.46	64.2694
10.478	64.2445
10.496	64.2112
10.514	64.1803
10.532	64.164
10.55	64.1689
10.568	64.1933
10.586	64.2282
10.604	64.2624
10.622	64.2861
10.64	64.2951
10.658	64.29
10.676	64.2781
10.694	64.2699
10.712	64.2767
10.73	64.305
10.748	64.3527
10.766	64.4078
10.784	64.4534
10.802	64.4754
10.82	64.4702
10.838	64.4465
10.856	64.4183
10.874	64.3981
10.892	64.3878
10.91	64.3798
10.928	64.363
10.946	64.3298
10.964	64.2816
10.982	64.2273
11	64.1779
11.018	64.1414
11.036	64.1188
11.054	64.1068
11.072	64.1006
11.09	64.0969
11.108	64.0941
11.126	64.0902
11.144	64.0828
11.162	64.068
11.18	64.0439
11.198	64.0129
11.216	63.9822
11.234	63.9626
11.252	63.964
11.27	63.9902
11.288	64.037
11.306	64.0941
11.324	64.1486
11.342	64.1907
11.36	64.2176
11.378	64.232
11.396	64.2394
11.414	64.2448
11.432	64.2491
11.45	64.2504
11.468	64.2467
11.486	64.2381
11.504	64.2282
11.522	64.2219
11.54	64.2216
11.558	64.2256
11.576	64.2279
11.594	64.2218
11.612	64.2032
11.63	64.1734
11.648	64.1388
11.666	64.1089
11.684	64.0932
11.702	64.0978
11.72	64.1232
11.738	64.1648
11.756	64.2149
11.774	64.2641
11.792	64.3044
11.81	64.3307
11.828	64.3418
11.846	64.3397
11.864	64.3291
11.882	64.3151
11.9	64.3016
11.918	64.2902
11.936	64.2802
11.954	64.2694
11.972	64.255
11.99	64.2347
12.008	64.2074
12.026	64.1725
12.044	64.1303
12.062	64.0818
12.08	64.0294
12.098	63.9764
12.116	63.9277
12.134	63.8881
12.152	63.862
12.17	63.8518
12.188	63.858
12.206	63.8784
12.224	63.9095
12.242	63.9482
12.26	63.9921
12.278	64.0391
12.296	64.0873
12.314	64.1337
12.332	64.1744
12.35	64.2049
12.368	64.2213
12.386	64.2215
12.404	64.2069
12.422	64.1817
12.44	64.1524
12.458	64.1262
12.476	64.1095
12.494	64.1059
12.512	64.1157
12.53	64.1357
12.548	64.1604
12.566	64.1838
12.584	64.2006
12.602	64.208
12.62	64.2058
12.638	64.1965
12.656	64.1835
12.674	64.1703
12.692	64.1594
12.71	64.1516
12.728	64.1463
12.746	64.1415
12.764	64.1351
12.782	64.1259
12.8	64.1139
12.818	64.1003
12.836	64.087
12.854	64.0759
12.872	64.0683
12.89	64.0636
12.908	64.0601
12.926	64.0547
12.944	64.044
12.962	64.0257
12.98	63.9996
12.998	63.9681
13.016	63.9361
13.034	63.9109
13.052	63.9001
13.07	63.9092
13.088	63.9408
13.106	63.9926
13.124	64.0582
13.142	64.1274
13.16	64.1886
13.178	64.2308
13.196	64.2472
13.214	64.2358
13.232	64.2002
13.25	64.1487
13.268	64.0926
13.286	64.0425
13.304	64.0065
13.322	63.9885
13.34	63.9873
13.358	63.998
13.376	64.0135
13.394	64.0265
13.412	64.031
13.43	64.0232
13.448	64.0018
13.466	63.9673
13.484	63.9218
13.502	63.8684
13.52	63.8106
13.538	63.7523
13.556	63.6979
13.574	63.6524
13.592	63.6207
13.61	63.6075
13.628	63.6164
13.646	63.6488
13.664	63.7037
13.682	63.7769
13.7	63.8624
13.718	63.9526
13.736	64.0397
13.754	64.1165
13.772	64.1775
13.79	64.2191
13.808	64.2399
13.826	64.2407
13.844	64.2237
13.862	64.1926
13.88	64.1517
13.898	64.1061
13.916	64.0608
13.934	64.0196
13.952	63.9854
13.97	63.9594
13.988	63.9414
14.006	63.9296
14.024	63.9213
14.042	63.9137
14.06	63.9043
14.078	63.892
14.096	63.8775
14.114	63.8633
14.132	63.8525
14.15	63.849
14.168	63.8555
14.186	63.8734
14.204	63.902
14.222	63.9385
14.24	63.9787
14.258	64.0175
14.276	64.0502
14.294	64.0728
14.312	64.0833
14.33	64.0815
14.348	64.0688
14.366	64.0478
14.384	64.0225
14.402	63.9971
14.42	63.9756
14.438	63.9616
14.456	63.957
14.474	63.9627
14.492	63.9779
14.51	64.0002
14.528	64.0264
14.546	64.0525
14.564	64.0746
14.582	64.0892
14.6	64.0937
14.618	64.087
14.636	64.0699
14.654	64.0448
14.672	64.0157
14.69	63.9874
14.708	63.9643
14.726	63.9509
14.744	63.9498
14.762	63.9617
14.78	63.985
14.798	64.0165
14.816	64.0513
14.834	64.0835
14.852	64.1066
14.87	64.1157
14.888	64.1072
14.906	64.0792
14.924	64.0322
14.942	63.9689
14.96	63.8948
14.978	63.8161
14.996	63.7398
15.014	63.6727
15.032	63.6217
15.05	63.5911
15.068	63.5826
15.086	63.5959
15.104	63.6287
15.122	63.6754
15.14	63.7291
15.158	63.7831
15.176	63.8311
15.194	63.8668
15.212	63.8862
15.23	63.8884
15.248	63.8747
15.266	63.8481
15.284	63.8145
15.302	63.7803
15.32	63.7508
15.338	63.7306
15.356	63.723
15.374	63.7287
15.392	63.7461
15.41	63.7726
15.428	63.8039
15.446	63.8349
15.464	63.8617
15.482	63.8819
15.5	63.8935
15.518	63.8975
15.536	63.8962
15.554	63.8923
15.572	63.8893
15.59	63.8908
15.608	63.8986
15.626	63.9136
15.644	63.9353
15.662	63.9609
15.68	63.9869
15.698	64.0099
15.716	64.0251
15.734	64.0292
15.752	64.0206
15.77	63.9984
15.788	63.9636
15.806	63.9187
15.824	63.8668
15.842	63.8115
15.86	63.7577
15.878	63.709
15.896	63.669
15.914	63.6419
15.932	63.6293
15.95	63.6322
15.968	63.6505
15.986	63.6832
16.004	63.7285
16.022	63.7842
16.04	63.8462
16.058	63.9107
16.076	63.9744
16.094	64.032
16.112	64.0796
16.13	64.1145
16.148	64.1335
16.166	64.1353
16.184	64.1199
16.202	64.0875
16.22	64.0405
16.238	63.9816
16.256	63.9137
16.274	63.8414
16.292	63.7676
16.31	63.6951
16.328	63.6273
16.346	63.5657
16.364	63.5118
16.382	63.4668
16.4	63.4311
16.418	63.4047
16.436	63.3878
16.454	63.3799
16.472	63.3805
16.49	63.388
16.508	63.3998
16.526	63.4136
16.544	63.4241
16.562	63.4264
16.58	63.4165
16.598	63.3865
16.616	63.3326
16.634	63.2511
16.652	63.1388
16.67	62.9973
16.688	62.8274
16.706	62.6369
16.724	62.4323
16.742	62.2223
16.76	62.0218
16.778	61.8381
16.796	61.6849
16.814	61.571
16.832	61.5011
16.85	61.4813
16.868	61.5087
16.886	61.5824
16.904	61.6933
16.922	61.8344
16.94	61.9963
16.958	62.166
16.976	62.3375
16.994	62.4986
17.012	62.6446
17.03	62.7715
17.048	62.8767
17.066	62.9617
17.084	63.0282
17.102	63.0813
17.12	63.1233
17.138	63.1605
17.156	63.1951
17.174	63.2298
17.192	63.2661
17.21	63.3037
17.228	63.3415
17.246	63.377
17.264	63.4085
17.282	63.4318
17.3	63.4459
17.318	63.4482
17.336	63.4397
17.354	63.4201
17.372	63.3924
17.39	63.3585
17.408	63.3226
17.426	63.2889
17.444	63.2602
17.462	63.2424
17.48	63.2367
17.498	63.2471
17.516	63.2738
17.534	63.3177
17.552	63.3776
17.57	63.4527
17.588	63.5389
17.606	63.6335
17.624	63.7326
17.642	63.8301
17.66	63.9235
17.678	64.0057
17.696	64.0751
17.714	64.1261
17.732	64.1575
17.75	64.1664
17.768	64.1528
17.786	64.1164
17.804	64.0599
17.822	63.9846
17.84	63.8951
17.858	63.795
17.876	63.6885
17.894	63.5815
17.912	63.4765
17.93	63.3803
17.948	63.2938
17.966	63.2223
17.984	63.1663
18.002	63.1287
18.02	63.1087
18.038	63.107
18.056	63.1211
18.074	63.1506
18.092	63.1915
18.11	63.2431
18.128	63.3012
18.146	63.365
18.164	63.4308
18.182	63.4978
18.2	63.5638
18.218	63.6285
18.236	63.6911
18.254	63.7522
18.272	63.8115
18.29	63.8703
18.308	63.9286
18.326	63.9874
18.344	64.0466
18.362	64.1062
18.38	64.1657
18.398	64.224
18.416	64.2796
18.434	64.3311
18.452	64.3763
18.47	64.4137
18.488	64.4411
18.506	64.4579
18.524	64.4628
18.542	64.4555
18.56	64.4371
18.578	64.4078
18.596	64.3705
18.614	64.3257
18.632	64.2783
18.65	64.2286
18.668	64.1819
18.686	64.1386
18.704	64.1032
18.722	64.0755
18.74	64.0587
18.758	64.0522
18.776	64.0575
18.794	64.0737
18.812	64.0998
18.83	64.1348
18.848	64.1766
18.866	64.2234
18.884	64.2721
18.902	64.3207
18.92	64.3657
18.938	64.4056
18.956	64.4369
18.974	64.4588
18.992	64.4688
19.01	64.4671
19.028	64.4524
19.046	64.4259
19.064	64.3876
19.082	64.3397
19.1	64.284
19.118	64.2227
19.136	64.1594
19.154	64.0954
19.172	64.0352
19.19	63.9793
19.208	63.9317
19.226	63.8922
19.244	63.8634
19.262	63.8446
19.28	63.8359
19.298	63.8369
19.316	63.8454
19.334	63.8613
19.352	63.8805
19.37	63.9032
19.388	63.9247
19.406	63.9452
19.424	63.9608
19.442	63.9714
19.46	63.975
19.478	63.9709
19.496	63.9592
19.514	63.9395
19.532	63.913
19.55	63.8798
19.568	63.8417
19.586	63.8001
19.604	63.7558
19.622	63.7111
19.64	63.6662
19.658	63.6236
19.676	63.583
19.694	63.546
19.712	63.5125
19.73	63.4829
19.748	63.4573
19.766	63.4351
19.784	63.4163
19.802	63.4004
19.82	63.387
19.838	63.3759
19.856	63.3666
19.874	63.3594
19.892	63.3544
19.91	63.3516
19.928	63.3519
19.946	63.3554
19.964	63.3632
19.982	63.3756
20	63.3932
20.018	63.4167
20.036	63.4461
20.054	63.4821
20.072	63.5245
20.09	63.5731
20.108	63.628
20.126	63.6874
20.144	63.7518
20.162	63.8186
20.18	63.8872
20.198	63.9562
20.216	64.0233
20.234	64.0886
20.252	64.1488
20.27	64.2046
20.288	64.2536
20.306	64.2956
20.324	64.3302
20.342	64.3568
20.36	64.3757
20.378	64.3869
20.396	64.3906
20.414	64.3883
20.432	64.3796
20.45	64.3667
20.468	64.3502
20.486	64.3312
20.504	64.3119
20.522	64.2921
20.54	64.2746
20.558	64.2589
20.576	64.2469
20.594	64.2392
20.612	64.2361
20.63	64.2391
20.648	64.2477
20.666	64.2626
20.684	64.2838
20.702	64.311
20.72	64.3443
20.738	64.3833
20.756	64.427
20.774	64.4755
20.792	64.5275
20.81	64.5828
20.828	64.6405
20.846	64.6989
20.864	64.7584
20.882	64.8163
20.9	64.8734
20.918	64.9274
20.936	64.9771
20.954	65.0227
20.972	65.0615
20.99	65.0944
21.008	65.119
21.026	65.1347
21.044	65.1414
21.062	65.1371
21.08	65.1223
21.098	65.0958
21.116	65.0572
21.134	65.0067
21.152	64.9436
21.17	64.8683
21.188	64.7813
21.206	64.6824
21.224	64.5728
21.242	64.4541
21.26	64.3256
21.278	64.1909
21.296	64.0497
21.314	63.904
21.332	63.7576
21.35	63.609
21.368	63.4637
21.386	63.3221
21.404	63.1855
21.422	63.0593
21.44	62.9417
21.458	62.837
21.476	62.7468
21.494	62.6708
21.512	62.6126
21.53	62.5716
21.548	62.5485
21.566	62.5443
21.584	62.5585
21.602	62.5901
21.62	62.64
21.638	62.7058
21.656	62.785
21.674	62.8788
21.692	62.9821
21.71	63.0946
21.728	63.2151
21.746	63.3378
21.764	63.4644
21.782	63.591
21.8	63.7145
21.818	63.8362
21.836	63.9515
21.854	64.0599
21.872	64.1612
21.89	64.253
21.908	64.3358
21.926	64.4093
21.944	64.4727
21.962	64.5265
21.98	64.5718
21.998	64.6082
22.016	64.6367
22.034	64.6592
22.052	64.6749
22.07	64.6855
22.088	64.6925
22.106	64.6953
22.124	64.6958
22.142	64.6945
22.16	64.6912
22.178	64.6868
22.196	64.6814
22.214	64.6748
22.232	64.6671
22.25	64.6585
22.268	64.6481
22.286	64.6356
22.304	64.6211
22.322	64.6035
22.34	64.5829
22.358	64.559
22.376	64.5311
22.394	64.499
22.412	64.4631
22.43	64.423
22.448	64.3787
22.466	64.3311
22.484	64.2806
22.502	64.2269
22.52	64.1719
22.538	64.1164
22.556	64.06
22.574	64.0055
22.592	63.9528
22.61	63.9024
22.628	63.8568
22.646	63.8157
22.664	63.7796
22.682	63.7504
22.7	63.7277
22.718	63.7117
22.736	63.7032
22.754	63.7021
22.772	63.7076
22.79	63.7195
22.808	63.7381
22.826	63.7617
22.844	63.7891
22.862	63.8213
22.88	63.8555
22.898	63.8907
22.916	63.9276
22.934	63.9634
22.952	63.9972
22.97	64.0297
22.988	64.0587
23.006	64.0837
23.024	64.1051
23.042	64.1219
23.06	64.1338
23.078	64.1412
23.096	64.1436
23.114	64.1406
23.132	64.1329
23.15	64.121
23.168	64.1044
23.186	64.084
23.204	64.0613
23.222	64.036
23.24	64.0086
23.258	63.981
23.276	63.9531
23.294	63.925
23.312	63.8981
23.33	63.8724
23.348	63.8478
23.366	63.8251
23.384	63.8044
23.402	63.7855
23.42	63.7687
23.438	63.7542
23.456	63.7418
23.474	63.7308
23.492	63.7215
23.51	63.7137
23.528	63.7068
23.546	63.7008
23.564	63.6957
23.582	63.6905
23.6	63.6848
23.618	63.679
23.636	63.672
23.654	63.663
23.672	63.6527
23.69	63.6403
23.708	63.6251
23.726	63.6075
23.744	63.5874
23.762	63.5647
23.78	63.5393
23.798	63.5115
23.816	63.4813
23.834	63.4487
23.852	63.4137
23.87	63.3767
23.888	63.3372
23.906	63.2958
23.924	63.253
23.942	63.2089
23.96	63.1633
23.978	63.1171
23.996	63.0707
24.014	63.0238
24.032	62.9765
24.05	62.929
24.068	62.8814
24.086	62.8333
24.104	62.7843
24.122	62.7349
24.14	62.6844
24.158	62.6318
24.176	62.5775
24.194	62.5212
24.212	62.4619
24.23	62.3997
24.248	62.3347
24.266	62.2659
24.284	62.1924
24.302	62.1147
24.32	62.0331
24.338	61.9478
24.356	61.8584
24.374	61.7657
24.392	61.6709
24.41	61.5725
24.428	61.4719
24.446	61.3728
24.464	61.2762
24.482	61.1803
24.5	61.0897
24.518	61.0079
24.536	60.9311
24.554	60.864
24.572	60.8133
24.59	60.7763
24.608	60.7542
24.626	60.754
24.644	60.7789
24.662	60.8247
24.68	60.897
24.698	61.0009
24.716	61.1333
24.734	61.2956
24.752	61.4911
24.77	61.7213
24.788	61.9844
24.806	62.2785
24.824	62.6033
24.842	62.9616
24.86	63.347
24.878	63.7519
24.896	64.1817
24.914	64.6329
24.932	65.0933
24.95	65.5574
24.968	66.0335
24.986	66.5092
25.004	66.9714
25.022	67.4283
25.04	67.8753
25.058	68.298
25.076	68.6907
25.094	69.0621
25.112	69.4008
25.13	69.6953
25.148	69.9508
25.166	70.1662
25.184	70.3342
25.202	70.4503
25.22	70.5186
25.238	70.5389
25.256	70.5108
25.274	70.4322
25.292	70.306
25.31	70.1368
25.328	69.9261
25.346	69.6701
25.364	69.3759
25.382	69.0515
25.4	68.6931
25.418	68.3015
25.436	67.8874
25.454	67.4581
25.472	67.0049
25.49	66.536
25.508	66.0633
25.526	65.5896
25.544	65.1092
25.562	64.6284
25.58	64.153
25.598	63.6813
25.616	63.2125
25.634	62.7483
25.652	62.2892
25.67	61.8336
25.688	61.384
25.706	60.9432
25.724	60.5116
25.742	60.0878
25.76	59.6736
25.778	59.2702
25.796	58.8694
25.814	58.4795
25.832	58.1152
25.85	57.7843
25.868	57.4731
25.886	57.1959
25.904	56.9708
25.922	56.8121
25.94	56.7107
25.958	56.648
25.976	56.6061
25.994	56.5981
26.012	56.6204
26.03	56.6468
26.048	56.6548
26.066	56.6627
26.084	56.6627
26.102	56.635
26.12	56.5664
26.138	56.4695
26.156	56.3399
26.174	56.1697
26.192	55.9368
26.21	55.6365
26.228	55.3267
26.246	55.0665
26.264	54.8476
26.282	54.6471
26.3	54.5186
26.318	54.5144
26.336	54.6303
26.354	54.8479
26.372	55.1721
26.39	55.609
26.408	56.1723
26.426	56.8442
26.444	57.5971
26.462	58.4196
26.48	59.3998
26.498	60.4385
26.516	61.3912
26.534	62.1528
26.552	62.8389
26.57	63.392
26.588	63.7156
26.606	63.732
26.624	63.4812
26.642	62.9995
26.66	62.316
26.678	61.4267
26.696	60.2747
26.714	58.96
26.732	57.5953
26.75	56.1851
26.768	54.5731
26.786	53.0077
26.804	51.7649
26.822	50.9758
26.84	50.4269
26.858	50.2485
26.876	50.5978
26.894	51.591
26.912	53.1544
26.93	55.2126
26.948	57.6957
26.966	60.7971
26.984	64.9102
27.002	69.1378
27.02	72.5008
27.028	73.3686