File: Bakgrunnsmateriale/MATLAB/FTIR/ftir_data/subAa/Mapping_121/BZ1503107-1_t81.asc
PE IR       SPECTRUM    SPECTRUM    ASCII       PEDS        1.60
  -1
BZ2D45~1.ASC
17/04/07
19:53:20.00
17/04/07
19:53:46.00
tln
$BZ1503107-1_t0081$<tbV0>[5.2,5.2,8.0,0.0,27,1,0]
27.028
64

2002,4.07
MIRTGS : RIGHTBACK : INTERNAL 2
MIR : ON : INTERNAL 2
OPTKBR

0.200000
8
8.000000
FILLER
RATIO
SPECTRUM
UNLOCKED 256

DOUBLE
64
COMBINED
1
0
0

0.002000
RATIO

1
0
TRUE
51149
0
LEFT NOT FITTED RIGHT NOT FITTED 0
NONE
NONE
15600
12
4.427000
51148
TRUE
1 0 8 72 0 0 0 0

15798

#HDR
-1
-1
#GR
µM
%T
2.38419e-05
0.0
2.000000
0.002000
12515
8
71.6566
48.3762
#DATA
2.000000	 66.1013
2.018000	 64.7545
2.036000	 65.1304
2.054000	 64.7194
2.072000	 64.6718
2.090000	 64.8179
2.108000	 64.5451
2.126000	 64.5945
2.144000	 64.6621
2.162000	 65.0397
2.180000	 65.1931
2.198000	 64.8292
2.216000	 65.0444
2.234000	 64.7874
2.252000	 52.5307
2.270000	 65.6552
2.288000	 64.6984
2.306000	 65.4654
2.324000	 64.8849
2.342000	 65.0928
2.360000	 65.0542
2.378000	 64.9463
2.396000	 64.9587
2.414000	 64.6317
2.432000	 64.8102
2.450000	 64.9276
2.468000	 65.004
2.486000	 65.0135
2.504000	 64.7677
2.522000	 64.8815
2.540000	 64.9058
2.558000	 65.1189
2.576000	 65.1072
2.594000	 65.2007
2.612000	 65.1576
2.630000	 65.1206
2.648000	 65.0928
2.666000	 65.1215
2.684000	 64.916
2.702000	 65.0804
2.720000	 65.033
2.738000	 65.0282
2.756000	 64.852
2.774000	 65.0791
2.792000	 64.9552
2.810000	 65.0518
2.828000	 64.9726
2.846000	 65.0716
2.864000	 64.9627
2.882000	 65.0917
2.900000	 65.0448
2.918000	 64.78
2.936000	 64.8253
2.954000	 64.9578
2.972000	 64.9376
2.990000	 64.8861
3.008000	 64.8833
3.026000	 64.8826
3.044000	 64.8679
3.062000	 64.904
3.080000	 64.8406
3.098000	 64.9365
3.116000	 64.9739
3.134000	 64.8911
3.152000	 64.8714
3.170000	 64.9517
3.188000	 64.7003
3.206000	 64.8798
3.224000	 64.8679
3.242000	 64.7879
3.260000	 64.9987
3.278000	 65.0239
3.296000	 64.7324
3.314000	 64.78
3.332000	 64.7458
3.350000	 64.893
3.368000	 64.8479
3.386000	 64.658
3.404000	 64.7778
3.422000	 64.7702
3.440000	 64.7243
3.458000	 64.7982
3.476000	 64.719
3.494000	 64.6911
3.512000	 64.6334
3.530000	 64.7277
3.548000	 64.8168
3.566000	 64.8802
3.584000	 64.736
3.602000	 64.7405
3.620000	 64.7857
3.638000	 64.7062
3.656000	 64.7975
3.674000	 64.7827
3.692000	 64.7931
3.710000	 64.6829
3.728000	 64.7986
3.746000	 64.7456
3.764000	 64.6255
3.782000	 64.6099
3.800000	 64.6834
3.818000	 64.6775
3.836000	 64.5927
3.854000	 64.6896
3.872000	 64.6104
3.890000	 64.699
3.908000	 64.6201
3.926000	 64.6834
3.944000	 64.6418
3.962000	 64.6708
3.980000	 64.5904
3.998000	 64.6598
4.016000	 64.6374
4.034000	 64.5696
4.052000	 64.5042
4.070000	 64.675
4.088000	 64.6152
4.106000	 64.5658
4.124000	 64.5789
4.141999	 64.6223
4.160000	 64.6295
4.178000	 64.6353
4.196000	 64.6046
4.214000	 64.438
4.232000	 64.4802
4.250000	 64.4657
4.268000	 64.4487
4.286000	 64.5473
4.304000	 64.5412
4.322000	 64.4791
4.340000	 64.4993
4.358000	 64.3349
4.375999	 64.4362
4.394000	 64.5267
4.412000	 64.5249
4.430000	 64.5614
4.448000	 64.4007
4.466000	 64.3888
4.484000	 64.5456
4.502000	 64.4703
4.520000	 64.4821
4.538000	 64.4916
4.556000	 64.3429
4.574000	 64.3845
4.592000	 64.3761
4.609999	 64.3432
4.628000	 64.3668
4.646000	 64.3508
4.664000	 64.3673
4.682000	 64.4592
4.700000	 64.4978
4.718000	 64.4223
4.736000	 64.428
4.754000	 64.4366
4.772000	 64.4234
4.790000	 64.4765
4.808000	 64.3621
4.826000	 64.4476
4.843999	 64.3593
4.862000	 64.3217
4.880000	 64.2723
4.898000	 64.2254
4.916000	 64.1545
4.934000	 64.2736
4.952000	 64.3918
4.970000	 64.3823
4.988000	 64.2529
5.006000	 64.2431
5.024000	 64.3037
5.042000	 64.2733
5.060000	 64.3125
5.077999	 64.2467
5.096000	 64.2152
5.114000	 64.2055
5.132000	 64.1475
5.150000	 64.2329
5.168000	 64.2504
5.186000	 64.1941
5.204000	 64.2186
5.222000	 64.203
5.240000	 64.2488
5.258000	 64.2011
5.276000	 64.109
5.294000	 64.1885
5.312000	 64.1043
5.330000	 64.1375
5.348000	 64.1938
5.366000	 64.1472
5.384000	 64.157
5.402000	 64.1332
5.420000	 64.0646
5.438000	 64.0514
5.456000	 64.0847
5.474000	 64.0749
5.492000	 64.0877
5.510000	 64.1668
5.528000	 64.1292
5.546000	 64.0446
5.564000	 64.0528
5.582000	 64.0733
5.600000	 64.0675
5.618000	 64.0638
5.636000	 64.1168
5.654000	 64.0775
5.672000	 64.0635
5.690000	 64.0239
5.708000	 63.8958
5.726000	 63.9139
5.744000	 63.8661
5.762000	 63.8303
5.780000	 63.8693
5.798000	 63.8874
5.816000	 63.9381
5.834000	 63.9938
5.852000	 63.874
5.870000	 63.7934
5.888000	 63.8098
5.906000	 63.9236
5.923999	 64.0205
5.942000	 63.9629
5.960000	 63.8683
5.978000	 63.7743
5.996000	 63.8776
6.014000	 63.956
6.032000	 63.8934
6.050000	 63.8381
6.068000	 63.8191
6.086000	 63.8287
6.104000	 63.8122
6.122000	 63.8705
6.140000	 64.0103
6.158000	 64.0692
6.176000	 63.9714
6.194000	 63.8135
6.212000	 63.7671
6.230000	 63.8171
6.248000	 63.8643
6.266000	 63.8076
6.284000	 63.6937
6.302000	 63.7751
6.320000	 63.8646
6.338000	 63.7526
6.356000	 63.6767
6.374000	 63.7
6.392000	 63.6928
6.410000	 63.7087
6.428000	 63.7473
6.446000	 63.7766
6.464000	 63.8224
6.482000	 63.843
6.500000	 63.8212
6.518000	 63.7943
6.536000	 63.7967
6.554000	 63.7926
6.572000	 63.7717
6.590000	 63.733
6.608000	 63.7479
6.626000	 63.8285
6.644000	 63.8513
6.662000	 63.7933
6.680000	 63.7038
6.698000	 63.6179
6.716000	 63.6462
6.734000	 63.7502
6.752000	 63.7668
6.770000	 63.7058
6.788000	 63.6676
6.806000	 63.6475
6.824000	 63.6106
6.842000	 63.6001
6.860000	 63.6216
6.878000	 63.6472
6.896000	 63.6927
6.914000	 63.7054
6.932000	 63.696
6.950000	 63.7288
6.968000	 63.7575
6.986000	 63.7487
7.004000	 63.7519
7.022000	 63.7758
7.040000	 63.7568
7.058000	 63.7092
7.076000	 63.678
7.094000	 63.6304
7.112000	 63.5796
7.130000	 63.5852
7.148000	 63.6359
7.166000	 63.6811
7.184000	 63.6852
7.202000	 63.6393
7.220000	 63.5829
7.238000	 63.5703
7.256000	 63.5846
7.274000	 63.5892
7.292000	 63.5912
7.310000	 63.5742
7.328000	 63.5173
7.346000	 63.4616
7.364000	 63.4605
7.382000	 63.5134
7.400000	 63.5598
7.418000	 63.5533
7.436000	 63.5362
7.454000	 63.57
7.472000	 63.638
7.490000	 63.6723
7.508000	 63.6431
7.526000	 63.5985
7.544000	 63.5854
7.562000	 63.581
7.580000	 63.559
7.598000	 63.5449
7.616000	 63.5585
7.634000	 63.5788
7.652000	 63.5798
7.670000	 63.5554
7.688000	 63.5133
7.706000	 63.4718
7.724000	 63.46
7.742000	 63.4917
7.760000	 63.5296
7.778000	 63.5231
7.796000	 63.485
7.814000	 63.4685
7.832000	 63.4885
7.850000	 63.5092
7.868000	 63.4901
7.886000	 63.4219
7.904000	 63.3442
7.922000	 63.3195
7.940000	 63.3681
7.958000	 63.4456
7.976000	 63.4804
7.994000	 63.4443
8.012000	 63.3858
8.030000	 63.3668
8.048000	 63.3796
8.065999	 63.3784
8.084000	 63.367
8.102000	 63.3865
8.120000	 63.4406
8.138000	 63.4933
8.155999	 63.5122
8.173999	 63.4812
8.192000	 63.4021
8.210000	 63.3084
8.228000	 63.2466
8.246000	 63.2324
8.263999	 63.2457
8.282000	 63.2653
8.300000	 63.2898
8.318000	 63.3295
8.336000	 63.3878
8.353999	 63.4473
8.372000	 63.4741
8.390000	 63.4526
8.408000	 63.4096
8.426000	 63.3834
8.443999	 63.3733
8.462000	 63.3508
8.480000	 63.3106
8.498000	 63.2756
8.516000	 63.2604
8.533999	 63.2584
8.552000	 63.2633
8.570000	 63.2746
8.588000	 63.2802
8.606000	 63.2608
8.624000	 63.2125
8.641999	 63.1577
8.660000	 63.1359
8.678000	 63.1793
8.696000	 63.2809
8.714000	 63.3859
8.731999	 63.4294
8.750000	 63.3958
8.768000	 63.3314
8.786000	 63.2935
8.804000	 63.2933
8.821999	 63.2984
8.840000	 63.28
8.858000	 63.2488
8.876000	 63.2368
8.894000	 63.2533
8.911999	 63.27
8.930000	 63.2553
8.948000	 63.2078
8.966000	 63.1543
8.984000	 63.12
9.001999	 63.1124
9.020000	 63.1282
9.038000	 63.1626
9.056000	 63.2038
9.074000	 63.2338
9.092000	 63.2401
9.109999	 63.2241
9.128000	 63.1967
9.146000	 63.1724
9.164000	 63.165
9.182000	 63.1817
9.199999	 63.2156
9.218000	 63.2483
9.236000	 63.2633
9.254000	 63.259
9.272000	 63.2495
9.289999	 63.2505
9.308000	 63.2678
9.326000	 63.2961
9.344000	 63.3266
9.362000	 63.3503
9.379999	 63.3589
9.398000	 63.3476
9.416000	 63.3208
9.434000	 63.2934
9.452000	 63.2803
9.469999	 63.2848
9.488000	 63.2974
9.506000	 63.3053
9.524000	 63.3036
9.542000	 63.2962
9.560000	 63.2877
9.577999	 63.2788
9.596000	 63.2673
9.614000	 63.2519
9.632000	 63.2327
9.650000	 63.2118
9.667999	 63.192
9.686000	 63.1736
9.704000	 63.1542
9.722000	 63.1301
9.740000	 63.1028
9.757999	 63.0801
9.776000	 63.0718
9.794000	 63.0811
9.812000	 63.0992
9.830000	 63.1125
9.847999	 63.1145
9.866000	 63.1116
9.884000	 63.118
9.902000	 63.1441
9.920000	 63.1898
9.937999	 63.2438
9.956000	 63.2912
9.974000	 63.3206
9.992000	 63.3283
10.01	63.3165
10.028	63.2899
10.046	63.2535
10.064	63.2135
10.082	63.1793
10.1	63.1619
10.118	63.1697
10.136	63.2018
10.154	63.2473
10.172	63.2901
10.19	63.3171
10.208	63.3232
10.226	63.3096
10.244	63.2807
10.262	63.2416
10.28	63.1978
10.298	63.1564
10.316	63.1251
10.334	63.1107
10.352	63.1167
10.37	63.1419
10.388	63.1814
10.406	63.2275
10.424	63.2711
10.442	63.3049
10.46	63.326
10.478	63.3372
10.496	63.3442
10.514	63.351
10.532	63.3566
10.55	63.3567
10.568	63.3475
10.586	63.3286
10.604	63.3025
10.622	63.2721
10.64	63.2387
10.658	63.2024
10.676	63.1652
10.694	63.1326
10.712	63.1135
10.73	63.1149
10.748	63.138
10.766	63.1772
10.784	63.2235
10.802	63.2669
10.82	63.3013
10.838	63.3243
10.856	63.3367
10.874	63.3409
10.892	63.3392
10.91	63.3327
10.928	63.3227
10.946	63.3117
10.964	63.3042
10.982	63.3053
11	63.3176
11.018	63.3389
11.036	63.3606
11.054	63.37
11.072	63.3571
11.09	63.3182
11.108	63.2597
11.126	63.1957
11.144	63.1404
11.162	63.103
11.18	63.0855
11.198	63.084
11.216	63.0926
11.234	63.1073
11.252	63.1265
11.27	63.1495
11.288	63.1738
11.306	63.1947
11.324	63.2067
11.342	63.2071
11.36	63.1981
11.378	63.1878
11.396	63.1866
11.414	63.2021
11.432	63.2347
11.45	63.2764
11.468	63.3125
11.486	63.328
11.504	63.3132
11.522	63.2672
11.54	63.1977
11.558	63.1196
11.576	63.0502
11.594	63.0029
11.612	62.9858
11.63	62.998
11.648	63.0303
11.666	63.0679
11.684	63.0946
11.702	63.0987
11.72	63.0753
11.738	63.0286
11.756	62.9698
11.774	62.9138
11.792	62.875
11.81	62.8628
11.828	62.8793
11.846	62.9209
11.864	62.9796
11.882	63.0459
11.9	63.1108
11.918	63.1677
11.936	63.2125
11.954	63.2438
11.972	63.2632
11.99	63.274
12.008	63.281
12.026	63.2886
12.044	63.3012
12.062	63.3204
12.08	63.3446
12.098	63.3691
12.116	63.3873
12.134	63.3919
12.152	63.3777
12.17	63.342
12.188	63.2857
12.206	63.2136
12.224	63.1333
12.242	63.0533
12.26	62.9823
12.278	62.9278
12.296	62.8948
12.314	62.8852
12.332	62.8975
12.35	62.9277
12.368	62.9697
12.386	63.0158
12.404	63.0582
12.422	63.0899
12.44	63.1049
12.458	63.0996
12.476	63.0728
12.494	63.0262
12.512	62.9653
12.53	62.8985
12.548	62.8365
12.566	62.7898
12.584	62.7669
12.602	62.7723
12.62	62.8046
12.638	62.8566
12.656	62.9168
12.674	62.9725
12.692	63.0133
12.71	63.0328
12.728	63.0304
12.746	63.0114
12.764	62.9845
12.782	62.9587
12.8	62.941
12.818	62.9345
12.836	62.9381
12.854	62.9467
12.872	62.9545
12.89	62.9553
12.908	62.9456
12.926	62.9241
12.944	62.8924
12.962	62.8536
12.98	62.8116
12.998	62.7699
13.016	62.732
13.034	62.7001
13.052	62.6763
13.07	62.6624
13.088	62.6594
13.106	62.6675
13.124	62.6856
13.142	62.7117
13.16	62.7429
13.178	62.776
13.196	62.808
13.214	62.8366
13.232	62.8605
13.25	62.8792
13.268	62.8927
13.286	62.9009
13.304	62.9037
13.322	62.9011
13.34	62.893
13.358	62.8797
13.376	62.8623
13.394	62.8426
13.412	62.8233
13.43	62.8067
13.448	62.7951
13.466	62.7896
13.484	62.7901
13.502	62.7952
13.52	62.8025
13.538	62.8097
13.556	62.8146
13.574	62.816
13.592	62.8135
13.61	62.8078
13.628	62.8004
13.646	62.7925
13.664	62.7852
13.682	62.7789
13.7	62.7733
13.718	62.7678
13.736	62.7618
13.754	62.7546
13.772	62.7462
13.79	62.7372
13.808	62.729
13.826	62.723
13.844	62.7206
13.862	62.7227
13.88	62.7297
13.898	62.7411
13.916	62.7557
13.934	62.7717
13.952	62.787
13.97	62.7995
13.988	62.8077
14.006	62.8101
14.024	62.8064
14.042	62.7968
14.06	62.7827
14.078	62.7664
14.096	62.7507
14.114	62.7385
14.132	62.7326
14.15	62.7347
14.168	62.7454
14.186	62.7634
14.204	62.7861
14.222	62.8092
14.24	62.8282
14.258	62.8388
14.276	62.838
14.294	62.8243
14.312	62.7982
14.33	62.7619
14.348	62.7194
14.366	62.6752
14.384	62.6345
14.402	62.6013
14.42	62.5792
14.438	62.5702
14.456	62.575
14.474	62.5935
14.492	62.6244
14.51	62.6657
14.528	62.7151
14.546	62.7707
14.564	62.8303
14.582	62.8919
14.6	62.9534
14.618	63.0125
14.636	63.0664
14.654	63.1126
14.672	63.1487
14.69	63.1727
14.708	63.1837
14.726	63.1818
14.744	63.168
14.762	63.1454
14.78	63.1165
14.798	63.084
14.816	63.05
14.834	63.0154
14.852	62.9797
14.87	62.9415
14.888	62.8993
14.906	62.8521
14.924	62.7995
14.942	62.7424
14.96	62.6841
14.978	62.6288
14.996	62.5816
15.014	62.5477
15.032	62.532
15.05	62.5369
15.068	62.562
15.086	62.605
15.104	62.6617
15.122	62.7249
15.14	62.7873
15.158	62.8429
15.176	62.8864
15.194	62.9142
15.212	62.9255
15.23	62.922
15.248	62.9066
15.266	62.8833
15.284	62.8571
15.302	62.8321
15.32	62.8113
15.338	62.7968
15.356	62.7893
15.374	62.7884
15.392	62.7926
15.41	62.7995
15.428	62.8067
15.446	62.8099
15.464	62.8063
15.482	62.7932
15.5	62.7679
15.518	62.7281
15.536	62.6731
15.554	62.6031
15.572	62.5189
15.59	62.4241
15.608	62.3224
15.626	62.2182
15.644	62.1174
15.662	62.0266
15.68	61.9508
15.698	61.8942
15.716	61.8607
15.734	61.851
15.752	61.8643
15.77	61.8985
15.788	61.9485
15.806	62.0089
15.824	62.0745
15.842	62.1392
15.86	62.1969
15.878	62.2447
15.896	62.2801
15.914	62.3029
15.932	62.3146
15.95	62.3171
15.968	62.3138
15.986	62.3091
16.004	62.3061
16.022	62.308
16.04	62.3179
16.058	62.3362
16.076	62.3631
16.094	62.3978
16.112	62.4376
16.13	62.4805
16.148	62.5238
16.166	62.5644
16.184	62.6007
16.202	62.6307
16.22	62.6535
16.238	62.6691
16.256	62.6778
16.274	62.6811
16.292	62.6804
16.31	62.6771
16.328	62.6734
16.346	62.6708
16.364	62.6702
16.382	62.673
16.4	62.6789
16.418	62.6879
16.436	62.699
16.454	62.7111
16.472	62.723
16.49	62.7323
16.508	62.7372
16.526	62.736
16.544	62.7265
16.562	62.7076
16.58	62.6784
16.598	62.6381
16.616	62.5873
16.634	62.526
16.652	62.4559
16.67	62.3785
16.688	62.2955
16.706	62.2108
16.724	62.1266
16.742	62.0463
16.76	61.9733
16.778	61.9095
16.796	61.8578
16.814	61.8193
16.832	61.7946
16.85	61.7839
16.868	61.7859
16.886	61.7999
16.904	61.8232
16.922	61.8542
16.94	61.8909
16.958	61.9308
16.976	61.9728
16.994	62.0152
17.012	62.0571
17.03	62.0979
17.048	62.1363
17.066	62.172
17.084	62.2044
17.102	62.2321
17.12	62.2548
17.138	62.2716
17.156	62.2824
17.174	62.2868
17.192	62.2859
17.21	62.2801
17.228	62.2711
17.246	62.2611
17.264	62.2513
17.282	62.2449
17.3	62.2429
17.318	62.2477
17.336	62.2601
17.354	62.2807
17.372	62.309
17.39	62.3441
17.408	62.384
17.426	62.426
17.444	62.4685
17.462	62.5071
17.48	62.5407
17.498	62.565
17.516	62.5791
17.534	62.5815
17.552	62.572
17.57	62.5507
17.588	62.5203
17.606	62.4828
17.624	62.4411
17.642	62.4001
17.66	62.362
17.678	62.3331
17.696	62.3149
17.714	62.3123
17.732	62.3263
17.75	62.3591
17.768	62.41
17.786	62.4791
17.804	62.563
17.822	62.6602
17.84	62.7654
17.858	62.8753
17.876	62.9856
17.894	63.0909
17.912	63.1888
17.93	63.2737
17.948	63.3448
17.966	63.3983
17.984	63.4346
18.002	63.4528
18.02	63.4545
18.038	63.4403
18.056	63.4138
18.074	63.376
18.092	63.3323
18.11	63.2838
18.128	63.2363
18.146	63.1909
18.164	63.1524
18.182	63.1215
18.2	63.101
18.218	63.0915
18.236	63.0941
18.254	63.1086
18.272	63.1352
18.29	63.172
18.308	63.2189
18.326	63.2729
18.344	63.3339
18.362	63.3991
18.38	63.468
18.398	63.5383
18.416	63.6095
18.434	63.6799
18.452	63.7485
18.47	63.8143
18.488	63.8761
18.506	63.9336
18.524	63.985
18.542	64.0302
18.56	64.0671
18.578	64.0956
18.596	64.1138
18.614	64.1214
18.632	64.1168
18.65	64.1
18.668	64.0703
18.686	64.0282
18.704	63.9746
18.722	63.9104
18.74	63.838
18.758	63.7584
18.776	63.6755
18.794	63.5905
18.812	63.5074
18.83	63.4276
18.848	63.355
18.866	63.2901
18.884	63.2355
18.902	63.1906
18.92	63.1565
18.938	63.1314
18.956	63.114
18.974	63.1019
18.992	63.092
19.01	63.0818
19.028	63.0671
19.046	63.0459
19.064	63.014
19.082	62.9706
19.1	62.9124
19.118	62.8401
19.136	62.7523
19.154	62.6505
19.172	62.5358
19.19	62.4098
19.208	62.276
19.226	62.1355
19.244	61.9936
19.262	61.8508
19.28	61.7129
19.298	61.5798
19.316	61.4555
19.334	61.3399
19.352	61.2352
19.37	61.1414
19.388	61.0583
19.406	60.9859
19.424	60.9231
19.442	60.8701
19.46	60.825
19.478	60.7876
19.496	60.7574
19.514	60.7342
19.532	60.7182
19.55	60.7089
19.568	60.7075
19.586	60.7149
19.604	60.7317
19.622	60.7593
19.64	60.7978
19.658	60.8492
19.676	60.9131
19.694	60.9894
19.712	61.0783
19.73	61.1777
19.748	61.288
19.766	61.4054
19.784	61.5299
19.802	61.6572
19.82	61.7856
19.838	61.9125
19.856	62.0334
19.874	62.1481
19.892	62.2515
19.91	62.3444
19.928	62.4235
19.946	62.4887
19.964	62.5401
19.982	62.5768
20	62.601
20.018	62.613
20.036	62.6148
20.054	62.6094
20.072	62.5971
20.09	62.5834
20.108	62.5673
20.126	62.5547
20.144	62.5452
20.162	62.5424
20.18	62.548
20.198	62.5627
20.216	62.5889
20.234	62.6261
20.252	62.6752
20.27	62.7362
20.288	62.8083
20.306	62.892
20.324	62.9852
20.342	63.0873
20.36	63.1973
20.378	63.3122
20.396	63.4325
20.414	63.5538
20.432	63.6768
20.45	63.7981
20.468	63.9166
20.486	64.0314
20.504	64.1396
20.522	64.2419
20.54	64.3358
20.558	64.4215
20.576	64.498
20.594	64.5645
20.612	64.6215
20.63	64.6693
20.648	64.7078
20.666	64.7375
20.684	64.7582
20.702	64.7709
20.72	64.7763
20.738	64.7742
20.756	64.7649
20.774	64.7482
20.792	64.7243
20.81	64.6935
20.828	64.6549
20.846	64.6076
20.864	64.5518
20.882	64.4862
20.9	64.411
20.918	64.3251
20.936	64.2276
20.954	64.1188
20.972	63.9983
20.99	63.8659
21.008	63.7227
21.026	63.5685
21.044	63.4045
21.062	63.2334
21.08	63.0541
21.098	62.8716
21.116	62.6859
21.134	62.4994
21.152	62.317
21.17	62.1371
21.188	61.966
21.206	61.804
21.224	61.6528
21.242	61.5173
21.26	61.3959
21.278	61.2918
21.296	61.2057
21.314	61.1373
21.332	61.0875
21.35	61.0563
21.368	61.042
21.386	61.045
21.404	61.0641
21.422	61.0965
21.44	61.1434
21.458	61.2009
21.476	61.2678
21.494	61.3437
21.512	61.4244
21.53	61.5109
21.548	61.6004
21.566	61.6907
21.584	61.7827
21.602	61.8732
21.62	61.9626
21.638	62.0497
21.656	62.1325
21.674	62.2119
21.692	62.286
21.71	62.3546
21.728	62.4175
21.746	62.4736
21.764	62.5233
21.782	62.5658
21.8	62.6006
21.818	62.6279
21.836	62.6469
21.854	62.6577
21.872	62.66
21.89	62.6533
21.908	62.6377
21.926	62.6131
21.944	62.5793
21.962	62.5363
21.98	62.4847
21.998	62.4241
22.016	62.3553
22.034	62.2797
22.052	62.1964
22.07	62.1077
22.088	62.0148
22.106	61.9171
22.124	61.8182
22.142	61.7182
22.16	61.6179
22.178	61.5213
22.196	61.4272
22.214	61.3379
22.232	61.2567
22.25	61.1822
22.268	61.1171
22.286	61.0631
22.304	61.0193
22.322	60.9874
22.34	60.9679
22.358	60.9603
22.376	60.9646
22.394	60.9814
22.412	61.0093
22.43	61.0471
22.448	61.0957
22.466	61.1524
22.484	61.2154
22.502	61.2859
22.52	61.3598
22.538	61.4358
22.556	61.5145
22.574	61.5917
22.592	61.6673
22.61	61.7409
22.628	61.8091
22.646	61.8725
22.664	61.9301
22.682	61.9796
22.7	62.0217
22.718	62.0556
22.736	62.08
22.754	62.0953
22.772	62.1014
22.79	62.0977
22.808	62.0845
22.826	62.062
22.844	62.0305
22.862	61.9898
22.88	61.9405
22.898	61.8829
22.916	61.8168
22.934	61.7434
22.952	61.663
22.97	61.5754
22.988	61.4822
23.006	61.383
23.024	61.2782
23.042	61.1701
23.06	61.0581
23.078	60.9429
23.096	60.828
23.114	60.7125
23.132	60.5974
23.15	60.4868
23.168	60.38
23.186	60.2778
23.204	60.1845
23.222	60.0994
23.24	60.0231
23.258	59.9595
23.276	59.908
23.294	59.869
23.312	59.8455
23.33	59.8376
23.348	59.8449
23.366	59.868
23.384	59.9078
23.402	59.9632
23.42	60.032
23.438	60.1152
23.456	60.2116
23.474	60.317
23.492	60.4318
23.51	60.5556
23.528	60.6826
23.546	60.8123
23.564	60.9455
23.582	61.0759
23.6	61.2019
23.618	61.3254
23.636	61.4408
23.654	61.5452
23.672	61.6409
23.69	61.7252
23.708	61.7958
23.726	61.8539
23.744	61.8995
23.762	61.9323
23.78	61.9515
23.798	61.9596
23.816	61.959
23.834	61.9474
23.852	61.928
23.87	61.9055
23.888	61.8781
23.906	61.8473
23.924	61.8177
23.942	61.7895
23.96	61.7619
23.978	61.7382
23.996	61.7195
24.014	61.7046
24.032	61.6949
24.05	61.6918
24.068	61.6946
24.086	61.7027
24.104	61.7161
24.122	61.7354
24.14	61.7592
24.158	61.7854
24.176	61.8152
24.194	61.8476
24.212	61.8793
24.23	61.91
24.248	61.9404
24.266	61.9683
24.284	61.9924
24.302	62.0138
24.32	62.0312
24.338	62.043
24.356	62.0497
24.374	62.0513
24.392	62.0474
24.41	62.038
24.428	62.0231
24.446	62.0028
24.464	61.9769
24.482	61.9457
24.5	61.9088
24.518	61.8664
24.536	61.8187
24.554	61.7652
24.572	61.7054
24.59	61.6396
24.608	61.5676
24.626	61.4885
24.644	61.402
24.662	61.3088
24.68	61.2077
24.698	61.0974
24.716	60.9786
24.734	60.8512
24.752	60.7152
24.77	60.5705
24.788	60.4173
24.806	60.2556
24.824	60.0854
24.842	59.9064
24.86	59.7194
24.878	59.5254
24.896	59.324
24.914	59.1154
24.932	58.9006
24.95	58.6799
24.968	58.4526
24.986	58.2204
25.004	57.9856
25.022	57.7473
25.04	57.5056
25.058	57.2619
25.076	57.0169
25.094	56.7702
25.112	56.5212
25.13	56.2695
25.148	56.0153
25.166	55.7585
25.184	55.4991
25.202	55.2367
25.22	54.9715
25.238	54.7038
25.256	54.4342
25.274	54.1611
25.292	53.8861
25.31	53.6119
25.328	53.3396
25.346	53.0665
25.364	52.7971
25.382	52.5362
25.4	52.2802
25.418	52.0303
25.436	51.7954
25.454	51.5815
25.472	51.3805
25.49	51.2001
25.508	51.0512
25.526	50.9344
25.544	50.8444
25.562	50.7919
25.58	50.7868
25.598	50.8233
25.616	50.9028
25.634	51.0326
25.652	51.2178
25.67	51.4539
25.688	51.7417
25.706	52.0829
25.724	52.48
25.742	52.9314
25.76	53.4307
25.778	53.9729
25.796	54.5657
25.814	55.2025
25.832	55.8701
25.85	56.5612
25.868	57.2889
25.886	58.0382
25.904	58.7904
25.922	59.5448
25.94	60.3121
25.958	61.0703
25.976	61.7973
25.994	62.5036
26.012	63.1896
26.03	63.8347
26.048	64.4211
26.066	64.9618
26.084	65.453
26.102	65.8823
26.12	66.2411
26.138	66.5368
26.156	66.7685
26.174	66.9338
26.192	67.03
26.21	67.0582
26.228	67.0233
26.246	66.9298
26.264	66.7736
26.282	66.5544
26.3	66.285
26.318	65.9782
26.336	65.6238
26.354	65.2243
26.372	64.7989
26.39	64.3642
26.408	63.9048
26.426	63.4273
26.444	62.9522
26.462	62.4962
26.48	62.0424
26.498	61.599
26.516	61.1828
26.534	60.806
26.552	60.4546
26.57	60.1359
26.588	59.8622
26.606	59.6417
26.624	59.4655
26.642	59.3366
26.66	59.2598
26.678	59.2384
26.696	59.2692
26.714	59.3518
26.732	59.4863
26.75	59.6732
26.768	59.9128
26.786	60.2029
26.804	60.5409
26.822	60.9266
26.84	61.3624
26.858	61.844
26.876	62.3666
26.894	62.9287
26.912	63.535
26.93	64.1796
26.948	64.8562
26.966	65.6008
26.984	66.4762
27.002	67.3321
27.02	68.0053
27.028	68.1833