File: Bakgrunnsmateriale/MATLAB/FTIR/ftir_data/subAa/Mapping_121/BZ1503107-1_t06.asc
PE IR       SPECTRUM    SPECTRUM    ASCII       PEDS        1.60
  -1
BZ1165~1.ASC
17/04/07
13:43:34.00
17/04/07
13:44:01.00
tln
$BZ1503107-1_t0006$<tbV0>[0.0,-13.0,8.0,0.0,27,1,0]
27.028
64

2002,4.07
MIRTGS : RIGHTBACK : INTERNAL 2
MIR : ON : INTERNAL 2
OPTKBR

0.200000
8
8.000000
FILLER
RATIO
SPECTRUM
UNLOCKED 256

DOUBLE
64
COMBINED
1
0
0

0.002000
RATIO

1
0
TRUE
51149
0
LEFT NOT FITTED RIGHT NOT FITTED 0
NONE
NONE
15600
12
4.427000
51148
TRUE
1 0 8 72 0 0 0 0

15798

#HDR
-1
-1
#GR
µM
%T
2.38419e-05
0.0
2.000000
0.002000
12515
8
76.6929
52.2105
#DATA
2.000000	 64.7307
2.018000	 64.1377
2.036000	 63.3558
2.054000	 64.1554
2.072000	 65.3012
2.090000	 65.0253
2.108000	 65.0053
2.126000	 63.8434
2.144000	 64.7333
2.162000	 64.5064
2.180000	 64.3692
2.198000	 63.2904
2.216000	 64.3289
2.234000	 67.6638
2.252000	 61.876
2.270000	 64.4987
2.288000	 64.1867
2.306000	 64.6293
2.324000	 64.9182
2.342000	 64.7221
2.360000	 64.9433
2.378000	 64.7588
2.396000	 64.9842
2.414000	 65.1175
2.432000	 65.0454
2.450000	 65.1285
2.468000	 65.3306
2.486000	 64.9452
2.504000	 64.9435
2.522000	 65.1071
2.540000	 65.0433
2.558000	 64.9965
2.576000	 64.916
2.594000	 65.189
2.612000	 65.1039
2.630000	 65.113
2.648000	 65.0417
2.666000	 65.2779
2.684000	 64.8911
2.702000	 65.219
2.720000	 65.3236
2.738000	 65.082
2.756000	 65.3024
2.774000	 65.11
2.792000	 65.1169
2.810000	 65.1259
2.828000	 64.9088
2.846000	 65.0483
2.864000	 64.9228
2.882000	 64.7142
2.900000	 64.9626
2.918000	 64.9289
2.936000	 65.0245
2.954000	 64.9382
2.972000	 64.8613
2.990000	 64.9119
3.008000	 65.0503
3.026000	 65.0976
3.044000	 65.0586
3.062000	 64.9612
3.080000	 64.9097
3.098000	 64.9751
3.116000	 65.0827
3.134000	 65.0232
3.152000	 64.9614
3.170000	 65.0492
3.188000	 64.8496
3.206000	 64.892
3.224000	 65.0358
3.242000	 64.8918
3.260000	 64.9705
3.278000	 64.9833
3.296000	 64.9939
3.314000	 64.9959
3.332000	 65.1072
3.350000	 64.7922
3.368000	 65.0466
3.386000	 64.8816
3.404000	 64.8204
3.422000	 64.906
3.440000	 64.8661
3.458000	 64.9757
3.476000	 64.9492
3.494000	 64.9395
3.512000	 64.8933
3.530000	 64.9787
3.548000	 65.0183
3.566000	 64.9702
3.584000	 64.9518
3.602000	 64.8942
3.620000	 65.004
3.638000	 65.0054
3.656000	 65.0112
3.674000	 65.0356
3.692000	 64.8124
3.710000	 65.0093
3.728000	 64.9198
3.746000	 64.9482
3.764000	 65.0117
3.782000	 64.9468
3.800000	 64.8876
3.818000	 64.9914
3.836000	 64.949
3.854000	 64.9476
3.872000	 65.081
3.890000	 65.0132
3.908000	 64.9385
3.926000	 64.9356
3.944000	 64.9962
3.962000	 64.9406
3.980000	 65.0269
3.998000	 64.8805
4.016000	 64.9697
4.034000	 65.0346
4.052000	 65.0375
4.070000	 64.9614
4.088000	 65.0329
4.106000	 64.8175
4.124000	 64.7922
4.141999	 64.9363
4.160000	 64.8716
4.178000	 64.9177
4.196000	 64.9966
4.214000	 64.8978
4.232000	 64.9405
4.250000	 64.9397
4.268000	 64.9621
4.286000	 64.9283
4.304000	 64.8747
4.322000	 64.9287
4.340000	 64.9622
4.358000	 64.8422
4.375999	 64.8355
4.394000	 64.9119
4.412000	 64.9143
4.430000	 64.8934
4.448000	 64.8205
4.466000	 64.8779
4.484000	 64.8048
4.502000	 64.8429
4.520000	 64.8187
4.538000	 64.9221
4.556000	 64.8621
4.574000	 64.7307
4.592000	 64.7443
4.609999	 64.809
4.628000	 64.703
4.646000	 64.6825
4.664000	 64.653
4.682000	 64.7162
4.700000	 64.778
4.718000	 64.8553
4.736000	 64.8039
4.754000	 64.7923
4.772000	 64.7805
4.790000	 64.7508
4.808000	 64.806
4.826000	 64.7107
4.843999	 64.6829
4.862000	 64.812
4.880000	 64.824
4.898000	 64.8146
4.916000	 64.7623
4.934000	 64.8053
4.952000	 64.7536
4.970000	 64.8092
4.988000	 64.8443
5.006000	 64.7673
5.024000	 64.7453
5.042000	 64.7402
5.060000	 64.8183
5.077999	 64.8447
5.096000	 64.7961
5.114000	 64.7994
5.132000	 64.7371
5.150000	 64.7134
5.168000	 64.6915
5.186000	 64.7785
5.204000	 64.7071
5.222000	 64.6995
5.240000	 64.7521
5.258000	 64.7521
5.276000	 64.7634
5.294000	 64.7938
5.312000	 64.7036
5.330000	 64.7027
5.348000	 64.7285
5.366000	 64.733
5.384000	 64.703
5.402000	 64.7229
5.420000	 64.7356
5.438000	 64.6288
5.456000	 64.6474
5.474000	 64.7141
5.492000	 64.7251
5.510000	 64.7993
5.528000	 64.7623
5.546000	 64.7358
5.564000	 64.7162
5.582000	 64.7531
5.600000	 64.7579
5.618000	 64.7023
5.636000	 64.7436
5.654000	 64.7667
5.672000	 64.7036
5.690000	 64.6072
5.708000	 64.629
5.726000	 64.5735
5.744000	 64.4844
5.762000	 64.4488
5.780000	 64.4098
5.798000	 64.4184
5.816000	 64.6387
5.834000	 64.705
5.852000	 64.6664
5.870000	 64.6961
5.888000	 64.7294
5.906000	 64.6031
5.923999	 64.504
5.942000	 64.5997
5.960000	 64.7254
5.978000	 64.7075
5.996000	 64.564
6.014000	 64.5455
6.032000	 64.6273
6.050000	 64.7074
6.068000	 64.6761
6.086000	 64.6179
6.104000	 64.6146
6.122000	 64.6389
6.140000	 64.6387
6.158000	 64.6435
6.176000	 64.5848
6.194000	 64.4956
6.212000	 64.5127
6.230000	 64.6431
6.248000	 64.6862
6.266000	 64.6
6.284000	 64.5451
6.302000	 64.5887
6.320000	 64.5612
6.338000	 64.5115
6.356000	 64.5734
6.374000	 64.6072
6.392000	 64.5657
6.410000	 64.589
6.428000	 64.6354
6.446000	 64.624
6.464000	 64.5756
6.482000	 64.4994
6.500000	 64.3957
6.518000	 64.3143
6.536000	 64.3561
6.554000	 64.5278
6.572000	 64.6414
6.590000	 64.6162
6.608000	 64.5863
6.626000	 64.603
6.644000	 64.6089
6.662000	 64.5673
6.680000	 64.5404
6.698000	 64.4908
6.716000	 64.4387
6.734000	 64.4876
6.752000	 64.5168
6.770000	 64.4919
6.788000	 64.5044
6.806000	 64.5192
6.824000	 64.4765
6.842000	 64.4592
6.860000	 64.5339
6.878000	 64.566
6.896000	 64.4897
6.914000	 64.4506
6.932000	 64.5252
6.950000	 64.6436
6.968000	 64.6695
6.986000	 64.5761
7.004000	 64.4981
7.022000	 64.5131
7.040000	 64.5298
7.058000	 64.466
7.076000	 64.3968
7.094000	 64.3868
7.112000	 64.3801
7.130000	 64.3626
7.148000	 64.3725
7.166000	 64.3921
7.184000	 64.4032
7.202000	 64.4048
7.220000	 64.3787
7.238000	 64.3565
7.256000	 64.3818
7.274000	 64.3808
7.292000	 64.3081
7.310000	 64.2882
7.328000	 64.3842
7.346000	 64.4748
7.364000	 64.4832
7.382000	 64.4588
7.400000	 64.4436
7.418000	 64.4505
7.436000	 64.4837
7.454000	 64.4903
7.472000	 64.4222
7.490000	 64.3441
7.508000	 64.3349
7.526000	 64.3617
7.544000	 64.3661
7.562000	 64.3523
7.580000	 64.3277
7.598000	 64.2932
7.616000	 64.2797
7.634000	 64.2835
7.652000	 64.2549
7.670000	 64.2118
7.688000	 64.2174
7.706000	 64.2578
7.724000	 64.2923
7.742000	 64.3283
7.760000	 64.3574
7.778000	 64.3484
7.796000	 64.3257
7.814000	 64.3231
7.832000	 64.3098
7.850000	 64.2541
7.868000	 64.1864
7.886000	 64.147
7.904000	 64.1378
7.922000	 64.1415
7.940000	 64.1501
7.958000	 64.1744
7.976000	 64.2229
7.994000	 64.2712
8.012000	 64.2827
8.030000	 64.2624
8.048000	 64.2459
8.065999	 64.2463
8.084000	 64.251
8.102000	 64.2462
8.120000	 64.2319
8.138000	 64.218
8.155999	 64.2084
8.173999	 64.1931
8.192000	 64.1735
8.210000	 64.1756
8.228000	 64.2143
8.246000	 64.2645
8.263999	 64.2925
8.282000	 64.2872
8.300000	 64.2605
8.318000	 64.2335
8.336000	 64.2244
8.353999	 64.2363
8.372000	 64.2542
8.390000	 64.2591
8.408000	 64.2447
8.426000	 64.2194
8.443999	 64.1946
8.462000	 64.1726
8.480000	 64.1499
8.498000	 64.1333
8.516000	 64.1388
8.533999	 64.1654
8.552000	 64.1819
8.570000	 64.1583
8.588000	 64.1074
8.606000	 64.0784
8.624000	 64.1009
8.641999	 64.1504
8.660000	 64.176
8.678000	 64.1578
8.696000	 64.123
8.714000	 64.1173
8.731999	 64.1643
8.750000	 64.2414
8.768000	 64.2981
8.786000	 64.3007
8.804000	 64.2616
8.821999	 64.2239
8.840000	 64.2224
8.858000	 64.254
8.876000	 64.2842
8.894000	 64.2911
8.911999	 64.2881
8.930000	 64.2943
8.948000	 64.2992
8.966000	 64.2739
8.984000	 64.2019
9.001999	 64.0954
9.020000	 63.9945
9.038000	 63.9497
9.056000	 63.9908
9.074000	 64.1011
9.092000	 64.2264
9.109999	 64.3167
9.128000	 64.358
9.146000	 64.3649
9.164000	 64.3511
9.182000	 64.3222
9.199999	 64.2906
9.218000	 64.2804
9.236000	 64.3076
9.254000	 64.3612
9.272000	 64.4095
9.289999	 64.4281
9.308000	 64.4108
9.326000	 64.3633
9.344000	 64.2963
9.362000	 64.2238
9.379999	 64.161
9.398000	 64.1176
9.416000	 64.0963
9.434000	 64.0916
9.452000	 64.0941
9.469999	 64.0958
9.488000	 64.0955
9.506000	 64.0989
9.524000	 64.1135
9.542000	 64.138
9.560000	 64.1607
9.577999	 64.1692
9.596000	 64.1641
9.614000	 64.1581
9.632000	 64.1625
9.650000	 64.1769
9.667999	 64.191
9.686000	 64.1933
9.704000	 64.1785
9.722000	 64.1481
9.740000	 64.1081
9.757999	 64.0664
9.776000	 64.0328
9.794000	 64.0185
9.812000	 64.0304
9.830000	 64.0642
9.847999	 64.1029
9.866000	 64.1239
9.884000	 64.1135
9.902000	 64.0771
9.920000	 64.0383
9.937999	 64.0234
9.956000	 64.0442
9.974000	 64.0939
9.992000	 64.1567
10.01	64.2186
10.028	64.2707
10.046	64.3042
10.064	64.3077
10.082	64.2741
10.1	64.2098
10.118	64.1395
10.136	64.0933
10.154	64.0883
10.172	64.1188
10.19	64.161
10.208	64.1918
10.226	64.2015
10.244	64.1969
10.262	64.1911
10.28	64.1917
10.298	64.1959
10.316	64.1937
10.334	64.1778
10.352	64.1493
10.37	64.1168
10.388	64.092
10.406	64.0815
10.424	64.0859
10.442	64.101
10.46	64.1241
10.478	64.1567
10.496	64.2031
10.514	64.2635
10.532	64.3305
10.55	64.3898
10.568	64.4274
10.586	64.4371
10.604	64.4233
10.622	64.3967
10.64	64.3657
10.658	64.3312
10.676	64.2883
10.694	64.2341
10.712	64.1734
10.73	64.118
10.748	64.0801
10.766	64.0653
10.784	64.0698
10.802	64.0832
10.82	64.0972
10.838	64.1093
10.856	64.124
10.874	64.148
10.892	64.1832
10.91	64.2237
10.928	64.2588
10.946	64.277
10.964	64.2725
10.982	64.2482
11	64.2138
11.018	64.1828
11.036	64.1653
11.054	64.1651
11.072	64.1789
11.09	64.1969
11.108	64.2081
11.126	64.2035
11.144	64.1802
11.162	64.1432
11.18	64.1031
11.198	64.074
11.216	64.0667
11.234	64.0845
11.252	64.1215
11.27	64.165
11.288	64.1991
11.306	64.2134
11.324	64.2071
11.342	64.189
11.36	64.1732
11.378	64.1723
11.396	64.1905
11.414	64.222
11.432	64.254
11.45	64.2734
11.468	64.2719
11.486	64.2495
11.504	64.2128
11.522	64.1725
11.54	64.1384
11.558	64.1167
11.576	64.1096
11.594	64.1158
11.612	64.1324
11.63	64.1565
11.648	64.1856
11.666	64.217
11.684	64.247
11.702	64.2718
11.72	64.2871
11.738	64.2903
11.756	64.2817
11.774	64.2639
11.792	64.2403
11.81	64.2139
11.828	64.1861
11.846	64.1565
11.864	64.1244
11.882	64.0903
11.9	64.0567
11.918	64.0278
11.936	64.0079
11.954	63.9986
11.972	63.9983
11.99	64.0023
12.008	64.0051
12.026	64.0033
12.044	63.9967
12.062	63.9889
12.08	63.9853
12.098	63.9905
12.116	64.0069
12.134	64.0335
12.152	64.0662
12.17	64.1007
12.188	64.1337
12.206	64.1642
12.224	64.1929
12.242	64.2209
12.26	64.2483
12.278	64.2737
12.296	64.2938
12.314	64.3053
12.332	64.305
12.35	64.2914
12.368	64.2645
12.386	64.2265
12.404	64.1815
12.422	64.1352
12.44	64.0938
12.458	64.0628
12.476	64.046
12.494	64.0442
12.512	64.055
12.53	64.0735
12.548	64.0941
12.566	64.1113
12.584	64.1214
12.602	64.1228
12.62	64.1166
12.638	64.1052
12.656	64.0921
12.674	64.08
12.692	64.0709
12.71	64.0655
12.728	64.064
12.746	64.0661
12.764	64.0714
12.782	64.0796
12.8	64.0906
12.818	64.104
12.836	64.1193
12.854	64.1354
12.872	64.1508
12.89	64.1629
12.908	64.1691
12.926	64.1664
12.944	64.1531
12.962	64.1288
12.98	64.095
12.998	64.0556
13.016	64.0162
13.034	63.9828
13.052	63.9611
13.07	63.9543
13.088	63.963
13.106	63.9844
13.124	64.0128
13.142	64.0412
13.16	64.0627
13.178	64.072
13.196	64.0665
13.214	64.0467
13.232	64.0154
13.25	63.9774
13.268	63.9375
13.286	63.9003
13.304	63.8692
13.322	63.8463
13.34	63.8328
13.358	63.8286
13.376	63.8333
13.394	63.8461
13.412	63.866
13.43	63.892
13.448	63.9228
13.466	63.957
13.484	63.9929
13.502	64.0284
13.52	64.0619
13.538	64.0918
13.556	64.1172
13.574	64.1378
13.592	64.154
13.61	64.1668
13.628	64.1772
13.646	64.1862
13.664	64.1942
13.682	64.2012
13.7	64.2064
13.718	64.209
13.736	64.2082
13.754	64.2033
13.772	64.1944
13.79	64.1821
13.808	64.1676
13.826	64.1526
13.844	64.1387
13.862	64.127
13.88	64.118
13.898	64.1117
13.916	64.1073
13.934	64.1036
13.952	64.0995
13.97	64.0939
13.988	64.0863
14.006	64.0768
14.024	64.0658
14.042	64.0542
14.06	64.0426
14.078	64.0317
14.096	64.022
14.114	64.0132
14.132	64.0044
14.15	63.9944
14.168	63.9815
14.186	63.9642
14.204	63.9409
14.222	63.911
14.24	63.8752
14.258	63.8352
14.276	63.7938
14.294	63.7545
14.312	63.721
14.33	63.6965
14.348	63.6834
14.366	63.6828
14.384	63.6947
14.402	63.7177
14.42	63.7498
14.438	63.7886
14.456	63.8317
14.474	63.8772
14.492	63.9231
14.51	63.9682
14.528	64.0113
14.546	64.0514
14.564	64.0872
14.582	64.1173
14.6	64.1402
14.618	64.1545
14.636	64.1592
14.654	64.154
14.672	64.1397
14.69	64.1179
14.708	64.0906
14.726	64.0605
14.744	64.0304
14.762	64.0027
14.78	63.9793
14.798	63.9613
14.816	63.9489
14.834	63.9418
14.852	63.9392
14.87	63.9402
14.888	63.9439
14.906	63.9492
14.924	63.9557
14.942	63.9626
14.96	63.97
14.978	63.9774
14.996	63.9848
15.014	63.992
15.032	63.9986
15.05	64.0041
15.068	64.008
15.086	64.0098
15.104	64.0092
15.122	64.0058
15.14	63.9996
15.158	63.9908
15.176	63.9797
15.194	63.9668
15.212	63.9528
15.23	63.9386
15.248	63.9254
15.266	63.9144
15.284	63.9069
15.302	63.9044
15.32	63.9078
15.338	63.9183
15.356	63.9365
15.374	63.9626
15.392	63.9961
15.41	64.0362
15.428	64.0816
15.446	64.1303
15.464	64.1801
15.482	64.2291
15.5	64.2749
15.518	64.3152
15.536	64.3482
15.554	64.3727
15.572	64.3878
15.59	64.393
15.608	64.3891
15.626	64.3767
15.644	64.3574
15.662	64.3333
15.68	64.3067
15.698	64.2795
15.716	64.2548
15.734	64.2348
15.752	64.2213
15.77	64.2157
15.788	64.2192
15.806	64.2316
15.824	64.2524
15.842	64.2808
15.86	64.3145
15.878	64.3512
15.896	64.3888
15.914	64.424
15.932	64.4546
15.95	64.4785
15.968	64.494
15.986	64.4998
16.004	64.4961
16.022	64.4828
16.04	64.4612
16.058	64.4329
16.076	64.3994
16.094	64.3632
16.112	64.3262
16.13	64.2903
16.148	64.2571
16.166	64.2281
16.184	64.2036
16.202	64.1843
16.22	64.1697
16.238	64.1592
16.256	64.1521
16.274	64.147
16.292	64.1428
16.31	64.1384
16.328	64.1325
16.346	64.124
16.364	64.1123
16.382	64.0966
16.4	64.0768
16.418	64.0529
16.436	64.025
16.454	63.9938
16.472	63.9598
16.49	63.9242
16.508	63.8886
16.526	63.8538
16.544	63.8221
16.562	63.7945
16.58	63.7723
16.598	63.7568
16.616	63.7483
16.634	63.7472
16.652	63.7531
16.67	63.7651
16.688	63.7825
16.706	63.8035
16.724	63.827
16.742	63.8515
16.76	63.8755
16.778	63.8983
16.796	63.919
16.814	63.9372
16.832	63.9527
16.85	63.9659
16.868	63.977
16.886	63.9866
16.904	63.9959
16.922	64.0055
16.94	64.016
16.958	64.0286
16.976	64.0435
16.994	64.0616
17.012	64.0829
17.03	64.1076
17.048	64.1353
17.066	64.1654
17.084	64.197
17.102	64.2286
17.12	64.2596
17.138	64.2877
17.156	64.3117
17.174	64.3304
17.192	64.3417
17.21	64.3451
17.228	64.3391
17.246	64.3238
17.264	64.2989
17.282	64.2653
17.3	64.2237
17.318	64.176
17.336	64.1242
17.354	64.0698
17.372	64.0163
17.39	63.9649
17.408	63.9187
17.426	63.8793
17.444	63.8482
17.462	63.8273
17.48	63.8168
17.498	63.8179
17.516	63.83
17.534	63.8533
17.552	63.8864
17.57	63.929
17.588	63.9792
17.606	64.0358
17.624	64.0971
17.642	64.1611
17.66	64.2268
17.678	64.2913
17.696	64.3539
17.714	64.4124
17.732	64.4662
17.75	64.5143
17.768	64.5562
17.786	64.5916
17.804	64.621
17.822	64.6443
17.84	64.6622
17.858	64.675
17.876	64.6832
17.894	64.687
17.912	64.6865
17.93	64.682
17.948	64.6735
17.966	64.6605
17.984	64.6431
18.002	64.6208
18.02	64.5937
18.038	64.5616
18.056	64.5251
18.074	64.4841
18.092	64.4399
18.11	64.3928
18.128	64.3448
18.146	64.2964
18.164	64.2496
18.182	64.2054
18.2	64.1653
18.218	64.1307
18.236	64.1023
18.254	64.0814
18.272	64.0684
18.29	64.0636
18.308	64.067
18.326	64.0782
18.344	64.0968
18.362	64.1214
18.38	64.1516
18.398	64.1855
18.416	64.222
18.434	64.2596
18.452	64.2968
18.47	64.3323
18.488	64.3646
18.506	64.3927
18.524	64.4155
18.542	64.4327
18.56	64.4433
18.578	64.4472
18.596	64.4448
18.614	64.4362
18.632	64.4226
18.65	64.4043
18.668	64.3836
18.686	64.3609
18.704	64.3387
18.722	64.3175
18.74	64.3
18.758	64.2866
18.776	64.2798
18.794	64.2796
18.812	64.2877
18.83	64.3037
18.848	64.3281
18.866	64.3602
18.884	64.3993
18.902	64.4442
18.92	64.4934
18.938	64.5453
18.956	64.5979
18.974	64.6497
18.992	64.6983
19.01	64.7426
19.028	64.7803
19.046	64.8107
19.064	64.832
19.082	64.8443
19.1	64.8466
19.118	64.8394
19.136	64.8228
19.154	64.7977
19.172	64.7653
19.19	64.7263
19.208	64.6826
19.226	64.6348
19.244	64.5854
19.262	64.5346
19.28	64.4847
19.298	64.4356
19.316	64.3892
19.334	64.3453
19.352	64.3046
19.37	64.2672
19.388	64.2332
19.406	64.2026
19.424	64.1749
19.442	64.1501
19.46	64.1278
19.478	64.108
19.496	64.0902
19.514	64.0743
19.532	64.0604
19.55	64.0486
19.568	64.0388
19.586	64.0311
19.604	64.0252
19.622	64.0208
19.64	64.0178
19.658	64.0154
19.676	64.0136
19.694	64.0111
19.712	64.0081
19.73	64.0032
19.748	63.9966
19.766	63.9866
19.784	63.973
19.802	63.9555
19.82	63.9334
19.838	63.9072
19.856	63.8767
19.874	63.8425
19.892	63.8062
19.91	63.7679
19.928	63.7307
19.946	63.6942
19.964	63.6621
19.982	63.6344
20	63.6135
20.018	63.6006
20.036	63.596
20.054	63.6014
20.072	63.6164
20.09	63.641
20.108	63.6754
20.126	63.717
20.144	63.7663
20.162	63.8196
20.18	63.8759
20.198	63.9333
20.216	63.9883
20.234	64.041
20.252	64.0872
20.27	64.1275
20.288	64.159
20.306	64.1814
20.324	64.1943
20.342	64.1971
20.36	64.1904
20.378	64.1746
20.396	64.1498
20.414	64.1189
20.432	64.0815
20.45	64.0404
20.468	63.996
20.486	63.9501
20.504	63.9062
20.522	63.8636
20.54	63.8263
20.558	63.7936
20.576	63.7692
20.594	63.7542
20.612	63.7496
20.63	63.7587
20.648	63.7808
20.666	63.8193
20.684	63.874
20.702	63.9465
20.72	64.0384
20.738	64.1491
20.756	64.279
20.774	64.4282
20.792	64.5947
20.81	64.7792
20.828	64.9784
20.846	65.1889
20.864	65.4112
20.882	65.6372
20.9	65.8689
20.918	66.0984
20.936	66.3207
20.954	66.5358
20.972	66.7317
20.99	66.9114
21.008	67.0658
21.026	67.1913
21.044	67.2878
21.062	67.3484
21.08	67.3746
21.098	67.3645
21.116	67.3163
21.134	67.2323
21.152	67.1144
21.17	66.9616
21.188	66.7818
21.206	66.5744
21.224	66.3441
21.242	66.1
21.26	65.8389
21.278	65.5733
21.296	65.304
21.314	65.0347
21.332	64.7756
21.35	64.5235
21.368	64.2863
21.386	64.0662
21.404	63.8631
21.422	63.6812
21.44	63.5197
21.458	63.3789
21.476	63.2597
21.494	63.1611
21.512	63.0809
21.53	63.0203
21.548	62.9756
21.566	62.9447
21.584	62.928
21.602	62.9211
21.62	62.9244
21.638	62.9359
21.656	62.9526
21.674	62.9755
21.692	63.0027
21.71	63.0336
21.728	63.0685
21.746	63.107
21.764	63.1491
21.782	63.1951
21.8	63.2454
21.818	63.2999
21.836	63.3589
21.854	63.423
21.872	63.4912
21.89	63.5622
21.908	63.6372
21.926	63.7127
21.944	63.7877
21.962	63.8625
21.98	63.9302
21.998	63.9918
22.016	64.0446
22.034	64.0813
22.052	64.1051
22.07	64.1097
22.088	64.09
22.106	64.0486
22.124	63.9799
22.142	63.8823
22.16	63.7568
22.178	63.6005
22.196	63.413
22.214	63.1964
22.232	62.9517
22.25	62.6775
22.268	62.3799
22.286	62.061
22.304	61.7196
22.322	61.3664
22.34	61.0008
22.358	60.6252
22.376	60.2518
22.394	59.8767
22.412	59.5065
22.43	59.1516
22.448	58.8069
22.466	58.4814
22.484	58.1823
22.502	57.9054
22.52	57.6596
22.538	57.4482
22.556	57.269
22.574	57.1289
22.592	57.0286
22.61	56.9675
22.628	56.9488
22.646	56.973
22.664	57.0384
22.682	57.1442
22.7	57.2918
22.718	57.4772
22.736	57.6965
22.754	57.9527
22.772	58.2385
22.79	58.5482
22.808	58.886
22.826	59.2417
22.844	59.6099
22.862	59.9946
22.88	60.3832
22.898	60.7709
22.916	61.161
22.934	61.5413
22.952	61.9084
22.97	62.2648
22.988	62.5994
23.006	62.9101
23.024	63.1987
23.042	63.4577
23.06	63.6863
23.078	63.8855
23.096	64.0523
23.114	64.1856
23.132	64.2871
23.15	64.3582
23.168	64.3972
23.186	64.4066
23.204	64.3922
23.222	64.3521
23.24	64.2887
23.258	64.2097
23.276	64.113
23.294	64.001
23.312	63.8824
23.33	63.7561
23.348	63.6231
23.366	63.4902
23.384	63.357
23.402	63.2237
23.42	63.0953
23.438	62.9726
23.456	62.8546
23.474	62.7428
23.492	62.6377
23.51	62.5388
23.528	62.445
23.546	62.3571
23.564	62.2745
23.582	62.1945
23.6	62.1163
23.618	62.0408
23.636	61.9651
23.654	61.8878
23.672	61.81
23.69	61.73
23.708	61.6463
23.726	61.5595
23.744	61.4698
23.762	61.3769
23.78	61.2801
23.798	61.1816
23.816	61.0839
23.834	60.9845
23.852	60.8868
23.87	60.7956
23.888	60.7082
23.906	60.6274
23.924	60.56
23.942	60.5052
23.96	60.4628
23.978	60.4401
23.996	60.4389
24.014	60.4565
24.032	60.4988
24.05	60.5694
24.068	60.6654
24.086	60.7891
24.104	60.9429
24.122	61.1266
24.14	61.3384
24.158	61.5766
24.176	61.8439
24.194	62.1371
24.212	62.4495
24.23	62.782
24.248	63.1352
24.266	63.4992
24.284	63.8692
24.302	64.2512
24.32	64.6344
24.338	65.0091
24.356	65.3826
24.374	65.7477
24.392	66.0929
24.41	66.4206
24.428	66.7307
24.446	67.0141
24.464	67.2671
24.482	67.494
24.5	67.6899
24.518	67.85
24.536	67.9762
24.554	68.0693
24.572	68.1291
24.59	68.1532
24.608	68.1443
24.626	68.1085
24.644	68.0471
24.662	67.9569
24.68	67.8465
24.698	67.7235
24.716	67.5814
24.734	67.4264
24.752	67.2695
24.77	67.1105
24.788	66.947
24.806	66.7877
24.824	66.6387
24.842	66.4951
24.86	66.3603
24.878	66.2393
24.896	66.1322
24.914	66.0373
24.932	65.9552
24.95	65.8866
24.968	65.832
24.986	65.7883
25.004	65.7524
25.022	65.7271
25.04	65.7101
25.058	65.6965
25.076	65.6843
25.094	65.6763
25.112	65.6687
25.13	65.6575
25.148	65.6442
25.166	65.6286
25.184	65.6086
25.202	65.5825
25.22	65.5512
25.238	65.5159
25.256	65.4775
25.274	65.4344
25.292	65.3881
25.31	65.3414
25.328	65.2959
25.346	65.2493
25.364	65.2044
25.382	65.1644
25.4	65.1279
25.418	65.0949
25.436	65.0696
25.454	65.0546
25.472	65.0468
25.49	65.049
25.508	65.0655
25.526	65.0987
25.544	65.1465
25.562	65.2066
25.58	65.2777
25.598	65.3631
25.616	65.4596
25.634	65.5605
25.652	65.6615
25.67	65.7663
25.688	65.8736
25.706	65.9808
25.724	66.0879
25.742	66.1958
25.76	66.303
25.778	66.4073
25.796	66.502
25.814	66.5957
25.832	66.7018
25.85	66.8277
25.868	66.9604
25.886	67.1139
25.904	67.3055
25.922	67.5509
25.94	67.8414
25.958	68.1544
25.976	68.4674
25.994	68.7971
26.012	69.1392
26.03	69.4605
26.048	69.7323
26.066	69.9766
26.084	70.1853
26.102	70.3368
26.12	70.4163
26.138	70.4383
26.156	70.3974
26.174	70.2853
26.192	70.0798
26.21	69.7773
26.228	69.4339
26.246	69.1067
26.264	68.7872
26.282	68.4536
26.3	68.1593
26.318	67.9566
26.336	67.8389
26.354	67.7899
26.372	67.8187
26.39	67.9353
26.408	68.1492
26.426	68.4448
26.444	68.8008
26.462	69.2096
26.48	69.7494
26.498	70.3303
26.516	70.8222
26.534	71.1307
26.552	71.3599
26.57	71.458
26.588	71.3376
26.606	70.928
26.624	70.2638
26.642	69.3809
26.66	68.3098
26.678	67.0487
26.696	65.543
26.714	63.8857
26.732	62.1812
26.75	60.4333
26.768	58.4952
26.786	56.6013
26.804	55.0114
26.822	53.8508
26.84	52.9203
26.858	52.3368
26.876	52.2419
26.894	52.7444
26.912	53.7832
26.93	55.2753
26.948	57.1413
26.966	59.5248
26.984	62.7604
27.002	66.1158
27.02	68.7903
27.028	69.4775