File: Bakgrunnsmateriale/MATLAB/FTIR/ftir_data/subAa/Mapping_121/BZ1503107-1_t107_cm-1.asc
PE IR       SPECTRUM    SPECTRUM    ASCII       PEDS        1.60
  -1
BZCBFC~1.ASC
17/04/07
22:00:32.00
17/04/07
22:00:32.00
tln
$BZ1503107-1_t0107$<tbV0>[-5.2,10.4,8.0,0.0,27,1,0]
370
64

2002,4.07
MIRTGS : RIGHTBACK : INTERNAL 2
MIR : ON : INTERNAL 2
OPTKBR

0.200000
8
8.000000
FILLER
RATIO
SPECTRUM
UNLOCKED 256

DOUBLE
64
COMBINED
1
0
0

1.000000
RATIO

1
0
TRUE
51149
0
LEFT NOT FITTED RIGHT NOT FITTED 0
NONE
NONE
15600
12
4.427000
51148
TRUE
1 0 8 72 0 0 0 0

15798

#HDR
-1
-1
#GR
CM-1
%T
2.38419e-05
0.0
5000
-1.000000
4631
8
87.726
40.4353
#DATA
5000	64.1626
4996	65.4816
4992	64.7281
4988	62.5661
4984	62.1711
4980	63.2316
4976	63.6789
4972	63.129
4968	62.4245
4964	62.6042
4960	63.3085
4956	64.0123
4952	65.3697
4948	66.0782
4944	64.9449
4940	64.4244
4936	64.6025
4932	64.1283
4928	64.1429
4924	64.2784
4920	63.8179
4916	63.5668
4912	63.8777
4908	64.3906
4904	64.085
4900	63.4735
4896	63.4635
4892	63.5323
4888	63.6271
4884	63.9634
4880	64.1556
4876	64.0706
4872	63.9827
4868	63.923
4864	63.9242
4860	64.0353
4856	63.9845
4852	63.6355
4848	63.5178
4844	63.8059
4840	63.9374
4836	63.847
4832	63.8656
4828	64.0723
4824	64.263
4820	64.406
4816	64.5035
4812	64.2778
4808	64.051
4804	64.138
4800	64.229
4796	64.2735
4792	64.3925
4788	64.4257
4784	64.3379
4780	64.3287
4776	64.2496
4772	64.0721
4768	64.0729
4764	64.1419
4760	64.0103
4756	63.7738
4752	63.8044
4748	64.1202
4744	64.3125
4740	64.2954
4736	64.2417
4732	64.1173
4728	64.0215
4724	64.1344
4720	64.2182
4716	64.1198
4712	63.9804
4708	63.8301
4704	63.761
4700	63.9583
4696	64.2422
4692	64.3232
4688	64.4271
4684	64.6348
4680	64.6083
4676	64.3476
4672	64.2949
4668	64.423
4664	64.4033
4660	64.3193
4656	64.3247
4652	64.3799
4648	64.3504
4644	64.2452
4640	64.1463
4636	64.1417
4632	64.2707
4628	64.3709
4624	64.4025
4620	64.5
4616	64.4986
4612	64.2632
4608	64.0981
4604	64.1442
4600	64.1778
4596	64.1039
4592	64.0729
4588	64.3209
4584	64.6795
4580	64.7072
4576	64.4164
4572	64.1163
4568	63.9914
4564	64.0286
4560	64.1113
4556	64.0809
4552	63.9728
4548	63.9479
4544	64.0844
4540	64.2966
4536	64.3467
4532	64.3098
4528	64.256
4524	64.1735
4520	64.1915
4516	64.0676
4512	63.7934
4508	63.7505
4504	63.9321
4500	64.1228
4496	64.2133
4492	64.1252
4488	63.9041
4484	63.7819
4480	63.779
4476	63.7276
4472	64.0876
4468	64.8549
4464	65.2505
4460	65.5751
4456	65.4479
4452	67.0066
4448	73.7031
4444	86.3745
4440	80.7584
4436	54.4943
4432	40.4353
4428	49.3659
4424	61.4124
4420	64.7054
4416	65.6792
4412	65.814
4408	64.7722
4404	64.2061
4400	64.0973
4396	63.877
4392	63.7789
4388	64.097
4384	64.5682
4380	64.5821
4376	64.4116
4372	64.3563
4368	64.0898
4364	63.829
4360	64.0839
4356	64.4385
4352	64.4288
4348	64.3423
4344	64.3988
4340	64.4768
4336	64.393
4332	64.2135
4328	64.1499
4324	64.2776
4320	64.4877
4316	64.4215
4312	64.1713
4308	64.1698
4304	64.2736
4300	64.3676
4296	64.4941
4292	64.5172
4288	64.3317
4284	63.979
4280	63.8964
4276	64.2665
4272	64.4755
4268	64.3276
4264	64.3161
4260	64.4037
4256	64.3784
4252	64.3092
4248	64.2043
4244	64.132
4240	64.1922
4236	64.3761
4232	64.5003
4228	64.4463
4224	64.2215
4220	63.9474
4216	63.9515
4212	64.2098
4208	64.3307
4204	64.2406
4200	64.1587
4196	64.0726
4192	63.981
4188	64.0747
4184	64.2346
4180	64.3621
4176	64.5114
4172	64.5567
4168	64.4652
4164	64.3495
4160	64.2655
4156	64.2499
4152	64.2933
4148	64.2734
4144	64.2139
4140	64.3248
4136	64.4677
4132	64.4003
4128	64.2888
4124	64.2232
4120	64.2565
4116	64.4548
4112	64.6278
4108	64.6016
4104	64.4505
4100	64.3996
4096	64.4785
4092	64.5364
4088	64.5209
4084	64.4848
4080	64.5071
4076	64.5437
4072	64.4924
4068	64.3701
4064	64.3198
4060	64.2514
4056	64.0978
4052	64.0171
4048	63.9337
4044	63.9457
4040	64.2033
4036	64.4502
4032	64.5838
4028	64.6536
4024	64.5895
4020	64.4747
4016	64.4096
4012	64.3721
4008	64.3124
4004	64.2939
4000	64.3886
3996	64.3943
3992	64.3598
3988	64.4122
3984	64.3777
3980	64.2411
3976	64.1732
3972	64.28
3968	64.4367
3964	64.5603
3960	64.6253
3956	64.507
3952	64.2623
3948	64.0866
3944	64.1845
3940	64.4114
3936	64.4496
3932	64.4737
3928	64.5085
3924	64.431
3920	64.3919
3916	64.2813
3912	64.1033
3908	64.1264
3904	64.2727
3900	64.3246
3896	64.2981
3892	64.2154
3888	64.0835
3884	64.1342
3880	64.3439
3876	64.3751
3872	64.3565
3868	64.4397
3864	64.3938
3860	64.306
3856	64.4142
3852	64.5357
3848	64.5186
3844	64.4135
3840	64.2365
3836	64.1905
3832	64.3625
3828	64.4985
3824	64.4479
3820	64.3231
3816	64.2401
3812	64.2752
3808	64.3602
3804	64.305
3800	64.2096
3796	64.2686
3792	64.4059
3788	64.5267
3784	64.6208
3780	64.5745
3776	64.4587
3772	64.4249
3768	64.3711
3764	64.2935
3760	64.2872
3756	64.3265
3752	64.3088
3748	64.2424
3744	64.2735
3740	64.3256
3736	64.2657
3732	64.2123
3728	64.2537
3724	64.3901
3720	64.5386
3716	64.567
3712	64.5314
3708	64.4939
3704	64.4409
3700	64.4422
3696	64.5259
3692	64.5654
3688	64.5612
3684	64.5145
3680	64.362
3676	64.2667
3672	64.3637
3668	64.5319
3664	64.5789
3660	64.5015
3656	64.397
3652	64.3532
3648	64.4517
3644	64.5706
3640	64.5564
3636	64.5057
3632	64.4789
3628	64.4377
3624	64.4175
3620	64.3422
3616	64.2279
3612	64.2918
3608	64.4416
3604	64.4613
3600	64.4392
3596	64.5005
3592	64.5666
3588	64.5914
3584	64.6183
3580	64.5439
3576	64.4153
3572	64.3996
3568	64.463
3564	64.4839
3560	64.3748
3556	64.2555
3552	64.1923
3548	64.1095
3544	64.1163
3540	64.2778
3536	64.4283
3532	64.4591
3528	64.3975
3524	64.3782
3520	64.4557
3516	64.4681
3512	64.3812
3508	64.3189
3504	64.3256
3500	64.3883
3496	64.4234
3492	64.4061
3488	64.4299
3484	64.4218
3480	64.3676
3476	64.4152
3472	64.489
3468	64.5138
3464	64.5249
3460	64.5114
3456	64.4555
3452	64.3658
3448	64.3282
3444	64.3897
3440	64.4323
3436	64.3414
3432	64.2311
3428	64.2042
3424	64.2247
3420	64.2813
3416	64.321
3412	64.3347
3408	64.3194
3404	64.2349
3400	64.1938
3396	64.2456
3392	64.2878
3388	64.3424
3384	64.4267
3380	64.4174
3376	64.3271
3372	64.2967
3368	64.3112
3364	64.3383
3360	64.3756
3356	64.3889
3352	64.4026
3348	64.386
3344	64.3734
3340	64.3477
3336	64.2741
3332	64.2607
3328	64.2796
3324	64.2855
3320	64.2997
3316	64.298
3312	64.2951
3308	64.3366
3304	64.3766
3300	64.3368
3296	64.2602
3292	64.2457
3288	64.3113
3284	64.3609
3280	64.3237
3276	64.2872
3272	64.2676
3268	64.2157
3264	64.1965
3260	64.238
3256	64.2936
3252	64.3377
3248	64.3363
3244	64.2839
3240	64.2579
3236	64.3034
3232	64.3621
3228	64.351
3224	64.293
3220	64.2541
3216	64.2281
3212	64.235
3208	64.2732
3204	64.3575
3200	64.4672
3196	64.5168
3192	64.5621
3188	64.5342
3184	64.3957
3180	64.3535
3176	64.3915
3172	64.372
3168	64.3112
3164	64.2765
3160	64.3303
3156	64.356
3152	64.2489
3148	64.1747
3144	64.2386
3140	64.3258
3136	64.393
3132	64.4088
3128	64.3234
3124	64.2905
3120	64.3525
3116	64.3743
3112	64.307
3108	64.2109
3104	64.2292
3100	64.3427
3096	64.3424
3092	64.2719
3088	64.3065
3084	64.3146
3080	64.2557
3076	64.232
3072	64.2083
3068	64.1993
3064	64.2069
3060	64.2579
3056	64.3591
3052	64.4263
3048	64.4838
3044	64.5216
3040	64.5136
3036	64.4635
3032	64.3746
3028	64.3379
3024	64.3318
3020	64.3273
3016	64.3604
3012	64.3449
3008	64.2956
3004	64.3009
3000	64.3131
2996	64.3035
2992	64.2643
2988	64.2087
2984	64.2148
2980	64.253
2976	64.2313
2972	64.116
2968	63.9547
2964	63.8652
2960	63.8457
2956	63.8277
2952	63.8558
2948	63.9878
2944	64.1124
2940	64.082
2936	63.9848
2932	63.9787
2928	64.0776
2924	64.1238
2920	64.1572
2916	64.2559
2912	64.2384
2908	64.1494
2904	64.109
2900	64.0927
2896	64.1329
2892	64.1667
2888	64.1624
2884	64.187
2880	64.1795
2876	64.1377
2872	64.0943
2868	64.0488
2864	64.018
2860	63.9763
2856	63.9813
2852	64.0623
2848	64.1505
2844	64.1757
2840	64.1413
2836	64.1295
2832	64.1645
2828	64.225
2824	64.2716
2820	64.2807
2816	64.2397
2812	64.1596
2808	64.1032
2804	64.084
2800	64.083
2796	64.1445
2792	64.2525
2788	64.3023
2784	64.2867
2780	64.2697
2776	64.2819
2772	64.2786
2768	64.2241
2764	64.1992
2760	64.18
2756	64.1154
2752	64.1131
2748	64.191
2744	64.2384
2740	64.1908
2736	64.1193
2732	64.1408
2728	64.2003
2724	64.2258
2720	64.2402
2716	64.2439
2712	64.2257
2708	64.188
2704	64.1947
2700	64.2533
2696	64.2702
2692	64.2168
2688	64.1749
2684	64.1902
2680	64.2418
2676	64.2711
2672	64.1792
2668	64.0721
2664	64.1028
2660	64.1816
2656	64.2076
2652	64.2509
2648	64.3155
2644	64.293
2640	64.2241
2636	64.1739
2632	64.1331
2628	64.0905
2624	64.0546
2620	64.0854
2616	64.1765
2612	64.2172
2608	64.1701
2604	64.1356
2600	64.1573
2596	64.1627
2592	64.0898
2588	64.0365
2584	64.1161
2580	64.1831
2576	64.1609
2572	64.1457
2568	64.1077
2564	64.0332
2560	64.0149
2556	64.0951
2552	64.17
2548	64.1563
2544	64.1146
2540	64.0843
2536	64.0585
2532	64.0647
2528	64.1016
2524	64.1135
2520	64.1489
2516	64.2258
2512	64.2154
2508	64.1202
2504	64.0672
2500	64.073
2496	64.0829
2492	64.1261
2488	64.1718
2484	64.1073
2480	64.0327
2476	64.0995
2472	64.1887
2468	64.2082
2464	64.2244
2460	64.2243
2456	64.1952
2452	64.1527
2448	64.1361
2444	64.1304
2440	64.0839
2436	64.0475
2432	64.0458
2428	64.1006
2424	64.177
2420	64.1818
2416	64.1255
2412	64.0656
2408	64.0384
2404	64.0198
2400	64.0285
2396	64.0723
2392	64.051
2388	64.0169
2384	64.0367
2380	64.0176
2376	63.9572
2372	63.9297
2368	63.9563
2364	64.0186
2360	64.0855
2356	64.1047
2352	64.0793
2348	64.0738
2344	64.0556
2340	64.0064
2336	64.0006
2332	64.0564
2328	64.117
2324	64.1298
2320	64.1038
2316	64.1008
2312	64.1349
2308	64.1492
2304	64.0951
2300	64.0189
2296	64.0087
2292	64.0537
2288	64.0746
2284	64.0702
2280	64.0724
2276	64.0692
2272	64.0728
2268	64.0664
2264	64.0625
2260	64.1124
2256	64.1276
2252	64.0576
2248	63.9986
2244	63.9568
2240	63.9238
2236	63.96
2232	64.0372
2228	64.0735
2224	64.0531
2220	64.0124
2216	63.9764
2212	63.9519
2208	63.9081
2204	63.8441
2200	63.8122
2196	63.8121
2192	63.8174
2188	63.8425
2184	63.8888
2180	63.8935
2176	63.866
2172	63.8765
2168	63.8831
2164	63.8724
2160	63.893
2156	63.9296
2152	63.9477
2148	63.946
2144	63.9443
2140	63.9228
2136	63.8794
2132	63.8599
2128	63.8591
2124	63.8398
2120	63.8131
2116	63.7981
2112	63.8074
2108	63.831
2104	63.8475
2100	63.8659
2096	63.8958
2092	63.9095
2088	63.8744
2084	63.8293
2080	63.8121
2076	63.8211
2072	63.8084
2068	63.7639
2064	63.7659
2060	63.8244
2056	63.9043
2052	63.9074
2048	63.8141
2044	63.7406
2040	63.7454
2036	63.8012
2032	63.8406
2028	63.8308
2024	63.7681
2020	63.729
2016	63.7522
2012	63.7492
2008	63.7154
2004	63.6963
2000	63.7191
1996	63.7856
1992	63.8138
1988	63.7626
1984	63.7312
1980	63.7794
1976	63.8208
1972	63.8031
1968	63.7668
1964	63.7277
1960	63.6866
1956	63.6879
1952	63.7222
1948	63.7206
1944	63.681
1940	63.6716
1936	63.6638
1932	63.6433
1928	63.6598
1924	63.6498
1920	63.6214
1916	63.6263
1912	63.6264
1908	63.62
1904	63.6361
1900	63.6764
1896	63.7042
1892	63.6802
1888	63.6531
1884	63.6421
1880	63.6427
1876	63.6434
1872	63.608
1868	63.5982
1864	63.64
1860	63.6899
1856	63.7378
1852	63.7426
1848	63.6733
1844	63.6063
1840	63.6236
1836	63.6631
1832	63.6583
1828	63.6333
1824	63.6069
1820	63.5979
1816	63.6064
1812	63.613
1808	63.5975
1804	63.5673
1800	63.5451
1796	63.5554
1792	63.5939
1788	63.5627
1784	63.4877
1780	63.4848
1776	63.4917
1772	63.478
1768	63.4856
1764	63.4564
1760	63.3691
1756	63.2467
1752	63.1064
1748	62.9802
1744	62.8104
1740	62.579
1736	62.3971
1732	62.3877
1728	62.5859
1724	62.8464
1720	63.0648
1716	63.2068
1712	63.2419
1708	63.2471
1704	63.2475
1700	63.2226
1696	63.2733
1692	63.3616
1688	63.3309
1684	63.2642
1680	63.2687
1676	63.3285
1672	63.3794
1668	63.3641
1664	63.3271
1660	63.3266
1656	63.3725
1652	63.4156
1648	63.4081
1644	63.3703
1640	63.3147
1636	63.275
1632	63.3188
1628	63.362
1624	63.3575
1620	63.3734
1616	63.3337
1612	63.2688
1608	63.2784
1604	63.3094
1600	63.3425
1596	63.345
1592	63.317
1588	63.3112
1584	63.2968
1580	63.2439
1576	63.216
1572	63.2665
1568	63.3338
1564	63.3191
1560	63.252
1556	63.204
1552	63.1497
1548	63.1261
1544	63.1655
1540	63.1982
1536	63.18
1532	63.1725
1528	63.2298
1524	63.2729
1520	63.2532
1516	63.2335
1512	63.2223
1508	63.1802
1504	63.1231
1500	63.1229
1496	63.2412
1492	63.3553
1488	63.3076
1484	63.1714
1480	63.0902
1476	63.1176
1472	63.1382
1468	63.0695
1464	63.0074
1460	62.9689
1456	62.9295
1452	62.9668
1448	63.0268
1444	63.0395
1440	63.0668
1436	63.1173
1432	63.1383
1428	63.1096
1424	63.0686
1420	63.0642
1416	63.1083
1412	63.1601
1408	63.1764
1404	63.169
1400	63.0916
1396	62.9431
1392	62.9055
1388	62.9353
1384	62.9021
1380	62.8872
1376	62.85
1372	62.7938
1368	62.8311
1364	62.9105
1360	62.9868
1356	63.0461
1352	63.0627
1348	63.0431
1344	62.9732
1340	62.8827
1336	62.8745
1332	62.9792
1328	63.0299
1324	62.9936
1320	63.0376
1316	63.0773
1312	62.9915
1308	62.8972
1304	62.8756
1300	62.8609
1296	62.8132
1292	62.7751
1288	62.7584
1284	62.7703
1280	62.7656
1276	62.6934
1272	62.623
1268	62.6078
1264	62.6356
1260	62.6646
1256	62.6504
1252	62.6158
1248	62.5888
1244	62.5488
1240	62.474
1236	62.4368
1232	62.4971
1228	62.5731
1224	62.6389
1220	62.7122
1216	62.7494
1212	62.7544
1208	62.7067
1204	62.6422
1200	62.6637
1196	62.7353
1192	62.7576
1188	62.6728
1184	62.5293
1180	62.4409
1176	62.3679
1172	62.2566
1168	62.1729
1164	62.1361
1160	62.1817
1156	62.3537
1152	62.5175
1148	62.5842
1144	62.5885
1140	62.5227
1136	62.5151
1132	62.5812
1128	62.5715
1124	62.5478
1120	62.5797
1116	62.5631
1112	62.4861
1108	62.4127
1104	62.4671
1100	62.6337
1096	62.6803
1092	62.5792
1088	62.4909
1084	62.444
1080	62.3723
1076	62.3615
1072	62.5017
1068	62.7095
1064	62.8177
1060	62.6775
1056	62.4647
1052	62.4413
1048	62.5079
1044	62.516
1040	62.4815
1036	62.4402
1032	62.463
1028	62.5496
1024	62.5937
1020	62.5329
1016	62.4152
1012	62.3711
1008	62.4281
1004	62.4455
1000	62.4515
996	 62.5542
992	 62.6327
988	 62.6577
984	 62.73
980	 62.784
976	 62.7662
972	 62.6996
968	 62.5821
964	 62.5082
960	 62.5143
956	 62.4687
952	 62.3748
948	 62.3365
944	 62.4222
940	 62.5777
936	 62.59
932	 62.5315
928	 62.5915
924	 62.62
920	 62.5963
916	 62.5936
912	 62.5382
908	 62.5086
904	 62.5319
900	 62.5097
896	 62.4295
892	 62.3999
888	 62.4839
884	 62.5286
880	 62.4231
876	 62.387
872	 62.5115
868	 62.6166
864	 62.7007
860	 62.6797
856	 62.5301
852	 62.4457
848	 62.4245
844	 62.4046
840	 62.4054
836	 62.4096
832	 62.3835
828	 62.2917
824	 62.2483
820	 62.3237
816	 62.3423
812	 62.3744
808	 62.4405
804	 62.3646
800	 62.3127
796	 62.4122
792	 62.499
788	 62.4714
784	 62.3635
780	 62.2844
776	 62.2066
772	 62.1986
768	 62.3388
764	 62.3935
760	 62.377
756	 62.3952
752	 62.4168
748	 62.4502
744	 62.4108
740	 62.353
736	 62.393
732	 62.3846
728	 62.2694
724	 62.2339
720	 62.266
716	 62.2133
712	 62.0382
708	 61.8298
704	 61.6881
700	 61.6455
696	 61.6688
692	 61.7372
688	 61.944
684	 62.1327
680	 62.0072
676	 61.8242
672	 61.9968
668	 62.1786
664	 62.1741
660	 62.2885
656	 62.1709
652	 61.832
648	 61.9441
644	 62.23
640	 62.1552
636	 62.0218
632	 61.9039
628	 61.7424
624	 61.7796
620	 61.8353
616	 61.841
612	 61.9196
608	 61.813
604	 61.676
600	 61.8474
596	 62.027
592	 61.828
588	 61.1842
584	 60.8709
580	 61.4258
576	 62.1043
572	 62.6968
568	 63.1209
564	 62.4426
560	 61.623
556	 62.0143
552	 62.6387
548	 62.9182
544	 62.9312
540	 62.359
536	 61.7235
532	 61.6356
528	 61.7031
524	 61.7872
520	 62.0245
516	 61.6503
512	 61.1835
508	 61.4408
504	 61.3002
500	 60.5249
496	 60.709
492	 61.8927
488	 62.3215
484	 61.6291
480	 61.4389
476	 61.882
472	 61.2333
468	 59.9847
464	 60.0347
460	 60.9677
456	 61.4608
452	 60.9061
448	 59.878
444	 60.1699
440	 61.3379
436	 61.717
432	 61.3436
428	 60.4861
424	 60.8552
420	 63.167
416	 64.2074
412	 62.3185
408	 60.2288
404	 60.4597
400	 61.4239
396	 62.0344
392	 61.9071
388	 58.9077
384	 55.3971
380	 55.677
376	 61.4403
372	 68.5069
370	 70.7817