File: Bakgrunnsmateriale/MATLAB/FTIR/ftir_data/subAa/Mapping_121/BZ1503107-1_t38.asc
PE IR       SPECTRUM    SPECTRUM    ASCII       PEDS        1.60
  -1
BZ2967~1.ASC
17/04/07
16:19:45.00
17/04/07
16:20:11.00
tln
$BZ1503107-1_t0038$<tbV0>[2.6,-5.2,8.0,0.0,27,1,0]
27.028
64

2002,4.07
MIRTGS : RIGHTBACK : INTERNAL 2
MIR : ON : INTERNAL 2
OPTKBR

0.200000
8
8.000000
FILLER
RATIO
SPECTRUM
UNLOCKED 256

DOUBLE
64
COMBINED
1
0
0

0.002000
RATIO

1
0
TRUE
51149
0
LEFT NOT FITTED RIGHT NOT FITTED 0
NONE
NONE
15600
12
4.427000
51148
TRUE
1 0 8 72 0 0 0 0

15798

#HDR
-1
-1
#GR
µM
%T
2.38419e-05
0.0
2.000000
0.002000
12515
8
79.4086
53.2934
#DATA
2.000000	 65.5348
2.018000	 64.7042
2.036000	 65.0169
2.054000	 64.5769
2.072000	 65.1978
2.090000	 64.7806
2.108000	 65.0065
2.126000	 65.3572
2.144000	 64.9586
2.162000	 65.1422
2.180000	 64.8866
2.198000	 65.287
2.216000	 65.0656
2.234000	 64.8432
2.252000	 67.3715
2.270000	 68.1045
2.288000	 65.4251
2.306000	 65.235
2.324000	 65.0964
2.342000	 65.0386
2.360000	 65.0617
2.378000	 65.1434
2.396000	 64.739
2.414000	 65.3013
2.432000	 65.1915
2.450000	 64.8654
2.468000	 65.0509
2.486000	 65.3395
2.504000	 65.2068
2.522000	 65.1693
2.540000	 64.9451
2.558000	 65.4552
2.576000	 65.2625
2.594000	 65.2087
2.612000	 65.235
2.630000	 65.2592
2.648000	 65.1443
2.666000	 65.2778
2.684000	 65.135
2.702000	 65.2072
2.720000	 65.1703
2.738000	 65.4183
2.756000	 65.5247
2.774000	 65.2889
2.792000	 65.2686
2.810000	 65.0707
2.828000	 65.0474
2.846000	 65.22
2.864000	 65.1604
2.882000	 65.1618
2.900000	 65.0349
2.918000	 65.1096
2.936000	 65.3489
2.954000	 65.4119
2.972000	 65.0387
2.990000	 65.16
3.008000	 65.0274
3.026000	 65.2167
3.044000	 65.1113
3.062000	 64.917
3.080000	 65.2359
3.098000	 65.0041
3.116000	 65.0738
3.134000	 64.9751
3.152000	 65.1937
3.170000	 65.3432
3.188000	 65.0042
3.206000	 64.9961
3.224000	 65.0137
3.242000	 65.0088
3.260000	 65.1266
3.278000	 65.1522
3.296000	 65.089
3.314000	 65.0778
3.332000	 65.0868
3.350000	 65.0957
3.368000	 65.0675
3.386000	 65.0475
3.404000	 64.9604
3.422000	 65.04
3.440000	 64.9354
3.458000	 65.0276
3.476000	 64.9661
3.494000	 65.1808
3.512000	 64.9683
3.530000	 65.0355
3.548000	 64.9513
3.566000	 65.0732
3.584000	 65.1658
3.602000	 65.0707
3.620000	 65.0196
3.638000	 65.1087
3.656000	 64.9428
3.674000	 65.0629
3.692000	 64.96
3.710000	 65.1557
3.728000	 64.9955
3.746000	 64.983
3.764000	 65.0528
3.782000	 64.9599
3.800000	 64.9985
3.818000	 65.0694
3.836000	 64.96
3.854000	 64.8902
3.872000	 65.0856
3.890000	 65.004
3.908000	 65.0268
3.926000	 64.9375
3.944000	 64.9691
3.962000	 64.9773
3.980000	 64.9822
3.998000	 65.0353
4.016000	 64.9998
4.034000	 64.9783
4.052000	 65.0015
4.070000	 64.9931
4.088000	 64.9532
4.106000	 65.0482
4.124000	 65.2129
4.141999	 64.8563
4.160000	 65.0908
4.178000	 65.048
4.196000	 64.9669
4.214000	 64.8246
4.232000	 64.9561
4.250000	 65.0048
4.268000	 64.894
4.286000	 64.841
4.304000	 64.8364
4.322000	 64.9223
4.340000	 64.8976
4.358000	 64.8537
4.375999	 64.9288
4.394000	 64.9461
4.412000	 64.8804
4.430000	 64.8217
4.448000	 64.8781
4.466000	 64.9234
4.484000	 64.9508
4.502000	 64.7417
4.520000	 64.8381
4.538000	 64.88
4.556000	 64.8817
4.574000	 64.9058
4.592000	 64.7675
4.609999	 64.8152
4.628000	 64.8113
4.646000	 64.9254
4.664000	 64.8234
4.682000	 64.8678
4.700000	 64.814
4.718000	 64.8603
4.736000	 64.8816
4.754000	 64.8542
4.772000	 64.8342
4.790000	 64.8494
4.808000	 64.737
4.826000	 64.9282
4.843999	 64.7705
4.862000	 64.6756
4.880000	 64.8293
4.898000	 64.7481
4.916000	 64.7152
4.934000	 64.8364
4.952000	 64.7673
4.970000	 64.7229
4.988000	 64.8477
5.006000	 64.7603
5.024000	 64.6079
5.042000	 64.6285
5.060000	 64.6448
5.077999	 64.7541
5.096000	 64.7313
5.114000	 64.7244
5.132000	 64.819
5.150000	 64.7802
5.168000	 64.7737
5.186000	 64.6271
5.204000	 64.701
5.222000	 64.7272
5.240000	 64.6503
5.258000	 64.6206
5.276000	 64.5402
5.294000	 64.573
5.312000	 64.6263
5.330000	 64.6526
5.348000	 64.6641
5.366000	 64.6217
5.384000	 64.6604
5.402000	 64.6812
5.420000	 64.7409
5.438000	 64.6508
5.456000	 64.6232
5.474000	 64.6925
5.492000	 64.6605
5.510000	 64.6408
5.528000	 64.5662
5.546000	 64.6168
5.564000	 64.634
5.582000	 64.5861
5.600000	 64.5369
5.618000	 64.5613
5.636000	 64.5648
5.654000	 64.5364
5.672000	 64.4967
5.690000	 64.4921
5.708000	 64.4498
5.726000	 64.4196
5.744000	 64.3892
5.762000	 64.2994
5.780000	 64.2507
5.798000	 64.3761
5.816000	 64.4218
5.834000	 64.4051
5.852000	 64.4384
5.870000	 64.5365
5.888000	 64.612
5.906000	 64.5984
5.923999	 64.5764
5.942000	 64.5456
5.960000	 64.4974
5.978000	 64.6262
5.996000	 64.6464
6.014000	 64.4574
6.032000	 64.3729
6.050000	 64.4127
6.068000	 64.4101
6.086000	 64.3946
6.104000	 64.4416
6.122000	 64.4891
6.140000	 64.4539
6.158000	 64.3705
6.176000	 64.2824
6.194000	 64.2518
6.212000	 64.3455
6.230000	 64.4537
6.248000	 64.4556
6.266000	 64.4199
6.284000	 64.4004
6.302000	 64.4129
6.320000	 64.4507
6.338000	 64.4032
6.356000	 64.3787
6.374000	 64.4538
6.392000	 64.5093
6.410000	 64.4387
6.428000	 64.3201
6.446000	 64.2617
6.464000	 64.2691
6.482000	 64.3496
6.500000	 64.3512
6.518000	 64.3108
6.536000	 64.308
6.554000	 64.3076
6.572000	 64.3751
6.590000	 64.4941
6.608000	 64.5209
6.626000	 64.4519
6.644000	 64.3899
6.662000	 64.3783
6.680000	 64.4146
6.698000	 64.4487
6.716000	 64.4081
6.734000	 64.3626
6.752000	 64.3738
6.770000	 64.3801
6.788000	 64.3219
6.806000	 64.2454
6.824000	 64.2298
6.842000	 64.2837
6.860000	 64.2975
6.878000	 64.2265
6.896000	 64.2248
6.914000	 64.3193
6.932000	 64.3698
6.950000	 64.3739
6.968000	 64.396
6.986000	 64.4171
7.004000	 64.4155
7.022000	 64.4101
7.040000	 64.4031
7.058000	 64.3693
7.076000	 64.3113
7.094000	 64.2864
7.112000	 64.3046
7.130000	 64.3067
7.148000	 64.305
7.166000	 64.3387
7.184000	 64.3522
7.202000	 64.3089
7.220000	 64.2569
7.238000	 64.2259
7.256000	 64.2091
7.274000	 64.2125
7.292000	 64.2333
7.310000	 64.239
7.328000	 64.2239
7.346000	 64.2329
7.364000	 64.2682
7.382000	 64.2625
7.400000	 64.2157
7.418000	 64.205
7.436000	 64.2364
7.454000	 64.256
7.472000	 64.2628
7.490000	 64.2804
7.508000	 64.29
7.526000	 64.2596
7.544000	 64.1906
7.562000	 64.1149
7.580000	 64.0689
7.598000	 64.0605
7.616000	 64.0773
7.634000	 64.1268
7.652000	 64.1876
7.670000	 64.1881
7.688000	 64.1265
7.706000	 64.1011
7.724000	 64.1571
7.742000	 64.2337
7.760000	 64.2648
7.778000	 64.2305
7.796000	 64.1459
7.814000	 64.0635
7.832000	 64.0318
7.850000	 64.0475
7.868000	 64.0797
7.886000	 64.1017
7.904000	 64.0954
7.922000	 64.0651
7.940000	 64.0388
7.958000	 64.0393
7.976000	 64.0656
7.994000	 64.0965
8.012000	 64.1079
8.030000	 64.1025
8.048000	 64.1098
8.065999	 64.1411
8.084000	 64.1669
8.102000	 64.1569
8.120000	 64.1211
8.138000	 64.0945
8.155999	 64.101
8.173999	 64.1363
8.192000	 64.1749
8.210000	 64.1877
8.228000	 64.1642
8.246000	 64.119
8.263999	 64.0808
8.282000	 64.0762
8.300000	 64.1137
8.318000	 64.1755
8.336000	 64.2277
8.353999	 64.2421
8.372000	 64.2085
8.390000	 64.1407
8.408000	 64.0698
8.426000	 64.0282
8.443999	 64.0267
8.462000	 64.0431
8.480000	 64.0418
8.498000	 64.0084
8.516000	 63.9517
8.533999	 63.8833
8.552000	 63.8184
8.570000	 63.7923
8.588000	 63.8405
8.606000	 63.9501
8.624000	 64.0567
8.641999	 64.1041
8.660000	 64.0904
8.678000	 64.0524
8.696000	 64.0255
8.714000	 64.0194
8.731999	 64.0191
8.750000	 64.0016
8.768000	 63.9627
8.786000	 63.9306
8.804000	 63.9305
8.821999	 63.9444
8.840000	 63.9296
8.858000	 63.8743
8.876000	 63.8174
8.894000	 63.8159
8.911999	 63.8896
8.930000	 63.9922
8.948000	 64.049
8.966000	 64.0247
8.984000	 63.9519
9.001999	 63.8893
9.020000	 63.8681
9.038000	 63.8764
9.056000	 63.88
9.074000	 63.8582
9.092000	 63.8171
9.109999	 63.7768
9.128000	 63.7544
9.146000	 63.7611
9.164000	 63.803
9.182000	 63.8725
9.199999	 63.9404
9.218000	 63.9725
9.236000	 63.9582
9.254000	 63.9262
9.272000	 63.9206
9.289999	 63.9611
9.308000	 64.0265
9.326000	 64.074
9.344000	 64.0746
9.362000	 64.0305
9.379999	 63.9661
9.398000	 63.9069
9.416000	 63.8668
9.434000	 63.8496
9.452000	 63.8559
9.469999	 63.8846
9.488000	 63.9291
9.506000	 63.9714
9.524000	 63.9872
9.542000	 63.9625
9.560000	 63.9069
9.577999	 63.8451
9.596000	 63.7968
9.614000	 63.7673
9.632000	 63.756
9.650000	 63.7647
9.667999	 63.7989
9.686000	 63.8601
9.704000	 63.9406
9.722000	 64.0242
9.740000	 64.0908
9.757999	 64.1219
9.776000	 64.1089
9.794000	 64.0588
9.812000	 63.9955
9.830000	 63.9481
9.847999	 63.9348
9.866000	 63.9529
9.884000	 63.9843
9.902000	 64.01
9.920000	 64.022
9.937999	 64.0252
9.956000	 64.0285
9.974000	 64.0349
9.992000	 64.0384
10.01	64.03
10.028	64.0066
10.046	63.9757
10.064	63.9518
10.082	63.9471
10.1	63.9621
10.118	63.9848
10.136	63.9986
10.154	63.9934
10.172	63.9706
10.19	63.9402
10.208	63.913
10.226	63.8947
10.244	63.8868
10.262	63.889
10.28	63.9017
10.298	63.9246
10.316	63.9538
10.334	63.9823
10.352	64.0033
10.37	64.0131
10.388	64.0118
10.406	64
10.424	63.9777
10.442	63.9455
10.46	63.9094
10.478	63.8826
10.496	63.8803
10.514	63.9107
10.532	63.9678
10.55	64.0335
10.568	64.0878
10.586	64.1196
10.604	64.1315
10.622	64.1346
10.64	64.1391
10.658	64.147
10.676	64.153
10.694	64.152
10.712	64.1452
10.73	64.1407
10.748	64.1481
10.766	64.1703
10.784	64.2019
10.802	64.2317
10.82	64.2504
10.838	64.2556
10.856	64.2505
10.874	64.24
10.892	64.2253
10.91	64.2037
10.928	64.1707
10.946	64.1249
10.964	64.0697
10.982	64.0128
11	63.9618
11.018	63.9223
11.036	63.8973
11.054	63.8883
11.072	63.8968
11.09	63.9235
11.108	63.9667
11.126	64.0209
11.144	64.078
11.162	64.1277
11.18	64.1619
11.198	64.1752
11.216	64.1661
11.234	64.137
11.252	64.0938
11.27	64.0447
11.288	64.0006
11.306	63.9725
11.324	63.9696
11.342	63.9961
11.36	64.0487
11.378	64.1171
11.396	64.1871
11.414	64.2444
11.432	64.2791
11.45	64.2887
11.468	64.2767
11.486	64.25
11.504	64.215
11.522	64.1756
11.54	64.1327
11.558	64.0862
11.576	64.0375
11.594	63.9904
11.612	63.9504
11.63	63.9217
11.648	63.9055
11.666	63.898
11.684	63.8919
11.702	63.8802
11.72	63.8586
11.738	63.8289
11.756	63.7969
11.774	63.7714
11.792	63.7591
11.81	63.7625
11.828	63.7785
11.846	63.7998
11.864	63.8184
11.882	63.8282
11.9	63.8266
11.918	63.8148
11.936	63.7965
11.954	63.7757
11.972	63.7561
11.99	63.7402
12.008	63.7295
12.026	63.725
12.044	63.7269
12.062	63.7333
12.08	63.74
12.098	63.7418
12.116	63.7336
12.134	63.7135
12.152	63.6842
12.17	63.6525
12.188	63.6279
12.206	63.6193
12.224	63.6321
12.242	63.6659
12.26	63.7156
12.278	63.7717
12.296	63.8233
12.314	63.8604
12.332	63.8771
12.35	63.872
12.368	63.8482
12.386	63.8119
12.404	63.7712
12.422	63.7338
12.44	63.7057
12.458	63.6908
12.476	63.6904
12.494	63.7038
12.512	63.7284
12.53	63.761
12.548	63.7975
12.566	63.8339
12.584	63.8666
12.602	63.8931
12.62	63.9124
12.638	63.9251
12.656	63.9342
12.674	63.9436
12.692	63.9572
12.71	63.9775
12.728	64.0044
12.746	64.0351
12.764	64.0644
12.782	64.087
12.8	64.098
12.818	64.0953
12.836	64.0794
12.854	64.0533
12.872	64.0219
12.89	63.9898
12.908	63.9603
12.926	63.9341
12.944	63.9096
12.962	63.8843
12.98	63.8557
12.998	63.8219
13.016	63.7829
13.034	63.7405
13.052	63.6975
13.07	63.6573
13.088	63.6228
13.106	63.596
13.124	63.5773
13.142	63.5655
13.16	63.5581
13.178	63.5523
13.196	63.545
13.214	63.5355
13.232	63.5251
13.25	63.5183
13.268	63.5215
13.286	63.5417
13.304	63.5841
13.322	63.6502
13.34	63.7363
13.358	63.8325
13.376	63.9247
13.394	63.9967
13.412	64.034
13.43	64.0272
13.448	63.9744
13.466	63.8823
13.484	63.7653
13.502	63.642
13.52	63.5314
13.538	63.4497
13.556	63.4068
13.574	63.4047
13.592	63.4383
13.61	63.4973
13.628	63.5692
13.646	63.6412
13.664	63.7041
13.682	63.752
13.7	63.784
13.718	63.8021
13.736	63.8108
13.754	63.8141
13.772	63.8146
13.79	63.8137
13.808	63.8105
13.826	63.8036
13.844	63.7909
13.862	63.7711
13.88	63.7441
13.898	63.7108
13.916	63.6736
13.934	63.6356
13.952	63.6005
13.97	63.5713
13.988	63.55
14.006	63.5381
14.024	63.5359
14.042	63.5435
14.06	63.5609
14.078	63.5877
14.096	63.6234
14.114	63.6675
14.132	63.7192
14.15	63.7764
14.168	63.8351
14.186	63.8899
14.204	63.9347
14.222	63.9629
14.24	63.9691
14.258	63.9501
14.276	63.9058
14.294	63.8389
14.312	63.7557
14.33	63.6646
14.348	63.5749
14.366	63.4952
14.384	63.4316
14.402	63.3865
14.42	63.3587
14.438	63.3438
14.456	63.3351
14.474	63.3255
14.492	63.309
14.51	63.282
14.528	63.2452
14.546	63.2031
14.564	63.163
14.582	63.1335
14.6	63.1233
14.618	63.1396
14.636	63.1868
14.654	63.2652
14.672	63.3714
14.69	63.4992
14.708	63.6401
14.726	63.7851
14.744	63.9238
14.762	64.0493
14.78	64.1561
14.798	64.2411
14.816	64.3025
14.834	64.3395
14.852	64.3532
14.87	64.3437
14.888	64.3106
14.906	64.2531
14.924	64.1703
14.942	64.0626
14.96	63.9327
14.978	63.7857
14.996	63.6291
15.014	63.4725
15.032	63.3296
15.05	63.2123
15.068	63.13
15.086	63.0886
15.104	63.0904
15.122	63.131
15.14	63.2004
15.158	63.2865
15.176	63.3755
15.194	63.4524
15.212	63.504
15.23	63.5236
15.248	63.509
15.266	63.4623
15.284	63.3915
15.302	63.3092
15.32	63.2276
15.338	63.1592
15.356	63.117
15.374	63.1089
15.392	63.1377
15.41	63.2037
15.428	63.304
15.446	63.4314
15.464	63.5778
15.482	63.7356
15.5	63.8965
15.518	64.0535
15.536	64.203
15.554	64.3423
15.572	64.4697
15.59	64.5848
15.608	64.6872
15.626	64.7765
15.644	64.8518
15.662	64.9119
15.68	64.955
15.698	64.9795
15.716	64.9831
15.734	64.9647
15.752	64.9249
15.77	64.865
15.788	64.7883
15.806	64.6988
15.824	64.6009
15.842	64.4999
15.86	64.4021
15.878	64.311
15.896	64.2301
15.914	64.1613
15.932	64.1043
15.95	64.058
15.968	64.0195
15.986	63.9847
16.004	63.9501
16.022	63.9117
16.04	63.8646
16.058	63.8062
16.076	63.7344
16.094	63.6469
16.112	63.5448
16.13	63.4289
16.148	63.3004
16.166	63.1644
16.184	63.0248
16.202	62.8862
16.22	62.7569
16.238	62.6422
16.256	62.5474
16.274	62.4799
16.292	62.443
16.31	62.4397
16.328	62.4718
16.346	62.5368
16.364	62.6328
16.382	62.7535
16.4	62.8921
16.418	63.0427
16.436	63.1955
16.454	63.3432
16.472	63.4806
16.49	63.6005
16.508	63.7007
16.526	63.7797
16.544	63.8378
16.562	63.878
16.58	63.9025
16.598	63.9166
16.616	63.9235
16.634	63.926
16.652	63.9284
16.67	63.9309
16.688	63.9345
16.706	63.9377
16.724	63.9388
16.742	63.935
16.76	63.923
16.778	63.9015
16.796	63.8674
16.814	63.8201
16.832	63.7593
16.85	63.6861
16.868	63.6029
16.886	63.5115
16.904	63.4175
16.922	63.3241
16.94	63.2354
16.958	63.1569
16.976	63.091
16.994	63.0421
17.012	63.0117
17.03	63.0011
17.048	63.0103
17.066	63.038
17.084	63.0828
17.102	63.1411
17.12	63.211
17.138	63.2878
17.156	63.3686
17.174	63.4505
17.192	63.5295
17.21	63.6044
17.228	63.6723
17.246	63.7329
17.264	63.7854
17.282	63.8305
17.3	63.8686
17.318	63.9008
17.336	63.9283
17.354	63.9517
17.372	63.9728
17.39	63.9918
17.408	64.0096
17.426	64.0262
17.444	64.0416
17.462	64.0548
17.48	64.0655
17.498	64.0726
17.516	64.0754
17.534	64.0732
17.552	64.0654
17.57	64.0519
17.588	64.0327
17.606	64.0083
17.624	63.9793
17.642	63.9473
17.66	63.9129
17.678	63.8785
17.696	63.8448
17.714	63.8142
17.732	63.7874
17.75	63.7657
17.768	63.7503
17.786	63.7415
17.804	63.7398
17.822	63.7451
17.84	63.7572
17.858	63.7754
17.876	63.799
17.894	63.8267
17.912	63.8581
17.93	63.8914
17.948	63.9263
17.966	63.9609
17.984	63.9946
18.002	64.0257
18.02	64.0533
18.038	64.0762
18.056	64.0934
18.074	64.1044
18.092	64.1087
18.11	64.1063
18.128	64.0975
18.146	64.0827
18.164	64.0631
18.182	64.0395
18.2	64.013
18.218	63.9849
18.236	63.9558
18.254	63.9269
18.272	63.8983
18.29	63.8702
18.308	63.8425
18.326	63.8146
18.344	63.7862
18.362	63.7564
18.38	63.725
18.398	63.6912
18.416	63.6553
18.434	63.6168
18.452	63.5767
18.47	63.5349
18.488	63.493
18.506	63.451
18.524	63.4111
18.542	63.3735
18.56	63.3399
18.578	63.3103
18.596	63.2862
18.614	63.2676
18.632	63.2552
18.65	63.2488
18.668	63.2488
18.686	63.255
18.704	63.267
18.722	63.2846
18.74	63.3075
18.758	63.3355
18.776	63.3679
18.794	63.4045
18.812	63.4449
18.83	63.4888
18.848	63.5356
18.866	63.5851
18.884	63.6366
18.902	63.6899
18.92	63.7444
18.938	63.7995
18.956	63.8546
18.974	63.9088
18.992	63.9613
19.01	64.0115
19.028	64.0583
19.046	64.1013
19.064	64.1396
19.082	64.173
19.1	64.2008
19.118	64.223
19.136	64.2392
19.154	64.2495
19.172	64.2542
19.19	64.2536
19.208	64.2483
19.226	64.2385
19.244	64.2255
19.262	64.2094
19.28	64.1913
19.298	64.1712
19.316	64.1501
19.334	64.1279
19.352	64.105
19.37	64.0813
19.388	64.0569
19.406	64.0319
19.424	64.006
19.442	63.9791
19.46	63.9511
19.478	63.9217
19.496	63.8911
19.514	63.8591
19.532	63.8263
19.55	63.7927
19.568	63.7593
19.586	63.7267
19.604	63.6954
19.622	63.6668
19.64	63.641
19.658	63.6196
19.676	63.6026
19.694	63.5915
19.712	63.5861
19.73	63.5869
19.748	63.5942
19.766	63.6072
19.784	63.6262
19.802	63.6496
19.82	63.677
19.838	63.7069
19.856	63.7375
19.874	63.7684
19.892	63.7963
19.91	63.8214
19.928	63.8401
19.946	63.8527
19.964	63.8563
19.982	63.8507
20	63.8347
20.018	63.8074
20.036	63.7691
20.054	63.7197
20.072	63.6596
20.09	63.5906
20.108	63.5125
20.126	63.4289
20.144	63.3392
20.162	63.2471
20.18	63.1538
20.198	63.061
20.216	62.9719
20.234	62.8863
20.252	62.8081
20.27	62.7368
20.288	62.6747
20.306	62.6221
20.324	62.5794
20.342	62.5473
20.36	62.5255
20.378	62.5137
20.396	62.512
20.414	62.5191
20.432	62.5352
20.45	62.5588
20.468	62.5896
20.486	62.6268
20.504	62.6691
20.522	62.7167
20.54	62.7678
20.558	62.8224
20.576	62.8795
20.594	62.9387
20.612	62.9996
20.63	63.0606
20.648	63.1223
20.666	63.1832
20.684	63.2436
20.702	63.3023
20.72	63.3586
20.738	63.4126
20.756	63.4631
20.774	63.5103
20.792	63.5535
20.81	63.5925
20.828	63.6273
20.846	63.6575
20.864	63.6832
20.882	63.7048
20.9	63.7219
20.918	63.7353
20.936	63.7452
20.954	63.7518
20.972	63.7564
20.99	63.7587
21.008	63.7596
21.026	63.7596
21.044	63.7587
21.062	63.7575
21.08	63.7559
21.098	63.7538
21.116	63.7514
21.134	63.7482
21.152	63.7437
21.17	63.7381
21.188	63.7303
21.206	63.7204
21.224	63.7079
21.242	63.692
21.26	63.673
21.278	63.6504
21.296	63.624
21.314	63.5941
21.332	63.5609
21.35	63.5241
21.368	63.4851
21.386	63.4437
21.404	63.4005
21.422	63.3573
21.44	63.3133
21.458	63.2706
21.476	63.2298
21.494	63.191
21.512	63.1563
21.53	63.1253
21.548	63.0988
21.566	63.0777
21.584	63.0615
21.602	63.0507
21.62	63.0455
21.638	63.0453
21.656	63.0501
21.674	63.0599
21.692	63.0735
21.71	63.091
21.728	63.112
21.746	63.1347
21.764	63.1598
21.782	63.186
21.8	63.2124
21.818	63.2395
21.836	63.2655
21.854	63.2904
21.872	63.3141
21.89	63.3359
21.908	63.3558
21.926	63.3742
21.944	63.3908
21.962	63.4057
21.98	63.42
21.998	63.4336
22.016	63.4468
22.034	63.4607
22.052	63.4748
22.07	63.4902
22.088	63.5077
22.106	63.5271
22.124	63.5496
22.142	63.5755
22.16	63.6049
22.178	63.6383
22.196	63.676
22.214	63.7175
22.232	63.763
22.25	63.8127
22.268	63.8652
22.286	63.9202
22.304	63.9777
22.322	64.0353
22.34	64.0931
22.358	64.1503
22.376	64.2037
22.394	64.2543
22.412	64.3003
22.43	64.3389
22.448	64.3715
22.466	64.3959
22.484	64.4101
22.502	64.4153
22.52	64.4101
22.538	64.3936
22.556	64.3665
22.574	64.3294
22.592	64.2816
22.61	64.2241
22.628	64.1597
22.646	64.0871
22.664	64.0086
22.682	63.9282
22.7	63.8439
22.718	63.7592
22.736	63.6785
22.754	63.5994
22.772	63.5261
22.79	63.4623
22.808	63.4058
22.826	63.3601
22.844	63.3277
22.862	63.307
22.88	63.3001
22.898	63.3082
22.916	63.3305
22.934	63.3663
22.952	63.4158
22.97	63.4787
22.988	63.5518
23.006	63.6359
23.024	63.73
23.042	63.8287
23.06	63.9327
23.078	64.041
23.096	64.1471
23.114	64.2518
23.132	64.354
23.15	64.447
23.168	64.5317
23.186	64.6072
23.204	64.6683
23.222	64.7153
23.24	64.7482
23.258	64.7638
23.276	64.7618
23.294	64.743
23.312	64.7066
23.33	64.6516
23.348	64.5795
23.366	64.4923
23.384	64.3888
23.402	64.2706
23.42	64.1419
23.438	64.0016
23.456	63.8509
23.474	63.6955
23.492	63.5354
23.51	63.3705
23.528	63.2067
23.546	63.0449
23.564	62.884
23.582	62.7298
23.6	62.584
23.618	62.4447
23.636	62.3165
23.654	62.2018
23.672	62.0985
23.69	62.0094
23.708	61.9365
23.726	61.8786
23.744	61.8362
23.762	61.8102
23.78	61.8003
23.798	61.8062
23.816	61.8274
23.834	61.8646
23.852	61.9166
23.87	61.9822
23.888	62.0625
23.906	62.156
23.924	62.2597
23.942	62.3742
23.96	62.4991
23.978	62.63
23.996	62.7661
24.014	62.9088
24.032	63.0532
24.05	63.1965
24.068	63.3415
24.086	63.484
24.104	63.6201
24.122	63.7525
24.14	63.8786
24.158	63.9942
24.176	64.1007
24.194	64.1975
24.212	64.282
24.23	64.3536
24.248	64.4132
24.266	64.4596
24.284	64.4921
24.302	64.5109
24.32	64.517
24.338	64.5112
24.356	64.4923
24.374	64.4621
24.392	64.4231
24.41	64.3739
24.428	64.3156
24.446	64.2521
24.464	64.1843
24.482	64.1104
24.5	64.0351
24.518	63.9624
24.536	63.8889
24.554	63.818
24.572	63.7544
24.59	63.6969
24.608	63.6456
24.626	63.6043
24.644	63.5748
24.662	63.555
24.68	63.547
24.698	63.5525
24.716	63.5711
24.734	63.6022
24.752	63.6458
24.77	63.7026
24.788	63.7721
24.806	63.8526
24.824	63.943
24.842	64.0447
24.86	64.1556
24.878	64.2733
24.896	64.3988
24.914	64.5317
24.932	64.6688
24.95	64.8089
24.968	64.9542
24.986	65.1011
25.004	65.2463
25.022	65.391
25.04	65.5349
25.058	65.6761
25.076	65.8133
25.094	65.9475
25.112	66.0785
25.13	66.2059
25.148	66.3289
25.166	66.4487
25.184	66.5669
25.202	66.6843
25.22	66.7995
25.238	66.9146
25.256	67.0313
25.274	67.147
25.292	67.2639
25.31	67.387
25.328	67.5185
25.346	67.6543
25.364	67.8001
25.382	67.9628
25.4	68.1403
25.418	68.3319
25.436	68.5437
25.454	68.7803
25.472	69.0381
25.49	69.3185
25.508	69.6246
25.526	69.9583
25.544	70.3177
25.562	70.701
25.58	71.1065
25.598	71.538
25.616	71.9919
25.634	72.4607
25.652	72.9416
25.67	73.4419
25.688	73.9508
25.706	74.4557
25.724	74.9587
25.742	75.4639
25.76	75.9564
25.778	76.4224
25.796	76.8716
25.814	77.3003
25.832	77.6958
25.85	78.0497
25.868	78.3708
25.886	78.6542
25.904	78.8928
25.922	79.0836
25.94	79.2304
25.958	79.3338
25.976	79.3941
25.994	79.4075
26.012	79.3771
26.03	79.3105
26.048	79.2136
26.066	79.0771
26.084	78.909
26.102	78.7237
26.12	78.5291
26.138	78.3122
26.156	78.0855
26.174	77.8645
26.192	77.6538
26.21	77.4425
26.228	77.2429
26.246	77.0679
26.264	76.9181
26.282	76.7876
26.3	76.6829
26.318	76.6103
26.336	76.5693
26.354	76.5576
26.372	76.5755
26.39	76.6241
26.408	76.7072
26.426	76.8202
26.444	76.9554
26.462	77.1069
26.48	77.284
26.498	77.4794
26.516	77.6816
26.534	77.8829
26.552	78.0963
26.57	78.311
26.588	78.5119
26.606	78.69
26.624	78.8584
26.642	79.0083
26.66	79.1273
26.678	79.2094
26.696	79.2654
26.714	79.287
26.732	79.2642
26.75	79.1913
26.768	79.0759
26.786	78.9149
26.804	78.7044
26.822	78.4424
26.84	78.1318
26.858	77.7719
26.876	77.3611
26.894	76.8985
26.912	76.3848
26.93	75.8213
26.948	75.2091
26.966	74.5064
26.984	73.6502
27.002	72.7998
27.02	72.1286
27.028	71.9525