File: Bakgrunnsmateriale/MATLAB/FTIR/ftir_data/subAa/Mapping_121/BZ1503107-1_t87.asc
PE IR       SPECTRUM    SPECTRUM    ASCII       PEDS        1.60
  -1
BZ2565~1.ASC
17/04/07
20:21:02.00
17/04/07
20:21:28.00
tln
$BZ1503107-1_t0087$<tbV0>[-10.4,5.2,8.0,0.0,27,1,0]
27.028
64

2002,4.07
MIRTGS : RIGHTBACK : INTERNAL 2
MIR : ON : INTERNAL 2
OPTKBR

0.200000
8
8.000000
FILLER
RATIO
SPECTRUM
UNLOCKED 256

DOUBLE
64
COMBINED
1
0
0

0.002000
RATIO

1
0
TRUE
51149
0
LEFT NOT FITTED RIGHT NOT FITTED 0
NONE
NONE
15600
12
4.427000
51148
TRUE
1 0 8 72 0 0 0 0

15798

#HDR
-1
-1
#GR
µM
%T
2.38419e-05
0.0
2.000000
0.002000
12515
8
68.8017
40.6801
#DATA
2.000000	 63.8935
2.018000	 64.8538
2.036000	 64.222
2.054000	 63.9681
2.072000	 64.0797
2.090000	 64.0716
2.108000	 64.0941
2.126000	 64.1674
2.144000	 63.92
2.162000	 63.942
2.180000	 64.2021
2.198000	 63.9405
2.216000	 64.2929
2.234000	 64.6124
2.252000	 62.5559
2.270000	 65.0282
2.288000	 63.5548
2.306000	 64.2466
2.324000	 64.3621
2.342000	 64.199
2.360000	 64.3517
2.378000	 64.2158
2.396000	 63.997
2.414000	 63.9556
2.432000	 64.181
2.450000	 64.3144
2.468000	 64.4384
2.486000	 64.4343
2.504000	 64.2358
2.522000	 64.2912
2.540000	 64.0711
2.558000	 64.3049
2.576000	 64.2206
2.594000	 64.5511
2.612000	 64.1364
2.630000	 64.4102
2.648000	 64.6218
2.666000	 64.3478
2.684000	 64.3988
2.702000	 64.5937
2.720000	 64.5721
2.738000	 64.4242
2.756000	 64.3733
2.774000	 64.4326
2.792000	 64.3319
2.810000	 64.4788
2.828000	 64.3611
2.846000	 64.4613
2.864000	 64.3699
2.882000	 64.5289
2.900000	 64.5258
2.918000	 64.2882
2.936000	 64.2028
2.954000	 64.3321
2.972000	 64.4314
2.990000	 64.4576
3.008000	 64.3871
3.026000	 64.3283
3.044000	 64.0836
3.062000	 64.2904
3.080000	 64.394
3.098000	 64.4073
3.116000	 64.4196
3.134000	 64.2256
3.152000	 64.3024
3.170000	 64.4773
3.188000	 64.1987
3.206000	 64.4516
3.224000	 64.1878
3.242000	 64.3261
3.260000	 64.5141
3.278000	 64.4378
3.296000	 64.4022
3.314000	 64.3137
3.332000	 64.1258
3.350000	 64.3022
3.368000	 64.0331
3.386000	 64.0786
3.404000	 64.1614
3.422000	 64.0916
3.440000	 64.2582
3.458000	 64.2727
3.476000	 64.32
3.494000	 64.2016
3.512000	 64.304
3.530000	 64.2262
3.548000	 64.3124
3.566000	 64.353
3.584000	 64.2874
3.602000	 64.3099
3.620000	 64.4214
3.638000	 64.3607
3.656000	 64.3424
3.674000	 64.4036
3.692000	 64.2141
3.710000	 64.1869
3.728000	 64.2841
3.746000	 64.2216
3.764000	 64.1143
3.782000	 64.1556
3.800000	 64.1939
3.818000	 64.2733
3.836000	 64.15
3.854000	 64.2327
3.872000	 64.1306
3.890000	 64.2048
3.908000	 64.174
3.926000	 64.1453
3.944000	 64.1631
3.962000	 64.2139
3.980000	 64.1069
3.998000	 64.1428
4.016000	 64.2297
4.034000	 64.1992
4.052000	 64.1829
4.070000	 64.1202
4.088000	 64.0815
4.106000	 64.0855
4.124000	 64.1023
4.141999	 64.241
4.160000	 64.1106
4.178000	 64.0153
4.196000	 64.0072
4.214000	 63.9907
4.232000	 64.0416
4.250000	 64.0527
4.268000	 64.0793
4.286000	 64.0949
4.304000	 64.0591
4.322000	 64.0899
4.340000	 64.1245
4.358000	 63.9746
4.375999	 64.0621
4.394000	 64.0271
4.412000	 64.108
4.430000	 64.0905
4.448000	 64.0048
4.466000	 63.949
4.484000	 64.077
4.502000	 64.0737
4.520000	 63.9809
4.538000	 64.0141
4.556000	 63.9866
4.574000	 64.0345
4.592000	 64.0078
4.609999	 63.9036
4.628000	 63.9888
4.646000	 63.9038
4.664000	 63.8953
4.682000	 63.8587
4.700000	 63.9336
4.718000	 63.8758
4.736000	 63.9691
4.754000	 63.9096
4.772000	 63.8422
4.790000	 63.8762
4.808000	 63.907
4.826000	 63.8608
4.843999	 63.889
4.862000	 63.8414
4.880000	 63.7374
4.898000	 63.8018
4.916000	 63.817
4.934000	 63.7661
4.952000	 63.9
4.970000	 63.8449
4.988000	 63.8177
5.006000	 63.7242
5.024000	 63.694
5.042000	 63.7418
5.060000	 63.6697
5.077999	 63.7176
5.096000	 63.8257
5.114000	 63.803
5.132000	 63.825
5.150000	 63.8122
5.168000	 63.7359
5.186000	 63.8041
5.204000	 63.7899
5.222000	 63.8163
5.240000	 63.8249
5.258000	 63.7258
5.276000	 63.7227
5.294000	 63.7158
5.312000	 63.7169
5.330000	 63.7454
5.348000	 63.6993
5.366000	 63.7262
5.384000	 63.7311
5.402000	 63.7278
5.420000	 63.7462
5.438000	 63.6494
5.456000	 63.6374
5.474000	 63.6758
5.492000	 63.6392
5.510000	 63.6537
5.528000	 63.6157
5.546000	 63.6777
5.564000	 63.7575
5.582000	 63.7527
5.600000	 63.6629
5.618000	 63.6436
5.636000	 63.6926
5.654000	 63.6895
5.672000	 63.5981
5.690000	 63.6136
5.708000	 63.5127
5.726000	 63.3954
5.744000	 63.3127
5.762000	 63.2653
5.780000	 63.3273
5.798000	 63.3878
5.816000	 63.4662
5.834000	 63.5918
5.852000	 63.5389
5.870000	 63.428
5.888000	 63.4277
5.906000	 63.4978
5.923999	 63.5166
5.942000	 63.4874
5.960000	 63.4475
5.978000	 63.3313
5.996000	 63.3363
6.014000	 63.4151
6.032000	 63.5353
6.050000	 63.5531
6.068000	 63.5435
6.086000	 63.5977
6.104000	 63.5067
6.122000	 63.4249
6.140000	 63.5029
6.158000	 63.5737
6.176000	 63.5885
6.194000	 63.5364
6.212000	 63.3792
6.230000	 63.313
6.248000	 63.4182
6.266000	 63.4548
6.284000	 63.3633
6.302000	 63.4176
6.320000	 63.4542
6.338000	 63.3546
6.356000	 63.3134
6.374000	 63.2947
6.392000	 63.3035
6.410000	 63.3241
6.428000	 63.3396
6.446000	 63.3158
6.464000	 63.2834
6.482000	 63.3792
6.500000	 63.4399
6.518000	 63.3632
6.536000	 63.3051
6.554000	 63.332
6.572000	 63.3831
6.590000	 63.3762
6.608000	 63.3435
6.626000	 63.3929
6.644000	 63.4674
6.662000	 63.4214
6.680000	 63.3249
6.698000	 63.2851
6.716000	 63.275
6.734000	 63.2935
6.752000	 63.3173
6.770000	 63.3201
6.788000	 63.3265
6.806000	 63.3304
6.824000	 63.317
6.842000	 63.3482
6.860000	 63.4046
6.878000	 63.3433
6.896000	 63.1982
6.914000	 63.1387
6.932000	 63.1732
6.950000	 63.2466
6.968000	 63.3407
6.986000	 63.4117
7.004000	 63.456
7.022000	 63.4713
7.040000	 63.4018
7.058000	 63.2866
7.076000	 63.1986
7.094000	 63.1695
7.112000	 63.2227
7.130000	 63.2943
7.148000	 63.3077
7.166000	 63.2925
7.184000	 63.2944
7.202000	 63.2719
7.220000	 63.1737
7.238000	 63.0865
7.256000	 63.1133
7.274000	 63.2168
7.292000	 63.3059
7.310000	 63.3105
7.328000	 63.2299
7.346000	 63.1632
7.364000	 63.1688
7.382000	 63.1934
7.400000	 63.1952
7.418000	 63.1794
7.436000	 63.1515
7.454000	 63.1481
7.472000	 63.1975
7.490000	 63.2333
7.508000	 63.1937
7.526000	 63.1434
7.544000	 63.156
7.562000	 63.1911
7.580000	 63.1783
7.598000	 63.128
7.616000	 63.0928
7.634000	 63.0826
7.652000	 63.0788
7.670000	 63.073
7.688000	 63.0519
7.706000	 63.0086
7.724000	 62.9738
7.742000	 62.9769
7.760000	 62.9963
7.778000	 63
7.796000	 62.9975
7.814000	 63.011
7.832000	 63.0362
7.850000	 63.0554
7.868000	 63.0521
7.886000	 63.0052
7.904000	 62.9186
7.922000	 62.8473
7.940000	 62.8487
7.958000	 62.9154
7.976000	 62.9821
7.994000	 62.9942
8.012000	 62.951
8.030000	 62.8866
8.048000	 62.8384
8.065999	 62.8356
8.084000	 62.885
8.102000	 62.9567
8.120000	 63.0091
8.138000	 63.0281
8.155999	 63.0215
8.173999	 62.9974
8.192000	 62.9732
8.210000	 62.9789
8.228000	 63.0197
8.246000	 63.055
8.263999	 63.0481
8.282000	 63.0104
8.300000	 62.9752
8.318000	 62.9551
8.336000	 62.9471
8.353999	 62.9392
8.372000	 62.9097
8.390000	 62.8581
8.408000	 62.8252
8.426000	 62.8485
8.443999	 62.9057
8.462000	 62.9406
8.480000	 62.932
8.498000	 62.8999
8.516000	 62.8624
8.533999	 62.8253
8.552000	 62.8012
8.570000	 62.8086
8.588000	 62.8485
8.606000	 62.9006
8.624000	 62.9444
8.641999	 62.9703
8.660000	 62.9758
8.678000	 62.9662
8.696000	 62.9575
8.714000	 62.9616
8.731999	 62.9689
8.750000	 62.9584
8.768000	 62.9279
8.786000	 62.898
8.804000	 62.8841
8.821999	 62.877
8.840000	 62.8637
8.858000	 62.8515
8.876000	 62.8588
8.894000	 62.8881
8.911999	 62.9226
8.930000	 62.9499
8.948000	 62.9717
8.966000	 62.986
8.984000	 62.9768
9.001999	 62.9319
9.020000	 62.8641
9.038000	 62.8033
9.056000	 62.7671
9.074000	 62.7505
9.092000	 62.7441
9.109999	 62.7524
9.128000	 62.7867
9.146000	 62.8489
9.164000	 62.9245
9.182000	 62.9901
9.199999	 63.025
9.218000	 63.0189
9.236000	 62.9768
9.254000	 62.9198
9.272000	 62.8753
9.289999	 62.8605
9.308000	 62.8742
9.326000	 62.9013
9.344000	 62.9242
9.362000	 62.9304
9.379999	 62.9162
9.398000	 62.8864
9.416000	 62.853
9.434000	 62.8308
9.452000	 62.8306
9.469999	 62.8524
9.488000	 62.8864
9.506000	 62.9176
9.524000	 62.9343
9.542000	 62.9317
9.560000	 62.9119
9.577999	 62.8809
9.596000	 62.8464
9.614000	 62.8172
9.632000	 62.8031
9.650000	 62.8103
9.667999	 62.8366
9.686000	 62.8677
9.704000	 62.8829
9.722000	 62.8709
9.740000	 62.8411
9.757999	 62.8229
9.776000	 62.8456
9.794000	 62.9164
9.812000	 63.0106
9.830000	 63.0871
9.847999	 63.1157
9.866000	 63.0932
9.884000	 63.0406
9.902000	 62.9854
9.920000	 62.9452
9.937999	 62.9211
9.956000	 62.9024
9.974000	 62.8769
9.992000	 62.8388
10.01	62.7903
10.028	62.7413
10.046	62.704
10.064	62.6896
10.082	62.704
10.1	62.7457
10.118	62.8056
10.136	62.8708
10.154	62.9294
10.172	62.9751
10.19	63.0085
10.208	63.0311
10.226	63.041
10.244	63.0327
10.262	63.0027
10.28	62.9573
10.298	62.9122
10.316	62.8849
10.334	62.8827
10.352	62.8986
10.37	62.917
10.388	62.9258
10.406	62.925
10.424	62.9227
10.442	62.9254
10.46	62.9307
10.478	62.9289
10.496	62.9135
10.514	62.8898
10.532	62.8737
10.55	62.8814
10.568	62.9176
10.586	62.9695
10.604	63.0149
10.622	63.034
10.64	63.0206
10.658	62.9838
10.676	62.9427
10.694	62.9153
10.712	62.9124
10.73	62.9343
10.748	62.973
10.766	63.0151
10.784	63.0462
10.802	63.0528
10.82	63.0277
10.838	62.9723
10.856	62.8976
10.874	62.8227
10.892	62.7664
10.91	62.7418
10.928	62.751
10.946	62.7867
10.964	62.8367
10.982	62.8883
11	62.9327
11.018	62.9634
11.036	62.976
11.054	62.9673
11.072	62.9373
11.09	62.8917
11.108	62.8412
11.126	62.8003
11.144	62.7797
11.162	62.7831
11.18	62.8066
11.198	62.8421
11.216	62.8818
11.234	62.922
11.252	62.9623
11.27	63.0024
11.288	63.0384
11.306	63.0633
11.324	63.0695
11.342	63.0534
11.36	63.0196
11.378	62.9801
11.396	62.9493
11.414	62.9381
11.432	62.9492
11.45	62.9764
11.468	63.0062
11.486	63.0243
11.504	63.0205
11.522	62.9917
11.54	62.9419
11.558	62.8806
11.576	62.82
11.594	62.7709
11.612	62.7409
11.63	62.7326
11.648	62.7435
11.666	62.7667
11.684	62.7937
11.702	62.8171
11.72	62.8319
11.738	62.836
11.756	62.8305
11.774	62.8184
11.792	62.8048
11.81	62.7952
11.828	62.7949
11.846	62.8074
11.864	62.8323
11.882	62.8654
11.9	62.8989
11.918	62.9229
11.936	62.9294
11.954	62.9145
11.972	62.8804
11.99	62.8356
12.008	62.7921
12.026	62.7623
12.044	62.7554
12.062	62.7739
12.08	62.8133
12.098	62.864
12.116	62.9137
12.134	62.9512
12.152	62.9693
12.17	62.9658
12.188	62.9421
12.206	62.9029
12.224	62.8541
12.242	62.8016
12.26	62.7508
12.278	62.7064
12.296	62.6718
12.314	62.6487
12.332	62.6372
12.35	62.635
12.368	62.6387
12.386	62.6442
12.404	62.6477
12.422	62.6471
12.44	62.6422
12.458	62.6348
12.476	62.6276
12.494	62.6238
12.512	62.6252
12.53	62.6322
12.548	62.6435
12.566	62.6568
12.584	62.6693
12.602	62.6787
12.62	62.6834
12.638	62.6826
12.656	62.6763
12.674	62.6652
12.692	62.651
12.71	62.636
12.728	62.6238
12.746	62.6187
12.764	62.6248
12.782	62.645
12.8	62.6797
12.818	62.7266
12.836	62.7805
12.854	62.8341
12.872	62.8797
12.89	62.9107
12.908	62.9233
12.926	62.9168
12.944	62.8941
12.962	62.8603
12.98	62.8215
12.998	62.783
13.016	62.7491
13.034	62.722
13.052	62.7024
13.07	62.6895
13.088	62.6818
13.106	62.6769
13.124	62.6728
13.142	62.6674
13.16	62.6593
13.178	62.648
13.196	62.6336
13.214	62.617
13.232	62.599
13.25	62.5808
13.268	62.5631
13.286	62.546
13.304	62.5293
13.322	62.5126
13.34	62.4954
13.358	62.4782
13.376	62.4618
13.394	62.4477
13.412	62.4378
13.43	62.4338
13.448	62.4362
13.466	62.4447
13.484	62.4575
13.502	62.4723
13.52	62.4863
13.538	62.4972
13.556	62.503
13.574	62.5029
13.592	62.4971
13.61	62.4864
13.628	62.4724
13.646	62.4565
13.664	62.4404
13.682	62.4252
13.7	62.4119
13.718	62.4007
13.736	62.392
13.754	62.3856
13.772	62.3821
13.79	62.3816
13.808	62.3853
13.826	62.3947
13.844	62.4116
13.862	62.4378
13.88	62.4744
13.898	62.5216
13.916	62.5781
13.934	62.6407
13.952	62.7043
13.97	62.7623
13.988	62.8079
14.006	62.8345
14.024	62.8371
14.042	62.8133
14.06	62.7643
14.078	62.6943
14.096	62.61
14.114	62.52
14.132	62.4331
14.15	62.3571
14.168	62.298
14.186	62.2591
14.204	62.2406
14.222	62.2402
14.24	62.2538
14.258	62.277
14.276	62.3054
14.294	62.3357
14.312	62.3664
14.33	62.3972
14.348	62.4296
14.366	62.4648
14.384	62.5045
14.402	62.5494
14.42	62.5988
14.438	62.6512
14.456	62.7038
14.474	62.7532
14.492	62.7959
14.51	62.8287
14.528	62.85
14.546	62.8597
14.564	62.8596
14.582	62.8526
14.6	62.8424
14.618	62.833
14.636	62.828
14.654	62.8292
14.672	62.8368
14.69	62.8497
14.708	62.8653
14.726	62.8809
14.744	62.8925
14.762	62.8979
14.78	62.8952
14.798	62.8833
14.816	62.8618
14.834	62.8308
14.852	62.7909
14.87	62.7429
14.888	62.6881
14.906	62.6279
14.924	62.5643
14.942	62.4997
14.96	62.4369
14.978	62.3794
14.996	62.3305
15.014	62.2932
15.032	62.2699
15.05	62.2615
15.068	62.2675
15.086	62.2861
15.104	62.3145
15.122	62.3482
15.14	62.383
15.158	62.4151
15.176	62.4415
15.194	62.4603
15.212	62.4708
15.23	62.4741
15.248	62.4715
15.266	62.4646
15.284	62.4558
15.302	62.4463
15.32	62.4366
15.338	62.4269
15.356	62.4161
15.374	62.4036
15.392	62.3881
15.41	62.3686
15.428	62.3442
15.446	62.3142
15.464	62.2787
15.482	62.2383
15.5	62.1934
15.518	62.1446
15.536	62.0925
15.554	62.0375
15.572	61.98
15.59	61.9208
15.608	61.8605
15.626	61.8001
15.644	61.741
15.662	61.6855
15.68	61.6361
15.698	61.5952
15.716	61.566
15.734	61.5512
15.752	61.5523
15.77	61.5705
15.788	61.6055
15.806	61.6555
15.824	61.7183
15.842	61.79
15.86	61.8654
15.878	61.9403
15.896	62.0105
15.914	62.0715
15.932	62.1205
15.95	62.1561
15.968	62.1775
15.986	62.1863
16.004	62.1851
16.022	62.1769
16.04	62.167
16.058	62.1596
16.076	62.1584
16.094	62.1679
16.112	62.1905
16.13	62.2275
16.148	62.2799
16.166	62.3461
16.184	62.4241
16.202	62.5118
16.22	62.604
16.238	62.6971
16.256	62.7877
16.274	62.87
16.292	62.9407
16.31	62.9965
16.328	63.0337
16.346	63.0514
16.364	63.0488
16.382	63.0264
16.4	62.9869
16.418	62.9321
16.436	62.8672
16.454	62.7968
16.472	62.7245
16.49	62.6561
16.508	62.5943
16.526	62.5412
16.544	62.4985
16.562	62.465
16.58	62.4402
16.598	62.4204
16.616	62.4025
16.634	62.3838
16.652	62.3601
16.67	62.3301
16.688	62.2922
16.706	62.247
16.724	62.1958
16.742	62.1409
16.76	62.0864
16.778	62.0346
16.796	61.99
16.814	61.9552
16.832	61.9317
16.85	61.9214
16.868	61.923
16.886	61.9359
16.904	61.9565
16.922	61.9826
16.94	62.0109
16.958	62.0377
16.976	62.0614
16.994	62.0793
17.012	62.0915
17.03	62.0977
17.048	62.0996
17.066	62.0986
17.084	62.0968
17.102	62.0966
17.12	62.0991
17.138	62.1062
17.156	62.1177
17.174	62.134
17.192	62.1536
17.21	62.1756
17.228	62.1979
17.246	62.2191
17.264	62.2383
17.282	62.2546
17.3	62.2684
17.318	62.2806
17.336	62.2933
17.354	62.3078
17.372	62.3274
17.39	62.3531
17.408	62.3873
17.426	62.4304
17.444	62.4832
17.462	62.544
17.48	62.612
17.498	62.6837
17.516	62.7561
17.534	62.8264
17.552	62.8898
17.57	62.9449
17.588	62.9876
17.606	63.0177
17.624	63.0341
17.642	63.0384
17.66	63.0309
17.678	63.0156
17.696	62.9936
17.714	62.9694
17.732	62.9448
17.75	62.9226
17.768	62.9049
17.786	62.8924
17.804	62.886
17.822	62.8855
17.84	62.8899
17.858	62.898
17.876	62.9088
17.894	62.9201
17.912	62.9312
17.93	62.9407
17.948	62.9482
17.966	62.9528
17.984	62.9546
18.002	62.9534
18.02	62.9491
18.038	62.9419
18.056	62.9318
18.074	62.9186
18.092	62.9024
18.11	62.8831
18.128	62.8607
18.146	62.8354
18.164	62.8077
18.182	62.7784
18.2	62.7482
18.218	62.7191
18.236	62.6921
18.254	62.6699
18.272	62.6529
18.29	62.6444
18.308	62.6445
18.326	62.6545
18.344	62.6739
18.362	62.7016
18.38	62.736
18.398	62.7737
18.416	62.8114
18.434	62.8448
18.452	62.8694
18.47	62.882
18.488	62.8782
18.506	62.8559
18.524	62.8138
18.542	62.7511
18.56	62.6705
18.578	62.572
18.596	62.4632
18.614	62.3446
18.632	62.2266
18.65	62.1101
18.668	62.0061
18.686	61.9153
18.704	61.8463
18.722	61.799
18.74	61.7787
18.758	61.7843
18.776	61.8169
18.794	61.8742
18.812	61.9534
18.83	62.0517
18.848	62.1637
18.866	62.2864
18.884	62.4129
18.902	62.5407
18.92	62.6634
18.938	62.779
18.956	62.8826
18.974	62.9735
18.992	63.0488
19.01	63.1089
19.028	63.153
19.046	63.1825
19.064	63.1984
19.082	63.2027
19.1	63.1978
19.118	63.1853
19.136	63.1688
19.154	63.1492
19.172	63.1303
19.19	63.1126
19.208	63.099
19.226	63.0896
19.244	63.087
19.262	63.0907
19.28	63.1015
19.298	63.1192
19.316	63.1434
19.334	63.174
19.352	63.2089
19.37	63.2481
19.388	63.2887
19.406	63.3308
19.424	63.3708
19.442	63.4088
19.46	63.442
19.478	63.47
19.496	63.4911
19.514	63.5045
19.532	63.5097
19.55	63.5059
19.568	63.4935
19.586	63.4723
19.604	63.4429
19.622	63.4061
19.64	63.3623
19.658	63.3136
19.676	63.2598
19.694	63.2037
19.712	63.145
19.73	63.0867
19.748	63.0287
19.766	62.9737
19.784	62.922
19.802	62.8754
19.82	62.835
19.838	62.8012
19.856	62.7757
19.874	62.7583
19.892	62.7496
19.91	62.7496
19.928	62.7577
19.946	62.774
19.964	62.7969
19.982	62.8265
20	62.8608
20.018	62.8991
20.036	62.9405
20.054	62.983
20.072	63.0268
20.09	63.0697
20.108	63.1119
20.126	63.1523
20.144	63.1907
20.162	63.2267
20.18	63.2601
20.198	63.291
20.216	63.3193
20.234	63.3452
20.252	63.3685
20.27	63.3893
20.288	63.4071
20.306	63.4224
20.324	63.4341
20.342	63.4418
20.36	63.4452
20.378	63.4424
20.396	63.4339
20.414	63.4173
20.432	63.3928
20.45	63.359
20.468	63.3152
20.486	63.2615
20.504	63.197
20.522	63.1222
20.54	63.0385
20.558	62.9452
20.576	62.8453
20.594	62.7393
20.612	62.6287
20.63	62.5174
20.648	62.4044
20.666	62.2951
20.684	62.1888
20.702	62.0888
20.72	61.9973
20.738	61.914
20.756	61.8421
20.774	61.7809
20.792	61.7309
20.81	61.6925
20.828	61.6647
20.846	61.647
20.864	61.6393
20.882	61.6388
20.9	61.646
20.918	61.6588
20.936	61.6759
20.954	61.6973
20.972	61.7208
20.99	61.7468
21.008	61.7744
21.026	61.8031
21.044	61.8332
21.062	61.8646
21.08	61.8972
21.098	61.9317
21.116	61.9683
21.134	62.0072
21.152	62.0493
21.17	62.0943
21.188	62.1427
21.206	62.1949
21.224	62.2505
21.242	62.3096
21.26	62.3721
21.278	62.4372
21.296	62.505
21.314	62.5749
21.332	62.6455
21.35	62.7174
21.368	62.7889
21.386	62.8599
21.404	62.93
21.422	62.9976
21.44	63.063
21.458	63.1256
21.476	63.1848
21.494	63.2408
21.512	63.2925
21.53	63.3402
21.548	63.3836
21.566	63.4227
21.584	63.4573
21.602	63.4868
21.62	63.5113
21.638	63.5303
21.656	63.5432
21.674	63.5504
21.692	63.5503
21.71	63.5428
21.728	63.5277
21.746	63.5031
21.764	63.4697
21.782	63.4264
21.8	63.3722
21.818	63.3077
21.836	63.2323
21.854	63.1456
21.872	63.0486
21.89	62.9422
21.908	62.8257
21.926	62.7019
21.944	62.5719
21.962	62.4353
21.98	62.2975
21.998	62.1576
22.016	62.0181
22.034	61.8846
22.052	61.7549
22.07	61.6337
22.088	61.5249
22.106	61.4266
22.124	61.3437
22.142	61.2775
22.16	61.2275
22.178	61.1962
22.196	61.184
22.214	61.1898
22.232	61.2137
22.25	61.2561
22.268	61.3139
22.286	61.386
22.304	61.4728
22.322	61.5685
22.34	61.6732
22.358	61.7856
22.376	61.8991
22.394	62.0154
22.412	62.1315
22.43	62.2418
22.448	62.3485
22.466	62.4486
22.484	62.5391
22.502	62.6214
22.52	62.6942
22.538	62.7565
22.556	62.809
22.574	62.8527
22.592	62.887
22.61	62.913
22.628	62.933
22.646	62.9462
22.664	62.9543
22.682	62.9602
22.7	62.963
22.718	62.9642
22.736	62.9662
22.754	62.9683
22.772	62.971
22.79	62.9753
22.808	62.9811
22.826	62.9874
22.844	62.994
22.862	63.0013
22.88	63.0073
22.898	63.0114
22.916	63.0141
22.934	63.0131
22.952	63.0075
22.97	62.998
22.988	62.9829
23.006	62.9616
23.024	62.9347
23.042	62.902
23.06	62.8629
23.078	62.818
23.096	62.7694
23.114	62.7161
23.132	62.6593
23.15	62.6021
23.168	62.5435
23.186	62.4848
23.204	62.43
23.222	62.3783
23.24	62.3305
23.258	62.29
23.276	62.2567
23.294	62.2304
23.312	62.2131
23.33	62.2051
23.348	62.2058
23.366	62.2146
23.384	62.2326
23.402	62.2585
23.42	62.2898
23.438	62.3273
23.456	62.3701
23.474	62.4144
23.492	62.4601
23.51	62.5075
23.528	62.5524
23.546	62.5941
23.564	62.6335
23.582	62.6675
23.6	62.6947
23.618	62.7162
23.636	62.7308
23.654	62.7375
23.672	62.737
23.69	62.7293
23.708	62.7145
23.726	62.6922
23.744	62.6638
23.762	62.6303
23.78	62.5907
23.798	62.5466
23.816	62.4997
23.834	62.4491
23.852	62.3956
23.87	62.3408
23.888	62.2845
23.906	62.2267
23.924	62.1681
23.942	62.1091
23.96	62.0493
23.978	61.9883
23.996	61.9264
24.014	61.8636
24.032	61.7981
24.05	61.7291
24.068	61.6578
24.086	61.5819
24.104	61.4993
24.122	61.4112
24.14	61.3168
24.158	61.2143
24.176	61.1038
24.194	60.9856
24.212	60.8595
24.23	60.7252
24.248	60.5829
24.266	60.4332
24.284	60.2759
24.302	60.1105
24.32	59.9392
24.338	59.7637
24.356	59.5819
24.374	59.3966
24.392	59.2115
24.41	59.0249
24.428	58.8379
24.446	58.6557
24.464	58.48
24.482	58.3082
24.5	58.1452
24.518	57.9946
24.536	57.8535
24.554	57.7245
24.572	57.612
24.59	57.5148
24.608	57.433
24.626	57.3695
24.644	57.3261
24.662	57.3011
24.68	57.295
24.698	57.3085
24.716	57.3421
24.734	57.3942
24.752	57.4629
24.77	57.5493
24.788	57.6531
24.806	57.7695
24.824	57.8959
24.842	58.0361
24.86	58.1846
24.878	58.3344
24.896	58.4887
24.914	58.6463
24.932	58.7996
24.95	58.9449
24.968	59.087
24.986	59.22
25.004	59.3376
25.022	59.4426
25.04	59.5342
25.058	59.608
25.076	59.6619
25.094	59.6986
25.112	59.7159
25.13	59.7115
25.148	59.6849
25.166	59.6379
25.184	59.5729
25.202	59.4895
25.22	59.386
25.238	59.2683
25.256	59.1423
25.274	59.0038
25.292	58.8552
25.31	58.7047
25.328	58.5564
25.346	58.4046
25.364	58.2558
25.382	58.1178
25.4	57.989
25.418	57.8684
25.436	57.7608
25.454	57.6704
25.472	57.5949
25.49	57.5341
25.508	57.4886
25.526	57.46
25.544	57.448
25.562	57.4481
25.58	57.4565
25.598	57.4783
25.616	57.5095
25.634	57.5415
25.652	57.5701
25.67	57.6028
25.688	57.6308
25.706	57.6433
25.724	57.6414
25.742	57.6287
25.76	57.5954
25.778	57.5324
25.796	57.4462
25.814	57.3343
25.832	57.1879
25.85	57.001
25.868	56.7798
25.886	56.5212
25.904	56.2207
25.922	55.8751
25.94	55.4867
25.958	55.0599
25.976	54.599
25.994	54.0985
26.012	53.5612
26.03	52.9983
26.048	52.4189
26.066	51.8137
26.084	51.1885
26.102	50.5551
26.12	49.9204
26.138	49.274
26.156	48.6251
26.174	47.9858
26.192	47.3587
26.21	46.7348
26.228	46.1266
26.246	45.5468
26.264	44.9948
26.282	44.4651
26.3	43.9667
26.318	43.5084
26.336	43.0897
26.354	42.7072
26.372	42.3612
26.39	42.052
26.408	41.7815
26.426	41.5474
26.444	41.3457
26.462	41.1741
26.48	41.0383
26.498	40.9328
26.516	40.8487
26.534	40.7796
26.552	40.7322
26.57	40.7032
26.588	40.687
26.606	40.6801
26.624	40.6862
26.642	40.7038
26.66	40.7306
26.678	40.7636
26.696	40.8017
26.714	40.8507
26.732	40.9167
26.75	41.0003
26.768	41.0929
26.786	41.2074
26.804	41.3576
26.822	41.5486
26.84	41.7671
26.858	42.026
26.876	42.3401
26.894	42.7161
26.912	43.1416
26.93	43.6247
26.948	44.1749
26.966	44.8442
26.984	45.694
27.002	46.552
27.02	47.2318
27.028	47.4088