File: Bakgrunnsmateriale/MATLAB/FTIR/ftir_data/subAa/Mapping_121/BZ1503107-1_t116.asc
PE IR       SPECTRUM    SPECTRUM    ASCII       PEDS        1.60
  -1
BZEABA~1.ASC
17/04/07
22:48:22.00
17/04/07
22:48:48.00
tln
$BZ1503107-1_t0116$<tbV0>[0.0,13.0,8.0,0.0,27,1,0]
27.028
64

2002,4.07
MIRTGS : RIGHTBACK : INTERNAL 2
MIR : ON : INTERNAL 2
OPTKBR

0.200000
8
8.000000
FILLER
RATIO
SPECTRUM
UNLOCKED 256

DOUBLE
64
COMBINED
1
0
0

0.002000
RATIO

1
0
TRUE
51149
0
LEFT NOT FITTED RIGHT NOT FITTED 0
NONE
NONE
15600
12
4.427000
51148
TRUE
1 0 8 72 0 0 0 0

15798

#HDR
-1
-1
#GR
µM
%T
2.38419e-05
0.0
2.000000
0.002000
12515
8
71.4729
34.7091
#DATA
2.000000	 65.8665
2.018000	 67.0488
2.036000	 66.4905
2.054000	 65.9792
2.072000	 65.4991
2.090000	 65.2124
2.108000	 65.453
2.126000	 65.5838
2.144000	 65.7289
2.162000	 65.8797
2.180000	 66.1373
2.198000	 66.0001
2.216000	 66.3448
2.234000	 65.7184
2.252000	 62.9949
2.270000	 68.4927
2.288000	 66.7627
2.306000	 66.5172
2.324000	 65.7811
2.342000	 65.685
2.360000	 65.5997
2.378000	 65.5686
2.396000	 65.7286
2.414000	 65.442
2.432000	 65.4067
2.450000	 65.413
2.468000	 65.7163
2.486000	 65.4112
2.504000	 65.7025
2.522000	 65.599
2.540000	 65.5732
2.558000	 65.7196
2.576000	 65.6596
2.594000	 65.6536
2.612000	 65.5268
2.630000	 65.6666
2.648000	 65.7801
2.666000	 65.5892
2.684000	 65.5871
2.702000	 65.5578
2.720000	 65.531
2.738000	 65.4679
2.756000	 65.6404
2.774000	 65.4626
2.792000	 65.5738
2.810000	 65.4497
2.828000	 65.2465
2.846000	 65.3913
2.864000	 65.398
2.882000	 65.4585
2.900000	 65.4182
2.918000	 65.6081
2.936000	 65.3749
2.954000	 65.3053
2.972000	 65.4398
2.990000	 65.3023
3.008000	 65.3693
3.026000	 65.2685
3.044000	 65.2468
3.062000	 65.2249
3.080000	 65.1937
3.098000	 65.1359
3.116000	 65.0507
3.134000	 65.2389
3.152000	 65.223
3.170000	 65.242
3.188000	 65.1288
3.206000	 65.2768
3.224000	 65.0606
3.242000	 65.1327
3.260000	 65.0991
3.278000	 65.0026
3.296000	 65.18
3.314000	 64.9917
3.332000	 64.9772
3.350000	 64.8832
3.368000	 64.5605
3.386000	 64.405
3.404000	 64.5904
3.422000	 64.5788
3.440000	 64.7063
3.458000	 64.7239
3.476000	 64.6372
3.494000	 64.7569
3.512000	 64.886
3.530000	 64.9245
3.548000	 64.8287
3.566000	 64.9923
3.584000	 64.8681
3.602000	 65.0189
3.620000	 64.8686
3.638000	 64.9531
3.656000	 64.8209
3.674000	 64.9815
3.692000	 64.9713
3.710000	 64.8097
3.728000	 64.9661
3.746000	 64.8801
3.764000	 64.923
3.782000	 64.8055
3.800000	 64.8229
3.818000	 64.7724
3.836000	 64.6849
3.854000	 64.7208
3.872000	 64.8619
3.890000	 64.8187
3.908000	 64.7555
3.926000	 64.6748
3.944000	 64.8271
3.962000	 64.8794
3.980000	 64.6957
3.998000	 64.6593
4.016000	 64.6245
4.034000	 64.7174
4.052000	 64.7252
4.070000	 64.6697
4.088000	 64.6873
4.106000	 64.7629
4.124000	 64.4788
4.141999	 64.5378
4.160000	 64.505
4.178000	 64.5066
4.196000	 64.6255
4.214000	 64.5453
4.232000	 64.531
4.250000	 64.5175
4.268000	 64.5156
4.286000	 64.6146
4.304000	 64.5182
4.322000	 64.465
4.340000	 64.4995
4.358000	 64.5612
4.375999	 64.4612
4.394000	 64.4233
4.412000	 64.4204
4.430000	 64.4839
4.448000	 64.4565
4.466000	 64.4619
4.484000	 64.3575
4.502000	 64.5077
4.520000	 64.4542
4.538000	 64.4547
4.556000	 64.382
4.574000	 64.376
4.592000	 64.3478
4.609999	 64.3238
4.628000	 64.3454
4.646000	 64.3168
4.664000	 64.3044
4.682000	 64.3422
4.700000	 64.2368
4.718000	 64.2382
4.736000	 64.2919
4.754000	 64.2247
4.772000	 64.169
4.790000	 64.2406
4.808000	 64.2401
4.826000	 64.1925
4.843999	 64.2217
4.862000	 64.1418
4.880000	 64.077
4.898000	 64.0803
4.916000	 64.1335
4.934000	 64.069
4.952000	 64.0872
4.970000	 64.1013
4.988000	 64.0675
5.006000	 64.143
5.024000	 64.0476
5.042000	 63.9815
5.060000	 64.028
5.077999	 64.1599
5.096000	 64.0481
5.114000	 63.9626
5.132000	 63.9882
5.150000	 64.0829
5.168000	 64.0717
5.186000	 63.9788
5.204000	 63.9986
5.222000	 64.0151
5.240000	 64.0621
5.258000	 64.0747
5.276000	 63.9574
5.294000	 63.9938
5.312000	 64.0463
5.330000	 64.0025
5.348000	 63.9445
5.366000	 63.9769
5.384000	 63.9281
5.402000	 63.953
5.420000	 63.8715
5.438000	 63.787
5.456000	 63.8398
5.474000	 63.8584
5.492000	 63.8619
5.510000	 63.8474
5.528000	 63.875
5.546000	 63.8527
5.564000	 63.8022
5.582000	 63.7558
5.600000	 63.7717
5.618000	 63.8555
5.636000	 63.8364
5.654000	 63.6526
5.672000	 63.4966
5.690000	 63.4601
5.708000	 63.3082
5.726000	 62.8589
5.744000	 62.2939
5.762000	 61.8977
5.780000	 61.9984
5.798000	 62.5472
5.816000	 63.1215
5.834000	 63.3967
5.852000	 63.4229
5.870000	 63.4564
5.888000	 63.5257
5.906000	 63.5844
5.923999	 63.6565
5.942000	 63.6628
5.960000	 63.6316
5.978000	 63.6674
5.996000	 63.6109
6.014000	 63.5419
6.032000	 63.5175
6.050000	 63.4507
6.068000	 63.4282
6.086000	 63.4788
6.104000	 63.5078
6.122000	 63.5512
6.140000	 63.544
6.158000	 63.4669
6.176000	 63.4467
6.194000	 63.4802
6.212000	 63.474
6.230000	 63.4148
6.248000	 63.3688
6.266000	 63.3241
6.284000	 63.3343
6.302000	 63.3852
6.320000	 63.4005
6.338000	 63.3788
6.356000	 63.3902
6.374000	 63.4598
6.392000	 63.4953
6.410000	 63.4423
6.428000	 63.4013
6.446000	 63.3842
6.464000	 63.3637
6.482000	 63.3599
6.500000	 63.3282
6.518000	 63.2996
6.536000	 63.2944
6.554000	 63.3074
6.572000	 63.3577
6.590000	 63.3631
6.608000	 63.3329
6.626000	 63.3702
6.644000	 63.4068
6.662000	 63.3597
6.680000	 63.2774
6.698000	 63.2623
6.716000	 63.2824
6.734000	 63.2445
6.752000	 63.1915
6.770000	 63.1723
6.788000	 63.1687
6.806000	 63.1496
6.824000	 63.1161
6.842000	 63.0953
6.860000	 63.1036
6.878000	 63.1278
6.896000	 63.1677
6.914000	 63.2225
6.932000	 63.212
6.950000	 63.1214
6.968000	 63.0655
6.986000	 63.0713
7.004000	 63.0819
7.022000	 63.1116
7.040000	 63.1586
7.058000	 63.166
7.076000	 63.1237
7.094000	 63.0895
7.112000	 63.0964
7.130000	 63.0813
7.148000	 63.0494
7.166000	 63.0639
7.184000	 63.0281
7.202000	 62.8857
7.220000	 62.7837
7.238000	 62.7911
7.256000	 62.8276
7.274000	 62.875
7.292000	 62.9571
7.310000	 63.019
7.328000	 63.0186
7.346000	 63.0085
7.364000	 63.026
7.382000	 63.0409
7.400000	 63.042
7.418000	 63.0399
7.436000	 63.0278
7.454000	 63.0058
7.472000	 62.9856
7.490000	 62.9779
7.508000	 62.9858
7.526000	 62.9895
7.544000	 62.9797
7.562000	 62.9826
7.580000	 63.0099
7.598000	 63.0405
7.616000	 63.0471
7.634000	 63.0036
7.652000	 62.9236
7.670000	 62.8717
7.688000	 62.8723
7.706000	 62.8743
7.724000	 62.8516
7.742000	 62.8347
7.760000	 62.8313
7.778000	 62.8115
7.796000	 62.7593
7.814000	 62.6916
7.832000	 62.6316
7.850000	 62.5924
7.868000	 62.5673
7.886000	 62.53
7.904000	 62.4769
7.922000	 62.4391
7.940000	 62.4262
7.958000	 62.407
7.976000	 62.364
7.994000	 62.3182
8.012000	 62.3005
8.030000	 62.3276
8.048000	 62.3798
8.065999	 62.4061
8.084000	 62.3792
8.102000	 62.3272
8.120000	 62.2908
8.138000	 62.2849
8.155999	 62.3105
8.173999	 62.3648
8.192000	 62.4279
8.210000	 62.4795
8.228000	 62.5267
8.246000	 62.5801
8.263999	 62.617
8.282000	 62.6054
8.300000	 62.5536
8.318000	 62.5025
8.336000	 62.4776
8.353999	 62.4658
8.372000	 62.4363
8.390000	 62.3776
8.408000	 62.3106
8.426000	 62.2691
8.443999	 62.2603
8.462000	 62.2534
8.480000	 62.2125
8.498000	 62.134
8.516000	 62.0464
8.533999	 61.9787
8.552000	 61.9374
8.570000	 61.9155
8.588000	 61.9103
8.606000	 61.9271
8.624000	 61.9692
8.641999	 62.03
8.660000	 62.0987
8.678000	 62.1706
8.696000	 62.2508
8.714000	 62.3471
8.731999	 62.46
8.750000	 62.5777
8.768000	 62.6792
8.786000	 62.7421
8.804000	 62.7538
8.821999	 62.7174
8.840000	 62.6467
8.858000	 62.5568
8.876000	 62.4597
8.894000	 62.3668
8.911999	 62.2906
8.930000	 62.2437
8.948000	 62.2315
8.966000	 62.2507
8.984000	 62.2919
9.001999	 62.3454
9.020000	 62.4031
9.038000	 62.4534
9.056000	 62.4808
9.074000	 62.476
9.092000	 62.4486
9.109999	 62.4148
9.128000	 62.3785
9.146000	 62.328
9.164000	 62.2587
9.182000	 62.1884
9.199999	 62.1498
9.218000	 62.1615
9.236000	 62.2094
9.254000	 62.253
9.272000	 62.2612
9.289999	 62.2389
9.308000	 62.2222
9.326000	 62.2431
9.344000	 62.3005
9.362000	 62.3652
9.379999	 62.4107
9.398000	 62.4345
9.416000	 62.4487
9.434000	 62.4587
9.452000	 62.4565
9.469999	 62.4321
9.488000	 62.3878
9.506000	 62.3396
9.524000	 62.3043
9.542000	 62.2891
9.560000	 62.2891
9.577999	 62.2938
9.596000	 62.295
9.614000	 62.2909
9.632000	 62.2854
9.650000	 62.2852
9.667999	 62.2943
9.686000	 62.3122
9.704000	 62.3351
9.722000	 62.3586
9.740000	 62.3807
9.757999	 62.4023
9.776000	 62.4243
9.794000	 62.4455
9.812000	 62.4627
9.830000	 62.4736
9.847999	 62.4794
9.866000	 62.4843
9.884000	 62.4915
9.902000	 62.5002
9.920000	 62.5053
9.937999	 62.5003
9.956000	 62.4824
9.974000	 62.4545
9.992000	 62.4244
10.01	62.4012
10.028	62.3918
10.046	62.3978
10.064	62.4147
10.082	62.434
10.1	62.4472
10.118	62.449
10.136	62.438
10.154	62.4155
10.172	62.3853
10.19	62.3549
10.208	62.3338
10.226	62.3286
10.244	62.3402
10.262	62.3617
10.28	62.3827
10.298	62.3954
10.316	62.398
10.334	62.3945
10.352	62.3899
10.37	62.387
10.388	62.3849
10.406	62.3812
10.424	62.3726
10.442	62.3584
10.46	62.3423
10.478	62.3321
10.496	62.3363
10.514	62.357
10.532	62.387
10.55	62.4118
10.568	62.4174
10.586	62.3981
10.604	62.359
10.622	62.3126
10.64	62.2717
10.658	62.2439
10.676	62.2322
10.694	62.2381
10.712	62.2633
10.73	62.3078
10.748	62.3671
10.766	62.4308
10.784	62.4876
10.802	62.5302
10.82	62.559
10.838	62.5817
10.856	62.6065
10.874	62.6369
10.892	62.6677
10.91	62.6874
10.928	62.6855
10.946	62.6575
10.964	62.6079
10.982	62.5484
11	62.4918
11.018	62.4479
11.036	62.4197
11.054	62.4053
11.072	62.4001
11.09	62.3995
11.108	62.4005
11.126	62.4006
11.144	62.3976
11.162	62.3891
11.18	62.3745
11.198	62.3566
11.216	62.3419
11.234	62.339
11.252	62.3548
11.27	62.3899
11.288	62.4367
11.306	62.4819
11.324	62.5094
11.342	62.5069
11.36	62.4718
11.378	62.4118
11.396	62.3417
11.414	62.2787
11.432	62.2348
11.45	62.213
11.468	62.2085
11.486	62.2134
11.504	62.2202
11.522	62.2251
11.54	62.2282
11.558	62.2306
11.576	62.2335
11.594	62.2375
11.612	62.2432
11.63	62.2535
11.648	62.2728
11.666	62.3059
11.684	62.3543
11.702	62.4142
11.72	62.4755
11.738	62.5252
11.756	62.5524
11.774	62.5521
11.792	62.5266
11.81	62.4848
11.828	62.438
11.846	62.3961
11.864	62.3645
11.882	62.344
11.9	62.3325
11.918	62.3268
11.936	62.3249
11.954	62.3259
11.972	62.3289
11.99	62.3318
12.008	62.3305
12.026	62.3205
12.044	62.2985
12.062	62.2652
12.08	62.2259
12.098	62.1892
12.116	62.1645
12.134	62.1584
12.152	62.1719
12.17	62.2017
12.188	62.2415
12.206	62.2842
12.224	62.3237
12.242	62.3564
12.26	62.3804
12.278	62.3946
12.296	62.3983
12.314	62.3916
12.332	62.3755
12.35	62.3526
12.368	62.3267
12.386	62.3027
12.404	62.285
12.422	62.2757
12.44	62.2747
12.458	62.2794
12.476	62.2858
12.494	62.2897
12.512	62.2874
12.53	62.2766
12.548	62.2566
12.566	62.2275
12.584	62.1909
12.602	62.149
12.62	62.1055
12.638	62.0644
12.656	62.0298
12.674	62.005
12.692	61.9911
12.71	61.9875
12.728	61.9912
12.746	61.9975
12.764	62.0021
12.782	62.0019
12.8	61.9961
12.818	61.9857
12.836	61.973
12.854	61.9598
12.872	61.947
12.89	61.9338
12.908	61.9185
12.926	61.8989
12.944	61.8738
12.962	61.8436
12.98	61.8102
12.998	61.7768
13.016	61.7473
13.034	61.7253
13.052	61.7135
13.07	61.7131
13.088	61.7236
13.106	61.7435
13.124	61.7702
13.142	61.8005
13.16	61.831
13.178	61.8582
13.196	61.8788
13.214	61.8905
13.232	61.8918
13.25	61.8826
13.268	61.8642
13.286	61.8391
13.304	61.8104
13.322	61.7816
13.34	61.756
13.358	61.7363
13.376	61.7251
13.394	61.7241
13.412	61.7341
13.43	61.7552
13.448	61.7862
13.466	61.825
13.484	61.8684
13.502	61.9125
13.52	61.9534
13.538	61.9872
13.556	62.011
13.574	62.0228
13.592	62.022
13.61	62.0097
13.628	61.9882
13.646	61.9601
13.664	61.9286
13.682	61.8969
13.7	61.8675
13.718	61.8421
13.736	61.8217
13.754	61.8065
13.772	61.7961
13.79	61.7893
13.808	61.7844
13.826	61.7801
13.844	61.7749
13.862	61.7678
13.88	61.7583
13.898	61.7462
13.916	61.7319
13.934	61.7156
13.952	61.6973
13.97	61.6767
13.988	61.6534
14.006	61.6273
14.024	61.5989
14.042	61.5693
14.06	61.5404
14.078	61.515
14.096	61.4966
14.114	61.4884
14.132	61.4925
14.15	61.5104
14.168	61.5423
14.186	61.5871
14.204	61.6423
14.222	61.7044
14.24	61.7694
14.258	61.8336
14.276	61.8942
14.294	61.9491
14.312	61.9972
14.33	62.0385
14.348	62.0735
14.366	62.1036
14.384	62.1299
14.402	62.1532
14.42	62.1732
14.438	62.1892
14.456	62.1998
14.474	62.2034
14.492	62.199
14.51	62.1853
14.528	62.1616
14.546	62.1281
14.564	62.0854
14.582	62.0345
14.6	61.9763
14.618	61.912
14.636	61.8424
14.654	61.7689
14.672	61.6922
14.69	61.6136
14.708	61.5346
14.726	61.4568
14.744	61.383
14.762	61.3155
14.78	61.2575
14.798	61.2117
14.816	61.1808
14.834	61.1675
14.852	61.1732
14.87	61.1986
14.888	61.243
14.906	61.3048
14.924	61.3806
14.942	61.4659
14.96	61.5541
14.978	61.6383
14.996	61.7113
15.014	61.7656
15.032	61.7938
15.05	61.7907
15.068	61.7536
15.086	61.6821
15.104	61.5778
15.122	61.4466
15.14	61.2963
15.158	61.1354
15.176	60.9727
15.194	60.8176
15.212	60.6786
15.23	60.5612
15.248	60.4687
15.266	60.4031
15.284	60.3633
15.302	60.3464
15.32	60.349
15.338	60.3673
15.356	60.3978
15.374	60.4366
15.392	60.482
15.41	60.5329
15.428	60.588
15.446	60.6479
15.464	60.7128
15.482	60.7826
15.5	60.858
15.518	60.9379
15.536	61.0212
15.554	61.1066
15.572	61.1927
15.59	61.2772
15.608	61.358
15.626	61.4336
15.644	61.5023
15.662	61.563
15.68	61.6157
15.698	61.661
15.716	61.6999
15.734	61.7345
15.752	61.7664
15.77	61.7971
15.788	61.8283
15.806	61.8597
15.824	61.8905
15.842	61.9194
15.86	61.9428
15.878	61.9573
15.896	61.9595
15.914	61.9442
15.932	61.9089
15.95	61.8522
15.968	61.7733
15.986	61.6745
16.004	61.5594
16.022	61.4322
16.04	61.301
16.058	61.1729
16.076	61.0543
16.094	60.9536
16.112	60.8769
16.13	60.8279
16.148	60.8097
16.166	60.8227
16.184	60.866
16.202	60.9379
16.22	61.0337
16.238	61.1493
16.256	61.2803
16.274	61.4195
16.292	61.5623
16.31	61.7045
16.328	61.8398
16.346	61.9647
16.364	62.0758
16.382	62.1695
16.4	62.2442
16.418	62.2988
16.436	62.3329
16.454	62.3477
16.472	62.3444
16.49	62.3261
16.508	62.2963
16.526	62.2577
16.544	62.2155
16.562	62.173
16.58	62.1329
16.598	62.0993
16.616	62.0733
16.634	62.0562
16.652	62.0485
16.67	62.0491
16.688	62.0571
16.706	62.0697
16.724	62.0848
16.742	62.0996
16.76	62.1112
16.778	62.1182
16.796	62.1183
16.814	62.1103
16.832	62.0933
16.85	62.0668
16.868	62.0309
16.886	61.9855
16.904	61.932
16.922	61.8712
16.94	61.8039
16.958	61.7328
16.976	61.6588
16.994	61.5845
17.012	61.5123
17.03	61.4441
17.048	61.3838
17.066	61.3332
17.084	61.295
17.102	61.2715
17.12	61.2634
17.138	61.272
17.156	61.2968
17.174	61.3376
17.192	61.3912
17.21	61.4558
17.228	61.5266
17.246	61.5988
17.264	61.6691
17.282	61.7307
17.3	61.7814
17.318	61.816
17.336	61.8332
17.354	61.8316
17.372	61.8121
17.39	61.7766
17.408	61.7289
17.426	61.6747
17.444	61.6178
17.462	61.5673
17.48	61.5258
17.498	61.5015
17.516	61.4961
17.534	61.5127
17.552	61.5515
17.57	61.6123
17.588	61.6903
17.606	61.7819
17.624	61.8815
17.642	61.9807
17.66	62.0755
17.678	62.1556
17.696	62.2189
17.714	62.2575
17.732	62.2708
17.75	62.2559
17.768	62.2146
17.786	62.1472
17.804	62.0592
17.822	61.9526
17.84	61.8349
17.858	61.7099
17.876	61.5831
17.894	61.4598
17.912	61.3428
17.93	61.2367
17.948	61.1421
17.966	61.0614
17.984	60.9944
18.002	60.9412
18.02	60.901
18.038	60.873
18.056	60.8561
18.074	60.8497
18.092	60.8525
18.11	60.8641
18.128	60.8839
18.146	60.9119
18.164	60.9472
18.182	60.9899
18.2	61.0395
18.218	61.0956
18.236	61.158
18.254	61.226
18.272	61.2994
18.29	61.3768
18.308	61.4582
18.326	61.5416
18.344	61.6266
18.362	61.7115
18.38	61.7955
18.398	61.8765
18.416	61.9536
18.434	62.0255
18.452	62.0905
18.47	62.1474
18.488	62.1947
18.506	62.2316
18.524	62.2564
18.542	62.2686
18.56	62.2673
18.578	62.2526
18.596	62.2242
18.614	62.1822
18.632	62.1279
18.65	62.0616
18.668	61.9855
18.686	61.9
18.704	61.8085
18.722	61.7114
18.74	61.6122
18.758	61.5115
18.776	61.4126
18.794	61.3162
18.812	61.2247
18.83	61.1385
18.848	61.0594
18.866	60.9872
18.884	60.9227
18.902	60.8656
18.92	60.8156
18.938	60.7724
18.956	60.7351
18.974	60.7035
18.992	60.6766
19.01	60.6542
19.028	60.6353
19.046	60.6197
19.064	60.6068
19.082	60.5965
19.1	60.5881
19.118	60.5819
19.136	60.5777
19.154	60.5755
19.172	60.5755
19.19	60.5777
19.208	60.5827
19.226	60.5904
19.244	60.601
19.262	60.6146
19.28	60.6313
19.298	60.6511
19.316	60.6737
19.334	60.6992
19.352	60.727
19.37	60.757
19.388	60.7883
19.406	60.821
19.424	60.8535
19.442	60.886
19.46	60.9169
19.478	60.9462
19.496	60.9726
19.514	60.9957
19.532	61.0145
19.55	61.0285
19.568	61.0373
19.586	61.04
19.604	61.0369
19.622	61.0274
19.64	61.012
19.658	60.9907
19.676	60.9638
19.694	60.9323
19.712	60.8962
19.73	60.8572
19.748	60.8153
19.766	60.7726
19.784	60.7292
19.802	60.6869
19.82	60.6466
19.838	60.609
19.856	60.5759
19.874	60.5472
19.892	60.5244
19.91	60.5073
19.928	60.4967
19.946	60.4925
19.964	60.4945
19.982	60.5028
20	60.5166
20.018	60.5358
20.036	60.5595
20.054	60.5863
20.072	60.6161
20.09	60.6464
20.108	60.6776
20.126	60.7071
20.144	60.7348
20.162	60.7594
20.18	60.78
20.198	60.7964
20.216	60.8076
20.234	60.8139
20.252	60.8154
20.27	60.8119
20.288	60.8048
20.306	60.7936
20.324	60.7799
20.342	60.7645
20.36	60.7477
20.378	60.7317
20.396	60.716
20.414	60.7028
20.432	60.692
20.45	60.6844
20.468	60.6805
20.486	60.6802
20.504	60.6835
20.522	60.6904
20.54	60.7001
20.558	60.713
20.576	60.7276
20.594	60.7433
20.612	60.7598
20.63	60.7755
20.648	60.7907
20.666	60.8035
20.684	60.8139
20.702	60.821
20.72	60.8238
20.738	60.8226
20.756	60.8161
20.774	60.8046
20.792	60.7879
20.81	60.7656
20.828	60.7383
20.846	60.7061
20.864	60.6691
20.882	60.6282
20.9	60.5831
20.918	60.5351
20.936	60.485
20.954	60.4329
20.972	60.3808
20.99	60.3282
21.008	60.2774
21.026	60.229
21.044	60.1837
21.062	60.1438
21.08	60.1088
21.098	60.081
21.116	60.0609
21.134	60.0489
21.152	60.0468
21.17	60.054
21.188	60.0709
21.206	60.0981
21.224	60.1344
21.242	60.1792
21.26	60.2326
21.278	60.2916
21.296	60.3563
21.314	60.4248
21.332	60.4932
21.35	60.563
21.368	60.6291
21.386	60.6908
21.404	60.747
21.422	60.7931
21.44	60.8305
21.458	60.8561
21.476	60.8686
21.494	60.8683
21.512	60.8537
21.53	60.8249
21.548	60.7823
21.566	60.7259
21.584	60.6559
21.602	60.575
21.62	60.4824
21.638	60.3805
21.656	60.2722
21.674	60.1561
21.692	60.0374
21.71	59.9167
21.728	59.7948
21.746	59.6769
21.764	59.5614
21.782	59.4518
21.8	59.3509
21.818	59.2577
21.836	59.1761
21.854	59.1063
21.872	59.0488
21.89	59.0058
21.908	58.9766
21.926	58.9617
21.944	58.9618
21.962	58.9764
21.98	59.0041
21.998	59.0455
22.016	59.0992
22.034	59.1622
22.052	59.236
22.07	59.317
22.088	59.4029
22.106	59.4948
22.124	59.5881
22.142	59.6822
22.16	59.7767
22.178	59.8673
22.196	59.955
22.214	60.0381
22.232	60.1137
22.25	60.1829
22.268	60.2444
22.286	60.2969
22.304	60.3411
22.322	60.3768
22.34	60.4036
22.358	60.4221
22.376	60.4336
22.394	60.4374
22.412	60.4348
22.43	60.4278
22.448	60.4154
22.466	60.3995
22.484	60.382
22.502	60.3619
22.52	60.3413
22.538	60.3213
22.556	60.3013
22.574	60.2831
22.592	60.2668
22.61	60.2523
22.628	60.2405
22.646	60.2314
22.664	60.2248
22.682	60.2208
22.7	60.2194
22.718	60.2204
22.736	60.2232
22.754	60.2282
22.772	60.235
22.79	60.2433
22.808	60.2533
22.826	60.2651
22.844	60.2785
22.862	60.2936
22.88	60.3108
22.898	60.3301
22.916	60.3516
22.934	60.3757
22.952	60.4026
22.97	60.4322
22.988	60.4655
23.006	60.5029
23.024	60.5439
23.042	60.589
23.06	60.6383
23.078	60.6915
23.096	60.7479
23.114	60.8082
23.132	60.8715
23.15	60.9355
23.168	61.0011
23.186	61.0673
23.204	61.1305
23.222	61.192
23.24	61.2504
23.258	61.3015
23.276	61.3461
23.294	61.3836
23.312	61.41
23.33	61.4258
23.348	61.4309
23.366	61.4223
23.384	61.4001
23.402	61.3646
23.42	61.3148
23.438	61.25
23.456	61.1712
23.474	61.0797
23.492	60.9748
23.51	60.8573
23.528	60.731
23.546	60.596
23.564	60.4521
23.582	60.3045
23.6	60.1549
23.618	60.0014
23.636	59.8501
23.654	59.7037
23.672	59.5597
23.69	59.423
23.708	59.2969
23.726	59.179
23.744	59.0721
23.762	58.9788
23.78	58.8979
23.798	58.8299
23.816	58.7759
23.834	58.7359
23.852	58.7091
23.87	58.6945
23.888	58.6935
23.906	58.7042
23.924	58.7228
23.942	58.7504
23.96	58.7864
23.978	58.8258
23.996	58.8673
24.014	58.9127
24.032	58.9573
24.05	58.9981
24.068	59.0375
24.086	59.0731
24.104	59.1026
24.122	59.1267
24.14	59.1457
24.158	59.1593
24.176	59.1662
24.194	59.1682
24.212	59.1681
24.23	59.1652
24.248	59.1594
24.266	59.1557
24.284	59.1563
24.302	59.1585
24.32	59.1671
24.338	59.1869
24.356	59.2146
24.374	59.2531
24.392	59.3075
24.41	59.3774
24.428	59.4621
24.446	59.5638
24.464	59.6842
24.482	59.8224
24.5	59.9762
24.518	60.1446
24.536	60.3305
24.554	60.529
24.572	60.7337
24.59	60.9474
24.608	61.1687
24.626	61.3898
24.644	61.6083
24.662	61.8286
24.68	62.0417
24.698	62.2396
24.716	62.4283
24.734	62.603
24.752	62.7543
24.77	62.8825
24.788	62.9898
24.806	63.0691
24.824	63.1151
24.842	63.1319
24.86	63.1175
24.878	63.0692
24.896	62.9863
24.914	62.8706
24.932	62.7233
24.95	62.5443
24.968	62.3325
24.986	62.0921
25.004	61.8272
25.022	61.5335
25.04	61.2148
25.058	60.8795
25.076	60.5301
25.094	60.1615
25.112	59.783
25.13	59.4042
25.148	59.0179
25.166	58.6287
25.184	58.2487
25.202	57.8825
25.22	57.5222
25.238	57.1789
25.256	56.8642
25.274	56.572
25.292	56.3042
25.31	56.0714
25.328	55.8795
25.346	55.7215
25.364	55.6032
25.382	55.5314
25.4	55.5052
25.418	55.523
25.436	55.588
25.454	55.7028
25.472	55.8666
25.49	56.0777
25.508	56.3345
25.526	56.6383
25.544	56.9892
25.562	57.382
25.58	57.812
25.598	58.2843
25.616	58.7949
25.634	59.3351
25.652	59.9006
25.67	60.4992
25.688	61.1208
25.706	61.7536
25.724	62.3997
25.742	63.0626
25.76	63.7285
25.778	64.3848
25.796	65.0414
25.814	65.6936
25.832	66.3275
25.85	66.9349
25.868	67.5272
25.886	68.0945
25.904	68.6241
25.922	69.1134
25.94	69.5699
25.958	69.9846
25.976	70.3485
25.994	70.6651
26.012	70.9355
26.03	71.1533
26.048	71.3131
26.066	71.4181
26.084	71.4685
26.102	71.4623
26.12	71.3979
26.138	71.2768
26.156	71.0994
26.174	70.8657
26.192	70.5747
26.21	70.2261
26.228	69.8239
26.246	69.3724
26.264	68.8707
26.282	68.3175
26.3	67.718
26.318	67.077
26.336	66.3911
26.354	65.6612
26.372	64.8936
26.39	64.094
26.408	63.2577
26.426	62.3867
26.444	61.4875
26.462	60.5651
26.48	59.613
26.498	58.6357
26.516	57.641
26.534	56.6344
26.552	55.6078
26.57	54.5674
26.588	53.5221
26.606	52.477
26.624	51.4238
26.642	50.3691
26.66	49.3215
26.678	48.2846
26.696	47.2491
26.714	46.2246
26.732	45.2225
26.75	44.2474
26.768	43.2887
26.786	42.3561
26.804	41.4606
26.822	40.6052
26.84	39.7788
26.858	38.9939
26.876	38.2647
26.894	37.596
26.912	36.9743
26.93	36.4124
26.948	35.9252
26.966	35.5237
26.984	35.201
27.002	34.9501
27.02	34.7649
27.028	34.7091