File: Bakgrunnsmateriale/MATLAB/FTIR/ftir_data/subAa/Mapping_121/BZ1503107-1_t108.asc
PE IR       SPECTRUM    SPECTRUM    ASCII       PEDS        1.60
  -1
BZE6B2~1.ASC
17/04/07
22:05:09.00
17/04/07
22:05:36.00
tln
$BZ1503107-1_t0108$<tbV0>[-7.8,10.4,8.0,0.0,27,1,0]
27.028
64

2002,4.07
MIRTGS : RIGHTBACK : INTERNAL 2
MIR : ON : INTERNAL 2
OPTKBR

0.200000
8
8.000000
FILLER
RATIO
SPECTRUM
UNLOCKED 256

DOUBLE
64
COMBINED
1
0
0

0.002000
RATIO

1
0
TRUE
51149
0
LEFT NOT FITTED RIGHT NOT FITTED 0
NONE
NONE
15600
12
4.427000
51148
TRUE
1 0 8 72 0 0 0 0

15798

#HDR
-1
-1
#GR
µM
%T
2.38419e-05
0.0
2.000000
0.002000
12515
8
85.9329
38.2552
#DATA
2.000000	 66.8541
2.018000	 65.3498
2.036000	 64.9807
2.054000	 65.1521
2.072000	 65.2828
2.090000	 65.5391
2.108000	 65.3424
2.126000	 65.5832
2.144000	 65.4749
2.162000	 65.6155
2.180000	 65.0625
2.198000	 64.196
2.216000	 64.4079
2.234000	 63.9404
2.252000	 85.9329
2.270000	 65.7771
2.288000	 64.625
2.306000	 64.3887
2.324000	 64.4785
2.342000	 64.7582
2.360000	 65.2474
2.378000	 65.357
2.396000	 65.6434
2.414000	 65.0937
2.432000	 65.391
2.450000	 65.2862
2.468000	 65.1784
2.486000	 65.1254
2.504000	 65.2045
2.522000	 65.0865
2.540000	 65.2284
2.558000	 65.1888
2.576000	 65.3189
2.594000	 65.0544
2.612000	 65.076
2.630000	 65.04
2.648000	 65.1385
2.666000	 65.2422
2.684000	 65.1958
2.702000	 65.1685
2.720000	 65.2778
2.738000	 65.1764
2.756000	 65.3297
2.774000	 65.1642
2.792000	 65.0914
2.810000	 65.2038
2.828000	 65.3276
2.846000	 65.0538
2.864000	 65.2333
2.882000	 65.1997
2.900000	 65.0346
2.918000	 65.1363
2.936000	 65.14
2.954000	 65.0618
2.972000	 65.0315
2.990000	 65.1976
3.008000	 64.9638
3.026000	 65.2099
3.044000	 65.0931
3.062000	 65.1662
3.080000	 65.1596
3.098000	 65.0745
3.116000	 64.9396
3.134000	 65.0724
3.152000	 65.0379
3.170000	 64.9769
3.188000	 65.0211
3.206000	 64.9003
3.224000	 64.9654
3.242000	 64.9397
3.260000	 64.8377
3.278000	 65.0213
3.296000	 64.9309
3.314000	 64.9128
3.332000	 64.9745
3.350000	 64.7256
3.368000	 64.3414
3.386000	 64.2796
3.404000	 64.3724
3.422000	 64.6671
3.440000	 64.4668
3.458000	 64.53
3.476000	 64.542
3.494000	 64.5397
3.512000	 64.6644
3.530000	 64.7684
3.548000	 64.7244
3.566000	 64.7192
3.584000	 64.7068
3.602000	 64.839
3.620000	 64.8236
3.638000	 64.7124
3.656000	 64.7445
3.674000	 64.8163
3.692000	 64.8954
3.710000	 64.7057
3.728000	 64.7939
3.746000	 64.6306
3.764000	 64.6611
3.782000	 64.8401
3.800000	 64.7013
3.818000	 64.6919
3.836000	 64.6538
3.854000	 64.6757
3.872000	 64.6883
3.890000	 64.7332
3.908000	 64.6746
3.926000	 64.7209
3.944000	 64.5926
3.962000	 64.7038
3.980000	 64.6046
3.998000	 64.489
4.016000	 64.614
4.034000	 64.4487
4.052000	 64.6079
4.070000	 64.6849
4.088000	 64.4859
4.106000	 64.5692
4.124000	 64.6232
4.141999	 64.51
4.160000	 64.603
4.178000	 64.5908
4.196000	 64.5063
4.214000	 64.4504
4.232000	 64.6387
4.250000	 64.5918
4.268000	 64.5763
4.286000	 64.4185
4.304000	 64.6025
4.322000	 64.4697
4.340000	 64.4031
4.358000	 64.3818
4.375999	 64.322
4.394000	 64.361
4.412000	 64.4841
4.430000	 64.487
4.448000	 64.4584
4.466000	 64.3875
4.484000	 64.4487
4.502000	 64.4415
4.520000	 64.3456
4.538000	 64.3163
4.556000	 64.1867
4.574000	 64.28
4.592000	 64.2906
4.609999	 64.3393
4.628000	 64.3683
4.646000	 64.3392
4.664000	 64.2065
4.682000	 64.2789
4.700000	 64.2259
4.718000	 64.1802
4.736000	 64.1734
4.754000	 64.3095
4.772000	 64.2511
4.790000	 64.1516
4.808000	 64.1196
4.826000	 64.1034
4.843999	 64.1099
4.862000	 64.2708
4.880000	 64.2982
4.898000	 64.2006
4.916000	 64.1884
4.934000	 64.011
4.952000	 64.1233
4.970000	 64.2047
4.988000	 64.084
5.006000	 64.1206
5.024000	 64.237
5.042000	 64.1179
5.060000	 64.1098
5.077999	 64.1261
5.096000	 64.1714
5.114000	 64.0843
5.132000	 64.0393
5.150000	 64.0516
5.168000	 64.1185
5.186000	 64.0666
5.204000	 64.0512
5.222000	 64.1183
5.240000	 64.169
5.258000	 64.0818
5.276000	 64.0977
5.294000	 64.1328
5.312000	 64.0633
5.330000	 64.005
5.348000	 63.9784
5.366000	 63.9941
5.384000	 63.9908
5.402000	 63.9472
5.420000	 63.9335
5.438000	 64.034
5.456000	 64.0376
5.474000	 63.9613
5.492000	 63.9903
5.510000	 64.0172
5.528000	 63.9515
5.546000	 63.9739
5.564000	 63.9742
5.582000	 63.8791
5.600000	 63.7184
5.618000	 63.7022
5.636000	 63.746
5.654000	 63.7996
5.672000	 63.6922
5.690000	 63.5446
5.708000	 63.3202
5.726000	 63.0904
5.744000	 62.6801
5.762000	 62.3939
5.780000	 62.4823
5.798000	 62.8109
5.816000	 63.1517
5.834000	 63.4338
5.852000	 63.5904
5.870000	 63.6088
5.888000	 63.5947
5.906000	 63.6239
5.923999	 63.5843
5.942000	 63.5734
5.960000	 63.6578
5.978000	 63.6683
5.996000	 63.6582
6.014000	 63.6854
6.032000	 63.7503
6.050000	 63.8091
6.068000	 63.8241
6.086000	 63.7925
6.104000	 63.7339
6.122000	 63.6604
6.140000	 63.5966
6.158000	 63.6619
6.176000	 63.7576
6.194000	 63.7627
6.212000	 63.7369
6.230000	 63.7608
6.248000	 63.7104
6.266000	 63.6223
6.284000	 63.6273
6.302000	 63.6803
6.320000	 63.6482
6.338000	 63.5459
6.356000	 63.4981
6.374000	 63.5141
6.392000	 63.5052
6.410000	 63.4874
6.428000	 63.4885
6.446000	 63.4611
6.464000	 63.4356
6.482000	 63.4038
6.500000	 63.3941
6.518000	 63.4657
6.536000	 63.5309
6.554000	 63.5602
6.572000	 63.5573
6.590000	 63.5219
6.608000	 63.4752
6.626000	 63.4273
6.644000	 63.4572
6.662000	 63.5491
6.680000	 63.6398
6.698000	 63.706
6.716000	 63.6852
6.734000	 63.5725
6.752000	 63.4518
6.770000	 63.4075
6.788000	 63.4052
6.806000	 63.3651
6.824000	 63.2959
6.842000	 63.2552
6.860000	 63.2361
6.878000	 63.2079
6.896000	 63.2193
6.914000	 63.2684
6.932000	 63.2805
6.950000	 63.294
6.968000	 63.3407
6.986000	 63.3355
7.004000	 63.2947
7.022000	 63.3082
7.040000	 63.336
7.058000	 63.321
7.076000	 63.3106
7.094000	 63.3151
7.112000	 63.2928
7.130000	 63.2551
7.148000	 63.1981
7.166000	 63.1246
7.184000	 63.0874
7.202000	 63.076
7.220000	 63.0666
7.238000	 63.0832
7.256000	 63.1123
7.274000	 63.1344
7.292000	 63.1543
7.310000	 63.1486
7.328000	 63.1268
7.346000	 63.1326
7.364000	 63.1417
7.382000	 63.1338
7.400000	 63.1562
7.418000	 63.2009
7.436000	 63.1992
7.454000	 63.1418
7.472000	 63.0732
7.490000	 63.0426
7.508000	 63.0822
7.526000	 63.1545
7.544000	 63.1884
7.562000	 63.1848
7.580000	 63.183
7.598000	 63.1755
7.616000	 63.1388
7.634000	 63.076
7.652000	 63.0042
7.670000	 62.9489
7.688000	 62.9368
7.706000	 62.9676
7.724000	 63.0049
7.742000	 63.0008
7.760000	 62.9391
7.778000	 62.8667
7.796000	 62.8469
7.814000	 62.879
7.832000	 62.9127
7.850000	 62.9211
7.868000	 62.8996
7.886000	 62.8374
7.904000	 62.7471
7.922000	 62.6703
7.940000	 62.6228
7.958000	 62.5912
7.976000	 62.582
7.994000	 62.6027
8.012000	 62.6174
8.030000	 62.597
8.048000	 62.5651
8.065999	 62.5503
8.084000	 62.5482
8.102000	 62.5554
8.120000	 62.5911
8.138000	 62.6618
8.155999	 62.7373
8.173999	 62.7759
8.192000	 62.764
8.210000	 62.726
8.228000	 62.6972
8.246000	 62.6852
8.263999	 62.6691
8.282000	 62.6398
8.300000	 62.6233
8.318000	 62.6477
8.336000	 62.7061
8.353999	 62.7622
8.372000	 62.7839
8.390000	 62.7626
8.408000	 62.7063
8.426000	 62.6328
8.443999	 62.5657
8.462000	 62.5209
8.480000	 62.4915
8.498000	 62.4544
8.516000	 62.3937
8.533999	 62.3149
8.552000	 62.2386
8.570000	 62.1877
8.588000	 62.1745
8.606000	 62.1977
8.624000	 62.245
8.641999	 62.3035
8.660000	 62.3651
8.678000	 62.4274
8.696000	 62.4909
8.714000	 62.5596
8.731999	 62.6405
8.750000	 62.735
8.768000	 62.8262
8.786000	 62.877
8.804000	 62.8607
8.821999	 62.7933
8.840000	 62.7249
8.858000	 62.6976
8.876000	 62.7119
8.894000	 62.7361
8.911999	 62.7406
8.930000	 62.7243
8.948000	 62.7054
8.966000	 62.6951
8.984000	 62.6828
9.001999	 62.6524
9.020000	 62.6124
9.038000	 62.5972
9.056000	 62.6356
9.074000	 62.7196
9.092000	 62.8089
9.109999	 62.8598
9.128000	 62.8493
9.146000	 62.7847
9.164000	 62.6953
9.182000	 62.6134
9.199999	 62.5564
9.218000	 62.5212
9.236000	 62.4954
9.254000	 62.473
9.272000	 62.4582
9.289999	 62.4582
9.308000	 62.4709
9.326000	 62.4862
9.344000	 62.4931
9.362000	 62.4881
9.379999	 62.4791
9.398000	 62.4778
9.416000	 62.4899
9.434000	 62.5072
9.452000	 62.5117
9.469999	 62.4905
9.488000	 62.4491
9.506000	 62.4154
9.524000	 62.4241
9.542000	 62.49
9.560000	 62.5914
9.577999	 62.6811
9.596000	 62.718
9.614000	 62.6927
9.632000	 62.6284
9.650000	 62.5611
9.667999	 62.516
9.686000	 62.4958
9.704000	 62.4866
9.722000	 62.473
9.740000	 62.45
9.757999	 62.4243
9.776000	 62.4089
9.794000	 62.4155
9.812000	 62.449
9.830000	 62.5059
9.847999	 62.574
9.866000	 62.6345
9.884000	 62.6683
9.902000	 62.6636
9.920000	 62.6212
9.937999	 62.5552
9.956000	 62.4858
9.974000	 62.4332
9.992000	 62.4121
10.01	62.4296
10.028	62.4843
10.046	62.5632
10.064	62.6444
10.082	62.7045
10.1	62.7316
10.118	62.7327
10.136	62.7285
10.154	62.7366
10.172	62.7599
10.19	62.7848
10.208	62.7937
10.226	62.7785
10.244	62.7458
10.262	62.7105
10.28	62.6839
10.298	62.6678
10.316	62.6559
10.334	62.6399
10.352	62.6158
10.37	62.5848
10.388	62.5533
10.406	62.5279
10.424	62.5136
10.442	62.5103
10.46	62.514
10.478	62.5184
10.496	62.5189
10.514	62.5147
10.532	62.5088
10.55	62.5055
10.568	62.5075
10.586	62.5147
10.604	62.5267
10.622	62.5441
10.64	62.5675
10.658	62.596
10.676	62.6259
10.694	62.6519
10.712	62.6689
10.73	62.6758
10.748	62.6757
10.766	62.674
10.784	62.676
10.802	62.6837
10.82	62.6964
10.838	62.7106
10.856	62.7224
10.874	62.7285
10.892	62.7283
10.91	62.7234
10.928	62.7166
10.946	62.7088
10.964	62.6973
10.982	62.677
11	62.644
11.018	62.6
11.036	62.5528
11.054	62.5149
11.072	62.4964
11.09	62.4999
11.108	62.5186
11.126	62.5393
11.144	62.5506
11.162	62.5476
11.18	62.5332
11.198	62.5158
11.216	62.5031
11.234	62.4988
11.252	62.5013
11.27	62.5054
11.288	62.505
11.306	62.4971
11.324	62.4835
11.342	62.4704
11.36	62.4656
11.378	62.476
11.396	62.504
11.414	62.5454
11.432	62.5913
11.45	62.6313
11.468	62.6573
11.486	62.6675
11.504	62.6656
11.522	62.6585
11.54	62.6515
11.558	62.6453
11.576	62.6364
11.594	62.62
11.612	62.594
11.63	62.5612
11.648	62.5281
11.666	62.5032
11.684	62.4913
11.702	62.4912
11.72	62.4964
11.738	62.4979
11.756	62.4892
11.774	62.469
11.792	62.4412
11.81	62.4132
11.828	62.3914
11.846	62.3795
11.864	62.3765
11.882	62.3783
11.9	62.3802
11.918	62.379
11.936	62.3747
11.954	62.3705
11.972	62.3708
11.99	62.3791
12.008	62.3965
12.026	62.4212
12.044	62.4489
12.062	62.4747
12.08	62.4951
12.098	62.5091
12.116	62.5178
12.134	62.5242
12.152	62.5315
12.17	62.5413
12.188	62.5532
12.206	62.5649
12.224	62.5733
12.242	62.5763
12.26	62.5742
12.278	62.5689
12.296	62.5636
12.314	62.5606
12.332	62.5601
12.35	62.5592
12.368	62.5529
12.386	62.5355
12.404	62.503
12.422	62.4558
12.44	62.3982
12.458	62.3382
12.476	62.2856
12.494	62.2493
12.512	62.2348
12.53	62.2435
12.548	62.2726
12.566	62.3169
12.584	62.37
12.602	62.4266
12.62	62.4824
12.638	62.5345
12.656	62.5806
12.674	62.6186
12.692	62.6456
12.71	62.6588
12.728	62.6557
12.746	62.6357
12.764	62.5997
12.782	62.5503
12.8	62.492
12.818	62.4298
12.836	62.3689
12.854	62.3136
12.872	62.2676
12.89	62.2331
12.908	62.2113
12.926	62.2025
12.944	62.2058
12.962	62.2195
12.98	62.241
12.998	62.2671
13.016	62.294
13.034	62.3181
13.052	62.3361
13.07	62.3455
13.088	62.3452
13.106	62.3357
13.124	62.3191
13.142	62.2986
13.16	62.2782
13.178	62.2626
13.196	62.2552
13.214	62.2585
13.232	62.273
13.25	62.2972
13.268	62.3279
13.286	62.3607
13.304	62.3914
13.322	62.4163
13.34	62.4333
13.358	62.4425
13.376	62.4456
13.394	62.4455
13.412	62.4456
13.43	62.4484
13.448	62.455
13.466	62.4646
13.484	62.4749
13.502	62.4824
13.52	62.4834
13.538	62.4754
13.556	62.4571
13.574	62.4293
13.592	62.3948
13.61	62.3572
13.628	62.3208
13.646	62.2888
13.664	62.2632
13.682	62.2448
13.7	62.2324
13.718	62.2243
13.736	62.2177
13.754	62.2106
13.772	62.2012
13.79	62.1886
13.808	62.1721
13.826	62.1517
13.844	62.127
13.862	62.0978
13.88	62.0636
13.898	62.0238
13.916	61.9784
13.934	61.928
13.952	61.8742
13.97	61.8197
13.988	61.7673
14.006	61.7206
14.024	61.6824
14.042	61.6548
14.06	61.639
14.078	61.6349
14.096	61.642
14.114	61.6592
14.132	61.685
14.15	61.7181
14.168	61.757
14.186	61.8004
14.204	61.8465
14.222	61.894
14.24	61.9408
14.258	61.985
14.276	62.0253
14.294	62.0605
14.312	62.0899
14.33	62.1135
14.348	62.1316
14.366	62.1452
14.384	62.1557
14.402	62.164
14.42	62.1712
14.438	62.1778
14.456	62.1841
14.474	62.1894
14.492	62.1934
14.51	62.1949
14.528	62.1933
14.546	62.1881
14.564	62.1792
14.582	62.167
14.6	62.1524
14.618	62.1365
14.636	62.1204
14.654	62.1054
14.672	62.0923
14.69	62.0818
14.708	62.0746
14.726	62.0714
14.744	62.0732
14.762	62.0804
14.78	62.0936
14.798	62.1129
14.816	62.1381
14.834	62.1684
14.852	62.202
14.87	62.2367
14.888	62.2704
14.906	62.3008
14.924	62.326
14.942	62.3444
14.96	62.3553
14.978	62.3584
14.996	62.3541
15.014	62.3428
15.032	62.3251
15.05	62.3018
15.068	62.2734
15.086	62.2402
15.104	62.2029
15.122	62.1621
15.14	62.1189
15.158	62.0746
15.176	62.0309
15.194	61.9897
15.212	61.9533
15.23	61.9229
15.248	61.8989
15.266	61.8813
15.284	61.8687
15.302	61.859
15.32	61.85
15.338	61.8391
15.356	61.8239
15.374	61.8026
15.392	61.775
15.41	61.7414
15.428	61.7031
15.446	61.6631
15.464	61.6237
15.482	61.5874
15.5	61.5568
15.518	61.534
15.536	61.5195
15.554	61.5135
15.572	61.5154
15.59	61.5232
15.608	61.5349
15.626	61.5484
15.644	61.5613
15.662	61.5711
15.68	61.5766
15.698	61.5768
15.716	61.5713
15.734	61.5612
15.752	61.5474
15.77	61.5315
15.788	61.5169
15.806	61.5065
15.824	61.5034
15.842	61.5111
15.86	61.5328
15.878	61.5698
15.896	61.6233
15.914	61.6923
15.932	61.7741
15.95	61.8658
15.968	61.9628
15.986	62.0578
16.004	62.1455
16.022	62.2203
16.04	62.2759
16.058	62.3095
16.076	62.3192
16.094	62.304
16.112	62.2663
16.13	62.2087
16.148	62.136
16.166	62.0551
16.184	61.9713
16.202	61.8904
16.22	61.8189
16.238	61.7601
16.256	61.7169
16.274	61.6908
16.292	61.6805
16.31	61.685
16.328	61.7
16.346	61.7211
16.364	61.7449
16.382	61.7652
16.4	61.778
16.418	61.7804
16.436	61.7688
16.454	61.7425
16.472	61.7011
16.49	61.6461
16.508	61.5809
16.526	61.508
16.544	61.4331
16.562	61.361
16.58	61.2955
16.598	61.2429
16.616	61.2065
16.634	61.1891
16.652	61.194
16.67	61.2214
16.688	61.272
16.706	61.3445
16.724	61.4374
16.742	61.5488
16.76	61.6745
16.778	61.8124
16.796	61.9579
16.814	62.1065
16.832	62.2552
16.85	62.3981
16.868	62.5312
16.886	62.6511
16.904	62.752
16.922	62.8322
16.94	62.8885
16.958	62.9191
16.976	62.9239
16.994	62.9032
17.012	62.8593
17.03	62.7934
17.048	62.7106
17.066	62.6139
17.084	62.5073
17.102	62.3973
17.12	62.2863
17.138	62.1805
17.156	62.0822
17.174	61.9943
17.192	61.9194
17.21	61.8581
17.228	61.8116
17.246	61.7789
17.264	61.7599
17.282	61.7524
17.3	61.7554
17.318	61.7663
17.336	61.7833
17.354	61.8051
17.372	61.8296
17.39	61.8564
17.408	61.8848
17.426	61.9147
17.444	61.9462
17.462	61.9798
17.48	62.0158
17.498	62.055
17.516	62.0972
17.534	62.1429
17.552	62.1912
17.57	62.242
17.588	62.2932
17.606	62.3439
17.624	62.3925
17.642	62.4367
17.66	62.4753
17.678	62.5053
17.696	62.5261
17.714	62.5353
17.732	62.5326
17.75	62.5173
17.768	62.4901
17.786	62.4513
17.804	62.4025
17.822	62.3447
17.84	62.2814
17.858	62.2155
17.876	62.1502
17.894	62.0907
17.912	62.039
17.93	62.001
17.948	61.9777
17.966	61.9736
17.984	61.9887
18.002	62.0248
18.02	62.0802
18.038	62.1546
18.056	62.2433
18.074	62.3455
18.092	62.4533
18.11	62.5653
18.128	62.6726
18.146	62.7737
18.164	62.8613
18.182	62.9337
18.2	62.9871
18.218	63.0203
18.236	63.0319
18.254	63.0231
18.272	62.9939
18.29	62.9486
18.308	62.8879
18.326	62.8179
18.344	62.7397
18.362	62.6597
18.38	62.579
18.398	62.5024
18.416	62.431
18.434	62.3682
18.452	62.314
18.47	62.2694
18.488	62.2334
18.506	62.2061
18.524	62.1842
18.542	62.1671
18.56	62.1511
18.578	62.1356
18.596	62.116
18.614	62.092
18.632	62.0602
18.65	62.0204
18.668	61.9704
18.686	61.9103
18.704	61.839
18.722	61.7569
18.74	61.6648
18.758	61.5635
18.776	61.4549
18.794	61.3402
18.812	61.2225
18.83	61.103
18.848	60.9846
18.866	60.869
18.884	60.7596
18.902	60.658
18.92	60.5676
18.938	60.4897
18.956	60.4275
18.974	60.3817
18.992	60.3547
19.01	60.3467
19.028	60.3593
19.046	60.392
19.064	60.4451
19.082	60.5174
19.1	60.6078
19.118	60.715
19.136	60.8365
19.154	60.9706
19.172	61.1136
19.19	61.2643
19.208	61.4182
19.226	61.5748
19.244	61.7291
19.262	61.8813
19.28	62.0274
19.298	62.1676
19.316	62.2999
19.334	62.4243
19.352	62.5403
19.37	62.6478
19.388	62.748
19.406	62.8409
19.424	62.9274
19.442	63.0075
19.46	63.082
19.478	63.1515
19.496	63.2147
19.514	63.2718
19.532	63.3215
19.55	63.3637
19.568	63.3963
19.586	63.4174
19.604	63.4259
19.622	63.4193
19.64	63.3972
19.658	63.3561
19.676	63.2966
19.694	63.2176
19.712	63.1192
19.73	63.0024
19.748	62.8666
19.766	62.7155
19.784	62.5488
19.802	62.3709
19.82	62.1834
19.838	61.9893
19.856	61.7933
19.874	61.596
19.892	61.404
19.91	61.2167
19.928	61.0407
19.946	60.8753
19.964	60.7252
19.982	60.5909
20	60.4744
20.018	60.3772
20.036	60.2992
20.054	60.242
20.072	60.2051
20.09	60.1889
20.108	60.1931
20.126	60.2168
20.144	60.2602
20.162	60.3214
20.18	60.4001
20.198	60.4948
20.216	60.6036
20.234	60.7261
20.252	60.8583
20.27	61.0012
20.288	61.1491
20.306	61.3023
20.324	61.4562
20.342	61.6083
20.36	61.7572
20.378	61.8965
20.396	62.0277
20.414	62.144
20.432	62.2462
20.45	62.3303
20.468	62.3942
20.486	62.438
20.504	62.4593
20.522	62.4588
20.54	62.4375
20.558	62.3946
20.576	62.3343
20.594	62.257
20.612	62.1655
20.63	62.0656
20.648	61.956
20.666	61.8457
20.684	61.7335
20.702	61.6258
20.72	61.5269
20.738	61.4365
20.756	61.3614
20.774	61.3001
20.792	61.2561
20.81	61.2307
20.828	61.2227
20.846	61.2322
20.864	61.259
20.882	61.2989
20.9	61.3533
20.918	61.4169
20.936	61.4864
20.954	61.5617
20.972	61.6346
20.99	61.7073
21.008	61.773
21.026	61.8294
21.044	61.8761
21.062	61.9078
21.08	61.9256
21.098	61.9276
21.116	61.9124
21.134	61.8814
21.152	61.8351
21.17	61.7732
21.188	61.6995
21.206	61.6137
21.224	61.5181
21.242	61.4172
21.26	61.3096
21.278	61.2011
21.296	61.0924
21.314	60.9852
21.332	60.8842
21.35	60.7881
21.368	60.7006
21.386	60.6228
21.404	60.5548
21.422	60.4985
21.44	60.4536
21.458	60.4204
21.476	60.3994
21.494	60.3901
21.512	60.3914
21.53	60.4039
21.548	60.4257
21.566	60.4556
21.584	60.494
21.602	60.5375
21.62	60.5869
21.638	60.6402
21.656	60.6948
21.674	60.7518
21.692	60.8082
21.71	60.8635
21.728	60.9174
21.746	60.9676
21.764	61.0147
21.782	61.0577
21.8	61.0955
21.818	61.1286
21.836	61.1564
21.854	61.1788
21.872	61.1959
21.89	61.2075
21.908	61.2138
21.926	61.2148
21.944	61.2103
21.962	61.2005
21.98	61.1854
21.998	61.1651
22.016	61.1396
22.034	61.1094
22.052	61.0743
22.07	61.0348
22.088	60.9911
22.106	60.9432
22.124	60.8916
22.142	60.8363
22.16	60.7776
22.178	60.7168
22.196	60.6532
22.214	60.5882
22.232	60.5236
22.25	60.4585
22.268	60.3948
22.286	60.3337
22.304	60.2745
22.322	60.2193
22.34	60.1683
22.358	60.1215
22.376	60.0801
22.394	60.0439
22.412	60.0129
22.43	59.9875
22.448	59.9675
22.466	59.9526
22.484	59.9426
22.502	59.9378
22.52	59.9374
22.538	59.9413
22.556	59.9496
22.574	59.9614
22.592	59.9766
22.61	59.9951
22.628	60.0162
22.646	60.0399
22.664	60.0664
22.682	60.0953
22.7	60.1266
22.718	60.1607
22.736	60.198
22.754	60.2382
22.772	60.2818
22.79	60.3292
22.808	60.38
22.826	60.4347
22.844	60.4939
22.862	60.5572
22.88	60.6247
22.898	60.6965
22.916	60.7726
22.934	60.8524
22.952	60.9362
22.97	61.0237
22.988	61.114
23.006	61.207
23.024	61.3027
23.042	61.3996
23.06	61.498
23.078	61.5976
23.096	61.6963
23.114	61.794
23.132	61.8908
23.15	61.9852
23.168	62.0772
23.186	62.1668
23.204	62.2529
23.222	62.3351
23.24	62.4139
23.258	62.4901
23.276	62.5628
23.294	62.633
23.312	62.7026
23.33	62.7709
23.348	62.8388
23.366	62.9097
23.384	62.9828
23.402	63.0588
23.42	63.1414
23.438	63.2303
23.456	63.3256
23.474	63.4303
23.492	63.5448
23.51	63.6684
23.528	63.8027
23.546	63.9486
23.564	64.1052
23.582	64.2715
23.6	64.4477
23.618	64.6339
23.636	64.8269
23.654	65.0261
23.672	65.2329
23.69	65.4414
23.708	65.6484
23.726	65.8574
23.744	66.0615
23.762	66.255
23.78	66.4424
23.798	66.6178
23.816	66.7744
23.834	66.9158
23.852	67.0389
23.87	67.1379
23.888	67.2145
23.906	67.2679
23.924	67.2943
23.942	67.2932
23.96	67.2656
23.978	67.2108
23.996	67.1275
24.014	67.0166
24.032	66.8807
24.05	66.7209
24.068	66.5353
24.086	66.3291
24.104	66.1069
24.122	65.8647
24.14	65.6075
24.158	65.3423
24.176	65.0657
24.194	64.7804
24.212	64.4944
24.23	64.2084
24.248	63.9205
24.266	63.6375
24.284	63.3628
24.302	63.0929
24.32	62.8326
24.338	62.5865
24.356	62.3511
24.374	62.1298
24.392	61.9287
24.41	61.7463
24.428	61.5828
24.446	61.4428
24.464	61.3282
24.482	61.2369
24.5	61.1707
24.518	61.1319
24.536	61.1196
24.554	61.1331
24.572	61.1716
24.59	61.2361
24.608	61.3255
24.626	61.4368
24.644	61.5697
24.662	61.726
24.68	61.8998
24.698	62.0863
24.716	62.2911
24.734	62.5079
24.752	62.7272
24.77	62.9499
24.788	63.1776
24.806	63.4004
24.824	63.6116
24.842	63.8181
24.86	64.0129
24.878	64.1868
24.896	64.3419
24.914	64.4788
24.932	64.5921
24.95	64.6786
24.968	64.7411
24.986	64.7788
25.004	64.7905
25.022	64.7743
25.04	64.7333
25.058	64.6718
25.076	64.5907
25.094	64.4869
25.112	64.368
25.13	64.2411
25.148	64.0998
25.166	63.9489
25.184	63.7998
25.202	63.6565
25.22	63.5116
25.238	63.3765
25.256	63.2629
25.274	63.1651
25.292	63.0846
25.31	63.0316
25.328	63.012
25.346	63.0196
25.364	63.0584
25.382	63.1334
25.4	63.2445
25.418	63.39
25.436	63.5709
25.454	63.7885
25.472	64.0434
25.49	64.3327
25.508	64.6531
25.526	65.0051
25.544	65.39
25.562	65.8019
25.58	66.2357
25.598	66.6964
25.616	67.1805
25.634	67.6797
25.652	68.1898
25.67	68.7173
25.688	69.255
25.706	69.7941
25.724	70.3363
25.742	70.8844
25.76	71.4277
25.778	71.9569
25.796	72.4806
25.814	72.994
25.832	73.4845
25.85	73.9449
25.868	74.3869
25.886	74.7988
25.904	75.1659
25.922	75.4871
25.94	75.7709
25.958	76.0026
25.976	76.1674
25.994	76.2721
26.012	76.3177
26.03	76.2909
26.048	76.1805
26.066	75.9947
26.084	75.7317
26.102	75.3846
26.12	74.9482
26.138	74.4263
26.156	73.8203
26.174	73.1311
26.192	72.3559
26.21	71.4931
26.228	70.5535
26.246	69.5484
26.264	68.4726
26.282	67.3234
26.3	66.1195
26.318	64.8793
26.336	63.5897
26.354	62.2531
26.372	60.8936
26.39	59.5326
26.408	58.1507
26.426	56.7559
26.444	55.3732
26.462	54.023
26.48	52.6851
26.498	51.3688
26.516	50.0936
26.534	48.8735
26.552	47.6913
26.57	46.5568
26.588	45.4854
26.606	44.4872
26.624	43.55
26.642	42.6793
26.66	41.8837
26.678	41.1677
26.696	40.5242
26.714	39.957
26.732	39.4709
26.75	39.0691
26.768	38.7481
26.786	38.5074
26.804	38.3468
26.822	38.2659
26.84	38.2643
26.858	38.3419
26.876	38.4982
26.894	38.7332
26.912	39.0468
26.93	39.438
26.948	39.9055
26.966	40.4928
26.984	41.2658
27.002	42.0577
27.02	42.6872
27.028	42.8499