File: Bakgrunnsmateriale/MATLAB/FTIR/ftir_data/subAa/Mapping_121/BZ1503107-1_t09_cm-1.asc
PE IR       SPECTRUM    SPECTRUM    ASCII       PEDS        1.60
  -1
BZ6132~1.ASC
17/04/07
13:57:25.00
17/04/07
13:57:25.00
tln
$BZ1503107-1_t0009$<tbV0>[-7.8,-13.0,8.0,0.0,27,1,0]
370
64

2002,4.07
MIRTGS : RIGHTBACK : INTERNAL 2
MIR : ON : INTERNAL 2
OPTKBR

0.200000
8
8.000000
FILLER
RATIO
SPECTRUM
UNLOCKED 256

DOUBLE
64
COMBINED
1
0
0

1.000000
RATIO

1
0
TRUE
51149
0
LEFT NOT FITTED RIGHT NOT FITTED 0
NONE
NONE
15600
12
4.427000
51148
TRUE
1 0 8 72 0 0 0 0

15798

#HDR
-1
-1
#GR
CM-1
%T
2.38419e-05
0.0
5000
-1.000000
4631
8
91.7465
56.4675
#DATA
5000	64.0221
4996	64.3967
4992	64.8993
4988	65.475
4984	66.1395
4980	66.1609
4976	65.1881
4972	64.1766
4968	63.6207
4964	63.307
4960	63.4736
4956	64.7793
4952	66.4316
4948	66.2939
4944	64.8041
4940	64.4062
4936	65.0323
4932	64.9281
4928	64.5276
4924	64.7614
4920	64.4642
4916	63.9991
4912	64.7567
4908	65.3616
4904	64.9436
4900	64.5725
4896	64.6001
4892	64.7358
4888	64.8567
4884	65.0094
4880	65.1632
4876	65.0961
4872	64.8254
4868	64.9021
4864	65.3039
4860	65.3365
4856	64.934
4852	64.6473
4848	64.858
4844	65.1166
4840	65.085
4836	65.0055
4832	64.86
4828	65.061
4824	65.4849
4820	65.3584
4816	65.2936
4812	65.1791
4808	64.7353
4804	65.106
4800	65.7173
4796	65.603
4792	65.5532
4788	65.7894
4784	65.5886
4780	64.9884
4776	64.7738
4772	64.7579
4768	64.4711
4764	64.8034
4760	65.5705
4756	65.2837
4752	64.6088
4748	64.6405
4744	64.9026
4740	64.8868
4736	64.6362
4732	64.4926
4728	64.5369
4724	64.57
4720	64.468
4716	64.5763
4712	64.8386
4708	64.7548
4704	64.7053
4700	64.8358
4696	64.7425
4692	64.6407
4688	64.845
4684	65.1208
4680	65.2759
4676	65.3645
4672	65.2663
4668	64.9366
4664	64.6305
4660	64.6373
4656	64.8126
4652	64.8777
4648	64.9989
4644	65.0854
4640	64.9792
4636	64.9099
4632	64.8252
4628	64.642
4624	64.5304
4620	64.4666
4616	64.4748
4612	64.6865
4608	64.883
4604	64.8811
4600	64.7424
4596	64.6474
4592	64.8521
4588	65.1546
4584	65.1151
4580	64.818
4576	64.7419
4572	64.778
4568	64.6448
4564	64.5359
4560	64.4386
4556	64.3469
4552	64.3889
4548	64.557
4544	64.8427
4540	65.1266
4536	65.2136
4532	64.9698
4528	64.6993
4524	64.44
4520	64.168
4516	64.3035
4512	64.6558
4508	64.8675
4504	64.9805
4500	65.2356
4496	66.1189
4492	67.6371
4488	68.1108
4484	68.6737
4480	69.4997
4476	67.6354
4472	65.3233
4468	64.404
4464	63.5327
4460	63.0502
4456	62.5791
4452	61.2925
4448	57.6799
4444	58.355
4440	73.3798
4436	83.8896
4432	75.9841
4428	67.6064
4424	65.3573
4420	64.6968
4416	64.9494
4412	65.0749
4408	64.7856
4404	64.5936
4400	64.7413
4396	64.9143
4392	65.0518
4388	65.152
4384	65.105
4380	64.9091
4376	64.7811
4372	64.9246
4368	65.1575
4364	65.1256
4360	64.9444
4356	64.8458
4352	64.7324
4348	64.7257
4344	64.9369
4340	65.0535
4336	64.9713
4332	64.8082
4328	64.6482
4324	64.5299
4320	64.4011
4316	64.4804
4312	64.7771
4308	65.0557
4304	65.2507
4300	65.1204
4296	64.7674
4292	64.627
4288	64.7783
4284	64.9104
4280	64.8441
4276	64.784
4272	64.7823
4268	64.7757
4264	64.7252
4260	64.6494
4256	64.6803
4252	64.7992
4248	64.8987
4244	64.957
4240	65.0241
4236	65.0845
4232	65.0756
4228	65.0525
4224	65.0523
4220	64.9623
4216	64.8562
4212	64.9366
4208	64.9842
4204	64.9261
4200	64.9479
4196	64.942
4192	64.962
4188	65.0594
4184	65.1601
4180	65.2189
4176	65.2317
4172	65.2169
4168	65.0876
4164	65.0311
4160	65.0795
4156	65.0657
4152	65.0107
4148	64.9426
4144	65.0711
4140	65.2287
4136	65.0518
4132	64.8776
4128	64.96
4124	65.0441
4120	65.0068
4116	65.0141
4112	65.1661
4108	65.2702
4104	65.2267
4100	65.1186
4096	65.0362
4092	65.042
4088	65.0864
4084	65.1678
4080	65.2471
4076	65.2856
4072	65.3099
4068	65.2319
4064	65.13
4060	65.1003
4056	65.1128
4052	65.1723
4048	65.2076
4044	65.1789
4040	65.1712
4036	65.1696
4032	65.1472
4028	65.1784
4024	65.1601
4020	65.0388
4016	65.0295
4012	65.0938
4008	65.0502
4004	65.0254
4000	65.0948
3996	65.1042
3992	65.0206
3988	64.9339
3984	64.9049
3980	65.0168
3976	65.1344
3972	65.0984
3968	64.9925
3964	64.8147
3960	64.6931
3956	64.8592
3952	65.1251
3948	65.1705
3944	65.1016
3940	65.1276
3936	65.1774
3932	65.0756
3928	64.899
3924	64.8734
3920	64.9615
3916	65.0198
3912	64.9462
3908	64.8408
3904	64.8378
3900	64.9737
3896	65.2549
3892	65.3302
3888	65.1203
3884	65.0505
3880	65.1285
3876	65.1556
3872	65.2025
3868	65.25
3864	65.1699
3860	65.1131
3856	65.275
3852	65.3407
3848	65.2077
3844	65.2338
3840	65.3266
3836	65.3107
3832	65.2556
3828	65.2116
3824	65.172
3820	65.1342
3816	65.1226
3812	65.1074
3808	65.1223
3804	65.1955
3800	65.1258
3796	64.9446
3792	64.9583
3788	65.086
3784	65.08
3780	64.9716
3776	64.8983
3772	64.9883
3768	65.2301
3764	65.3432
3760	65.2852
3756	65.3209
3752	65.4489
3748	65.5079
3744	65.4617
3740	65.3457
3736	65.2405
3732	65.1336
3728	65.0356
3724	65.094
3720	65.2129
3716	65.2125
3712	65.225
3708	65.3346
3704	65.3745
3700	65.3025
3696	65.2556
3692	65.2824
3688	65.316
3684	65.3138
3680	65.3628
3676	65.4257
3672	65.2917
3668	65.0518
3664	64.9946
3660	65.0155
3656	64.9843
3652	65.0737
3648	65.1795
3644	65.2006
3640	65.2224
3636	65.2082
3632	65.2135
3628	65.2766
3624	65.2606
3620	65.1278
3616	65.0754
3612	65.1547
3608	65.2119
3604	65.2447
3600	65.234
3596	65.134
3592	65.0823
3588	65.1265
3584	65.1739
3580	65.2103
3576	65.2823
3572	65.3528
3568	65.302
3564	65.1854
3560	65.1195
3556	65.1224
3552	65.1645
3548	65.1867
3544	65.1897
3540	65.198
3536	65.2644
3532	65.3926
3528	65.3821
3524	65.142
3520	64.9554
3516	64.9752
3512	65.0539
3508	65.0752
3504	65.0468
3500	65.0741
3496	65.1383
3492	65.1304
3488	65.1034
3484	65.1077
3480	65.1156
3476	65.0895
3472	65.029
3468	64.9633
3464	64.9115
3460	64.9555
3456	65.0664
3452	65.0854
3448	64.9934
3444	64.9613
3440	65.0399
3436	65.0959
3432	65.1071
3428	65.0958
3424	65.093
3420	65.1609
3416	65.2481
3412	65.2883
3408	65.2606
3404	65.1944
3400	65.1297
3396	65.0775
3392	65.0776
3388	65.1195
3384	65.1477
3380	65.117
3376	65.0828
3372	65.15
3368	65.2037
3364	65.1433
3360	65.1404
3356	65.1994
3352	65.1419
3348	65.0229
3344	65.022
3340	65.129
3336	65.2174
3332	65.2435
3328	65.1908
3324	65.1609
3320	65.2583
3316	65.3464
3312	65.2546
3308	65.0558
3304	64.9915
3300	65.0297
3296	65.0568
3292	65.1789
3288	65.262
3284	65.211
3280	65.183
3276	65.1506
3272	65.087
3268	65.0274
3264	64.9849
3260	65.0065
3256	65.0824
3252	65.0945
3248	65.0362
3244	65.026
3240	65.0269
3236	65.0027
3232	64.9459
3228	64.8857
3224	64.9373
3220	65.0564
3216	65.1331
3212	65.2057
3208	65.279
3204	65.2333
3200	65.1285
3196	65.0589
3192	65.029
3188	65.0424
3184	65.0588
3180	65.0932
3176	65.1418
3172	65.1827
3168	65.2089
3164	65.2091
3160	65.2021
3156	65.1496
3152	65.0748
3148	65.072
3144	65.0793
3140	65.0743
3136	65.111
3132	65.1735
3128	65.2228
3124	65.2339
3120	65.2036
3116	65.1347
3112	65.1106
3108	65.1999
3104	65.2403
3100	65.087
3096	64.976
3092	65.0468
3088	65.0811
3084	65.0641
3080	65.1135
3076	65.1785
3072	65.1678
3068	65.122
3064	65.1486
3060	65.177
3056	65.1534
3052	65.1557
3048	65.1649
3044	65.1495
3040	65.1471
3036	65.1558
3032	65.1555
3028	65.1675
3024	65.1968
3020	65.1973
3016	65.1839
3012	65.2278
3008	65.2617
3004	65.227
3000	65.1837
2996	65.1331
2992	65.0702
2988	65.0374
2984	65.045
2980	65.0332
2976	65.0561
2972	65.1503
2968	65.1044
2964	64.9604
2960	64.9296
2956	64.9571
2952	64.9788
2948	64.9837
2944	64.9556
2940	64.9172
2936	64.9012
2932	64.966
2928	65.0619
2924	65.0658
2920	65.0442
2916	65.0274
2912	64.9731
2908	64.9557
2904	64.9668
2900	64.9489
2896	65.0011
2892	65.1439
2888	65.1669
2884	65.0302
2880	64.9529
2876	64.9998
2872	65.0835
2868	65.1068
2864	65.0411
2860	65.0069
2856	65.0241
2852	65.0007
2848	64.9941
2844	65.0771
2840	65.1349
2836	65.1299
2832	65.153
2828	65.1595
2824	65.081
2820	65.0084
2816	65.0517
2812	65.1432
2808	65.142
2804	65.1085
2800	65.1286
2796	65.1125
2792	65.0581
2788	65.0316
2784	65.0436
2780	65.0789
2776	65.0425
2772	64.974
2768	64.9854
2764	65.0137
2760	65.0269
2756	65.0298
2752	64.9947
2748	64.9896
2744	65.0336
2740	65.0756
2736	65.1015
2732	65.0986
2728	65.0962
2724	65.1114
2720	65.1024
2716	65.0777
2712	65.026
2708	64.9759
2704	65.0395
2700	65.1181
2696	65.1119
2692	65.0969
2688	65.1122
2684	65.1282
2680	65.079
2676	65.032
2672	65.021
2668	64.9864
2664	65.0006
2660	65.0816
2656	65.1055
2652	65.0208
2648	64.9425
2644	64.9683
2640	65.026
2636	65.027
2632	65.0164
2628	65.0431
2624	65.0717
2620	65.0433
2616	64.9883
2612	65.002
2608	65.0367
2604	65.0111
2600	64.9875
2596	65.0446
2592	65.1093
2588	65.0968
2584	65.0633
2580	65.0191
2576	64.9821
2572	64.9958
2568	65.0502
2564	65.1053
2560	65.0991
2556	65.0576
2552	65.0157
2548	65.004
2544	65.0516
2540	65.075
2536	65.0585
2532	65.07
2528	65.0618
2524	65.0054
2520	65.0106
2516	65.0573
2512	65.0825
2508	65.1155
2504	65.0755
2500	64.9544
2496	64.8531
2492	64.8391
2488	64.9281
2484	65.0089
2480	65.0289
2476	65.0724
2472	65.1585
2468	65.2064
2464	65.1807
2460	65.1032
2456	65.0418
2452	65.0381
2448	65.0237
2444	64.9918
2440	65.0031
2436	65.0498
2432	65.049
2428	64.9878
2424	64.961
2420	64.9678
2416	64.9947
2412	65.0294
2408	65.0244
2404	64.9889
2400	64.9434
2396	64.9387
2392	64.9835
2388	64.9947
2384	64.9768
2380	65.0298
2376	65.0799
2372	65.0477
2368	65.0402
2364	65.0606
2360	65.0267
2356	64.9301
2352	64.884
2348	64.9633
2344	65.0438
2340	65.0439
2336	65.0117
2332	64.986
2328	64.9656
2324	64.9548
2320	64.9808
2316	65.0363
2312	65.0715
2308	65.0354
2304	64.9489
2300	64.9129
2296	64.9281
2292	64.9333
2288	64.9614
2284	64.9931
2280	64.9878
2276	64.9717
2272	64.9617
2268	64.9654
2264	64.9773
2260	65.0054
2256	65.0054
2252	64.9694
2248	64.9765
2244	65.0131
2240	65.0172
2236	64.9433
2232	64.876
2228	64.9031
2224	64.921
2220	64.9056
2216	64.8992
2212	64.8997
2208	64.9266
2204	64.9088
2200	64.8405
2196	64.835
2192	64.9024
2188	64.9449
2184	64.9318
2180	64.9259
2176	64.9534
2172	64.9965
2168	65.0671
2164	65.0781
2160	64.9017
2156	64.755
2152	64.7696
2148	64.7975
2144	64.8214
2140	64.8515
2136	64.8918
2132	64.9396
2128	64.9767
2124	65.0079
2120	65.0184
2116	64.9797
2112	64.9356
2108	64.9303
2104	64.9212
2100	64.9028
2096	64.9209
2092	64.9598
2088	64.9912
2084	65.0104
2080	64.9963
2076	64.9617
2072	64.8981
2068	64.8182
2064	64.7977
2060	64.8196
2056	64.8752
2052	64.9849
2048	65.0531
2044	65.0085
2040	64.9191
2036	64.8878
2032	64.9081
2028	64.9289
2024	64.9289
2020	64.895
2016	64.8725
2012	64.8683
2008	64.851
2004	64.8636
2000	64.8906
1996	64.896
1992	64.9015
1988	64.8826
1984	64.8465
1980	64.8485
1976	64.8756
1972	64.9224
1968	64.9746
1964	64.9493
1960	64.8792
1956	64.8727
1952	64.9082
1948	64.908
1944	64.8706
1940	64.8323
1936	64.8566
1932	64.9334
1928	64.9527
1924	64.918
1920	64.9124
1916	64.9284
1912	64.8999
1908	64.8139
1904	64.783
1900	64.8597
1896	64.9303
1892	64.9376
1888	64.9164
1884	64.8867
1880	64.8546
1876	64.8281
1872	64.8185
1868	64.8265
1864	64.8019
1860	64.7743
1856	64.8161
1852	64.871
1848	64.9347
1844	64.9783
1840	64.9224
1836	64.8342
1832	64.7804
1828	64.7687
1824	64.8273
1820	64.9318
1816	64.9948
1812	64.9675
1808	64.8913
1804	64.8553
1800	64.8559
1796	64.8504
1792	64.8451
1788	64.8145
1784	64.7606
1780	64.7604
1776	64.8489
1772	64.9149
1768	64.8626
1764	64.8206
1760	64.8356
1756	64.8187
1752	64.7952
1748	64.7227
1744	64.6199
1740	64.6003
1736	64.5975
1732	64.5311
1728	64.4825
1724	64.5424
1720	64.6521
1716	64.6744
1712	64.6331
1708	64.6628
1704	64.7286
1700	64.7702
1696	64.7409
1692	64.6533
1688	64.6448
1684	64.6921
1680	64.744
1676	64.7879
1672	64.7805
1668	64.7938
1664	64.8186
1660	64.8088
1656	64.8585
1652	64.9152
1648	64.866
1644	64.7705
1640	64.724
1636	64.7364
1632	64.7381
1628	64.7176
1624	64.7409
1620	64.7964
1616	64.7549
1612	64.6892
1608	64.7455
1604	64.765
1600	64.6773
1596	64.6109
1592	64.5977
1588	64.6065
1584	64.6384
1580	64.6758
1576	64.6829
1572	64.6514
1568	64.6149
1564	64.6586
1560	64.7573
1556	64.7615
1552	64.6583
1548	64.5964
1544	64.6571
1540	64.7217
1536	64.6799
1532	64.6231
1528	64.6545
1524	64.7322
1520	64.7541
1516	64.7508
1512	64.7994
1508	64.8453
1504	64.8231
1500	64.7793
1496	64.7388
1492	64.6725
1488	64.6701
1484	64.7001
1480	64.6906
1476	64.6976
1472	64.717
1468	64.7128
1464	64.7292
1460	64.8204
1456	64.8546
1452	64.7146
1448	64.5802
1444	64.627
1440	64.7606
1436	64.7788
1432	64.7024
1428	64.6665
1424	64.6756
1420	64.692
1416	64.6696
1412	64.6124
1408	64.5815
1404	64.5618
1400	64.5476
1396	64.5431
1392	64.5065
1388	64.4935
1384	64.512
1380	64.4951
1376	64.442
1372	64.4158
1368	64.459
1364	64.5323
1360	64.5837
1356	64.5982
1352	64.5905
1348	64.5699
1344	64.5653
1340	64.5575
1336	64.5218
1332	64.5153
1328	64.4675
1324	64.3265
1320	64.2482
1316	64.2857
1312	64.3466
1308	64.3819
1304	64.4031
1300	64.4283
1296	64.4286
1292	64.4038
1288	64.4176
1284	64.4519
1280	64.4523
1276	64.4532
1272	64.4567
1268	64.3697
1264	64.2596
1260	64.2688
1256	64.3244
1252	64.3797
1248	64.4498
1244	64.4464
1240	64.3442
1236	64.2741
1232	64.3268
1228	64.4203
1224	64.4786
1220	64.4807
1216	64.4222
1212	64.3309
1208	64.2292
1204	64.1676
1200	64.2031
1196	64.3063
1192	64.3696
1188	64.348
1184	64.2884
1180	64.2205
1176	64.2104
1172	64.3094
1168	64.4083
1164	64.3759
1160	64.2617
1156	64.185
1152	64.1664
1148	64.1749
1144	64.2277
1140	64.3142
1136	64.3399
1132	64.3353
1128	64.3529
1124	64.3533
1120	64.3173
1116	64.3053
1112	64.3342
1108	64.3098
1104	64.2775
1100	64.3016
1096	64.3314
1092	64.3788
1088	64.4198
1084	64.4933
1080	64.5188
1076	64.3696
1072	64.2341
1068	64.1569
1064	64.1007
1060	64.1489
1056	64.2423
1052	64.2689
1048	64.198
1044	64.1126
1040	64.1092
1036	64.116
1032	64.116
1028	64.1985
1024	64.2855
1020	64.315
1016	64.3106
1012	64.2376
1008	64.1706
1004	64.193
1000	64.1974
996	 64.1919
992	 64.2129
988	 64.1615
984	 64.0821
980	 64.0497
976	 64.0462
972	 64.091
968	 64.1858
964	 64.2616
960	 64.2729
956	 64.2541
952	 64.3024
948	 64.3536
944	 64.2898
940	 64.2457
936	 64.2806
932	 64.3043
928	 64.3287
924	 64.3232
920	 64.3603
916	 64.4802
912	 64.4801
908	 64.3961
904	 64.3066
900	 64.2015
896	 64.1436
892	 64.0643
888	 64.0135
884	 64.0761
880	 64.1754
876	 64.2785
872	 64.3162
868	 64.2548
864	 64.2287
860	 64.2766
856	 64.3128
852	 64.3518
848	 64.404
844	 64.3683
840	 64.2586
836	 64.1585
832	 64.0645
828	 64.0288
824	 64.0274
820	 64.0067
816	 64.0384
812	 64.1336
808	 64.2087
804	 64.137
800	 64.0505
796	 64.0657
792	 64.1032
788	 64.1978
784	 64.3128
780	 64.3067
776	 64.1944
772	 64.0835
768	 64.023
764	 64.1216
760	 64.262
756	 64.1664
752	 63.9658
748	 63.9072
744	 64.0209
740	 64.1599
736	 64.1386
732	 64.146
728	 64.3302
724	 64.415
720	 64.3333
716	 64.2892
712	 64.253
708	 64.1281
704	 64.0353
700	 64.0227
696	 64.0468
692	 64.1211
688	 64.2447
684	 64.3678
680	 64.3742
676	 64.2025
672	 64.0765
668	 64.1379
664	 64.3075
660	 64.4081
656	 64.2677
652	 64.1744
648	 64.2508
644	 64.1618
640	 64.0231
636	 64.1631
632	 64.3392
628	 64.2464
624	 64.1218
620	 64.1262
616	 64.0795
612	 63.9582
608	 63.8087
604	 63.7973
600	 63.9731
596	 64.0112
592	 63.823
588	 63.6624
584	 63.6681
580	 63.9153
576	 64.4039
572	 64.7858
568	 64.733
564	 64.4849
560	 64.2106
556	 63.7736
552	 63.1038
548	 62.4588
544	 62.5383
540	 63.2806
536	 63.7916
532	 63.6877
528	 63.2402
524	 63.2474
520	 64.1476
516	 64.8704
512	 64.548
508	 64.5461
504	 65.2276
500	 64.949
496	 64.1194
492	 64.1438
488	 63.9704
484	 63.7151
480	 64.6191
476	 65.6466
472	 65.0735
468	 63.7429
464	 64.0411
460	 65.1803
456	 64.5984
452	 63.2801
448	 63.0545
444	 62.7586
440	 62.8413
436	 64.0032
432	 64.2413
428	 63.5658
424	 63.4938
420	 63.6095
416	 63.3419
412	 64.4118
408	 68.2564
404	 71.2185
400	 71.4169
396	 70.6848
392	 67.6775
388	 66.5835
384	 74.7664
380	 81.8371
376	 91.7465
372	 65.8193
370	 75.4718