File: Bakgrunnsmateriale/MATLAB/FTIR/ftir_data/subAa/Mapping_121/BZ1503107-1_t35.asc
PE IR       SPECTRUM    SPECTRUM    ASCII       PEDS        1.60
  -1
BZ2D57~1.ASC
17/04/07
16:05:54.00
17/04/07
16:06:20.00
tln
$BZ1503107-1_t0035$<tbV0>[10.4,-5.2,8.0,0.0,27,1,0]
27.028
64

2002,4.07
MIRTGS : RIGHTBACK : INTERNAL 2
MIR : ON : INTERNAL 2
OPTKBR

0.200000
8
8.000000
FILLER
RATIO
SPECTRUM
UNLOCKED 256

DOUBLE
64
COMBINED
1
0
0

0.002000
RATIO

1
0
TRUE
51149
0
LEFT NOT FITTED RIGHT NOT FITTED 0
NONE
NONE
15600
12
4.427000
51148
TRUE
1 0 8 72 0 0 0 0

15798

#HDR
-1
-1
#GR
µM
%T
2.38419e-05
0.0
2.000000
0.002000
12515
8
86.3484
53.5418
#DATA
2.000000	 65.2747
2.018000	 64.107
2.036000	 64.6583
2.054000	 64.5805
2.072000	 65.1317
2.090000	 64.9977
2.108000	 65.3817
2.126000	 65.5503
2.144000	 65.0671
2.162000	 64.8784
2.180000	 64.4507
2.198000	 64.4454
2.216000	 64.222
2.234000	 63.5471
2.252000	 65.5762
2.270000	 65.3901
2.288000	 64.1455
2.306000	 64.4498
2.324000	 64.5017
2.342000	 64.8388
2.360000	 64.8782
2.378000	 64.9859
2.396000	 65.5288
2.414000	 65.4323
2.432000	 65.6186
2.450000	 65.198
2.468000	 65.1391
2.486000	 65.3141
2.504000	 65.4351
2.522000	 65.2565
2.540000	 65.0712
2.558000	 65.2052
2.576000	 65.0631
2.594000	 65.1109
2.612000	 65.1769
2.630000	 65.5139
2.648000	 65.1659
2.666000	 65.0308
2.684000	 65.3108
2.702000	 65.3973
2.720000	 65.1879
2.738000	 65.3364
2.756000	 65.2738
2.774000	 65.3269
2.792000	 65.3529
2.810000	 65.0626
2.828000	 65.1688
2.846000	 65.1037
2.864000	 65.3085
2.882000	 65.1574
2.900000	 65.0528
2.918000	 65.1535
2.936000	 65.1608
2.954000	 65.2865
2.972000	 65.1114
2.990000	 65.401
3.008000	 65.1481
3.026000	 65.1874
3.044000	 65.095
3.062000	 65.1945
3.080000	 65.3142
3.098000	 65.1029
3.116000	 65.0564
3.134000	 65.1646
3.152000	 65.2162
3.170000	 65.0563
3.188000	 65.0251
3.206000	 65.1459
3.224000	 65.1475
3.242000	 64.9908
3.260000	 65.0049
3.278000	 65.1094
3.296000	 65.058
3.314000	 65.0134
3.332000	 65.104
3.350000	 65.032
3.368000	 65.0934
3.386000	 65.0881
3.404000	 65.0179
3.422000	 65.2457
3.440000	 64.9816
3.458000	 65.0869
3.476000	 65.0357
3.494000	 65.0778
3.512000	 65.0041
3.530000	 64.9288
3.548000	 64.9585
3.566000	 65.1088
3.584000	 65.1847
3.602000	 65.1424
3.620000	 65.1731
3.638000	 65.1937
3.656000	 65.1342
3.674000	 64.9609
3.692000	 65.0819
3.710000	 65.1043
3.728000	 64.9976
3.746000	 65.0584
3.764000	 65.0992
3.782000	 65.0804
3.800000	 64.9831
3.818000	 65.0439
3.836000	 64.9397
3.854000	 65.0287
3.872000	 65.0327
3.890000	 65.0556
3.908000	 65.0777
3.926000	 65.0208
3.944000	 65.0675
3.962000	 65.0838
3.980000	 65.147
3.998000	 65.0629
4.016000	 64.8854
4.034000	 65.0854
4.052000	 65.0184
4.070000	 64.9122
4.088000	 64.8639
4.106000	 65.0442
4.124000	 65.1459
4.141999	 65.0183
4.160000	 64.8574
4.178000	 65.0436
4.196000	 64.9467
4.214000	 64.8378
4.232000	 64.9608
4.250000	 65.0053
4.268000	 64.9738
4.286000	 64.8836
4.304000	 64.9996
4.322000	 65.0346
4.340000	 64.9832
4.358000	 64.82
4.375999	 64.9416
4.394000	 64.8611
4.412000	 64.8588
4.430000	 64.869
4.448000	 64.9307
4.466000	 64.9331
4.484000	 65.0331
4.502000	 64.9414
4.520000	 64.8037
4.538000	 64.8339
4.556000	 64.8426
4.574000	 64.8221
4.592000	 64.8265
4.609999	 64.7866
4.628000	 64.7511
4.646000	 64.7805
4.664000	 64.8316
4.682000	 64.7056
4.700000	 64.7926
4.718000	 64.7151
4.736000	 64.8857
4.754000	 64.8382
4.772000	 64.7813
4.790000	 64.7426
4.808000	 64.6654
4.826000	 64.7005
4.843999	 64.5964
4.862000	 64.7605
4.880000	 64.7741
4.898000	 64.699
4.916000	 64.7817
4.934000	 64.8391
4.952000	 64.8732
4.970000	 64.8346
4.988000	 64.8565
5.006000	 64.7615
5.024000	 64.7427
5.042000	 64.7679
5.060000	 64.7355
5.077999	 64.8583
5.096000	 64.8424
5.114000	 64.8676
5.132000	 64.8103
5.150000	 64.6811
5.168000	 64.6919
5.186000	 64.6537
5.204000	 64.7453
5.222000	 64.6633
5.240000	 64.7245
5.258000	 64.6617
5.276000	 64.6415
5.294000	 64.7781
5.312000	 64.7335
5.330000	 64.6695
5.348000	 64.7518
5.366000	 64.6769
5.384000	 64.6852
5.402000	 64.7492
5.420000	 64.7328
5.438000	 64.7566
5.456000	 64.7516
5.474000	 64.7881
5.492000	 64.7657
5.510000	 64.7146
5.528000	 64.6858
5.546000	 64.7134
5.564000	 64.6406
5.582000	 64.5928
5.600000	 64.6503
5.618000	 64.6052
5.636000	 64.5797
5.654000	 64.5605
5.672000	 64.5904
5.690000	 64.5257
5.708000	 64.431
5.726000	 64.4599
5.744000	 64.43
5.762000	 64.263
5.780000	 64.3274
5.798000	 64.3619
5.816000	 64.3416
5.834000	 64.5017
5.852000	 64.4591
5.870000	 64.3991
5.888000	 64.51
5.906000	 64.5703
5.923999	 64.6487
5.942000	 64.6368
5.960000	 64.5655
5.978000	 64.5615
5.996000	 64.5675
6.014000	 64.5626
6.032000	 64.4297
6.050000	 64.3209
6.068000	 64.3358
6.086000	 64.3878
6.104000	 64.408
6.122000	 64.407
6.140000	 64.404
6.158000	 64.395
6.176000	 64.4073
6.194000	 64.4124
6.212000	 64.3989
6.230000	 64.4583
6.248000	 64.5343
6.266000	 64.5371
6.284000	 64.484
6.302000	 64.4145
6.320000	 64.3767
6.338000	 64.3813
6.356000	 64.361
6.374000	 64.4054
6.392000	 64.5164
6.410000	 64.5537
6.428000	 64.4725
6.446000	 64.3524
6.464000	 64.3236
6.482000	 64.347
6.500000	 64.3459
6.518000	 64.3712
6.536000	 64.4261
6.554000	 64.4491
6.572000	 64.472
6.590000	 64.5289
6.608000	 64.5387
6.626000	 64.5707
6.644000	 64.6201
6.662000	 64.5925
6.680000	 64.4995
6.698000	 64.3945
6.716000	 64.3837
6.734000	 64.4133
6.752000	 64.4032
6.770000	 64.376
6.788000	 64.336
6.806000	 64.3112
6.824000	 64.3164
6.842000	 64.3091
6.860000	 64.3163
6.878000	 64.3698
6.896000	 64.4099
6.914000	 64.443
6.932000	 64.4973
6.950000	 64.504
6.968000	 64.4097
6.986000	 64.2843
7.004000	 64.2466
7.022000	 64.2686
7.040000	 64.2732
7.058000	 64.3079
7.076000	 64.3723
7.094000	 64.4131
7.112000	 64.4139
7.130000	 64.3589
7.148000	 64.3186
7.166000	 64.3291
7.184000	 64.3054
7.202000	 64.2767
7.220000	 64.3003
7.238000	 64.3102
7.256000	 64.3039
7.274000	 64.343
7.292000	 64.4102
7.310000	 64.4534
7.328000	 64.4301
7.346000	 64.3454
7.364000	 64.2724
7.382000	 64.2421
7.400000	 64.2258
7.418000	 64.2298
7.436000	 64.2819
7.454000	 64.3666
7.472000	 64.4134
7.490000	 64.3682
7.508000	 64.2835
7.526000	 64.2469
7.544000	 64.2606
7.562000	 64.2817
7.580000	 64.3109
7.598000	 64.3476
7.616000	 64.3508
7.634000	 64.3121
7.652000	 64.2785
7.670000	 64.2745
7.688000	 64.2787
7.706000	 64.2706
7.724000	 64.2475
7.742000	 64.2147
7.760000	 64.187
7.778000	 64.1794
7.796000	 64.1983
7.814000	 64.2406
7.832000	 64.2831
7.850000	 64.296
7.868000	 64.2883
7.886000	 64.2987
7.904000	 64.327
7.922000	 64.3275
7.940000	 64.283
7.958000	 64.2327
7.976000	 64.207
7.994000	 64.1905
8.012000	 64.1665
8.030000	 64.1439
8.048000	 64.1295
8.065999	 64.1142
8.084000	 64.0953
8.102000	 64.0877
8.120000	 64.0962
8.138000	 64.1043
8.155999	 64.1032
8.173999	 64.1029
8.192000	 64.109
8.210000	 64.1121
8.228000	 64.1058
8.246000	 64.0894
8.263999	 64.0606
8.282000	 64.0267
8.300000	 64.0152
8.318000	 64.0488
8.336000	 64.116
8.353999	 64.1799
8.372000	 64.2087
8.390000	 64.1911
8.408000	 64.1421
8.426000	 64.102
8.443999	 64.1095
8.462000	 64.1574
8.480000	 64.1886
8.498000	 64.1519
8.516000	 64.0606
8.533999	 63.9834
8.552000	 63.9813
8.570000	 64.0563
8.588000	 64.1512
8.606000	 64.1947
8.624000	 64.1575
8.641999	 64.0703
8.660000	 63.9923
8.678000	 63.9664
8.696000	 63.9971
8.714000	 64.0528
8.731999	 64.0866
8.750000	 64.0712
8.768000	 64.0273
8.786000	 64.0053
8.804000	 64.022
8.821999	 64.0359
8.840000	 64.0048
8.858000	 63.9428
8.876000	 63.8968
8.894000	 63.8944
8.911999	 63.9288
8.930000	 63.976
8.948000	 64.0147
8.966000	 64.0341
8.984000	 64.0319
9.001999	 64.0136
9.020000	 63.9959
9.038000	 63.9989
9.056000	 64.0242
9.074000	 64.0522
9.092000	 64.06
9.109999	 64.0392
9.128000	 63.997
9.146000	 63.9466
9.164000	 63.9011
9.182000	 63.8699
9.199999	 63.8553
9.218000	 63.8552
9.236000	 63.8716
9.254000	 63.9162
9.272000	 63.9967
9.289999	 64.0978
9.308000	 64.182
9.326000	 64.2152
9.344000	 64.1918
9.362000	 64.1347
9.379999	 64.0723
9.398000	 64.0212
9.416000	 63.9869
9.434000	 63.9738
9.452000	 63.9853
9.469999	 64.0163
9.488000	 64.0513
9.506000	 64.0723
9.524000	 64.0699
9.542000	 64.0477
9.560000	 64.0175
9.577999	 63.9908
9.596000	 63.9742
9.614000	 63.971
9.632000	 63.9816
9.650000	 64.0012
9.667999	 64.0194
9.686000	 64.0244
9.704000	 64.0122
9.722000	 63.9882
9.740000	 63.9622
9.757999	 63.9407
9.776000	 63.9245
9.794000	 63.9144
9.812000	 63.9141
9.830000	 63.9272
9.847999	 63.9497
9.866000	 63.97
9.884000	 63.978
9.902000	 63.9748
9.920000	 63.9724
9.937999	 63.9855
9.956000	 64.021
9.974000	 64.0736
9.992000	 64.13
10.01	64.1751
10.028	64.1966
10.046	64.1878
10.064	64.1489
10.082	64.0886
10.1	64.0242
10.118	63.9768
10.136	63.9636
10.154	63.9903
10.172	64.0475
10.19	64.1126
10.208	64.1601
10.226	64.172
10.244	64.1454
10.262	64.0936
10.28	64.0381
10.298	63.9987
10.316	63.9853
10.334	63.9944
10.352	64.013
10.37	64.024
10.388	64.0156
10.406	63.9862
10.424	63.9463
10.442	63.9148
10.46	63.9091
10.478	63.9366
10.496	63.9896
10.514	64.0495
10.532	64.0949
10.55	64.1133
10.568	64.1054
10.586	64.0825
10.604	64.0578
10.622	64.0399
10.64	64.0289
10.658	64.0202
10.676	64.0089
10.694	63.9945
10.712	63.9802
10.73	63.9705
10.748	63.9677
10.766	63.97
10.784	63.9748
10.802	63.9813
10.82	63.9924
10.838	64.0138
10.856	64.0486
10.874	64.0939
10.892	64.1402
10.91	64.1745
10.928	64.1877
10.946	64.1784
10.964	64.1537
10.982	64.1246
11	64.0979
11.018	64.0728
11.036	64.0431
11.054	64.0023
11.072	63.9502
11.09	63.896
11.108	63.8537
11.126	63.837
11.144	63.8518
11.162	63.895
11.18	63.9565
11.198	64.0244
11.216	64.0895
11.234	64.1472
11.252	64.1966
11.27	64.2394
11.288	64.2782
11.306	64.3154
11.324	64.3515
11.342	64.3834
11.36	64.4049
11.378	64.4061
11.396	64.378
11.414	64.3169
11.432	64.2285
11.45	64.1273
11.468	64.0338
11.486	63.9657
11.504	63.9323
11.522	63.9317
11.54	63.9536
11.558	63.9845
11.576	64.0139
11.594	64.0381
11.612	64.0587
11.63	64.0799
11.648	64.1034
11.666	64.1263
11.684	64.141
11.702	64.1387
11.72	64.1137
11.738	64.0664
11.756	64.0036
11.774	63.9364
11.792	63.8766
11.81	63.8327
11.828	63.8087
11.846	63.8048
11.864	63.8187
11.882	63.8482
11.9	63.8901
11.918	63.9407
11.936	63.9954
11.954	64.0484
11.972	64.0926
11.99	64.1228
12.008	64.1368
12.026	64.1363
12.044	64.1262
12.062	64.1119
12.08	64.0973
12.098	64.0836
12.116	64.069
12.134	64.0501
12.152	64.0243
12.17	63.9916
12.188	63.9547
12.206	63.919
12.224	63.8911
12.242	63.8773
12.26	63.8817
12.278	63.9056
12.296	63.9467
12.314	63.9997
12.332	64.0569
12.35	64.1101
12.368	64.1519
12.386	64.1768
12.404	64.1831
12.422	64.1728
12.44	64.1516
12.458	64.1267
12.476	64.1061
12.494	64.0956
12.512	64.0981
12.53	64.1129
12.548	64.136
12.566	64.1617
12.584	64.1837
12.602	64.1967
12.62	64.198
12.638	64.1876
12.656	64.1681
12.674	64.1438
12.692	64.1195
12.71	64.0991
12.728	64.085
12.746	64.0773
12.764	64.0752
12.782	64.0772
12.8	64.0824
12.818	64.0905
12.836	64.1018
12.854	64.1168
12.872	64.1352
12.89	64.1545
12.908	64.1706
12.926	64.1776
12.944	64.1692
12.962	64.1409
12.98	64.0916
12.998	64.0241
13.016	63.9458
13.034	63.8676
13.052	63.8018
13.07	63.759
13.088	63.7467
13.106	63.767
13.124	63.8159
13.142	63.8841
13.16	63.9587
13.178	64.0256
13.196	64.0723
13.214	64.0908
13.232	64.0788
13.25	64.0403
13.268	63.9849
13.286	63.9245
13.304	63.8711
13.322	63.8337
13.34	63.8172
13.358	63.82
13.376	63.8351
13.394	63.852
13.412	63.8591
13.43	63.8462
13.448	63.8068
13.466	63.7389
13.484	63.6456
13.502	63.5335
13.52	63.4117
13.538	63.2895
13.556	63.175
13.574	63.0746
13.592	62.9921
13.61	62.9287
13.628	62.8835
13.646	62.8536
13.664	62.8361
13.682	62.8272
13.7	62.8257
13.718	62.8311
13.736	62.8465
13.754	62.876
13.772	62.9256
13.79	62.9998
13.808	63.1012
13.826	63.2291
13.844	63.3783
13.862	63.5393
13.88	63.6989
13.898	63.8428
13.916	63.9574
13.934	64.032
13.952	64.061
13.97	64.0437
13.988	63.9849
14.006	63.8935
14.024	63.7809
14.042	63.6584
14.06	63.5356
14.078	63.4199
14.096	63.3163
14.114	63.2278
14.132	63.1564
14.15	63.103
14.168	63.068
14.186	63.0531
14.204	63.0593
14.222	63.0897
14.24	63.1467
14.258	63.2327
14.276	63.3487
14.294	63.4935
14.312	63.6636
14.33	63.8522
14.348	64.0499
14.366	64.245
14.384	64.424
14.402	64.575
14.42	64.6876
14.438	64.7544
14.456	64.7714
14.474	64.7378
14.492	64.657
14.51	64.5345
14.528	64.3779
14.546	64.1948
14.564	63.9922
14.582	63.777
14.6	63.556
14.618	63.3362
14.636	63.126
14.654	62.9344
14.672	62.7714
14.69	62.6467
14.708	62.5686
14.726	62.5426
14.744	62.5702
14.762	62.646
14.78	62.7614
14.798	62.9044
14.816	63.061
14.834	63.2173
14.852	63.3605
14.87	63.4825
14.888	63.5789
14.906	63.6486
14.924	63.6927
14.942	63.7153
14.96	63.7199
14.978	63.7091
14.996	63.6846
15.014	63.6465
15.032	63.5941
15.05	63.5268
15.068	63.4455
15.086	63.3526
15.104	63.2529
15.122	63.1547
15.14	63.0674
15.158	62.9997
15.176	62.9595
15.194	62.9532
15.212	62.9832
15.23	63.0467
15.248	63.138
15.266	63.2488
15.284	63.3669
15.302	63.4803
15.32	63.5794
15.338	63.6561
15.356	63.7044
15.374	63.7232
15.392	63.7154
15.41	63.6857
15.428	63.641
15.446	63.5915
15.464	63.5447
15.482	63.5073
15.5	63.4853
15.518	63.4825
15.536	63.4993
15.554	63.5351
15.572	63.5876
15.59	63.6526
15.608	63.7265
15.626	63.8063
15.644	63.8887
15.662	63.9713
15.68	64.053
15.698	64.1331
15.716	64.2113
15.734	64.288
15.752	64.3629
15.77	64.436
15.788	64.5059
15.806	64.5705
15.824	64.6277
15.842	64.6747
15.86	64.7079
15.878	64.7251
15.896	64.7242
15.914	64.7027
15.932	64.6609
15.95	64.5995
15.968	64.5199
15.986	64.4263
16.004	64.3219
16.022	64.2108
16.04	64.0986
16.058	63.9891
16.076	63.8854
16.094	63.792
16.112	63.7109
16.13	63.6434
16.148	63.5904
16.166	63.5513
16.184	63.5256
16.202	63.5125
16.22	63.5104
16.238	63.5181
16.256	63.5344
16.274	63.5577
16.292	63.5868
16.31	63.6205
16.328	63.657
16.346	63.6951
16.364	63.7333
16.382	63.7704
16.4	63.8058
16.418	63.8389
16.436	63.8697
16.454	63.8987
16.472	63.9264
16.49	63.9541
16.508	63.9832
16.526	64.0147
16.544	64.0501
16.562	64.0894
16.58	64.1327
16.598	64.1791
16.616	64.2267
16.634	64.274
16.652	64.3173
16.67	64.3539
16.688	64.3811
16.706	64.3955
16.724	64.3958
16.742	64.3802
16.76	64.349
16.778	64.3029
16.796	64.2435
16.814	64.1742
16.832	64.097
16.85	64.0167
16.868	63.9367
16.886	63.86
16.904	63.7913
16.922	63.732
16.94	63.6846
16.958	63.6503
16.976	63.6293
16.994	63.6219
17.012	63.627
17.03	63.6439
17.048	63.6698
17.066	63.7033
17.084	63.7421
17.102	63.7833
17.12	63.8256
17.138	63.8662
17.156	63.9037
17.174	63.9369
17.192	63.9642
17.21	63.9854
17.228	63.9995
17.246	64.0068
17.264	64.0075
17.282	64.0022
17.3	63.9914
17.318	63.9761
17.336	63.9567
17.354	63.9336
17.372	63.9076
17.39	63.8786
17.408	63.8467
17.426	63.8117
17.444	63.7734
17.462	63.7311
17.48	63.6846
17.498	63.6336
17.516	63.5783
17.534	63.5186
17.552	63.4556
17.57	63.3896
17.588	63.3228
17.606	63.2562
17.624	63.1915
17.642	63.1316
17.66	63.0775
17.678	63.0322
17.696	62.9964
17.714	62.9729
17.732	62.9621
17.75	62.965
17.768	62.982
17.786	63.0132
17.804	63.0578
17.822	63.1154
17.84	63.1842
17.858	63.2627
17.876	63.3491
17.894	63.4404
17.912	63.5353
17.93	63.6298
17.948	63.723
17.966	63.8106
17.984	63.8917
18.002	63.963
18.02	64.0229
18.038	64.0699
18.056	64.1024
18.074	64.1198
18.092	64.1219
18.11	64.1087
18.128	64.0814
18.146	64.0408
18.164	63.9891
18.182	63.9281
18.2	63.8601
18.218	63.7879
18.236	63.7131
18.254	63.6392
18.272	63.567
18.29	63.4999
18.308	63.438
18.326	63.3839
18.344	63.3375
18.362	63.3
18.38	63.2712
18.398	63.2512
18.416	63.2396
18.434	63.2363
18.452	63.2405
18.47	63.2519
18.488	63.2695
18.506	63.2929
18.524	63.3211
18.542	63.3539
18.56	63.3898
18.578	63.4288
18.596	63.4696
18.614	63.5119
18.632	63.5541
18.65	63.5961
18.668	63.6363
18.686	63.6745
18.704	63.7093
18.722	63.7405
18.74	63.767
18.758	63.789
18.776	63.8058
18.794	63.8177
18.812	63.8246
18.83	63.8269
18.848	63.8252
18.866	63.8198
18.884	63.8115
18.902	63.8009
18.92	63.789
18.938	63.776
18.956	63.7628
18.974	63.7494
18.992	63.7364
19.01	63.7236
19.028	63.7115
19.046	63.7
19.064	63.6894
19.082	63.6797
19.1	63.6711
19.118	63.6636
19.136	63.6576
19.154	63.6532
19.172	63.6507
19.19	63.6503
19.208	63.6523
19.226	63.6569
19.244	63.6644
19.262	63.6746
19.28	63.6879
19.298	63.7041
19.316	63.7228
19.334	63.744
19.352	63.767
19.37	63.7917
19.388	63.8173
19.406	63.8439
19.424	63.8704
19.442	63.8971
19.46	63.923
19.478	63.9482
19.496	63.9723
19.514	63.9949
19.532	64.0162
19.55	64.0362
19.568	64.0549
19.586	64.0724
19.604	64.0888
19.622	64.1044
19.64	64.1191
19.658	64.133
19.676	64.1461
19.694	64.1582
19.712	64.1695
19.73	64.1793
19.748	64.1877
19.766	64.194
19.784	64.1981
19.802	64.1993
19.82	64.1972
19.838	64.1915
19.856	64.1816
19.874	64.1674
19.892	64.1483
19.91	64.1245
19.928	64.0959
19.946	64.0624
19.964	64.0248
19.982	63.9828
20	63.9376
20.018	63.8896
20.036	63.8395
20.054	63.7887
20.072	63.7374
20.09	63.6878
20.108	63.6395
20.126	63.5948
20.144	63.5538
20.162	63.5177
20.18	63.4874
20.198	63.463
20.216	63.4455
20.234	63.4347
20.252	63.4308
20.27	63.4339
20.288	63.4431
20.306	63.4585
20.324	63.4791
20.342	63.5043
20.36	63.5336
20.378	63.5653
20.396	63.5997
20.414	63.635
20.432	63.6714
20.45	63.7076
20.468	63.7429
20.486	63.7774
20.504	63.8103
20.522	63.8417
20.54	63.8718
20.558	63.9004
20.576	63.9281
20.594	63.9552
20.612	63.9818
20.63	64.0088
20.648	64.0359
20.666	64.0637
20.684	64.0924
20.702	64.1218
20.72	64.1521
20.738	64.1831
20.756	64.2139
20.774	64.2449
20.792	64.2746
20.81	64.3028
20.828	64.3289
20.846	64.3514
20.864	64.3708
20.882	64.3858
20.9	64.3963
20.918	64.4022
20.936	64.403
20.954	64.3992
20.972	64.3914
20.99	64.3793
21.008	64.3643
21.026	64.3467
21.044	64.327
21.062	64.3073
21.08	64.2869
21.098	64.2677
21.116	64.2501
21.134	64.2344
21.152	64.2218
21.17	64.2119
21.188	64.2055
21.206	64.2027
21.224	64.2033
21.242	64.2073
21.26	64.2147
21.278	64.2249
21.296	64.2378
21.314	64.2531
21.332	64.2697
21.35	64.288
21.368	64.3067
21.386	64.3258
21.404	64.3447
21.422	64.3623
21.44	64.3789
21.458	64.3937
21.476	64.4061
21.494	64.4163
21.512	64.4235
21.53	64.4277
21.548	64.4287
21.566	64.426
21.584	64.4198
21.602	64.4097
21.62	64.3958
21.638	64.378
21.656	64.3565
21.674	64.331
21.692	64.3021
21.71	64.2695
21.728	64.2335
21.746	64.195
21.764	64.1535
21.782	64.1098
21.8	64.0646
21.818	64.0174
21.836	63.9695
21.854	63.9208
21.872	63.8717
21.89	63.8231
21.908	63.7745
21.926	63.727
21.944	63.681
21.962	63.6364
21.98	63.594
21.998	63.5538
22.016	63.5159
22.034	63.4809
22.052	63.4485
22.07	63.4191
22.088	63.3926
22.106	63.3691
22.124	63.3484
22.142	63.3308
22.16	63.3159
22.178	63.3035
22.196	63.2937
22.214	63.2861
22.232	63.2801
22.25	63.2763
22.268	63.2735
22.286	63.2713
22.304	63.2699
22.322	63.2681
22.34	63.2656
22.358	63.2624
22.376	63.2568
22.394	63.2494
22.412	63.2394
22.43	63.2259
22.448	63.2093
22.466	63.189
22.484	63.1644
22.502	63.1358
22.52	63.1034
22.538	63.0669
22.556	63.0264
22.574	62.9836
22.592	62.938
22.61	62.8903
22.628	62.843
22.646	62.7953
22.664	62.7486
22.682	62.7059
22.7	62.6659
22.718	62.6305
22.736	62.6022
22.754	62.5798
22.772	62.5649
22.79	62.5594
22.808	62.5624
22.826	62.5744
22.844	62.5958
22.862	62.6265
22.88	62.6655
22.898	62.7129
22.916	62.7687
22.934	62.8299
22.952	62.8963
22.97	62.9681
22.988	63.0402
23.006	63.1126
23.024	63.1853
23.042	63.2526
23.06	63.3146
23.078	63.3712
23.096	63.418
23.114	63.4549
23.132	63.4823
23.15	63.4973
23.168	63.4998
23.186	63.4903
23.204	63.468
23.222	63.4322
23.24	63.3841
23.258	63.3255
23.276	63.2554
23.294	63.1752
23.312	63.0887
23.33	62.9946
23.348	62.8944
23.366	62.7932
23.384	62.6899
23.402	62.5857
23.42	62.4863
23.438	62.3916
23.456	62.3014
23.474	62.2202
23.492	62.1489
23.51	62.0864
23.528	62.0342
23.546	61.9931
23.564	61.9623
23.582	61.9417
23.6	61.9315
23.618	61.9315
23.636	61.9406
23.654	61.9584
23.672	61.9855
23.69	62.0195
23.708	62.0592
23.726	62.1059
23.744	62.157
23.762	62.2102
23.78	62.2666
23.798	62.3254
23.816	62.3851
23.834	62.4458
23.852	62.508
23.87	62.5718
23.888	62.6367
23.906	62.7035
23.924	62.7732
23.942	62.8456
23.96	62.9208
23.978	63.0002
23.996	63.0843
24.014	63.1724
24.032	63.2658
24.05	63.3654
24.068	63.4707
24.086	63.5813
24.104	63.697
24.122	63.8184
24.14	63.9444
24.158	64.0737
24.176	64.2077
24.194	64.3448
24.212	64.4813
24.23	64.6176
24.248	64.7542
24.266	64.8853
24.284	65.0085
24.302	65.1273
24.32	65.2349
24.338	65.3249
24.356	65.4017
24.374	65.4617
24.392	65.4983
24.41	65.5131
24.428	65.5061
24.446	65.4716
24.464	65.4075
24.482	65.3166
24.5	65.1955
24.518	65.0411
24.536	64.8549
24.554	64.6372
24.572	64.3881
24.59	64.1063
24.608	63.7933
24.626	63.4522
24.644	63.0829
24.662	62.6836
24.68	62.2618
24.698	61.8244
24.716	61.3651
24.734	60.8902
24.752	60.4104
24.77	59.9231
24.788	59.4273
24.806	58.938
24.824	58.4646
24.842	57.9963
24.86	57.5454
24.878	57.1275
24.896	56.7355
24.914	56.3719
24.932	56.053
24.95	55.7869
24.968	55.5632
24.986	55.3933
25.004	55.2894
25.022	55.2461
25.04	55.2644
25.058	55.3526
25.076	55.5155
25.094	55.7484
25.112	56.0519
25.13	56.4271
25.148	56.8766
25.166	57.3961
25.184	57.9795
25.202	58.6263
25.22	59.3412
25.238	60.1113
25.256	60.9235
25.274	61.7867
25.292	62.6959
25.31	63.6341
25.328	64.5932
25.346	65.5854
25.364	66.5955
25.382	67.6059
25.4	68.622
25.418	69.6448
25.436	70.6586
25.454	71.6515
25.472	72.6352
25.49	73.6012
25.508	74.5366
25.526	75.4398
25.544	76.3168
25.562	77.158
25.58	77.9542
25.598	78.7112
25.616	79.4272
25.634	80.0943
25.652	80.7079
25.67	81.2744
25.688	81.7886
25.706	82.244
25.724	82.6414
25.742	82.9835
25.76	83.264
25.778	83.4773
25.796	83.6272
25.814	83.713
25.832	83.7308
25.85	83.6781
25.868	83.5579
25.886	83.369
25.904	83.1096
25.922	82.7788
25.94	82.378
25.958	81.9083
25.976	81.3711
25.994	80.7637
26.012	80.0883
26.03	79.3504
26.048	78.5543
26.066	77.6919
26.084	76.7711
26.102	75.8048
26.12	74.7998
26.138	73.7428
26.156	72.6487
26.174	71.5358
26.192	70.4074
26.21	69.2502
26.228	68.0845
26.246	66.9317
26.264	65.7876
26.282	64.6444
26.3	63.524
26.318	62.4478
26.336	61.4046
26.354	60.3938
26.372	59.4345
26.39	58.5446
26.408	57.7115
26.426	56.9376
26.444	56.2364
26.462	55.6193
26.48	55.0777
26.498	54.6127
26.516	54.2297
26.534	53.9336
26.552	53.7226
26.57	53.5934
26.588	53.5427
26.606	53.5704
26.624	53.6822
26.642	53.8684
26.66	54.1175
26.678	54.4251
26.696	54.8036
26.714	55.2384
26.732	55.7124
26.75	56.2187
26.768	56.7724
26.786	57.359
26.804	57.9616
26.822	58.5745
26.84	59.2135
26.858	59.8618
26.876	60.5005
26.894	61.123
26.912	61.7478
26.93	62.3559
26.948	62.9259
26.966	63.4569
26.984	63.9814
27.002	64.4515
27.02	64.8131
27.028	64.9133