File: Bakgrunnsmateriale/MATLAB/FTIR/ftir_data/subAa/Mapping_121/BZ1503107-1_t08.asc
PE IR       SPECTRUM    SPECTRUM    ASCII       PEDS        1.60
  -1
BZ1965~1.ASC
17/04/07
13:52:49.00
17/04/07
13:53:15.00
tln
$BZ1503107-1_t0008$<tbV0>[-5.2,-13.0,8.0,0.0,27,1,0]
27.028
64

2002,4.07
MIRTGS : RIGHTBACK : INTERNAL 2
MIR : ON : INTERNAL 2
OPTKBR

0.200000
8
8.000000
FILLER
RATIO
SPECTRUM
UNLOCKED 256

DOUBLE
64
COMBINED
1
0
0

0.002000
RATIO

1
0
TRUE
51149
0
LEFT NOT FITTED RIGHT NOT FITTED 0
NONE
NONE
15600
12
4.427000
51148
TRUE
1 0 8 72 0 0 0 0

15798

#HDR
-1
-1
#GR
µM
%T
2.38419e-05
0.0
2.000000
0.002000
12515
8
85.573
44.0173
#DATA
2.000000	 61.9254
2.018000	 63.0522
2.036000	 62.1057
2.054000	 62.8432
2.072000	 63.2625
2.090000	 63.3902
2.108000	 63.2451
2.126000	 62.6739
2.144000	 63.1461
2.162000	 62.5605
2.180000	 62.9336
2.198000	 62.1993
2.216000	 62.4057
2.234000	 65.6126
2.252000	 76.5923
2.270000	 63.5074
2.288000	 62.9438
2.306000	 62.9038
2.324000	 63.1072
2.342000	 63.3177
2.360000	 63.4826
2.378000	 63.5877
2.396000	 63.7323
2.414000	 63.6066
2.432000	 63.8165
2.450000	 63.7731
2.468000	 63.7321
2.486000	 63.4312
2.504000	 63.4203
2.522000	 63.8081
2.540000	 63.5061
2.558000	 63.5218
2.576000	 63.4171
2.594000	 63.6221
2.612000	 63.806
2.630000	 63.6721
2.648000	 63.6257
2.666000	 63.9589
2.684000	 63.721
2.702000	 63.9208
2.720000	 64.1286
2.738000	 63.8119
2.756000	 63.7837
2.774000	 63.9021
2.792000	 63.7749
2.810000	 63.6856
2.828000	 63.6445
2.846000	 63.6554
2.864000	 63.7792
2.882000	 63.63
2.900000	 63.6768
2.918000	 63.8341
2.936000	 63.7658
2.954000	 63.6961
2.972000	 63.8427
2.990000	 63.6878
3.008000	 63.6886
3.026000	 63.7952
3.044000	 63.7925
3.062000	 63.8563
3.080000	 63.7004
3.098000	 63.6989
3.116000	 63.9904
3.134000	 63.8996
3.152000	 63.8204
3.170000	 63.8129
3.188000	 63.7989
3.206000	 63.7714
3.224000	 63.8682
3.242000	 63.8324
3.260000	 63.9683
3.278000	 63.8406
3.296000	 63.9621
3.314000	 64.1114
3.332000	 63.8151
3.350000	 63.7657
3.368000	 63.7803
3.386000	 63.5803
3.404000	 63.8071
3.422000	 63.6724
3.440000	 63.5991
3.458000	 63.8798
3.476000	 63.7845
3.494000	 63.8363
3.512000	 63.8421
3.530000	 63.9656
3.548000	 63.867
3.566000	 63.8434
3.584000	 63.8586
3.602000	 63.9454
3.620000	 63.9846
3.638000	 63.9924
3.656000	 64.0521
3.674000	 63.9968
3.692000	 63.9622
3.710000	 64.0438
3.728000	 63.9682
3.746000	 63.8528
3.764000	 64.0002
3.782000	 63.9619
3.800000	 63.9603
3.818000	 64.0252
3.836000	 63.9987
3.854000	 64.0553
3.872000	 64.0664
3.890000	 64.0275
3.908000	 64.0014
3.926000	 64.0059
3.944000	 64.0441
3.962000	 64.0435
3.980000	 64.0753
3.998000	 63.8853
4.016000	 64.0258
4.034000	 64.0183
4.052000	 64.048
4.070000	 64.0861
4.088000	 64.01
4.106000	 64.0089
4.124000	 63.9165
4.141999	 64.0439
4.160000	 63.9542
4.178000	 64.023
4.196000	 64.0421
4.214000	 64.1294
4.232000	 64.0305
4.250000	 64.0302
4.268000	 64.0644
4.286000	 64.1506
4.304000	 64.0934
4.322000	 64.0892
4.340000	 64.0159
4.358000	 64.0464
4.375999	 63.9613
4.394000	 63.939
4.412000	 63.9822
4.430000	 64.1277
4.448000	 64.1475
4.466000	 64.1162
4.484000	 64.0639
4.502000	 63.9892
4.520000	 63.9723
4.538000	 64.0473
4.556000	 64.1123
4.574000	 64.0469
4.592000	 64.0845
4.609999	 64.1562
4.628000	 63.9606
4.646000	 63.9111
4.664000	 64.0514
4.682000	 64.0627
4.700000	 64.1305
4.718000	 64.0894
4.736000	 64.0877
4.754000	 64.1237
4.772000	 64.0846
4.790000	 64.1668
4.808000	 64.0631
4.826000	 64.0757
4.843999	 64.047
4.862000	 64.0975
4.880000	 64.2508
4.898000	 64.1381
4.916000	 64.0322
4.934000	 64.0443
4.952000	 64.0254
4.970000	 64.2032
4.988000	 64.2748
5.006000	 64.1546
5.024000	 64.1258
5.042000	 64.1572
5.060000	 64.1618
5.077999	 64.1269
5.096000	 64.2163
5.114000	 64.185
5.132000	 64.075
5.150000	 64.0875
5.168000	 64.0901
5.186000	 64.0289
5.204000	 64.0294
5.222000	 64.1726
5.240000	 64.1688
5.258000	 64.156
5.276000	 64.1271
5.294000	 64.0216
5.312000	 64.0227
5.330000	 64.1215
5.348000	 64.129
5.366000	 64.1284
5.384000	 64.1079
5.402000	 64.1641
5.420000	 64.1654
5.438000	 64.0887
5.456000	 64.1033
5.474000	 64.1252
5.492000	 64.1629
5.510000	 64.1717
5.528000	 64.1333
5.546000	 64.1539
5.564000	 64.1679
5.582000	 64.1838
5.600000	 64.072
5.618000	 64.0379
5.636000	 64.1802
5.654000	 64.2579
5.672000	 64.1704
5.690000	 64.0501
5.708000	 63.968
5.726000	 63.8918
5.744000	 63.8712
5.762000	 63.8671
5.780000	 63.7707
5.798000	 63.8118
5.816000	 64.0117
5.834000	 64.0007
5.852000	 63.9549
5.870000	 64.0442
5.888000	 63.9875
5.906000	 63.8739
5.923999	 63.9193
5.942000	 64.0306
5.960000	 64.1676
5.978000	 64.1121
5.996000	 63.9811
6.014000	 63.906
6.032000	 63.9944
6.050000	 64.1476
6.068000	 64.0439
6.086000	 63.9221
6.104000	 63.8671
6.122000	 63.9278
6.140000	 64.031
6.158000	 64.0241
6.176000	 64.0161
6.194000	 64.0071
6.212000	 63.9535
6.230000	 64.023
6.248000	 64.0594
6.266000	 64.0479
6.284000	 64.0653
6.302000	 64.0112
6.320000	 63.9873
6.338000	 64.0467
6.356000	 64.061
6.374000	 63.981
6.392000	 63.91
6.410000	 64.0313
6.428000	 64.1617
6.446000	 64.1236
6.464000	 64.0728
6.482000	 64.0687
6.500000	 64.0208
6.518000	 63.9515
6.536000	 63.9604
6.554000	 63.9772
6.572000	 63.9944
6.590000	 64.0427
6.608000	 64.116
6.626000	 64.1651
6.644000	 64.1731
6.662000	 64.2192
6.680000	 64.2491
6.698000	 64.1496
6.716000	 64.0585
6.734000	 64.0497
6.752000	 64.0434
6.770000	 64.036
6.788000	 64.0126
6.806000	 63.9804
6.824000	 63.9894
6.842000	 64.0433
6.860000	 64.0565
6.878000	 63.9548
6.896000	 63.8704
6.914000	 63.9003
6.932000	 64.0053
6.950000	 64.1251
6.968000	 64.1427
6.986000	 64.07
7.004000	 64.0231
7.022000	 64.0304
7.040000	 64.0366
7.058000	 63.9927
7.076000	 63.9329
7.094000	 63.8997
7.112000	 63.8765
7.130000	 63.8681
7.148000	 63.8837
7.166000	 63.8956
7.184000	 63.8926
7.202000	 63.8678
7.220000	 63.8092
7.238000	 63.7544
7.256000	 63.7549
7.274000	 63.8065
7.292000	 63.8668
7.310000	 63.9144
7.328000	 63.9436
7.346000	 63.9576
7.364000	 63.9883
7.382000	 64.032
7.400000	 64.0288
7.418000	 63.9909
7.436000	 63.998
7.454000	 64.0538
7.472000	 64.087
7.490000	 64.0549
7.508000	 63.9843
7.526000	 63.945
7.544000	 63.9546
7.562000	 63.952
7.580000	 63.8963
7.598000	 63.8205
7.616000	 63.7702
7.634000	 63.7558
7.652000	 63.7737
7.670000	 63.8144
7.688000	 63.8424
7.706000	 63.829
7.724000	 63.8091
7.742000	 63.8337
7.760000	 63.8763
7.778000	 63.8709
7.796000	 63.8216
7.814000	 63.7882
7.832000	 63.7854
7.850000	 63.7772
7.868000	 63.7528
7.886000	 63.7407
7.904000	 63.7573
7.922000	 63.7742
7.940000	 63.7531
7.958000	 63.701
7.976000	 63.6584
7.994000	 63.6345
8.012000	 63.6047
8.030000	 63.576
8.048000	 63.5867
8.065999	 63.6362
8.084000	 63.6796
8.102000	 63.6926
8.120000	 63.6937
8.138000	 63.6997
8.155999	 63.7046
8.173999	 63.7012
8.192000	 63.6942
8.210000	 63.6894
8.228000	 63.6855
8.246000	 63.6816
8.263999	 63.6834
8.282000	 63.7003
8.300000	 63.734
8.318000	 63.768
8.336000	 63.7753
8.353999	 63.7489
8.372000	 63.7172
8.390000	 63.7134
8.408000	 63.7381
8.426000	 63.7615
8.443999	 63.7574
8.462000	 63.7293
8.480000	 63.7053
8.498000	 63.7107
8.516000	 63.7456
8.533999	 63.7822
8.552000	 63.7845
8.570000	 63.7378
8.588000	 63.6627
8.606000	 63.6027
8.624000	 63.5882
8.641999	 63.6151
8.660000	 63.6599
8.678000	 63.7012
8.696000	 63.7246
8.714000	 63.7317
8.731999	 63.7474
8.750000	 63.7966
8.768000	 63.8659
8.786000	 63.9087
8.804000	 63.8943
8.821999	 63.8416
8.840000	 63.7992
8.858000	 63.7971
8.876000	 63.8297
8.894000	 63.8808
8.911999	 63.944
8.930000	 64.0095
8.948000	 64.0553
8.966000	 64.0663
8.984000	 64.0398
9.001999	 63.9738
9.020000	 63.875
9.038000	 63.775
9.056000	 63.72
9.074000	 63.7349
9.092000	 63.8061
9.109999	 63.8978
9.128000	 63.9768
9.146000	 64.0225
9.164000	 64.0273
9.182000	 64.0054
9.199999	 63.9879
9.218000	 63.9955
9.236000	 64.0139
9.254000	 64.0044
9.272000	 63.9457
9.289999	 63.8567
9.308000	 63.7759
9.326000	 63.7255
9.344000	 63.705
9.362000	 63.7079
9.379999	 63.7338
9.398000	 63.7804
9.416000	 63.8385
9.434000	 63.8942
9.452000	 63.9371
9.469999	 63.9633
9.488000	 63.9706
9.506000	 63.9566
9.524000	 63.9231
9.542000	 63.8782
9.560000	 63.8342
9.577999	 63.7998
9.596000	 63.7788
9.614000	 63.7708
9.632000	 63.7746
9.650000	 63.7918
9.667999	 63.8221
9.686000	 63.8567
9.704000	 63.8773
9.722000	 63.8682
9.740000	 63.8311
9.757999	 63.7882
9.776000	 63.767
9.794000	 63.7797
9.812000	 63.8137
9.830000	 63.8434
9.847999	 63.8512
9.866000	 63.8372
9.884000	 63.8125
9.902000	 63.7885
9.920000	 63.7701
9.937999	 63.7566
9.956000	 63.7457
9.974000	 63.7368
9.992000	 63.7316
10.01	63.7329
10.028	63.7424
10.046	63.759
10.064	63.78
10.082	63.8026
10.1	63.8246
10.118	63.8438
10.136	63.8572
10.154	63.86
10.172	63.8494
10.19	63.8275
10.208	63.8015
10.226	63.7794
10.244	63.7668
10.262	63.7648
10.28	63.772
10.298	63.7861
10.316	63.8035
10.334	63.8204
10.352	63.8339
10.37	63.8434
10.388	63.8526
10.406	63.8668
10.424	63.8898
10.442	63.9207
10.46	63.9548
10.478	63.9869
10.496	64.0141
10.514	64.0366
10.532	64.0563
10.55	64.0742
10.568	64.0909
10.586	64.106
10.604	64.1192
10.622	64.1303
10.64	64.1388
10.658	64.1423
10.676	64.1378
10.694	64.1229
10.712	64.0971
10.73	64.0628
10.748	64.0239
10.766	63.9853
10.784	63.9514
10.802	63.9265
10.82	63.914
10.838	63.9168
10.856	63.9376
10.874	63.9771
10.892	64.0314
10.91	64.091
10.928	64.1422
10.946	64.1708
10.964	64.1689
10.982	64.1378
11	64.0883
11.018	64.037
11.036	63.9981
11.054	63.9797
11.072	63.98
11.09	63.9897
11.108	63.9968
11.126	63.99
11.144	63.9631
11.162	63.9164
11.18	63.8566
11.198	63.7955
11.216	63.746
11.234	63.7186
11.252	63.7178
11.27	63.7399
11.288	63.7749
11.306	63.8111
11.324	63.8404
11.342	63.8618
11.36	63.881
11.378	63.9054
11.396	63.9385
11.414	63.978
11.432	64.016
11.45	64.0448
11.468	64.0607
11.486	64.0662
11.504	64.068
11.522	64.0721
11.54	64.0798
11.558	64.0858
11.576	64.0813
11.594	64.059
11.612	64.0174
11.63	63.9633
11.648	63.9091
11.666	63.8684
11.684	63.8509
11.702	63.8596
11.72	63.8902
11.738	63.9342
11.756	63.9825
11.774	64.0277
11.792	64.0658
11.81	64.0955
11.828	64.1168
11.846	64.1298
11.864	64.135
11.882	64.1326
11.9	64.1236
11.918	64.1095
11.936	64.0912
11.954	64.0682
11.972	64.0382
11.99	63.9987
12.008	63.9483
12.026	63.8888
12.044	63.8258
12.062	63.7687
12.08	63.7271
12.098	63.7082
12.116	63.7135
12.134	63.738
12.152	63.7715
12.17	63.8033
12.188	63.8256
12.206	63.8355
12.224	63.8356
12.242	63.8317
12.26	63.8295
12.278	63.8327
12.296	63.8416
12.314	63.8544
12.332	63.8676
12.35	63.8776
12.368	63.8815
12.386	63.878
12.404	63.8678
12.422	63.8534
12.44	63.8387
12.458	63.8276
12.476	63.8229
12.494	63.8254
12.512	63.8332
12.53	63.8426
12.548	63.849
12.566	63.8487
12.584	63.8401
12.602	63.8245
12.62	63.8062
12.638	63.7914
12.656	63.7865
12.674	63.7959
12.692	63.8211
12.71	63.8599
12.728	63.9072
12.746	63.9564
12.764	64.0007
12.782	64.0347
12.8	64.0558
12.818	64.0639
12.836	64.0616
12.854	64.0524
12.872	64.0401
12.89	64.0272
12.908	64.0153
12.926	64.0041
12.944	63.993
12.962	63.9809
12.98	63.9675
12.998	63.9532
13.016	63.9388
13.034	63.9252
13.052	63.9128
13.07	63.901
13.088	63.8885
13.106	63.8736
13.124	63.8551
13.142	63.8327
13.16	63.8075
13.178	63.782
13.196	63.7595
13.214	63.7436
13.232	63.737
13.25	63.7407
13.268	63.7542
13.286	63.775
13.304	63.8001
13.322	63.8259
13.34	63.8491
13.358	63.8672
13.376	63.8785
13.394	63.8823
13.412	63.8785
13.43	63.8676
13.448	63.8501
13.466	63.8273
13.484	63.8004
13.502	63.7712
13.52	63.7414
13.538	63.7135
13.556	63.6899
13.574	63.6733
13.592	63.6663
13.61	63.6708
13.628	63.6882
13.646	63.7181
13.664	63.7592
13.682	63.8085
13.7	63.8619
13.718	63.9149
13.736	63.9628
13.754	64.0018
13.772	64.0296
13.79	64.0453
13.808	64.0504
13.826	64.0477
13.844	64.0407
13.862	64.033
13.88	64.0274
13.898	64.0252
13.916	64.0265
13.934	64.0297
13.952	64.0328
13.97	64.0333
13.988	64.029
14.006	64.0186
14.024	64.0021
14.042	63.9807
14.06	63.9565
14.078	63.9322
14.096	63.9105
14.114	63.8937
14.132	63.8834
14.15	63.8801
14.168	63.8833
14.186	63.8912
14.204	63.9019
14.222	63.9127
14.24	63.9212
14.258	63.9253
14.276	63.9236
14.294	63.9155
14.312	63.9012
14.33	63.8815
14.348	63.8578
14.366	63.8316
14.384	63.8045
14.402	63.7776
14.42	63.7515
14.438	63.7264
14.456	63.7023
14.474	63.6788
14.492	63.6557
14.51	63.6327
14.528	63.6099
14.546	63.5872
14.564	63.5651
14.582	63.5436
14.6	63.5229
14.618	63.5031
14.636	63.4841
14.654	63.4661
14.672	63.4494
14.69	63.4347
14.708	63.4229
14.726	63.4154
14.744	63.4135
14.762	63.4187
14.78	63.4319
14.798	63.4535
14.816	63.4831
14.834	63.5196
14.852	63.561
14.87	63.6049
14.888	63.6489
14.906	63.6909
14.924	63.7293
14.942	63.7628
14.96	63.7913
14.978	63.815
14.996	63.834
15.014	63.8489
15.032	63.8599
15.05	63.8669
15.068	63.8693
15.086	63.8663
15.104	63.8571
15.122	63.841
15.14	63.8177
15.158	63.7874
15.176	63.7509
15.194	63.7098
15.212	63.6667
15.23	63.6244
15.248	63.5856
15.266	63.5531
15.284	63.5297
15.302	63.5172
15.32	63.5165
15.338	63.5277
15.356	63.55
15.374	63.5816
15.392	63.6201
15.41	63.6628
15.428	63.7066
15.446	63.7481
15.464	63.7847
15.482	63.8142
15.5	63.8351
15.518	63.8468
15.536	63.8498
15.554	63.8452
15.572	63.8344
15.59	63.8196
15.608	63.8028
15.626	63.7855
15.644	63.7695
15.662	63.7555
15.68	63.7441
15.698	63.7354
15.716	63.7295
15.734	63.7263
15.752	63.7258
15.77	63.7282
15.788	63.7338
15.806	63.7429
15.824	63.7557
15.842	63.7724
15.86	63.7927
15.878	63.8163
15.896	63.8425
15.914	63.8701
15.932	63.8979
15.95	63.9248
15.968	63.9496
15.986	63.971
16.004	63.9883
16.022	64.0009
16.04	64.0087
16.058	64.0118
16.076	64.0104
16.094	64.0052
16.112	63.9963
16.13	63.984
16.148	63.9687
16.166	63.9503
16.184	63.9289
16.202	63.9043
16.22	63.8767
16.238	63.8462
16.256	63.8131
16.274	63.7782
16.292	63.7423
16.31	63.7061
16.328	63.6715
16.346	63.6398
16.364	63.6122
16.382	63.5907
16.4	63.5761
16.418	63.5691
16.436	63.5705
16.454	63.5799
16.472	63.597
16.49	63.6207
16.508	63.6493
16.526	63.6815
16.544	63.7147
16.562	63.7469
16.58	63.7764
16.598	63.8012
16.616	63.8205
16.634	63.8337
16.652	63.8411
16.67	63.8435
16.688	63.8415
16.706	63.8371
16.724	63.8312
16.742	63.8252
16.76	63.8206
16.778	63.8181
16.796	63.8184
16.814	63.821
16.832	63.8258
16.85	63.8315
16.868	63.8371
16.886	63.8419
16.904	63.8445
16.922	63.8447
16.94	63.8415
16.958	63.8356
16.976	63.8276
16.994	63.8186
17.012	63.8107
17.03	63.8051
17.048	63.8051
17.066	63.8118
17.084	63.8274
17.102	63.8531
17.12	63.8894
17.138	63.936
17.156	63.9911
17.174	64.0536
17.192	64.1186
17.21	64.1839
17.228	64.2437
17.246	64.2936
17.264	64.3305
17.282	64.3488
17.3	64.3474
17.318	64.323
17.336	64.2766
17.354	64.2079
17.372	64.1211
17.39	64.0187
17.408	63.907
17.426	63.7928
17.444	63.68
17.462	63.5792
17.48	63.4932
17.498	63.4305
17.516	63.394
17.534	63.3875
17.552	63.4124
17.57	63.4689
17.588	63.5549
17.606	63.6674
17.624	63.8022
17.642	63.9519
17.66	64.1136
17.678	64.277
17.696	64.4398
17.714	64.5934
17.732	64.7348
17.75	64.8595
17.768	64.965
17.786	65.0499
17.804	65.1141
17.822	65.158
17.84	65.1836
17.858	65.193
17.876	65.1887
17.894	65.1738
17.912	65.1496
17.93	65.1192
17.948	65.0829
17.966	65.0423
17.984	64.997
18.002	64.9473
18.02	64.8921
18.038	64.8308
18.056	64.7619
18.074	64.685
18.092	64.5992
18.11	64.5047
18.128	64.4026
18.146	64.2938
18.164	64.1805
18.182	64.0651
18.2	63.9504
18.218	63.8399
18.236	63.7355
18.254	63.6421
18.272	63.5608
18.29	63.4951
18.308	63.4453
18.326	63.4136
18.344	63.3999
18.362	63.4039
18.38	63.425
18.398	63.462
18.416	63.5137
18.434	63.5784
18.452	63.6544
18.47	63.7408
18.488	63.8356
18.506	63.9379
18.524	64.046
18.542	64.1596
18.56	64.277
18.578	64.3982
18.596	64.5209
18.614	64.645
18.632	64.7676
18.65	64.8883
18.668	65.0027
18.686	65.1103
18.704	65.206
18.722	65.2891
18.74	65.3537
18.758	65.3994
18.776	65.4216
18.794	65.42
18.812	65.391
18.83	65.3352
18.848	65.2514
18.866	65.1408
18.884	65.0041
18.902	64.8437
18.92	64.6622
18.938	64.4629
18.956	64.2499
18.974	64.0269
18.992	63.7993
19.01	63.5705
19.028	63.3464
19.046	63.1298
19.064	62.9264
19.082	62.7381
19.1	62.5701
19.118	62.4234
19.136	62.3021
19.154	62.206
19.172	62.1371
19.19	62.0948
19.208	62.0793
19.226	62.0893
19.244	62.1224
19.262	62.1775
19.28	62.2506
19.298	62.3411
19.316	62.443
19.334	62.5564
19.352	62.6756
19.37	62.8009
19.388	62.9265
19.406	63.0526
19.424	63.1755
19.442	63.2952
19.46	63.4094
19.478	63.5176
19.496	63.6194
19.514	63.7143
19.532	63.8026
19.55	63.8841
19.568	63.959
19.586	64.0275
19.604	64.0897
19.622	64.1457
19.64	64.1953
19.658	64.238
19.676	64.2739
19.694	64.3022
19.712	64.3231
19.73	64.3352
19.748	64.3386
19.766	64.3326
19.784	64.3168
19.802	64.2914
19.82	64.2559
19.838	64.2111
19.856	64.1576
19.874	64.0959
19.892	64.0289
19.91	63.9563
19.928	63.8833
19.946	63.809
19.964	63.7392
19.982	63.674
20	63.6175
20.018	63.5718
20.036	63.5378
20.054	63.5188
20.072	63.514
20.09	63.5246
20.108	63.5507
20.126	63.59
20.144	63.6434
20.162	63.7067
20.18	63.7792
20.198	63.8578
20.216	63.938
20.234	64.0199
20.252	64.0961
20.27	64.1678
20.288	64.2293
20.306	64.2803
20.324	64.3188
20.342	64.3428
20.36	64.3527
20.378	64.347
20.396	64.3261
20.414	64.2916
20.432	64.243
20.45	64.1832
20.468	64.1126
20.486	64.0332
20.504	63.9493
20.522	63.86
20.54	63.7717
20.558	63.6833
20.576	63.6001
20.594	63.5239
20.612	63.4561
20.63	63.4015
20.648	63.359
20.666	63.3327
20.684	63.3225
20.702	63.3298
20.72	63.3568
20.738	63.4022
20.756	63.4657
20.774	63.5478
20.792	63.6447
20.81	63.7574
20.828	63.8819
20.846	64.0135
20.864	64.1532
20.882	64.2916
20.9	64.4306
20.918	64.5628
20.936	64.6832
20.954	64.7922
20.972	64.8803
20.99	64.9492
21.008	64.9939
21.026	65.0115
21.044	65.003
21.062	64.9661
21.08	64.9008
21.098	64.8106
21.116	64.6947
21.134	64.5568
21.152	64.4035
21.17	64.2324
21.188	64.055
21.206	63.8714
21.224	63.6864
21.242	63.5103
21.26	63.3398
21.278	63.1856
21.296	63.0492
21.314	62.9322
21.332	62.8415
21.35	62.7753
21.368	62.7359
21.386	62.7253
21.404	62.7414
21.422	62.7829
21.44	62.8507
21.458	62.9397
21.476	63.0488
21.494	63.1768
21.512	63.3156
21.53	63.4677
21.548	63.6263
21.566	63.7865
21.584	63.9499
21.602	64.1077
21.62	64.2608
21.638	64.4062
21.656	64.5383
21.674	64.6593
21.692	64.7653
21.71	64.8549
21.728	64.9288
21.746	64.9848
21.764	65.0232
21.782	65.0446
21.8	65.0487
21.818	65.0358
21.836	65.008
21.854	64.9649
21.872	64.9077
21.89	64.8392
21.908	64.7581
21.926	64.6672
21.944	64.5682
21.962	64.4603
21.98	64.347
21.998	64.2279
22.016	64.1042
22.034	63.9791
22.052	63.8515
22.07	63.7236
22.088	63.5975
22.106	63.472
22.124	63.3504
22.142	63.233
22.16	63.12
22.178	63.0141
22.196	62.9146
22.214	62.8227
22.232	62.7401
22.25	62.6661
22.268	62.602
22.286	62.5486
22.304	62.5053
22.322	62.4731
22.34	62.4524
22.358	62.4425
22.376	62.4432
22.394	62.455
22.412	62.4767
22.43	62.507
22.448	62.5467
22.466	62.5938
22.484	62.6471
22.502	62.7073
22.52	62.772
22.538	62.8403
22.556	62.9127
22.574	62.9864
22.592	63.0614
22.61	63.1374
22.628	63.2125
22.646	63.287
22.664	63.3605
22.682	63.4315
22.7	63.5005
22.718	63.5672
22.736	63.6314
22.754	63.6929
22.772	63.7523
22.79	63.8099
22.808	63.8655
22.826	63.9201
22.844	63.9744
22.862	64.028
22.88	64.0821
22.898	64.1371
22.916	64.1926
22.934	64.2497
22.952	64.3087
22.97	64.3693
22.988	64.4319
23.006	64.4967
23.024	64.5634
23.042	64.6318
23.06	64.702
23.078	64.7737
23.096	64.8465
23.114	64.9205
23.132	64.9954
23.15	65.0701
23.168	65.1451
23.186	65.2199
23.204	65.2933
23.222	65.3656
23.24	65.4366
23.258	65.505
23.276	65.5709
23.294	65.6344
23.312	65.6951
23.33	65.753
23.348	65.808
23.366	65.86
23.384	65.9087
23.402	65.9544
23.42	65.9973
23.438	66.0376
23.456	66.075
23.474	66.1094
23.492	66.141
23.51	66.1696
23.528	66.1949
23.546	66.2171
23.564	66.2361
23.582	66.2508
23.6	66.2609
23.618	66.2668
23.636	66.2668
23.654	66.2603
23.672	66.2479
23.69	66.2282
23.708	66.2
23.726	66.1643
23.744	66.1203
23.762	66.0678
23.78	66.007
23.798	65.9378
23.816	65.8601
23.834	65.7738
23.852	65.6793
23.87	65.5775
23.888	65.4674
23.906	65.3503
23.924	65.2285
23.942	65.1011
23.96	64.9688
23.978	64.8355
23.996	64.7019
24.014	64.5668
24.032	64.4344
24.05	64.3073
24.068	64.1828
24.086	64.0649
24.104	63.957
24.122	63.8564
24.14	63.766
24.158	63.6898
24.176	63.6265
24.194	63.5766
24.212	63.5433
24.23	63.5272
24.248	63.5273
24.266	63.5445
24.284	63.5799
24.302	63.6331
24.32	63.7027
24.338	63.7874
24.356	63.889
24.374	64.0047
24.392	64.1308
24.41	64.2692
24.428	64.4187
24.446	64.5729
24.464	64.7303
24.482	64.8938
24.5	65.0567
24.518	65.2136
24.536	65.3693
24.554	65.519
24.572	65.656
24.59	65.7828
24.608	65.8986
24.626	65.9967
24.644	66.0738
24.662	66.1336
24.68	66.1727
24.698	66.1877
24.716	66.1794
24.734	66.149
24.752	66.0971
24.77	66.0223
24.788	65.9254
24.806	65.8109
24.824	65.6814
24.842	65.5331
24.86	65.3717
24.878	65.2043
24.896	65.0276
24.914	64.8431
24.932	64.6587
24.95	64.4779
24.968	64.2954
24.986	64.1191
25.004	63.9574
25.022	63.8077
25.04	63.6698
25.058	63.5477
25.076	63.4442
25.094	63.3574
25.112	63.2857
25.13	63.2279
25.148	63.1879
25.166	63.1614
25.184	63.1407
25.202	63.1237
25.22	63.1157
25.238	63.1066
25.256	63.0857
25.274	63.0602
25.292	63.0265
25.31	62.9715
25.328	62.8885
25.346	62.7867
25.364	62.6563
25.382	62.4858
25.4	62.2759
25.418	62.0297
25.436	61.7432
25.454	61.4122
25.472	61.0363
25.49	60.6208
25.508	60.1715
25.526	59.6877
25.544	59.1673
25.562	58.6187
25.58	58.0499
25.598	57.4541
25.616	56.8355
25.634	56.2049
25.652	55.5676
25.67	54.9144
25.688	54.2563
25.706	53.6061
25.724	52.9638
25.742	52.3245
25.76	51.698
25.778	51.0931
25.796	50.498
25.814	49.9211
25.832	49.3809
25.85	48.8882
25.868	48.4273
25.886	48.0122
25.904	47.6609
25.922	47.3893
25.94	47.1882
25.958	47.0348
25.976	46.9068
25.994	46.8194
26.012	46.7691
26.03	46.725
26.048	46.6605
26.066	46.5945
26.084	46.521
26.102	46.4217
26.12	46.2828
26.138	46.1136
26.156	45.9158
26.174	45.6892
26.192	45.4148
26.21	45.0832
26.228	44.7548
26.246	44.4916
26.264	44.2827
26.282	44.1047
26.3	44.0186
26.318	44.0841
26.336	44.2891
26.354	44.6175
26.372	45.089
26.39	45.7223
26.408	46.5208
26.426	47.4697
26.444	48.5538
26.462	49.7706
26.48	51.1928
26.498	52.7327
26.516	54.2648
26.534	55.6998
26.552	57.1438
26.57	58.5362
26.588	59.78
26.606	60.8026
26.624	61.657
26.642	62.3522
26.66	62.887
26.678	63.2461
26.696	63.4075
26.714	63.4303
26.732	63.3794
26.75	63.2453
26.768	62.9215
26.786	62.5975
26.804	62.4821
26.822	62.6758
26.84	63.0182
26.858	63.6048
26.876	64.5508
26.894	65.9464
26.912	67.7434
26.93	69.8699
26.948	72.2566
26.966	75.0425
26.984	78.5405
27.002	82.0601
27.02	84.8464
27.028	85.573