File: Bakgrunnsmateriale/MATLAB/FTIR/ftir_data/subAa/Mapping_121/BZ1503107-1_t22.asc
PE IR       SPECTRUM    SPECTRUM    ASCII       PEDS        1.60
  -1
BZ2159~1.ASC
17/04/07
14:58:05.00
17/04/07
14:58:31.00
tln
$BZ1503107-1_t0022$<tbV0>[-13.0,-10.4,8.0,0.0,27,1,0]
27.028
64

2002,4.07
MIRTGS : RIGHTBACK : INTERNAL 2
MIR : ON : INTERNAL 2
OPTKBR

0.200000
8
8.000000
FILLER
RATIO
SPECTRUM
UNLOCKED 256

DOUBLE
64
COMBINED
1
0
0

0.002000
RATIO

1
0
TRUE
51149
0
LEFT NOT FITTED RIGHT NOT FITTED 0
NONE
NONE
15600
12
4.427000
51148
TRUE
1 0 8 72 0 0 0 0

15798

#HDR
-1
-1
#GR
µM
%T
2.38419e-05
0.0
2.000000
0.002000
12515
8
109.254
47.2679
#DATA
2.000000	 64.6861
2.018000	 64.9657
2.036000	 64.575
2.054000	 64.5269
2.072000	 65.2294
2.090000	 65.4769
2.108000	 64.7798
2.126000	 64.5032
2.144000	 64.9625
2.162000	 64.8013
2.180000	 64.8473
2.198000	 64.4906
2.216000	 64.7102
2.234000	 67.7844
2.252000	 63.2466
2.270000	 66.7669
2.288000	 64.7359
2.306000	 64.9503
2.324000	 65.1817
2.342000	 64.718
2.360000	 65.1074
2.378000	 64.8985
2.396000	 65.3663
2.414000	 64.9943
2.432000	 65.2635
2.450000	 65.3684
2.468000	 65.3196
2.486000	 65.1836
2.504000	 65.0347
2.522000	 65.2612
2.540000	 64.9562
2.558000	 64.9915
2.576000	 65.2198
2.594000	 65.4961
2.612000	 65.344
2.630000	 65.2142
2.648000	 65.1483
2.666000	 65.391
2.684000	 65.0754
2.702000	 65.2
2.720000	 65.5363
2.738000	 65.2453
2.756000	 65.4006
2.774000	 65.2575
2.792000	 65.3492
2.810000	 65.1256
2.828000	 65.2042
2.846000	 65.2209
2.864000	 64.9793
2.882000	 65.164
2.900000	 65.0782
2.918000	 65.2481
2.936000	 65.0839
2.954000	 65.2222
2.972000	 65.0455
2.990000	 64.9509
3.008000	 65.2764
3.026000	 65.2812
3.044000	 65.1977
3.062000	 65.0815
3.080000	 65.0128
3.098000	 65.0227
3.116000	 65.3217
3.134000	 65.1115
3.152000	 65.2849
3.170000	 65.1855
3.188000	 65.2356
3.206000	 65.0888
3.224000	 65.1138
3.242000	 65.0899
3.260000	 65.207
3.278000	 65.1699
3.296000	 65.2771
3.314000	 65.3241
3.332000	 65.2717
3.350000	 65.0166
3.368000	 65.0252
3.386000	 64.933
3.404000	 64.9849
3.422000	 65.0405
3.440000	 65.1103
3.458000	 65.1395
3.476000	 65.1156
3.494000	 65.0187
3.512000	 65.0914
3.530000	 65.1284
3.548000	 65.096
3.566000	 65.0735
3.584000	 65.0987
3.602000	 65.0911
3.620000	 65.0261
3.638000	 65.153
3.656000	 65.1896
3.674000	 65.2077
3.692000	 65.0672
3.710000	 65.1717
3.728000	 65.1508
3.746000	 65.0915
3.764000	 65.0416
3.782000	 64.987
3.800000	 65.0192
3.818000	 65.0992
3.836000	 64.9817
3.854000	 65.0727
3.872000	 65.1533
3.890000	 65.0843
3.908000	 65.0068
3.926000	 65.0547
3.944000	 65.0354
3.962000	 65.144
3.980000	 65.121
3.998000	 64.9637
4.016000	 65.0346
4.034000	 65.1038
4.052000	 65.0574
4.070000	 64.9534
4.088000	 65.065
4.106000	 65.0683
4.124000	 64.9782
4.141999	 65.1561
4.160000	 65.0079
4.178000	 65.0018
4.196000	 65.0796
4.214000	 65.038
4.232000	 65.0538
4.250000	 65.1105
4.268000	 65.111
4.286000	 65.1216
4.304000	 65.1577
4.322000	 65.0599
4.340000	 64.9791
4.358000	 64.8635
4.375999	 64.882
4.394000	 65.0374
4.412000	 64.9878
4.430000	 65.0051
4.448000	 64.9614
4.466000	 64.9605
4.484000	 64.9382
4.502000	 65.0614
4.520000	 65.0722
4.538000	 65.0467
4.556000	 64.9762
4.574000	 64.8783
4.592000	 64.9201
4.609999	 64.9613
4.628000	 64.8757
4.646000	 64.8346
4.664000	 64.8284
4.682000	 64.8795
4.700000	 64.876
4.718000	 64.8807
4.736000	 64.958
4.754000	 64.9145
4.772000	 64.8487
4.790000	 64.9429
4.808000	 65.0518
4.826000	 64.9178
4.843999	 64.868
4.862000	 64.9409
4.880000	 64.9772
4.898000	 64.9747
4.916000	 64.9751
4.934000	 64.9241
4.952000	 64.8402
4.970000	 64.9098
4.988000	 64.969
5.006000	 64.851
5.024000	 64.8266
5.042000	 64.8811
5.060000	 65.0091
5.077999	 65.026
5.096000	 64.96
5.114000	 64.9552
5.132000	 64.9267
5.150000	 64.9185
5.168000	 64.8497
5.186000	 64.8172
5.204000	 64.8183
5.222000	 64.9572
5.240000	 64.9145
5.258000	 64.8816
5.276000	 64.8841
5.294000	 64.9413
5.312000	 64.8144
5.330000	 64.8716
5.348000	 64.9399
5.366000	 64.9469
5.384000	 64.8204
5.402000	 64.818
5.420000	 64.8871
5.438000	 64.9075
5.456000	 64.8492
5.474000	 64.7951
5.492000	 64.8495
5.510000	 64.8705
5.528000	 64.8223
5.546000	 64.8272
5.564000	 64.8106
5.582000	 64.8032
5.600000	 64.7976
5.618000	 64.8154
5.636000	 64.8313
5.654000	 64.8198
5.672000	 64.7406
5.690000	 64.735
5.708000	 64.826
5.726000	 64.7275
5.744000	 64.5769
5.762000	 64.5351
5.780000	 64.4986
5.798000	 64.5176
5.816000	 64.6859
5.834000	 64.6549
5.852000	 64.6474
5.870000	 64.877
5.888000	 65.0386
5.906000	 64.8475
5.923999	 64.7944
5.942000	 64.8374
5.960000	 64.7582
5.978000	 64.7774
5.996000	 64.8359
6.014000	 64.8055
6.032000	 64.8397
6.050000	 64.8802
6.068000	 64.7122
6.086000	 64.6489
6.104000	 64.7817
6.122000	 64.8087
6.140000	 64.7332
6.158000	 64.7075
6.176000	 64.6845
6.194000	 64.7323
6.212000	 64.8178
6.230000	 64.8345
6.248000	 64.782
6.266000	 64.7348
6.284000	 64.6719
6.302000	 64.5995
6.320000	 64.6123
6.338000	 64.6988
6.356000	 64.7536
6.374000	 64.7541
6.392000	 64.794
6.410000	 64.949
6.428000	 64.8863
6.446000	 64.6741
6.464000	 64.6591
6.482000	 64.8015
6.500000	 64.8259
6.518000	 64.7321
6.536000	 64.677
6.554000	 64.6437
6.572000	 64.6427
6.590000	 64.6579
6.608000	 64.6936
6.626000	 64.7096
6.644000	 64.6793
6.662000	 64.6569
6.680000	 64.6758
6.698000	 64.6673
6.716000	 64.6244
6.734000	 64.6014
6.752000	 64.5726
6.770000	 64.5839
6.788000	 64.6365
6.806000	 64.6584
6.824000	 64.6652
6.842000	 64.681
6.860000	 64.6906
6.878000	 64.6701
6.896000	 64.6038
6.914000	 64.5554
6.932000	 64.6156
6.950000	 64.7133
6.968000	 64.7138
6.986000	 64.6687
7.004000	 64.6426
7.022000	 64.6064
7.040000	 64.586
7.058000	 64.59
7.076000	 64.5693
7.094000	 64.5115
7.112000	 64.4646
7.130000	 64.4813
7.148000	 64.5287
7.166000	 64.5271
7.184000	 64.4548
7.202000	 64.3773
7.220000	 64.3808
7.238000	 64.4426
7.256000	 64.4714
7.274000	 64.4514
7.292000	 64.4395
7.310000	 64.4833
7.328000	 64.5346
7.346000	 64.5158
7.364000	 64.482
7.382000	 64.5066
7.400000	 64.523
7.418000	 64.4866
7.436000	 64.476
7.454000	 64.5236
7.472000	 64.5519
7.490000	 64.511
7.508000	 64.453
7.526000	 64.444
7.544000	 64.4577
7.562000	 64.4263
7.580000	 64.3531
7.598000	 64.2937
7.616000	 64.2799
7.634000	 64.3062
7.652000	 64.3476
7.670000	 64.3749
7.688000	 64.3849
7.706000	 64.4062
7.724000	 64.4542
7.742000	 64.5045
7.760000	 64.5186
7.778000	 64.4835
7.796000	 64.4171
7.814000	 64.3464
7.832000	 64.2935
7.850000	 64.2758
7.868000	 64.2914
7.886000	 64.3119
7.904000	 64.3206
7.922000	 64.3331
7.940000	 64.365
7.958000	 64.4166
7.976000	 64.476
7.994000	 64.5101
8.012000	 64.482
8.030000	 64.402
8.048000	 64.3214
8.065999	 64.2696
8.084000	 64.2381
8.102000	 64.224
8.120000	 64.2514
8.138000	 64.3321
8.155999	 64.4294
8.173999	 64.4754
8.192000	 64.4392
8.210000	 64.3678
8.228000	 64.3391
8.246000	 64.3726
8.263999	 64.4178
8.282000	 64.4276
8.300000	 64.4106
8.318000	 64.3985
8.336000	 64.4046
8.353999	 64.4233
8.372000	 64.4466
8.390000	 64.466
8.408000	 64.4718
8.426000	 64.4556
8.443999	 64.412
8.462000	 64.34
8.480000	 64.2548
8.498000	 64.1915
8.516000	 64.1818
8.533999	 64.2234
8.552000	 64.2764
8.570000	 64.2904
8.588000	 64.2421
8.606000	 64.1549
8.624000	 64.0792
8.641999	 64.0501
8.660000	 64.0675
8.678000	 64.1069
8.696000	 64.1415
8.714000	 64.1632
8.731999	 64.1867
8.750000	 64.2298
8.768000	 64.2926
8.786000	 64.3594
8.804000	 64.4175
8.821999	 64.4645
8.840000	 64.4987
8.858000	 64.5112
8.876000	 64.4933
8.894000	 64.456
8.911999	 64.4303
8.930000	 64.4362
8.948000	 64.4674
8.966000	 64.5021
8.984000	 64.5123
9.001999	 64.4689
9.020000	 64.3673
9.038000	 64.2443
9.056000	 64.1543
9.074000	 64.1249
9.092000	 64.1453
9.109999	 64.1992
9.128000	 64.2856
9.146000	 64.3947
9.164000	 64.4851
9.182000	 64.5112
9.199999	 64.4665
9.218000	 64.3862
9.236000	 64.3158
9.254000	 64.284
9.272000	 64.2986
9.289999	 64.3486
9.308000	 64.4007
9.326000	 64.4114
9.344000	 64.3626
9.362000	 64.281
9.379999	 64.2134
9.398000	 64.1835
9.416000	 64.1827
9.434000	 64.1922
9.452000	 64.2068
9.469999	 64.2339
9.488000	 64.2794
9.506000	 64.3361
9.524000	 64.3888
9.542000	 64.4237
9.560000	 64.4324
9.577999	 64.4134
9.596000	 64.3736
9.614000	 64.3271
9.632000	 64.2905
9.650000	 64.2765
9.667999	 64.2895
9.686000	 64.3226
9.704000	 64.3596
9.722000	 64.3823
9.740000	 64.3782
9.757999	 64.3439
9.776000	 64.2853
9.794000	 64.2157
9.812000	 64.1517
9.830000	 64.1075
9.847999	 64.0895
9.866000	 64.0943
9.884000	 64.1128
9.902000	 64.1369
9.920000	 64.1643
9.937999	 64.1956
9.956000	 64.2288
9.974000	 64.2585
9.992000	 64.2815
10.01	64.3001
10.028	64.3188
10.046	64.3386
10.064	64.3553
10.082	64.3648
10.1	64.3696
10.118	64.3805
10.136	64.408
10.154	64.4522
10.172	64.4999
10.19	64.5289
10.208	64.5215
10.226	64.474
10.244	64.3999
10.262	64.3261
10.28	64.2802
10.298	64.2769
10.316	64.3101
10.334	64.3575
10.352	64.3947
10.37	64.4072
10.388	64.3974
10.406	64.3779
10.424	64.3634
10.442	64.3619
10.46	64.3735
10.478	64.3942
10.496	64.4208
10.514	64.4527
10.532	64.4895
10.55	64.5287
10.568	64.5646
10.586	64.5891
10.604	64.5951
10.622	64.5797
10.64	64.5464
10.658	64.5029
10.676	64.4583
10.694	64.4181
10.712	64.3838
10.73	64.3537
10.748	64.3258
10.766	64.3002
10.784	64.2787
10.802	64.2644
10.82	64.2598
10.838	64.2668
10.856	64.2858
10.874	64.3149
10.892	64.3482
10.91	64.3754
10.928	64.3846
10.946	64.3667
10.964	64.322
10.982	64.262
11	64.206
11.018	64.175
11.036	64.1798
11.054	64.2175
11.072	64.2732
11.09	64.3265
11.108	64.3636
11.126	64.3806
11.144	64.383
11.162	64.3809
11.18	64.3806
11.198	64.3826
11.216	64.3814
11.234	64.3715
11.252	64.35
11.27	64.3195
11.288	64.2865
11.306	64.2575
11.324	64.2372
11.342	64.2267
11.36	64.225
11.378	64.2304
11.396	64.2415
11.414	64.2578
11.432	64.2774
11.45	64.2976
11.468	64.3147
11.486	64.3258
11.504	64.3294
11.522	64.325
11.54	64.313
11.558	64.2939
11.576	64.2684
11.594	64.2381
11.612	64.2068
11.63	64.1802
11.648	64.1646
11.666	64.1651
11.684	64.1845
11.702	64.2217
11.72	64.2722
11.738	64.329
11.756	64.3846
11.774	64.4312
11.792	64.4618
11.81	64.471
11.828	64.4567
11.846	64.4211
11.864	64.3714
11.882	64.318
11.9	64.2723
11.918	64.2435
11.936	64.2351
11.954	64.244
11.972	64.2623
11.99	64.2801
12.008	64.289
12.026	64.2847
12.044	64.2677
12.062	64.2425
12.08	64.2157
12.098	64.1928
12.116	64.1788
12.134	64.1761
12.152	64.1851
12.17	64.2044
12.188	64.2306
12.206	64.2585
12.224	64.2821
12.242	64.2954
12.26	64.2946
12.278	64.2793
12.296	64.2538
12.314	64.2261
12.332	64.206
12.35	64.2018
12.368	64.2178
12.386	64.2526
12.404	64.2987
12.422	64.3449
12.44	64.3797
12.458	64.394
12.476	64.3839
12.494	64.3512
12.512	64.3028
12.53	64.249
12.548	64.2003
12.566	64.1657
12.584	64.1513
12.602	64.1591
12.62	64.1876
12.638	64.2324
12.656	64.2872
12.674	64.3446
12.692	64.3971
12.71	64.4382
12.728	64.463
12.746	64.4685
12.764	64.4549
12.782	64.4253
12.8	64.385
12.818	64.3406
12.836	64.2987
12.854	64.2648
12.872	64.2418
12.89	64.23
12.908	64.2278
12.926	64.2322
12.944	64.2398
12.962	64.2488
12.98	64.2591
12.998	64.272
13.016	64.2893
13.034	64.3117
13.052	64.3386
13.07	64.3677
13.088	64.3955
13.106	64.4183
13.124	64.4336
13.142	64.4403
13.16	64.4392
13.178	64.4313
13.196	64.4186
13.214	64.4019
13.232	64.3816
13.25	64.3569
13.268	64.3265
13.286	64.2893
13.304	64.2448
13.322	64.1936
13.34	64.1375
13.358	64.0794
13.376	64.0227
13.394	63.9707
13.412	63.9264
13.43	63.8919
13.448	63.8687
13.466	63.8567
13.484	63.8554
13.502	63.8635
13.52	63.8791
13.538	63.9004
13.556	63.9257
13.574	63.9544
13.592	63.9865
13.61	64.0227
13.628	64.0633
13.646	64.1077
13.664	64.1541
13.682	64.1992
13.7	64.2389
13.718	64.2689
13.736	64.2855
13.754	64.2871
13.772	64.2741
13.79	64.2491
13.808	64.2165
13.826	64.1813
13.844	64.1483
13.862	64.121
13.88	64.1014
13.898	64.0896
13.916	64.0843
13.934	64.0834
13.952	64.0848
13.97	64.0869
13.988	64.089
14.006	64.0909
14.024	64.0929
14.042	64.0953
14.06	64.0983
14.078	64.1018
14.096	64.1058
14.114	64.1106
14.132	64.1167
14.15	64.1251
14.168	64.1368
14.186	64.1532
14.204	64.175
14.222	64.202
14.24	64.2333
14.258	64.2671
14.276	64.3003
14.294	64.3299
14.312	64.3525
14.33	64.3655
14.348	64.367
14.366	64.3561
14.384	64.3335
14.402	64.3007
14.42	64.2603
14.438	64.2154
14.456	64.1694
14.474	64.1249
14.492	64.0839
14.51	64.0478
14.528	64.0173
14.546	63.9924
14.564	63.9727
14.582	63.9575
14.6	63.9461
14.618	63.9378
14.636	63.9325
14.654	63.9305
14.672	63.9323
14.69	63.9387
14.708	63.9504
14.726	63.968
14.744	63.9919
14.762	64.0216
14.78	64.0557
14.798	64.092
14.816	64.1278
14.834	64.1597
14.852	64.1838
14.87	64.1967
14.888	64.1959
14.906	64.1802
14.924	64.1498
14.942	64.1073
14.96	64.0577
14.978	64.0072
14.996	63.9631
15.014	63.933
15.032	63.9248
15.05	63.9438
15.068	63.992
15.086	64.0686
15.104	64.1703
15.122	64.2893
15.14	64.4156
15.158	64.5392
15.176	64.6503
15.194	64.7393
15.212	64.7988
15.23	64.8258
15.248	64.8198
15.266	64.7823
15.284	64.7186
15.302	64.635
15.32	64.5383
15.338	64.4346
15.356	64.3305
15.374	64.2314
15.392	64.1406
15.41	64.0606
15.428	63.9928
15.446	63.9379
15.464	63.8959
15.482	63.8669
15.5	63.8513
15.518	63.8497
15.536	63.8631
15.554	63.8918
15.572	63.9356
15.59	63.9934
15.608	64.0634
15.626	64.1432
15.644	64.2294
15.662	64.3167
15.68	64.4009
15.698	64.4783
15.716	64.5444
15.734	64.5966
15.752	64.6336
15.77	64.6543
15.788	64.6588
15.806	64.6479
15.824	64.6224
15.842	64.5834
15.86	64.5327
15.878	64.4716
15.896	64.4017
15.914	64.3258
15.932	64.2474
15.95	64.1698
15.968	64.0975
15.986	64.0368
16.004	63.9915
16.022	63.9656
16.04	63.964
16.058	63.987
16.076	64.0341
16.094	64.1021
16.112	64.1832
16.13	64.2708
16.148	64.3554
16.166	64.4248
16.184	64.4714
16.202	64.4865
16.22	64.463
16.238	64.4
16.256	64.2964
16.274	64.1577
16.292	63.9911
16.31	63.8034
16.328	63.6083
16.346	63.4153
16.364	63.2325
16.382	63.0708
16.4	62.9347
16.418	62.8274
16.436	62.7505
16.454	62.7013
16.472	62.678
16.49	62.675
16.508	62.6885
16.526	62.7154
16.544	62.7509
16.562	62.7937
16.58	62.8425
16.598	62.8966
16.616	62.9571
16.634	63.0248
16.652	63.1002
16.67	63.1835
16.688	63.275
16.706	63.3732
16.724	63.4769
16.742	63.5842
16.76	63.6923
16.778	63.7999
16.796	63.9039
16.814	64.0019
16.832	64.0923
16.85	64.172
16.868	64.2402
16.886	64.2957
16.904	64.3372
16.922	64.3643
16.94	64.3768
16.958	64.3747
16.976	64.3584
16.994	64.3292
17.012	64.2888
17.03	64.2382
17.048	64.1807
17.066	64.1181
17.084	64.0528
17.102	63.9885
17.12	63.9266
17.138	63.8702
17.156	63.8203
17.174	63.7781
17.192	63.7436
17.21	63.7167
17.228	63.6964
17.246	63.6807
17.264	63.6682
17.282	63.6554
17.3	63.641
17.318	63.6221
17.336	63.5978
17.354	63.5671
17.372	63.5299
17.39	63.487
17.408	63.44
17.426	63.3915
17.444	63.3428
17.462	63.2988
17.48	63.261
17.498	63.2337
17.516	63.2192
17.534	63.2199
17.552	63.2375
17.57	63.2722
17.588	63.324
17.606	63.3914
17.624	63.4728
17.642	63.5643
17.66	63.6645
17.678	63.767
17.696	63.8704
17.714	63.969
17.732	64.0608
17.75	64.1429
17.768	64.2132
17.786	64.2711
17.804	64.316
17.822	64.3484
17.84	64.3695
17.858	64.3808
17.876	64.3838
17.894	64.3811
17.912	64.3736
17.93	64.3644
17.948	64.3538
17.966	64.3439
17.984	64.335
18.002	64.328
18.02	64.323
18.038	64.3202
18.056	64.3197
18.074	64.3217
18.092	64.3256
18.11	64.3316
18.128	64.3392
18.146	64.3482
18.164	64.3583
18.182	64.3692
18.2	64.3807
18.218	64.3922
18.236	64.4036
18.254	64.4142
18.272	64.4238
18.29	64.4317
18.308	64.4379
18.326	64.4417
18.344	64.443
18.362	64.4415
18.38	64.4372
18.398	64.4302
18.416	64.4205
18.434	64.4085
18.452	64.3944
18.47	64.3786
18.488	64.3618
18.506	64.3442
18.524	64.3267
18.542	64.3094
18.56	64.293
18.578	64.2776
18.596	64.2637
18.614	64.2513
18.632	64.2403
18.65	64.2308
18.668	64.2225
18.686	64.2153
18.704	64.2089
18.722	64.2031
18.74	64.1979
18.758	64.1934
18.776	64.1899
18.794	64.1877
18.812	64.1874
18.83	64.1894
18.848	64.1945
18.866	64.2029
18.884	64.2153
18.902	64.2317
18.92	64.2525
18.938	64.2771
18.956	64.3055
18.974	64.3367
18.992	64.3698
19.01	64.404
19.028	64.438
19.046	64.4709
19.064	64.5012
19.082	64.5285
19.1	64.5515
19.118	64.5702
19.136	64.5838
19.154	64.5925
19.172	64.5961
19.19	64.5949
19.208	64.5892
19.226	64.5791
19.244	64.5655
19.262	64.5483
19.28	64.5284
19.298	64.5057
19.316	64.4811
19.334	64.4546
19.352	64.4269
19.37	64.3979
19.388	64.3684
19.406	64.3383
19.424	64.3083
19.442	64.2784
19.46	64.2494
19.478	64.2212
19.496	64.1948
19.514	64.1701
19.532	64.1481
19.55	64.1288
19.568	64.1129
19.586	64.1012
19.604	64.0937
19.622	64.0912
19.64	64.0936
19.658	64.1019
19.676	64.1159
19.694	64.1359
19.712	64.1619
19.73	64.1936
19.748	64.2311
19.766	64.2732
19.784	64.3198
19.802	64.3694
19.82	64.4213
19.838	64.4744
19.856	64.5269
19.874	64.5785
19.892	64.627
19.91	64.6724
19.928	64.7129
19.946	64.7485
19.964	64.7781
19.982	64.8016
20	64.819
20.018	64.8299
20.036	64.8349
20.054	64.8346
20.072	64.8292
20.09	64.8202
20.108	64.8074
20.126	64.7928
20.144	64.7763
20.162	64.7593
20.18	64.7421
20.198	64.7252
20.216	64.7096
20.234	64.6949
20.252	64.6815
20.27	64.6694
20.288	64.6583
20.306	64.6482
20.324	64.6384
20.342	64.6285
20.36	64.6183
20.378	64.607
20.396	64.5947
20.414	64.5806
20.432	64.5648
20.45	64.5472
20.468	64.5274
20.486	64.5059
20.504	64.4829
20.522	64.4586
20.54	64.4338
20.558	64.4083
20.576	64.3835
20.594	64.3599
20.612	64.338
20.63	64.3192
20.648	64.3032
20.666	64.292
20.684	64.2853
20.702	64.2844
20.72	64.2901
20.738	64.3024
20.756	64.3223
20.774	64.3495
20.792	64.3844
20.81	64.4273
20.828	64.4774
20.846	64.5338
20.864	64.5966
20.882	64.6632
20.9	64.7344
20.918	64.8068
20.936	64.8788
20.954	64.9501
20.972	65.0158
20.99	65.0769
21.008	65.1295
21.026	65.1718
21.044	65.2036
21.062	65.2213
21.08	65.2257
21.098	65.2155
21.116	65.1897
21.134	65.1494
21.152	65.095
21.17	65.0262
21.188	64.9464
21.206	64.8552
21.224	64.755
21.242	64.6498
21.26	64.5383
21.278	64.4262
21.296	64.3139
21.314	64.2032
21.332	64.0987
21.35	63.9989
21.368	63.9077
21.386	63.8261
21.404	63.7539
21.422	63.6931
21.44	63.6434
21.458	63.6043
21.476	63.5762
21.494	63.5584
21.512	63.5487
21.53	63.548
21.548	63.5535
21.566	63.5638
21.584	63.5791
21.602	63.5957
21.62	63.6142
21.638	63.6331
21.656	63.6499
21.674	63.6654
21.692	63.6783
21.71	63.6879
21.728	63.6947
21.746	63.6979
21.764	63.6975
21.782	63.6943
21.8	63.6888
21.818	63.6808
21.836	63.6718
21.854	63.6618
21.872	63.6512
21.89	63.6418
21.908	63.6329
21.926	63.6253
21.944	63.6199
21.962	63.6162
21.98	63.6144
21.998	63.6146
22.016	63.6165
22.034	63.6193
22.052	63.6234
22.07	63.6275
22.088	63.6307
22.106	63.6335
22.124	63.634
22.142	63.6318
22.16	63.6269
22.178	63.6179
22.196	63.6049
22.214	63.5879
22.232	63.5662
22.25	63.5398
22.268	63.5098
22.286	63.4761
22.304	63.4388
22.322	63.4001
22.34	63.3597
22.358	63.3184
22.376	63.2791
22.394	63.2409
22.412	63.2054
22.43	63.1751
22.448	63.149
22.466	63.1286
22.484	63.1156
22.502	63.1092
22.52	63.11
22.538	63.1188
22.556	63.1348
22.574	63.1571
22.592	63.1859
22.61	63.2206
22.628	63.2581
22.646	63.2996
22.664	63.3433
22.682	63.3852
22.7	63.4271
22.718	63.4664
22.736	63.4999
22.754	63.5292
22.772	63.552
22.79	63.5662
22.808	63.5728
22.826	63.5712
22.844	63.5608
22.862	63.5417
22.88	63.5155
22.898	63.4822
22.916	63.4416
22.934	63.3973
22.952	63.3497
22.97	63.2985
22.988	63.2489
23.006	63.2014
23.024	63.1557
23.042	63.1168
23.06	63.0852
23.078	63.0604
23.096	63.0459
23.114	63.0421
23.132	63.0484
23.15	63.0656
23.168	63.0945
23.186	63.1339
23.204	63.1819
23.222	63.2396
23.24	63.3055
23.258	63.3753
23.276	63.4503
23.294	63.529
23.312	63.6067
23.33	63.6843
23.348	63.7607
23.366	63.8314
23.384	63.8968
23.402	63.9565
23.42	64.0071
23.438	64.048
23.456	64.0799
23.474	64.1017
23.492	64.1124
23.51	64.1131
23.528	64.1053
23.546	64.0888
23.564	64.0638
23.582	64.0334
23.6	63.9986
23.618	63.9583
23.636	63.916
23.654	63.8732
23.672	63.8285
23.69	63.7849
23.708	63.7445
23.726	63.7058
23.744	63.6706
23.762	63.6408
23.78	63.6157
23.798	63.5953
23.816	63.58
23.834	63.5703
23.852	63.565
23.87	63.5627
23.888	63.5642
23.906	63.5685
23.924	63.5734
23.942	63.5791
23.96	63.5857
23.978	63.5907
23.996	63.5937
24.014	63.5954
24.032	63.5939
24.05	63.588
24.068	63.5785
24.086	63.5651
24.104	63.5471
24.122	63.5245
24.14	63.4979
24.158	63.4678
24.176	63.4334
24.194	63.3956
24.212	63.3566
24.23	63.316
24.248	63.2735
24.266	63.2331
24.284	63.1965
24.302	63.1613
24.32	63.1317
24.338	63.1116
24.356	63.0987
24.374	63.0944
24.392	63.1017
24.41	63.1204
24.428	63.1501
24.446	63.1919
24.464	63.2464
24.482	63.3129
24.5	63.3922
24.518	63.485
24.536	63.5917
24.554	63.7108
24.572	63.8406
24.59	63.9826
24.608	64.1355
24.626	64.2958
24.644	64.4627
24.662	64.6384
24.68	64.8169
24.698	64.9927
24.716	65.1697
24.734	65.3449
24.752	65.5119
24.77	65.6721
24.788	65.8262
24.806	65.9664
24.824	66.088
24.842	66.1968
24.86	66.2857
24.878	66.3459
24.896	66.3804
24.914	66.3888
24.932	66.3636
24.95	66.3004
24.968	66.2032
24.986	66.0704
25.004	65.8998
25.022	65.6912
25.04	65.446
25.058	65.1652
25.076	64.8484
25.094	64.495
25.112	64.1087
25.13	63.6932
25.148	63.2448
25.166	62.7668
25.184	62.2667
25.202	61.7466
25.22	61.2016
25.238	60.6409
25.256	60.0741
25.274	59.4955
25.292	58.9078
25.31	58.3212
25.328	57.7413
25.346	57.1607
25.364	56.5873
25.382	56.0303
25.4	55.488
25.418	54.9588
25.436	54.4488
25.454	53.9626
25.472	53.4964
25.49	53.052
25.508	52.632
25.526	52.2391
25.544	51.8716
25.562	51.5255
25.58	51.1976
25.598	50.8916
25.616	50.6047
25.634	50.3306
25.652	50.0658
25.67	49.8148
25.688	49.5735
25.706	49.3369
25.724	49.1042
25.742	48.8775
25.76	48.6551
25.778	48.435
25.796	48.2078
25.814	47.9849
25.832	47.784
25.85	47.6138
25.868	47.4551
25.886	47.3311
25.904	47.2702
25.922	47.2848
25.94	47.3598
25.958	47.4945
25.976	47.6886
25.994	47.9464
26.012	48.2642
26.03	48.6333
26.048	49.0462
26.066	49.5087
26.084	50.0179
26.102	50.5672
26.12	51.1524
26.138	51.7785
26.156	52.4416
26.174	53.1363
26.192	53.8502
26.21	54.5812
26.228	55.3595
26.246	56.2162
26.264	57.1498
26.282	58.1474
26.3	59.2291
26.318	60.4151
26.336	61.715
26.354	63.1132
26.372	64.5906
26.39	66.1309
26.408	67.7596
26.426	69.4592
26.444	71.1918
26.462	72.9337
26.48	74.7621
26.498	76.6006
26.516	78.3331
26.534	79.8741
26.552	81.3126
26.57	82.6094
26.588	83.6954
26.606	84.5125
26.624	85.0839
26.642	85.4474
26.66	85.6377
26.678	85.6568
26.696	85.4497
26.714	85.1043
26.732	84.7205
26.75	84.3078
26.768	83.7343
26.786	83.201
26.804	82.9317
26.822	83.0342
26.84	83.3371
26.858	83.941
26.876	84.9675
26.894	86.5097
26.912	88.5139
26.93	90.9114
26.948	93.6371
26.966	96.869
26.984	100.971
27.002	105.115
27.02	108.399
27.028	109.254