File: Bakgrunnsmateriale/MATLAB/FTIR/ftir_data/subAa/Mapping_121/BZ1503107-1_t70_cm-1.asc
PE IR       SPECTRUM    SPECTRUM    ASCII       PEDS        1.60
  -1
BZ68A6~1.ASC
17/04/07
19:01:54.00
17/04/07
19:01:54.00
tln
$BZ1503107-1_t0070$<tbV0>[5.2,2.6,8.0,0.0,27,1,0]
370
64

2002,4.07
MIRTGS : RIGHTBACK : INTERNAL 2
MIR : ON : INTERNAL 2
OPTKBR

0.200000
8
8.000000
FILLER
RATIO
SPECTRUM
UNLOCKED 256

DOUBLE
64
COMBINED
1
0
0

1.000000
RATIO

1
0
TRUE
51149
0
LEFT NOT FITTED RIGHT NOT FITTED 0
NONE
NONE
15600
12
4.427000
51148
TRUE
1 0 8 72 0 0 0 0

15798

#HDR
-1
-1
#GR
CM-1
%T
2.38419e-05
0.0
5000
-1.000000
4631
8
68.9965
27.7524
#DATA
5000	65.3708
4996	65.0706
4992	64.7822
4988	65.014
4984	65.1297
4980	64.8234
4976	64.6973
4972	64.8382
4968	65.1248
4964	65.3435
4960	65.1953
4956	65.0047
4952	64.9887
4948	64.8777
4944	64.7117
4940	64.6413
4936	64.6438
4932	64.7063
4928	64.802
4924	64.8352
4920	64.7973
4916	64.9293
4912	65.1662
4908	65.3229
4904	65.2553
4900	65.1105
4896	65.1635
4892	65.256
4888	65.2253
4884	65.0757
4880	64.9361
4876	64.7459
4872	64.6358
4868	64.7918
4864	64.8478
4860	64.7475
4856	64.7522
4852	64.6488
4848	64.3871
4844	64.2383
4840	64.26
4836	64.4511
4832	64.5512
4828	64.3239
4824	64.1716
4820	64.3811
4816	64.671
4812	64.676
4808	64.4456
4804	64.4463
4800	64.634
4796	64.745
4792	64.8981
4788	64.8704
4784	64.4704
4780	64.1663
4776	64.2843
4772	64.5012
4768	64.544
4764	64.5389
4760	64.5422
4756	64.5515
4752	64.5563
4748	64.4961
4744	64.438
4740	64.2973
4736	64.1261
4732	64.1454
4728	64.351
4724	64.6509
4720	64.8015
4716	64.7057
4712	64.4827
4708	64.318
4704	64.3599
4700	64.3558
4696	64.1608
4692	64.0102
4688	64.0424
4684	64.2076
4680	64.308
4676	64.4101
4672	64.6704
4668	64.8643
4664	64.8303
4660	64.6896
4656	64.5812
4652	64.4917
4648	64.5206
4644	64.6931
4640	64.764
4636	64.7314
4632	64.8096
4628	65.035
4624	65.1148
4620	64.9887
4616	65.0158
4612	65.2744
4608	65.3734
4604	65.0895
4600	64.884
4596	65.1806
4592	65.5928
4588	65.5734
4584	65.3548
4580	65.4232
4576	65.6276
4572	65.6831
4568	65.6651
4564	65.6493
4560	65.6009
4556	65.3755
4552	64.9996
4548	64.9754
4544	65.2646
4540	65.3417
4536	65.3523
4532	65.3739
4528	65.3309
4524	65.6048
4520	66.1051
4516	66.3394
4512	66.2514
4508	66.1489
4504	66.0388
4500	65.9348
4496	65.9267
4492	65.9038
4488	66.0077
4484	66.1513
4480	65.9607
4476	65.7101
4472	65.6394
4468	65.7063
4464	65.7222
4460	65.7215
4456	65.7942
4452	65.6058
4448	65.4334
4444	66.0393
4440	66.4513
4436	66.5992
4432	68.7064
4428	67.0629
4424	58.442
4420	50.0698
4416	45.7661
4412	44.47
4408	48.0086
4404	59.2152
4400	66.8725
4396	66.9778
4392	66.1674
4388	66.1681
4384	66.5425
4380	66.8534
4376	66.3845
4372	65.7511
4368	65.7204
4364	65.936
4360	66.1386
4356	66.1372
4352	66.0863
4348	66.1219
4344	66.0719
4340	66.0166
4336	66.0537
4332	65.978
4328	65.7696
4324	65.8209
4320	65.7205
4316	65.1937
4312	64.9124
4308	65.0775
4304	65.3832
4300	65.651
4296	65.8334
4292	65.9518
4288	65.9303
4284	65.7054
4280	65.5574
4276	65.6045
4272	65.5637
4268	65.4112
4264	65.3265
4260	65.2663
4256	65.2548
4252	65.2982
4248	65.243
4244	65.1616
4240	65.1155
4236	65.032
4232	64.8594
4228	64.6511
4224	64.651
4220	64.7696
4216	64.8145
4212	64.8872
4208	64.9789
4204	64.952
4200	64.7288
4196	64.5096
4192	64.5047
4188	64.5535
4184	64.6322
4180	64.8358
4176	64.8557
4172	64.6464
4168	64.5957
4164	64.5766
4160	64.4895
4156	64.5386
4152	64.6487
4148	64.6887
4144	64.6614
4140	64.7197
4136	64.8607
4132	64.9276
4128	64.9883
4124	65.0229
4120	64.915
4116	64.8218
4112	64.8412
4108	64.803
4104	64.6477
4100	64.6343
4096	64.7525
4092	64.7589
4088	64.7162
4084	64.6534
4080	64.5542
4076	64.6417
4072	64.7956
4068	64.7146
4064	64.5975
4060	64.6624
4056	64.7836
4052	64.8108
4048	64.8102
4044	64.7694
4040	64.7235
4036	64.8303
4032	64.9423
4028	64.9572
4024	64.9312
4020	64.9088
4016	64.9374
4012	65.0084
4008	65.0832
4004	65.0848
4000	65.0471
3996	64.9936
3992	64.9287
3988	64.9169
3984	64.9382
3980	64.9559
3976	64.9627
3972	64.9429
3968	64.8748
3964	64.8916
3960	64.9501
3956	64.8739
3952	64.8375
3948	64.9577
3944	65.0217
3940	64.9418
3936	64.9068
3932	64.9374
3928	64.8404
3924	64.7177
3920	64.8739
3916	65.1364
3912	65.2124
3908	65.2414
3904	65.2982
3900	65.2596
3896	65.1535
3892	65.1098
3888	65.1072
3884	64.9964
3880	64.9074
3876	64.9663
3872	65.0241
3868	65.0795
3864	65.1555
3860	65.2119
3856	65.1626
3852	64.9651
3848	64.8444
3844	64.9196
3840	65.0331
3836	65.0754
3832	65.0317
3828	64.9512
3824	64.9245
3820	64.9935
3816	65.1953
3812	65.3095
3808	65.203
3804	65.083
3800	65.0698
3796	65.1479
3792	65.144
3788	65.1069
3784	65.2064
3780	65.2623
3776	65.1836
3772	65.091
3768	64.9831
3764	64.842
3760	64.6698
3756	64.5075
3752	64.55
3748	64.7318
3744	64.8421
3740	64.8922
3736	64.9144
3732	65.0254
3728	65.1488
3724	65.0541
3720	64.9304
3716	64.9676
3712	64.9999
3708	64.978
3704	65.066
3700	65.1512
3696	65.1171
3692	65.0601
3688	64.9282
3684	64.8755
3680	65.0236
3676	65.2126
3672	65.2471
3668	65.02
3664	64.8739
3660	64.9038
3656	64.8819
3652	64.9381
3648	64.9822
3644	64.8754
3640	64.8222
3636	64.8191
3632	64.7975
3628	64.8326
3624	64.9014
3620	64.9744
3616	65.0215
3612	64.9753
3608	64.9114
3604	64.9088
3600	64.9437
3596	64.981
3592	65.003
3588	64.986
3584	64.9652
3580	64.9918
3576	65.0178
3572	65.0454
3568	65.0572
3564	65.0265
3560	64.9731
3556	64.9626
3552	65.0231
3548	65.006
3544	64.9485
3540	65.002
3536	65.0849
3532	65.0999
3528	65.0554
3524	65.0099
3520	64.999
3516	64.9996
3512	65.0251
3508	65.0599
3504	65.0726
3500	65.0311
3496	64.9758
3492	64.9892
3488	64.9789
3484	64.9405
3480	65.0137
3476	65.096
3472	65.1083
3468	65.1966
3464	65.2088
3460	65.0378
3456	65
3452	65.1353
3448	65.193
3444	65.1434
3440	65.0942
3436	65.0521
3432	64.9988
3428	64.9663
3424	64.936
3420	64.8899
3416	64.8637
3412	64.9168
3408	64.9753
3404	64.9487
3400	64.9516
3396	65.0252
3392	65.0482
3388	65.0281
3384	65.073
3380	65.1162
3376	65.1084
3372	65.0747
3368	65.0469
3364	65.0352
3360	64.9848
3356	64.9887
3352	65.0522
3348	65.0836
3344	65.1053
3340	65.1005
3336	65.0603
3332	65.0319
3328	65.0103
3324	64.9573
3320	64.9063
3316	64.9282
3312	65.0025
3308	65.0671
3304	65.0907
3300	65.0314
3296	64.8958
3292	64.7903
3288	64.7829
3284	64.8123
3280	64.8776
3276	64.9675
3272	65.0011
3268	65.0174
3264	65.0206
3260	65.0219
3256	65.0754
3252	65.0837
3248	65.0298
3244	65.0485
3240	65.0833
3236	64.9913
3232	64.9039
3228	64.9544
3224	65.0005
3220	65.0103
3216	65.0524
3212	65.0572
3208	65.0261
3204	64.9912
3200	64.9724
3196	64.9616
3192	64.9429
3188	64.943
3184	64.9445
3180	64.9648
3176	65.0037
3172	65.0087
3168	64.9743
3164	64.9973
3160	65.0792
3156	65.0971
3152	65.0763
3148	65.0568
3144	65.0008
3140	64.9585
3136	64.9976
3132	65.0261
3128	64.985
3124	64.958
3120	64.9347
3116	64.9176
3112	64.966
3108	64.9599
3104	64.8901
3100	64.8919
3096	64.9076
3092	64.9194
3088	64.9521
3084	64.9608
3080	64.9943
3076	65.028
3072	65.0038
3068	65.013
3064	65.0698
3060	65.104
3056	65.0847
3052	64.9592
3048	64.8295
3044	64.839
3040	64.8857
3036	64.8693
3032	64.8946
3028	64.9972
3024	65.0472
3020	64.9938
3016	64.8715
3012	64.7912
3008	64.8319
3004	64.8778
3000	64.8452
2996	64.8427
2992	64.9043
2988	64.8964
2984	64.8134
2980	64.793
2976	64.809
2972	64.7901
2968	64.7884
2964	64.7893
2960	64.7971
2956	64.8059
2952	64.7845
2948	64.7608
2944	64.7678
2940	64.8101
2936	64.8388
2932	64.8394
2928	64.7789
2924	64.7162
2920	64.772
2916	64.8028
2912	64.8115
2908	64.8944
2904	64.9004
2900	64.8015
2896	64.7107
2892	64.6878
2888	64.7397
2884	64.8094
2880	64.8143
2876	64.7738
2872	64.7699
2868	64.7771
2864	64.7687
2860	64.7469
2856	64.7505
2852	64.7945
2848	64.8113
2844	64.7983
2840	64.7985
2836	64.7639
2832	64.6613
2828	64.6255
2824	64.7537
2820	64.9062
2816	64.9478
2812	64.8882
2808	64.7972
2804	64.787
2800	64.8131
2796	64.7797
2792	64.7466
2788	64.7476
2784	64.7722
2780	64.8175
2776	64.88
2772	64.9303
2768	64.9437
2764	64.9374
2760	64.8928
2756	64.8308
2752	64.8075
2748	64.8253
2744	64.8381
2740	64.83
2736	64.8535
2732	64.9051
2728	64.9133
2724	64.8273
2720	64.7172
2716	64.7185
2712	64.793
2708	64.8179
2704	64.7803
2700	64.7603
2696	64.815
2692	64.8798
2688	64.9318
2684	64.9657
2680	64.9288
2676	64.876
2672	64.8413
2668	64.7973
2664	64.7867
2660	64.7852
2656	64.7784
2652	64.826
2648	64.8571
2644	64.7983
2640	64.6974
2636	64.6364
2632	64.6981
2628	64.8516
2624	64.9301
2620	64.8901
2616	64.8197
2612	64.7669
2608	64.757
2604	64.762
2600	64.7393
2596	64.7652
2592	64.8624
2588	64.8521
2584	64.7762
2580	64.7832
2576	64.7969
2572	64.7902
2568	64.7982
2564	64.8199
2560	64.832
2556	64.8056
2552	64.7936
2548	64.8263
2544	64.8544
2540	64.8569
2536	64.8473
2532	64.8274
2528	64.795
2524	64.7902
2520	64.7891
2516	64.7155
2512	64.6335
2508	64.6384
2504	64.7088
2500	64.7719
2496	64.7933
2492	64.7952
2488	64.7848
2484	64.8156
2480	64.8466
2476	64.7634
2472	64.6878
2468	64.7017
2464	64.6898
2460	64.6628
2456	64.6975
2452	64.7601
2448	64.8033
2444	64.7972
2440	64.7685
2436	64.7478
2432	64.683
2428	64.5798
2424	64.5498
2420	64.6367
2416	64.7378
2412	64.7639
2408	64.709
2404	64.6311
2400	64.6024
2396	64.5753
2392	64.5682
2388	64.6563
2384	64.6873
2380	64.5971
2376	64.5657
2372	64.6443
2368	64.7154
2364	64.6972
2360	64.6438
2356	64.6356
2352	64.6371
2348	64.6213
2344	64.6171
2340	64.6448
2336	64.7159
2332	64.7406
2328	64.6822
2324	64.621
2320	64.5822
2316	64.5944
2312	64.6289
2308	64.6312
2304	64.6142
2300	64.5412
2296	64.4602
2292	64.4825
2288	64.5249
2284	64.5505
2280	64.6105
2276	64.6419
2272	64.6368
2268	64.6624
2264	64.7009
2260	64.6827
2256	64.6352
2252	64.6116
2248	64.5969
2244	64.5788
2240	64.5606
2236	64.5465
2232	64.5757
2228	64.643
2224	64.6519
2220	64.6242
2216	64.6293
2212	64.5922
2208	64.5098
2204	64.4859
2200	64.52
2196	64.5512
2192	64.5554
2188	64.5792
2184	64.6244
2180	64.6298
2176	64.6105
2172	64.5836
2168	64.6139
2164	64.6269
2160	64.4386
2156	64.3228
2152	64.4109
2148	64.4174
2144	64.4489
2140	64.5258
2136	64.5465
2132	64.5709
2128	64.5478
2124	64.4729
2120	64.426
2116	64.4632
2112	64.5467
2108	64.61
2104	64.6229
2100	64.6028
2096	64.5796
2092	64.5355
2088	64.4855
2084	64.4703
2080	64.5093
2076	64.5438
2072	64.497
2068	64.4325
2064	64.422
2060	64.4225
2056	64.418
2052	64.4372
2048	64.438
2044	64.4135
2040	64.4372
2036	64.4948
2032	64.4988
2028	64.4655
2024	64.4473
2020	64.4491
2016	64.466
2012	64.4561
2008	64.4425
2004	64.4383
2000	64.3895
1996	64.3476
1992	64.3394
1988	64.3649
1984	64.4324
1980	64.4479
1976	64.3941
1972	64.3683
1968	64.4177
1964	64.4798
1960	64.4799
1956	64.4321
1952	64.3886
1948	64.399
1944	64.4331
1940	64.4183
1936	64.3828
1932	64.3414
1928	64.3034
1924	64.3211
1920	64.3561
1916	64.3496
1912	64.3219
1908	64.3152
1904	64.3039
1900	64.2486
1896	64.2085
1892	64.2425
1888	64.2898
1884	64.3023
1880	64.3086
1876	64.2921
1872	64.2723
1868	64.306
1864	64.3156
1860	64.2872
1856	64.2847
1852	64.2709
1848	64.2516
1844	64.2437
1840	64.2413
1836	64.2568
1832	64.2429
1828	64.1853
1824	64.1712
1820	64.2477
1816	64.3124
1812	64.2829
1808	64.2119
1804	64.1905
1800	64.2524
1796	64.3343
1792	64.3702
1788	64.338
1784	64.2926
1780	64.2954
1776	64.3207
1772	64.356
1768	64.3872
1764	64.3729
1760	64.3141
1756	64.2062
1752	64.097
1748	64.0779
1744	64.0867
1740	64.0513
1736	63.9985
1732	63.9469
1728	63.9325
1724	63.9727
1720	64.0532
1716	64.1196
1712	64.1361
1708	64.1263
1704	64.1121
1700	64.0833
1696	64.0645
1692	64.0921
1688	64.0684
1684	64.0207
1680	64.0697
1676	64.1017
1672	64.0553
1668	64.0383
1664	64.0241
1660	63.9989
1656	64.0275
1652	64.0754
1648	64.114
1644	64.1097
1640	64.0357
1636	63.9657
1632	64.0032
1628	64.1062
1624	64.1535
1620	64.1834
1616	64.2157
1612	64.166
1608	64.0558
1604	63.9956
1600	64.0202
1596	64.0168
1592	63.9554
1588	63.9544
1584	63.9966
1580	63.9918
1576	63.9772
1572	63.9689
1568	63.9236
1564	63.8795
1560	63.901
1556	64.0026
1552	64.0448
1548	63.9798
1544	64.0017
1540	64.0837
1536	64.0571
1532	63.999
1528	63.9918
1524	64.0329
1520	64.0857
1516	64.0868
1512	64.0309
1508	63.9805
1504	63.9249
1500	63.8083
1496	63.7369
1492	63.8337
1488	63.9856
1484	64.0176
1480	63.9632
1476	63.9251
1472	63.8903
1468	63.8416
1464	63.8362
1460	63.9677
1456	64.0907
1452	64.0294
1448	63.9036
1444	63.8225
1440	63.8101
1436	63.8413
1432	63.8932
1428	63.9645
1424	63.9934
1420	63.8942
1416	63.7602
1412	63.7152
1408	63.7101
1404	63.7696
1400	63.8489
1396	63.8454
1392	63.8142
1388	63.7577
1384	63.7177
1380	63.7057
1376	63.6499
1372	63.6451
1368	63.6917
1364	63.695
1360	63.6864
1356	63.6869
1352	63.7278
1348	63.8054
1344	63.8287
1340	63.8542
1336	63.8889
1332	63.8207
1328	63.7863
1324	63.8441
1320	63.8118
1316	63.7311
1312	63.7205
1308	63.7053
1304	63.7108
1300	63.7676
1296	63.7527
1292	63.6953
1288	63.6857
1284	63.659
1280	63.5965
1276	63.5735
1272	63.6141
1268	63.6359
1264	63.5898
1260	63.5434
1256	63.5615
1252	63.6465
1248	63.6784
1244	63.6526
1240	63.6617
1236	63.6716
1232	63.6809
1228	63.7153
1224	63.6935
1220	63.6122
1216	63.5799
1212	63.6089
1208	63.6447
1204	63.7055
1200	63.7893
1196	63.7877
1192	63.7113
1188	63.6743
1184	63.6143
1180	63.5022
1176	63.4835
1172	63.5326
1168	63.4726
1164	63.3362
1160	63.3382
1156	63.4428
1152	63.4861
1148	63.5208
1144	63.5604
1140	63.5726
1136	63.5695
1132	63.5249
1128	63.4891
1124	63.5477
1120	63.6366
1116	63.7172
1112	63.6891
1108	63.4951
1104	63.3779
1100	63.3569
1096	63.2801
1092	63.3432
1088	63.467
1084	63.3403
1080	63.3273
1076	63.4358
1072	63.4534
1068	63.5025
1064	63.5265
1060	63.6042
1056	63.6496
1052	63.5566
1048	63.4677
1044	63.4619
1040	63.4597
1036	63.436
1032	63.4758
1028	63.511
1024	63.4212
1020	63.3662
1016	63.4235
1012	63.4349
1008	63.4749
1004	63.5514
1000	63.4759
996	 63.3658
992	 63.402
988	 63.496
984	 63.6135
980	 63.6817
976	 63.5688
972	 63.4721
968	 63.49
964	 63.4742
960	 63.4692
956	 63.5056
952	 63.5669
948	 63.6444
944	 63.6405
940	 63.5754
936	 63.4958
932	 63.4525
928	 63.4927
924	 63.5187
920	 63.4497
916	 63.4221
912	 63.4903
908	 63.4994
904	 63.446
900	 63.3602
896	 63.3892
892	 63.5416
888	 63.6175
884	 63.6907
880	 63.7669
876	 63.735
872	 63.6641
868	 63.5865
864	 63.4242
860	 63.2633
856	 63.2118
852	 63.2164
848	 63.2789
844	 63.3991
840	 63.501
836	 63.4765
832	 63.3821
828	 63.4758
824	 63.6846
820	 63.699
816	 63.5666
812	 63.3873
808	 63.1788
804	 63.164
800	 63.3395
796	 63.4481
792	 63.3096
788	 62.9863
784	 62.8623
780	 63.0721
776	 63.4321
772	 63.6641
768	 63.588
764	 63.4303
760	 63.4011
756	 63.3159
752	 63.1489
748	 63.063
744	 62.9588
740	 62.8329
736	 62.9481
732	 63.2728
728	 63.254
724	 62.9611
720	 63.0877
716	 63.2948
712	 62.8652
708	 62.2544
704	 62.2787
700	 62.6762
696	 63.0044
692	 63.5586
688	 64.0152
684	 63.8308
680	 63.6809
676	 63.8924
672	 63.681
668	 62.9645
664	 62.7406
660	 62.8955
656	 62.7022
652	 62.6089
648	 62.7272
644	 62.4928
640	 62.0089
636	 61.9452
632	 62.4061
628	 62.7256
624	 62.7298
620	 62.8562
616	 63.0837
612	 63.2279
608	 63.1742
604	 63.0091
600	 62.9788
596	 62.8537
592	 62.5177
588	 62.3147
584	 62.5885
580	 63.0152
576	 62.9425
572	 62.6273
568	 62.5702
564	 62.6711
560	 62.8524
556	 62.9881
552	 63.0106
548	 63.092
544	 63.2438
540	 63.1648
536	 62.8725
532	 62.6975
528	 62.5721
524	 62.7303
520	 63.1048
516	 63.1696
512	 62.9524
508	 62.6316
504	 62.2219
500	 62.0956
496	 62.4987
492	 62.9862
488	 63.0852
484	 62.8744
480	 62.817
476	 62.6714
472	 62.0834
468	 61.4527
464	 61.213
460	 61.2665
456	 61.371
452	 61.4493
448	 61.2484
444	 60.9956
440	 60.9765
436	 60.828
432	 60.5958
428	 60.8341
424	 61.4772
420	 61.6612
416	 61.2036
412	 60.9819
408	 60.4864
404	 59.6666
400	 61.5468
396	 66.2132
392	 67.7976
388	 60.8723
384	 48.325
380	 34.312
376	 27.7977
372	 43.393
370	 57.8413