File: Bakgrunnsmateriale/MATLAB/FTIR/ftir_data/subAa/Mapping_121/BZ1503107-1_t85_cm-1.asc
PE IR       SPECTRUM    SPECTRUM    ASCII       PEDS        1.60
  -1
BZ6D26~1.ASC
17/04/07
20:11:48.00
17/04/07
20:11:48.00
tln
$BZ1503107-1_t0085$<tbV0>[-5.2,5.2,8.0,0.0,27,1,0]
370
64

2002,4.07
MIRTGS : RIGHTBACK : INTERNAL 2
MIR : ON : INTERNAL 2
OPTKBR

0.200000
8
8.000000
FILLER
RATIO
SPECTRUM
UNLOCKED 256

DOUBLE
64
COMBINED
1
0
0

1.000000
RATIO

1
0
TRUE
51149
0
LEFT NOT FITTED RIGHT NOT FITTED 0
NONE
NONE
15600
12
4.427000
51148
TRUE
1 0 8 72 0 0 0 0

15798

#HDR
-1
-1
#GR
CM-1
%T
2.38419e-05
0.0
5000
-1.000000
4631
8
77.3607
59.6641
#DATA
5000	64.6811
4996	64.8787
4992	64.8801
4988	64.7721
4984	63.7343
4980	63.245
4976	64.726
4972	65.9212
4968	65.1405
4964	63.1074
4960	61.9829
4956	62.4297
4952	63.0525
4948	63.1783
4944	63.1865
4940	63.3052
4936	63.5571
4932	63.9584
4928	63.9927
4924	64.0447
4920	64.3447
4916	64.4044
4912	64.7986
4908	65.196
4904	64.9197
4900	64.5354
4896	64.5257
4892	64.711
4888	64.8566
4884	65.0107
4880	65.1165
4876	65.1704
4872	65.0995
4868	64.9233
4864	64.674
4860	64.4541
4856	64.5039
4852	64.4189
4848	64.1736
4844	64.2432
4840	64.4694
4836	64.6836
4832	64.8022
4828	64.8031
4824	64.8835
4820	64.9185
4816	64.9281
4812	64.888
4808	64.5991
4804	64.4158
4800	64.451
4796	64.5365
4792	64.7655
4788	64.931
4784	64.8461
4780	64.7407
4776	64.8268
4772	65.0916
4768	65.3735
4764	65.3549
4760	64.9699
4756	64.6914
4752	64.7466
4748	64.7223
4744	64.5263
4740	64.5015
4736	64.4956
4732	64.5564
4728	64.9274
4724	65.1732
4720	65.0313
4716	64.8295
4712	64.68
4708	64.6567
4704	64.9309
4700	65.1202
4696	65.0257
4692	64.999
4688	64.949
4684	64.7743
4680	64.6873
4676	64.6245
4672	64.5477
4668	64.5933
4664	64.7335
4660	64.7749
4656	64.7705
4652	64.8903
4648	64.9995
4644	64.9337
4640	64.8118
4636	64.8111
4632	64.9666
4628	65.1576
4624	65.1519
4620	64.9644
4616	64.843
4612	64.9033
4608	64.9583
4604	64.9404
4600	64.9855
4596	65.117
4592	65.1916
4588	64.9226
4584	64.4807
4580	64.4324
4576	64.7574
4572	64.8934
4568	64.8114
4564	64.7335
4560	64.7366
4556	64.8631
4552	64.8979
4548	64.8126
4544	64.7688
4540	64.7812
4536	64.7531
4532	64.6259
4528	64.4287
4524	64.3452
4520	64.5993
4516	65.0038
4512	65.165
4508	64.9936
4504	64.7583
4500	64.7844
4496	64.7428
4492	64.4279
4488	64.4312
4484	64.6265
4480	64.5678
4476	64.3656
4472	64.2241
4468	64.3549
4464	64.3592
4460	64.3576
4456	64.8355
4452	64.8386
4448	63.2735
4444	64.1676
4440	67.9535
4436	70.7603
4432	75.1295
4428	73.8805
4424	65.6701
4420	64.0248
4416	67.9927
4412	69.4938
4408	67.5043
4404	65.0387
4400	63.8204
4396	64.0561
4392	64.2926
4388	64.1738
4384	64.0703
4380	64.2383
4376	64.4881
4372	64.708
4368	64.9972
4364	65.2111
4360	65.3414
4356	65.3888
4352	65.4105
4348	65.3122
4344	65.0543
4340	64.9303
4336	64.9553
4332	64.8862
4328	64.8117
4324	64.9129
4320	64.9433
4316	64.8152
4312	64.7619
4308	64.732
4304	64.7178
4300	64.8684
4296	65.0584
4292	65.0998
4288	65.023
4284	64.9491
4280	64.9303
4276	64.9198
4272	64.9088
4268	64.9164
4264	64.9063
4260	64.9118
4256	64.9412
4252	64.8226
4248	64.7004
4244	64.7943
4240	64.781
4236	64.6083
4232	64.5801
4228	64.6891
4224	64.8098
4220	64.7929
4216	64.7298
4212	64.7866
4208	64.8794
4204	64.889
4200	64.8122
4196	64.7784
4192	64.6989
4188	64.5303
4184	64.5135
4180	64.7882
4176	64.9787
4172	64.813
4168	64.7831
4164	64.9262
4160	64.934
4156	64.9575
4152	65.0218
4148	65.0008
4144	64.8624
4140	64.7476
4136	64.7031
4132	64.6573
4128	64.6496
4124	64.6722
4120	64.7856
4116	64.9434
4112	65.0602
4108	65.1333
4104	65.1423
4100	65.2022
4096	65.2426
4092	65.1366
4088	65.0213
4084	64.9787
4080	64.9806
4076	64.9965
4072	64.9163
4068	64.7216
4064	64.6651
4060	64.8357
4056	64.8915
4052	64.8376
4048	64.9207
4044	64.998
4040	64.9522
4036	64.8867
4032	64.9219
4028	65.0069
4024	64.9941
4020	64.9006
4016	64.8628
4012	64.941
4008	65.0366
4004	65.0186
4000	64.8442
3996	64.6715
3992	64.8432
3988	65.2027
3984	65.2966
3980	65.2333
3976	65.1966
3972	65.1439
3968	65.0126
3964	64.8274
3960	64.7087
3956	64.62
3952	64.601
3948	64.6396
3944	64.5374
3940	64.4538
3936	64.6002
3932	64.7669
3928	64.7791
3924	64.7537
3920	64.7819
3916	64.7962
3912	64.7897
3908	64.875
3904	65.0289
3900	65.0356
3896	64.9777
3892	64.9875
3888	64.8995
3884	64.832
3880	64.9197
3876	64.9471
3872	64.9032
3868	64.9555
3864	64.9691
3860	64.9104
3856	64.9047
3852	64.8397
3848	64.7747
3844	64.7979
3840	64.7996
3836	64.8577
3832	64.9296
3828	64.9076
3824	64.8798
3820	64.8525
3816	64.891
3812	64.9393
3808	64.8774
3804	64.8821
3800	64.9713
3796	65.0201
3792	65.0459
3788	65.004
3784	64.9041
3780	64.9353
3776	65.0498
3772	65.0594
3768	64.9964
3764	64.9282
3760	64.9291
3756	64.9303
3752	64.9136
3748	65.0399
3744	65.2344
3740	65.2508
3736	65.1447
3732	65.1684
3728	65.1997
3724	65.0983
3720	65.0624
3716	65.1402
3712	65.1911
3708	65.1939
3704	65.2048
3700	65.2027
3696	65.1501
3692	65.0462
3688	64.931
3684	64.9017
3680	64.9299
3676	64.962
3672	65.0497
3668	65.1263
3664	65.1592
3660	65.1587
3656	65.0852
3652	65.0363
3648	65.0093
3644	64.9756
3640	65.0061
3636	65.0092
3632	64.9394
3628	64.8824
3624	64.8891
3620	64.9504
3616	64.9855
3612	64.9973
3608	65.0561
3604	65.1002
3600	65.0823
3596	65.0622
3592	65.0093
3588	64.928
3584	64.8911
3580	64.9039
3576	64.9575
3572	65.0167
3568	65.0048
3564	64.9184
3560	64.8424
3556	64.8763
3552	65.0126
3548	65.0563
3544	65.0109
3540	64.9806
3536	64.9025
3532	64.8632
3528	64.9453
3524	64.994
3520	64.9551
3516	64.8795
3512	64.771
3508	64.6993
3504	64.7167
3500	64.7827
3496	64.849
3492	64.8734
3488	64.8792
3484	64.8901
3480	64.8862
3476	64.8877
3472	64.8877
3468	64.915
3464	64.9473
3460	64.8792
3456	64.8741
3452	65.0023
3448	65.0773
3444	65.0736
3440	64.9788
3436	64.8354
3432	64.7898
3428	64.8402
3424	64.8917
3420	64.9594
3416	65.055
3412	65.0202
3408	64.9119
3404	64.9148
3400	64.9438
3396	64.9506
3392	64.997
3388	64.9974
3384	64.9387
3380	64.9474
3376	64.9785
3372	64.9816
3368	64.9936
3364	64.9605
3360	64.9562
3356	65.0009
3352	64.9217
3348	64.8533
3344	64.9428
3340	65.0129
3336	65.0161
3332	65.0136
3328	65.0007
3324	64.9635
3320	64.9231
3316	64.9763
3312	65.0806
3308	65.0838
3304	64.9714
3300	64.8229
3296	64.7688
3292	64.8323
3288	64.8771
3284	64.8968
3280	64.961
3276	64.9848
3272	64.9129
3268	64.8741
3264	64.8946
3260	64.8897
3256	64.8774
3252	64.8705
3248	64.9212
3244	64.9448
3240	64.8395
3236	64.8078
3232	64.895
3228	64.9378
3224	64.955
3220	65.0332
3216	65.0917
3212	65.0717
3208	65.0135
3204	64.8802
3200	64.7258
3196	64.7032
3192	64.7711
3188	64.8072
3184	64.8517
3180	64.9332
3176	64.9977
3172	65.0657
3168	65.1202
3164	65.1097
3160	65.0208
3156	64.8777
3152	64.8081
3148	64.8527
3144	64.8675
3140	64.8014
3136	64.7947
3132	64.8598
3128	64.8729
3124	64.8896
3120	64.9585
3116	64.9568
3112	64.9652
3108	64.9922
3104	64.8764
3100	64.7897
3096	64.8344
3092	64.8461
3088	64.794
3084	64.7793
3080	64.8494
3076	64.8845
3072	64.8255
3068	64.7982
3064	64.8658
3060	64.9729
3056	65.0496
3052	65.049
3048	64.9818
3044	64.9353
3040	64.8903
3036	64.7763
3032	64.7415
3028	64.8541
3024	64.957
3020	64.9651
3016	64.9434
3012	64.9308
3008	64.8605
3004	64.7833
3000	64.7698
2996	64.7618
2992	64.7834
2988	64.8134
2984	64.7671
2980	64.7399
2976	64.764
2972	64.7595
2968	64.7667
2964	64.7939
2960	64.7508
2956	64.6797
2952	64.634
2948	64.6037
2944	64.6191
2940	64.6814
2936	64.7879
2932	64.8697
2928	64.843
2924	64.7567
2920	64.7447
2916	64.768
2912	64.7643
2908	64.8045
2904	64.8168
2900	64.8103
2896	64.8453
2892	64.817
2888	64.7853
2884	64.7712
2880	64.7271
2876	64.7397
2872	64.7746
2868	64.7571
2864	64.7495
2860	64.7887
2856	64.7939
2852	64.7145
2848	64.6444
2844	64.6922
2840	64.7808
2836	64.7514
2832	64.6563
2828	64.6725
2824	64.756
2820	64.7808
2816	64.8216
2812	64.8884
2808	64.886
2804	64.8443
2800	64.7904
2796	64.7222
2792	64.7407
2788	64.808
2784	64.7801
2780	64.7547
2776	64.7999
2772	64.8535
2768	64.8725
2764	64.8641
2760	64.8749
2756	64.8854
2752	64.8692
2748	64.7998
2744	64.7497
2740	64.8102
2736	64.8635
2732	64.8509
2728	64.8255
2724	64.7638
2720	64.6903
2716	64.7082
2712	64.7683
2708	64.7877
2704	64.7708
2700	64.6975
2696	64.6517
2692	64.7049
2688	64.792
2684	64.8239
2680	64.7695
2676	64.6923
2672	64.6848
2668	64.7047
2664	64.6566
2660	64.6179
2656	64.6487
2652	64.6899
2648	64.7167
2644	64.724
2640	64.734
2636	64.7241
2632	64.676
2628	64.6825
2624	64.7291
2620	64.7487
2616	64.7441
2612	64.7288
2608	64.7499
2604	64.7852
2600	64.7655
2596	64.759
2592	64.7959
2588	64.7517
2584	64.6769
2580	64.68
2576	64.7015
2572	64.6878
2568	64.6505
2564	64.6415
2560	64.6422
2556	64.5846
2552	64.5406
2548	64.5835
2544	64.6495
2540	64.6701
2536	64.6592
2532	64.6532
2528	64.6584
2524	64.6936
2520	64.7625
2516	64.7945
2512	64.7219
2508	64.6194
2504	64.6109
2500	64.634
2496	64.6095
2492	64.6055
2488	64.6307
2484	64.6581
2480	64.6771
2476	64.6599
2472	64.6296
2468	64.6251
2464	64.6163
2460	64.6296
2456	64.6672
2452	64.6432
2448	64.6457
2444	64.6746
2440	64.6582
2436	64.7062
2432	64.741
2428	64.6407
2424	64.5679
2420	64.6103
2416	64.6713
2412	64.6849
2408	64.6572
2404	64.6646
2400	64.6811
2396	64.6305
2392	64.5974
2388	64.6184
2384	64.6221
2380	64.5898
2376	64.5342
2372	64.4698
2368	64.4259
2364	64.4617
2360	64.5452
2356	64.551
2352	64.4747
2348	64.4064
2344	64.4028
2340	64.4493
2336	64.5195
2332	64.5847
2328	64.5572
2324	64.5265
2320	64.5863
2316	64.6173
2312	64.5813
2308	64.5526
2304	64.5651
2300	64.5413
2296	64.4702
2292	64.4547
2288	64.4953
2284	64.5056
2280	64.4989
2276	64.5373
2272	64.5439
2268	64.4875
2264	64.4377
2260	64.4258
2256	64.4499
2252	64.449
2248	64.4214
2244	64.4429
2240	64.4658
2236	64.4416
2232	64.4532
2228	64.5196
2224	64.5139
2220	64.399
2216	64.3424
2212	64.3903
2208	64.4404
2204	64.4657
2200	64.4582
2196	64.4245
2192	64.4139
2188	64.4105
2184	64.3963
2180	64.4149
2176	64.4235
2172	64.3781
2168	64.3557
2164	64.3608
2160	64.3483
2156	64.3927
2152	64.4574
2148	64.4173
2144	64.3614
2140	64.3902
2136	64.4703
2132	64.5144
2128	64.4908
2124	64.4399
2120	64.3722
2116	64.3315
2112	64.337
2108	64.341
2104	64.3318
2100	64.3611
2096	64.4332
2092	64.4493
2088	64.4128
2084	64.4105
2080	64.4113
2076	64.371
2072	64.3185
2068	64.2758
2064	64.2384
2060	64.2097
2056	64.2045
2052	64.2299
2048	64.3028
2044	64.3642
2040	64.342
2036	64.2887
2032	64.2601
2028	64.2795
2024	64.3285
2020	64.3464
2016	64.3204
2012	64.2753
2008	64.2283
2004	64.1971
2000	64.201
1996	64.1927
1992	64.1393
1988	64.1281
1984	64.1908
1980	64.2568
1976	64.2841
1972	64.2554
1968	64.2223
1964	64.2391
1960	64.2536
1956	64.2795
1952	64.288
1948	64.2207
1944	64.1646
1940	64.1792
1936	64.2074
1932	64.1669
1928	64.101
1924	64.0898
1920	64.1288
1916	64.1923
1912	64.2576
1908	64.274
1904	64.2466
1900	64.2118
1896	64.1836
1892	64.208
1888	64.2376
1884	64.2267
1880	64.2438
1876	64.2727
1872	64.2224
1868	64.1133
1864	64.086
1860	64.1467
1856	64.1844
1852	64.189
1848	64.1749
1844	64.1278
1840	64.0814
1836	64.0898
1832	64.1336
1828	64.1366
1824	64.1206
1820	64.1561
1816	64.1982
1812	64.191
1808	64.128
1804	64.0496
1800	64.0169
1796	64.0352
1792	64.0706
1788	64.0731
1784	64.0582
1780	64.0584
1776	64.0799
1772	64.1226
1768	64.1089
1764	64.0557
1760	64.032
1756	63.9603
1752	63.8402
1748	63.7783
1744	63.7541
1740	63.7495
1736	63.7844
1732	63.7977
1728	63.7898
1724	63.7991
1720	63.8546
1716	63.9386
1712	63.9297
1708	63.8474
1704	63.8397
1700	63.8941
1696	63.941
1692	63.9779
1688	63.9676
1684	63.9012
1680	63.8513
1676	63.843
1672	63.8597
1668	63.9142
1664	63.9474
1660	63.9144
1656	63.8779
1652	63.87
1648	63.87
1644	63.8616
1640	63.7953
1636	63.7059
1632	63.7547
1628	63.8737
1624	63.8968
1620	63.8876
1616	63.895
1612	63.8457
1608	63.7733
1604	63.7799
1600	63.8186
1596	63.7854
1592	63.7506
1588	63.8326
1584	63.9293
1580	63.8951
1576	63.816
1572	63.788
1568	63.7473
1564	63.69
1560	63.7022
1556	63.7433
1552	63.7482
1548	63.7792
1544	63.862
1540	63.9068
1536	63.862
1532	63.841
1528	63.8736
1524	63.8686
1520	63.8206
1516	63.7622
1512	63.7559
1508	63.828
1504	63.8981
1500	63.878
1496	63.7408
1492	63.5859
1488	63.5597
1484	63.6114
1480	63.6487
1476	63.6854
1472	63.6876
1468	63.6466
1464	63.6331
1460	63.6716
1456	63.7378
1452	63.7677
1448	63.7267
1444	63.7075
1440	63.7848
1436	63.8639
1432	63.8455
1428	63.7871
1424	63.7393
1420	63.6951
1416	63.6648
1412	63.5764
1408	63.4903
1404	63.4941
1400	63.471
1396	63.4789
1392	63.5979
1388	63.6768
1384	63.6343
1380	63.5649
1376	63.5278
1372	63.5072
1368	63.4907
1364	63.4544
1360	63.3936
1356	63.3824
1352	63.4566
1348	63.5633
1344	63.611
1340	63.5791
1336	63.5544
1332	63.5807
1328	63.642
1324	63.653
1320	63.5764
1316	63.515
1312	63.5306
1308	63.5076
1304	63.4317
1300	63.3992
1296	63.3655
1292	63.376
1288	63.4499
1284	63.4725
1280	63.4324
1276	63.3507
1272	63.2969
1268	63.3345
1264	63.3904
1260	63.3863
1256	63.3643
1252	63.3893
1248	63.4101
1244	63.3956
1240	63.3767
1236	63.3565
1232	63.3324
1228	63.3287
1224	63.3694
1220	63.3594
1216	63.2716
1212	63.2791
1208	63.3698
1204	63.4068
1200	63.4356
1196	63.4634
1192	63.4047
1188	63.3222
1184	63.2889
1180	63.2658
1176	63.2726
1172	63.2967
1168	63.2692
1164	63.2437
1160	63.2416
1156	63.2002
1152	63.1839
1148	63.2363
1144	63.2795
1140	63.2637
1136	63.222
1132	63.1909
1128	63.248
1124	63.3544
1120	63.3819
1116	63.3455
1112	63.2941
1108	63.2687
1104	63.2932
1100	63.2565
1096	63.2293
1092	63.316
1088	63.3699
1084	63.3322
1080	63.2703
1076	63.2208
1072	63.2059
1068	63.2345
1064	63.2427
1060	63.2035
1056	63.2453
1052	63.3829
1048	63.4585
1044	63.3934
1040	63.1951
1036	63.0635
1032	63.1392
1028	63.1959
1024	63.1673
1020	63.2024
1016	63.2105
1012	63.1645
1008	63.2443
1004	63.3267
1000	63.2434
996	 63.1206
992	 63.0118
988	 62.9849
984	 63.1858
980	 63.3681
976	 63.2161
972	 63.0052
968	 63.0649
964	 63.2078
960	 63.2104
956	 63.1593
952	 63.1918
948	 63.2638
944	 63.2493
940	 63.1125
936	 62.9792
932	 62.9958
928	 63.1346
924	 63.1598
920	 63.1036
916	 63.2693
912	 63.4108
908	 63.266
904	 63.1186
900	 63.0903
896	 63.089
892	 63.0811
888	 63.0668
884	 63.0442
880	 62.9917
876	 63.0042
872	 63.1167
868	 63.1461
864	 63.0113
860	 62.903
856	 62.8851
852	 62.8724
848	 62.9378
844	 63.07
840	 63.1377
836	 63.0944
832	 63.057
828	 63.0949
824	 63.116
820	 63.0795
816	 63.0282
812	 62.9594
808	 62.8545
804	 62.7449
800	 62.6573
796	 62.6881
792	 62.8155
788	 62.8651
784	 62.8647
780	 62.94
776	 62.9392
772	 62.8194
768	 62.8003
764	 62.8671
760	 62.9538
756	 62.977
752	 62.8831
748	 62.7161
744	 62.478
740	 62.369
736	 62.4327
732	 62.4724
728	 62.4569
724	 62.4258
720	 62.4579
716	 62.6856
712	 62.9045
708	 62.8073
704	 62.6353
700	 62.587
696	 62.544
692	 62.6786
688	 63.0293
684	 63.1917
680	 63.1444
676	 63.0488
672	 62.9093
668	 62.6859
664	 62.5751
660	 62.6915
656	 62.6059
652	 62.3258
648	 62.089
644	 61.9629
640	 61.9271
636	 61.9564
632	 62.1414
628	 62.1701
624	 62.016
620	 62.1576
616	 62.6631
612	 63.1761
608	 63.2739
604	 63.0321
600	 62.6051
596	 62.1073
592	 62.1717
588	 62.6534
584	 62.8986
580	 63.255
576	 64.0867
572	 64.1067
568	 62.897
564	 62.0281
560	 62.0087
556	 62.1468
552	 61.9302
548	 61.7597
544	 62.1852
540	 62.3526
536	 61.6188
532	 60.9908
528	 61.7895
524	 63.2898
520	 63.9038
516	 63.708
512	 63.0813
508	 62.4959
504	 62.6977
500	 63.0537
496	 63.0595
492	 62.9805
488	 62.8789
484	 62.8598
480	 62.9697
476	 62.7997
472	 62.5955
468	 62.6713
464	 62.6348
460	 62.5366
456	 62.0443
452	 61.4544
448	 61.561
444	 61.6482
440	 61.6842
436	 62.0795
432	 62.8497
428	 64.0774
424	 64.3241
420	 62.5875
416	 60.4455
412	 59.6792
408	 61.6337
404	 64.6076
400	 64.1204
396	 63.0812
392	 65.6061
388	 71.794
384	 77.34
380	 73.282
376	 64.4039
372	 62.4709
370	 68.4494