File: Bakgrunnsmateriale/MATLAB/FTIR/ftir_data/subAa/Mapping_121/BZ1503107-1_t87_cm-1.asc
PE IR       SPECTRUM    SPECTRUM    ASCII       PEDS        1.60
  -1
BZ6F26~1.ASC
17/04/07
20:21:02.00
17/04/07
20:21:02.00
tln
$BZ1503107-1_t0087$<tbV0>[-10.4,5.2,8.0,0.0,27,1,0]
370
64

2002,4.07
MIRTGS : RIGHTBACK : INTERNAL 2
MIR : ON : INTERNAL 2
OPTKBR

0.200000
8
8.000000
FILLER
RATIO
SPECTRUM
UNLOCKED 256

DOUBLE
64
COMBINED
1
0
0

1.000000
RATIO

1
0
TRUE
51149
0
LEFT NOT FITTED RIGHT NOT FITTED 0
NONE
NONE
15600
12
4.427000
51148
TRUE
1 0 8 72 0 0 0 0

15798

#HDR
-1
-1
#GR
CM-1
%T
2.38419e-05
0.0
5000
-1.000000
4631
8
68.7953
40.6827
#DATA
5000	63.8935
4996	63.4543
4992	62.6949
4988	62.4177
4984	62.9336
4980	63.4149
4976	63.5243
4972	63.2097
4968	62.6187
4964	62.5545
4960	63.5172
4956	64.7266
4952	65.2469
4948	65.2421
4944	64.583
4940	63.6849
4936	63.7153
4932	64.357
4928	64.8744
4924	64.4383
4920	63.3294
4916	63.3074
4912	64.1495
4908	64.5233
4904	64.3044
4900	64.029
4896	64.0308
4892	64.0804
4888	64.0434
4884	64.0485
4880	64.1625
4876	64.2653
4872	64.139
4868	63.9542
4864	63.9942
4860	64.0399
4856	63.9044
4852	63.7916
4848	63.7324
4844	63.6653
4840	63.6662
4836	63.8541
4832	64.0828
4828	64.1204
4824	64.0025
4820	63.9045
4816	63.8824
4812	63.6675
4808	63.4392
4804	63.6043
4800	63.6967
4796	63.5283
4792	63.635
4788	63.9502
4784	64.0721
4780	63.9874
4776	64.0563
4772	64.3988
4768	64.6206
4764	64.5131
4760	64.1846
4756	63.8661
4752	63.844
4748	64.0092
4744	64.0926
4740	64.1078
4736	64.0445
4732	63.9467
4728	64.0759
4724	64.3639
4720	64.4856
4716	64.3722
4712	64.1117
4708	64.0047
4704	64.1495
4700	64.362
4696	64.356
4692	64.0998
4688	64.1107
4684	64.3171
4680	64.1999
4676	63.8914
4672	63.8276
4668	63.9146
4664	63.9218
4660	64.0962
4656	64.3548
4652	64.3202
4648	64.1185
4644	64.0311
4640	64.1347
4636	64.1829
4632	64.0209
4628	63.9185
4624	63.9628
4620	64.0097
4616	64.1106
4612	64.3103
4608	64.3595
4604	64.2117
4600	64.2261
4596	64.4037
4592	64.4016
4588	64.2291
4584	64.2056
4580	64.3701
4576	64.3385
4572	64.0729
4568	63.8962
4564	63.7898
4560	63.8075
4556	63.9445
4552	63.9384
4548	63.9865
4544	64.1491
4540	64.1203
4536	64.0543
4532	64.0277
4528	63.8869
4524	63.8123
4520	63.95
4516	64.1595
4512	64.3142
4508	64.3627
4504	64.1617
4500	63.9759
4496	64.0882
4492	64.2783
4488	64.4672
4484	64.6158
4480	64.6535
4476	64.5973
4472	63.999
4468	63.0297
4464	62.5461
4460	62.725
4456	62.9016
4452	61.906
4448	56.3354
4444	54.528
4440	63.8115
4436	68.277
4432	67.7698
4428	68.6782
4424	64.4819
4420	62.79
4416	66.3627
4412	68.0143
4408	66.4014
4404	64.4922
4400	63.6206
4396	63.4614
4392	63.2143
4388	63.3053
4384	63.5718
4380	63.6961
4376	63.4998
4372	63.4372
4368	63.8676
4364	64.2586
4360	64.6222
4356	64.7273
4352	64.5206
4348	64.2779
4344	63.989
4340	64.0165
4336	64.2703
4332	64.2533
4328	64.0966
4324	64.1908
4320	64.4054
4316	64.4184
4312	64.3121
4308	64.2935
4304	64.3535
4300	64.3339
4296	64.2313
4292	64.2419
4288	64.1802
4284	63.888
4280	63.7756
4276	63.8952
4272	64.0768
4268	64.2873
4264	64.2774
4260	64.0641
4256	64.0282
4252	64.2385
4248	64.4091
4244	64.4288
4240	64.4079
4236	64.295
4232	64.0282
4228	63.9251
4224	64.1824
4220	64.4986
4216	64.5771
4212	64.4082
4208	64.2449
4204	64.2104
4200	64.175
4196	64.1376
4192	64.0851
4188	64.0118
4184	63.9066
4180	63.8231
4176	63.8963
4172	64.0709
4168	64.1794
4164	64.0639
4160	63.9111
4156	63.942
4152	63.9828
4148	63.9765
4144	63.9694
4140	63.9307
4136	63.9792
4132	64.1432
4128	64.2568
4124	64.2952
4120	64.319
4116	64.2846
4112	64.1844
4108	64.1702
4104	64.329
4100	64.5188
4096	64.5993
4092	64.5794
4088	64.4855
4084	64.3731
4080	64.2828
4076	64.2728
4072	64.3206
4068	64.3076
4064	64.3299
4060	64.4388
4056	64.4949
4052	64.442
4048	64.3032
4044	64.1861
4040	64.2352
4036	64.39
4032	64.5266
4028	64.59
4024	64.5005
4020	64.3265
4016	64.3166
4012	64.4804
4008	64.4851
4004	64.3529
4000	64.2801
3996	64.222
3992	64.2801
3988	64.4454
3984	64.5436
3980	64.5036
3976	64.3897
3972	64.3331
3968	64.3096
3964	64.2858
3960	64.2418
3956	64.1278
3952	64.1708
3948	64.3639
3944	64.2908
3940	64.0785
3936	64.0983
3932	64.201
3928	64.1241
3924	64.0791
3920	64.2443
3916	64.3519
3912	64.3055
3908	64.3355
3904	64.4998
3900	64.5285
3896	64.382
3892	64.3284
3888	64.363
3884	64.2745
3880	64.2043
3876	64.2505
3872	64.3106
3868	64.4336
3864	64.5104
3860	64.5489
3856	64.5662
3852	64.4568
3848	64.336
3844	64.3528
3840	64.4719
3836	64.3995
3832	64.1807
3828	64.1403
3824	64.1663
3820	64.1874
3816	64.2874
3812	64.3351
3808	64.3361
3804	64.3869
3800	64.4295
3796	64.4449
3792	64.473
3788	64.5329
3784	64.6191
3780	64.6652
3776	64.6113
3772	64.4862
3768	64.3453
3764	64.188
3760	64.0706
3756	64.1196
3752	64.2991
3748	64.4575
3744	64.5478
3740	64.5693
3736	64.5351
3732	64.533
3728	64.483
3724	64.3279
3720	64.2759
3716	64.3532
3712	64.3944
3708	64.4365
3704	64.5527
3700	64.5861
3696	64.491
3692	64.4268
3688	64.4339
3684	64.4459
3680	64.4922
3676	64.5806
3672	64.5895
3668	64.5197
3664	64.4436
3660	64.4057
3656	64.417
3652	64.4243
3648	64.4249
3644	64.4229
3640	64.4539
3636	64.5199
3632	64.4891
3628	64.3576
3624	64.2429
3620	64.2192
3616	64.3044
3612	64.3953
3608	64.4267
3604	64.4341
3600	64.4539
3596	64.4943
3592	64.4977
3588	64.4372
3584	64.3625
3580	64.3187
3576	64.3253
3572	64.3944
3568	64.4803
3564	64.5232
3560	64.4964
3556	64.4485
3552	64.4396
3548	64.4238
3544	64.3581
3540	64.3073
3536	64.3626
3532	64.4359
3528	64.4324
3524	64.4193
3520	64.4761
3516	64.5027
3512	64.4156
3508	64.3377
3504	64.3435
3500	64.3772
3496	64.3703
3492	64.3677
3488	64.3877
3484	64.3493
3480	64.3149
3476	64.3768
3472	64.4873
3468	64.5392
3464	64.4947
3460	64.4611
3456	64.4972
3452	64.5236
3448	64.5254
3444	64.4835
3440	64.3217
3436	64.1505
3432	64.1521
3428	64.2644
3424	64.3329
3420	64.3622
3416	64.3693
3412	64.2961
3408	64.205
3404	64.2369
3400	64.3421
3396	64.3854
3392	64.3896
3388	64.3656
3384	64.3268
3380	64.3908
3376	64.4569
3372	64.4028
3368	64.3862
3364	64.4416
3360	64.4719
3356	64.4458
3352	64.3716
3348	64.381
3344	64.4656
3340	64.4588
3336	64.3599
3332	64.3319
3328	64.4087
3324	64.3742
3320	64.2514
3316	64.2171
3312	64.2154
3308	64.2426
3304	64.3513
3300	64.4648
3296	64.4382
3292	64.2865
3288	64.1424
3284	64.0793
3280	64.17
3276	64.3021
3272	64.3198
3268	64.2983
3264	64.2781
3260	64.2401
3256	64.2424
3252	64.2915
3248	64.3728
3244	64.4021
3240	64.3264
3236	64.3158
3232	64.3937
3228	64.4079
3224	64.3758
3220	64.3095
3216	64.2712
3212	64.3692
3208	64.4129
3204	64.3098
3200	64.2662
3196	64.2778
3192	64.2391
3188	64.2084
3184	64.2362
3180	64.3119
3176	64.3402
3172	64.2952
3168	64.2894
3164	64.3759
3160	64.4576
3156	64.474
3152	64.4794
3148	64.4263
3144	64.3386
3140	64.2627
3136	64.1868
3132	64.1738
3128	64.2533
3124	64.3792
3120	64.4462
3116	64.4587
3112	64.4083
3108	64.2769
3104	64.1944
3100	64.1917
3096	64.1989
3092	64.2021
3088	64.2519
3084	64.3346
3080	64.3513
3076	64.3505
3072	64.4291
3068	64.5083
3064	64.5297
3060	64.5031
3056	64.442
3052	64.4284
3048	64.4501
3044	64.413
3040	64.3783
3036	64.4
3032	64.3823
3028	64.2965
3024	64.2601
3020	64.3044
3016	64.3
3012	64.2108
3008	64.1227
3004	64.1038
3000	64.1418
2996	64.2265
2992	64.3217
2988	64.3371
2984	64.2899
2980	64.2781
2976	64.2366
2972	64.0834
2968	64.0469
2964	64.1671
2960	64.1909
2956	64.1146
2952	64.0709
2948	64.0744
2944	64.0983
2940	64.1422
2936	64.16
2932	64.0824
2928	63.9905
2924	64.0385
2920	64.1518
2916	64.1825
2912	64.1818
2908	64.2387
2904	64.2969
2900	64.2899
2896	64.2827
2892	64.2739
2888	64.2405
2884	64.274
2880	64.3319
2876	64.3064
2872	64.2101
2868	64.1452
2864	64.1761
2860	64.2241
2856	64.2724
2852	64.315
2848	64.3074
2844	64.2843
2840	64.2497
2836	64.2228
2832	64.2273
2828	64.2217
2824	64.2412
2820	64.2963
2816	64.3281
2812	64.3371
2808	64.3411
2804	64.3535
2800	64.3336
2796	64.2771
2792	64.2745
2788	64.2895
2784	64.2517
2780	64.2629
2776	64.3112
2772	64.2951
2768	64.3025
2764	64.3917
2760	64.4384
2756	64.4208
2752	64.4049
2748	64.3446
2744	64.2713
2740	64.2851
2736	64.3368
2732	64.3502
2728	64.3715
2724	64.4114
2720	64.3738
2716	64.2775
2712	64.2122
2708	64.2202
2704	64.2804
2700	64.273
2696	64.1956
2692	64.1771
2688	64.2254
2684	64.2667
2680	64.3151
2676	64.3372
2672	64.2798
2668	64.1826
2664	64.0921
2660	64.0849
2656	64.118
2652	64.1228
2648	64.1523
2644	64.155
2640	64.1287
2636	64.1447
2632	64.1873
2628	64.2632
2624	64.3013
2620	64.2756
2616	64.2835
2612	64.2681
2608	64.1775
2604	64.0991
2600	64.1091
2596	64.2031
2592	64.2566
2588	64.185
2584	64.1234
2580	64.176
2576	64.2376
2572	64.2219
2568	64.1652
2564	64.1364
2560	64.1667
2556	64.163
2552	64.1129
2548	64.1323
2544	64.1835
2540	64.1755
2536	64.1606
2532	64.2019
2528	64.2252
2524	64.2139
2520	64.204
2516	64.155
2512	64.1027
2508	64.1082
2504	64.13
2500	64.1528
2496	64.2007
2492	64.2249
2488	64.2407
2484	64.2625
2480	64.2197
2476	64.1517
2472	64.1471
2468	64.1823
2464	64.1847
2460	64.1539
2456	64.1063
2452	64.0583
2448	64.0685
2444	64.0825
2440	64.0522
2436	64.0768
2432	64.1317
2428	64.1165
2424	64.1071
2420	64.1738
2416	64.2338
2412	64.2335
2408	64.1788
2404	64.1122
2400	64.0939
2396	64.0604
2392	63.9916
2388	63.9771
2384	64.0044
2380	64.0003
2376	63.9816
2372	63.9974
2368	64.0168
2364	64.0326
2360	64.0727
2356	64.0771
2352	64.0486
2348	64.0659
2344	64.0815
2340	64.071
2336	64.0833
2332	64.094
2328	64.0656
2324	64.0563
2320	64.079
2316	64.0843
2312	64.1007
2308	64.1325
2304	64.1226
2300	64.0333
2296	63.9682
2292	64.0161
2288	64.0646
2284	64.0574
2280	64.0429
2276	64.0276
2272	64.0371
2268	64.089
2264	64.1277
2260	64.1151
2256	64.0785
2252	64.047
2248	64.0021
2244	63.957
2240	63.9476
2236	63.9642
2232	64.0307
2228	64.1222
2224	64.1263
2220	64.0457
2216	63.977
2212	63.9853
2208	64.0383
2204	64.0203
2200	63.9603
2196	63.9725
2192	64.0218
2188	64.0369
2184	64.0305
2180	64.0234
2176	63.9859
2172	63.9184
2168	63.9134
2164	63.9791
2160	63.9816
2156	63.9287
2152	63.902
2148	63.8902
2144	63.8954
2140	63.8819
2136	63.8588
2132	63.8813
2128	63.9305
2124	63.9348
2120	63.8806
2116	63.8852
2112	63.9614
2108	63.979
2104	63.9187
2100	63.8593
2096	63.8419
2092	63.8553
2088	63.8752
2084	63.883
2080	63.9057
2076	63.9278
2072	63.8582
2068	63.816
2064	63.8978
2060	63.9108
2056	63.8237
2052	63.7565
2048	63.7372
2044	63.7702
2040	63.8206
2036	63.8313
2032	63.7915
2028	63.7612
2024	63.806
2020	63.891
2016	63.9054
2012	63.8437
2008	63.8088
2004	63.8191
2000	63.7789
1996	63.6918
1992	63.677
1988	63.7255
1984	63.7442
1980	63.7109
1976	63.6677
1972	63.6758
1968	63.7427
1964	63.8117
1960	63.8267
1956	63.8052
1952	63.8057
1948	63.8279
1944	63.831
1940	63.7879
1936	63.7383
1932	63.7586
1928	63.8061
1924	63.8054
1920	63.783
1916	63.8033
1912	63.8475
1908	63.8182
1904	63.7461
1900	63.7196
1896	63.7214
1892	63.7279
1888	63.7092
1884	63.7029
1880	63.7461
1876	63.7438
1872	63.7054
1868	63.7029
1864	63.7237
1860	63.7395
1856	63.7234
1852	63.7222
1848	63.751
1844	63.7357
1840	63.668
1836	63.6206
1832	63.6478
1828	63.6796
1824	63.6521
1820	63.6411
1816	63.6553
1812	63.6348
1808	63.616
1804	63.6615
1800	63.7288
1796	63.7655
1792	63.7583
1788	63.6981
1784	63.6463
1780	63.6436
1776	63.6753
1772	63.7087
1768	63.679
1764	63.6068
1760	63.6036
1756	63.6039
1752	63.5147
1748	63.4218
1744	63.3585
1740	63.2994
1736	63.2655
1732	63.2957
1728	63.3595
1724	63.3926
1720	63.4509
1716	63.559
1712	63.594
1708	63.5189
1704	63.4336
1700	63.4152
1696	63.458
1692	63.5106
1688	63.5163
1684	63.4912
1680	63.4756
1676	63.4052
1672	63.3208
1668	63.3335
1664	63.3928
1660	63.4815
1656	63.5623
1652	63.544
1648	63.5434
1644	63.5954
1640	63.5544
1636	63.4488
1632	63.4361
1628	63.5173
1624	63.573
1620	63.588
1616	63.5675
1612	63.4582
1608	63.3306
1604	63.3282
1600	63.4312
1596	63.456
1592	63.3718
1588	63.3892
1584	63.4633
1580	63.4058
1576	63.329
1572	63.3081
1568	63.293
1564	63.3061
1560	63.3243
1556	63.3389
1552	63.3238
1548	63.2812
1544	63.3419
1540	63.437
1536	63.4032
1532	63.3224
1528	63.3088
1524	63.357
1520	63.3889
1516	63.3617
1512	63.3478
1508	63.4206
1504	63.4684
1500	63.3944
1496	63.3096
1492	63.2809
1488	63.2766
1484	63.301
1480	63.3196
1476	63.3205
1472	63.3296
1468	63.326
1464	63.32
1460	63.3761
1456	63.3964
1452	63.2688
1448	63.1494
1444	63.154
1440	63.2206
1436	63.3191
1432	63.4033
1428	63.4535
1424	63.4706
1420	63.3879
1416	63.2625
1412	63.1801
1408	63.1849
1404	63.2694
1400	63.3097
1396	63.294
1392	63.2944
1388	63.262
1384	63.1395
1380	63.0839
1376	63.1763
1372	63.2939
1368	63.3107
1364	63.2128
1360	63.1581
1356	63.1853
1352	63.1965
1348	63.1788
1344	63.1462
1340	63.1672
1336	63.2304
1332	63.1954
1328	63.1404
1324	63.1761
1320	63.1866
1316	63.1259
1312	63.0876
1308	63.0801
1304	63.0737
1300	63.043
1296	62.9852
1292	62.9749
1288	62.9988
1284	62.9975
1280	63.0092
1276	63.0427
1272	63.0572
1268	63.0035
1264	62.8834
1260	62.8419
1256	62.932
1252	62.9973
1248	62.9483
1244	62.8596
1240	62.8337
1236	62.9112
1232	63.0025
1228	63.0284
1224	63.0039
1220	62.9707
1216	63.0084
1212	63.0577
1208	63.0192
1204	62.9673
1200	62.9478
1196	62.931
1192	62.8602
1188	62.8304
1184	62.9114
1180	62.9384
1176	62.8889
1172	62.8283
1168	62.8005
1164	62.8572
1160	62.9375
1156	62.9754
1152	62.9645
1148	62.96
1144	62.9666
1140	62.9205
1136	62.8846
1132	62.869
1128	62.8513
1124	62.8936
1120	62.948
1116	62.9832
1112	62.9592
1108	62.8444
1104	62.7645
1100	62.7442
1096	62.7766
1092	62.8971
1088	63.0127
1084	63.0057
1080	62.9044
1076	62.8614
1072	62.9049
1068	62.9301
1064	62.8855
1060	62.8308
1056	62.8519
1052	62.9172
1048	62.9317
1044	62.8799
1040	62.8155
1036	62.813
1032	62.873
1028	62.8623
1024	62.8263
1020	62.9679
1016	63.1129
1012	63.0487
1008	62.9441
1004	62.8974
1000	62.8181
996	 62.714
992	 62.7019
988	 62.8181
984	 62.953
980	 63.0271
976	 63.0306
972	 62.9359
968	 62.8813
964	 62.9196
960	 62.9232
956	 62.9307
952	 62.903
948	 62.8796
944	 62.9899
940	 63.0231
936	 62.9283
932	 62.9336
928	 63.0344
924	 63.0217
920	 62.8401
916	 62.7416
912	 62.8394
908	 62.9568
904	 62.9565
900	 62.8331
896	 62.7821
892	 62.8701
888	 62.9831
884	 63.0679
880	 63.0117
876	 62.9382
872	 63.006
868	 62.9945
864	 62.8261
860	 62.7326
856	 62.7912
852	 62.8361
848	 62.8045
844	 62.81
840	 62.9065
836	 62.9019
832	 62.7711
828	 62.8065
824	 62.9541
820	 62.9282
816	 62.7647
812	 62.6475
808	 62.6412
804	 62.643
800	 62.6236
796	 62.6544
792	 62.6837
788	 62.6524
784	 62.6201
780	 62.7338
776	 62.9063
772	 62.8775
768	 62.7411
764	 62.6814
760	 62.6604
756	 62.6035
752	 62.535
748	 62.468
744	 62.4344
740	 62.4815
736	 62.4992
732	 62.4428
728	 62.3919
724	 62.3869
720	 62.4963
716	 62.7519
712	 62.807
708	 62.4693
704	 62.2403
700	 62.3217
696	 62.4686
692	 62.689
688	 62.8551
684	 62.8323
680	 62.8635
676	 62.8877
672	 62.7103
668	 62.4039
664	 62.2632
660	 62.4041
656	 62.4724
652	 62.4272
648	 62.3379
644	 62.1162
640	 61.8034
636	 61.5582
632	 61.7138
628	 62.0993
624	 62.1751
620	 62.2251
616	 62.6755
612	 63.0478
608	 62.823
604	 62.4747
600	 62.3363
596	 62.0332
592	 61.9417
588	 62.0887
584	 62.1001
580	 62.2139
576	 62.3149
572	 62.6217
568	 63.0172
564	 62.9467
560	 62.8976
556	 62.9546
552	 62.8761
548	 62.6764
544	 62.7406
540	 62.8289
536	 62.0699
532	 61.8857
528	 62.7874
524	 63.2027
520	 63.0883
516	 63.2701
512	 63.5097
508	 63.2319
504	 62.796
500	 62.8608
496	 63.2253
492	 63.4347
488	 63.2419
484	 62.324
480	 61.6583
476	 61.775
472	 62.1384
468	 62.787
464	 63.392
460	 63.5136
456	 62.675
452	 61.3442
448	 61.5654
444	 62.7035
440	 62.9651
436	 63.0127
432	 62.6079
428	 62.2135
424	 62.6722
420	 62.5169
416	 61.7736
412	 60.383
408	 58.0617
404	 57.4649
400	 59.3129
396	 59.1672
392	 57.4841
388	 57.5521
384	 52.6249
380	 43.5623
376	 40.6827
372	 42.4539
370	 47.4088