File: Bakgrunnsmateriale/MATLAB/FTIR/ftir_data/subAa/Mapping_121/BZ1503107-1_t105_cm-1.asc
PE IR       SPECTRUM    SPECTRUM    ASCII       PEDS        1.60
  -1
BZCBFB~1.ASC
17/04/07
21:51:18.00
17/04/07
21:51:18.00
tln
$BZ1503107-1_t0105$<tbV0>[0.0,10.4,8.0,0.0,27,1,0]
370
64

2002,4.07
MIRTGS : RIGHTBACK : INTERNAL 2
MIR : ON : INTERNAL 2
OPTKBR

0.200000
8
8.000000
FILLER
RATIO
SPECTRUM
UNLOCKED 256

DOUBLE
64
COMBINED
1
0
0

1.000000
RATIO

1
0
TRUE
51149
0
LEFT NOT FITTED RIGHT NOT FITTED 0
NONE
NONE
15600
12
4.427000
51148
TRUE
1 0 8 72 0 0 0 0

15798

#HDR
-1
-1
#GR
CM-1
%T
2.38419e-05
0.0
5000
-1.000000
4631
8
81.5861
55.794
#DATA
5000	66.2032
4996	67.0905
4992	66.3849
4988	64.4966
4984	62.6074
4980	61.4891
4976	61.466
4972	62.6682
4968	63.7475
4964	64.3893
4960	65.0087
4956	65.6531
4952	66.8917
4948	67.3517
4944	65.8922
4940	64.5777
4936	64.3514
4932	64.2931
4928	64.6568
4924	65.271
4920	65.1209
4916	64.5715
4912	64.6728
4908	65.3137
4904	64.9673
4900	64.1196
4896	64.0862
4892	64.2541
4888	64.3467
4884	64.6142
4880	64.7288
4876	64.5624
4872	64.5106
4868	64.6805
4864	64.8913
4860	65.1415
4856	65.2478
4852	64.92
4848	64.5832
4844	64.553
4840	64.4124
4836	64.3664
4832	64.6393
4828	64.766
4824	64.7674
4820	64.9663
4816	65.3231
4812	65.4023
4808	65.209
4804	65.2082
4800	65.3359
4796	65.3671
4792	65.2996
4788	65.2102
4784	65.2698
4780	65.4244
4776	65.3996
4772	65.1207
4768	64.8433
4764	64.9575
4760	65.1881
4756	65.0213
4752	64.9001
4748	65.0779
4744	65.1053
4740	65.11
4736	65.2247
4732	65.0687
4728	64.7392
4724	64.7343
4720	64.9595
4716	64.9948
4712	64.943
4708	65.0151
4704	65.07
4700	65.0534
4696	64.9763
4692	64.8659
4688	64.9986
4684	65.2935
4680	65.3189
4676	65.1419
4672	65.2282
4668	65.448
4664	65.4327
4660	65.2983
4656	65.1739
4652	65.1044
4648	65.0671
4644	65.0183
4640	65.0125
4636	65.1469
4632	65.3546
4628	65.3133
4624	65.0798
4620	64.9164
4616	64.7929
4612	64.6328
4608	64.4406
4604	64.4096
4600	64.4827
4596	64.4994
4592	64.6103
4588	64.7666
4584	64.8327
4580	64.79
4576	64.7532
4572	64.959
4568	65.1857
4564	65.0336
4560	64.7179
4556	64.6116
4552	64.6515
4548	64.6672
4544	64.8501
4540	65.0536
4536	64.9816
4532	64.8646
4528	64.7623
4524	64.6988
4520	64.6791
4516	64.52
4512	64.4666
4508	64.776
4504	65.0868
4500	64.9384
4496	64.449
4492	64.0394
4488	63.8828
4484	63.9429
4480	64.2437
4476	64.3213
4472	64.1317
4468	64.2076
4464	64.7137
4460	65.4071
4456	65.5398
4452	66.7358
4448	72.4269
4444	81.3733
4440	75.0945
4436	63.5077
4432	58.977
4428	56.065
4424	58.094
4420	63.8456
4416	65.7475
4412	64.651
4408	63.8724
4404	64.3284
4400	65.045
4396	65.308
4392	65.2608
4388	64.9904
4384	64.7512
4380	64.7526
4376	64.9465
4372	65.1238
4368	65.0266
4364	64.7993
4360	64.6732
4356	64.7847
4352	65.1193
4348	65.3559
4344	65.2303
4340	64.943
4336	64.7473
4332	64.6365
4328	64.6398
4324	64.8388
4320	65.0822
4316	65.0002
4312	64.7375
4308	64.6426
4304	64.6003
4300	64.672
4296	64.8908
4292	65.0611
4288	65.0848
4284	64.9384
4280	64.8294
4276	64.8363
4272	64.7095
4268	64.481
4264	64.4457
4260	64.62
4256	64.8956
4252	65.1231
4248	65.1236
4244	65.0213
4240	64.9678
4236	64.9507
4232	64.9514
4228	64.8603
4224	64.6359
4220	64.5563
4216	64.7813
4212	65.0135
4208	65.1012
4204	65.0772
4200	64.9714
4196	64.9524
4192	65.1465
4188	65.314
4184	65.1829
4180	65.0488
4176	65.146
4172	65.2694
4168	65.2106
4164	65.0431
4160	64.9804
4156	65.0462
4152	65.1285
4148	65.0932
4144	64.9307
4140	64.8391
4136	65.0044
4132	65.274
4128	65.2618
4124	64.9641
4120	64.8093
4116	64.9037
4112	65.055
4108	65.0861
4104	64.9946
4100	65.0754
4096	65.2384
4092	65.1353
4088	64.9343
4084	64.9502
4080	65.052
4076	65.0734
4072	65.0931
4068	65.1572
4064	65.3234
4060	65.3902
4056	65.2025
4052	65.0817
4048	65.0853
4044	65.0755
4040	65.1396
4036	65.2549
4032	65.3558
4028	65.3311
4024	65.0846
4020	64.9235
4016	65.012
4012	65.0948
4008	65.0836
4004	65.115
4000	65.167
3996	65.0899
3992	64.9207
3988	64.7933
3984	64.7938
3980	64.8022
3976	64.7574
3972	64.8794
3968	65.0496
3964	65.0416
3960	64.9931
3956	65.0725
3952	65.1051
3948	64.8152
3944	64.6477
3940	64.9513
3936	65.2704
3932	65.3559
3928	65.2144
3924	64.9627
3920	64.8348
3916	64.8101
3912	64.8416
3908	64.9423
3904	64.9878
3900	65.0069
3896	65.0824
3892	65.034
3888	64.9336
3884	64.9992
3880	65.0419
3876	64.8803
3872	64.7188
3868	64.7604
3864	64.9386
3860	65.072
3856	65.0554
3852	64.9751
3848	64.9377
3844	64.9787
3840	65.0135
3836	64.9376
3832	64.8716
3828	64.8757
3824	64.883
3820	64.8306
3816	64.7324
3812	64.7311
3808	64.7433
3804	64.6308
3800	64.6277
3796	64.8701
3792	65.045
3788	65.001
3784	64.9925
3780	65.0577
3776	65.0424
3772	65.0265
3768	65.0434
3764	65.0161
3760	65.0424
3756	65.1383
3752	65.1324
3748	65.0212
3744	64.9571
3740	64.9554
3736	65.0156
3732	65.0692
3728	65.0146
3724	64.9806
3720	65.0691
3716	65.1946
3712	65.2196
3708	65.1778
3704	65.2026
3700	65.2147
3696	65.1658
3692	65.1671
3688	65.2298
3684	65.2344
3680	65.1015
3676	64.97
3672	65.0023
3668	65.0716
3664	65.0398
3660	64.9978
3656	64.9887
3652	64.9638
3648	64.9761
3644	65.02
3640	65.0973
3636	65.2133
3632	65.23
3628	65.152
3624	65.0297
3620	64.9369
3616	64.956
3612	64.9726
3608	64.9791
3604	65.0176
3600	65.0491
3596	65.1425
3592	65.2327
3588	65.1739
3584	65.1119
3580	65.1088
3576	65.0544
3572	65.0029
3568	65.0707
3564	65.1745
3560	65.129
3556	64.9962
3552	64.8882
3548	64.8173
3544	64.7932
3540	64.8723
3536	64.9579
3532	64.9863
3528	65.087
3524	65.1262
3520	65.0313
3516	64.9148
3512	64.8085
3508	64.8452
3504	64.9888
3500	65.016
3496	64.9891
3492	65.0674
3488	65.1489
3484	65.066
3480	64.9876
3476	65.1007
3472	65.1717
3468	65.0962
3464	65.0064
3460	64.9526
3456	64.9662
3452	64.9832
3448	64.9724
3444	65.0105
3440	65.0424
3436	65.0326
3432	65.0322
3428	65.0386
3424	65.0057
3420	64.9081
3416	64.8813
3412	64.9661
3408	65.0013
3404	64.9286
3400	64.8598
3396	64.8585
3392	64.8763
3388	64.9099
3384	64.9439
3380	64.9199
3376	64.8675
3372	64.8685
3368	64.9177
3364	64.9513
3360	64.9492
3356	64.9847
3352	64.9726
3348	64.8038
3344	64.7187
3340	64.7833
3336	64.851
3332	64.8767
3328	64.8339
3324	64.8232
3320	64.8929
3316	64.9742
3312	64.997
3308	64.9189
3304	64.8688
3300	64.9968
3296	65.1896
3292	65.1756
3288	64.989
3284	64.8299
3280	64.7764
3276	64.8435
3272	64.877
3268	64.8658
3264	64.8971
3260	64.929
3256	64.9678
3252	64.9947
3248	64.9654
3244	64.9156
3240	64.9479
3236	65.048
3232	65.0833
3228	64.9868
3224	64.8374
3220	64.745
3216	64.7375
3212	64.7588
3208	64.7504
3204	64.803
3200	64.9249
3196	64.9685
3192	64.9426
3188	64.9308
3184	64.9102
3180	64.9091
3176	64.9347
3172	64.9542
3168	64.9575
3164	64.8264
3160	64.6482
3156	64.5923
3152	64.6137
3148	64.6766
3144	64.7681
3140	64.8698
3136	64.897
3132	64.7778
3128	64.7116
3124	64.8139
3120	64.8873
3116	64.8514
3112	64.7513
3108	64.6426
3104	64.7027
3100	64.8965
3096	64.9852
3092	64.9912
3088	64.9836
3084	64.9011
3080	64.8292
3076	64.8494
3072	64.8458
3068	64.8077
3064	64.8347
3060	64.9213
3056	65.0011
3052	65.0301
3048	65.0345
3044	65.0031
3040	64.9128
3036	64.8554
3032	64.8925
3028	64.919
3024	64.8575
3020	64.8367
3016	64.9214
3012	64.9456
3008	64.8801
3004	64.836
3000	64.8024
2996	64.7508
2992	64.7024
2988	64.6858
2984	64.6972
2980	64.724
2976	64.7421
2972	64.7577
2968	64.7566
2964	64.6655
2960	64.5582
2956	64.5144
2952	64.5633
2948	64.7254
2944	64.8003
2940	64.6883
2936	64.6263
2932	64.7
2928	64.7448
2924	64.7237
2920	64.7228
2916	64.7335
2912	64.7207
2908	64.7366
2904	64.7436
2900	64.6627
2896	64.5757
2892	64.5617
2888	64.5831
2884	64.6171
2880	64.6293
2876	64.5944
2872	64.583
2868	64.6055
2864	64.6554
2860	64.7306
2856	64.7147
2852	64.6116
2848	64.5788
2844	64.6259
2840	64.6691
2836	64.6874
2832	64.7063
2828	64.7346
2824	64.7495
2820	64.7553
2816	64.7664
2812	64.7719
2808	64.7488
2804	64.7488
2800	64.7547
2796	64.7037
2792	64.6734
2788	64.6711
2784	64.6776
2780	64.6967
2776	64.6757
2772	64.6369
2768	64.6519
2764	64.7225
2760	64.76
2756	64.7324
2752	64.7185
2748	64.7133
2744	64.695
2740	64.6853
2736	64.6748
2732	64.7095
2728	64.7887
2724	64.8163
2720	64.7599
2716	64.7248
2712	64.7514
2708	64.7199
2704	64.63
2700	64.5696
2696	64.5324
2692	64.5078
2688	64.5445
2684	64.6195
2680	64.6592
2676	64.693
2672	64.7068
2668	64.674
2664	64.6394
2660	64.6387
2656	64.6857
2652	64.7495
2648	64.7662
2644	64.7091
2640	64.6496
2636	64.6312
2632	64.661
2628	64.6885
2624	64.6427
2620	64.5901
2616	64.5847
2612	64.5869
2608	64.578
2604	64.5461
2600	64.5111
2596	64.5313
2592	64.5641
2588	64.5961
2584	64.6767
2580	64.7273
2576	64.7016
2572	64.6527
2568	64.5728
2564	64.4989
2560	64.5128
2556	64.5755
2552	64.6119
2548	64.6192
2544	64.6308
2540	64.6492
2536	64.6278
2532	64.5654
2528	64.5391
2524	64.5708
2520	64.5876
2516	64.5918
2512	64.6399
2508	64.6586
2504	64.5959
2500	64.5689
2496	64.5631
2492	64.4995
2488	64.4583
2484	64.4295
2480	64.3995
2476	64.4393
2472	64.508
2468	64.5235
2464	64.5265
2460	64.5758
2456	64.6262
2452	64.6302
2448	64.6175
2444	64.6241
2440	64.6297
2436	64.5839
2432	64.5523
2428	64.5969
2424	64.5897
2420	64.5051
2416	64.4581
2412	64.4835
2408	64.5126
2404	64.4815
2400	64.482
2396	64.5536
2392	64.5386
2388	64.4414
2384	64.4469
2380	64.5181
2376	64.4862
2372	64.4459
2368	64.5148
2364	64.5721
2360	64.571
2356	64.5402
2352	64.4846
2348	64.4433
2344	64.4136
2340	64.3773
2336	64.3535
2332	64.365
2328	64.412
2324	64.4943
2320	64.5267
2316	64.4743
2312	64.4688
2308	64.5004
2304	64.4813
2300	64.4317
2296	64.4127
2292	64.449
2288	64.4671
2284	64.4323
2280	64.3739
2276	64.3501
2272	64.3809
2268	64.3965
2264	64.4022
2260	64.4183
2256	64.4149
2252	64.4152
2248	64.4301
2244	64.391
2240	64.3362
2236	64.3557
2232	64.399
2228	64.4327
2224	64.437
2220	64.3965
2216	64.368
2212	64.3404
2208	64.2947
2204	64.2591
2200	64.2609
2196	64.2741
2192	64.2335
2188	64.2152
2184	64.2546
2180	64.2866
2176	64.3118
2172	64.3131
2168	64.2783
2164	64.2511
2160	64.2693
2156	64.3035
2152	64.2891
2148	64.2346
2144	64.2423
2140	64.297
2136	64.3
2132	64.28
2128	64.2853
2124	64.2873
2120	64.3075
2116	64.3255
2112	64.2475
2108	64.17
2104	64.1745
2100	64.2206
2096	64.3008
2092	64.3239
2088	64.2708
2084	64.2482
2080	64.2376
2076	64.1894
2072	64.1004
2068	64.0541
2064	64.1606
2060	64.2794
2056	64.2746
2052	64.2356
2048	64.1915
2044	64.1192
2040	64.0924
2036	64.142
2032	64.1661
2028	64.129
2024	64.1089
2020	64.1269
2016	64.1462
2012	64.1478
2008	64.1298
2004	64.0957
2000	64.0972
1996	64.1542
1992	64.2057
1988	64.2046
1984	64.156
1980	64.1233
1976	64.1258
1972	64.1173
1968	64.0945
1964	64.08
1960	64.0973
1956	64.1446
1952	64.1334
1948	64.0483
1944	64.0103
1940	64.0414
1936	64.0187
1932	63.9531
1928	63.9368
1924	63.9474
1920	63.9572
1916	63.9899
1912	64.069
1908	64.1059
1904	64.0697
1900	64.0548
1896	64.045
1892	64.0205
1888	64.017
1884	63.9971
1880	63.9763
1876	64.0007
1872	64.0138
1868	64.008
1864	64.0498
1860	64.0938
1856	64.0772
1852	64.0171
1848	63.9442
1844	63.919
1840	63.9559
1836	63.9827
1832	63.9756
1828	63.9607
1824	63.9532
1820	63.9402
1816	63.9223
1812	63.9254
1808	63.9313
1804	63.9161
1800	63.8754
1796	63.8322
1792	63.8145
1788	63.8012
1784	63.7789
1780	63.7727
1776	63.8226
1772	63.8737
1768	63.8362
1764	63.7775
1760	63.7637
1756	63.6967
1752	63.5372
1748	63.4265
1744	63.3865
1740	63.3037
1736	63.2155
1732	63.246
1728	63.3702
1724	63.4747
1720	63.5472
1716	63.5761
1712	63.5648
1708	63.5945
1704	63.6537
1700	63.6927
1696	63.6788
1692	63.6086
1688	63.5623
1684	63.5747
1680	63.5879
1676	63.5924
1672	63.6311
1668	63.6804
1664	63.7164
1660	63.7125
1656	63.6755
1652	63.6968
1648	63.7174
1644	63.6542
1640	63.6276
1636	63.6687
1632	63.6595
1628	63.5772
1624	63.5309
1620	63.5699
1616	63.633
1612	63.6927
1608	63.7014
1604	63.6499
1600	63.6245
1596	63.6518
1592	63.6924
1588	63.6993
1584	63.6374
1580	63.5536
1576	63.5565
1572	63.6302
1568	63.6623
1564	63.6059
1560	63.5275
1556	63.4925
1552	63.4952
1548	63.5335
1544	63.5808
1540	63.564
1536	63.5184
1532	63.5239
1528	63.5401
1524	63.5221
1520	63.5043
1516	63.5095
1512	63.5172
1508	63.4825
1504	63.4199
1500	63.43
1496	63.5029
1492	63.5078
1488	63.4479
1484	63.3695
1480	63.2975
1476	63.3091
1472	63.3903
1468	63.4322
1464	63.4031
1460	63.3443
1456	63.2823
1452	63.2787
1448	63.3309
1444	63.332
1440	63.2907
1436	63.2541
1432	63.1975
1428	63.19
1424	63.2677
1420	63.3237
1416	63.3314
1412	63.3344
1408	63.3011
1404	63.2667
1400	63.2803
1396	63.294
1392	63.3016
1388	63.2843
1384	63.2868
1380	63.3026
1376	63.1996
1372	63.1017
1368	63.1396
1364	63.1505
1360	63.0819
1356	63.0356
1352	63.0615
1348	63.1453
1344	63.2178
1340	63.2132
1336	63.1863
1332	63.221
1328	63.2166
1324	63.1582
1320	63.1615
1316	63.1939
1312	63.1931
1308	63.1728
1304	63.1666
1300	63.1777
1296	63.1697
1292	63.1277
1288	63.0639
1284	63.0017
1280	62.9733
1276	62.9776
1272	62.9971
1268	63.0132
1264	63.0149
1260	62.993
1256	62.9158
1252	62.8754
1248	62.9314
1244	62.9433
1240	62.8679
1236	62.8155
1232	62.8822
1228	63.0054
1224	63.0969
1220	63.1217
1216	63.0896
1212	63.0655
1208	63.0233
1204	62.9644
1200	62.9467
1196	62.943
1192	62.9013
1188	62.8336
1184	62.7804
1180	62.7701
1176	62.7859
1172	62.8089
1168	62.7833
1164	62.6882
1160	62.655
1156	62.7122
1152	62.7599
1148	62.785
1144	62.8148
1140	62.8676
1136	62.9113
1132	62.8572
1128	62.8093
1124	62.8632
1120	62.8934
1116	62.8423
1112	62.8139
1108	62.8645
1104	62.9143
1100	62.8783
1096	62.8569
1092	62.8773
1088	62.8566
1084	62.8175
1080	62.7163
1076	62.601
1072	62.6446
1068	62.7608
1064	62.8079
1060	62.8425
1056	62.8872
1052	62.8946
1048	62.8501
1044	62.8086
1040	62.8118
1036	62.8091
1032	62.7879
1028	62.7682
1024	62.7591
1020	62.7414
1016	62.7026
1012	62.7059
1008	62.7186
1004	62.6754
1000	62.7499
996	 62.8905
992	 62.8648
988	 62.7984
984	 62.8112
980	 62.8465
976	 62.797
972	 62.6682
968	 62.5597
964	 62.5298
960	 62.606
956	 62.6885
952	 62.6542
948	 62.602
944	 62.6324
940	 62.6928
936	 62.7116
932	 62.7061
928	 62.777
924	 62.8473
920	 62.8447
916	 62.7869
912	 62.7207
908	 62.6639
904	 62.5013
900	 62.3108
896	 62.2361
892	 62.3381
888	 62.6021
884	 62.8232
880	 62.8501
876	 62.7929
872	 62.7521
868	 62.7251
864	 62.7439
860	 62.7061
856	 62.5916
852	 62.5843
848	 62.6755
844	 62.6638
840	 62.5307
836	 62.4129
832	 62.3487
828	 62.3269
824	 62.5109
820	 62.8594
816	 62.9901
812	 62.8509
808	 62.6047
804	 62.3654
800	 62.3532
796	 62.5662
792	 62.6729
788	 62.6051
784	 62.4885
780	 62.4337
776	 62.4659
772	 62.423
768	 62.3098
764	 62.2838
760	 62.3348
756	 62.3531
752	 62.3332
748	 62.2958
744	 62.2085
740	 62.1994
736	 62.3213
732	 62.2964
728	 62.1846
724	 62.1959
720	 62.1914
716	 62.196
712	 62.2534
708	 62.2223
704	 62.1325
700	 62.0348
696	 61.9548
692	 62.0724
688	 62.3091
684	 62.205
680	 61.8312
676	 61.7935
672	 62.1287
668	 62.2859
664	 62.2107
660	 62.089
656	 61.8866
652	 61.7646
648	 61.8863
644	 62.2491
640	 62.5077
636	 62.4013
632	 62.2444
628	 62.1302
624	 61.9362
620	 61.695
616	 61.1402
612	 60.7908
608	 61.391
604	 61.8241
600	 61.3954
596	 61.182
592	 61.4281
588	 61.466
584	 61.7688
580	 62.1625
576	 62.0211
572	 62.2534
568	 62.4348
564	 62.2257
560	 62.2846
556	 62.2402
552	 62.1891
548	 61.9581
544	 61.2386
540	 60.8842
536	 61.0943
532	 60.9533
528	 60.49
524	 61.0576
520	 62.057
516	 61.7741
512	 61.2674
508	 61.2673
504	 60.7251
500	 59.6899
496	 59.3955
492	 60.5396
488	 61.6442
484	 61.3547
480	 60.8995
476	 61.2082
472	 61.3579
468	 60.7538
464	 60.7503
460	 61.6172
456	 61.9784
452	 61.6018
448	 60.7918
444	 60.3847
440	 60.8388
436	 61.3227
432	 60.5415
428	 59.4644
424	 60.6734
420	 62.9213
416	 62.5745
412	 61.4183
408	 62.3416
404	 63.0519
400	 60.786
396	 56.6415
392	 57.0388
388	 65.2597
384	 68.8081
380	 61.3644
376	 59.6827
372	 63.2785
370	 60.887