File: Bakgrunnsmateriale/MATLAB/FTIR/ftir_data/subAa/Mapping_121/BZ1503107-1_t46_cm-1.asc
PE IR       SPECTRUM    SPECTRUM    ASCII       PEDS        1.60
  -1
BZ6E24~1.ASC
17/04/07
17:03:40.00
17/04/07
17:03:40.00
tln
$BZ1503107-1_t0046$<tbV0>[10.4,-2.6,8.0,0.0,27,1,0]
370
64

2002,4.07
MIRTGS : RIGHTBACK : INTERNAL 2
MIR : ON : INTERNAL 2
OPTKBR

0.200000
8
8.000000
FILLER
RATIO
SPECTRUM
UNLOCKED 256

DOUBLE
64
COMBINED
1
0
0

1.000000
RATIO

1
0
TRUE
51149
0
LEFT NOT FITTED RIGHT NOT FITTED 0
NONE
NONE
15600
12
4.427000
51148
TRUE
1 0 8 72 0 0 0 0

15798

#HDR
-1
-1
#GR
CM-1
%T
2.38419e-05
0.0
5000
-1.000000
4631
8
66.8786
44.0223
#DATA
5000	65.7518
4996	66.5196
4992	65.8582
4988	65.2281
4984	65.4634
4980	65.7619
4976	65.4738
4972	65.0379
4968	64.5895
4964	64.4944
4960	64.4885
4956	64.4626
4952	64.7222
4948	64.9538
4944	65.0578
4940	65.225
4936	65.2258
4932	64.943
4928	64.9506
4924	65.2395
4920	65.4421
4916	65.5536
4912	65.5314
4908	65.2218
4904	64.9641
4900	65.0793
4896	65.0082
4892	64.7029
4888	64.6809
4884	64.8073
4880	64.8396
4876	64.8351
4872	64.7665
4868	64.6148
4864	64.5606
4860	64.7091
4856	64.8742
4852	64.8467
4848	64.6962
4844	64.6539
4840	64.6723
4836	64.6508
4832	64.607
4828	64.4614
4824	64.3541
4820	64.4043
4816	64.4911
4812	64.6204
4808	64.8023
4804	64.8282
4800	64.7084
4796	64.6531
4792	64.5784
4788	64.5346
4784	64.6263
4780	64.7709
4776	64.8668
4772	64.7101
4768	64.5202
4764	64.5527
4760	64.6223
4756	64.5802
4752	64.4771
4748	64.5095
4744	64.6864
4740	64.8329
4736	64.8301
4732	64.8437
4728	65.057
4724	65.0744
4720	64.8688
4716	64.8696
4712	64.9156
4708	64.7828
4704	64.5226
4700	64.2928
4696	64.315
4692	64.5787
4688	64.7123
4684	64.8429
4680	65.2488
4676	65.3821
4672	65.1658
4668	64.8997
4664	64.5914
4660	64.5575
4656	64.7796
4652	64.8717
4648	64.9523
4644	65.1031
4640	65.225
4636	65.3146
4632	65.2965
4628	65.1861
4624	65.1488
4620	65.316
4616	65.3986
4612	65.1427
4608	64.8443
4604	64.7588
4600	64.7886
4596	64.84
4592	64.9222
4588	65.0184
4584	65.071
4580	65.0709
4576	65.0772
4572	64.921
4568	64.7621
4564	65.0551
4560	65.5328
4556	65.6428
4552	65.4512
4548	65.2311
4544	65.119
4540	65.1326
4536	65.1532
4532	65.2657
4528	65.344
4524	65.3575
4520	65.6202
4516	65.7581
4512	65.5475
4508	65.5326
4504	65.7914
4500	65.8499
4496	65.5336
4492	65.2108
4488	65.1709
4484	65.326
4480	65.3277
4476	65.2506
4472	65.2839
4468	65.3156
4464	65.3114
4460	65.8131
4456	66.4292
4452	66.4261
4448	66.0956
4444	65.8322
4440	66.5682
4436	65.6948
4432	55.6313
4428	44.6238
4424	48.5221
4420	59.4904
4416	63.7232
4412	64.4544
4408	65.3993
4404	65.3342
4400	65.1426
4396	65.508
4392	65.8548
4388	65.7669
4384	65.4482
4380	65.1846
4376	65.282
4372	65.3429
4368	65.2163
4364	65.2663
4360	65.3351
4356	65.3048
4352	65.3783
4348	65.5099
4344	65.5259
4340	65.5097
4336	65.6284
4332	65.6901
4328	65.5146
4324	65.2647
4320	65.1793
4316	65.3576
4312	65.5507
4308	65.5232
4304	65.422
4300	65.4212
4296	65.3654
4292	65.192
4288	65.1536
4284	65.2129
4280	65.2262
4276	65.2212
4272	65.1658
4268	65.1539
4264	65.3144
4260	65.4167
4256	65.3513
4252	65.3059
4248	65.2581
4244	65.2163
4240	65.1773
4236	65.1014
4232	65.0883
4228	65.0614
4224	64.9813
4220	64.9534
4216	64.9819
4212	65.0405
4208	65.0379
4204	64.9277
4200	64.8557
4196	64.8771
4192	64.8687
4188	64.7419
4184	64.6348
4180	64.6367
4176	64.6981
4172	64.7654
4168	64.6921
4164	64.6144
4160	64.7331
4156	64.8549
4152	64.7922
4148	64.7033
4144	64.7388
4140	64.7414
4136	64.7163
4132	64.7143
4128	64.7162
4124	64.8591
4120	64.9615
4116	64.8814
4112	64.8868
4108	64.9474
4104	64.8983
4100	64.929
4096	65.0938
4092	65.1887
4088	65.1437
4084	65.0325
4080	64.8845
4076	64.7409
4072	64.7531
4068	64.9023
4064	64.976
4060	64.9153
4056	64.812
4052	64.7566
4048	64.903
4044	65.1151
4040	65.0738
4036	65.0078
4032	65.03
4028	64.9054
4024	64.8203
4020	64.9221
4016	64.943
4012	64.8426
4008	64.8287
4004	64.8975
4000	64.9928
3996	65.0588
3992	65.0833
3988	65.1781
3984	65.3087
3980	65.3234
3976	65.2447
3972	65.1046
3968	64.9309
3964	64.8901
3960	64.9129
3956	64.9386
3952	65.0142
3948	65.0084
3944	64.9572
3940	64.926
3936	64.7968
3932	64.6657
3928	64.8029
3924	65.0037
3920	64.979
3916	64.9726
3912	65.0862
3908	65.1047
3904	65.0433
3900	65.0406
3896	65.1671
3892	65.3628
3888	65.3523
3884	65.1729
3880	65.0836
3876	65.058
3872	65.1084
3868	65.1454
3864	65.0939
3860	65.0735
3856	65.0874
3852	65.1179
3848	65.0697
3844	64.9871
3840	65.0763
3836	65.1789
3832	65.1405
3828	65.0938
3824	65.1025
3820	65.1826
3816	65.2027
3812	65.0126
3808	64.8856
3804	65.0072
3800	65.0844
3796	64.9524
3792	64.7726
3788	64.737
3784	64.856
3780	64.9595
3776	64.9966
3772	65.0037
3768	65.0443
3764	65.1091
3760	65.0581
3756	64.9241
3752	64.8382
3748	64.8567
3744	64.9384
3740	65.0067
3736	64.986
3732	64.9081
3728	64.9224
3724	65.0218
3720	65.0264
3716	64.9788
3712	65.0262
3708	65.0888
3704	65.0644
3700	64.9984
3696	64.9794
3692	64.9589
3688	64.9755
3684	65.0606
3680	65.0651
3676	64.9721
3672	64.8797
3668	64.8496
3664	64.9028
3660	65.0168
3656	65.0694
3652	64.9933
3648	64.8932
3644	64.8797
3640	64.9834
3636	65.0469
3632	64.9074
3628	64.771
3624	64.8014
3620	64.8642
3616	64.9152
3612	64.9645
3608	64.9739
3604	64.9411
3600	64.8856
3596	64.8467
3592	64.8455
3588	64.9102
3584	64.9848
3580	64.9494
3576	64.9203
3572	65.0022
3568	65.0044
3564	64.9645
3560	65.0659
3556	65.1384
3552	65.114
3548	65.0933
3544	65.0851
3540	65.1082
3536	65.1003
3532	65.0395
3528	64.9896
3524	64.9741
3520	65.0579
3516	65.1655
3512	65.1677
3508	65.1369
3504	65.1931
3500	65.2518
3496	65.1593
3492	65.1011
3488	65.1097
3484	64.9759
3480	64.8757
3476	64.9478
3472	65.0208
3468	64.9963
3464	64.9663
3460	64.9893
3456	65.0458
3452	65.1137
3448	65.1118
3444	65.0808
3440	65.078
3436	65.0257
3432	64.9361
3428	64.9021
3424	64.9745
3420	65.0497
3416	64.9896
3412	64.9509
3408	64.9862
3404	64.8784
3400	64.7689
3396	64.8735
3392	64.997
3388	64.9711
3384	64.8798
3380	64.884
3376	65.04
3372	65.1644
3368	65.1013
3364	64.9935
3360	64.9547
3356	64.8644
3352	64.7902
3348	64.8246
3344	64.8543
3340	64.8888
3336	64.9644
3332	65.0646
3328	65.1215
3324	65.0297
3320	64.8902
3316	64.8615
3312	64.9039
3308	64.9114
3304	64.9056
3300	64.926
3296	64.9165
3292	64.9259
3288	65.021
3284	65.0811
3280	64.9983
3276	64.8682
3272	64.8312
3268	64.8599
3264	64.886
3260	64.907
3256	64.9106
3252	64.8806
3248	64.8234
3244	64.8074
3240	64.8462
3236	64.8497
3232	64.8759
3228	65.0064
3224	65.0568
3220	64.9302
3216	64.797
3212	64.7251
3208	64.7306
3204	64.8072
3200	64.8
3196	64.756
3192	64.854
3188	64.986
3184	65.0563
3180	65.1191
3176	65.1037
3172	65.029
3168	64.9907
3164	64.9538
3160	64.9349
3156	64.9829
3152	65.0204
3148	64.9663
3144	64.9271
3140	64.9834
3136	65.0084
3132	64.9132
3128	64.861
3124	64.9421
3120	64.9398
3116	64.8553
3112	64.8627
3108	64.9187
3104	64.9567
3100	65.0204
3096	65.0659
3092	64.9573
3088	64.7838
3084	64.7393
3080	64.8226
3076	64.8797
3072	64.8562
3068	64.8307
3064	64.8604
3060	64.9186
3056	64.9211
3052	64.8784
3048	64.8471
3044	64.8202
3040	64.8246
3036	64.8978
3032	64.9517
3028	64.9193
3024	64.9004
3020	64.9407
3016	64.9599
3012	64.9598
3008	65.0173
3004	65.1286
3000	65.1396
2996	65.005
2992	64.9239
2988	64.9395
2984	64.9362
2980	64.943
2976	64.9206
2972	64.8211
2968	64.7974
2964	64.806
2960	64.7567
2956	64.7653
2952	64.8285
2948	64.8661
2944	64.8738
2940	64.8671
2936	64.8196
2932	64.7668
2928	64.7773
2924	64.8429
2920	64.9018
2916	64.878
2912	64.8373
2908	64.8351
2904	64.8189
2900	64.7984
2896	64.793
2892	64.7961
2888	64.8116
2884	64.7961
2880	64.7801
2876	64.8286
2872	64.8614
2868	64.8351
2864	64.8152
2860	64.8203
2856	64.8458
2852	64.9338
2848	64.9882
2844	64.9313
2840	64.8494
2836	64.7775
2832	64.7583
2828	64.8202
2824	64.859
2820	64.801
2816	64.775
2812	64.8263
2808	64.8685
2804	64.9047
2800	64.9105
2796	64.8767
2792	64.8684
2788	64.9168
2784	64.9313
2780	64.8783
2776	64.8496
2772	64.8321
2768	64.8012
2764	64.7918
2760	64.7969
2756	64.8293
2752	64.8758
2748	64.8849
2744	64.8579
2740	64.7987
2736	64.751
2732	64.7544
2728	64.7465
2724	64.7218
2720	64.7629
2716	64.834
2712	64.8499
2708	64.8646
2704	64.8692
2700	64.8249
2696	64.8409
2692	64.8874
2688	64.8479
2684	64.8033
2680	64.854
2676	64.9229
2672	64.9139
2668	64.8619
2664	64.862
2660	64.8862
2656	64.8375
2652	64.7993
2648	64.8181
2644	64.8079
2640	64.8082
2636	64.8758
2632	64.9421
2628	64.9323
2624	64.8587
2620	64.8259
2616	64.8613
2612	64.8583
2608	64.8536
2604	64.8908
2600	64.905
2596	64.9548
2592	65.003
2588	64.9294
2584	64.8273
2580	64.8066
2576	64.8237
2572	64.8265
2568	64.7884
2564	64.7348
2560	64.7461
2556	64.7978
2552	64.8243
2548	64.8223
2544	64.7748
2540	64.7353
2536	64.7783
2532	64.7974
2528	64.773
2524	64.7978
2520	64.8515
2516	64.9491
2512	65.0133
2508	64.9222
2504	64.8042
2500	64.8007
2496	64.8327
2492	64.8098
2488	64.7735
2484	64.7961
2480	64.8228
2476	64.739
2472	64.6607
2468	64.6875
2464	64.7188
2460	64.7532
2456	64.7574
2452	64.7116
2448	64.7395
2444	64.8163
2440	64.8252
2436	64.7845
2432	64.7042
2428	64.595
2424	64.5967
2420	64.6731
2416	64.6793
2412	64.698
2408	64.7668
2404	64.7853
2400	64.7833
2396	64.7644
2392	64.732
2388	64.7663
2384	64.7589
2380	64.6602
2376	64.6097
2372	64.6232
2368	64.6358
2364	64.6279
2360	64.5822
2356	64.5444
2352	64.59
2348	64.6449
2344	64.616
2340	64.6104
2336	64.6928
2332	64.7299
2328	64.6797
2324	64.6337
2320	64.645
2316	64.693
2312	64.6983
2308	64.6525
2304	64.661
2300	64.6989
2296	64.6484
2292	64.5602
2288	64.5563
2284	64.6395
2280	64.6959
2276	64.6724
2272	64.6595
2268	64.7405
2264	64.8299
2260	64.78
2256	64.6747
2252	64.6595
2248	64.6759
2244	64.6431
2240	64.5982
2236	64.5967
2232	64.6038
2228	64.5962
2224	64.5939
2220	64.5973
2216	64.595
2212	64.5729
2208	64.5796
2204	64.5936
2200	64.5609
2196	64.5533
2192	64.5574
2188	64.5323
2184	64.5296
2180	64.5663
2176	64.5946
2172	64.5637
2168	64.5058
2164	64.5136
2160	64.5637
2156	64.5508
2152	64.5327
2148	64.5617
2144	64.5768
2140	64.5605
2136	64.5461
2132	64.5713
2128	64.6073
2124	64.5816
2120	64.5059
2116	64.4663
2112	64.4559
2108	64.4482
2104	64.4861
2100	64.5779
2096	64.6859
2092	64.722
2088	64.6436
2084	64.5771
2080	64.6175
2076	64.64
2072	64.5466
2068	64.4392
2064	64.4464
2060	64.5268
2056	64.5645
2052	64.5602
2048	64.55
2044	64.5289
2040	64.468
2036	64.4226
2032	64.4884
2028	64.5967
2024	64.6395
2020	64.6151
2016	64.5489
2012	64.4835
2008	64.4577
2004	64.4712
2000	64.4812
1996	64.4666
1992	64.4984
1988	64.5745
1984	64.5778
1980	64.4981
1976	64.4469
1972	64.4791
1968	64.5254
1964	64.4934
1960	64.3766
1956	64.2961
1952	64.3576
1948	64.4569
1944	64.4851
1940	64.4827
1936	64.4605
1932	64.4147
1928	64.4064
1924	64.4605
1920	64.5115
1916	64.4727
1912	64.4117
1908	64.4238
1904	64.4307
1900	64.3926
1896	64.3614
1892	64.3327
1888	64.3179
1884	64.3605
1880	64.3996
1876	64.4196
1872	64.4688
1868	64.4809
1864	64.4124
1860	64.3434
1856	64.366
1852	64.4657
1848	64.5257
1844	64.5005
1840	64.472
1836	64.491
1832	64.5082
1828	64.4898
1824	64.4452
1820	64.3939
1816	64.3685
1812	64.3459
1808	64.3244
1804	64.3132
1800	64.2893
1796	64.3234
1792	64.4085
1788	64.4271
1784	64.387
1780	64.3546
1776	64.3186
1772	64.3113
1768	64.3538
1764	64.3425
1760	64.2851
1756	64.2778
1752	64.2589
1748	64.1926
1744	64.1723
1740	64.1284
1736	64.0184
1732	64.0143
1728	64.1239
1724	64.1917
1720	64.1865
1716	64.183
1712	64.1934
1708	64.211
1704	64.2591
1700	64.3433
1696	64.4261
1692	64.426
1688	64.3679
1684	64.3127
1680	64.2545
1676	64.2254
1672	64.2422
1668	64.2548
1664	64.2573
1660	64.232
1656	64.1555
1652	64.1091
1648	64.155
1644	64.2408
1640	64.2929
1636	64.3023
1632	64.2867
1628	64.2393
1624	64.1388
1620	64.0725
1616	64.152
1612	64.2408
1608	64.2121
1604	64.1785
1600	64.1677
1596	64.1517
1592	64.1569
1588	64.171
1584	64.1615
1580	64.1311
1576	64.1285
1572	64.1529
1568	64.1912
1564	64.2403
1560	64.2568
1556	64.2173
1552	64.1752
1548	64.1844
1544	64.1866
1540	64.135
1536	64.116
1532	64.1245
1528	64.0799
1524	64.0239
1520	64.0486
1516	64.1115
1512	64.141
1508	64.1505
1504	64.1607
1500	64.1805
1496	64.1885
1492	64.1855
1488	64.2397
1484	64.2699
1480	64.1999
1476	64.1318
1472	64.1198
1468	64.1556
1464	64.1433
1460	64.0575
1456	63.9842
1452	63.9415
1448	63.9176
1444	63.8516
1440	63.7924
1436	63.874
1432	64.0046
1428	64.0465
1424	64.0839
1420	64.1371
1416	64.1456
1412	64.1563
1408	64.1528
1404	64.1137
1400	64.0958
1396	64.0861
1392	64.0603
1388	64.0464
1384	64.0227
1380	63.9751
1376	63.947
1372	63.9461
1368	63.9599
1364	63.9919
1360	64.0329
1356	64.047
1352	63.9927
1348	63.9189
1344	63.9299
1340	63.9654
1336	63.9472
1332	63.9508
1328	63.9996
1324	64.0034
1320	63.9354
1316	63.8827
1312	63.8825
1308	63.9235
1304	63.9603
1300	63.9466
1296	63.9427
1292	63.9596
1288	63.9861
1284	63.9973
1280	63.9454
1276	63.9282
1272	63.9782
1268	64.039
1264	64.0768
1260	64.0227
1256	63.8909
1252	63.7779
1248	63.7546
1244	63.8203
1240	63.8442
1236	63.8035
1232	63.8365
1228	63.9027
1224	63.9036
1220	63.8708
1216	63.8008
1212	63.7469
1208	63.8352
1204	63.9654
1200	63.9519
1196	63.868
1192	63.8498
1188	63.8534
1184	63.8469
1180	63.8571
1176	63.9009
1172	63.9122
1168	63.8298
1164	63.7546
1160	63.706
1156	63.6806
1152	63.7196
1148	63.7425
1144	63.7595
1140	63.8599
1136	63.9209
1132	63.8305
1128	63.6906
1124	63.6521
1120	63.7417
1116	63.8125
1112	63.7836
1108	63.7156
1104	63.6897
1100	63.7119
1096	63.7202
1092	63.6914
1088	63.668
1084	63.6555
1080	63.6648
1076	63.7326
1072	63.7844
1068	63.8331
1064	63.9332
1060	63.9582
1056	63.8315
1052	63.7122
1048	63.7166
1044	63.7231
1040	63.7212
1036	63.6979
1032	63.6071
1028	63.6625
1024	63.8493
1020	63.8384
1016	63.6831
1012	63.6521
1008	63.7145
1004	63.7158
1000	63.6996
996	 63.7322
992	 63.7279
988	 63.6863
984	 63.673
980	 63.7153
976	 63.8011
972	 63.828
968	 63.7375
964	 63.6399
960	 63.5713
956	 63.5388
952	 63.5544
948	 63.4962
944	 63.4489
940	 63.5291
936	 63.6095
932	 63.6241
928	 63.6909
924	 63.8118
920	 63.8171
916	 63.6949
912	 63.6216
908	 63.7529
904	 63.9021
900	 63.8161
896	 63.6958
892	 63.7237
888	 63.8093
884	 63.8022
880	 63.6587
876	 63.5499
872	 63.4967
868	 63.4572
864	 63.5825
860	 63.8221
856	 63.9422
852	 63.8813
848	 63.8154
844	 63.8585
840	 63.8241
836	 63.7614
832	 63.8378
828	 63.8884
824	 63.8442
820	 63.7905
816	 63.7553
812	 63.7075
808	 63.6173
804	 63.5874
800	 63.658
796	 63.6882
792	 63.6954
788	 63.7445
784	 63.7143
780	 63.6017
776	 63.5441
772	 63.5874
768	 63.6894
764	 63.8013
760	 63.8093
756	 63.6609
752	 63.47
748	 63.4183
744	 63.525
740	 63.5667
736	 63.5155
732	 63.4418
728	 63.4159
724	 63.4618
720	 63.4707
716	 63.5506
712	 63.5971
708	 63.3571
704	 63.1005
700	 63.1692
696	 63.3268
692	 63.4048
688	 63.4929
684	 63.619
680	 63.9815
676	 64.2568
672	 63.9923
668	 63.5991
664	 63.367
660	 63.3211
656	 63.5423
652	 63.8417
648	 64.0305
644	 63.8685
640	 63.3493
636	 62.8231
632	 62.7284
628	 63.4204
624	 64.3819
620	 64.6483
616	 64.2984
612	 64.0469
608	 63.8098
604	 63.2697
600	 62.8717
596	 63.084
592	 63.3368
588	 63.175
584	 63.3606
580	 63.7746
576	 63.4875
572	 62.9579
568	 62.9521
564	 63.4232
560	 63.802
556	 63.92
552	 64.0867
548	 64.249
544	 64.4072
540	 63.979
536	 63.0093
532	 62.896
528	 63.5954
524	 64.0613
520	 64.0905
516	 63.9908
512	 63.7883
508	 63.5876
504	 63.4669
500	 63.244
496	 63.0748
492	 63.2726
488	 63.6153
484	 63.4472
480	 62.8505
476	 62.695
472	 63.1457
468	 63.5731
464	 64.1025
460	 64.6841
456	 64.321
452	 63.3604
448	 63.0851
444	 63.0112
440	 62.3956
436	 61.7142
432	 61.6741
428	 63.0327
424	 65.1485
420	 65.5849
416	 63.1338
412	 59.1432
408	 56.2584
404	 57.569
400	 60.8833
396	 61.0143
392	 59.8752
388	 56.2386
384	 50.6597
380	 53.2398
376	 54.4694
372	 49.4323
370	 51.2612