File: Bakgrunnsmateriale/MATLAB/FTIR/ftir_data/subAa/Mapping_121/BZ1503107-1_t17.asc
PE IR       SPECTRUM    SPECTRUM    ASCII       PEDS        1.60
  -1
BZ256B~1.ASC
17/04/07
14:34:59.00
17/04/07
14:35:25.00
tln
$BZ1503107-1_t0017$<tbV0>[0.0,-10.4,8.0,0.0,27,1,0]
27.028
64

2002,4.07
MIRTGS : RIGHTBACK : INTERNAL 2
MIR : ON : INTERNAL 2
OPTKBR

0.200000
8
8.000000
FILLER
RATIO
SPECTRUM
UNLOCKED 256

DOUBLE
64
COMBINED
1
0
0

0.002000
RATIO

1
0
TRUE
51149
0
LEFT NOT FITTED RIGHT NOT FITTED 0
NONE
NONE
15600
12
4.427000
51148
TRUE
1 0 8 72 0 0 0 0

15798

#HDR
-1
-1
#GR
µM
%T
2.38419e-05
0.0
2.000000
0.002000
12515
8
75.2596
44.9393
#DATA
2.000000	 66.7837
2.018000	 64.3313
2.036000	 65.1367
2.054000	 65.5827
2.072000	 65.0656
2.090000	 65.5379
2.108000	 64.7488
2.126000	 64.6082
2.144000	 65.1176
2.162000	 64.8292
2.180000	 64.7909
2.198000	 64.4375
2.216000	 64.7364
2.234000	 67.9801
2.252000	 51.5522
2.270000	 65.3627
2.288000	 64.8783
2.306000	 64.7804
2.324000	 64.7834
2.342000	 65.1582
2.360000	 64.9304
2.378000	 65.157
2.396000	 64.9472
2.414000	 65.2552
2.432000	 65.1153
2.450000	 65.3196
2.468000	 65.3226
2.486000	 64.9676
2.504000	 64.8943
2.522000	 65.1501
2.540000	 64.8407
2.558000	 65.0421
2.576000	 65.4703
2.594000	 65.3642
2.612000	 65.1728
2.630000	 65.2689
2.648000	 65.0394
2.666000	 65.4856
2.684000	 65.0762
2.702000	 65.2969
2.720000	 65.4523
2.738000	 65.4183
2.756000	 65.4338
2.774000	 65.4398
2.792000	 65.348
2.810000	 65.2377
2.828000	 65.2671
2.846000	 65.0711
2.864000	 64.9526
2.882000	 65.0996
2.900000	 65.1411
2.918000	 65.2783
2.936000	 65.1334
2.954000	 65.0762
2.972000	 65.0587
2.990000	 65.0429
3.008000	 65.217
3.026000	 65.0725
3.044000	 65.1417
3.062000	 65.1467
3.080000	 65.0773
3.098000	 65.152
3.116000	 65.2227
3.134000	 65.0472
3.152000	 65.1726
3.170000	 65.2483
3.188000	 65.1146
3.206000	 65.1334
3.224000	 65.1376
3.242000	 65.1294
3.260000	 65.2689
3.278000	 65.1454
3.296000	 65.1973
3.314000	 65.2789
3.332000	 65.2174
3.350000	 65.0193
3.368000	 65.0292
3.386000	 64.911
3.404000	 64.9122
3.422000	 64.918
3.440000	 64.984
3.458000	 65.0576
3.476000	 65.0427
3.494000	 65.0398
3.512000	 64.982
3.530000	 65.0884
3.548000	 64.9985
3.566000	 64.9893
3.584000	 65.0013
3.602000	 65.1222
3.620000	 65.0254
3.638000	 65.0533
3.656000	 65.2479
3.674000	 65.026
3.692000	 65.1668
3.710000	 65.1221
3.728000	 65.0341
3.746000	 65.0046
3.764000	 65.0521
3.782000	 65.0186
3.800000	 65.0893
3.818000	 65.0766
3.836000	 65.1071
3.854000	 65.0367
3.872000	 65.1634
3.890000	 65.0484
3.908000	 65.1726
3.926000	 65.0455
3.944000	 65.0436
3.962000	 65.1168
3.980000	 65.1769
3.998000	 64.9979
4.016000	 65.0346
4.034000	 64.991
4.052000	 65.0125
4.070000	 64.9222
4.088000	 65.0513
4.106000	 64.9379
4.124000	 64.8544
4.141999	 64.9513
4.160000	 65.0879
4.178000	 65.0749
4.196000	 65.0497
4.214000	 64.9458
4.232000	 64.9972
4.250000	 64.9698
4.268000	 65.0423
4.286000	 64.9929
4.304000	 64.9209
4.322000	 64.984
4.340000	 64.9725
4.358000	 64.9345
4.375999	 64.8537
4.394000	 64.9815
4.412000	 64.8948
4.430000	 65.0555
4.448000	 64.9915
4.466000	 64.9371
4.484000	 64.871
4.502000	 64.9557
4.520000	 64.9008
4.538000	 64.9307
4.556000	 64.8659
4.574000	 64.8924
4.592000	 64.8493
4.609999	 65.0349
4.628000	 64.9268
4.646000	 64.7708
4.664000	 64.76
4.682000	 64.8696
4.700000	 64.982
4.718000	 64.9429
4.736000	 64.8456
4.754000	 64.8098
4.772000	 64.8455
4.790000	 64.8239
4.808000	 64.9275
4.826000	 64.7998
4.843999	 64.8718
4.862000	 64.9736
4.880000	 64.9721
4.898000	 64.8606
4.916000	 64.8454
4.934000	 64.9084
4.952000	 64.8574
4.970000	 64.824
4.988000	 64.871
5.006000	 64.7999
5.024000	 64.836
5.042000	 64.8437
5.060000	 64.8484
5.077999	 64.9592
5.096000	 64.9517
5.114000	 64.9208
5.132000	 64.8864
5.150000	 64.825
5.168000	 64.7808
5.186000	 64.7919
5.204000	 64.7818
5.222000	 64.8185
5.240000	 64.8909
5.258000	 64.8376
5.276000	 64.8084
5.294000	 64.8543
5.312000	 64.782
5.330000	 64.8385
5.348000	 64.8996
5.366000	 64.8481
5.384000	 64.7329
5.402000	 64.7874
5.420000	 64.8288
5.438000	 64.8176
5.456000	 64.7541
5.474000	 64.7806
5.492000	 64.7422
5.510000	 64.7943
5.528000	 64.8028
5.546000	 64.7525
5.564000	 64.7353
5.582000	 64.7654
5.600000	 64.8641
5.618000	 64.8262
5.636000	 64.7996
5.654000	 64.7189
5.672000	 64.6794
5.690000	 64.6632
5.708000	 64.6405
5.726000	 64.5348
5.744000	 64.3645
5.762000	 64.2496
5.780000	 64.1798
5.798000	 64.3207
5.816000	 64.5429
5.834000	 64.5933
5.852000	 64.5865
5.870000	 64.7129
5.888000	 64.8974
5.906000	 64.827
5.923999	 64.772
5.942000	 64.7816
5.960000	 64.7253
5.978000	 64.7108
5.996000	 64.6778
6.014000	 64.6914
6.032000	 64.735
6.050000	 64.7207
6.068000	 64.6707
6.086000	 64.7022
6.104000	 64.7565
6.122000	 64.7558
6.140000	 64.7194
6.158000	 64.7087
6.176000	 64.6953
6.194000	 64.6663
6.212000	 64.6828
6.230000	 64.7145
6.248000	 64.6998
6.266000	 64.7218
6.284000	 64.6798
6.302000	 64.6557
6.320000	 64.7124
6.338000	 64.752
6.356000	 64.7015
6.374000	 64.6305
6.392000	 64.698
6.410000	 64.8971
6.428000	 64.8889
6.446000	 64.7172
6.464000	 64.6576
6.482000	 64.6836
6.500000	 64.6518
6.518000	 64.5893
6.536000	 64.6103
6.554000	 64.6709
6.572000	 64.7053
6.590000	 64.6784
6.608000	 64.6763
6.626000	 64.744
6.644000	 64.7256
6.662000	 64.7017
6.680000	 64.7817
6.698000	 64.704
6.716000	 64.5563
6.734000	 64.5695
6.752000	 64.6187
6.770000	 64.6448
6.788000	 64.6345
6.806000	 64.573
6.824000	 64.5179
6.842000	 64.5137
6.860000	 64.5314
6.878000	 64.5203
6.896000	 64.5198
6.914000	 64.5438
6.932000	 64.5489
6.950000	 64.5621
6.968000	 64.6066
6.986000	 64.6106
7.004000	 64.5269
7.022000	 64.4511
7.040000	 64.4441
7.058000	 64.4237
7.076000	 64.3676
7.094000	 64.3735
7.112000	 64.449
7.130000	 64.4649
7.148000	 64.3907
7.166000	 64.3483
7.184000	 64.3995
7.202000	 64.4642
7.220000	 64.4507
7.238000	 64.3886
7.256000	 64.3561
7.274000	 64.352
7.292000	 64.366
7.310000	 64.4327
7.328000	 64.518
7.346000	 64.5343
7.364000	 64.5044
7.382000	 64.522
7.400000	 64.5728
7.418000	 64.5724
7.436000	 64.5184
7.454000	 64.4594
7.472000	 64.4177
7.490000	 64.4045
7.508000	 64.415
7.526000	 64.4242
7.544000	 64.4215
7.562000	 64.4041
7.580000	 64.3669
7.598000	 64.3356
7.616000	 64.3363
7.634000	 64.3379
7.652000	 64.3111
7.670000	 64.2883
7.688000	 64.2975
7.706000	 64.3186
7.724000	 64.3365
7.742000	 64.3632
7.760000	 64.3835
7.778000	 64.3594
7.796000	 64.297
7.814000	 64.2386
7.832000	 64.2028
7.850000	 64.1838
7.868000	 64.1778
7.886000	 64.1712
7.904000	 64.1544
7.922000	 64.151
7.940000	 64.181
7.958000	 64.2138
7.976000	 64.2087
7.994000	 64.1708
8.012000	 64.1341
8.030000	 64.1208
8.048000	 64.1321
8.065999	 64.1592
8.084000	 64.1882
8.102000	 64.1982
8.120000	 64.1836
8.138000	 64.1721
8.155999	 64.191
8.173999	 64.2235
8.192000	 64.2307
8.210000	 64.2095
8.228000	 64.1979
8.246000	 64.2222
8.263999	 64.2662
8.282000	 64.2934
8.300000	 64.2879
8.318000	 64.2643
8.336000	 64.2462
8.353999	 64.2455
8.372000	 64.255
8.390000	 64.2522
8.408000	 64.218
8.426000	 64.1562
8.443999	 64.0885
8.462000	 64.0334
8.480000	 64.0032
8.498000	 64.0205
8.516000	 64.0976
8.533999	 64.1985
8.552000	 64.257
8.570000	 64.242
8.588000	 64.184
8.606000	 64.1312
8.624000	 64.0957
8.641999	 64.0584
8.660000	 64.0141
8.678000	 63.9851
8.696000	 63.9875
8.714000	 64.0066
8.731999	 64.0182
8.750000	 64.0219
8.768000	 64.039
8.786000	 64.0804
8.804000	 64.1343
8.821999	 64.183
8.840000	 64.2156
8.858000	 64.2273
8.876000	 64.2147
8.894000	 64.1807
8.911999	 64.1408
8.930000	 64.1191
8.948000	 64.1312
8.966000	 64.1691
8.984000	 64.2031
9.001999	 64.2061
9.020000	 64.1784
9.038000	 64.1473
9.056000	 64.1391
9.074000	 64.1546
9.092000	 64.1751
9.109999	 64.1923
9.128000	 64.2165
9.146000	 64.25
9.164000	 64.271
9.182000	 64.2619
9.199999	 64.2423
9.218000	 64.2544
9.236000	 64.3152
9.254000	 64.3929
9.272000	 64.4331
9.289999	 64.4057
9.308000	 64.3231
9.326000	 64.2221
9.344000	 64.1375
9.362000	 64.0869
9.379999	 64.0669
9.398000	 64.0615
9.416000	 64.0591
9.434000	 64.0605
9.452000	 64.0728
9.469999	 64.0953
9.488000	 64.1153
9.506000	 64.1177
9.524000	 64.098
9.542000	 64.0635
9.560000	 64.0257
9.577999	 63.9946
9.596000	 63.9791
9.614000	 63.9833
9.632000	 64.002
9.650000	 64.024
9.667999	 64.0403
9.686000	 64.0499
9.704000	 64.0552
9.722000	 64.0537
9.740000	 64.0372
9.757999	 64.0037
9.776000	 63.9657
9.794000	 63.9461
9.812000	 63.9611
9.830000	 64.0066
9.847999	 64.0624
9.866000	 64.1075
9.884000	 64.1331
9.902000	 64.1433
9.920000	 64.1476
9.937999	 64.1538
9.956000	 64.1671
9.974000	 64.1913
9.992000	 64.2263
10.01	64.2643
10.028	64.2894
10.046	64.2866
10.064	64.2532
10.082	64.2017
10.1	64.1519
10.118	64.117
10.136	64.0966
10.154	64.0816
10.172	64.064
10.19	64.0433
10.208	64.0235
10.226	64.0085
10.244	63.9992
10.262	63.9962
10.28	64.0037
10.298	64.0266
10.316	64.0647
10.334	64.1092
10.352	64.1464
10.37	64.1644
10.388	64.1606
10.406	64.1421
10.424	64.1211
10.442	64.1089
10.46	64.1108
10.478	64.1266
10.496	64.1521
10.514	64.1819
10.532	64.2099
10.55	64.2305
10.568	64.2404
10.586	64.2406
10.604	64.2362
10.622	64.2335
10.64	64.2358
10.658	64.2405
10.676	64.2393
10.694	64.2252
10.712	64.1987
10.73	64.17
10.748	64.1545
10.766	64.1631
10.784	64.1954
10.802	64.2397
10.82	64.2812
10.838	64.3096
10.856	64.3252
10.874	64.3342
10.892	64.3417
10.91	64.346
10.928	64.3395
10.946	64.3147
10.964	64.2714
10.982	64.2198
11	64.1754
11.018	64.153
11.036	64.1581
11.054	64.1865
11.072	64.2275
11.09	64.2696
11.108	64.3054
11.126	64.3314
11.144	64.3469
11.162	64.3514
11.18	64.3459
11.198	64.3336
11.216	64.3207
11.234	64.3145
11.252	64.3199
11.27	64.3368
11.288	64.3596
11.306	64.3804
11.324	64.3936
11.342	64.3984
11.36	64.3989
11.378	64.3995
11.396	64.4013
11.414	64.4006
11.432	64.391
11.45	64.3677
11.468	64.3312
11.486	64.2882
11.504	64.2482
11.522	64.2204
11.54	64.2099
11.558	64.2162
11.576	64.2348
11.594	64.2597
11.612	64.2853
11.63	64.308
11.648	64.3265
11.666	64.34
11.684	64.3488
11.702	64.3537
11.72	64.3566
11.738	64.3601
11.756	64.3666
11.774	64.3771
11.792	64.3898
11.81	64.4002
11.828	64.4025
11.846	64.3908
11.864	64.3621
11.882	64.3169
11.9	64.2589
11.918	64.1943
11.936	64.1288
11.954	64.0666
11.972	64.0093
11.99	63.9573
12.008	63.9103
12.026	63.8691
12.044	63.8362
12.062	63.815
12.08	63.8085
12.098	63.8183
12.116	63.8427
12.134	63.8769
12.152	63.9137
12.17	63.9455
12.188	63.9658
12.206	63.9711
12.224	63.9611
12.242	63.9383
12.26	63.9072
12.278	63.873
12.296	63.8404
12.314	63.8126
12.332	63.791
12.35	63.7748
12.368	63.7627
12.386	63.7534
12.404	63.7481
12.422	63.7505
12.44	63.766
12.458	63.7998
12.476	63.854
12.494	63.9261
12.512	64.0086
12.53	64.0909
12.548	64.1627
12.566	64.2169
12.584	64.2514
12.602	64.2697
12.62	64.2796
12.638	64.2895
12.656	64.306
12.674	64.3312
12.692	64.3623
12.71	64.3932
12.728	64.4159
12.746	64.4239
12.764	64.4135
12.782	64.3846
12.8	64.3408
12.818	64.2882
12.836	64.2342
12.854	64.1861
12.872	64.1497
12.89	64.1281
12.908	64.1219
12.926	64.1283
12.944	64.1422
12.962	64.158
12.98	64.1704
12.998	64.1755
13.016	64.172
13.034	64.1609
13.052	64.145
13.07	64.1274
13.088	64.1113
13.106	64.0982
13.124	64.0885
13.142	64.0806
13.16	64.0722
13.178	64.0608
13.196	64.0451
13.214	64.025
13.232	64.0022
13.25	63.9795
13.268	63.9601
13.286	63.9466
13.304	63.94
13.322	63.9395
13.34	63.9425
13.358	63.9451
13.376	63.9429
13.394	63.9324
13.412	63.9121
13.43	63.8825
13.448	63.8462
13.466	63.8076
13.484	63.772
13.502	63.744
13.52	63.7265
13.538	63.721
13.556	63.7268
13.574	63.7418
13.592	63.7629
13.61	63.7874
13.628	63.8129
13.646	63.838
13.664	63.8623
13.682	63.886
13.7	63.9096
13.718	63.9335
13.736	63.958
13.754	63.9826
13.772	64.0063
13.79	64.028
13.808	64.0462
13.826	64.0597
13.844	64.0673
13.862	64.0683
13.88	64.0625
13.898	64.0501
13.916	64.0324
13.934	64.0111
13.952	63.9884
13.97	63.9672
13.988	63.9504
14.006	63.9404
14.024	63.9395
14.042	63.9484
14.06	63.9669
14.078	63.9934
14.096	64.0254
14.114	64.06
14.132	64.0939
14.15	64.1237
14.168	64.1465
14.186	64.1599
14.204	64.1622
14.222	64.1523
14.24	64.1297
14.258	64.0949
14.276	64.049
14.294	63.9939
14.312	63.9321
14.33	63.8668
14.348	63.8016
14.366	63.7405
14.384	63.6877
14.402	63.6469
14.42	63.621
14.438	63.6115
14.456	63.6186
14.474	63.6404
14.492	63.6739
14.51	63.7142
14.528	63.7555
14.546	63.7927
14.564	63.8212
14.582	63.8382
14.6	63.8423
14.618	63.8343
14.636	63.8166
14.654	63.7926
14.672	63.7661
14.69	63.7409
14.708	63.7204
14.726	63.7069
14.744	63.702
14.762	63.7062
14.78	63.7194
14.798	63.7408
14.816	63.7692
14.834	63.8033
14.852	63.8414
14.87	63.8815
14.888	63.9217
14.906	63.9603
14.924	63.9952
14.942	64.0244
14.96	64.0462
14.978	64.0598
14.996	64.0644
15.014	64.0601
15.032	64.0475
15.05	64.0279
15.068	64.0028
15.086	63.9739
15.104	63.9428
15.122	63.9115
15.14	63.8811
15.158	63.8531
15.176	63.8285
15.194	63.8084
15.212	63.7939
15.23	63.786
15.248	63.7857
15.266	63.7935
15.284	63.8099
15.302	63.8347
15.32	63.8674
15.338	63.9068
15.356	63.9512
15.374	63.9981
15.392	64.0452
15.41	64.0899
15.428	64.1293
15.446	64.1603
15.464	64.1809
15.482	64.1898
15.5	64.1856
15.518	64.1684
15.536	64.1386
15.554	64.0971
15.572	64.0455
15.59	63.9856
15.608	63.9192
15.626	63.8484
15.644	63.7748
15.662	63.7007
15.68	63.6278
15.698	63.558
15.716	63.4935
15.734	63.4366
15.752	63.3892
15.77	63.3531
15.788	63.3304
15.806	63.322
15.824	63.3282
15.842	63.3489
15.86	63.3823
15.878	63.4263
15.896	63.4786
15.914	63.5357
15.932	63.5942
15.95	63.6518
15.968	63.7058
15.986	63.7549
16.004	63.7988
16.022	63.8378
16.04	63.8734
16.058	63.9073
16.076	63.941
16.094	63.9766
16.112	64.0146
16.13	64.0553
16.148	64.0983
16.166	64.1418
16.184	64.1837
16.202	64.2216
16.22	64.252
16.238	64.2732
16.256	64.2837
16.274	64.2826
16.292	64.2707
16.31	64.2491
16.328	64.2204
16.346	64.1876
16.364	64.1532
16.382	64.1209
16.4	64.0925
16.418	64.0696
16.436	64.053
16.454	64.0417
16.472	64.035
16.49	64.0302
16.508	64.0247
16.526	64.0166
16.544	64.0027
16.562	63.982
16.58	63.9533
16.598	63.9163
16.616	63.8717
16.634	63.8203
16.652	63.7642
16.67	63.7051
16.688	63.6451
16.706	63.5868
16.724	63.532
16.742	63.4828
16.76	63.4411
16.778	63.408
16.796	63.3852
16.814	63.3739
16.832	63.3749
16.85	63.3898
16.868	63.419
16.886	63.4632
16.904	63.5226
16.922	63.5967
16.94	63.6852
16.958	63.7856
16.976	63.8965
16.994	64.0138
17.012	64.1332
17.03	64.2517
17.048	64.3618
17.066	64.4601
17.084	64.5414
17.102	64.6007
17.12	64.636
17.138	64.6442
17.156	64.626
17.174	64.5812
17.192	64.5141
17.21	64.4273
17.228	64.327
17.246	64.2197
17.264	64.1095
17.282	64.0058
17.3	63.9113
17.318	63.833
17.336	63.7731
17.354	63.734
17.372	63.716
17.39	63.7181
17.408	63.7379
17.426	63.7713
17.444	63.8159
17.462	63.8653
17.48	63.9178
17.498	63.9682
17.516	64.015
17.534	64.0564
17.552	64.0916
17.57	64.1207
17.588	64.1449
17.606	64.1654
17.624	64.184
17.642	64.2027
17.66	64.2225
17.678	64.2445
17.696	64.2685
17.714	64.2944
17.732	64.3209
17.75	64.3471
17.768	64.3705
17.786	64.3903
17.804	64.404
17.822	64.4113
17.84	64.4107
17.858	64.403
17.876	64.3883
17.894	64.3685
17.912	64.3439
17.93	64.3177
17.948	64.2902
17.966	64.2642
17.984	64.2397
18.002	64.2182
18.02	64.1992
18.038	64.1828
18.056	64.1676
18.074	64.1532
18.092	64.1377
18.11	64.1209
18.128	64.1015
18.146	64.0798
18.164	64.056
18.182	64.0314
18.2	64.0071
18.218	63.9852
18.236	63.9671
18.254	63.955
18.272	63.9494
18.29	63.9515
18.308	63.9613
18.326	63.9775
18.344	63.9994
18.362	64.0232
18.38	64.047
18.398	64.0661
18.416	64.078
18.434	64.0784
18.452	64.0651
18.47	64.0352
18.488	63.9885
18.506	63.9237
18.524	63.8435
18.542	63.7477
18.56	63.6423
18.578	63.5277
18.596	63.4118
18.614	63.2951
18.632	63.1857
18.65	63.0838
18.668	62.9958
18.686	62.9213
18.704	62.863
18.722	62.8201
18.74	62.792
18.758	62.7776
18.776	62.7737
18.794	62.7792
18.812	62.7899
18.83	62.8049
18.848	62.8204
18.866	62.8363
18.884	62.8503
18.902	62.8634
18.92	62.8752
18.938	62.8873
18.956	62.901
18.974	62.9179
18.992	62.9402
19.01	62.969
19.028	63.0066
19.046	63.0527
19.064	63.1087
19.082	63.1733
19.1	63.2462
19.118	63.3257
19.136	63.4093
19.154	63.4953
19.172	63.5798
19.19	63.6616
19.208	63.736
19.226	63.8029
19.244	63.8587
19.262	63.9039
19.28	63.9368
19.298	63.9582
19.316	63.9691
19.334	63.9699
19.352	63.9637
19.37	63.9505
19.388	63.935
19.406	63.9171
19.424	63.9004
19.442	63.8853
19.46	63.8736
19.478	63.8659
19.496	63.8616
19.514	63.8611
19.532	63.8626
19.55	63.8659
19.568	63.8687
19.586	63.8691
19.604	63.8661
19.622	63.8569
19.64	63.8415
19.658	63.8172
19.676	63.7844
19.694	63.7426
19.712	63.6917
19.73	63.6332
19.748	63.5669
19.766	63.4954
19.784	63.4191
19.802	63.3404
19.82	63.2608
19.838	63.1814
19.856	63.1049
19.874	63.031
19.892	62.9622
19.91	62.8982
19.928	62.8402
19.946	62.7882
19.964	62.7421
19.982	62.7022
20	62.6678
20.018	62.6386
20.036	62.6147
20.054	62.5956
20.072	62.5815
20.09	62.5728
20.108	62.5693
20.126	62.5722
20.144	62.5813
20.162	62.5979
20.18	62.6223
20.198	62.6551
20.216	62.6973
20.234	62.7485
20.252	62.8092
20.27	62.8795
20.288	62.9579
20.306	63.0448
20.324	63.1379
20.342	63.2362
20.36	63.3387
20.378	63.4417
20.396	63.5458
20.414	63.6463
20.432	63.7437
20.45	63.8346
20.468	63.9175
20.486	63.9919
20.504	64.0552
20.522	64.108
20.54	64.1495
20.558	64.1795
20.576	64.1991
20.594	64.2085
20.612	64.2087
20.63	64.202
20.648	64.1881
20.666	64.1707
20.684	64.1493
20.702	64.1269
20.72	64.1055
20.738	64.085
20.756	64.0684
20.774	64.0549
20.792	64.0463
20.81	64.0433
20.828	64.0452
20.846	64.0519
20.864	64.0631
20.882	64.0769
20.9	64.0939
20.918	64.1113
20.936	64.1273
20.954	64.1419
20.972	64.1511
20.99	64.1559
21.008	64.1532
21.026	64.1417
21.044	64.1218
21.062	64.0914
21.08	64.051
21.098	64.001
21.116	63.9409
21.134	63.8721
21.152	63.7967
21.17	63.7139
21.188	63.6279
21.206	63.5388
21.224	63.4486
21.242	63.3614
21.26	63.2757
21.278	63.1965
21.296	63.1243
21.314	63.06
21.332	63.0072
21.35	62.9648
21.368	62.9348
21.386	62.918
21.404	62.9138
21.422	62.9224
21.44	62.9439
21.458	62.9767
21.476	63.0205
21.494	63.0747
21.512	63.1356
21.53	63.2046
21.548	63.2781
21.566	63.3537
21.584	63.4321
21.602	63.508
21.62	63.5822
21.638	63.6523
21.656	63.7145
21.674	63.7705
21.692	63.8167
21.71	63.8522
21.728	63.8774
21.746	63.8902
21.764	63.8908
21.782	63.8796
21.8	63.8562
21.818	63.8209
21.836	63.7757
21.854	63.72
21.872	63.6552
21.89	63.5841
21.908	63.5054
21.926	63.4224
21.944	63.3371
21.962	63.2487
21.98	63.1608
21.998	63.0735
22.016	62.9873
22.034	62.9051
22.052	62.826
22.07	62.7509
22.088	62.6806
22.106	62.6148
22.124	62.5533
22.142	62.4964
22.16	62.4436
22.178	62.3936
22.196	62.347
22.214	62.3027
22.232	62.2593
22.25	62.2174
22.268	62.176
22.286	62.1345
22.304	62.0932
22.322	62.0522
22.34	62.0112
22.358	61.9708
22.376	61.9325
22.394	61.8956
22.412	61.8616
22.43	61.8328
22.448	61.8082
22.466	61.7899
22.484	61.7799
22.502	61.777
22.52	61.7834
22.538	61.8
22.556	61.8262
22.574	61.8626
22.592	61.9099
22.61	61.9673
22.628	62.0338
22.646	62.1104
22.664	62.1952
22.682	62.2853
22.7	62.3824
22.718	62.4835
22.736	62.5847
22.754	62.6883
22.772	62.7906
22.79	62.8884
22.808	62.9836
22.826	63.0731
22.844	63.1549
22.862	63.2302
22.88	63.2971
22.898	63.3544
22.916	63.403
22.934	63.4428
22.952	63.4734
22.97	63.4952
22.988	63.5103
23.006	63.5187
23.024	63.5206
23.042	63.5194
23.06	63.5151
23.078	63.5079
23.096	63.5012
23.114	63.4947
23.132	63.4886
23.15	63.4855
23.168	63.4851
23.186	63.4876
23.204	63.4947
23.222	63.5069
23.24	63.5234
23.258	63.5442
23.276	63.5699
23.294	63.5997
23.312	63.6319
23.33	63.6675
23.348	63.7055
23.366	63.7429
23.384	63.7801
23.402	63.8168
23.42	63.8502
23.438	63.8806
23.456	63.9077
23.474	63.9287
23.492	63.9434
23.51	63.9521
23.528	63.9527
23.546	63.9446
23.564	63.9286
23.582	63.9036
23.6	63.8692
23.618	63.8258
23.636	63.7738
23.654	63.7132
23.672	63.6436
23.69	63.5673
23.708	63.4854
23.726	63.3964
23.744	63.3037
23.762	63.2097
23.78	63.112
23.798	63.0144
23.816	62.9213
23.834	62.8297
23.852	62.7428
23.87	62.6656
23.888	62.5959
23.906	62.5355
23.924	62.4902
23.942	62.4596
23.96	62.4432
23.978	62.4461
23.996	62.47
24.014	62.5129
24.032	62.5772
24.05	62.6646
24.068	62.7743
24.086	62.9054
24.104	63.0575
24.122	63.2319
24.14	63.4258
24.158	63.6358
24.176	63.8643
24.194	64.1089
24.212	64.3638
24.23	64.6299
24.248	64.9076
24.266	65.1883
24.284	65.4676
24.302	65.7504
24.32	66.0294
24.338	66.2975
24.356	66.5588
24.374	66.8106
24.392	67.0472
24.41	67.2687
24.428	67.4762
24.446	67.6686
24.464	67.8445
24.482	68.0046
24.5	68.1509
24.518	68.2846
24.536	68.4031
24.554	68.5106
24.572	68.6127
24.59	68.7066
24.608	68.7939
24.626	68.8821
24.644	68.9741
24.662	69.0657
24.68	69.1636
24.698	69.2737
24.716	69.3919
24.734	69.5212
24.752	69.6669
24.77	69.8303
24.788	70.0094
24.806	70.205
24.824	70.4187
24.842	70.6513
24.86	70.8988
24.878	71.1572
24.896	71.4299
24.914	71.7144
24.932	72.0029
24.95	72.2915
24.968	72.5858
24.986	72.8779
25.004	73.1599
25.022	73.4363
25.04	73.7049
25.058	73.9571
25.076	74.1895
25.094	74.407
25.112	74.604
25.13	74.7743
25.148	74.9199
25.166	75.0413
25.184	75.1366
25.202	75.2038
25.22	75.2432
25.238	75.2589
25.256	75.255
25.274	75.229
25.292	75.1822
25.31	75.1196
25.328	75.0441
25.346	74.9525
25.364	74.8477
25.382	74.733
25.4	74.6073
25.418	74.4706
25.436	74.3258
25.454	74.1752
25.472	74.0166
25.49	73.8516
25.508	73.6822
25.526	73.5103
25.544	73.3347
25.562	73.153
25.58	72.9632
25.598	72.7687
25.616	72.5667
25.634	72.3516
25.652	72.1197
25.67	71.8751
25.688	71.6153
25.706	71.3369
25.724	71.0407
25.742	70.7279
25.76	70.3945
25.778	70.0363
25.796	69.6498
25.814	69.2412
25.832	68.8189
25.85	68.3871
25.868	67.9371
25.886	67.4795
25.904	67.0269
25.922	66.5933
25.94	66.1727
25.958	65.7418
25.976	65.2776
25.994	64.794
26.012	64.2893
26.03	63.736
26.048	63.1101
26.066	62.4257
26.084	61.6817
26.102	60.8676
26.12	59.974
26.138	59.0028
26.156	57.9637
26.174	56.8666
26.192	55.6941
26.21	54.4299
26.228	53.1453
26.246	51.9137
26.264	50.7222
26.282	49.5433
26.3	48.449
26.318	47.51
26.336	46.7083
26.354	46.028
26.372	45.498
26.39	45.1459
26.408	44.9679
26.426	44.9516
26.444	45.0902
26.462	45.3882
26.48	45.912
26.498	46.5761
26.516	47.2612
26.534	47.882
26.552	48.5384
26.57	49.1741
26.588	49.6985
26.606	50.0432
26.624	50.2554
26.642	50.3473
26.66	50.3219
26.678	50.1654
26.696	49.8505
26.714	49.4421
26.732	49.0117
26.75	48.5528
26.768	47.9531
26.786	47.4061
26.804	47.1251
26.822	47.2114
26.84	47.4992
26.858	48.0904
26.876	49.1077
26.894	50.6437
26.912	52.6429
26.93	55.0401
26.948	57.7739
26.966	61.0279
26.984	65.168
27.002	69.3552
27.02	72.6739
27.028	73.5371