File: Bakgrunnsmateriale/MATLAB/FTIR/ftir_data/subAa/Mapping_121/BZ1503107-1_t72.asc
PE IR       SPECTRUM    SPECTRUM    ASCII       PEDS        1.60
  -1
BZ215F~1.ASC
17/04/07
19:11:09.00
17/04/07
19:11:35.00
tln
$BZ1503107-1_t0072$<tbV0>[0.0,2.6,8.0,0.0,27,1,0]
27.028
64

2002,4.07
MIRTGS : RIGHTBACK : INTERNAL 2
MIR : ON : INTERNAL 2
OPTKBR

0.200000
8
8.000000
FILLER
RATIO
SPECTRUM
UNLOCKED 256

DOUBLE
64
COMBINED
1
0
0

0.002000
RATIO

1
0
TRUE
51149
0
LEFT NOT FITTED RIGHT NOT FITTED 0
NONE
NONE
15600
12
4.427000
51148
TRUE
1 0 8 72 0 0 0 0

15798

#HDR
-1
-1
#GR
µM
%T
2.38419e-05
0.0
2.000000
0.002000
12515
8
73.2549
51.2085
#DATA
2.000000	 64.8177
2.018000	 64.7324
2.036000	 65.1551
2.054000	 64.9426
2.072000	 64.5236
2.090000	 64.232
2.108000	 64.2427
2.126000	 64.297
2.144000	 64.5272
2.162000	 64.4303
2.180000	 64.7742
2.198000	 64.7391
2.216000	 65.0103
2.234000	 64.7219
2.252000	 65.383
2.270000	 67.5965
2.288000	 64.8485
2.306000	 64.9498
2.324000	 64.7315
2.342000	 64.8122
2.360000	 65.1258
2.378000	 64.7795
2.396000	 65.026
2.414000	 64.4592
2.432000	 64.7497
2.450000	 64.9229
2.468000	 64.6289
2.486000	 64.7352
2.504000	 64.679
2.522000	 64.8881
2.540000	 64.6159
2.558000	 64.6949
2.576000	 64.8028
2.594000	 65.0549
2.612000	 64.6431
2.630000	 64.8269
2.648000	 64.9725
2.666000	 64.7458
2.684000	 64.9072
2.702000	 64.9637
2.720000	 64.8756
2.738000	 64.97
2.756000	 64.8516
2.774000	 65.0207
2.792000	 65.0095
2.810000	 64.8249
2.828000	 64.9476
2.846000	 65.0699
2.864000	 64.7985
2.882000	 64.9537
2.900000	 64.9333
2.918000	 64.8251
2.936000	 64.7886
2.954000	 64.8255
2.972000	 64.862
2.990000	 64.77
3.008000	 64.8091
3.026000	 64.6933
3.044000	 64.6787
3.062000	 64.7026
3.080000	 64.8522
3.098000	 64.8675
3.116000	 64.7986
3.134000	 64.8446
3.152000	 64.7704
3.170000	 64.9236
3.188000	 64.6444
3.206000	 64.8563
3.224000	 64.6392
3.242000	 64.6733
3.260000	 64.8534
3.278000	 64.7614
3.296000	 64.8915
3.314000	 64.7155
3.332000	 64.6957
3.350000	 64.697
3.368000	 64.6276
3.386000	 64.583
3.404000	 64.5637
3.422000	 64.7586
3.440000	 64.6799
3.458000	 64.6666
3.476000	 64.5723
3.494000	 64.6752
3.512000	 64.6544
3.530000	 64.5224
3.548000	 64.8247
3.566000	 64.6513
3.584000	 64.6465
3.602000	 64.6706
3.620000	 64.7676
3.638000	 64.5968
3.656000	 64.7432
3.674000	 64.7028
3.692000	 64.7394
3.710000	 64.7108
3.728000	 64.7215
3.746000	 64.6218
3.764000	 64.5485
3.782000	 64.5765
3.800000	 64.6457
3.818000	 64.6711
3.836000	 64.6486
3.854000	 64.5639
3.872000	 64.534
3.890000	 64.5433
3.908000	 64.5675
3.926000	 64.5787
3.944000	 64.6042
3.962000	 64.6011
3.980000	 64.3587
3.998000	 64.5753
4.016000	 64.5164
4.034000	 64.5787
4.052000	 64.5708
4.070000	 64.6834
4.088000	 64.6107
4.106000	 64.6028
4.124000	 64.6097
4.141999	 64.5886
4.160000	 64.4885
4.178000	 64.3819
4.196000	 64.4106
4.214000	 64.4883
4.232000	 64.4816
4.250000	 64.3923
4.268000	 64.505
4.286000	 64.5539
4.304000	 64.3631
4.322000	 64.5438
4.340000	 64.5053
4.358000	 64.2891
4.375999	 64.4681
4.394000	 64.5394
4.412000	 64.4323
4.430000	 64.4062
4.448000	 64.353
4.466000	 64.318
4.484000	 64.408
4.502000	 64.3989
4.520000	 64.3818
4.538000	 64.3488
4.556000	 64.2377
4.574000	 64.2947
4.592000	 64.1822
4.609999	 64.1984
4.628000	 64.2512
4.646000	 64.2855
4.664000	 64.342
4.682000	 64.3003
4.700000	 64.3777
4.718000	 64.2267
4.736000	 64.3225
4.754000	 64.2859
4.772000	 64.2984
4.790000	 64.2392
4.808000	 64.2288
4.826000	 64.3484
4.843999	 64.3224
4.862000	 64.214
4.880000	 64.1831
4.898000	 64.2571
4.916000	 64.24
4.934000	 64.1624
4.952000	 64.1649
4.970000	 64.1254
4.988000	 64.0795
5.006000	 64.091
5.024000	 64.1129
5.042000	 64.1257
5.060000	 64.1615
5.077999	 64.1912
5.096000	 64.2679
5.114000	 64.2466
5.132000	 64.0656
5.150000	 64.1064
5.168000	 64.1676
5.186000	 64.2289
5.204000	 64.1892
5.222000	 64.1921
5.240000	 64.1866
5.258000	 64.1162
5.276000	 64.0706
5.294000	 64.1744
5.312000	 64.1297
5.330000	 64.1358
5.348000	 64.0917
5.366000	 64.1263
5.384000	 64.0991
5.402000	 64.1161
5.420000	 64.064
5.438000	 63.9824
5.456000	 63.9977
5.474000	 64.0674
5.492000	 64.0391
5.510000	 64.0673
5.528000	 64.0751
5.546000	 64.088
5.564000	 64.1362
5.582000	 64.0868
5.600000	 63.9864
5.618000	 64.0216
5.636000	 64.0824
5.654000	 64.1165
5.672000	 64.0515
5.690000	 64.0121
5.708000	 63.861
5.726000	 63.7791
5.744000	 63.7859
5.762000	 63.8245
5.780000	 63.8876
5.798000	 63.8877
5.816000	 63.8888
5.834000	 63.9454
5.852000	 63.9503
5.870000	 63.8552
5.888000	 63.8357
5.906000	 63.914
5.923999	 63.8621
5.942000	 63.7522
5.960000	 63.7674
5.978000	 63.7447
5.996000	 63.7594
6.014000	 63.7877
6.032000	 63.8001
6.050000	 63.8126
6.068000	 63.8385
6.086000	 63.7712
6.104000	 63.6716
6.122000	 63.7145
6.140000	 63.911
6.158000	 63.9925
6.176000	 64.0175
6.194000	 63.9708
6.212000	 63.8022
6.230000	 63.7623
6.248000	 63.8446
6.266000	 63.8068
6.284000	 63.7128
6.302000	 63.8003
6.320000	 63.8561
6.338000	 63.7811
6.356000	 63.7655
6.374000	 63.7859
6.392000	 63.7214
6.410000	 63.6833
6.428000	 63.6979
6.446000	 63.6607
6.464000	 63.69
6.482000	 63.8056
6.500000	 63.8467
6.518000	 63.7932
6.536000	 63.7492
6.554000	 63.7356
6.572000	 63.7328
6.590000	 63.7676
6.608000	 63.8179
6.626000	 63.8135
6.644000	 63.7843
6.662000	 63.7359
6.680000	 63.6746
6.698000	 63.6766
6.716000	 63.7218
6.734000	 63.7299
6.752000	 63.6979
6.770000	 63.675
6.788000	 63.6445
6.806000	 63.5827
6.824000	 63.5487
6.842000	 63.6223
6.860000	 63.7237
6.878000	 63.7093
6.896000	 63.6549
6.914000	 63.6242
6.932000	 63.5976
6.950000	 63.6075
6.968000	 63.6369
6.986000	 63.6812
7.004000	 63.7294
7.022000	 63.7214
7.040000	 63.6644
7.058000	 63.6202
7.076000	 63.5857
7.094000	 63.5477
7.112000	 63.5362
7.130000	 63.5439
7.148000	 63.5666
7.166000	 63.6219
7.184000	 63.6525
7.202000	 63.6092
7.220000	 63.5412
7.238000	 63.4885
7.256000	 63.4372
7.274000	 63.4232
7.292000	 63.4879
7.310000	 63.5629
7.328000	 63.5749
7.346000	 63.5487
7.364000	 63.5277
7.382000	 63.5229
7.400000	 63.5277
7.418000	 63.5292
7.436000	 63.5339
7.454000	 63.5622
7.472000	 63.6026
7.490000	 63.6089
7.508000	 63.5826
7.526000	 63.6
7.544000	 63.6686
7.562000	 63.6817
7.580000	 63.598
7.598000	 63.519
7.616000	 63.521
7.634000	 63.5537
7.652000	 63.5592
7.670000	 63.5519
7.688000	 63.5406
7.706000	 63.5029
7.724000	 63.4632
7.742000	 63.4726
7.760000	 63.5155
7.778000	 63.5393
7.796000	 63.5369
7.814000	 63.5219
7.832000	 63.4988
7.850000	 63.4829
7.868000	 63.4832
7.886000	 63.474
7.904000	 63.432
7.922000	 63.3788
7.940000	 63.3555
7.958000	 63.3774
7.976000	 63.4172
7.994000	 63.4318
8.012000	 63.4107
8.030000	 63.3857
8.048000	 63.3866
8.065999	 63.4089
8.084000	 63.4322
8.102000	 63.4468
8.120000	 63.4556
8.138000	 63.4658
8.155999	 63.4778
8.173999	 63.4755
8.192000	 63.4438
8.210000	 63.4016
8.228000	 63.388
8.246000	 63.4101
8.263999	 63.4356
8.282000	 63.4389
8.300000	 63.4267
8.318000	 63.4164
8.336000	 63.414
8.353999	 63.4059
8.372000	 63.3723
8.390000	 63.3182
8.408000	 63.2812
8.426000	 63.2905
8.443999	 63.3286
8.462000	 63.3554
8.480000	 63.3558
8.498000	 63.3366
8.516000	 63.3037
8.533999	 63.2646
8.552000	 63.2328
8.570000	 63.2152
8.588000	 63.2037
8.606000	 63.1946
8.624000	 63.2004
8.641999	 63.2308
8.660000	 63.2711
8.678000	 63.2932
8.696000	 63.2865
8.714000	 63.2723
8.731999	 63.2839
8.750000	 63.3323
8.768000	 63.3935
8.786000	 63.4302
8.804000	 63.4283
8.821999	 63.4026
8.840000	 63.3689
8.858000	 63.3326
8.876000	 63.3038
8.894000	 63.2943
8.911999	 63.2979
8.930000	 63.2979
8.948000	 63.2887
8.966000	 63.2736
8.984000	 63.2541
9.001999	 63.2291
9.020000	 63.1994
9.038000	 63.1692
9.056000	 63.1451
9.074000	 63.1318
9.092000	 63.128
9.109999	 63.1294
9.128000	 63.1352
9.146000	 63.1511
9.164000	 63.1831
9.182000	 63.2275
9.199999	 63.2664
9.218000	 63.278
9.236000	 63.2524
9.254000	 63.2002
9.272000	 63.145
9.289999	 63.1086
9.308000	 63.0981
9.326000	 63.1085
9.344000	 63.1326
9.362000	 63.1655
9.379999	 63.2019
9.398000	 63.2308
9.416000	 63.241
9.434000	 63.2294
9.452000	 63.2027
9.469999	 63.1719
9.488000	 63.1439
9.506000	 63.1213
9.524000	 63.1072
9.542000	 63.1052
9.560000	 63.1146
9.577999	 63.1265
9.596000	 63.1288
9.614000	 63.1177
9.632000	 63.1048
9.650000	 63.1125
9.667999	 63.1555
9.686000	 63.2241
9.704000	 63.284
9.722000	 63.3001
9.740000	 63.2615
9.757999	 63.1884
9.776000	 63.1166
9.794000	 63.0739
9.812000	 63.0678
9.830000	 63.0878
9.847999	 63.1169
9.866000	 63.1409
9.884000	 63.1524
9.902000	 63.1521
9.920000	 63.1477
9.937999	 63.1473
9.956000	 63.1508
9.974000	 63.1481
9.992000	 63.1282
10.01	63.0903
10.028	63.0495
10.046	63.0284
10.064	63.0426
10.082	63.0917
10.1	63.1616
10.118	63.2345
10.136	63.299
10.154	63.349
10.172	63.3791
10.19	63.3809
10.208	63.3466
10.226	63.2762
10.244	63.1832
10.262	63.0937
10.28	63.0357
10.298	63.0269
10.316	63.0663
10.334	63.1351
10.352	63.2068
10.37	63.2598
10.388	63.2882
10.406	63.2981
10.424	63.2985
10.442	63.2893
10.46	63.2612
10.478	63.2033
10.496	63.1155
10.514	63.0145
10.532	62.9291
10.55	62.8859
10.568	62.898
10.586	62.9583
10.604	63.0452
10.622	63.132
10.64	63.1992
10.658	63.2388
10.676	63.256
10.694	63.2625
10.712	63.2695
10.73	63.2805
10.748	63.291
10.766	63.2914
10.784	63.2742
10.802	63.2381
10.82	63.1885
10.838	63.1357
10.856	63.0903
10.874	63.0603
10.892	63.0479
10.91	63.0496
10.928	63.0576
10.946	63.0632
10.964	63.0608
10.982	63.05
11	63.0368
11.018	63.0304
11.036	63.0357
11.054	63.0506
11.072	63.0672
11.09	63.0772
11.108	63.0786
11.126	63.077
11.144	63.0805
11.162	63.0936
11.18	63.1135
11.198	63.1296
11.216	63.1305
11.234	63.1087
11.252	63.0658
11.27	63.0115
11.288	62.9602
11.306	62.9246
11.324	62.9136
11.342	62.931
11.36	62.9749
11.378	63.0396
11.396	63.1166
11.414	63.1957
11.432	63.2671
11.45	63.3238
11.468	63.3606
11.486	63.3736
11.504	63.3615
11.522	63.326
11.54	63.2727
11.558	63.2122
11.576	63.1579
11.594	63.1208
11.612	63.1073
11.63	63.1155
11.648	63.1371
11.666	63.1595
11.684	63.1721
11.702	63.17
11.72	63.1558
11.738	63.1364
11.756	63.1196
11.774	63.1108
11.792	63.1121
11.81	63.1231
11.828	63.1416
11.846	63.1659
11.864	63.1948
11.882	63.2268
11.9	63.2606
11.918	63.2935
11.936	63.3212
11.954	63.3378
11.972	63.3379
11.99	63.3186
12.008	63.2817
12.026	63.2349
12.044	63.1908
12.062	63.1642
12.08	63.1674
12.098	63.2057
12.116	63.2756
12.134	63.3643
12.152	63.4536
12.17	63.5275
12.188	63.5756
12.206	63.5969
12.224	63.5971
12.242	63.5844
12.26	63.5652
12.278	63.5423
12.296	63.5153
12.314	63.4836
12.332	63.4475
12.35	63.4095
12.368	63.3732
12.386	63.3415
12.404	63.3161
12.422	63.2959
12.44	63.2785
12.458	63.261
12.476	63.2414
12.494	63.2193
12.512	63.1956
12.53	63.1714
12.548	63.1478
12.566	63.1244
12.584	63.1011
12.602	63.0778
12.62	63.0546
12.638	63.0326
12.656	63.0134
12.674	62.9979
12.692	62.9863
12.71	62.9785
12.728	62.9749
12.746	62.9761
12.764	62.9834
12.782	62.9981
12.8	63.0199
12.818	63.0465
12.836	63.0725
12.854	63.0908
12.872	63.094
12.89	63.0767
12.908	63.0373
12.926	62.9795
12.944	62.9115
12.962	62.843
12.98	62.7831
12.998	62.7372
13.016	62.7063
13.034	62.6868
13.052	62.6728
13.07	62.658
13.088	62.6379
13.106	62.6104
13.124	62.5764
13.142	62.5387
13.16	62.4999
13.178	62.4616
13.196	62.4236
13.214	62.3844
13.232	62.3414
13.25	62.2935
13.268	62.2414
13.286	62.1887
13.304	62.1414
13.322	62.1067
13.34	62.0908
13.358	62.098
13.376	62.1289
13.394	62.1802
13.412	62.2447
13.43	62.3137
13.448	62.3779
13.466	62.4299
13.484	62.4649
13.502	62.4821
13.52	62.4838
13.538	62.4752
13.556	62.4627
13.574	62.4523
13.592	62.4484
13.61	62.454
13.628	62.4696
13.646	62.4936
13.664	62.5228
13.682	62.5541
13.7	62.5849
13.718	62.6131
13.736	62.6376
13.754	62.6581
13.772	62.6741
13.79	62.6846
13.808	62.6879
13.826	62.682
13.844	62.6648
13.862	62.6348
13.88	62.5915
13.898	62.537
13.916	62.475
13.934	62.4103
13.952	62.3483
13.97	62.2936
13.988	62.25
14.006	62.2193
14.024	62.2019
14.042	62.1971
14.06	62.204
14.078	62.2228
14.096	62.2556
14.114	62.3056
14.132	62.3761
14.15	62.4698
14.168	62.587
14.186	62.7243
14.204	62.8739
14.222	63.0241
14.24	63.1608
14.258	63.2708
14.276	63.3434
14.294	63.3728
14.312	63.3598
14.33	63.3116
14.348	63.2413
14.366	63.1656
14.384	63.1028
14.402	63.0679
14.42	63.0707
14.438	63.1148
14.456	63.1974
14.474	63.3092
14.492	63.437
14.51	63.5643
14.528	63.6766
14.546	63.7635
14.564	63.8191
14.582	63.8428
14.6	63.838
14.618	63.8119
14.636	63.7732
14.654	63.7296
14.672	63.686
14.69	63.6448
14.708	63.6061
14.726	63.5682
14.744	63.5273
14.762	63.4812
14.78	63.4278
14.798	63.3661
14.816	63.2966
14.834	63.2204
14.852	63.1383
14.87	63.0521
14.888	62.963
14.906	62.873
14.924	62.7843
14.942	62.6992
14.96	62.6211
14.978	62.5541
14.996	62.502
15.014	62.469
15.032	62.4583
15.05	62.4706
15.068	62.5042
15.086	62.5554
15.104	62.6188
15.122	62.6858
15.14	62.7481
15.158	62.7981
15.176	62.8299
15.194	62.8387
15.212	62.8233
15.23	62.7857
15.248	62.7296
15.266	62.6603
15.284	62.5849
15.302	62.5097
15.32	62.4399
15.338	62.3795
15.356	62.331
15.374	62.2958
15.392	62.2729
15.41	62.2609
15.428	62.2577
15.446	62.2592
15.464	62.2627
15.482	62.2655
15.5	62.2648
15.518	62.2571
15.536	62.2408
15.554	62.2144
15.572	62.1768
15.59	62.1289
15.608	62.0721
15.626	62.0089
15.644	61.9433
15.662	61.8808
15.68	61.8265
15.698	61.7851
15.716	61.7619
15.734	61.7603
15.752	61.7813
15.77	61.8252
15.788	61.8895
15.806	61.9699
15.824	62.0618
15.842	62.159
15.86	62.2543
15.878	62.3428
15.896	62.4202
15.914	62.4829
15.932	62.5298
15.95	62.5608
15.968	62.5772
15.986	62.5823
16.004	62.5789
16.022	62.5705
16.04	62.5614
16.058	62.5543
16.076	62.5514
16.094	62.5551
16.112	62.566
16.13	62.5843
16.148	62.6105
16.166	62.6434
16.184	62.6824
16.202	62.7266
16.22	62.7737
16.238	62.8224
16.256	62.8713
16.274	62.9179
16.292	62.9601
16.31	62.9963
16.328	63.0237
16.346	63.0411
16.364	63.0473
16.382	63.0415
16.4	63.0238
16.418	62.9946
16.436	62.9553
16.454	62.9083
16.472	62.855
16.49	62.7986
16.508	62.7407
16.526	62.6828
16.544	62.6267
16.562	62.5728
16.58	62.5213
16.598	62.472
16.616	62.4242
16.634	62.3772
16.652	62.3302
16.67	62.2828
16.688	62.2344
16.706	62.1853
16.724	62.1359
16.742	62.0868
16.76	62.0389
16.778	61.9927
16.796	61.9494
16.814	61.9096
16.832	61.8737
16.85	61.8429
16.868	61.817
16.886	61.7962
16.904	61.7808
16.922	61.7711
16.94	61.7669
16.958	61.7688
16.976	61.7772
16.994	61.7921
17.012	61.814
17.03	61.8431
17.048	61.8793
17.066	61.9225
17.084	61.9723
17.102	62.0274
17.12	62.087
17.138	62.1495
17.156	62.2135
17.174	62.2778
17.192	62.3406
17.21	62.4011
17.228	62.4579
17.246	62.5104
17.264	62.5582
17.282	62.6011
17.3	62.6393
17.318	62.6731
17.336	62.7031
17.354	62.7297
17.372	62.7535
17.39	62.775
17.408	62.7947
17.426	62.8129
17.444	62.8302
17.462	62.8467
17.48	62.8625
17.498	62.8776
17.516	62.8917
17.534	62.9045
17.552	62.9155
17.57	62.9247
17.588	62.9314
17.606	62.9354
17.624	62.9364
17.642	62.9343
17.66	62.9287
17.678	62.9201
17.696	62.9085
17.714	62.8943
17.732	62.8778
17.75	62.8593
17.768	62.8396
17.786	62.8189
17.804	62.7982
17.822	62.7777
17.84	62.7582
17.858	62.74
17.876	62.7236
17.894	62.7093
17.912	62.6971
17.93	62.6872
17.948	62.6794
17.966	62.6732
17.984	62.6682
18.002	62.6635
18.02	62.6582
18.038	62.6515
18.056	62.6421
18.074	62.6294
18.092	62.6125
18.11	62.5912
18.128	62.5653
18.146	62.5354
18.164	62.5018
18.182	62.4656
18.2	62.4277
18.218	62.39
18.236	62.3534
18.254	62.3203
18.272	62.2913
18.29	62.2683
18.308	62.2516
18.326	62.242
18.344	62.2394
18.362	62.2435
18.38	62.2536
18.398	62.2686
18.416	62.2872
18.434	62.3077
18.452	62.3287
18.47	62.3488
18.488	62.3668
18.506	62.3817
18.524	62.3933
18.542	62.4012
18.56	62.406
18.578	62.4076
18.596	62.4078
18.614	62.4068
18.632	62.4065
18.65	62.4071
18.668	62.4107
18.686	62.4174
18.704	62.4285
18.722	62.4439
18.74	62.4642
18.758	62.4891
18.776	62.5187
18.794	62.5524
18.812	62.5896
18.83	62.6299
18.848	62.6726
18.866	62.7169
18.884	62.7617
18.902	62.8064
18.92	62.8497
18.938	62.8907
18.956	62.9282
18.974	62.9615
18.992	62.9893
19.01	63.0112
19.028	63.026
19.046	63.0336
19.064	63.0331
19.082	63.025
19.1	63.0092
19.118	62.9864
19.136	62.9574
19.154	62.9229
19.172	62.8845
19.19	62.8429
19.208	62.8002
19.226	62.7567
19.244	62.7148
19.262	62.6746
19.28	62.6378
19.298	62.6042
19.316	62.5749
19.334	62.5495
19.352	62.5277
19.37	62.5097
19.388	62.4938
19.406	62.4802
19.424	62.4671
19.442	62.4544
19.46	62.4406
19.478	62.4253
19.496	62.4078
19.514	62.3877
19.532	62.3651
19.55	62.3397
19.568	62.3121
19.586	62.2827
19.604	62.2521
19.622	62.2213
19.64	62.1906
19.658	62.1617
19.676	62.1344
19.694	62.1099
19.712	62.0881
19.73	62.0697
19.748	62.055
19.766	62.0438
19.784	62.0364
19.802	62.0326
19.82	62.0324
19.838	62.0355
19.856	62.0415
19.874	62.0505
19.892	62.0622
19.91	62.0764
19.928	62.0932
19.946	62.1124
19.964	62.1341
19.982	62.1582
20	62.185
20.018	62.2142
20.036	62.246
20.054	62.2804
20.072	62.3172
20.09	62.3562
20.108	62.3973
20.126	62.4398
20.144	62.4837
20.162	62.5278
20.18	62.572
20.198	62.6152
20.216	62.6563
20.234	62.695
20.252	62.7292
20.27	62.7592
20.288	62.7831
20.306	62.8008
20.324	62.8116
20.342	62.8147
20.36	62.8103
20.378	62.7984
20.396	62.7789
20.414	62.7531
20.432	62.7205
20.45	62.6832
20.468	62.6419
20.486	62.5975
20.504	62.5525
20.522	62.5063
20.54	62.462
20.558	62.4193
20.576	62.3798
20.594	62.3441
20.612	62.3124
20.63	62.2857
20.648	62.2638
20.666	62.2459
20.684	62.2325
20.702	62.2222
20.72	62.2142
20.738	62.2082
20.756	62.2018
20.774	62.1955
20.792	62.1871
20.81	62.1761
20.828	62.162
20.846	62.1435
20.864	62.1209
20.882	62.0938
20.9	62.062
20.918	62.0263
20.936	61.9872
20.954	61.9449
20.972	61.9015
20.99	61.8564
21.008	61.8122
21.026	61.7697
21.044	61.7292
21.062	61.6934
21.08	61.6615
21.098	61.6357
21.116	61.6165
21.134	61.6039
21.152	61.5989
21.17	61.6015
21.188	61.6115
21.206	61.6294
21.224	61.6545
21.242	61.6864
21.26	61.7252
21.278	61.7696
21.296	61.8195
21.314	61.8744
21.332	61.9328
21.35	61.9952
21.368	62.0596
21.386	62.126
21.404	62.1938
21.422	62.2612
21.44	62.3289
21.458	62.395
21.476	62.4587
21.494	62.5201
21.512	62.5772
21.53	62.6306
21.548	62.679
21.566	62.7216
21.584	62.7587
21.602	62.7896
21.62	62.8143
21.638	62.8329
21.656	62.8455
21.674	62.8518
21.692	62.8532
21.71	62.8494
21.728	62.8411
21.746	62.8301
21.764	62.8157
21.782	62.7997
21.8	62.7834
21.818	62.7662
21.836	62.7509
21.854	62.7375
21.872	62.7266
21.89	62.7197
21.908	62.7165
21.926	62.7175
21.944	62.7234
21.962	62.734
21.98	62.7484
21.998	62.7673
22.016	62.7897
22.034	62.8144
22.052	62.842
22.07	62.8706
22.088	62.8991
22.106	62.9279
22.124	62.9548
22.142	62.9794
22.16	63.0016
22.178	63.0196
22.196	63.0337
22.214	63.0435
22.232	63.0484
22.25	63.0483
22.268	63.0439
22.286	63.0353
22.304	63.0223
22.322	63.0068
22.34	62.9886
22.358	62.9683
22.376	62.9484
22.394	62.9281
22.412	62.9087
22.43	62.8923
22.448	62.878
22.466	62.8673
22.484	62.8616
22.502	62.8602
22.52	62.8639
22.538	62.8734
22.556	62.8881
22.574	62.9077
22.592	62.9324
22.61	62.9617
22.628	62.9935
22.646	63.0288
22.664	63.066
22.682	63.1024
22.7	63.1394
22.718	63.1747
22.736	63.2057
22.754	63.2339
22.772	63.2567
22.79	63.2719
22.808	63.2807
22.826	63.2815
22.844	63.2729
22.862	63.2557
22.88	63.2296
22.898	63.1939
22.916	63.1491
22.934	63.0968
22.952	63.037
22.97	62.9699
22.988	62.8985
23.006	62.8226
23.024	62.7426
23.042	62.6628
23.06	62.5827
23.078	62.503
23.096	62.4289
23.114	62.3599
23.132	62.2964
23.15	62.2429
23.168	62.199
23.186	62.1648
23.204	62.1431
23.222	62.134
23.24	62.1369
23.258	62.152
23.276	62.18
23.294	62.2196
23.312	62.2688
23.33	62.3287
23.348	62.3977
23.366	62.4714
23.384	62.5509
23.402	62.635
23.42	62.7182
23.438	62.8009
23.456	62.8829
23.474	62.9587
23.492	63.0278
23.51	63.0909
23.528	63.1439
23.546	63.1856
23.564	63.2172
23.582	63.2368
23.6	63.2434
23.618	63.2377
23.636	63.2204
23.654	63.1914
23.672	63.1504
23.69	63.0998
23.708	63.0411
23.726	62.9726
23.744	62.8977
23.762	62.8191
23.78	62.7347
23.798	62.6472
23.816	62.5598
23.834	62.471
23.852	62.3821
23.87	62.2958
23.888	62.2114
23.906	62.1291
23.924	62.0501
23.942	61.9748
23.96	61.9027
23.978	61.8337
23.996	61.7678
24.014	61.7052
24.032	61.6449
24.05	61.5864
24.068	61.5304
24.086	61.4756
24.104	61.4213
24.122	61.3676
24.14	61.3146
24.158	61.2625
24.176	61.2108
24.194	61.16
24.212	61.1106
24.23	61.0626
24.248	61.016
24.266	60.9717
24.284	60.9304
24.302	60.8916
24.32	60.8557
24.338	60.8232
24.356	60.7942
24.374	60.768
24.392	60.7438
24.41	60.7226
24.428	60.7035
24.446	60.684
24.464	60.6637
24.482	60.6438
24.5	60.6208
24.518	60.5919
24.536	60.5598
24.554	60.5216
24.572	60.4736
24.59	60.4172
24.608	60.3519
24.626	60.2737
24.644	60.1806
24.662	60.0746
24.68	59.9544
24.698	59.8185
24.716	59.6667
24.734	59.5006
24.752	59.3215
24.77	59.1282
24.788	58.9211
24.806	58.7055
24.824	58.4842
24.842	58.2526
24.86	58.0175
24.878	57.7872
24.896	57.5579
24.914	57.3311
24.932	57.1156
24.95	56.916
24.968	56.7269
24.986	56.554
25.004	56.4036
25.022	56.2733
25.04	56.1635
25.058	56.0774
25.076	56.0174
25.094	55.9815
25.112	55.9695
25.13	55.9813
25.148	56.0189
25.166	56.0796
25.184	56.1592
25.202	56.2567
25.22	56.3755
25.238	56.508
25.256	56.6468
25.274	56.796
25.292	56.9537
25.31	57.1123
25.328	57.2673
25.346	57.4238
25.364	57.5771
25.382	57.7214
25.4	57.8572
25.418	57.986
25.436	58.1049
25.454	58.2117
25.472	58.3073
25.49	58.3925
25.508	58.4678
25.526	58.5327
25.544	58.5872
25.562	58.633
25.58	58.6718
25.598	58.7025
25.616	58.7257
25.634	58.7428
25.652	58.7551
25.67	58.7621
25.688	58.7632
25.706	58.758
25.724	58.7474
25.742	58.7312
25.76	58.7073
25.778	58.6738
25.796	58.6339
25.814	58.585
25.832	58.5219
25.85	58.4414
25.868	58.3476
25.886	58.2373
25.904	58.1056
25.922	57.9507
25.94	57.7752
25.958	57.5789
25.976	57.3615
25.994	57.1199
26.012	56.8568
26.03	56.5778
26.048	56.2877
26.066	55.979
26.084	55.658
26.102	55.3357
26.12	55.0177
26.138	54.693
26.156	54.3733
26.174	54.0733
26.192	53.7957
26.21	53.5297
26.228	53.291
26.246	53.0958
26.264	52.9431
26.282	52.8259
26.3	52.7562
26.318	52.7455
26.336	52.7903
26.354	52.8881
26.372	53.0443
26.39	53.2642
26.408	53.5502
26.426	53.8966
26.444	54.2964
26.462	54.7449
26.48	55.2533
26.498	55.811
26.516	56.4016
26.534	57.0154
26.552	57.6728
26.57	58.3544
26.588	59.0338
26.606	59.6966
26.624	60.3703
26.642	61.0304
26.66	61.6455
26.678	62.2004
26.696	62.7237
26.714	63.1917
26.732	63.5757
26.75	63.8616
26.768	64.0732
26.786	64.1948
26.804	64.2071
26.822	64.0999
26.84	63.8864
26.858	63.5635
26.876	63.1268
26.894	62.5706
26.912	61.8947
26.93	61.1101
26.948	60.2283
26.966	59.1876
26.984	57.8797
27.002	56.5637
27.02	55.5219
27.028	55.2502