File: Bakgrunnsmateriale/MATLAB/FTIR/ftir_data/subAa/Mapping_121/BZ1503107-1_t60_cm-1.asc
PE IR       SPECTRUM    SPECTRUM    ASCII       PEDS        1.60
  -1
BZ6821~1.ASC
17/04/07
18:08:58.00
17/04/07
18:08:58.00
tln
$BZ1503107-1_t0060$<tbV0>[2.6,0.0,8.0,0.0,27,1,0]
370
64

2002,4.07
MIRTGS : RIGHTBACK : INTERNAL 2
MIR : ON : INTERNAL 2
OPTKBR

0.200000
8
8.000000
FILLER
RATIO
SPECTRUM
UNLOCKED 256

DOUBLE
64
COMBINED
1
0
0

1.000000
RATIO

1
0
TRUE
51149
0
LEFT NOT FITTED RIGHT NOT FITTED 0
NONE
NONE
15600
12
4.427000
51148
TRUE
1 0 8 72 0 0 0 0

15798

#HDR
-1
-1
#GR
CM-1
%T
2.38419e-05
0.0
5000
-1.000000
4631
8
81.2887
57.2145
#DATA
5000	65.3455
4996	64.3261
4992	62.9846
4988	63.4142
4984	64.356
4980	63.436
4976	62.7034
4972	63.7229
4968	64.3445
4964	64.5167
4960	64.7244
4956	65.1111
4952	66.0609
4948	65.6133
4944	64.4185
4940	64.6718
4936	65.0072
4932	64.5502
4928	63.8826
4924	63.5932
4920	63.6395
4916	63.5153
4912	63.814
4908	64.5305
4904	64.8369
4900	64.7341
4896	64.5682
4892	64.508
4888	64.6806
4884	64.5833
4880	64.2336
4876	64.3913
4872	64.8169
4868	64.9047
4864	64.6733
4860	64.6329
4856	64.7963
4852	64.8796
4848	64.912
4844	64.9772
4840	64.8768
4836	64.4864
4832	64.3697
4828	64.6541
4824	64.8152
4820	64.7578
4816	64.7539
4812	64.845
4808	64.8721
4804	64.8625
4800	64.8566
4796	64.7299
4792	64.5214
4788	64.4262
4784	64.4534
4780	64.4981
4776	64.5284
4772	64.6387
4768	64.8746
4764	64.9907
4760	64.9335
4756	64.8787
4752	64.7637
4748	64.6225
4744	64.7386
4740	65.0005
4736	65.0629
4732	65.0892
4728	65.0829
4724	64.8787
4720	64.7917
4716	64.8469
4712	64.8583
4708	64.7881
4704	64.5504
4700	64.5018
4696	64.7446
4692	64.8704
4688	64.8875
4684	64.9807
4680	65.1649
4676	65.1653
4672	64.8612
4668	64.665
4664	64.7878
4660	65.06
4656	65.2023
4652	64.9668
4648	64.7066
4644	64.7847
4640	64.9291
4636	64.9948
4632	65.1523
4628	65.2034
4624	64.9976
4620	64.9608
4616	65.056
4612	65.0417
4608	65.0499
4604	65.17
4600	65.318
4596	65.304
4592	65.3022
4588	65.4525
4584	65.3872
4580	65.2342
4576	65.4143
4572	65.5273
4568	65.3237
4564	65.1658
4560	65.1924
4556	65.3032
4552	65.4916
4548	65.7361
4544	65.7823
4540	65.5657
4536	65.4746
4532	65.7215
4528	65.897
4524	65.7148
4520	65.5416
4516	65.5551
4512	65.5543
4508	65.7191
4504	66.0867
4500	66.1659
4496	65.8274
4492	65.6052
4488	65.8386
4484	66.1833
4480	66.0167
4476	65.5466
4472	65.4369
4468	65.5058
4464	65.0429
4460	65.0999
4456	65.4005
4452	64.1405
4448	60.4222
4444	57.2145
4440	61.8109
4436	65.6491
4432	60.3388
4428	57.7157
4424	60.2445
4420	62.1297
4416	62.9611
4412	64.4212
4408	65.3382
4404	64.9719
4400	64.9057
4396	65.4561
4392	65.9545
4388	65.8713
4384	65.4583
4380	65.3512
4376	65.5846
4372	65.6357
4368	65.5778
4364	65.7688
4360	65.8483
4356	65.7114
4352	65.7447
4348	65.8329
4344	65.6797
4340	65.4118
4336	65.3543
4332	65.4704
4328	65.5887
4324	65.643
4320	65.5767
4316	65.3988
4312	65.238
4308	65.294
4304	65.5672
4300	65.7618
4296	65.5137
4292	65.1075
4288	65.0088
4284	65.028
4280	65.0458
4276	65.2031
4272	65.464
4268	65.582
4264	65.4275
4260	65.1528
4256	64.854
4252	64.7099
4248	64.8141
4244	64.8911
4240	64.9692
4236	65.167
4232	65.2422
4228	65.2013
4224	65.2453
4220	65.2154
4216	65.0735
4212	65.0845
4208	65.1808
4204	65.192
4200	65.1246
4196	64.9665
4192	64.8281
4188	64.8636
4184	64.895
4180	64.7439
4176	64.6104
4172	64.605
4168	64.6969
4164	64.7783
4160	64.8359
4156	64.8904
4152	64.7305
4148	64.4963
4144	64.491
4140	64.6828
4136	64.8268
4132	64.8562
4128	64.8829
4124	64.9361
4120	64.9695
4116	64.8401
4112	64.6475
4108	64.5876
4104	64.7011
4100	64.786
4096	64.7284
4092	64.7876
4088	64.9847
4084	65.1463
4080	65.1685
4076	65.0516
4072	64.929
4068	64.8535
4064	64.7896
4060	64.8409
4056	64.942
4052	64.9206
4048	64.9508
4044	65.004
4040	64.9327
4036	64.9234
4032	64.9919
4028	65.0236
4024	65.0814
4020	65.1009
4016	65.0923
4012	65.1204
4008	65.0843
4004	65.0183
4000	64.9872
3996	64.9992
3992	65.0823
3988	65.1835
3984	65.1835
3980	65.1677
3976	65.3075
3972	65.3761
3968	65.1967
3964	65.0735
3960	65.1121
3956	65.031
3952	64.8249
3948	64.8514
3944	65.0534
3940	65.0973
3936	65.0498
3932	65.0034
3928	64.9657
3924	65.003
3920	65.0689
3916	65.0616
3912	65.0681
3908	65.141
3904	65.1157
3900	65.0384
3896	65.1433
3892	65.3407
3888	65.3002
3884	65.0923
3880	65.0583
3876	65.1469
3872	65.1742
3868	65.1434
3864	65.1167
3860	65.118
3856	65.1654
3852	65.334
3848	65.441
3844	65.2942
3840	65.1399
3836	65.112
3832	65.0874
3828	65.0369
3824	64.9871
3820	64.9823
3816	64.9765
3812	64.9164
3808	64.9136
3804	64.9971
3800	65.0382
3796	64.9335
3792	64.8295
3788	64.9143
3784	65.1403
3780	65.2794
3776	65.1975
3772	65.0681
3768	65.0276
3764	65.017
3760	64.9572
3756	64.9374
3752	65.0103
3748	65.0515
3744	65.0101
3740	64.9323
3736	64.9301
3732	65.0154
3728	65.0501
3724	65.0234
3720	65.0015
3716	65.0109
3712	65.0459
3708	65.0706
3704	65.0768
3700	65.0216
3696	64.9458
3692	64.958
3688	65.0316
3684	65.0709
3680	65.0949
3676	65.1585
3672	65.172
3668	65.1272
3664	65.1139
3660	65.1193
3656	65.0849
3652	65.0401
3648	65.0293
3644	65.0587
3640	65.1467
3636	65.2594
3632	65.2393
3628	65.0905
3624	65.0185
3620	64.9995
3616	64.9411
3612	64.8797
3608	64.9329
3604	65.0803
3600	65.1179
3596	65.0346
3592	64.9433
3588	64.9162
3584	64.9296
3580	64.9237
3576	64.952
3572	65.0706
3568	65.2167
3564	65.2712
3560	65.2322
3556	65.1841
3552	65.2
3548	65.2133
3544	65.1456
3540	65.1246
3536	65.1604
3532	65.1278
3528	65.0571
3524	65.0667
3520	65.1255
3516	65.112
3512	65.0627
3508	65.0725
3504	65.1344
3500	65.1913
3496	65.2017
3492	65.1326
3488	65.0496
3484	65.0882
3480	65.1599
3476	65.1615
3472	65.1768
3468	65.1902
3464	65.2051
3460	65.2538
3456	65.2866
3452	65.2798
3448	65.2311
3444	65.1818
3440	65.1162
3436	65.0562
3432	65.0098
3428	64.9219
3424	64.9329
3420	65.0706
3416	65.127
3412	65.1137
3408	65.1194
3404	65.0542
3400	64.9689
3396	64.9542
3392	64.9731
3388	65.0025
3384	64.9724
3380	64.894
3376	64.9298
3372	65.1042
3368	65.185
3364	65.1202
3360	65.07
3356	64.9931
3352	64.9254
3348	64.9596
3344	65.01
3340	65.0216
3336	65.0141
3332	65.0502
3328	65.0802
3324	65.0306
3320	65.0189
3316	65.063
3312	65.0502
3308	64.9979
3304	64.9616
3300	64.989
3296	65.0311
3292	65.0109
3288	65.0654
3284	65.207
3280	65.203
3276	65.0517
3272	64.9255
3268	64.8501
3264	64.9024
3260	65.0452
3256	65.0728
3252	64.9985
3248	64.9188
3244	64.8923
3240	64.9289
3236	64.9697
3232	65.0235
3228	65.1301
3224	65.1593
3220	65.034
3216	64.9561
3212	64.9949
3208	65.0434
3204	65.0995
3200	65.1194
3196	65.0725
3192	65.0497
3188	65.0312
3184	65.0225
3180	65.0791
3176	65.1049
3172	65.0816
3168	65.07
3164	65.048
3160	65.0139
3156	65.0156
3152	65.0124
3148	64.957
3144	64.9188
3140	64.9338
3136	64.949
3132	64.9891
3128	65.1357
3124	65.2313
3120	65.1256
3116	64.9769
3112	64.9029
3108	64.9184
3104	64.9866
3100	65.0198
3096	65.0113
3092	64.9678
3088	64.9307
3084	64.966
3080	65.0326
3076	65.0538
3072	65.029
3068	64.9718
3064	64.9476
3060	65.0166
3056	65.06
3052	65.0229
3048	64.9705
3044	64.939
3040	64.9583
3036	64.9779
3032	64.9374
3028	64.9044
3024	64.9551
3020	65.0346
3016	65.0734
3012	65.0763
3008	65.0567
3004	65.0048
3000	64.9324
2996	64.904
2992	64.9036
2988	64.8921
2984	64.926
2980	64.9808
2976	64.924
2972	64.8068
2968	64.7988
2964	64.8038
2960	64.7697
2956	64.7849
2952	64.7932
2948	64.8081
2944	64.8044
2940	64.7762
2936	64.8068
2932	64.8343
2928	64.836
2924	64.8498
2920	64.8518
2916	64.8524
2912	64.8692
2908	64.8661
2904	64.8285
2900	64.7873
2896	64.8106
2892	64.914
2888	64.9819
2884	64.9118
2880	64.8128
2876	64.8194
2872	64.8801
2868	64.9339
2864	64.9807
2860	65.0197
2856	65.0563
2852	65.1006
2848	65.0729
2844	64.9567
2840	64.9052
2836	64.9164
2832	64.9291
2828	64.9649
2824	64.9577
2820	64.9081
2816	64.8666
2812	64.8564
2808	64.9015
2804	64.9454
2800	64.9312
2796	64.8803
2792	64.8717
2788	64.9042
2784	64.9342
2780	64.9691
2776	64.9804
2772	64.918
2768	64.846
2764	64.8536
2760	64.886
2756	64.8922
2752	64.8934
2748	64.9233
2744	64.9661
2740	64.9492
2736	64.9304
2732	64.9636
2728	64.9521
2724	64.8883
2720	64.8967
2716	64.9976
2712	65.0756
2708	65.0719
2704	64.9696
2700	64.856
2696	64.8437
2692	64.8849
2688	64.9496
2684	65.0031
2680	64.97
2676	64.9322
2672	64.9287
2668	64.8792
2664	64.8521
2660	64.8837
2656	64.8697
2652	64.8511
2648	64.8765
2644	64.8646
2640	64.8493
2636	64.8712
2632	64.8752
2628	64.8607
2624	64.8675
2620	64.9138
2616	64.9368
2612	64.8889
2608	64.8584
2604	64.9101
2600	64.9974
2596	65.0553
2592	65.0373
2588	65.0043
2584	64.9936
2580	64.947
2576	64.9204
2572	64.9245
2568	64.8593
2564	64.7708
2560	64.7468
2556	64.797
2552	64.8514
2548	64.8581
2544	64.8644
2540	64.8456
2536	64.7974
2532	64.7985
2528	64.8347
2524	64.8489
2520	64.8716
2516	64.9325
2512	64.9386
2508	64.8545
2504	64.7787
2500	64.7985
2496	64.8699
2492	64.9223
2488	64.9437
2484	64.9091
2480	64.841
2476	64.7792
2472	64.7298
2468	64.7126
2464	64.7264
2460	64.7372
2456	64.7329
2452	64.7549
2448	64.8067
2444	64.8254
2440	64.8561
2436	64.9154
2432	64.89
2428	64.7944
2424	64.7043
2420	64.6494
2416	64.6579
2412	64.6986
2408	64.7296
2404	64.7557
2400	64.7682
2396	64.7605
2392	64.7566
2388	64.7436
2384	64.7104
2380	64.6672
2376	64.6463
2372	64.6716
2368	64.6951
2364	64.7038
2360	64.7168
2356	64.7407
2352	64.7995
2348	64.8134
2344	64.6905
2340	64.5983
2336	64.656
2332	64.7141
2328	64.7299
2324	64.7326
2320	64.6952
2316	64.6558
2312	64.6536
2308	64.6955
2304	64.7804
2300	64.8143
2296	64.7049
2292	64.6028
2288	64.634
2284	64.6972
2280	64.7249
2276	64.7152
2272	64.6899
2268	64.7092
2264	64.7582
2260	64.7646
2256	64.746
2252	64.7285
2248	64.6726
2244	64.5906
2240	64.5478
2236	64.5672
2232	64.6099
2228	64.6426
2224	64.6811
2220	64.7346
2216	64.7441
2212	64.6952
2208	64.6722
2204	64.6693
2200	64.6558
2196	64.6991
2192	64.7509
2188	64.7204
2184	64.6837
2180	64.7039
2176	64.6934
2172	64.6451
2168	64.6601
2164	64.6825
2160	64.6776
2156	64.6516
2152	64.6563
2148	64.7246
2144	64.7285
2140	64.686
2136	64.6744
2132	64.6537
2128	64.6652
2124	64.652
2120	64.5982
2116	64.624
2112	64.6524
2108	64.6266
2104	64.6113
2100	64.6121
2096	64.6213
2092	64.6137
2088	64.6013
2084	64.6347
2080	64.657
2076	64.612
2072	64.5623
2068	64.5097
2064	64.4987
2060	64.596
2056	64.674
2052	64.6815
2048	64.6266
2044	64.5333
2040	64.5101
2036	64.5286
2032	64.5575
2028	64.5913
2024	64.5862
2020	64.5672
2016	64.5688
2012	64.5745
2008	64.5277
2004	64.4805
2000	64.5047
1996	64.5463
1992	64.5936
1988	64.6538
1984	64.6466
1980	64.5633
1976	64.5068
1972	64.5114
1968	64.4926
1964	64.4211
1960	64.366
1956	64.3528
1952	64.4046
1948	64.4944
1944	64.5551
1940	64.575
1936	64.5473
1932	64.5134
1928	64.4954
1924	64.4726
1920	64.454
1916	64.4359
1912	64.4437
1908	64.4939
1904	64.5071
1900	64.4541
1896	64.4211
1892	64.4211
1888	64.4015
1884	64.4029
1880	64.4397
1876	64.426
1872	64.3621
1868	64.3361
1864	64.3676
1860	64.4205
1856	64.4339
1852	64.4153
1848	64.4268
1844	64.4452
1840	64.4219
1836	64.3865
1832	64.397
1828	64.4432
1824	64.4677
1820	64.4523
1816	64.457
1812	64.4748
1808	64.4492
1804	64.4104
1800	64.3679
1796	64.3393
1792	64.3869
1788	64.4528
1784	64.4502
1780	64.4287
1776	64.4386
1772	64.4237
1768	64.3615
1764	64.3138
1760	64.3079
1756	64.2819
1752	64.2259
1748	64.2153
1744	64.2165
1740	64.1834
1736	64.1596
1732	64.1525
1728	64.1473
1724	64.1807
1720	64.273
1716	64.3169
1712	64.2829
1708	64.2632
1704	64.2452
1700	64.2162
1696	64.223
1692	64.2438
1688	64.1984
1684	64.1357
1680	64.1789
1676	64.2423
1672	64.2272
1668	64.1941
1664	64.1812
1660	64.1936
1656	64.2162
1652	64.2312
1648	64.281
1644	64.3303
1640	64.2848
1636	64.1905
1632	64.1464
1628	64.1596
1624	64.1397
1620	64.0859
1616	64.1128
1612	64.1814
1608	64.2065
1604	64.1999
1600	64.1504
1596	64.0981
1592	64.1122
1588	64.1742
1584	64.2037
1580	64.1438
1576	64.0854
1572	64.1043
1568	64.1109
1564	64.0892
1560	64.1322
1556	64.1691
1552	64.1245
1548	64.1108
1544	64.1439
1540	64.1359
1536	64.0837
1532	64.066
1528	64.0871
1524	64.0829
1520	64.0744
1516	64.0943
1512	64.1302
1508	64.1515
1504	64.1682
1500	64.1625
1496	64.0808
1492	64.0137
1488	64.0584
1484	64.1452
1480	64.1942
1476	64.1507
1472	64.0802
1468	64.0842
1464	64.1193
1460	64.1138
1456	64.0442
1452	63.961
1448	63.9514
1444	63.9831
1440	64.0001
1436	64.001
1432	63.9823
1428	63.9675
1424	64.0004
1420	64.071
1416	64.0884
1412	64.0664
1408	64.0837
1404	64.0847
1400	64.0246
1396	63.9907
1392	64.016
1388	64
1384	63.9411
1380	63.9209
1376	63.8992
1372	63.8363
1368	63.7992
1364	63.8605
1360	63.9543
1356	63.9729
1352	63.9077
1348	63.8265
1344	63.8184
1340	63.8735
1336	63.9081
1332	63.8821
1328	63.8255
1324	63.7812
1320	63.7974
1316	63.8535
1312	63.8592
1308	63.8402
1304	63.8605
1300	63.9028
1296	63.9202
1292	63.9163
1288	63.907
1284	63.8748
1280	63.8592
1276	63.8698
1272	63.885
1268	63.94
1264	63.9504
1260	63.8818
1256	63.8313
1252	63.8163
1248	63.8341
1244	63.8658
1240	63.8724
1236	63.8104
1232	63.7398
1228	63.7264
1224	63.6817
1220	63.6077
1216	63.6147
1212	63.7088
1208	63.8058
1204	63.826
1200	63.8031
1196	63.7961
1192	63.8047
1188	63.8305
1184	63.8173
1180	63.7311
1176	63.687
1172	63.7301
1168	63.7181
1164	63.6469
1160	63.6466
1156	63.7191
1152	63.7822
1148	63.7311
1144	63.5778
1140	63.4974
1136	63.5607
1132	63.6101
1128	63.5874
1124	63.6265
1120	63.6786
1116	63.6745
1112	63.7331
1108	63.816
1104	63.8134
1100	63.8038
1096	63.7989
1092	63.7104
1088	63.627
1084	63.6501
1080	63.7565
1076	63.8487
1072	63.8375
1068	63.7756
1064	63.7447
1060	63.7115
1056	63.6038
1052	63.5153
1048	63.5345
1044	63.5924
1040	63.6335
1036	63.612
1032	63.5588
1028	63.6006
1024	63.7148
1020	63.717
1016	63.6649
1012	63.6982
1008	63.6775
1004	63.6019
1000	63.6771
996	 63.8213
992	 63.8271
988	 63.7481
984	 63.7231
980	 63.732
976	 63.6953
972	 63.5993
968	 63.5031
964	 63.4975
960	 63.5416
956	 63.5993
952	 63.711
948	 63.7433
944	 63.6156
940	 63.4431
936	 63.3441
932	 63.414
928	 63.5745
924	 63.638
920	 63.5941
916	 63.563
912	 63.624
908	 63.7377
904	 63.819
900	 63.7322
896	 63.5347
892	 63.4545
888	 63.4569
884	 63.5126
880	 63.6167
876	 63.6686
872	 63.6755
868	 63.648
864	 63.6296
860	 63.6652
856	 63.7054
852	 63.7069
848	 63.7055
844	 63.7315
840	 63.7313
836	 63.7173
832	 63.7081
828	 63.6299
824	 63.4537
820	 63.3563
816	 63.3892
812	 63.3444
808	 63.3023
804	 63.3954
800	 63.4702
796	 63.4805
792	 63.5183
788	 63.5564
784	 63.5558
780	 63.5523
776	 63.5127
772	 63.435
768	 63.441
764	 63.525
760	 63.5552
756	 63.5185
752	 63.3965
748	 63.2487
744	 63.2685
740	 63.261
736	 63.0954
732	 63.0257
728	 63.1434
724	 63.3679
720	 63.4842
716	 63.388
712	 63.1935
708	 62.9847
704	 62.8844
700	 62.9576
696	 63.0721
692	 63.2167
688	 63.4
684	 63.5429
680	 63.7066
676	 63.6535
672	 63.3049
668	 63.0543
664	 63.0565
660	 63.4024
656	 63.7304
652	 63.6153
648	 63.4598
644	 63.348
640	 63.2348
636	 63.2391
632	 63.0582
628	 62.9374
624	 63.3694
620	 63.9055
616	 63.7495
612	 63.1058
608	 62.8355
604	 63.0407
600	 63.1133
596	 62.8597
592	 62.6363
588	 62.7247
584	 62.9369
580	 63.1835
576	 63.5102
572	 63.5499
568	 63.4686
564	 63.2954
560	 62.8453
556	 62.7421
552	 63.1461
548	 63.4445
544	 63.2082
540	 62.7155
536	 62.8906
532	 63.5156
528	 63.4702
524	 63.0716
520	 62.761
516	 62.2952
512	 62.1479
508	 62.3684
504	 62.5072
500	 62.4371
496	 62.0338
492	 61.9766
488	 62.8138
484	 62.9369
480	 62.0224
476	 62.1676
472	 62.9816
468	 62.4715
464	 61.5477
460	 61.7296
456	 62.4169
452	 63.501
448	 64.3082
444	 63.2987
440	 62.2544
436	 62.2785
432	 62.3463
428	 62.5217
424	 61.9751
420	 61.0967
416	 61.155
412	 61.4131
408	 60.4545
404	 61.1757
400	 65.5675
396	 68.4011
392	 72.1905
388	 74.3139
384	 66.1137
380	 58.5139
376	 65.6993
372	 78.8888
370	 81.2887