File: Bakgrunnsmateriale/MATLAB/FTIR/ftir_data/subAa/Mapping_121/BZ1503107-1_t12_cm-1.asc
PE IR       SPECTRUM    SPECTRUM    ASCII       PEDS        1.60
  -1
BZ6AA1~1.ASC
17/04/07
14:11:54.00
17/04/07
14:11:54.00
tln
$BZ1503107-1_t0012$<tbV0>[13.0,-10.4,8.0,0.0,27,1,0]
370
64

2002,4.07
MIRTGS : RIGHTBACK : INTERNAL 2
MIR : ON : INTERNAL 2
OPTKBR

0.200000
8
8.000000
FILLER
RATIO
SPECTRUM
UNLOCKED 256

DOUBLE
64
COMBINED
1
0
0

1.000000
RATIO

1
0
TRUE
51149
0
LEFT NOT FITTED RIGHT NOT FITTED 0
NONE
NONE
15600
12
4.427000
51148
TRUE
1 0 8 72 0 0 0 0

15798

#HDR
-1
-1
#GR
CM-1
%T
2.38419e-05
0.0
5000
-1.000000
4631
8
79.3809
46.2643
#DATA
5000	66.2944
4996	65.8197
4992	65.0248
4988	64.7442
4984	65.2677
4980	65.2637
4976	65.08
4972	65.569
4968	65.8005
4964	65.3491
4960	64.4975
4956	64.2186
4952	65.7132
4948	67.2612
4944	65.9577
4940	63.8177
4936	64.1293
4932	65.4921
4928	65.7471
4924	65.0116
4920	64.2736
4916	64.3584
4912	65.0016
4908	65.4444
4904	65.6111
4900	65.7196
4896	65.8571
4892	65.637
4888	65.1499
4884	65.0587
4880	64.965
4876	64.7345
4872	65.0492
4868	65.6426
4864	65.9027
4860	65.7916
4856	65.5097
4852	65.3211
4848	65.488
4844	65.6498
4840	65.25
4836	64.7981
4832	64.7667
4828	65.0058
4824	65.1352
4820	65.0013
4816	65.2781
4812	65.3925
4808	64.9838
4804	65.4965
4800	66.2495
4796	66.0378
4792	65.7991
4788	65.7711
4784	65.2727
4780	64.6035
4776	64.5768
4772	64.8129
4768	64.5656
4764	64.635
4760	65.2751
4756	65.228
4752	64.7272
4748	64.6868
4744	64.7928
4740	64.6893
4736	64.5207
4732	64.4711
4728	64.4615
4724	64.3468
4720	64.2763
4716	64.4691
4712	64.6466
4708	64.5554
4704	64.6722
4700	65.0867
4696	65.1313
4692	64.9206
4688	64.9409
4684	65.0658
4680	65.1652
4676	65.1841
4672	65.0206
4668	64.7837
4664	64.8021
4660	65.0454
4656	65.0821
4652	65.0319
4648	65.2598
4644	65.4108
4640	65.1906
4636	64.9536
4632	64.8112
4628	64.6111
4624	64.4896
4620	64.4921
4616	64.6396
4612	64.8893
4608	64.9731
4604	65.0174
4600	65.0437
4596	64.8643
4592	64.9189
4588	65.1606
4584	64.9389
4580	64.6711
4576	64.8288
4572	64.9027
4568	64.8661
4564	64.9932
4560	65.0655
4556	65.0298
4552	64.9944
4548	64.8843
4544	64.8061
4540	64.8355
4536	64.9373
4532	64.8995
4528	64.8201
4524	64.8989
4520	65.081
4516	65.1622
4512	65.2684
4508	65.5119
4504	65.5937
4500	65.6278
4496	66.3306
4492	67.7877
4488	68.1982
4484	68.7205
4480	69.6713
4476	67.9757
4472	65.4031
4468	64.0857
4464	63.1086
4460	62.4807
4456	62.267
4452	60.9241
4448	55.4181
4444	56.2549
4440	68.9769
4436	72.7881
4432	66.5332
4428	65.484
4424	66.5717
4420	66.2002
4416	65.8383
4412	65.6292
4408	65.3475
4404	64.7909
4400	64.7858
4396	65.1783
4392	65.2836
4388	65.3378
4384	65.522
4380	65.4528
4376	65.1207
4372	64.9785
4368	65.0489
4364	64.9516
4360	64.8884
4356	65.1298
4352	65.2446
4348	65.2922
4344	65.5195
4340	65.3692
4336	64.9801
4332	64.9491
4328	65.1053
4324	65.0394
4320	64.7839
4316	64.8033
4312	65.0089
4308	65.1014
4304	65.1672
4300	65.0698
4296	64.8545
4292	64.851
4288	65.0395
4284	65.1703
4280	65.1167
4276	64.9872
4272	64.9418
4268	64.9446
4264	64.8184
4260	64.6546
4256	64.7113
4252	64.9877
4248	65.2225
4244	65.2246
4240	65.1808
4236	65.2438
4232	65.2451
4228	65.2061
4224	65.2451
4220	65.2373
4216	65.1473
4212	65.0515
4208	65.0269
4204	65.1648
4200	65.3022
4196	65.2047
4192	65.0167
4188	64.932
4184	64.8823
4180	64.8987
4176	65.0741
4172	65.2099
4168	65.1824
4164	65.1612
4160	65.2408
4156	65.2808
4152	65.0882
4148	64.8539
4144	64.8931
4140	64.996
4136	64.9729
4132	65.0776
4128	65.2327
4124	65.1767
4120	65.0327
4116	65.0244
4112	65.3065
4108	65.6431
4104	65.6791
4100	65.5097
4096	65.2783
4092	65.1875
4088	65.3393
4084	65.3739
4080	65.2159
4076	65.1028
4072	65.1561
4068	65.3518
4064	65.4543
4060	65.3948
4056	65.4018
4052	65.4442
4048	65.3464
4044	65.195
4040	65.1361
4036	65.1725
4032	65.2056
4028	65.1385
4024	65.0154
4020	65.0089
4016	65.1125
4012	65.1334
4008	65.0667
4004	65.0384
4000	65.131
3996	65.2745
3992	65.2624
3988	65.2175
3984	65.3484
3980	65.475
3976	65.499
3972	65.5793
3968	65.562
3964	65.442
3960	65.3881
3956	65.2414
3952	65.1607
3948	65.3023
3944	65.499
3940	65.6719
3936	65.6246
3932	65.4106
3928	65.3764
3924	65.4039
3920	65.322
3916	65.2704
3912	65.2577
3908	65.2346
3904	65.296
3900	65.3769
3896	65.3061
3892	65.2344
3888	65.3016
3884	65.3226
3880	65.2499
3876	65.2198
3872	65.2213
3868	65.2379
3864	65.2702
3860	65.3224
3856	65.4655
3852	65.49
3848	65.2681
3844	65.2132
3840	65.3739
3836	65.3949
3832	65.2932
3828	65.2845
3824	65.3217
3820	65.2913
3816	65.2304
3812	65.192
3808	65.2646
3804	65.356
3800	65.2956
3796	65.1801
3792	65.1294
3788	65.0768
3784	65.0235
3780	65.0592
3776	65.1252
3772	65.2252
3768	65.3554
3764	65.3546
3760	65.2452
3756	65.2706
3752	65.4281
3748	65.5115
3744	65.5063
3740	65.4796
3736	65.4539
3732	65.3467
3728	65.2205
3724	65.2386
3720	65.2809
3716	65.2578
3712	65.2507
3708	65.2942
3704	65.3664
3700	65.3526
3696	65.2498
3692	65.2251
3688	65.3189
3684	65.4058
3680	65.4446
3676	65.477
3672	65.4466
3668	65.3582
3664	65.2735
3660	65.1991
3656	65.1866
3652	65.2538
3648	65.3252
3644	65.3696
3640	65.3637
3636	65.3311
3632	65.3956
3628	65.493
3624	65.4754
3620	65.3763
3616	65.2766
3612	65.2271
3608	65.2464
3604	65.2925
3600	65.2995
3596	65.2404
3592	65.2116
3588	65.2483
3584	65.2775
3580	65.2571
3576	65.2187
3572	65.2139
3568	65.205
3564	65.2461
3560	65.3098
3556	65.2681
3552	65.199
3548	65.2203
3544	65.3123
3540	65.3687
3536	65.3499
3532	65.2847
3528	65.1965
3524	65.1299
3520	65.1304
3516	65.1578
3512	65.2311
3508	65.3739
3504	65.4679
3500	65.3805
3496	65.1887
3492	65.0591
3488	65.0758
3484	65.1985
3480	65.2828
3476	65.2886
3472	65.1594
3468	65.0198
3464	65.1025
3460	65.2068
3456	65.1772
3452	65.1576
3448	65.1783
3444	65.1736
3440	65.1269
3436	65.1016
3432	65.1179
3428	65.1722
3424	65.2813
3420	65.3257
3416	65.3075
3412	65.3019
3408	65.2275
3404	65.1372
3400	65.1312
3396	65.1921
3392	65.255
3388	65.2755
3384	65.3318
3380	65.3331
3376	65.1879
3372	65.1214
3368	65.1661
3364	65.1863
3360	65.164
3356	65.1384
3352	65.1112
3348	65.0559
3344	65.0557
3340	65.1206
3336	65.1607
3332	65.1438
3328	65.1761
3324	65.2859
3320	65.3125
3316	65.2358
3312	65.1874
3308	65.2144
3304	65.215
3300	65.1227
3296	65.0717
3292	65.1412
3288	65.2054
3284	65.2009
3280	65.1966
3276	65.197
3272	65.1497
3268	65.1062
3264	65.1333
3260	65.1905
3256	65.2288
3252	65.1562
3248	65.0627
3244	65.0905
3240	65.117
3236	65.1626
3232	65.2592
3228	65.2579
3224	65.1237
3220	65.0244
3216	65.0938
3212	65.2129
3208	65.2236
3204	65.1119
3200	65.0314
3196	65.1209
3192	65.226
3188	65.1644
3184	65.0777
3180	65.0933
3176	65.1415
3172	65.193
3168	65.2409
3164	65.2569
3160	65.216
3156	65.1352
3152	65.0633
3148	65.0435
3144	65.0407
3140	65.0083
3136	65.0177
3132	65.0778
3128	65.1356
3124	65.1815
3120	65.1458
3116	65.0708
3112	65.1271
3108	65.2621
3104	65.3061
3100	65.2785
3096	65.2259
3092	65.1631
3088	65.1872
3084	65.2803
3080	65.3299
3076	65.3216
3072	65.2745
3068	65.188
3064	65.1108
3060	65.1009
3056	65.1216
3052	65.1321
3048	65.1358
3044	65.1234
3040	65.1211
3036	65.0803
3032	65.0075
3028	65.0291
3024	65.1139
3020	65.1654
3016	65.1907
3012	65.2208
3008	65.2638
3004	65.2853
3000	65.2545
2996	65.2281
2992	65.1996
2988	65.1381
2984	65.1005
2980	65.099
2976	65.1223
2972	65.1516
2968	65.0881
2964	65.0122
2960	65.027
2956	65.0287
2952	65.0432
2948	65.0675
2944	65.0393
2940	65.037
2936	65.0586
2932	65.0593
2928	65.0697
2924	65.041
2920	64.9972
2916	65.0142
2912	65.0254
2908	64.9901
2904	64.9494
2900	64.9798
2896	65.0458
2892	65.0559
2888	65.0444
2884	65.0553
2880	65.0657
2876	65.0901
2872	65.1748
2868	65.2408
2864	65.2679
2860	65.2839
2856	65.1948
2852	65.0712
2848	65.0476
2844	65.0855
2840	65.1321
2836	65.1507
2832	65.1251
2828	65.1157
2824	65.1422
2820	65.1684
2816	65.1376
2812	65.0479
2808	65.0071
2804	65.0695
2800	65.1523
2796	65.131
2792	65.0162
2788	64.9946
2784	65.0992
2780	65.1561
2776	65.1161
2772	65.0741
2768	65.0989
2764	65.1535
2760	65.1472
2756	65.0853
2752	65.0587
2748	65.084
2744	65.0968
2740	65.1066
2736	65.1628
2732	65.2219
2728	65.1695
2724	65.067
2720	65.0615
2716	65.1135
2712	65.1394
2708	65.1593
2704	65.2238
2700	65.2763
2696	65.2531
2692	65.1828
2688	65.1301
2684	65.1389
2680	65.1959
2676	65.1942
2672	65.1091
2668	65.0892
2664	65.137
2660	65.1624
2656	65.1201
2652	64.9763
2648	64.8689
2644	64.9207
2640	65.0104
2636	65.0042
2632	64.9514
2628	64.9872
2624	65.0718
2620	65.0614
2616	64.9961
2612	64.9701
2608	64.9857
2604	65
2600	64.9917
2596	65.0154
2592	65.0799
2588	65.1159
2584	65.1026
2580	65.0718
2576	65.0799
2572	65.1031
2568	65.113
2564	65.1738
2560	65.2112
2556	65.1619
2552	65.1067
2548	65.0708
2544	65.0556
2540	65.0577
2536	65.0874
2532	65.1026
2528	65.0785
2524	65.0995
2520	65.1637
2516	65.2017
2512	65.2009
2508	65.1566
2504	65.1244
2500	65.138
2496	65.0969
2492	65.0388
2488	65.0645
2484	65.066
2480	65.0279
2476	65.0539
2472	65.0723
2468	65.0564
2464	65.0468
2460	65.0321
2456	65.0375
2452	65.0311
2448	65.0172
2444	65.0235
2440	65.0112
2436	64.9763
2432	64.9325
2428	64.9356
2424	65.0109
2420	65.0656
2416	65.052
2412	65.0031
2408	64.9565
2404	64.955
2400	64.9879
2396	65.0097
2392	65.0205
2388	65.0347
2384	65.0501
2380	65.0687
2376	65.0728
2372	65.0578
2368	65.0543
2364	65.0681
2360	65.0798
2356	65.109
2352	65.1561
2348	65.1258
2344	65.028
2340	64.9974
2336	65.0582
2332	65.0605
2328	64.959
2324	64.9019
2320	64.9425
2316	65.0007
2312	65.0297
2308	65.0534
2304	65.0391
2300	64.9837
2296	64.9298
2292	64.8976
2288	64.9553
2284	65.0539
2280	65.0725
2276	65.003
2272	64.9261
2268	64.9027
2264	64.9349
2260	65.0072
2256	65.0385
2252	65.0231
2248	65.0306
2244	65.0504
2240	65.0212
2236	64.9444
2232	64.9221
2228	64.9785
2224	65.0623
2220	65.1168
2216	65.1029
2212	65.0813
2208	65.0875
2204	65.0393
2200	64.942
2196	64.9326
2192	65.0052
2188	65.0233
2184	64.9913
2180	64.9775
2176	64.9559
2172	64.9132
2168	64.8891
2164	64.8676
2160	64.8406
2156	64.8596
2152	64.8576
2148	64.8385
2144	64.8838
2140	64.9127
2136	64.9192
2132	64.952
2128	64.9737
2124	64.982
2120	65.0053
2116	65.0068
2112	64.9927
2108	65.0005
2104	64.981
2100	64.9154
2096	64.8714
2092	64.8663
2088	64.8635
2084	64.8829
2080	64.9182
2076	64.9269
2072	64.9186
2068	64.9158
2064	64.903
2060	64.8875
2056	64.895
2052	64.9303
2048	64.9978
2044	64.9947
2040	64.8815
2036	64.8382
2032	64.9051
2028	64.9569
2024	64.958
2020	64.9406
2016	64.9257
2012	64.9085
2008	64.8894
2004	64.874
2000	64.8439
1996	64.8258
1992	64.8544
1988	64.8806
1984	64.8653
1980	64.8456
1976	64.8516
1972	64.872
1968	64.9206
1964	64.963
1960	64.94
1956	64.9137
1952	64.9389
1948	64.9567
1944	64.9178
1940	64.8433
1936	64.808
1932	64.8002
1928	64.7628
1924	64.749
1920	64.7768
1916	64.8172
1912	64.872
1908	64.9099
1904	64.9267
1900	64.8982
1896	64.8288
1892	64.8447
1888	64.8955
1884	64.8741
1880	64.8669
1876	64.8694
1872	64.8424
1868	64.8446
1864	64.8437
1860	64.8156
1856	64.7903
1852	64.7928
1848	64.8285
1844	64.842
1840	64.8279
1836	64.8212
1832	64.8598
1828	64.9295
1824	64.9387
1820	64.9172
1816	64.9479
1812	64.9511
1808	64.9117
1804	64.9064
1800	64.8768
1796	64.8103
1792	64.7906
1788	64.8167
1784	64.8197
1780	64.7987
1776	64.7881
1772	64.751
1768	64.7056
1764	64.7267
1760	64.7585
1756	64.7557
1752	64.7272
1748	64.6412
1744	64.5851
1740	64.6137
1736	64.6229
1732	64.5539
1728	64.4929
1724	64.5397
1720	64.6063
1716	64.6009
1712	64.6147
1708	64.7226
1704	64.8987
1700	65.0252
1696	64.9488
1692	64.7938
1688	64.8264
1684	64.895
1680	64.8228
1676	64.819
1672	64.9172
1668	64.9345
1664	64.8546
1660	64.805
1656	64.8494
1652	64.8412
1648	64.7304
1644	64.6663
1640	64.6952
1636	64.7608
1632	64.7898
1628	64.7685
1624	64.7494
1620	64.7631
1616	64.7384
1612	64.6874
1608	64.7308
1604	64.7691
1600	64.6798
1596	64.6058
1592	64.6715
1588	64.7418
1584	64.7366
1580	64.7612
1576	64.7674
1572	64.6976
1568	64.6868
1564	64.8435
1560	65.0038
1556	64.8838
1552	64.6378
1548	64.6112
1544	64.7534
1540	64.7792
1536	64.6729
1532	64.6286
1528	64.6702
1524	64.6869
1520	64.6488
1516	64.6337
1512	64.6925
1508	64.7267
1504	64.644
1500	64.5992
1496	64.68
1492	64.708
1488	64.6413
1484	64.5871
1480	64.6041
1476	64.6857
1472	64.69
1468	64.6199
1464	64.6011
1460	64.593
1456	64.5367
1452	64.5288
1448	64.5984
1444	64.5978
1440	64.5476
1436	64.554
1432	64.5526
1428	64.5545
1424	64.621
1420	64.6295
1416	64.5326
1412	64.4573
1408	64.456
1404	64.4549
1400	64.422
1396	64.4032
1392	64.3883
1388	64.4013
1384	64.4641
1380	64.5014
1376	64.4448
1372	64.3442
1368	64.336
1364	64.3922
1360	64.4125
1356	64.4773
1352	64.5961
1348	64.6151
1344	64.5393
1340	64.5028
1336	64.4991
1332	64.4639
1328	64.398
1324	64.3656
1320	64.4171
1316	64.4438
1312	64.3978
1308	64.382
1304	64.4085
1300	64.4092
1296	64.3699
1292	64.3706
1288	64.4179
1284	64.4056
1280	64.3409
1276	64.2684
1272	64.2327
1268	64.2822
1264	64.3469
1260	64.3741
1256	64.3749
1252	64.3555
1248	64.3061
1244	64.2346
1240	64.227
1236	64.2627
1232	64.2509
1228	64.2641
1224	64.3138
1220	64.2985
1216	64.2794
1212	64.2997
1208	64.2673
1204	64.2335
1200	64.2927
1196	64.3335
1192	64.2992
1188	64.2713
1184	64.2338
1180	64.1996
1176	64.2172
1172	64.2428
1168	64.2673
1164	64.2563
1160	64.1843
1156	64.1321
1152	64.0697
1148	63.9834
1144	64.0277
1140	64.2502
1136	64.4372
1132	64.4255
1128	64.3335
1124	64.3044
1120	64.3962
1116	64.4973
1112	64.4603
1108	64.3891
1104	64.3438
1100	64.27
1096	64.2625
1092	64.352
1088	64.3794
1084	64.3778
1080	64.3987
1076	64.3538
1072	64.2658
1068	64.1275
1064	64.0457
1060	64.1383
1056	64.277
1052	64.3617
1048	64.3095
1044	64.1664
1040	64.1624
1036	64.255
1032	64.2686
1028	64.2186
1024	64.1824
1020	64.1599
1016	64.1222
1012	64.0853
1008	64.0837
1004	64.1458
1000	64.2257
996	 64.2625
992	 64.2546
988	 64.243
984	 64.295
980	 64.348
976	 64.2759
972	 64.1805
968	 64.2243
964	 64.2992
960	 64.2638
956	 64.2082
952	 64.2841
948	 64.4409
944	 64.4713
940	 64.3829
936	 64.3102
932	 64.2858
928	 64.2777
924	 64.2307
920	 64.1992
916	 64.2744
912	 64.3306
908	 64.2278
904	 64.1701
900	 64.2912
896	 64.3259
892	 64.1788
888	 64.1227
884	 64.2035
880	 64.2493
876	 64.2446
872	 64.1954
868	 64.1968
864	 64.2717
860	 64.3079
856	 64.3542
852	 64.397
848	 64.4155
844	 64.4483
840	 64.3532
836	 64.1072
832	 63.8639
828	 63.8572
824	 64.1136
820	 64.2742
816	 64.262
812	 64.2219
808	 64.1916
804	 64.1237
800	 64.0077
796	 64.0174
792	 64.1121
788	 64.1169
784	 64.0578
780	 64.0561
776	 64.1446
772	 64.2016
768	 64.1709
764	 64.172
760	 64.1852
756	 64.1123
752	 64.098
748	 64.1627
744	 64.15
740	 64.1289
736	 64.1353
732	 64.0948
728	 64.0546
724	 64.0313
720	 64.0034
716	 63.9922
712	 63.958
708	 63.8754
704	 63.8313
700	 63.8091
696	 63.8496
692	 64.0251
688	 64.2207
684	 64.2828
680	 64.2369
676	 64.2964
672	 64.3339
668	 64.1532
664	 63.9841
660	 64.0569
656	 64.1897
652	 64.199
648	 64.2429
644	 64.3442
640	 64.3802
636	 64.308
632	 64.238
628	 64.231
624	 64.206
620	 64.1976
616	 64.1332
612	 64.0817
608	 64.1763
604	 63.9865
600	 63.4483
596	 63.2672
592	 63.4341
588	 63.4107
584	 63.5041
580	 63.9081
576	 64.2221
572	 64.094
568	 63.7388
564	 63.7766
560	 63.8812
556	 63.9956
552	 64.227
548	 64.2859
544	 64.5841
540	 64.9005
536	 64.6366
532	 64.4101
528	 64.526
524	 64.6903
520	 64.9697
516	 65.2403
512	 65.2832
508	 65.15
504	 65.0901
500	 65.1402
496	 64.9728
492	 64.3667
488	 63.8995
484	 63.9637
480	 64.1408
476	 64.5208
472	 64.9582
468	 64.7214
464	 64.2266
460	 64.1243
456	 64.0657
452	 64.0923
448	 63.8166
444	 63.3163
440	 64.0411
436	 65.1539
432	 65.0301
428	 63.8508
424	 63.0244
420	 63.927
416	 64.7964
412	 64.485
408	 65.0289
404	 66.236
400	 67.5626
396	 67.8066
392	 62.9484
388	 53.0679
384	 46.2643
380	 53.1923
376	 78.7398
372	 64.9944
370	 72.1028