File: Bakgrunnsmateriale/MATLAB/FTIR/ftir_data/subAa/Mapping_121/BZ1503107-1_t22_cm-1.asc
PE IR       SPECTRUM    SPECTRUM    ASCII       PEDS        1.60
  -1
BZ6A23~1.ASC
17/04/07
14:58:05.00
17/04/07
14:58:05.00
tln
$BZ1503107-1_t0022$<tbV0>[-13.0,-10.4,8.0,0.0,27,1,0]
370
64

2002,4.07
MIRTGS : RIGHTBACK : INTERNAL 2
MIR : ON : INTERNAL 2
OPTKBR

0.200000
8
8.000000
FILLER
RATIO
SPECTRUM
UNLOCKED 256

DOUBLE
64
COMBINED
1
0
0

1.000000
RATIO

1
0
TRUE
51149
0
LEFT NOT FITTED RIGHT NOT FITTED 0
NONE
NONE
15600
12
4.427000
51148
TRUE
1 0 8 72 0 0 0 0

15798

#HDR
-1
-1
#GR
CM-1
%T
2.38419e-05
0.0
5000
-1.000000
4631
8
109.254
47.2682
#DATA
5000	64.6861
4996	65.1003
4992	65.0909
4988	64.802
4984	64.5603
4980	64.3889
4976	64.2701
4972	64.1958
4968	64.3219
4964	64.7644
4960	64.9691
4956	64.9734
4952	64.8128
4948	64.6269
4944	64.876
4940	64.9889
4936	64.6106
4932	64.2845
4928	64.5111
4924	65.0448
4920	65.0924
4916	64.6211
4912	64.5477
4908	64.8295
4904	64.7236
4900	64.4999
4896	64.6113
4892	64.7693
4888	64.9684
4884	65.3732
4880	65.2445
4876	64.6342
4872	64.3617
4868	64.586
4864	65.2245
4860	65.7393
4856	65.615
4852	65.2406
4848	65.1338
4844	65.2324
4840	65.2747
4836	65.1082
4832	64.9265
4828	65.127
4824	65.1904
4820	64.7732
4816	64.7523
4812	64.7742
4808	64.5348
4804	65.1764
4800	66.0302
4796	65.8653
4792	65.5285
4788	65.544
4784	65.4371
4780	65.1249
4776	65.0216
4772	65.0095
4768	64.6215
4764	64.7181
4760	65.5349
4756	65.6979
4752	65.2859
4748	65.0912
4744	64.7978
4740	64.3917
4736	64.4007
4732	64.7356
4728	64.7809
4724	64.4844
4720	64.2611
4716	64.4473
4712	64.7193
4708	64.5637
4704	64.4919
4700	64.6624
4696	64.705
4692	64.8638
4688	65.1667
4684	65.2067
4680	64.964
4676	64.768
4672	64.7448
4668	64.8361
4664	64.9678
4660	65.0398
4656	64.9977
4652	64.8633
4648	64.8683
4644	65.0837
4640	65.1366
4636	64.9103
4632	64.6734
4628	64.6933
4624	64.834
4620	64.7419
4616	64.6052
4612	64.662
4608	64.7258
4604	64.8176
4600	64.8882
4596	64.7732
4592	64.7047
4588	64.816
4584	64.9261
4580	64.9579
4576	65.0599
4572	64.9644
4568	64.6021
4564	64.5588
4560	64.7857
4556	64.7549
4552	64.554
4548	64.4867
4544	64.5501
4540	64.628
4536	64.7292
4532	64.7967
4528	64.8166
4524	64.767
4520	64.7054
4516	64.677
4512	64.7355
4508	65.001
4504	65.2591
4500	65.4823
4496	66.0778
4492	67.2064
4488	67.8363
4484	68.8228
4480	69.7044
4476	67.5713
4472	65.0121
4468	63.7691
4464	62.6565
4460	62.0304
4456	62.1937
4452	62.9332
4448	63.6867
4444	63.5542
4440	63.2074
4436	61.1265
4432	56.7359
4428	60.8932
4424	67.8149
4420	65.9802
4416	64.3269
4412	65.2176
4408	66.1122
4404	66.9407
4400	66.834
4396	66.652
4392	66.3278
4388	65.7291
4384	65.2059
4380	64.8313
4376	64.6176
4372	64.6811
4368	64.8089
4364	64.7879
4360	64.7616
4356	64.8378
4352	64.8171
4348	64.8162
4344	65.0518
4340	65.1072
4336	64.9293
4332	64.8645
4328	64.9041
4324	64.868
4320	64.6951
4316	64.6972
4312	64.8954
4308	65.0862
4304	65.194
4300	65.0413
4296	64.8173
4292	64.8623
4288	65.013
4284	65.0076
4280	64.8864
4276	64.7442
4272	64.668
4268	64.8112
4264	65.0058
4260	64.9894
4256	64.8455
4252	64.8018
4248	64.8576
4244	64.861
4240	64.9714
4236	65.1501
4232	65.1479
4228	65.1186
4224	65.0918
4220	65.0404
4216	65.0371
4212	64.976
4208	64.9083
4204	64.9001
4200	64.8799
4196	64.7245
4192	64.6095
4188	64.8579
4184	65.2373
4180	65.4306
4176	65.4373
4172	65.2963
4168	65.1603
4164	65.1666
4160	65.0967
4156	64.9084
4152	64.8076
4148	64.8022
4144	64.9353
4140	65.0414
4136	65.0146
4132	65.0499
4128	65.1122
4124	65.2048
4120	65.2571
4116	65.2054
4112	65.2593
4108	65.3141
4104	65.2049
4100	65.1062
4096	65.099
4092	65.2029
4088	65.3023
4084	65.325
4080	65.4056
4076	65.388
4072	65.2025
4068	65.1268
4064	65.244
4060	65.3488
4056	65.3637
4052	65.3227
4048	65.1715
4044	65.0286
4040	65.1177
4036	65.3022
4032	65.2994
4028	65.1981
4024	65.1759
4020	65.1971
4016	65.1852
4012	65.1093
4008	65.038
4004	65.0558
4000	65.0811
3996	65.0468
3992	65.0376
3988	65.0432
3984	65.0203
3980	65.0477
3976	65.1289
3972	65.2361
3968	65.3033
3964	65.2284
3960	65.11
3956	65.0824
3952	65.1824
3948	65.3562
3944	65.3902
3940	65.1845
3936	64.884
3932	64.7269
3928	64.856
3924	65.076
3920	65.1524
3916	65.0933
3912	65.0177
3908	64.9863
3904	65.0307
3900	65.1745
3896	65.1728
3892	64.9925
3888	64.9824
3884	65.1499
3880	65.2524
3876	65.1968
3872	65.0735
3868	65.002
3864	64.9525
3860	65.0793
3856	65.4275
3852	65.5765
3848	65.4507
3844	65.3681
3840	65.405
3836	65.4429
3832	65.4043
3828	65.3365
3824	65.274
3820	65.1527
3816	65.0428
3812	65.0964
3808	65.211
3804	65.2517
3800	65.0991
3796	64.8453
3792	64.7824
3788	64.9089
3784	65.0914
3780	65.1867
3776	65.1391
3772	65.0565
3768	65.0136
3764	65.027
3760	65.1015
3756	65.2307
3752	65.3654
3748	65.4202
3744	65.3682
3740	65.3134
3736	65.2949
3732	65.2129
3728	65.1019
3724	65.0768
3720	65.1195
3716	65.216
3712	65.3983
3708	65.466
3704	65.3088
3700	65.1877
3696	65.2299
3692	65.2895
3688	65.3084
3684	65.3345
3680	65.4129
3676	65.5511
3672	65.5545
3668	65.2934
3664	65.0786
3660	65.1042
3656	65.1533
3652	65.2573
3648	65.3998
3644	65.4126
3640	65.3832
3636	65.3315
3632	65.3383
3628	65.4052
3624	65.376
3620	65.2653
3616	65.1777
3612	65.2026
3608	65.2519
3604	65.2586
3600	65.2594
3596	65.2206
3592	65.2422
3588	65.3552
3584	65.3841
3580	65.3263
3576	65.3504
3572	65.409
3568	65.3276
3564	65.1834
3560	65.125
3556	65.1339
3552	65.1083
3548	65.0735
3544	65.1349
3540	65.2169
3536	65.2031
3532	65.1262
3528	65.0925
3524	65.1116
3520	65.1423
3516	65.1839
3512	65.2556
3508	65.3278
3504	65.3083
3500	65.2318
3496	65.1458
3492	64.9926
3488	64.9462
3484	65.0993
3480	65.2124
3476	65.2039
3472	65.1718
3468	65.1692
3464	65.228
3460	65.2795
3456	65.2207
3452	65.1231
3448	65.0773
3444	65.1161
3440	65.2186
3436	65.2399
3432	65.2368
3428	65.2612
3424	65.1498
3420	65.039
3416	65.09
3412	65.1444
3408	65.1034
3404	65.0848
3400	65.1232
3396	65.1727
3392	65.2427
3388	65.2486
3384	65.2136
3380	65.1888
3376	65.1444
3372	65.1515
3368	65.1326
3364	65.0264
3360	64.9921
3356	65.0389
3352	65.051
3348	65.0018
3344	64.949
3340	65.0319
3336	65.2152
3332	65.2813
3328	65.271
3324	65.2764
3320	65.2641
3316	65.2513
3312	65.2148
3308	65.2164
3304	65.2935
3300	65.2939
3296	65.2287
3292	65.2346
3288	65.2421
3284	65.1762
3280	65.1361
3276	65.1304
3272	65.0811
3268	65.0423
3264	65.1493
3260	65.2856
3256	65.261
3252	65.1486
3248	65.0443
3244	64.944
3240	64.9131
3236	65.0261
3232	65.0861
3228	65.0243
3224	65.0082
3220	65.064
3216	65.1656
3212	65.2668
3208	65.3406
3204	65.3587
3200	65.3275
3196	65.2839
3192	65.16
3188	65.0255
3184	65.0397
3180	65.1253
3176	65.2074
3172	65.2963
3168	65.3266
3164	65.2662
3160	65.174
3156	65.1655
3152	65.2263
3148	65.2484
3144	65.2225
3140	65.2229
3136	65.2332
3132	65.1759
3128	65.1272
3124	65.1356
3120	65.1062
3116	65.0044
3112	64.9467
3108	65.025
3104	65.1073
3100	65.1123
3096	65.1474
3092	65.207
3088	65.1774
3084	65.0778
3080	65.0294
3076	65.0502
3072	65.1036
3068	65.1947
3064	65.2627
3060	65.2314
3056	65.1533
3052	65.1501
3048	65.2143
3044	65.254
3040	65.2908
3036	65.3049
3032	65.2341
3028	65.1689
3024	65.1945
3020	65.2857
3016	65.3259
3012	65.2701
3008	65.2427
3004	65.2788
3000	65.2508
2996	65.1324
2992	65.027
2988	64.9949
2984	65.0271
2980	65.0301
2976	64.9901
2972	65.0093
2968	65.0186
2964	64.9566
2960	64.9344
2956	64.9454
2952	64.9167
2948	64.8404
2944	64.8314
2940	64.9401
2936	64.9963
2932	65.0142
2928	65.0614
2924	65.0557
2920	65.0255
2916	65.0257
2912	65.0685
2908	65.1129
2904	65.0709
2900	65.0353
2896	65.0888
2892	65.1392
2888	65.1057
2884	65.0533
2880	65.0755
2876	65.1237
2872	65.1339
2868	65.1105
2864	65.0565
2860	64.9779
2856	64.9517
2852	65.0362
2848	65.0927
2844	65.0688
2840	65.088
2836	65.1255
2832	65.1263
2828	65.1003
2824	65.0578
2820	65.0696
2816	65.1495
2812	65.1818
2808	65.1129
2804	65.0739
2800	65.1152
2796	65.1544
2792	65.1301
2788	65.0634
2784	65.0612
2780	65.1111
2776	65.0864
2772	64.9767
2768	64.9278
2764	64.994
2760	65.0642
2756	65.1015
2752	65.1289
2748	65.1583
2744	65.1695
2740	65.17
2736	65.1884
2732	65.183
2728	65.2049
2724	65.2357
2720	65.1674
2716	65.1126
2712	65.0906
2708	65.0694
2704	65.1551
2700	65.2261
2696	65.1818
2692	65.1255
2688	65.1184
2684	65.1459
2680	65.1387
2676	65.0795
2672	65.0585
2668	65.1165
2664	65.1246
2660	65.0614
2656	65.041
2652	65.0238
2648	64.9893
2644	64.9873
2640	65.0062
2636	65.0249
2632	65.0206
2628	65.0151
2624	65.0426
2620	65.0914
2616	65.1048
2612	65.0622
2608	65.0006
2604	64.9386
2600	64.9447
2596	65.039
2592	65.1238
2588	65.1466
2584	65.1515
2580	65.1549
2576	65.1442
2572	65.1025
2568	65.0536
2564	65.0373
2560	65.0159
2556	64.9959
2552	65.0294
2548	65.0569
2544	65.0332
2540	65.023
2536	65.0344
2532	65.0483
2528	65.0997
2524	65.144
2520	65.1258
2516	65.109
2512	65.1229
2508	65.1137
2504	65.0432
2500	64.9283
2496	64.8846
2492	64.9787
2488	65.0717
2484	65.0939
2480	65.1058
2476	65.082
2472	65.0574
2468	65.0576
2464	65.0241
2460	64.9729
2456	64.9538
2452	64.993
2448	65.0506
2444	65.0746
2440	65.0915
2436	65.0754
2432	65.0167
2428	64.9925
2424	64.9729
2420	64.9889
2416	65.1129
2412	65.1615
2408	65.0631
2404	65.0081
2400	65.0132
2396	64.9972
2392	65.017
2388	65.067
2384	65.0785
2380	65.0932
2376	65.0855
2372	65.0198
2368	64.989
2364	65.0344
2360	65.1041
2356	65.1207
2352	65.1114
2348	65.1405
2344	65.1273
2340	65.0608
2336	65.0714
2332	65.1411
2328	65.1765
2324	65.1639
2320	65.1045
2316	65.0579
2312	65.0674
2308	65.0514
2304	64.9761
2300	64.9123
2296	64.8767
2292	64.8356
2288	64.8291
2284	64.9157
2280	65.0167
2276	65.0379
2272	65.0201
2268	64.9971
2264	64.9776
2260	64.9892
2256	65.0102
2252	64.9953
2248	64.9607
2244	64.9822
2240	64.9766
2236	64.8895
2232	64.8931
2228	64.9951
2224	65.0506
2220	65.0662
2216	65.08
2212	65.0706
2208	65.0574
2204	65.0479
2200	65.0322
2196	64.9928
2192	64.9294
2188	64.8849
2184	64.8824
2180	64.9106
2176	64.92
2172	64.9272
2168	64.9774
2164	64.9664
2160	64.8551
2156	64.8155
2152	64.8356
2148	64.831
2144	64.8284
2140	64.8406
2136	64.878
2132	64.8957
2128	64.8778
2124	64.8669
2120	64.879
2116	64.8971
2112	64.9494
2108	64.9878
2104	64.926
2100	64.8532
2096	64.8457
2092	64.8917
2088	64.94
2084	64.9861
2080	65.0507
2076	65.0218
2072	64.9153
2068	64.8623
2064	64.8705
2060	64.9088
2056	64.9458
2052	64.9601
2048	64.9857
2044	64.9906
2040	64.9659
2036	64.9707
2032	64.9712
2028	64.9383
2024	64.8898
2020	64.8445
2016	64.8444
2012	64.9113
2008	64.9739
2004	64.9599
2000	64.891
1996	64.8332
1992	64.8234
1988	64.8351
1984	64.8715
1980	64.9392
1976	65.014
1972	65.0498
1968	65.0062
1964	64.9616
1960	64.9645
1956	64.958
1952	64.9368
1948	64.9267
1944	64.9305
1940	64.8987
1936	64.8545
1932	64.8435
1928	64.8145
1924	64.7923
1920	64.8526
1916	64.9443
1912	64.9565
1908	64.9103
1904	64.8888
1900	64.8722
1896	64.8768
1892	64.9364
1888	64.9278
1884	64.836
1880	64.8151
1876	64.8742
1872	64.9178
1868	64.9606
1864	64.9542
1860	64.8612
1856	64.8135
1852	64.8153
1848	64.8446
1844	64.899
1840	64.9117
1836	64.8868
1832	64.8374
1828	64.7967
1824	64.8124
1820	64.8584
1816	64.8752
1812	64.8451
1808	64.8199
1804	64.8265
1800	64.82
1796	64.8084
1792	64.8042
1788	64.7968
1784	64.8014
1780	64.8154
1776	64.8272
1772	64.8342
1768	64.8132
1764	64.7545
1760	64.7171
1756	64.7602
1752	64.8256
1748	64.7765
1744	64.6493
1740	64.5626
1736	64.5362
1732	64.5182
1728	64.4822
1724	64.5383
1720	64.6723
1716	64.6901
1712	64.6233
1708	64.6706
1704	64.8545
1700	65.0259
1696	64.9783
1692	64.804
1688	64.7952
1684	64.8442
1680	64.7886
1676	64.7514
1672	64.7882
1668	64.8349
1664	64.8176
1660	64.8039
1656	64.8764
1652	64.8607
1648	64.7126
1644	64.6407
1640	64.729
1636	64.8213
1632	64.7839
1628	64.7276
1624	64.708
1620	64.6854
1616	64.7074
1612	64.78
1608	64.8361
1604	64.8246
1600	64.776
1596	64.7357
1592	64.6831
1588	64.6145
1584	64.5932
1580	64.655
1576	64.7269
1572	64.7593
1568	64.7521
1564	64.8077
1560	64.9504
1556	64.9005
1552	64.6981
1548	64.6409
1544	64.76
1540	64.8407
1536	64.7714
1532	64.6984
1528	64.6585
1524	64.6397
1520	64.6472
1516	64.6682
1512	64.7042
1508	64.7038
1504	64.6695
1500	64.6591
1496	64.6795
1492	64.6567
1488	64.6173
1484	64.5947
1480	64.5688
1476	64.5982
1472	64.6475
1468	64.66
1464	64.6704
1460	64.6867
1456	64.6869
1452	64.641
1448	64.5669
1444	64.58
1440	64.6899
1436	64.7224
1432	64.6742
1428	64.6445
1424	64.6055
1420	64.5859
1416	64.5889
1412	64.5524
1408	64.4843
1404	64.4663
1400	64.5172
1396	64.5323
1392	64.4552
1388	64.3717
1384	64.3977
1380	64.4637
1376	64.4614
1372	64.438
1368	64.4831
1364	64.537
1360	64.4979
1356	64.4913
1352	64.5248
1348	64.4857
1344	64.4843
1340	64.5452
1336	64.5277
1332	64.454
1328	64.448
1324	64.4498
1320	64.3712
1316	64.2921
1312	64.285
1308	64.3324
1304	64.3737
1300	64.3877
1296	64.4305
1292	64.5
1288	64.5149
1284	64.4481
1280	64.3519
1276	64.2846
1272	64.2835
1268	64.3122
1264	64.324
1260	64.3571
1256	64.4292
1252	64.5031
1248	64.4792
1244	64.3607
1240	64.273
1236	64.23
1232	64.2426
1228	64.3621
1224	64.4723
1220	64.4205
1216	64.3395
1212	64.3864
1208	64.4288
1204	64.4051
1200	64.4027
1196	64.4324
1192	64.4655
1188	64.4664
1184	64.4055
1180	64.28
1176	64.1822
1172	64.2186
1168	64.2912
1164	64.2288
1160	64.0901
1156	64.0537
1152	64.1125
1148	64.1598
1144	64.2059
1140	64.3075
1136	64.4141
1132	64.4889
1128	64.5076
1124	64.4505
1120	64.4346
1116	64.4928
1112	64.4989
1108	64.3309
1104	64.1481
1100	64.1431
1096	64.264
1092	64.458
1088	64.4957
1084	64.3552
1080	64.2836
1076	64.3605
1072	64.4083
1068	64.2753
1064	64.1832
1060	64.1922
1056	64.2333
1052	64.3351
1048	64.4237
1044	64.4125
1040	64.3237
1036	64.2767
1032	64.331
1028	64.3843
1024	64.3214
1020	64.1787
1016	64.0922
1012	64.1097
1008	64.1653
1004	64.2362
1000	64.29
996	 64.3322
992	 64.3643
988	 64.3843
984	 64.4759
980	 64.5267
976	 64.3916
972	 64.2733
968	 64.3486
964	 64.4068
960	 64.3679
956	 64.3738
952	 64.4347
948	 64.5255
944	 64.594
940	 64.5501
936	 64.4402
932	 64.3543
928	 64.2877
924	 64.26
920	 64.3071
916	 64.3818
912	 64.3193
908	 64.1799
904	 64.2411
900	 64.368
896	 64.381
892	 64.3824
888	 64.3351
884	 64.2494
880	 64.2255
876	 64.2593
872	 64.3146
868	 64.3256
864	 64.2714
860	 64.1829
856	 64.1818
852	 64.3261
848	 64.4623
844	 64.4153
840	 64.2628
836	 64.2513
832	 64.288
828	 64.2195
824	 64.1765
820	 64.2417
816	 64.2964
812	 64.2244
808	 64.2317
804	 64.3765
800	 64.3365
796	 64.1704
792	 64.2016
788	 64.3928
784	 64.4639
780	 64.3345
776	 64.2314
772	 64.2443
768	 64.2947
764	 64.3969
760	 64.4397
756	 64.387
752	 64.2608
748	 64.0444
744	 63.8765
740	 63.8728
736	 63.9771
732	 64.1469
728	 64.2856
724	 64.2085
720	 64.0946
716	 64.0865
712	 64.0958
708	 64.1139
704	 64.1757
700	 64.317
696	 64.3544
692	 64.1824
688	 64.0071
684	 63.9371
680	 63.9487
676	 64.0816
672	 64.1981
668	 64.0291
664	 63.9674
660	 64.4959
656	 64.824
652	 64.4379
648	 63.9791
644	 63.8551
640	 64.1387
636	 64.5673
632	 64.6245
628	 64.2843
624	 63.9633
620	 64.2663
616	 64.4185
612	 63.4799
608	 62.7163
604	 62.7795
600	 63.1675
596	 63.803
592	 64.3109
588	 64.3015
584	 63.9159
580	 63.6844
576	 63.5533
572	 63.2566
568	 63.3899
564	 64.0536
560	 64.3804
556	 64.3343
552	 64.3339
548	 64.4109
544	 64.4365
540	 64.332
536	 64.2275
532	 64.1876
528	 64.2792
524	 64.5312
520	 64.5759
516	 64.3818
512	 64.1489
508	 64.1251
504	 64.4839
500	 64.819
496	 64.7599
492	 64.6377
488	 64.4987
484	 64.2945
480	 64.4933
476	 65.1305
472	 64.9536
468	 63.91
464	 63.5551
460	 63.6971
456	 63.624
452	 63.634
448	 63.4013
444	 63.1108
440	 63.4843
436	 63.3929
432	 63.0633
428	 63.8258
424	 64.0283
420	 63.5849
416	 63.5923
412	 63.2211
408	 63.441
404	 65.5162
400	 65.941
396	 60.1838
392	 52.5825
388	 48.494
384	 48.8959
380	 60.2632
376	 84.0806
372	 85.4019
370	 109.254