File: Bakgrunnsmateriale/MATLAB/FTIR/ftir_data/subAa/Mapping_121/BZ1503107-1_t119.asc
PE IR       SPECTRUM    SPECTRUM    ASCII       PEDS        1.60
  -1
BZEAB6~1.ASC
17/04/07
23:02:13.00
17/04/07
23:02:39.00
tln
$BZ1503107-1_t0119$<tbV0>[-7.8,13.0,8.0,0.0,27,1,0]
27.028
64

2002,4.07
MIRTGS : RIGHTBACK : INTERNAL 2
MIR : ON : INTERNAL 2
OPTKBR

0.200000
8
8.000000
FILLER
RATIO
SPECTRUM
UNLOCKED 256

DOUBLE
64
COMBINED
1
0
0

0.002000
RATIO

1
0
TRUE
51149
0
LEFT NOT FITTED RIGHT NOT FITTED 0
NONE
NONE
15600
12
4.427000
51148
TRUE
1 0 8 72 0 0 0 0

15798

#HDR
-1
-1
#GR
µM
%T
2.38419e-05
0.0
2.000000
0.002000
12515
8
74.5786
58.8138
#DATA
2.000000	 64.4112
2.018000	 65.0491
2.036000	 65.1107
2.054000	 64.9202
2.072000	 64.9308
2.090000	 64.8167
2.108000	 65.2827
2.126000	 64.7744
2.144000	 64.9768
2.162000	 64.618
2.180000	 64.6647
2.198000	 63.9163
2.216000	 64.4458
2.234000	 63.9381
2.252000	 63.6594
2.270000	 65.6228
2.288000	 64.4028
2.306000	 64.6581
2.324000	 64.3241
2.342000	 64.4503
2.360000	 64.8746
2.378000	 64.952
2.396000	 64.8719
2.414000	 64.7107
2.432000	 65.0525
2.450000	 64.7554
2.468000	 65.1723
2.486000	 64.9212
2.504000	 64.8192
2.522000	 64.8382
2.540000	 64.9223
2.558000	 64.8684
2.576000	 65.0059
2.594000	 65
2.612000	 65.0121
2.630000	 65.0537
2.648000	 64.9319
2.666000	 64.9668
2.684000	 64.9859
2.702000	 65.0369
2.720000	 64.9174
2.738000	 65.0031
2.756000	 65.2695
2.774000	 64.9461
2.792000	 64.919
2.810000	 64.9234
2.828000	 64.7261
2.846000	 64.7439
2.864000	 64.6602
2.882000	 64.9218
2.900000	 64.9513
2.918000	 64.9836
2.936000	 64.941
2.954000	 64.7448
2.972000	 64.9281
2.990000	 64.9353
3.008000	 65.0159
3.026000	 64.8009
3.044000	 64.8412
3.062000	 64.7566
3.080000	 64.8495
3.098000	 64.8205
3.116000	 64.6774
3.134000	 64.9728
3.152000	 64.8656
3.170000	 64.8366
3.188000	 64.7788
3.206000	 64.7893
3.224000	 64.7413
3.242000	 64.8615
3.260000	 64.6996
3.278000	 64.6686
3.296000	 64.7589
3.314000	 64.7992
3.332000	 64.7935
3.350000	 64.7177
3.368000	 64.7622
3.386000	 64.5633
3.404000	 64.5141
3.422000	 64.5398
3.440000	 64.425
3.458000	 64.5501
3.476000	 64.5649
3.494000	 64.5325
3.512000	 64.6157
3.530000	 64.586
3.548000	 64.5594
3.566000	 64.6723
3.584000	 64.5674
3.602000	 64.5969
3.620000	 64.534
3.638000	 64.5573
3.656000	 64.5854
3.674000	 64.5686
3.692000	 64.6235
3.710000	 64.4767
3.728000	 64.4971
3.746000	 64.4737
3.764000	 64.4152
3.782000	 64.504
3.800000	 64.3321
3.818000	 64.5311
3.836000	 64.566
3.854000	 64.5129
3.872000	 64.4903
3.890000	 64.4714
3.908000	 64.4366
3.926000	 64.5125
3.944000	 64.4828
3.962000	 64.4573
3.980000	 64.3653
3.998000	 64.4541
4.016000	 64.3148
4.034000	 64.3875
4.052000	 64.3598
4.070000	 64.4048
4.088000	 64.3838
4.106000	 64.496
4.124000	 64.2476
4.141999	 64.2895
4.160000	 64.3593
4.178000	 64.3861
4.196000	 64.3063
4.214000	 64.2815
4.232000	 64.2313
4.250000	 64.2559
4.268000	 64.2405
4.286000	 64.4065
4.304000	 64.3634
4.322000	 64.3334
4.340000	 64.351
4.358000	 64.3208
4.375999	 64.1882
4.394000	 64.2229
4.412000	 64.16
4.430000	 64.2476
4.448000	 64.24
4.466000	 64.181
4.484000	 64.1418
4.502000	 64.2493
4.520000	 64.2826
4.538000	 64.2147
4.556000	 64.1706
4.574000	 64.056
4.592000	 64.1961
4.609999	 64.1056
4.628000	 64.075
4.646000	 64.081
4.664000	 64.1169
4.682000	 64.0855
4.700000	 64.0136
4.718000	 64.1481
4.736000	 64.1592
4.754000	 64.0641
4.772000	 64.0084
4.790000	 63.94
4.808000	 64.0103
4.826000	 64.0235
4.843999	 63.9047
4.862000	 63.9147
4.880000	 63.8942
4.898000	 63.9047
4.916000	 64.0074
4.934000	 63.8951
4.952000	 63.846
4.970000	 63.9093
4.988000	 63.8677
5.006000	 63.8764
5.024000	 63.8294
5.042000	 63.8164
5.060000	 63.8433
5.077999	 63.8381
5.096000	 63.8486
5.114000	 63.8055
5.132000	 63.8426
5.150000	 63.8525
5.168000	 63.8719
5.186000	 63.9025
5.204000	 63.8125
5.222000	 63.7992
5.240000	 63.8802
5.258000	 63.8278
5.276000	 63.7905
5.294000	 63.7882
5.312000	 63.8025
5.330000	 63.8153
5.348000	 63.7435
5.366000	 63.7482
5.384000	 63.83
5.402000	 63.8505
5.420000	 63.7629
5.438000	 63.7529
5.456000	 63.8218
5.474000	 63.7735
5.492000	 63.7718
5.510000	 63.6653
5.528000	 63.6803
5.546000	 63.8151
5.564000	 63.7684
5.582000	 63.6647
5.600000	 63.6508
5.618000	 63.6827
5.636000	 63.7249
5.654000	 63.6974
5.672000	 63.5454
5.690000	 63.4597
5.708000	 63.4805
5.726000	 63.4112
5.744000	 63.3028
5.762000	 63.2724
5.780000	 63.3522
5.798000	 63.3665
5.816000	 63.3936
5.834000	 63.506
5.852000	 63.5685
5.870000	 63.5841
5.888000	 63.6264
5.906000	 63.6169
5.923999	 63.6133
5.942000	 63.6037
5.960000	 63.5457
5.978000	 63.4983
5.996000	 63.4548
6.014000	 63.4898
6.032000	 63.5106
6.050000	 63.4367
6.068000	 63.411
6.086000	 63.4251
6.104000	 63.4188
6.122000	 63.4057
6.140000	 63.3962
6.158000	 63.384
6.176000	 63.3588
6.194000	 63.3393
6.212000	 63.3425
6.230000	 63.3942
6.248000	 63.4032
6.266000	 63.3401
6.284000	 63.3247
6.302000	 63.2777
6.320000	 63.239
6.338000	 63.3121
6.356000	 63.3718
6.374000	 63.4055
6.392000	 63.4018
6.410000	 63.2876
6.428000	 63.1964
6.446000	 63.2273
6.464000	 63.2623
6.482000	 63.2365
6.500000	 63.2179
6.518000	 63.2722
6.536000	 63.3012
6.554000	 63.3097
6.572000	 63.3296
6.590000	 63.2923
6.608000	 63.2666
6.626000	 63.3159
6.644000	 63.3466
6.662000	 63.3045
6.680000	 63.2508
6.698000	 63.2493
6.716000	 63.2211
6.734000	 63.1608
6.752000	 63.1515
6.770000	 63.1333
6.788000	 63.0896
6.806000	 63.0878
6.824000	 63.0938
6.842000	 63.0464
6.860000	 63.0249
6.878000	 63.0948
6.896000	 63.1624
6.914000	 63.1549
6.932000	 63.0744
6.950000	 63.0122
6.968000	 63.0492
6.986000	 63.0837
7.004000	 63.0573
7.022000	 63.0452
7.040000	 63.0777
7.058000	 63.1193
7.076000	 63.1119
7.094000	 63.0673
7.112000	 63.0658
7.130000	 63.096
7.148000	 63.1086
7.166000	 63.1192
7.184000	 63.1083
7.202000	 63.0496
7.220000	 62.9998
7.238000	 62.9806
7.256000	 62.9407
7.274000	 62.9023
7.292000	 62.9293
7.310000	 62.9854
7.328000	 62.9928
7.346000	 62.9609
7.364000	 62.9508
7.382000	 62.9771
7.400000	 63.0128
7.418000	 63.0428
7.436000	 63.0636
7.454000	 63.0689
7.472000	 63.0652
7.490000	 63.0727
7.508000	 63.0868
7.526000	 63.0779
7.544000	 63.051
7.562000	 63.0399
7.580000	 63.0418
7.598000	 63.0292
7.616000	 63.0057
7.634000	 62.988
7.652000	 62.9721
7.670000	 62.9651
7.688000	 62.9856
7.706000	 63.0138
7.724000	 63.0085
7.742000	 62.9683
7.760000	 62.9332
7.778000	 62.9365
7.796000	 62.9715
7.814000	 62.9918
7.832000	 62.9571
7.850000	 62.8868
7.868000	 62.8373
7.886000	 62.823
7.904000	 62.8058
7.922000	 62.7647
7.940000	 62.7261
7.958000	 62.7162
7.976000	 62.7246
7.994000	 62.7305
8.012000	 62.7344
8.030000	 62.7469
8.048000	 62.756
8.065999	 62.7495
8.084000	 62.75
8.102000	 62.7789
8.120000	 62.8108
8.138000	 62.8156
8.155999	 62.8076
8.173999	 62.8087
8.192000	 62.807
8.210000	 62.7921
8.228000	 62.7812
8.246000	 62.7813
8.263999	 62.7712
8.282000	 62.7399
8.300000	 62.7044
8.318000	 62.6788
8.336000	 62.668
8.353999	 62.6835
8.372000	 62.7354
8.390000	 62.8099
8.408000	 62.8707
8.426000	 62.8864
8.443999	 62.8537
8.462000	 62.7906
8.480000	 62.7166
8.498000	 62.6462
8.516000	 62.5939
8.533999	 62.5743
8.552000	 62.5865
8.570000	 62.614
8.588000	 62.6401
8.606000	 62.6537
8.624000	 62.6512
8.641999	 62.6402
8.660000	 62.6276
8.678000	 62.6072
8.696000	 62.5739
8.714000	 62.5453
8.731999	 62.5492
8.750000	 62.5833
8.768000	 62.6102
8.786000	 62.6011
8.804000	 62.5696
8.821999	 62.5489
8.840000	 62.5502
8.858000	 62.5544
8.876000	 62.5417
8.894000	 62.5168
8.911999	 62.5042
8.930000	 62.5244
8.948000	 62.5779
8.966000	 62.6465
8.984000	 62.7019
9.001999	 62.7214
9.020000	 62.707
9.038000	 62.6836
9.056000	 62.6681
9.074000	 62.6485
9.092000	 62.5999
9.109999	 62.5186
9.128000	 62.4295
9.146000	 62.3631
9.164000	 62.3334
9.182000	 62.3423
9.199999	 62.3906
9.218000	 62.4734
9.236000	 62.5659
9.254000	 62.6308
9.272000	 62.6459
9.289999	 62.6252
9.308000	 62.6049
9.326000	 62.6098
9.344000	 62.6344
9.362000	 62.6557
9.379999	 62.6575
9.398000	 62.6411
9.416000	 62.6158
9.434000	 62.5891
9.452000	 62.563
9.469999	 62.5374
9.488000	 62.5103
9.506000	 62.4796
9.524000	 62.4467
9.542000	 62.4198
9.560000	 62.4096
9.577999	 62.4206
9.596000	 62.4462
9.614000	 62.4754
9.632000	 62.5026
9.650000	 62.5302
9.667999	 62.5603
9.686000	 62.5873
9.704000	 62.5993
9.722000	 62.5873
9.740000	 62.5544
9.757999	 62.5154
9.776000	 62.4872
9.794000	 62.4764
9.812000	 62.4758
9.830000	 62.4718
9.847999	 62.4577
9.866000	 62.4392
9.884000	 62.4286
9.902000	 62.4328
9.920000	 62.4459
9.937999	 62.4543
9.956000	 62.4494
9.974000	 62.4343
9.992000	 62.4191
10.01	62.4112
10.028	62.4088
10.046	62.4038
10.064	62.3893
10.082	62.3664
10.1	62.3441
10.118	62.3341
10.136	62.3424
10.154	62.3661
10.172	62.3944
10.19	62.4142
10.208	62.4177
10.226	62.406
10.244	62.3882
10.262	62.3749
10.28	62.3712
10.298	62.3753
10.316	62.3799
10.334	62.3775
10.352	62.3641
10.37	62.3409
10.388	62.3134
10.406	62.2888
10.424	62.2738
10.442	62.2715
10.46	62.2804
10.478	62.2947
10.496	62.3083
10.514	62.3191
10.532	62.3298
10.55	62.3455
10.568	62.3692
10.586	62.3996
10.604	62.4325
10.622	62.4629
10.64	62.488
10.658	62.5067
10.676	62.5186
10.694	62.5225
10.712	62.5165
10.73	62.4997
10.748	62.4741
10.766	62.4444
10.784	62.4161
10.802	62.3949
10.82	62.3851
10.838	62.3892
10.856	62.4066
10.874	62.4339
10.892	62.4644
10.91	62.4905
10.928	62.506
10.946	62.5072
10.964	62.4947
10.982	62.4717
11	62.4431
11.018	62.4147
11.036	62.3918
11.054	62.379
11.072	62.3784
11.09	62.3882
11.108	62.402
11.126	62.4105
11.144	62.4058
11.162	62.3851
11.18	62.3522
11.198	62.3165
11.216	62.2886
11.234	62.275
11.252	62.2758
11.27	62.2852
11.288	62.2943
11.306	62.2966
11.324	62.291
11.342	62.2819
11.36	62.2764
11.378	62.2804
11.396	62.2952
11.414	62.3165
11.432	62.3359
11.45	62.3453
11.468	62.3399
11.486	62.3203
11.504	62.2914
11.522	62.2611
11.54	62.2361
11.558	62.2208
11.576	62.2169
11.594	62.2245
11.612	62.2427
11.63	62.2697
11.648	62.3028
11.666	62.337
11.684	62.3653
11.702	62.3806
11.72	62.3781
11.738	62.3578
11.756	62.3255
11.774	62.2907
11.792	62.2628
11.81	62.2462
11.828	62.2392
11.846	62.2349
11.864	62.2242
11.882	62.2009
11.9	62.1637
11.918	62.1175
11.936	62.0715
11.954	62.0361
11.972	62.0203
11.99	62.0281
12.008	62.058
12.026	62.1042
12.044	62.158
12.062	62.211
12.08	62.2574
12.098	62.2944
12.116	62.3227
12.134	62.345
12.152	62.3641
12.17	62.3811
12.188	62.3949
12.206	62.4028
12.224	62.4018
12.242	62.3901
12.26	62.3686
12.278	62.3401
12.296	62.3085
12.314	62.2768
12.332	62.2471
12.35	62.2205
12.368	62.1982
12.386	62.1819
12.404	62.1741
12.422	62.1773
12.44	62.1929
12.458	62.2196
12.476	62.2536
12.494	62.288
12.512	62.3154
12.53	62.3301
12.548	62.3297
12.566	62.3156
12.584	62.2928
12.602	62.268
12.62	62.2475
12.638	62.2356
12.656	62.2335
12.674	62.2397
12.692	62.2497
12.71	62.2582
12.728	62.2592
12.746	62.2477
12.764	62.2208
12.782	62.1784
12.8	62.1236
12.818	62.0623
12.836	62.0016
12.854	61.9492
12.872	61.9112
12.89	61.8918
12.908	61.8919
12.926	61.9095
12.944	61.9399
12.962	61.9774
12.98	62.0157
12.998	62.0495
13.016	62.0751
13.034	62.091
13.052	62.0973
13.07	62.0952
13.088	62.0867
13.106	62.0737
13.124	62.0579
13.142	62.0405
13.16	62.0226
13.178	62.0045
13.196	61.9872
13.214	61.9714
13.232	61.9585
13.25	61.9498
13.268	61.9461
13.286	61.9479
13.304	61.9551
13.322	61.9666
13.34	61.9809
13.358	61.9959
13.376	62.0093
13.394	62.0189
13.412	62.0234
13.43	62.0221
13.448	62.015
13.466	62.0026
13.484	61.9861
13.502	61.9668
13.52	61.9465
13.538	61.9264
13.556	61.9081
13.574	61.893
13.592	61.8824
13.61	61.8775
13.628	61.8782
13.646	61.8839
13.664	61.8928
13.682	61.9023
13.7	61.9095
13.718	61.9115
13.736	61.9067
13.754	61.895
13.772	61.8785
13.79	61.8605
13.808	61.8458
13.826	61.8389
13.844	61.8435
13.862	61.8612
13.88	61.8911
13.898	61.9295
13.916	61.9704
13.934	62.0069
13.952	62.0317
13.97	62.0389
13.988	62.0246
14.006	61.9882
14.024	61.9319
14.042	61.861
14.06	61.7823
14.078	61.7031
14.096	61.6301
14.114	61.5684
14.132	61.5209
14.15	61.4888
14.168	61.4711
14.186	61.466
14.204	61.471
14.222	61.4838
14.24	61.5032
14.258	61.529
14.276	61.5613
14.294	61.6008
14.312	61.6481
14.33	61.7027
14.348	61.7635
14.366	61.8278
14.384	61.8912
14.402	61.9483
14.42	61.9936
14.438	62.0221
14.456	62.0304
14.474	62.0168
14.492	61.9819
14.51	61.9292
14.528	61.8644
14.546	61.7942
14.564	61.7255
14.582	61.6648
14.6	61.6168
14.618	61.5844
14.636	61.5682
14.654	61.5665
14.672	61.5759
14.69	61.5926
14.708	61.6122
14.726	61.6305
14.744	61.6447
14.762	61.6524
14.78	61.6532
14.798	61.6471
14.816	61.635
14.834	61.6187
14.852	61.5992
14.87	61.5784
14.888	61.5579
14.906	61.5394
14.924	61.5251
14.942	61.5172
14.96	61.5177
14.978	61.5282
14.996	61.5498
15.014	61.5831
15.032	61.6277
15.05	61.6818
15.068	61.7428
15.086	61.807
15.104	61.8704
15.122	61.9281
15.14	61.9758
15.158	62.0102
15.176	62.0288
15.194	62.0301
15.212	62.0141
15.23	61.9825
15.248	61.9378
15.266	61.8827
15.284	61.8217
15.302	61.7578
15.32	61.6938
15.338	61.6317
15.356	61.5724
15.374	61.5156
15.392	61.4598
15.41	61.4032
15.428	61.3437
15.446	61.2794
15.464	61.2091
15.482	61.133
15.5	61.0526
15.518	60.9714
15.536	60.895
15.554	60.8287
15.572	60.7788
15.59	60.7529
15.608	60.7553
15.626	60.7891
15.644	60.8563
15.662	60.9545
15.68	61.0793
15.698	61.2252
15.716	61.3827
15.734	61.5415
15.752	61.693
15.77	61.8284
15.788	61.9383
15.806	62.0174
15.824	62.0625
15.842	62.0714
15.86	62.0457
15.878	61.9887
15.896	61.904
15.914	61.7982
15.932	61.6777
15.95	61.5475
15.968	61.4137
15.986	61.2823
16.004	61.1569
16.022	61.0407
16.04	60.9369
16.058	60.8464
16.076	60.7698
16.094	60.7072
16.112	60.6576
16.13	60.6201
16.148	60.5929
16.166	60.5745
16.184	60.5639
16.202	60.5595
16.22	60.5607
16.238	60.5673
16.256	60.5786
16.274	60.5951
16.292	60.617
16.31	60.6442
16.328	60.6773
16.346	60.7159
16.364	60.7601
16.382	60.8096
16.4	60.8636
16.418	60.9218
16.436	60.9832
16.454	61.0468
16.472	61.112
16.49	61.1777
16.508	61.2432
16.526	61.3076
16.544	61.3697
16.562	61.4276
16.58	61.48
16.598	61.5237
16.616	61.5563
16.634	61.5754
16.652	61.5773
16.67	61.5604
16.688	61.5228
16.706	61.4637
16.724	61.384
16.742	61.2841
16.76	61.1694
16.778	61.0428
16.796	60.9101
16.814	60.7773
16.832	60.6479
16.85	60.5285
16.868	60.422
16.886	60.331
16.904	60.258
16.922	60.2029
16.94	60.1655
16.958	60.1437
16.976	60.1366
16.994	60.1416
17.012	60.1568
17.03	60.1807
17.048	60.2106
17.066	60.2454
17.084	60.2835
17.102	60.3231
17.12	60.3632
17.138	60.4017
17.156	60.4369
17.174	60.4672
17.192	60.4894
17.21	60.5025
17.228	60.5032
17.246	60.4904
17.264	60.4631
17.282	60.4209
17.3	60.3647
17.318	60.296
17.336	60.2185
17.354	60.1341
17.372	60.0495
17.39	59.9675
17.408	59.8944
17.426	59.8348
17.444	59.7918
17.462	59.7703
17.48	59.7709
17.498	59.7953
17.516	59.8418
17.534	59.9099
17.552	59.9944
17.57	60.0938
17.588	60.2014
17.606	60.3143
17.624	60.4272
17.642	60.5364
17.66	60.6397
17.678	60.7336
17.696	60.8179
17.714	60.8922
17.732	60.9579
17.75	61.0157
17.768	61.0691
17.786	61.1193
17.804	61.1704
17.822	61.2233
17.84	61.281
17.858	61.3439
17.876	61.4132
17.894	61.4875
17.912	61.5666
17.93	61.6475
17.948	61.7295
17.966	61.8075
17.984	61.8801
18.002	61.9432
18.02	61.9942
18.038	62.0305
18.056	62.0501
18.074	62.0519
18.092	62.0359
18.11	62.0023
18.128	61.9539
18.146	61.8922
18.164	61.8217
18.182	61.7456
18.2	61.6681
18.218	61.5948
18.236	61.5285
18.254	61.4752
18.272	61.4362
18.29	61.4163
18.308	61.4158
18.326	61.4362
18.344	61.4767
18.362	61.5359
18.38	61.6116
18.398	61.6996
18.416	61.7965
18.434	61.8978
18.452	61.9983
18.47	62.0941
18.488	62.1792
18.506	62.2511
18.524	62.3046
18.542	62.3387
18.56	62.3502
18.578	62.3386
18.596	62.3046
18.614	62.2484
18.632	62.1742
18.65	62.0826
18.668	61.9802
18.686	61.8681
18.704	61.7537
18.722	61.6379
18.74	61.5277
18.758	61.4238
18.776	61.3316
18.794	61.2511
18.812	61.1852
18.83	61.1332
18.848	61.0955
18.866	61.0707
18.884	61.0573
18.902	61.0534
18.92	61.0566
18.938	61.0651
18.956	61.0758
18.974	61.0873
18.992	61.0971
19.01	61.1043
19.028	61.1067
19.046	61.1042
19.064	61.0958
19.082	61.0816
19.1	61.0612
19.118	61.0351
19.136	61.0039
19.154	60.9681
19.172	60.9291
19.19	60.8876
19.208	60.8456
19.226	60.8037
19.244	60.7647
19.262	60.7288
19.28	60.6988
19.298	60.6747
19.316	60.6593
19.334	60.6523
19.352	60.6552
19.37	60.6677
19.388	60.6899
19.406	60.722
19.424	60.762
19.442	60.81
19.46	60.8626
19.478	60.92
19.496	60.9778
19.514	61.0356
19.532	61.0896
19.55	61.1378
19.568	61.1784
19.586	61.2083
19.604	61.2275
19.622	61.2331
19.64	61.2259
19.658	61.2051
19.676	61.1711
19.694	61.1255
19.712	61.0682
19.73	61.0032
19.748	60.9302
19.766	60.8542
19.784	60.7753
19.802	60.6978
19.82	60.6237
19.838	60.5547
19.856	60.4945
19.874	60.443
19.892	60.4033
19.91	60.375
19.928	60.3591
19.946	60.3556
19.964	60.3636
19.982	60.3833
20	60.4125
20.018	60.4508
20.036	60.4965
20.054	60.547
20.072	60.6022
20.09	60.6583
20.108	60.7159
20.126	60.7713
20.144	60.8245
20.162	60.8737
20.18	60.9179
20.198	60.957
20.216	60.9898
20.234	61.0166
20.252	61.0374
20.27	61.0523
20.288	61.0621
20.306	61.0667
20.324	61.0672
20.342	61.0643
20.36	61.0582
20.378	61.0506
20.396	61.041
20.414	61.0309
20.432	61.0201
20.45	61.0092
20.468	60.9986
20.486	60.988
20.504	60.9775
20.522	60.9672
20.54	60.9566
20.558	60.9459
20.576	60.9346
20.594	60.9223
20.612	60.9091
20.63	60.8946
20.648	60.8789
20.666	60.8618
20.684	60.8432
20.702	60.8235
20.72	60.8028
20.738	60.7812
20.756	60.7596
20.774	60.7376
20.792	60.7166
20.81	60.6966
20.828	60.678
20.846	60.6621
20.864	60.6484
20.882	60.638
20.9	60.631
20.918	60.6275
20.936	60.628
20.954	60.6324
20.972	60.6404
20.99	60.6522
21.008	60.6672
21.026	60.6853
21.044	60.7062
21.062	60.7288
21.08	60.7534
21.098	60.7788
21.116	60.8048
21.134	60.8311
21.152	60.8564
21.17	60.8812
21.188	60.9046
21.206	60.9264
21.224	60.9466
21.242	60.9646
21.26	60.9806
21.278	60.9945
21.296	61.0063
21.314	61.016
21.332	61.0236
21.35	61.0291
21.368	61.0327
21.386	61.0344
21.404	61.0342
21.422	61.032
21.44	61.0278
21.458	61.0212
21.476	61.0121
21.494	61.0004
21.512	60.985
21.53	60.9663
21.548	60.9435
21.566	60.916
21.584	60.884
21.602	60.8467
21.62	60.804
21.638	60.7561
21.656	60.7024
21.674	60.6432
21.692	60.5793
21.71	60.5106
21.728	60.4377
21.746	60.3622
21.764	60.2833
21.782	60.2035
21.8	60.1243
21.818	60.0451
21.836	59.9698
21.854	59.898
21.872	59.8311
21.89	59.7726
21.908	59.7213
21.926	59.6795
21.944	59.649
21.962	59.6289
21.98	59.6208
21.998	59.6252
22.016	59.6416
22.034	59.6697
22.052	59.7103
22.07	59.7611
22.088	59.8212
22.106	59.8912
22.124	59.9669
22.142	60.0482
22.16	60.1343
22.178	60.2202
22.196	60.3073
22.214	60.3928
22.232	60.4725
22.25	60.5484
22.268	60.6169
22.286	60.6758
22.304	60.7263
22.322	60.7659
22.34	60.7938
22.358	60.8108
22.376	60.8161
22.394	60.8094
22.412	60.7918
22.43	60.7643
22.448	60.7261
22.466	60.6794
22.484	60.6259
22.502	60.5645
22.52	60.4984
22.538	60.4286
22.556	60.3547
22.574	60.2798
22.592	60.204
22.61	60.1275
22.628	60.0524
22.646	59.9787
22.664	59.9064
22.682	59.8365
22.7	59.7688
22.718	59.7032
22.736	59.6396
22.754	59.5782
22.772	59.5185
22.79	59.4601
22.808	59.4032
22.826	59.3475
22.844	59.2928
22.862	59.2392
22.88	59.1869
22.898	59.1358
22.916	59.0859
22.934	59.0386
22.952	58.9939
22.97	58.9518
22.988	58.9144
23.006	58.8816
23.024	58.8536
23.042	58.833
23.06	58.8198
23.078	58.8139
23.096	58.8174
23.114	58.8302
23.132	58.8523
23.15	58.8844
23.168	58.9271
23.186	58.9797
23.204	59.0417
23.222	59.1136
23.24	59.1946
23.258	59.2826
23.276	59.3785
23.294	59.481
23.312	59.5864
23.33	59.6955
23.348	59.8074
23.366	59.9176
23.384	60.0268
23.402	60.1345
23.42	60.2367
23.438	60.3338
23.456	60.4256
23.474	60.5094
23.492	60.5846
23.51	60.6519
23.528	60.7099
23.546	60.7581
23.564	60.7969
23.582	60.8264
23.6	60.8462
23.618	60.8566
23.636	60.8588
23.654	60.853
23.672	60.839
23.69	60.8183
23.708	60.7918
23.726	60.7588
23.744	60.7208
23.762	60.6792
23.78	60.633
23.798	60.5834
23.816	60.5317
23.834	60.4772
23.852	60.4206
23.87	60.3632
23.888	60.3046
23.906	60.2449
23.924	60.1853
23.942	60.1255
23.96	60.0657
23.978	60.0067
23.996	59.9485
24.014	59.8909
24.032	59.8355
24.05	59.7834
24.068	59.7334
24.086	59.6876
24.104	59.6479
24.122	59.6129
24.14	59.5841
24.158	59.5636
24.176	59.5508
24.194	59.546
24.212	59.5509
24.23	59.566
24.248	59.5906
24.266	59.6251
24.284	59.6699
24.302	59.7249
24.32	59.7892
24.338	59.8621
24.356	59.9446
24.374	60.0351
24.392	60.1309
24.41	60.2331
24.428	60.3412
24.446	60.4521
24.464	60.5649
24.482	60.6813
24.5	60.7973
24.518	60.9098
24.536	61.021
24.554	61.1292
24.572	61.2319
24.59	61.3291
24.608	61.4215
24.626	61.5079
24.644	61.5874
24.662	61.6604
24.68	61.7283
24.698	61.7922
24.716	61.8502
24.734	61.9048
24.752	61.9598
24.77	62.0147
24.788	62.0689
24.806	62.1267
24.824	62.1911
24.842	62.2593
24.86	62.3339
24.878	62.4188
24.896	62.5135
24.914	62.6174
24.932	62.7317
24.95	62.8577
24.968	62.9949
24.986	63.1418
25.004	63.2968
25.022	63.4623
25.04	63.636
25.058	63.8131
25.076	63.9922
25.094	64.1765
25.112	64.36
25.13	64.5368
25.148	64.711
25.166	64.8802
25.184	65.0374
25.202	65.1798
25.22	65.3117
25.238	65.4278
25.256	65.5225
25.274	65.5971
25.292	65.6525
25.31	65.6864
25.328	65.6969
25.346	65.6846
25.364	65.6517
25.382	65.601
25.4	65.5294
25.418	65.4386
25.436	65.3357
25.454	65.2253
25.472	65.1007
25.49	64.9692
25.508	64.8407
25.526	64.7154
25.544	64.5887
25.562	64.4721
25.58	64.3766
25.598	64.2951
25.616	64.2303
25.634	64.1922
25.652	64.1868
25.67	64.2066
25.688	64.2576
25.706	64.3469
25.724	64.4762
25.742	64.642
25.76	64.8455
25.778	65.0881
25.796	65.3733
25.814	65.6962
25.832	66.0492
25.85	66.4292
25.868	66.8452
25.886	67.2845
25.904	67.7322
25.922	68.1882
25.94	68.6612
25.958	69.1319
25.976	69.5811
25.994	70.0185
26.012	70.444
26.03	70.8385
26.048	71.1857
26.066	71.4996
26.084	71.7741
26.102	71.9941
26.12	72.1496
26.138	72.2505
26.156	72.2934
26.174	72.2727
26.192	72.1835
26.21	72.0284
26.228	71.8139
26.246	71.5468
26.264	71.2217
26.282	70.8378
26.3	70.4115
26.318	69.9586
26.336	69.4674
26.354	68.9405
26.372	68.3991
26.39	67.8626
26.408	67.3139
26.426	66.7598
26.444	66.2219
26.462	65.7179
26.48	65.2314
26.498	64.7691
26.516	64.3459
26.534	63.9733
26.552	63.6403
26.57	63.3505
26.588	63.1112
26.606	62.9272
26.624	62.794
26.642	62.7118
26.66	62.6821
26.678	62.7077
26.696	62.7903
26.714	62.9224
26.732	63.0957
26.75	63.308
26.768	63.5678
26.786	63.8639
26.804	64.1838
26.822	64.5242
26.84	64.8985
26.858	65.2897
26.876	65.6789
26.894	66.0596
26.912	66.4497
26.93	66.831
26.948	67.1828
26.966	67.4974
26.984	67.7963
27.002	68.0583
27.02	68.2586
27.028	68.3148