File: Bakgrunnsmateriale/MATLAB/FTIR/ftir_data/subAa/Mapping_121/BZ1503107-1_t37.asc
PE IR       SPECTRUM    SPECTRUM    ASCII       PEDS        1.60
  -1
BZ2567~1.ASC
17/04/07
16:15:08.00
17/04/07
16:15:34.00
tln
$BZ1503107-1_t0037$<tbV0>[5.2,-5.2,8.0,0.0,27,1,0]
27.028
64

2002,4.07
MIRTGS : RIGHTBACK : INTERNAL 2
MIR : ON : INTERNAL 2
OPTKBR

0.200000
8
8.000000
FILLER
RATIO
SPECTRUM
UNLOCKED 256

DOUBLE
64
COMBINED
1
0
0

0.002000
RATIO

1
0
TRUE
51149
0
LEFT NOT FITTED RIGHT NOT FITTED 0
NONE
NONE
15600
12
4.427000
51148
TRUE
1 0 8 72 0 0 0 0

15798

#HDR
-1
-1
#GR
µM
%T
2.38419e-05
0.0
2.000000
0.002000
12515
8
76.7254
38.5127
#DATA
2.000000	 65.5849
2.018000	 64.9184
2.036000	 65.1061
2.054000	 64.3313
2.072000	 64.9321
2.090000	 64.7507
2.108000	 64.9854
2.126000	 65.4651
2.144000	 65.1873
2.162000	 64.7811
2.180000	 64.9531
2.198000	 64.6634
2.216000	 65.364
2.234000	 65.1156
2.252000	 65.0485
2.270000	 62.9149
2.288000	 65.5842
2.306000	 65.0492
2.324000	 65.2648
2.342000	 65.2208
2.360000	 65.0888
2.378000	 65.0826
2.396000	 65.0806
2.414000	 65.2242
2.432000	 65.2189
2.450000	 65.0234
2.468000	 65.2119
2.486000	 65.458
2.504000	 65.185
2.522000	 65.3002
2.540000	 64.941
2.558000	 65.2955
2.576000	 65.0986
2.594000	 65.0532
2.612000	 65.5185
2.630000	 65.2677
2.648000	 65.3133
2.666000	 65.2083
2.684000	 65.3841
2.702000	 65.3103
2.720000	 65.1706
2.738000	 65.272
2.756000	 65.2159
2.774000	 65.2856
2.792000	 65.1011
2.810000	 65.1881
2.828000	 65.0731
2.846000	 65.2824
2.864000	 65.0639
2.882000	 65.1574
2.900000	 65.1061
2.918000	 65.2979
2.936000	 65.2481
2.954000	 65.2003
2.972000	 65.0632
2.990000	 65.2429
3.008000	 65.1196
3.026000	 65.1581
3.044000	 64.9376
3.062000	 65.184
3.080000	 65.2138
3.098000	 64.964
3.116000	 65.0351
3.134000	 64.9426
3.152000	 65.0532
3.170000	 65.17
3.188000	 64.9505
3.206000	 64.9592
3.224000	 65.1822
3.242000	 64.9958
3.260000	 65.1331
3.278000	 65.3014
3.296000	 65.0984
3.314000	 64.9216
3.332000	 65.0776
3.350000	 65.1796
3.368000	 64.9592
3.386000	 65.0716
3.404000	 65.0233
3.422000	 65.1528
3.440000	 65.0385
3.458000	 65.0637
3.476000	 65.137
3.494000	 65.1887
3.512000	 64.8824
3.530000	 65.0374
3.548000	 65.0003
3.566000	 65.1478
3.584000	 65.3085
3.602000	 65.0816
3.620000	 65.0423
3.638000	 65.0774
3.656000	 65.0349
3.674000	 65.2302
3.692000	 65.0481
3.710000	 65.0977
3.728000	 65.0709
3.746000	 65.0632
3.764000	 65.0938
3.782000	 65.0633
3.800000	 65.0769
3.818000	 65.0832
3.836000	 64.9297
3.854000	 65.0502
3.872000	 65.015
3.890000	 65.048
3.908000	 64.9277
3.926000	 64.9264
3.944000	 64.9793
3.962000	 65.0317
3.980000	 65.0688
3.998000	 65.0689
4.016000	 64.9438
4.034000	 64.9504
4.052000	 64.8898
4.070000	 64.9101
4.088000	 64.9039
4.106000	 64.8851
4.124000	 64.7212
4.141999	 64.9178
4.160000	 64.9764
4.178000	 65.0022
4.196000	 64.9459
4.214000	 64.8524
4.232000	 64.9158
4.250000	 65.0275
4.268000	 64.9352
4.286000	 64.938
4.304000	 64.8744
4.322000	 64.9378
4.340000	 64.901
4.358000	 64.8891
4.375999	 64.826
4.394000	 64.8186
4.412000	 64.8447
4.430000	 64.783
4.448000	 64.7963
4.466000	 64.8873
4.484000	 64.9863
4.502000	 64.8888
4.520000	 64.7645
4.538000	 64.9213
4.556000	 64.9056
4.574000	 64.9149
4.592000	 64.902
4.609999	 64.8414
4.628000	 64.8045
4.646000	 64.7467
4.664000	 64.7187
4.682000	 64.8792
4.700000	 64.8205
4.718000	 64.9224
4.736000	 64.9772
4.754000	 64.8757
4.772000	 64.7978
4.790000	 64.7662
4.808000	 64.8322
4.826000	 64.922
4.843999	 64.8423
4.862000	 64.882
4.880000	 64.842
4.898000	 64.811
4.916000	 64.7277
4.934000	 64.8403
4.952000	 64.7541
4.970000	 64.7411
4.988000	 64.8577
5.006000	 64.7897
5.024000	 64.7292
5.042000	 64.7448
5.060000	 64.7629
5.077999	 64.8598
5.096000	 64.7468
5.114000	 64.7474
5.132000	 64.7842
5.150000	 64.7919
5.168000	 64.8637
5.186000	 64.8045
5.204000	 64.7627
5.222000	 64.6667
5.240000	 64.7653
5.258000	 64.7755
5.276000	 64.6492
5.294000	 64.63
5.312000	 64.6481
5.330000	 64.6578
5.348000	 64.7774
5.366000	 64.7008
5.384000	 64.6314
5.402000	 64.7799
5.420000	 64.7633
5.438000	 64.6828
5.456000	 64.6717
5.474000	 64.6917
5.492000	 64.7168
5.510000	 64.6901
5.528000	 64.6213
5.546000	 64.603
5.564000	 64.6087
5.582000	 64.6304
5.600000	 64.6017
5.618000	 64.5955
5.636000	 64.5959
5.654000	 64.4835
5.672000	 64.423
5.690000	 64.469
5.708000	 64.4945
5.726000	 64.4623
5.744000	 64.4123
5.762000	 64.3053
5.780000	 64.3179
5.798000	 64.4026
5.816000	 64.5461
5.834000	 64.5533
5.852000	 64.5416
5.870000	 64.6136
5.888000	 64.5788
5.906000	 64.5545
5.923999	 64.6428
5.942000	 64.6336
5.960000	 64.5854
5.978000	 64.6221
5.996000	 64.5881
6.014000	 64.486
6.032000	 64.3818
6.050000	 64.4014
6.068000	 64.458
6.086000	 64.4461
6.104000	 64.482
6.122000	 64.4774
6.140000	 64.434
6.158000	 64.3636
6.176000	 64.2923
6.194000	 64.307
6.212000	 64.3859
6.230000	 64.4711
6.248000	 64.4773
6.266000	 64.4494
6.284000	 64.4164
6.302000	 64.3624
6.320000	 64.2795
6.338000	 64.2116
6.356000	 64.2183
6.374000	 64.3162
6.392000	 64.434
6.410000	 64.4461
6.428000	 64.3561
6.446000	 64.3298
6.464000	 64.3811
6.482000	 64.406
6.500000	 64.3706
6.518000	 64.3575
6.536000	 64.3663
6.554000	 64.3442
6.572000	 64.3452
6.590000	 64.3941
6.608000	 64.433
6.626000	 64.4614
6.644000	 64.4531
6.662000	 64.3551
6.680000	 64.2503
6.698000	 64.2866
6.716000	 64.398
6.734000	 64.4521
6.752000	 64.4269
6.770000	 64.3616
6.788000	 64.3027
6.806000	 64.2485
6.824000	 64.2277
6.842000	 64.2836
6.860000	 64.3645
6.878000	 64.4087
6.896000	 64.4225
6.914000	 64.4266
6.932000	 64.4337
6.950000	 64.4106
6.968000	 64.2973
6.986000	 64.1669
7.004000	 64.1522
7.022000	 64.2296
7.040000	 64.2876
7.058000	 64.298
7.076000	 64.3181
7.094000	 64.3736
7.112000	 64.392
7.130000	 64.3221
7.148000	 64.2262
7.166000	 64.1671
7.184000	 64.1616
7.202000	 64.2219
7.220000	 64.2949
7.238000	 64.3106
7.256000	 64.2991
7.274000	 64.321
7.292000	 64.3624
7.310000	 64.3549
7.328000	 64.2704
7.346000	 64.1877
7.364000	 64.1814
7.382000	 64.1995
7.400000	 64.1857
7.418000	 64.1793
7.436000	 64.2018
7.454000	 64.2135
7.472000	 64.1984
7.490000	 64.1821
7.508000	 64.1991
7.526000	 64.2523
7.544000	 64.2951
7.562000	 64.2986
7.580000	 64.2925
7.598000	 64.2899
7.616000	 64.2681
7.634000	 64.2492
7.652000	 64.2716
7.670000	 64.2961
7.688000	 64.2646
7.706000	 64.2077
7.724000	 64.1972
7.742000	 64.248
7.760000	 64.3105
7.778000	 64.325
7.796000	 64.2825
7.814000	 64.2316
7.832000	 64.2049
7.850000	 64.1811
7.868000	 64.1441
7.886000	 64.1117
7.904000	 64.0901
7.922000	 64.0646
7.940000	 64.047
7.958000	 64.0681
7.976000	 64.1166
7.994000	 64.1416
8.012000	 64.1316
8.030000	 64.1339
8.048000	 64.1702
8.065999	 64.1969
8.084000	 64.1795
8.102000	 64.1502
8.120000	 64.1469
8.138000	 64.155
8.155999	 64.1541
8.173999	 64.158
8.192000	 64.1792
8.210000	 64.2052
8.228000	 64.2209
8.246000	 64.2174
8.263999	 64.1857
8.282000	 64.1315
8.300000	 64.0762
8.318000	 64.0291
8.336000	 63.9869
8.353999	 63.9602
8.372000	 63.9632
8.390000	 63.9805
8.408000	 63.9828
8.426000	 63.9717
8.443999	 63.9754
8.462000	 64.0009
8.480000	 64.0208
8.498000	 64.0113
8.516000	 63.981
8.533999	 63.9567
8.552000	 63.954
8.570000	 63.9714
8.588000	 63.9973
8.606000	 64.0185
8.624000	 64.0283
8.641999	 64.032
8.660000	 64.0442
8.678000	 64.0729
8.696000	 64.1053
8.714000	 64.1168
8.731999	 64.0929
8.750000	 64.0337
8.768000	 63.9495
8.786000	 63.8606
8.804000	 63.7896
8.821999	 63.7467
8.840000	 63.7289
8.858000	 63.7293
8.876000	 63.7452
8.894000	 63.7818
8.911999	 63.8462
8.930000	 63.9294
8.948000	 64.0039
8.966000	 64.0428
8.984000	 64.0384
9.001999	 64.0054
9.020000	 63.9738
9.038000	 63.9696
9.056000	 63.9868
9.074000	 63.9932
9.092000	 63.9684
9.109999	 63.9293
9.128000	 63.9121
9.146000	 63.9332
9.164000	 63.9744
9.182000	 64.0054
9.199999	 64.0129
9.218000	 64.0065
9.236000	 63.9999
9.254000	 63.9937
9.272000	 63.977
9.289999	 63.9444
9.308000	 63.9078
9.326000	 63.8904
9.344000	 63.9074
9.362000	 63.9521
9.379999	 64.0006
9.398000	 64.0291
9.416000	 64.0284
9.434000	 64.0065
9.452000	 63.9792
9.469999	 63.9604
9.488000	 63.9596
9.506000	 63.979
9.524000	 64.012
9.542000	 64.0439
9.560000	 64.0576
9.577999	 64.0425
9.596000	 64.0007
9.614000	 63.9498
9.632000	 63.9145
9.650000	 63.9122
9.667999	 63.9409
9.686000	 63.9811
9.704000	 64.0105
9.722000	 64.0196
9.740000	 64.0168
9.757999	 64.0192
9.776000	 64.039
9.794000	 64.0744
9.812000	 64.1131
9.830000	 64.1399
9.847999	 64.1462
9.866000	 64.1337
9.884000	 64.1139
9.902000	 64.1004
9.920000	 64.1009
9.937999	 64.1138
9.956000	 64.1303
9.974000	 64.1422
9.992000	 64.1458
10.01	64.1428
10.028	64.1378
10.046	64.1334
10.064	64.1267
10.082	64.1115
10.1	64.0835
10.118	64.0459
10.136	64.011
10.154	63.995
10.172	64.0075
10.19	64.0446
10.208	64.0888
10.226	64.1185
10.244	64.1189
10.262	64.0885
10.28	64.0384
10.298	63.9834
10.316	63.937
10.334	63.9062
10.352	63.8923
10.37	63.8923
10.388	63.8984
10.406	63.9021
10.424	63.8983
10.442	63.8892
10.46	63.8828
10.478	63.8874
10.496	63.9049
10.514	63.9286
10.532	63.9488
10.55	63.9604
10.568	63.9669
10.586	63.9785
10.604	64.004
10.622	64.0445
10.64	64.0921
10.658	64.135
10.676	64.1621
10.694	64.1678
10.712	64.1528
10.73	64.1223
10.748	64.0849
10.766	64.0514
10.784	64.0321
10.802	64.0351
10.82	64.0623
10.838	64.1078
10.856	64.1602
10.874	64.2049
10.892	64.2305
10.91	64.2321
10.928	64.2128
10.946	64.1816
10.964	64.1498
10.982	64.1269
11	64.1163
11.018	64.1152
11.036	64.1165
11.054	64.1127
11.072	64.1004
11.09	64.0837
11.108	64.0717
11.126	64.0743
11.144	64.0945
11.162	64.1259
11.18	64.1551
11.198	64.167
11.216	64.1526
11.234	64.1132
11.252	64.0597
11.27	64.006
11.288	63.9658
11.306	63.9456
11.324	63.9453
11.342	63.9589
11.36	63.9784
11.378	63.995
11.396	64.0022
11.414	63.9967
11.432	63.9796
11.45	63.957
11.468	63.9378
11.486	63.9297
11.504	63.9366
11.522	63.9551
11.54	63.9769
11.558	63.9915
11.576	63.9919
11.594	63.9784
11.612	63.9578
11.63	63.9416
11.648	63.9391
11.666	63.9534
11.684	63.9788
11.702	64.0038
11.72	64.0156
11.738	64.0062
11.756	63.9759
11.774	63.9335
11.792	63.8931
11.81	63.8686
11.828	63.8692
11.846	63.8974
11.864	63.949
11.882	64.0151
11.9	64.0848
11.918	64.1468
11.936	64.1925
11.954	64.2155
11.972	64.2125
11.99	64.1845
12.008	64.1366
12.026	64.0771
12.044	64.0169
12.062	63.9657
12.08	63.929
12.098	63.908
12.116	63.8986
12.134	63.8944
12.152	63.8886
12.17	63.877
12.188	63.8589
12.206	63.8365
12.224	63.814
12.242	63.7959
12.26	63.7855
12.278	63.7854
12.296	63.7967
12.314	63.82
12.332	63.8547
12.35	63.8998
12.368	63.9526
12.386	64.0079
12.404	64.0597
12.422	64.1016
12.44	64.1287
12.458	64.1383
12.476	64.1317
12.494	64.1124
12.512	64.0862
12.53	64.0583
12.548	64.0332
12.566	64.0133
12.584	63.9998
12.602	63.9934
12.62	63.9949
12.638	64.0055
12.656	64.0267
12.674	64.0586
12.692	64.0999
12.71	64.1464
12.728	64.1923
12.746	64.2303
12.764	64.2545
12.782	64.2613
12.8	64.2508
12.818	64.2259
12.836	64.1911
12.854	64.1507
12.872	64.108
12.89	64.064
12.908	64.0189
12.926	63.972
12.944	63.9236
12.962	63.875
12.98	63.8288
12.998	63.7885
13.016	63.758
13.034	63.7402
13.052	63.7366
13.07	63.7463
13.088	63.7668
13.106	63.7931
13.124	63.8191
13.142	63.8378
13.16	63.8429
13.178	63.8296
13.196	63.7955
13.214	63.7416
13.232	63.6726
13.25	63.5967
13.268	63.5234
13.286	63.4627
13.304	63.4226
13.322	63.4077
13.34	63.4186
13.358	63.4519
13.376	63.5013
13.394	63.5593
13.412	63.6187
13.43	63.6735
13.448	63.7193
13.466	63.7543
13.484	63.7775
13.502	63.789
13.52	63.7889
13.538	63.7775
13.556	63.7552
13.574	63.7224
13.592	63.6804
13.61	63.6314
13.628	63.5785
13.646	63.5255
13.664	63.4759
13.682	63.433
13.7	63.3991
13.718	63.3755
13.736	63.3625
13.754	63.3596
13.772	63.3656
13.79	63.379
13.808	63.398
13.826	63.4208
13.844	63.4456
13.862	63.4698
13.88	63.4908
13.898	63.5062
13.916	63.5145
13.934	63.5147
13.952	63.507
13.97	63.493
13.988	63.475
14.006	63.456
14.024	63.439
14.042	63.4261
14.06	63.4183
14.078	63.4154
14.096	63.416
14.114	63.4178
14.132	63.4186
14.15	63.4164
14.168	63.4101
14.186	63.3994
14.204	63.3851
14.222	63.3687
14.24	63.3519
14.258	63.3369
14.276	63.3254
14.294	63.3188
14.312	63.3188
14.33	63.3266
14.348	63.3437
14.366	63.3713
14.384	63.4103
14.402	63.4608
14.42	63.5219
14.438	63.5914
14.456	63.6665
14.474	63.7434
14.492	63.8183
14.51	63.888
14.528	63.9497
14.546	64.0024
14.564	64.0456
14.582	64.0802
14.6	64.1074
14.618	64.1286
14.636	64.1449
14.654	64.1563
14.672	64.1622
14.69	64.1612
14.708	64.1517
14.726	64.1315
14.744	64.099
14.762	64.0538
14.78	63.997
14.798	63.9311
14.816	63.8597
14.834	63.7877
14.852	63.7212
14.87	63.6648
14.888	63.6222
14.906	63.5951
14.924	63.5838
14.942	63.5862
14.96	63.5984
14.978	63.6159
14.996	63.6342
15.014	63.6493
15.032	63.6579
15.05	63.659
15.068	63.653
15.086	63.6413
15.104	63.6265
15.122	63.6118
15.14	63.6006
15.158	63.5953
15.176	63.5976
15.194	63.6084
15.212	63.6269
15.23	63.6516
15.248	63.6801
15.266	63.7101
15.284	63.7383
15.302	63.7623
15.32	63.7806
15.338	63.7926
15.356	63.7987
15.374	63.8002
15.392	63.7994
15.41	63.7987
15.428	63.8014
15.446	63.8108
15.464	63.8287
15.482	63.8564
15.5	63.8942
15.518	63.9407
15.536	63.9939
15.554	64.0515
15.572	64.1104
15.59	64.1678
15.608	64.222
15.626	64.2723
15.644	64.3184
15.662	64.3621
15.68	64.4053
15.698	64.4495
15.716	64.4969
15.734	64.5479
15.752	64.6021
15.77	64.6585
15.788	64.7143
15.806	64.7663
15.824	64.8116
15.842	64.8471
15.86	64.8705
15.878	64.8812
15.896	64.8789
15.914	64.8644
15.932	64.8399
15.95	64.8072
15.968	64.7681
15.986	64.7243
16.004	64.6756
16.022	64.6216
16.04	64.5601
16.058	64.4889
16.076	64.4059
16.094	64.3085
16.112	64.1964
16.13	64.0704
16.148	63.9319
16.166	63.7865
16.184	63.6391
16.202	63.4958
16.22	63.3662
16.238	63.2558
16.256	63.1704
16.274	63.1162
16.292	63.0945
16.31	63.1064
16.328	63.1503
16.346	63.2214
16.364	63.3159
16.382	63.426
16.4	63.5454
16.418	63.6691
16.436	63.7897
16.454	63.9033
16.472	64.007
16.49	64.0983
16.508	64.1774
16.526	64.2447
16.544	64.3022
16.562	64.3516
16.58	64.3946
16.598	64.4337
16.616	64.4696
16.634	64.5031
16.652	64.5345
16.67	64.5627
16.688	64.587
16.706	64.6053
16.724	64.6163
16.742	64.618
16.76	64.6091
16.778	64.5893
16.796	64.5577
16.814	64.5153
16.832	64.4624
16.85	64.4008
16.868	64.333
16.886	64.2606
16.904	64.1878
16.922	64.1163
16.94	64.049
16.958	63.9885
16.976	63.936
16.994	63.8937
17.012	63.8616
17.03	63.8399
17.048	63.8275
17.066	63.8229
17.084	63.8244
17.102	63.8291
17.12	63.8359
17.138	63.8414
17.156	63.8443
17.174	63.8428
17.192	63.8358
17.21	63.8231
17.228	63.8045
17.246	63.7811
17.264	63.7536
17.282	63.7242
17.3	63.6938
17.318	63.664
17.336	63.6359
17.354	63.6099
17.372	63.5868
17.39	63.5665
17.408	63.5494
17.426	63.5346
17.444	63.5218
17.462	63.5102
17.48	63.4995
17.498	63.4894
17.516	63.4804
17.534	63.4727
17.552	63.4676
17.57	63.4655
17.588	63.4683
17.606	63.4764
17.624	63.4909
17.642	63.5123
17.66	63.5409
17.678	63.5759
17.696	63.6169
17.714	63.6623
17.732	63.7105
17.75	63.7598
17.768	63.8077
17.786	63.8533
17.804	63.8943
17.822	63.9304
17.84	63.9607
17.858	63.9857
17.876	64.0055
17.894	64.0219
17.912	64.0356
17.93	64.0496
17.948	64.0645
17.966	64.083
17.984	64.1054
18.002	64.1329
18.02	64.1649
18.038	64.2015
18.056	64.2403
18.074	64.2808
18.092	64.3189
18.11	64.3538
18.128	64.381
18.146	64.3997
18.164	64.4061
18.182	64.3996
18.2	64.3784
18.218	64.3426
18.236	64.2917
18.254	64.2278
18.272	64.1512
18.29	64.0658
18.308	63.972
18.326	63.875
18.344	63.7757
18.362	63.6794
18.38	63.587
18.398	63.5029
18.416	63.4283
18.434	63.3661
18.452	63.317
18.47	63.2824
18.488	63.262
18.506	63.2564
18.524	63.2638
18.542	63.2842
18.56	63.3145
18.578	63.3544
18.596	63.4003
18.614	63.4519
18.632	63.5053
18.65	63.5604
18.668	63.6142
18.686	63.6665
18.704	63.7153
18.722	63.7606
18.74	63.8016
18.758	63.8384
18.776	63.8711
18.794	63.8999
18.812	63.9255
18.83	63.9481
18.848	63.9685
18.866	63.9868
18.884	64.0039
18.902	64.0197
18.92	64.0348
18.938	64.0489
18.956	64.0622
18.974	64.0744
18.992	64.0851
19.01	64.0941
19.028	64.1007
19.046	64.1047
19.064	64.1052
19.082	64.1021
19.1	64.0949
19.118	64.0833
19.136	64.0671
19.154	64.0464
19.172	64.0209
19.19	63.991
19.208	63.9571
19.226	63.9193
19.244	63.8783
19.262	63.8345
19.28	63.7889
19.298	63.7418
19.316	63.6946
19.334	63.6475
19.352	63.6021
19.37	63.5584
19.388	63.5181
19.406	63.4812
19.424	63.449
19.442	63.4217
19.46	63.3995
19.478	63.3826
19.496	63.3709
19.514	63.3645
19.532	63.363
19.55	63.3661
19.568	63.3735
19.586	63.3847
19.604	63.3994
19.622	63.417
19.64	63.4375
19.658	63.4602
19.676	63.4852
19.694	63.5121
19.712	63.5409
19.73	63.5714
19.748	63.6037
19.766	63.637
19.784	63.6716
19.802	63.7066
19.82	63.7418
19.838	63.7765
19.856	63.8097
19.874	63.841
19.892	63.869
19.91	63.8936
19.928	63.9133
19.946	63.9282
19.964	63.9372
19.982	63.9402
20	63.9372
20.018	63.9278
20.036	63.9126
20.054	63.8923
20.072	63.8672
20.09	63.839
20.108	63.8076
20.126	63.7755
20.144	63.7424
20.162	63.7101
20.18	63.6795
20.198	63.6509
20.216	63.6256
20.234	63.6033
20.252	63.5847
20.27	63.5697
20.288	63.5576
20.306	63.5485
20.324	63.5415
20.342	63.536
20.36	63.5317
20.378	63.5274
20.396	63.5234
20.414	63.5188
20.432	63.5138
20.45	63.5084
20.468	63.5025
20.486	63.4968
20.504	63.492
20.522	63.488
20.54	63.4867
20.558	63.4878
20.576	63.4929
20.594	63.5026
20.612	63.517
20.63	63.5372
20.648	63.563
20.666	63.5944
20.684	63.6319
20.702	63.6742
20.72	63.7211
20.738	63.772
20.756	63.825
20.774	63.8806
20.792	63.9362
20.81	63.9917
20.828	64.046
20.846	64.0972
20.864	64.1457
20.882	64.1897
20.9	64.2293
20.918	64.264
20.936	64.293
20.954	64.3167
20.972	64.3352
20.99	64.3483
21.008	64.3565
21.026	64.3599
21.044	64.3587
21.062	64.3535
21.08	64.3442
21.098	64.3309
21.116	64.3138
21.134	64.2928
21.152	64.2678
21.17	64.2388
21.188	64.2053
21.206	64.1672
21.224	64.1245
21.242	64.0767
21.26	64.0238
21.278	63.9659
21.296	63.9029
21.314	63.8353
21.332	63.7636
21.35	63.6875
21.368	63.6086
21.386	63.5269
21.404	63.443
21.422	63.3587
21.44	63.2732
21.458	63.1886
21.476	63.1054
21.494	63.0237
21.512	62.9454
21.53	62.8701
21.548	62.7984
21.566	62.7311
21.584	62.6677
21.602	62.6086
21.62	62.554
21.638	62.5033
21.656	62.4563
21.674	62.4129
21.692	62.3727
21.71	62.3353
21.728	62.3008
21.746	62.2683
21.764	62.2378
21.782	62.2095
21.8	62.1831
21.818	62.1587
21.836	62.1366
21.854	62.1165
21.872	62.0991
21.89	62.0852
21.908	62.0745
21.926	62.068
21.944	62.0666
21.962	62.0698
21.98	62.079
21.998	62.0945
22.016	62.116
22.034	62.1441
22.052	62.1789
22.07	62.2197
22.088	62.2664
22.106	62.3192
22.124	62.3762
22.142	62.4376
22.16	62.5028
22.178	62.5689
22.196	62.6371
22.214	62.7053
22.232	62.7707
22.25	62.8348
22.268	62.8947
22.286	62.9489
22.304	62.9981
22.322	63.0399
22.34	63.074
22.358	63.1005
22.376	63.1184
22.394	63.1276
22.412	63.1288
22.43	63.1224
22.448	63.1078
22.466	63.0871
22.484	63.0614
22.502	63.0298
22.52	62.9956
22.538	62.9597
22.556	62.9215
22.574	62.8853
22.592	62.8511
22.61	62.8194
22.628	62.7938
22.646	62.774
22.664	62.7606
22.682	62.756
22.7	62.7597
22.718	62.772
22.736	62.7935
22.754	62.8242
22.772	62.8633
22.79	62.9104
22.808	62.966
22.826	63.028
22.844	63.0952
22.862	63.1686
22.88	63.2449
22.898	63.3232
22.916	63.4043
22.934	63.4846
22.952	63.5632
22.97	63.6409
22.988	63.7147
23.006	63.7842
23.024	63.8497
23.042	63.9092
23.06	63.9626
23.078	64.0101
23.096	64.0503
23.114	64.0831
23.132	64.1088
23.15	64.1271
23.168	64.1375
23.186	64.1409
23.204	64.1384
23.222	64.1299
23.24	64.1157
23.258	64.0975
23.276	64.0752
23.294	64.0488
23.312	64.0195
23.33	63.987
23.348	63.9516
23.366	63.9138
23.384	63.8736
23.402	63.831
23.42	63.7866
23.438	63.7404
23.456	63.6925
23.474	63.643
23.492	63.592
23.51	63.5395
23.528	63.4864
23.546	63.433
23.564	63.3791
23.582	63.3253
23.6	63.2719
23.618	63.2186
23.636	63.1656
23.654	63.1127
23.672	63.0598
23.69	63.0078
23.708	62.9571
23.726	62.907
23.744	62.8592
23.762	62.8153
23.78	62.7741
23.798	62.7371
23.816	62.7062
23.834	62.6805
23.852	62.6608
23.87	62.6493
23.888	62.6449
23.906	62.6485
23.924	62.6621
23.942	62.6858
23.96	62.7193
23.978	62.7641
23.996	62.8207
24.014	62.8884
24.032	62.9687
24.05	63.0624
24.068	63.1691
24.086	63.2886
24.104	63.4212
24.122	63.5679
24.14	63.7263
24.158	63.8937
24.176	64.0725
24.194	64.2602
24.212	64.4516
24.23	64.6473
24.248	64.8479
24.266	65.0452
24.284	65.2353
24.302	65.4226
24.32	65.6001
24.338	65.7611
24.356	65.9099
24.374	66.0432
24.392	66.1547
24.41	66.2443
24.428	66.3136
24.446	66.3615
24.464	66.3866
24.482	66.3896
24.5	66.373
24.518	66.3383
24.536	66.2817
24.554	66.2099
24.572	66.1317
24.59	66.0418
24.608	65.9436
24.626	65.851
24.644	65.7686
24.662	65.6887
24.68	65.6256
24.698	65.5922
24.716	65.5792
24.734	65.5936
24.752	65.6487
24.77	65.7459
24.788	65.8811
24.806	66.0605
24.824	66.2892
24.842	66.5642
24.86	66.8849
24.878	67.251
24.896	67.6681
24.914	68.1303
24.932	68.6254
24.95	69.1494
24.968	69.7115
24.986	70.2935
25.004	70.8771
25.022	71.4774
25.04	72.0835
25.058	72.6674
25.076	73.2197
25.094	73.7578
25.112	74.2539
25.13	74.6801
25.148	75.0525
25.166	75.3641
25.184	75.5897
25.202	75.7172
25.22	75.7615
25.238	75.7107
25.256	75.5517
25.274	75.2853
25.292	74.9165
25.31	74.4462
25.328	73.8723
25.346	73.191
25.364	72.4164
25.382	71.5641
25.4	70.6209
25.418	69.5929
25.436	68.5121
25.454	67.4002
25.472	66.2277
25.49	65.0252
25.508	63.8349
25.526	62.659
25.544	61.4782
25.562	60.3355
25.58	59.2713
25.598	58.2601
25.616	57.3113
25.634	56.46
25.652	55.7276
25.67	55.0897
25.688	54.5628
25.706	54.1686
25.724	53.9124
25.742	53.7833
25.76	53.7832
25.778	53.9146
25.796	54.1861
25.814	54.5855
25.832	55.0941
25.85	55.7035
25.868	56.435
25.886	57.259
25.904	58.1396
25.922	59.0765
25.94	60.0897
25.958	61.1343
25.976	62.1651
25.994	63.205
26.012	64.2532
26.03	65.2639
26.048	66.1978
26.066	67.0878
26.084	67.9194
26.102	68.6575
26.12	69.279
26.138	69.8091
26.156	70.2351
26.174	70.5383
26.192	70.7092
26.21	70.7589
26.228	70.688
26.246	70.4964
26.264	70.1774
26.282	69.734
26.3	69.1822
26.318	68.5377
26.336	67.7866
26.354	66.9337
26.372	66.005
26.39	65.0239
26.408	63.9682
26.426	62.8483
26.444	61.6938
26.462	60.5289
26.48	59.3302
26.498	58.1086
26.516	56.8876
26.534	55.6838
26.552	54.4774
26.57	53.2798
26.588	52.1089
26.606	50.9762
26.624	49.8671
26.642	48.7897
26.66	47.7555
26.678	46.7705
26.696	45.8252
26.714	44.9256
26.732	44.0799
26.75	43.2919
26.768	42.5553
26.786	41.8735
26.804	41.2507
26.822	40.6875
26.84	40.1786
26.858	39.7307
26.876	39.3513
26.894	39.0422
26.912	38.795
26.93	38.6191
26.948	38.525
26.966	38.5407
26.984	38.691
27.002	38.895
27.02	39.0662
27.028	39.1054