File: Bakgrunnsmateriale/MATLAB/FTIR/ftir_data/subAa/Mapping_121/BZ1503107-1_t15_cm-1.asc
PE IR       SPECTRUM    SPECTRUM    ASCII       PEDS        1.60
  -1
BZ6DA1~1.ASC
17/04/07
14:25:45.00
17/04/07
14:25:45.00
tln
$BZ1503107-1_t0015$<tbV0>[5.2,-10.4,8.0,0.0,27,1,0]
370
64

2002,4.07
MIRTGS : RIGHTBACK : INTERNAL 2
MIR : ON : INTERNAL 2
OPTKBR

0.200000
8
8.000000
FILLER
RATIO
SPECTRUM
UNLOCKED 256

DOUBLE
64
COMBINED
1
0
0

1.000000
RATIO

1
0
TRUE
51149
0
LEFT NOT FITTED RIGHT NOT FITTED 0
NONE
NONE
15600
12
4.427000
51148
TRUE
1 0 8 72 0 0 0 0

15798

#HDR
-1
-1
#GR
CM-1
%T
2.38419e-05
0.0
5000
-1.000000
4631
8
88.6363
56.5448
#DATA
5000	64.6437
4996	64.1875
4992	62.9454
4988	61.7518
4984	61.9673
4980	62.7949
4976	63.378
4972	64.1347
4968	64.3246
4964	63.6589
4960	62.9374
4956	63.1725
4952	64.4135
4948	65.2026
4944	65.3785
4940	65.2991
4936	65.3024
4932	65.6558
4928	65.9578
4924	65.5321
4920	64.2952
4916	63.7885
4912	64.5024
4908	65.0053
4904	64.6479
4900	64.051
4896	63.9565
4892	64.2739
4888	64.5199
4884	64.6815
4880	64.6637
4876	64.4693
4872	64.5698
4868	65.105
4864	65.7077
4860	65.9036
4856	65.5933
4852	65.3785
4848	65.6275
4844	65.8181
4840	65.6525
4836	65.4472
4832	65.1711
4828	64.9814
4824	64.9416
4820	64.8805
4816	65.3338
4812	65.6617
4808	65.3253
4804	65.6851
4800	66.4059
4796	66.1339
4792	65.6341
4788	65.6548
4784	65.5399
4780	65.1708
4776	65.3429
4772	65.5709
4768	65.0285
4764	64.9044
4760	65.6479
4756	65.8687
4752	65.4641
4748	65.1507
4744	64.9735
4740	64.8406
4736	64.8659
4732	64.9992
4728	64.8765
4724	64.4891
4720	64.136
4716	64.3343
4712	64.6947
4708	64.4631
4704	64.3107
4700	64.6168
4696	64.7566
4692	64.7738
4688	64.9573
4684	65.0407
4680	65.021
4676	65.0213
4672	64.9174
4668	64.8193
4664	64.7921
4660	64.7406
4656	64.7723
4652	64.9431
4648	65.1316
4644	65.1918
4640	65.1377
4636	64.9962
4632	64.7913
4628	64.7125
4624	64.761
4620	64.7583
4616	64.7365
4612	64.6506
4608	64.5681
4604	64.6718
4600	64.6709
4596	64.454
4592	64.4221
4588	64.6535
4584	64.6899
4580	64.4615
4576	64.3776
4572	64.3155
4568	64.0577
4564	63.8023
4560	63.6939
4556	63.7189
4552	63.7513
4548	63.8111
4544	64.0138
4540	64.0993
4536	64.0838
4532	64.0436
4528	63.8671
4524	63.6139
4520	63.4588
4516	63.4167
4512	63.584
4508	63.9532
4504	64.2542
4500	64.7201
4496	65.6996
4492	66.9845
4488	67.0556
4484	67.4189
4480	68.6088
4476	67.3175
4472	64.6619
4468	62.9308
4464	62.3074
4460	62.3934
4456	62.2551
4452	62.8527
4448	58.6309
4444	58.819
4440	77.6084
4436	88.6363
4432	80.7652
4428	71.5479
4424	65.5333
4420	63.8345
4416	64.0744
4412	64.2198
4408	64.5187
4404	64.2742
4400	63.8394
4396	63.5704
4392	63.5046
4388	63.6325
4384	63.9511
4380	64.1751
4376	64.1262
4372	64.1487
4368	64.3748
4364	64.3951
4360	64.341
4356	64.3165
4352	64.2279
4348	64.2818
4344	64.4546
4340	64.5248
4336	64.407
4332	64.2514
4328	64.2716
4324	64.2499
4320	64.0189
4316	64.0762
4312	64.5161
4308	64.7877
4304	64.7854
4300	64.6846
4296	64.5533
4292	64.4794
4288	64.5591
4284	64.7378
4280	64.7881
4276	64.7233
4272	64.662
4268	64.6173
4264	64.6886
4260	64.7721
4256	64.7275
4252	64.6909
4248	64.6862
4244	64.6867
4240	64.8607
4236	65.1607
4232	65.3399
4228	65.2971
4224	65.1349
4220	65.0715
4216	65.0728
4212	65.0652
4208	65.0689
4204	65.0885
4200	65.2007
4196	65.1597
4192	64.9966
4188	65.1478
4184	65.4116
4180	65.5254
4176	65.5924
4172	65.479
4168	65.1842
4164	65.0427
4160	65.1886
4156	65.477
4152	65.5333
4148	65.1864
4144	64.949
4140	65.0636
4136	65.1376
4132	65.1289
4128	65.2152
4124	65.3062
4120	65.3062
4116	65.2506
4112	65.2601
4108	65.2917
4104	65.1942
4100	65.1121
4096	65.1309
4092	65.1707
4088	65.2226
4084	65.2358
4080	65.228
4076	65.2461
4072	65.2859
4068	65.3489
4064	65.4789
4060	65.6089
4056	65.6092
4052	65.4943
4048	65.2921
4044	65.1587
4040	65.2009
4036	65.3339
4032	65.4892
4028	65.5014
4024	65.3659
4020	65.2648
4016	65.2058
4012	65.1792
4008	65.132
4004	65.0322
4000	65.0269
3996	65.0183
3992	64.9138
3988	64.9275
3984	65.1031
3980	65.207
3976	65.1881
3972	65.2459
3968	65.3253
3964	65.2594
3960	65.0813
3956	64.9592
3952	64.9722
3948	65.0133
3944	65.1078
3940	65.2563
3936	65.2279
3932	65.0393
3928	64.9079
3924	64.8555
3920	64.9695
3916	65.1495
3912	65.1315
3908	65.026
3904	64.959
3900	65.0051
3896	65.1201
3892	65.1263
3888	65.1444
3884	65.2892
3880	65.3796
3876	65.273
3872	65.1399
3868	65.086
3864	64.9539
3860	64.8623
3856	65.0072
3852	65.1548
3848	65.1392
3844	65.092
3840	65.1489
3836	65.3104
3832	65.3457
3828	65.2681
3824	65.2985
3820	65.3956
3816	65.4182
3812	65.372
3808	65.3669
3804	65.3981
3800	65.2651
3796	65.0045
3792	64.9325
3788	65.0092
3784	65.076
3780	65.1394
3776	65.1386
3772	65.1762
3768	65.3152
3764	65.3478
3760	65.3111
3756	65.3968
3752	65.5556
3748	65.6518
3744	65.6003
3740	65.5066
3736	65.4389
3732	65.2543
3728	65.1461
3724	65.3054
3720	65.4011
3716	65.2809
3712	65.2092
3708	65.244
3704	65.2779
3700	65.2968
3696	65.3769
3692	65.5228
3688	65.565
3684	65.467
3680	65.4295
3676	65.57
3672	65.6369
3668	65.4733
3664	65.306
3660	65.2461
3656	65.234
3652	65.273
3648	65.3433
3644	65.3751
3640	65.3592
3636	65.3285
3632	65.3241
3628	65.3722
3624	65.4335
3620	65.4116
3616	65.3486
3612	65.33
3608	65.3137
3604	65.3403
3600	65.3537
3596	65.2827
3592	65.2853
3588	65.3325
3584	65.334
3580	65.3239
3576	65.3062
3572	65.302
3568	65.2768
3564	65.2165
3560	65.1478
3556	65.1224
3552	65.1533
3548	65.1963
3544	65.237
3540	65.2441
3536	65.216
3532	65.1857
3528	65.1724
3524	65.1838
3520	65.2144
3516	65.1716
3512	65.0969
3508	65.0607
3504	65.0238
3500	65.0359
3496	65.0468
3492	65.0335
3488	65.1652
3484	65.3221
3480	65.2877
3476	65.1774
3472	65.0117
3468	64.8417
3464	64.8184
3460	64.8857
3456	65.0243
3452	65.1651
3448	65.1401
3444	65.0233
3440	64.9908
3436	65.0424
3432	65.1196
3428	65.1798
3424	65.1651
3420	65.134
3416	65.1795
3412	65.213
3408	65.1582
3404	65.1218
3400	65.1366
3396	65.1408
3392	65.1326
3388	65.1144
3384	65.1705
3380	65.2341
3376	65.1342
3372	65.0318
3368	65.0619
3364	65.1629
3360	65.2556
3356	65.278
3352	65.2926
3348	65.3187
3344	65.323
3340	65.3002
3336	65.2957
3332	65.3648
3328	65.4244
3324	65.4211
3320	65.3929
3316	65.3287
3312	65.2518
3308	65.1975
3304	65.1935
3300	65.2054
3296	65.1794
3292	65.2013
3288	65.2016
3284	65.1377
3280	65.1202
3276	65.1077
3272	65.1393
3268	65.2131
3264	65.2617
3260	65.2974
3256	65.3223
3252	65.2869
3248	65.1899
3244	65.1499
3240	65.1464
3236	65.1512
3232	65.1467
3228	65.096
3224	65.1134
3220	65.2158
3216	65.2863
3212	65.3208
3208	65.3408
3204	65.2734
3200	65.2318
3196	65.3243
3192	65.3245
3188	65.1731
3184	65.0976
3180	65.1836
3176	65.2985
3172	65.328
3168	65.3382
3164	65.3529
3160	65.334
3156	65.2941
3152	65.2431
3148	65.209
3144	65.1421
3140	65.0846
3136	65.1159
3132	65.0644
3128	64.9451
3124	64.9873
3120	65.0682
3116	65.0461
3112	65.0194
3108	64.9988
3104	65.023
3100	65.1543
3096	65.2637
3092	65.2403
3088	65.141
3084	65.1237
3080	65.1836
3076	65.1711
3072	65.1099
3068	65.0385
3064	64.9954
3060	65.0369
3056	65.0997
3052	65.1531
3048	65.1845
3044	65.2165
3040	65.289
3036	65.2931
3032	65.2271
3028	65.2215
3024	65.204
3020	65.167
3016	65.2039
3012	65.2414
3008	65.2786
3004	65.308
3000	65.277
2996	65.2233
2992	65.1357
2988	65.0519
2984	65.0767
2980	65.1352
2976	65.0815
2972	64.9997
2968	64.9994
2964	65.0403
2960	65.0901
2956	65.1247
2952	65.134
2948	65.1257
2944	65.1155
2940	65.0841
2936	65.0348
2932	65.0542
2928	65.0828
2924	65.0036
2920	64.9336
2916	64.9529
2912	64.9882
2908	65.0328
2904	65.0514
2900	65.0261
2896	65.0264
2892	65.0767
2888	65.0721
2884	64.9578
2880	64.9306
2876	65.0475
2872	65.1308
2868	65.1407
2864	65.0818
2860	65.0274
2856	65.05
2852	65.0646
2848	65.0719
2844	65.1144
2840	65.1757
2836	65.1769
2832	65.1238
2828	65.1272
2824	65.1364
2820	65.1167
2816	65.1307
2812	65.1431
2808	65.1403
2804	65.1612
2800	65.1434
2796	65.1018
2792	65.1418
2788	65.2183
2784	65.2386
2780	65.2184
2776	65.1817
2772	65.1047
2768	65.0611
2764	65.0879
2760	65.088
2756	65.0928
2752	65.1274
2748	65.1422
2744	65.1206
2740	65.0816
2736	65.0826
2732	65.0721
2728	65.0605
2724	65.111
2720	65.1312
2716	65.1051
2712	65.0826
2708	65.0813
2704	65.1454
2700	65.2104
2696	65.1841
2692	65.1261
2688	65.1122
2684	65.104
2680	65.0888
2676	65.0704
2672	65.0146
2668	64.9945
2664	65.0172
2660	65.0296
2656	65.0488
2652	65.0244
2648	64.9739
2644	64.9596
2640	64.9648
2636	64.9726
2632	64.9644
2628	65.0031
2624	65.1214
2620	65.1697
2616	65.1239
2612	65.0768
2608	65.0155
2604	64.9821
2600	65.0412
2596	65.1074
2592	65.1038
2588	65.0894
2584	65.0941
2580	65.0957
2576	65.1015
2572	65.0765
2568	65.0441
2564	65.0798
2560	65.1663
2556	65.2378
2552	65.2226
2548	65.1599
2544	65.1501
2540	65.1311
2536	65.07
2532	65.0827
2528	65.144
2524	65.136
2520	65.0881
2516	65.0688
2512	65.0702
2508	65.0078
2504	64.9183
2500	64.952
2496	65.0414
2492	65.1503
2488	65.2591
2484	65.2003
2480	65.0921
2476	65.1097
2472	65.1434
2468	65.1085
2464	65.0441
2460	65.0079
2456	65.0153
2452	65.0204
2448	65.0202
2444	65.0066
2440	64.9847
2436	65.0139
2432	65.0713
2428	65.0977
2424	65.0714
2420	65.0347
2416	65.0266
2412	65.0276
2408	65.0486
2404	65.0816
2400	65.1056
2396	65.1303
2392	65.1191
2388	65.0631
2384	65.0327
2380	65.0597
2376	65.0853
2372	65.0623
2368	65.0438
2364	65.067
2360	65.0846
2356	65.065
2352	65.0555
2348	65.0695
2344	65.0605
2340	65.0622
2336	65.0909
2332	65.0774
2328	65.0552
2324	65.0416
2320	64.9725
2316	64.9192
2312	64.9333
2308	64.9303
2304	64.89
2300	64.8908
2296	64.9461
2292	65.0101
2288	65.0357
2284	64.9813
2280	64.9228
2276	64.9054
2272	64.8996
2268	64.9367
2264	65.0061
2260	65.0582
2256	65.0626
2252	65.0545
2248	65.0572
2244	65.0367
2240	65.0036
2236	64.947
2232	64.8997
2228	64.9214
2224	64.9412
2220	64.9581
2216	64.9927
2212	64.9537
2208	64.8828
2204	64.8813
2200	64.9564
2196	65.0341
2192	65.0311
2188	64.9584
2184	64.9065
2180	64.907
2176	64.9081
2172	64.9253
2168	64.989
2164	64.9968
2160	64.848
2156	64.6917
2152	64.6596
2148	64.7374
2144	64.8763
2140	64.9482
2136	64.9654
2132	64.9718
2128	64.9454
2124	64.9648
2120	65.0335
2116	65.0386
2112	65.0083
2108	64.995
2104	64.9731
2100	64.9373
2096	64.8856
2092	64.9009
2088	64.9545
2084	64.9547
2080	64.9673
2076	64.9624
2072	64.9238
2068	64.8969
2064	64.8536
2060	64.8381
2056	64.8466
2052	64.9021
2048	65.0164
2044	65.0346
2040	64.9667
2036	64.9163
2032	64.8913
2028	64.9097
2024	64.9458
2020	64.9402
2016	64.9303
2012	64.9356
2008	64.904
2004	64.8794
2000	64.8885
1996	64.8862
1992	64.8924
1988	64.9163
1984	64.928
1980	64.908
1976	64.8739
1972	64.8877
1968	64.9562
1964	65.0103
1960	64.9917
1956	64.9359
1952	64.8976
1948	64.8728
1944	64.8721
1940	64.8636
1936	64.8304
1932	64.8147
1928	64.8338
1924	64.8765
1920	64.8889
1916	64.8634
1912	64.8673
1908	64.8583
1904	64.7767
1900	64.744
1896	64.8483
1892	64.972
1888	64.9795
1884	64.9043
1880	64.8489
1876	64.8299
1872	64.812
1868	64.8159
1864	64.8803
1860	64.9569
1856	64.99
1852	64.9708
1848	64.926
1844	64.8942
1840	64.8812
1836	64.8837
1832	64.8849
1828	64.8456
1824	64.7854
1820	64.7593
1816	64.7797
1812	64.8101
1808	64.8077
1804	64.8113
1800	64.8853
1796	64.9709
1792	64.9441
1788	64.8215
1784	64.7092
1780	64.678
1776	64.7435
1772	64.8249
1768	64.8315
1764	64.782
1760	64.7362
1756	64.7023
1752	64.6764
1748	64.657
1744	64.608
1740	64.5748
1736	64.5917
1732	64.5472
1728	64.4927
1724	64.5453
1720	64.6681
1716	64.7511
1712	64.7156
1708	64.6702
1704	64.7501
1700	64.8489
1696	64.7781
1692	64.674
1688	64.7103
1684	64.7399
1680	64.6943
1676	64.6725
1672	64.7026
1668	64.7499
1664	64.7822
1660	64.8069
1656	64.8449
1652	64.8168
1648	64.7056
1644	64.6546
1640	64.713
1636	64.776
1632	64.7981
1628	64.8288
1624	64.8519
1620	64.8369
1616	64.7468
1612	64.6375
1608	64.6427
1604	64.6909
1600	64.6571
1596	64.6244
1592	64.6545
1588	64.6516
1584	64.6663
1580	64.7816
1576	64.8245
1572	64.7136
1568	64.6144
1564	64.6417
1560	64.7452
1556	64.7339
1552	64.6305
1548	64.6234
1544	64.6864
1540	64.721
1536	64.703
1532	64.6646
1528	64.6761
1524	64.7035
1520	64.6943
1516	64.7027
1512	64.7696
1508	64.8212
1504	64.782
1500	64.812
1496	64.9168
1492	64.7907
1488	64.6058
1484	64.5821
1480	64.6058
1476	64.638
1472	64.665
1468	64.6694
1464	64.6429
1460	64.64
1456	64.5914
1452	64.4775
1448	64.4782
1444	64.5217
1440	64.559
1436	64.6165
1432	64.5505
1428	64.423
1424	64.416
1420	64.4813
1416	64.4841
1412	64.4313
1408	64.431
1404	64.5173
1400	64.5931
1396	64.5928
1392	64.5573
1388	64.5201
1384	64.4808
1380	64.4533
1376	64.4184
1372	64.4159
1368	64.5167
1364	64.5852
1360	64.5587
1356	64.5481
1352	64.5588
1348	64.5618
1344	64.5514
1340	64.5101
1336	64.4432
1332	64.3927
1328	64.3902
1324	64.4092
1320	64.4193
1316	64.4216
1312	64.4239
1308	64.3696
1304	64.2874
1300	64.3061
1296	64.3661
1292	64.3862
1288	64.3881
1284	64.3388
1280	64.2624
1276	64.2575
1272	64.2929
1268	64.2852
1264	64.2945
1260	64.3472
1256	64.34
1252	64.2987
1248	64.287
1244	64.286
1240	64.3156
1236	64.3299
1232	64.276
1228	64.2588
1224	64.3114
1220	64.3395
1216	64.331
1212	64.3133
1208	64.3094
1204	64.3367
1200	64.4007
1196	64.4468
1192	64.4083
1188	64.3172
1184	64.2296
1180	64.189
1176	64.2172
1172	64.2644
1168	64.2336
1164	64.1985
1160	64.2605
1156	64.3049
1152	64.2688
1148	64.2188
1144	64.1757
1140	64.16
1136	64.1917
1132	64.2462
1128	64.2606
1124	64.247
1120	64.2981
1116	64.3801
1112	64.3986
1108	64.2697
1104	64.1329
1100	64.1938
1096	64.3749
1092	64.5223
1088	64.4923
1084	64.395
1080	64.344
1076	64.223
1072	64.134
1068	64.1169
1064	64.0825
1060	64.1098
1056	64.2116
1052	64.2422
1048	64.1567
1044	64.0562
1040	64.0652
1036	64.175
1032	64.2392
1028	64.2129
1024	64.1663
1020	64.1643
1016	64.2056
1012	64.206
1008	64.1012
1004	64.0356
1000	64.1409
996	 64.3001
992	 64.3546
988	 64.3087
984	 64.3216
980	 64.409
976	 64.3901
972	 64.2731
968	 64.2207
964	 64.2596
960	 64.2952
956	 64.2373
952	 64.1935
948	 64.2671
944	 64.3387
940	 64.311
936	 64.2645
932	 64.2313
928	 64.2092
924	 64.2358
920	 64.2845
916	 64.2962
912	 64.1897
908	 64.0945
904	 64.1683
900	 64.258
896	 64.2499
892	 64.2197
888	 64.1273
884	 63.9672
880	 63.9495
876	 64.0797
872	 64.1601
868	 64.1677
864	 64.1457
860	 64.1554
856	 64.2552
852	 64.3845
848	 64.4779
844	 64.444
840	 64.2639
836	 64.1
832	 63.9677
828	 63.8604
824	 63.9041
820	 64.05
816	 64.1666
812	 64.2276
808	 64.1873
804	 64.02
800	 63.9364
796	 64.0416
792	 64.1068
788	 64.1572
784	 64.3139
780	 64.3866
776	 64.2946
772	 64.1459
768	 64.0521
764	 64.1178
760	 64.19
756	 64.2086
752	 64.2664
748	 64.1827
744	 64.0146
740	 64.0112
736	 64.0531
732	 64.0547
728	 64.1554
724	 64.2894
720	 64.3041
716	 64.2117
712	 64.0849
708	 64.0154
704	 64.0398
700	 64.0946
696	 64.0374
692	 63.9679
688	 64.0401
684	 64.066
680	 64.0134
676	 63.9895
672	 63.9627
668	 63.8282
664	 63.7548
660	 63.8843
656	 63.8741
652	 63.7752
648	 63.9231
644	 64.1173
640	 64.114
636	 63.894
632	 63.6262
628	 63.6875
624	 63.9159
620	 64.0987
616	 64.348
612	 64.3436
608	 63.9681
604	 63.8789
600	 64.2154
596	 64.4353
592	 64.3329
588	 63.9955
584	 63.7349
580	 63.8133
576	 63.884
572	 63.5393
568	 63.2592
564	 63.5341
560	 63.9146
556	 63.9405
552	 63.8829
548	 64.1702
544	 64.5298
540	 64.4564
536	 63.7725
532	 63.0157
528	 63.0988
524	 64.0916
520	 64.917
516	 64.9949
512	 64.7541
508	 64.3258
504	 63.5208
500	 62.8273
496	 62.9553
492	 63.7923
488	 63.8049
484	 62.6879
480	 62.7128
476	 64.0029
472	 64.2904
468	 63.8906
464	 64.4072
460	 64.7327
456	 63.5412
452	 62.6114
448	 62.8607
444	 62.8382
440	 62.548
436	 63.2198
432	 64.1316
428	 64.4032
424	 64.5278
420	 63.759
416	 61.8853
412	 62.3142
408	 65.6626
404	 66.8342
400	 67.7626
396	 70.3501
392	 66.9973
388	 59.8071
384	 61.6333
380	 63.8942
376	 75.2953
372	 59.8484
370	 73.6676