File: Bakgrunnsmateriale/MATLAB/FTIR/ftir_data/subAa/Mapping_121/BZ1503107-1_t28_cm-1.asc
PE IR       SPECTRUM    SPECTRUM    ASCII       PEDS        1.60
  -1
BZ6033~1.ASC
17/04/07
15:32:57.00
17/04/07
15:32:57.00
tln
$BZ1503107-1_t0028$<tbV0>[0.0,-7.8,8.0,0.0,27,1,0]
370
64

2002,4.07
MIRTGS : RIGHTBACK : INTERNAL 2
MIR : ON : INTERNAL 2
OPTKBR

0.200000
8
8.000000
FILLER
RATIO
SPECTRUM
UNLOCKED 256

DOUBLE
64
COMBINED
1
0
0

1.000000
RATIO

1
0
TRUE
51149
0
LEFT NOT FITTED RIGHT NOT FITTED 0
NONE
NONE
15600
12
4.427000
51148
TRUE
1 0 8 72 0 0 0 0

15798

#HDR
-1
-1
#GR
CM-1
%T
2.38419e-05
0.0
5000
-1.000000
4631
8
76.5192
54.583
#DATA
5000	65.5046
4996	65.1641
4992	64.8015
4988	64.7707
4984	64.9658
4980	64.9589
4976	64.7534
4972	64.635
4968	64.6512
4964	64.8133
4960	64.7269
4956	64.3851
4952	64.3014
4948	64.433
4944	64.6998
4940	64.8889
4936	64.4835
4932	64.1081
4928	64.4929
4924	64.9229
4920	64.9981
4916	65.0044
4912	64.9502
4908	64.7378
4904	64.5289
4900	64.5988
4896	64.7683
4892	64.9812
4888	65.1399
4884	65.007
4880	64.9173
4876	65.011
4872	65.0806
4868	65.0182
4864	64.8529
4860	64.8162
4856	64.8961
4852	64.7727
4848	64.5524
4844	64.5581
4840	64.6759
4836	64.7081
4832	64.6779
4828	64.6522
4824	64.7549
4820	65.0028
4816	65.1066
4812	64.9275
4808	64.6069
4804	64.4585
4800	64.4978
4796	64.5138
4792	64.5682
4788	64.5694
4784	64.5395
4780	64.5378
4776	64.4847
4772	64.4174
4768	64.454
4764	64.782
4760	65.1762
4756	65.2739
4752	65.2086
4748	65.1502
4744	65.0317
4740	64.9655
4736	64.9933
4732	65.0269
4728	65.0418
4724	64.9445
4720	64.9047
4716	65.0532
4712	65.3939
4708	65.6666
4704	65.2999
4700	64.7667
4696	64.8951
4692	65.1778
4688	65.0877
4684	65.0242
4680	65.0491
4676	64.9539
4672	64.8652
4668	64.8761
4664	64.9764
4660	65.0568
4656	64.9676
4652	64.8903
4648	65.0546
4644	65.1523
4640	64.9062
4636	64.6437
4632	64.5711
4628	64.5726
4624	64.6232
4620	64.762
4616	64.8898
4612	64.92
4608	64.957
4604	64.8681
4600	64.6449
4596	64.651
4592	64.8623
4588	64.8926
4584	64.8515
4580	64.9608
4576	64.9049
4572	64.7242
4568	64.7062
4564	64.7469
4560	64.6197
4556	64.3851
4552	64.4557
4548	64.7207
4544	64.847
4540	64.8462
4536	64.8557
4532	65.0202
4528	65.1226
4524	64.9917
4520	65.0361
4516	65.4839
4512	65.5829
4508	65.0813
4504	64.6404
4500	64.4015
4496	64.3411
4492	64.5159
4488	64.6678
4484	64.6651
4480	64.4348
4476	64.0459
4472	64.1012
4468	64.3109
4464	64.296
4460	64.5542
4456	64.588
4452	64.2474
4448	64.4165
4444	64.6105
4440	65.7029
4436	67.6586
4432	70.5401
4428	76.0747
4424	71.4978
4420	57.338
4416	56.0403
4412	63.6428
4408	67.7825
4404	67.3648
4400	65.979
4396	64.8384
4392	64.0048
4388	64.1844
4384	64.9054
4380	65.2763
4376	65.0905
4372	64.8091
4368	64.7447
4364	64.5356
4360	64.3818
4356	64.4577
4352	64.6237
4348	64.797
4344	64.7573
4340	64.6725
4336	64.6563
4332	64.5789
4328	64.514
4324	64.4826
4320	64.5533
4316	64.7648
4312	64.9484
4308	65.0004
4304	64.9315
4300	64.8044
4296	64.8596
4292	65.0517
4288	65.1639
4284	65.137
4280	64.9979
4276	64.9183
4272	64.8057
4268	64.6618
4264	64.7542
4260	64.9468
4256	64.8733
4252	64.6258
4248	64.5259
4244	64.6457
4240	64.806
4236	64.8923
4232	64.9986
4228	65.0223
4224	64.9904
4220	65.0578
4216	65.0335
4212	64.8737
4208	64.9027
4204	65.0599
4200	65.1119
4196	65.2349
4192	65.1848
4188	64.8168
4184	64.7541
4180	64.9566
4176	64.9116
4172	64.7122
4168	64.786
4164	65.0202
4160	64.9824
4156	64.9103
4152	65.0581
4148	65.2572
4144	65.3642
4140	65.2525
4136	65.0237
4132	64.9331
4128	64.9151
4124	64.9179
4120	65.1049
4116	65.2653
4112	65.2232
4108	65.1294
4104	65.046
4100	65.0503
4096	65.1679
4092	65.2389
4088	65.1838
4084	65.0562
4080	64.9661
4076	64.9494
4072	64.9335
4068	64.9091
4064	64.8916
4060	64.8562
4056	64.8023
4052	64.7512
4048	64.7516
4044	64.8718
4040	65.049
4036	65.0734
4032	64.9677
4028	64.9688
4024	65.0689
4020	65.0689
4016	64.9706
4012	65.0438
4008	65.2684
4004	65.2618
4000	65.1599
3996	65.177
3992	65.09
3988	64.9465
3984	64.8756
3980	64.9101
3976	65.0895
3972	65.2158
3968	65.227
3964	65.2356
3960	65.1633
3956	65.0851
3952	65.1326
3948	65.1224
3944	65.0111
3940	65.0206
3936	65.1144
3932	65.1392
3928	65.1799
3924	65.1821
3920	65.078
3916	65.1195
3912	65.237
3908	65.2617
3904	65.293
3900	65.2245
3896	65.1385
3892	65.1333
3888	64.9871
3884	64.8289
3880	64.9487
3876	65.1318
3872	65.1986
3868	65.239
3864	65.1789
3860	65.0949
3856	65.1008
3852	65.1113
3848	65.131
3844	65.198
3840	65.2623
3836	65.2635
3832	65.1976
3828	65.1556
3824	65.1275
3820	65.0743
3816	65.1069
3812	65.1137
3808	65.0505
3804	65.1818
3800	65.4285
3796	65.413
3792	65.1937
3788	65.0532
3784	65.0545
3780	65.1433
3776	65.1389
3772	65.1351
3768	65.2035
3764	65.1962
3760	65.2761
3756	65.3558
3752	65.2148
3748	65.1053
3744	65.134
3740	65.1147
3736	65.0692
3732	65.0756
3728	65.1274
3724	65.2256
3720	65.3114
3716	65.3128
3712	65.2164
3708	65.124
3704	65.1859
3700	65.3063
3696	65.2672
3692	65.1201
3688	65.0334
3684	65.0556
3680	65.105
3676	65.0888
3672	65.0809
3668	65.2227
3664	65.3121
3660	65.1946
3656	65.1571
3652	65.2256
3648	65.1775
3644	65.1096
3640	65.066
3636	64.9852
3632	64.9976
3628	65.0288
3624	65.0439
3620	65.1216
3616	65.1662
3612	65.1922
3608	65.2201
3604	65.1813
3600	65.082
3596	65.0492
3592	65.1449
3588	65.1819
3584	65.0402
3580	64.9059
3576	64.903
3572	64.9411
3568	64.9631
3564	64.9683
3560	65.014
3556	65.0968
3552	65.0945
3548	65.0216
3544	65.0048
3540	65.063
3536	65.0982
3532	65.0653
3528	65.0178
3524	65.0152
3520	65.0676
3516	65.1339
3512	65.1559
3508	65.1315
3504	65.0996
3500	65.0476
3496	65.0135
3492	65.0402
3488	65.058
3484	65.044
3480	65.0827
3476	65.1302
3472	65.0756
3468	64.9639
3464	64.8388
3460	64.8427
3456	65.0341
3452	65.1592
3448	65.1196
3444	65.0463
3440	65.0438
3436	65.0867
3432	65.0933
3428	65.1024
3424	65.1408
3420	65.1127
3416	65.0422
3412	65.0597
3408	65.1167
3404	65.1455
3400	65.1552
3396	65.1666
3392	65.1739
3388	65.1336
3384	65.1177
3380	65.0676
3376	64.9705
3372	65.0067
3368	65.0902
3364	65.1602
3360	65.3169
3356	65.4442
3352	65.3612
3348	65.1973
3344	65.2117
3340	65.3367
3336	65.3352
3332	65.2285
3328	65.2113
3324	65.2275
3320	65.1045
3316	64.9633
3312	64.9889
3308	65.1169
3304	65.1565
3300	65.1447
3296	65.1603
3292	65.0795
3288	64.9351
3284	64.9191
3280	65.0607
3276	65.2161
3272	65.2585
3268	65.2206
3264	65.1365
3260	65.0089
3256	64.9481
3252	65.0267
3248	65.0984
3244	65.0469
3240	64.9854
3236	64.9807
3232	65.0311
3228	65.117
3224	65.1379
3220	65.0725
3216	65.0435
3212	65.1008
3208	65.16
3204	65.1693
3200	65.1325
3196	65.0389
3192	64.9165
3188	64.8365
3184	64.817
3180	64.851
3176	64.918
3172	64.9622
3168	65.0041
3164	65.0396
3160	65.0311
3156	65.0627
3152	65.0922
3148	65.0186
3144	64.9087
3140	64.8231
3136	64.8175
3132	64.8974
3128	64.9359
3124	64.9094
3120	64.9626
3116	65.0233
3112	65.0075
3108	65.0821
3104	65.2523
3100	65.3429
3096	65.2564
3092	65.0164
3088	64.82
3084	64.8836
3080	65.0926
3076	65.174
3072	65.1102
3068	65.0689
3064	65.1091
3060	65.1518
3056	65.1331
3052	65.1086
3048	65.1212
3044	65.1336
3040	65.1369
3036	65.0726
3032	64.992
3028	65.0076
3024	65.0095
3020	64.9106
3016	64.8617
3012	64.9412
3008	65.0657
3004	65.1838
3000	65.19
2996	65.0987
2992	65.0941
2988	65.1586
2984	65.1738
2980	65.1072
2976	65.0313
2972	65.0198
2968	64.9379
2964	64.8371
2960	64.9239
2956	65.0429
2952	65.018
2948	64.9393
2944	64.8836
2940	64.8829
2936	64.9544
2932	65.0438
2928	65.0594
2924	64.9839
2920	64.9155
2916	64.8958
2912	64.9327
2908	64.9734
2904	64.9792
2900	65.0375
2896	65.0853
2892	65.0176
2888	64.9401
2884	64.9029
2880	64.9111
2876	64.9794
2872	65.0176
2868	65.0162
2864	64.9902
2860	64.9209
2856	64.8764
2852	64.8779
2848	64.8751
2844	64.9093
2840	64.974
2836	64.9931
2832	64.9728
2828	64.9984
2824	65.0468
2820	64.9788
2816	64.9262
2812	64.9948
2808	65.0239
2804	65.0068
2800	65.0132
2796	65.0393
2792	65.0679
2788	65.04
2784	64.9628
2780	64.9729
2776	65.0832
2772	65.1684
2768	65.1754
2764	65.1118
2760	65.059
2756	65.06
2752	65.0477
2748	65.0448
2744	65.045
2740	65.0025
2736	64.9658
2732	64.9405
2728	64.9446
2724	65.023
2720	65.0846
2716	65.0349
2712	64.9429
2708	64.9544
2704	65.074
2700	65.1486
2696	65.1277
2692	65.0693
2688	65.0366
2684	65.0393
2680	65.0304
2676	64.999
2672	64.9379
2668	64.9045
2664	64.9415
2660	64.9917
2656	64.9952
2652	64.9525
2648	64.931
2644	64.9636
2640	65.031
2636	65.0391
2632	64.9528
2628	64.8922
2624	64.9161
2620	64.9563
2616	64.9229
2612	64.8444
2608	64.815
2604	64.843
2600	64.897
2596	64.9045
2592	64.8568
2588	64.8778
2584	64.9504
2580	64.9434
2576	64.9109
2572	64.9418
2568	64.9976
2564	65.0367
2560	65.0215
2556	64.9813
2552	64.9823
2548	64.9551
2544	64.9068
2540	64.9263
2536	64.9616
2532	64.9909
2528	65.0064
2524	64.9764
2520	64.9472
2516	64.9305
2512	64.9526
2508	65.0123
2504	65.0275
2500	65.0096
2496	65.0142
2492	65.0077
2488	64.9894
2484	64.9779
2480	64.9439
2476	64.9492
2472	64.9448
2468	64.8436
2464	64.8056
2460	64.8664
2456	64.8942
2452	64.875
2448	64.8439
2444	64.8526
2440	64.9304
2436	64.9835
2432	65.0118
2428	65.0568
2424	64.9901
2420	64.8916
2416	64.9492
2412	64.9929
2408	64.9095
2404	64.9007
2400	65.0078
2396	65.0713
2392	65.0653
2388	65.0461
2384	64.984
2380	64.9336
2376	64.9789
2372	65.0151
2368	64.9693
2364	64.9111
2360	64.9167
2356	64.9303
2352	64.8638
2348	64.8053
2344	64.8539
2340	64.9035
2336	64.8659
2332	64.8566
2328	64.8758
2324	64.8651
2320	64.8859
2316	64.9267
2312	64.9445
2308	64.9427
2304	64.9499
2300	64.9419
2296	64.9009
2292	64.8925
2288	64.9111
2284	64.9153
2280	64.9042
2276	64.8815
2272	64.8417
2268	64.8055
2264	64.8193
2260	64.8391
2256	64.8219
2252	64.8175
2248	64.8197
2244	64.8238
2240	64.8681
2236	64.9181
2232	64.9211
2228	64.8717
2224	64.8612
2220	64.9253
2216	64.9141
2212	64.8331
2208	64.813
2204	64.818
2200	64.8478
2196	64.9202
2192	64.929
2188	64.9111
2184	64.9602
2180	64.9566
2176	64.8649
2172	64.7813
2168	64.7306
2164	64.7131
2160	64.7149
2156	64.7405
2152	64.7514
2148	64.6839
2144	64.6179
2140	64.6585
2136	64.7922
2132	64.8602
2128	64.8071
2124	64.7598
2120	64.7702
2116	64.8471
2112	64.9204
2108	64.9078
2104	64.8633
2100	64.8363
2096	64.8223
2092	64.7984
2088	64.7733
2084	64.6983
2080	64.627
2076	64.6537
2072	64.658
2068	64.6407
2064	64.6883
2060	64.7365
2056	64.7697
2052	64.8435
2048	64.8895
2044	64.8468
2040	64.8106
2036	64.8053
2032	64.794
2028	64.8003
2024	64.8246
2020	64.8198
2016	64.7849
2012	64.7754
2008	64.8325
2004	64.9138
2000	64.9068
1996	64.8096
1992	64.7253
1988	64.7017
1984	64.7208
1980	64.719
1976	64.7092
1972	64.8018
1968	64.8882
1964	64.8299
1960	64.7361
1956	64.7347
1952	64.8326
1948	64.8987
1944	64.8797
1940	64.8208
1936	64.7531
1932	64.6854
1928	64.6527
1924	64.6938
1920	64.718
1916	64.6548
1912	64.6058
1908	64.6226
1904	64.6464
1900	64.6576
1896	64.6781
1892	64.7091
1888	64.7339
1884	64.7316
1880	64.7017
1876	64.6927
1872	64.7262
1868	64.7305
1864	64.6731
1860	64.6496
1856	64.7135
1852	64.7556
1848	64.748
1844	64.7776
1840	64.7858
1836	64.7095
1832	64.6523
1828	64.699
1824	64.7484
1820	64.7212
1816	64.6943
1812	64.6479
1808	64.6003
1804	64.6499
1800	64.7077
1796	64.6875
1792	64.6257
1788	64.6028
1784	64.6153
1780	64.6113
1776	64.618
1772	64.6311
1768	64.6291
1764	64.5955
1760	64.5005
1756	64.409
1752	64.4137
1748	64.4341
1744	64.3947
1740	64.3568
1736	64.3064
1732	64.2432
1728	64.2485
1724	64.3237
1720	64.4201
1716	64.4692
1712	64.4497
1708	64.4637
1704	64.5484
1700	64.6404
1696	64.6748
1692	64.6685
1688	64.6692
1684	64.6093
1680	64.554
1676	64.6045
1672	64.6178
1668	64.555
1664	64.5326
1660	64.476
1656	64.3423
1652	64.3151
1648	64.4187
1644	64.503
1640	64.5362
1636	64.5578
1632	64.5553
1628	64.4968
1624	64.4017
1620	64.31
1616	64.262
1612	64.3251
1608	64.4591
1604	64.5165
1600	64.4653
1596	64.4027
1592	64.3764
1588	64.3749
1584	64.4136
1580	64.4882
1576	64.5387
1572	64.5429
1568	64.5752
1564	64.6616
1560	64.6638
1556	64.5122
1552	64.3847
1548	64.3996
1544	64.4177
1540	64.3889
1536	64.4125
1532	64.4765
1528	64.4543
1524	64.3452
1520	64.333
1516	64.4423
1512	64.5336
1508	64.5269
1504	64.4618
1500	64.4276
1496	64.4534
1492	64.5389
1488	64.5519
1484	64.4639
1480	64.4516
1476	64.4698
1472	64.3974
1468	64.3551
1464	64.3983
1460	64.3849
1456	64.2864
1452	64.2213
1448	64.2373
1444	64.3362
1440	64.4786
1436	64.5192
1432	64.4469
1428	64.3966
1424	64.3916
1420	64.387
1416	64.3401
1412	64.2817
1408	64.2967
1404	64.3073
1400	64.2572
1396	64.2613
1392	64.3062
1388	64.3334
1384	64.3586
1380	64.3465
1376	64.3464
1372	64.3849
1368	64.3481
1364	64.2331
1360	64.1743
1356	64.1783
1352	64.1594
1348	64.1794
1344	64.2552
1340	64.3161
1336	64.314
1332	64.2543
1328	64.2419
1324	64.2671
1320	64.2797
1316	64.2808
1312	64.2553
1308	64.2523
1304	64.2428
1300	64.1875
1296	64.1526
1292	64.1672
1288	64.2104
1284	64.1894
1280	64.1061
1276	64.0997
1272	64.1524
1268	64.1961
1264	64.2411
1260	64.2552
1256	64.2311
1252	64.2032
1248	64.1725
1244	64.1549
1240	64.1378
1236	64.1282
1232	64.1645
1228	64.1982
1224	64.2227
1220	64.2697
1216	64.2788
1212	64.2018
1208	64.1348
1204	64.1547
1200	64.1335
1196	64.0248
1192	63.9682
1188	63.9788
1184	64.0276
1180	64.1395
1176	64.1797
1172	64.1133
1168	64.1066
1164	64.2117
1160	64.2526
1156	64.1578
1152	64.1048
1148	64.1055
1144	64.099
1140	64.0948
1136	64.074
1132	64.0082
1128	63.9573
1124	63.9867
1120	64.0427
1116	64.0584
1112	64.0465
1108	64.103
1104	64.1471
1100	64.1067
1096	64.1193
1092	64.1375
1088	64.1071
1084	64.0617
1080	64.0747
1076	64.1965
1072	64.2318
1068	64.1708
1064	64.1216
1060	64.0683
1056	64.0652
1052	64.0669
1048	64.0602
1044	64.0955
1040	64.0756
1036	64.0128
1032	64.0323
1028	64.0813
1024	64.111
1020	64.1779
1016	64.2428
1012	64.2392
1008	64.1286
1004	64.029
1000	64.0852
996	 64.1688
992	 64.1664
988	 64.122
984	 64.1582
980	 64.28
976	 64.2851
972	 64.2365
968	 64.2304
964	 64.1786
960	 64.1397
956	 64.1049
952	 64.0837
948	 64.1117
944	 64.1068
940	 64.0951
936	 64.1101
932	 64.0731
928	 64.0035
924	 64.0761
920	 64.2806
916	 64.3272
912	 64.1708
908	 64.1124
904	 64.1763
900	 64.1764
896	 64.1803
892	 64.2457
888	 64.2942
884	 64.3028
880	 64.2635
876	 64.1441
872	 64.0491
868	 64.104
864	 64.117
860	 64.028
856	 64.1283
852	 64.2587
848	 64.1136
844	 63.9297
840	 63.9434
836	 64.0304
832	 64.0043
828	 63.9503
824	 63.9378
820	 63.8448
816	 63.7404
812	 63.8341
808	 64.0255
804	 64.0863
800	 64.0614
796	 64.1134
792	 64.179
788	 64.1144
784	 64.097
780	 64.0987
776	 63.9834
772	 63.8553
768	 63.7523
764	 63.804
760	 63.8868
756	 63.8034
752	 63.7882
748	 63.8945
744	 63.9698
740	 63.9182
736	 63.7825
732	 63.6868
728	 63.7137
724	 63.8479
720	 63.8325
716	 63.6015
712	 63.5785
708	 63.8701
704	 63.962
700	 63.9599
696	 64.0087
692	 63.7558
688	 63.6561
684	 63.9041
680	 63.9146
676	 63.7129
672	 63.4857
668	 63.5634
664	 63.7205
660	 63.3303
656	 63.2081
652	 63.3368
648	 62.917
644	 62.7311
640	 63.3171
636	 64.0458
632	 64.1812
628	 64.0666
624	 64.1764
620	 63.9918
616	 63.5783
612	 63.6251
608	 64.1767
604	 64.6304
600	 64.8166
596	 64.8048
592	 64.5587
588	 64.3963
584	 64.3744
580	 64.2624
576	 64.0858
572	 64.1803
568	 64.1314
564	 63.682
560	 63.6134
556	 63.9057
552	 64.1683
548	 64.3611
544	 64.3229
540	 64.1633
536	 64.0627
532	 63.886
528	 63.7475
524	 63.7474
520	 63.5174
516	 63.3891
512	 63.8575
508	 64.4071
504	 64.4072
500	 63.8245
496	 63.403
492	 63.8762
488	 64.4774
484	 64.7234
480	 64.8097
476	 63.9386
472	 62.7733
468	 62.5522
464	 62.8706
460	 63.4644
456	 63.5818
452	 62.894
448	 62.3774
444	 61.8362
440	 61.4706
436	 61.8083
432	 61.9308
428	 61.0758
424	 60.9406
420	 62.8743
416	 63.8069
412	 62.6237
408	 63.5999
404	 65.2057
400	 62.588
396	 60.0394
392	 59.2756
388	 61.0511
384	 65.6251
380	 66.0916
376	 62.2565
372	 58.0645
370	 60.6462