File: Bakgrunnsmateriale/MATLAB/FTIR/ftir_data/subAa/Mapping_121/BZ1503107-1_t50_cm-1.asc
PE IR       SPECTRUM    SPECTRUM    ASCII       PEDS        1.60
  -1
BZ68A3~1.ASC
17/04/07
17:22:08.00
17/04/07
17:22:08.00
tln
$BZ1503107-1_t0050$<tbV0>[0.0,-2.6,8.0,0.0,27,1,0]
370
64

2002,4.07
MIRTGS : RIGHTBACK : INTERNAL 2
MIR : ON : INTERNAL 2
OPTKBR

0.200000
8
8.000000
FILLER
RATIO
SPECTRUM
UNLOCKED 256

DOUBLE
64
COMBINED
1
0
0

1.000000
RATIO

1
0
TRUE
51149
0
LEFT NOT FITTED RIGHT NOT FITTED 0
NONE
NONE
15600
12
4.427000
51148
TRUE
1 0 8 72 0 0 0 0

15798

#HDR
-1
-1
#GR
CM-1
%T
2.38419e-05
0.0
5000
-1.000000
4631
8
66.921
33.3127
#DATA
5000	64.2905
4996	65.1294
4992	65.7922
4988	66.55
4984	66.9132
4980	66.2348
4976	65.6649
4972	65.9998
4968	66.2917
4964	65.8049
4960	65.1069
4956	64.8368
4952	64.5245
4948	64.3996
4944	64.8636
4940	65.4438
4936	65.6041
4932	65.2263
4928	64.8603
4924	64.6718
4920	64.7634
4916	65.1134
4912	65.1509
4908	64.8945
4904	64.8266
4900	65.016
4896	65.1964
4892	65.1528
4888	64.9299
4884	64.8461
4880	64.8398
4876	64.661
4872	64.5671
4868	64.7276
4864	64.8307
4860	64.7794
4856	64.6547
4852	64.6244
4848	64.8072
4844	64.8408
4840	64.6551
4836	64.506
4832	64.5537
4828	64.6633
4824	64.6193
4820	64.7204
4816	65.005
4812	65.1381
4808	65.0193
4804	64.7735
4800	64.6569
4796	64.6742
4792	64.696
4788	64.8208
4784	65.1123
4780	65.3724
4776	65.3353
4772	65.0699
4768	64.9397
4764	64.8921
4760	64.7127
4756	64.5872
4752	64.4922
4748	64.4462
4744	64.6654
4740	64.9444
4736	64.9931
4732	64.8522
4728	64.7187
4724	64.6507
4720	64.7363
4716	64.8286
4712	64.816
4708	64.753
4704	64.5859
4700	64.6861
4696	64.9513
4692	65.0151
4688	64.9271
4684	64.934
4680	65.0993
4676	64.9951
4672	64.7484
4668	64.6215
4664	64.5144
4660	64.6654
4656	64.9615
4652	64.9085
4648	64.7178
4644	64.766
4640	65.1309
4636	65.4824
4632	65.3868
4628	65.1262
4624	64.9732
4620	64.8587
4616	64.7311
4612	64.6477
4608	64.7865
4604	65.0148
4600	65.0938
4596	65.1711
4592	65.2728
4588	65.1925
4584	65.0248
4580	64.9316
4576	64.9401
4572	65.0026
4568	65.0849
4564	65.1659
4560	65.2763
4556	65.3792
4552	65.3227
4548	65.0777
4544	64.762
4540	64.6334
4536	64.8624
4532	65.2193
4528	65.2779
4524	65.2411
4520	65.4826
4516	65.6365
4512	65.5802
4508	65.5042
4504	65.3525
4500	65.2781
4496	65.2693
4492	65.1682
4488	65.2377
4484	65.5211
4480	65.5035
4476	65.1567
4472	65.1324
4468	65.6175
4464	65.6223
4460	65.6802
4456	66.3991
4452	66.1843
4448	65.6171
4444	65.7356
4440	63.2716
4436	60.7065
4432	59.3936
4428	55.4031
4424	56.7614
4420	62.2031
4416	63.348
4412	64.1094
4408	65.6074
4404	65.9287
4400	65.7056
4396	65.3772
4392	65.2021
4388	64.8514
4384	64.7601
4380	65.1094
4376	65.3533
4372	65.2856
4368	65.3376
4364	65.712
4360	65.9324
4356	65.726
4352	65.518
4348	65.5699
4344	65.5781
4340	65.3756
4336	65.1929
4332	65.1315
4328	65.1942
4324	65.3146
4320	65.3126
4316	65.3088
4312	65.3176
4308	65.1831
4304	65.2021
4300	65.4248
4296	65.4315
4292	65.2236
4288	65.0961
4284	65.1311
4280	65.2519
4276	65.2774
4272	65.1965
4268	65.1729
4264	65.2655
4260	65.4085
4256	65.3414
4252	65.1171
4248	65.0318
4244	65.0303
4240	64.9791
4236	64.8445
4232	64.7111
4228	64.7528
4224	64.852
4220	64.8519
4216	64.9152
4212	65.0801
4208	65.1505
4204	65.1643
4200	65.1826
4196	65.0598
4192	64.8636
4188	64.6937
4184	64.6088
4180	64.6781
4176	64.732
4172	64.6334
4168	64.5966
4164	64.7001
4160	64.7288
4156	64.7194
4152	64.8069
4148	64.8764
4144	64.802
4140	64.7148
4136	64.6551
4132	64.5442
4128	64.6791
4124	65.0707
4120	65.1223
4116	64.8536
4112	64.7241
4108	64.7
4104	64.75
4100	64.8109
4096	64.748
4092	64.7161
4088	64.7658
4084	64.8494
4080	64.886
4076	64.842
4072	64.8517
4068	64.9005
4064	64.8691
4060	64.8594
4056	64.8476
4052	64.769
4048	64.7742
4044	64.8524
4040	65.0008
4036	65.1332
4032	65.1018
4028	65.0353
4024	64.993
4020	64.931
4016	64.8902
4012	64.9479
4008	65.0909
4004	65.1334
4000	65.1049
3996	65.1438
3992	65.1749
3988	65.1572
3984	65.1392
3980	65.193
3976	65.2891
3972	65.3204
3968	65.2254
3964	65.0502
3960	64.9518
3956	64.9519
3952	64.9029
3948	64.8882
3944	64.9879
3940	65.0299
3936	65.0981
3932	65.241
3928	65.3288
3924	65.4094
3920	65.5335
3916	65.5225
3912	65.3486
3908	65.2716
3904	65.2421
3900	65.1039
3896	65.0465
3892	65.1271
3888	65.127
3884	65.0661
3880	65.0806
3876	65.1686
3872	65.1924
3868	65.0929
3864	65.0455
3860	65.0902
3856	65.1156
3852	65.1341
3848	65.1209
3844	65.0903
3840	65.0913
3836	64.9681
3832	64.8589
3828	64.9196
3824	64.9151
3820	64.9218
3816	65.0089
3812	64.9505
3808	64.8545
3804	64.9561
3800	65.0389
3796	64.8545
3792	64.6421
3788	64.7204
3784	65.0044
3780	65.104
3776	65.0492
3772	65.0992
3768	65.1402
3764	65.1168
3760	65.0957
3756	65.0922
3752	65.0999
3748	65.0457
3744	64.9516
3740	64.9229
3736	64.9135
3732	64.8869
3728	64.8558
3724	64.8319
3720	64.8871
3716	64.9979
3712	65.1052
3708	65.1469
3704	65.1443
3700	65.2084
3696	65.2209
3692	65.0968
3688	65.024
3684	65.0117
3680	64.98
3676	64.9916
3672	65.0649
3668	65.1376
3664	65.1953
3660	65.2213
3656	65.1186
3652	64.9811
3648	64.9351
3644	65.0045
3640	65.1764
3636	65.2535
3632	65.1741
3628	65.1074
3624	65.0706
3620	65.0452
3616	65.0721
3612	65.0888
3608	65.0267
3604	64.9807
3600	65.0415
3596	65.0901
3592	65.0296
3588	65.0196
3584	65.0974
3580	65.0919
3576	65.0845
3572	65.1176
3568	65.1345
3564	65.1466
3560	65.1211
3556	65.1246
3552	65.1599
3548	65.1752
3544	65.2062
3540	65.2588
3536	65.2629
3532	65.1623
3528	65.0309
3524	65.0069
3520	65.1159
3516	65.2056
3512	65.2231
3508	65.2277
3504	65.1932
3500	65.168
3496	65.1955
3492	65.209
3488	65.1391
3484	65.0878
3480	65.155
3476	65.1817
3472	65.1363
3468	65.0953
3464	65.0767
3460	65.0852
3456	65.1021
3452	65.0937
3448	65.0376
3444	65.0156
3440	65.0283
3436	65.0045
3432	64.957
3428	64.9591
3424	65.0321
3420	65.0426
3416	64.9655
3412	65.006
3408	65.0467
3404	64.8936
3400	64.8093
3396	64.9177
3392	65.0475
3388	65.0915
3384	65.0471
3380	65.0058
3376	65.0834
3372	65.2143
3368	65.1916
3364	65.0949
3360	65.0605
3356	65.0151
3352	64.998
3348	65.0071
3344	64.9573
3340	64.9208
3336	64.9417
3332	65.0178
3328	65.1493
3324	65.1837
3320	65.0498
3316	64.9252
3312	64.9718
3308	65.1246
3304	65.1743
3300	65.0497
3296	64.9248
3292	64.9187
3288	64.9827
3284	65.0331
3280	65.003
3276	64.9359
3272	64.894
3268	64.8803
3264	64.9123
3260	64.9544
3256	64.9593
3252	64.964
3248	64.9959
3244	64.9989
3240	64.9315
3236	64.8638
3232	64.8502
3228	64.8876
3224	64.9112
3220	64.8913
3216	64.9278
3212	65.0307
3208	65.1407
3204	65.2248
3200	65.2163
3196	65.1258
3192	65.0414
3188	64.9937
3184	65.0002
3180	65.0625
3176	65.1231
3172	65.1416
3168	65.1077
3164	65.0284
3160	64.9323
3156	64.9084
3152	64.972
3148	65.0094
3144	65.0032
3140	64.9814
3136	64.8831
3132	64.7673
3128	64.8232
3124	65.0063
3120	65.0725
3116	64.9593
3112	64.8715
3108	64.9484
3104	65.0787
3100	65.1536
3096	65.1052
3092	64.9751
3088	64.9213
3084	64.9413
3080	64.9983
3076	65.0411
3072	64.9736
3068	64.8684
3064	64.882
3060	64.9838
3056	65.0342
3052	65.0187
3048	64.9355
3044	64.875
3040	64.9847
3036	65.1499
3032	65.1671
3028	65.0345
3024	64.9408
3020	64.9826
3016	65.0793
3012	65.1371
3008	65.1624
3004	65.1775
3000	65.0597
2996	64.9179
2992	64.9788
2988	65.0816
2984	65.0221
2980	64.8792
2976	64.7818
2972	64.7497
2968	64.7788
2964	64.7933
2960	64.7544
2956	64.7752
2952	64.8667
2948	64.91
2944	64.8835
2940	64.8998
2936	64.9788
2932	65.0541
2928	65.0855
2924	65.003
2920	64.8727
2916	64.8821
2912	64.9822
2908	64.9701
2904	64.8769
2900	64.8027
2896	64.7961
2892	64.8812
2888	64.9559
2884	64.9629
2880	64.9076
2876	64.8463
2872	64.8769
2868	64.9841
2864	65.0757
2860	65.0551
2856	64.9895
2852	65.0191
2848	65.0362
2844	64.9937
2840	64.9403
2836	64.8685
2832	64.8708
2828	64.9695
2824	65.0239
2820	64.9564
2816	64.8731
2812	64.9145
2808	65.0342
2804	65.0656
2800	64.9997
2796	64.9382
2792	64.913
2788	64.906
2784	64.9179
2780	64.9484
2776	64.9694
2772	64.9563
2768	64.9159
2764	64.8781
2760	64.8453
2756	64.8434
2752	64.9052
2748	64.9833
2744	65.0368
2740	65.0412
2736	64.9811
2732	64.9507
2728	64.9706
2724	64.9404
2720	64.9234
2716	64.9694
2712	64.9674
2708	64.9353
2704	64.9428
2700	64.9717
2696	64.991
2692	64.9871
2688	64.9742
2684	64.975
2680	64.9818
2676	64.9482
2672	64.9208
2668	64.9512
2664	64.9956
2660	65.0073
2656	64.972
2652	64.9515
2648	64.9664
2644	64.9782
2640	64.9522
2636	64.9019
2632	64.9039
2628	64.9298
2624	64.9007
2620	64.8998
2616	64.9746
2612	64.9453
2608	64.8345
2604	64.8671
2600	64.9517
2596	64.9592
2592	64.9693
2588	64.957
2584	64.9018
2580	64.9171
2576	64.9499
2572	64.898
2568	64.8197
2564	64.743
2560	64.7328
2556	64.8226
2552	64.8905
2548	64.9067
2544	64.9144
2540	64.8715
2536	64.7692
2532	64.7707
2528	64.888
2524	64.933
2520	64.9431
2516	64.9875
2512	64.9911
2508	64.9429
2504	64.9089
2500	64.9155
2496	64.8756
2492	64.8129
2488	64.8367
2484	64.8853
2480	64.8952
2476	64.8659
2472	64.8102
2468	64.7845
2464	64.7987
2460	64.8158
2456	64.7949
2452	64.7369
2448	64.7211
2444	64.7661
2440	64.8229
2436	64.8882
2432	64.9223
2428	64.8923
2424	64.8639
2420	64.8341
2416	64.8034
2412	64.8106
2408	64.7814
2404	64.7272
2400	64.7312
2396	64.7663
2392	64.7969
2388	64.8135
2384	64.7999
2380	64.7863
2376	64.7712
2372	64.724
2368	64.6963
2364	64.7698
2360	64.8642
2356	64.8666
2352	64.85
2348	64.8429
2344	64.8238
2340	64.8207
2336	64.8323
2332	64.8305
2328	64.7951
2324	64.7467
2320	64.7575
2316	64.8251
2312	64.8077
2308	64.7166
2304	64.7409
2300	64.833
2296	64.7993
2292	64.732
2288	64.7662
2284	64.8198
2280	64.7988
2276	64.7405
2272	64.7324
2268	64.7648
2264	64.8242
2260	64.8729
2256	64.8642
2252	64.8015
2248	64.7217
2244	64.6954
2240	64.703
2236	64.7101
2232	64.7393
2228	64.793
2224	64.8187
2220	64.7885
2216	64.7579
2212	64.7623
2208	64.8068
2204	64.8561
2200	64.8414
2196	64.7878
2192	64.7756
2188	64.7637
2184	64.7001
2180	64.7081
2176	64.7594
2172	64.6863
2168	64.5998
2164	64.6414
2160	64.7391
2156	64.7725
2152	64.7314
2148	64.7149
2144	64.7336
2140	64.7423
2136	64.7433
2132	64.7461
2128	64.767
2124	64.7462
2120	64.6653
2116	64.6562
2112	64.7113
2108	64.7101
2104	64.6895
2100	64.7112
2096	64.741
2092	64.7372
2088	64.7315
2084	64.776
2080	64.7979
2076	64.7191
2072	64.6771
2068	64.7732
2064	64.8273
2060	64.747
2056	64.6776
2052	64.6528
2048	64.6293
2044	64.6282
2040	64.6346
2036	64.6703
2032	64.7162
2028	64.6579
2024	64.5571
2020	64.5702
2016	64.6479
2012	64.7118
2008	64.7536
2004	64.7561
2000	64.7231
1996	64.653
1992	64.591
1988	64.5702
1984	64.5634
1980	64.5645
1976	64.5714
1972	64.5894
1968	64.5906
1964	64.5256
1960	64.4619
1956	64.4579
1952	64.4776
1948	64.5249
1944	64.5932
1940	64.6187
1936	64.5905
1932	64.5767
1928	64.5877
1924	64.5823
1920	64.5607
1916	64.5361
1912	64.549
1908	64.5987
1904	64.6149
1900	64.5868
1896	64.5522
1892	64.5297
1888	64.5144
1884	64.499
1880	64.4987
1876	64.4952
1872	64.4961
1868	64.5362
1864	64.5325
1860	64.4935
1856	64.5113
1852	64.5496
1848	64.5474
1844	64.5084
1840	64.5054
1836	64.5396
1832	64.5304
1828	64.4949
1824	64.4695
1820	64.4567
1816	64.4744
1812	64.472
1808	64.4226
1804	64.415
1800	64.466
1796	64.5197
1792	64.5556
1788	64.5387
1784	64.4783
1780	64.4521
1776	64.4727
1772	64.4661
1768	64.4193
1764	64.3861
1760	64.3681
1756	64.3358
1752	64.2928
1748	64.2844
1744	64.3302
1740	64.3667
1736	64.345
1732	64.3112
1728	64.3054
1724	64.3012
1720	64.3335
1716	64.3962
1712	64.4066
1708	64.3818
1704	64.3362
1700	64.2597
1696	64.1927
1692	64.1936
1688	64.2473
1684	64.2917
1680	64.3183
1676	64.3514
1672	64.3598
1668	64.3261
1664	64.2946
1660	64.2882
1656	64.3466
1652	64.436
1648	64.4855
1644	64.4796
1640	64.3894
1636	64.2933
1632	64.2777
1628	64.2572
1624	64.2193
1620	64.2384
1616	64.2867
1612	64.3286
1608	64.359
1604	64.3769
1600	64.3327
1596	64.2132
1592	64.1612
1588	64.1958
1584	64.195
1580	64.1321
1576	64.1087
1572	64.1561
1568	64.1552
1564	64.1083
1560	64.1146
1556	64.1518
1552	64.1588
1548	64.1532
1544	64.173
1540	64.2074
1536	64.2195
1532	64.2221
1528	64.2107
1524	64.1942
1520	64.2245
1516	64.2638
1512	64.2484
1508	64.2121
1504	64.1923
1500	64.157
1496	64.1398
1492	64.19
1488	64.2572
1484	64.2915
1480	64.2234
1476	64.1431
1472	64.1619
1468	64.1432
1464	64.1092
1460	64.1805
1456	64.2256
1452	64.1657
1448	64.0736
1444	64.0122
1440	64.0268
1436	64.0936
1432	64.1525
1428	64.1809
1424	64.2198
1420	64.2247
1416	64.1212
1412	64.0571
1408	64.0893
1404	64.0832
1400	64.044
1396	64.0411
1392	64.0468
1388	64.0303
1384	64.0399
1380	64.0891
1376	64.1731
1372	64.2575
1368	64.23
1364	64.1373
1360	64.0704
1356	64.0189
1352	63.9791
1348	63.9203
1344	63.898
1340	63.9951
1336	64.1126
1332	64.1255
1328	64.0729
1324	64.0672
1320	64.0943
1316	64.0933
1312	64.0666
1308	64.0661
1304	64.0914
1300	64.0729
1296	64.0306
1292	63.9716
1288	63.9247
1284	63.9611
1280	64.0008
1276	63.9909
1272	63.9447
1268	63.9302
1264	63.9993
1260	64.0266
1256	63.9808
1252	63.9367
1248	63.912
1244	63.9198
1240	63.8982
1236	63.8699
1232	63.9103
1228	63.9158
1224	63.8756
1220	63.8726
1216	63.8591
1212	63.8679
1208	63.9407
1204	63.9988
1200	63.9862
1196	63.8997
1192	63.8698
1188	63.9461
1184	63.9918
1180	63.9222
1176	63.8378
1172	63.8489
1168	63.8627
1164	63.827
1160	63.7878
1156	63.7832
1152	63.7981
1148	63.7514
1144	63.6908
1140	63.7262
1136	63.7937
1132	63.8113
1128	63.7737
1124	63.7706
1120	63.7866
1116	63.7401
1112	63.7766
1108	63.9463
1104	63.9851
1100	63.8808
1096	63.8166
1092	63.7506
1088	63.7415
1084	63.8993
1080	64.0176
1076	63.9308
1072	63.798
1068	63.7504
1064	63.7738
1060	63.762
1056	63.6797
1052	63.6802
1048	63.7687
1044	63.8192
1040	63.8169
1036	63.7481
1032	63.6178
1028	63.5909
1024	63.712
1020	63.7935
1016	63.8459
1012	63.9303
1008	63.9493
1004	63.869
1000	63.7831
996	 63.7548
992	 63.7547
988	 63.8239
984	 63.9336
980	 63.9571
976	 63.891
972	 63.7897
968	 63.685
964	 63.663
960	 63.7143
956	 63.7171
952	 63.6758
948	 63.6533
944	 63.662
940	 63.6657
936	 63.6612
932	 63.6942
928	 63.7596
924	 63.8241
920	 63.8664
916	 63.8348
912	 63.7444
908	 63.6685
904	 63.6632
900	 63.6696
896	 63.6605
892	 63.7137
888	 63.7423
884	 63.7327
880	 63.8225
876	 63.9198
872	 63.8438
868	 63.7122
864	 63.7345
860	 63.7985
856	 63.692
852	 63.5714
848	 63.6446
844	 63.8142
840	 63.8836
836	 63.7848
832	 63.6804
828	 63.7448
824	 63.8233
820	 63.76
816	 63.7196
812	 63.7552
808	 63.7826
804	 63.7561
800	 63.6983
796	 63.6685
792	 63.6136
788	 63.5348
784	 63.5764
780	 63.6771
776	 63.7012
772	 63.687
768	 63.6566
764	 63.6394
760	 63.7478
756	 63.8622
752	 63.819
748	 63.7571
744	 63.7497
740	 63.7325
736	 63.6518
732	 63.5502
728	 63.5901
724	 63.6878
720	 63.5794
716	 63.3242
712	 63.2113
708	 63.2647
704	 63.273
700	 63.3196
696	 63.4771
692	 63.6064
688	 63.6181
684	 63.502
680	 63.5439
676	 63.649
672	 63.4725
668	 63.2529
664	 63.2919
660	 63.6138
656	 63.8329
652	 63.7109
648	 63.4099
644	 63.0647
640	 63.3184
636	 63.8124
632	 63.4476
628	 63.0643
624	 63.4329
620	 63.9501
616	 63.9679
612	 63.4324
608	 63.1405
604	 63.4132
600	 63.894
596	 64.052
592	 63.9194
588	 64.0304
584	 64.0505
580	 63.8311
576	 63.7397
572	 63.274
568	 62.4134
564	 62.2573
560	 62.9643
556	 63.4442
552	 63.281
548	 63.0925
544	 63.0252
540	 62.8087
536	 62.7503
532	 63.1648
528	 63.5721
524	 63.3589
520	 62.6838
516	 62.495
512	 63.0129
508	 63.3882
504	 63.3562
500	 63.3637
496	 63.4376
492	 63.3503
488	 63.2698
484	 63.2711
480	 63.2321
476	 63.6568
472	 64.1898
468	 63.8978
464	 63.6277
460	 63.481
456	 62.7086
452	 62.3312
448	 63.0811
444	 63.7692
440	 64.0415
436	 64.3598
432	 63.9369
428	 63.0861
424	 63.4903
420	 64.7842
416	 64.572
412	 63.6258
408	 62.6468
404	 58.7635
400	 56.3241
396	 58.5449
392	 60.8273
388	 62.3387
384	 60.0625
380	 52.2564
376	 40.2793
372	 33.3127
370	 35.3919