File: Bakgrunnsmateriale/MATLAB/FTIR/ftir_data/subAa/Mapping_121/BZ1503107-1_t36_cm-1.asc
PE IR       SPECTRUM    SPECTRUM    ASCII       PEDS        1.60
  -1
BZ6EA0~1.ASC
17/04/07
16:10:31.00
17/04/07
16:10:31.00
tln
$BZ1503107-1_t0036$<tbV0>[7.8,-5.2,8.0,0.0,27,1,0]
370
64

2002,4.07
MIRTGS : RIGHTBACK : INTERNAL 2
MIR : ON : INTERNAL 2
OPTKBR

0.200000
8
8.000000
FILLER
RATIO
SPECTRUM
UNLOCKED 256

DOUBLE
64
COMBINED
1
0
0

1.000000
RATIO

1
0
TRUE
51149
0
LEFT NOT FITTED RIGHT NOT FITTED 0
NONE
NONE
15600
12
4.427000
51148
TRUE
1 0 8 72 0 0 0 0

15798

#HDR
-1
-1
#GR
CM-1
%T
2.38419e-05
0.0
5000
-1.000000
4631
8
77.5582
40.4587
#DATA
5000	65.3729
4996	64.9402
4992	64.8849
4988	64.9906
4984	64.9178
4980	64.757
4976	64.778
4972	64.667
4968	64.3305
4964	64.2128
4960	64.1478
4956	63.9451
4952	64.0314
4948	64.3844
4944	64.7111
4940	64.8051
4936	64.4152
4932	63.8867
4928	63.8439
4924	64.4409
4920	64.9096
4916	64.7363
4912	64.6273
4908	64.832
4904	64.8811
4900	64.7653
4896	64.7212
4892	64.6801
4888	64.5951
4884	64.838
4880	65.2864
4876	65.2864
4872	65.0236
4868	64.8289
4864	64.7248
4860	64.951
4856	65.1455
4852	64.9339
4848	64.8936
4844	65.2487
4840	65.4505
4836	65.2643
4832	64.9801
4828	64.9938
4824	65.1594
4820	65.0817
4816	64.9889
4812	65.0481
4808	64.9435
4804	64.7408
4800	64.6624
4796	64.6485
4792	64.7316
4788	64.833
4784	64.8878
4780	64.9163
4776	64.9566
4772	65.0661
4768	65.1332
4764	65.2444
4760	65.4022
4756	65.342
4752	65.1536
4748	65.1576
4744	65.257
4740	65.2086
4736	65.1691
4732	65.2604
4728	65.3147
4724	65.2797
4720	65.3038
4716	65.39
4712	65.5486
4708	65.7097
4704	65.5642
4700	65.1921
4696	65.0286
4692	65.0832
4688	65.0886
4684	64.8902
4680	64.5975
4676	64.6819
4672	64.9865
4668	65.0498
4664	65.0161
4660	64.967
4656	64.8996
4652	64.9943
4648	65.2735
4644	65.4254
4640	65.1976
4636	64.8818
4632	64.7764
4628	64.7962
4624	64.8196
4620	64.8813
4616	64.8795
4612	64.7337
4608	64.7645
4604	64.9279
4600	65.0239
4596	65.0574
4592	64.9476
4588	64.8243
4584	64.8971
4580	65.0734
4576	65.0789
4572	64.9685
4568	64.9243
4564	64.9189
4560	64.8635
4556	64.7418
4552	64.6792
4548	64.8333
4544	65.1824
4540	65.149
4536	64.7326
4532	64.6055
4528	64.6522
4524	64.6328
4520	64.7637
4516	64.9202
4512	65.0483
4508	65.3121
4504	65.3092
4500	65.0045
4496	64.8456
4492	64.6992
4488	64.6077
4484	64.9993
4480	65.3343
4476	65.0366
4472	64.5239
4468	64.1603
4464	64.0125
4460	64.4248
4456	64.9445
4452	65.1114
4448	65.2363
4444	65.0164
4440	66.1119
4436	68.6446
4432	71.1153
4428	70.217
4424	60.4926
4420	55.3303
4416	61.3724
4412	66.7947
4408	68.363
4404	68.0435
4400	66.9896
4396	66.2997
4392	66.1108
4388	65.7854
4384	65.2254
4380	64.8975
4376	64.8603
4372	64.8483
4368	64.6109
4364	64.4679
4360	64.8186
4356	65.1505
4352	65.102
4348	64.907
4344	64.8721
4340	65.022
4336	64.9479
4332	64.5953
4328	64.3605
4324	64.4832
4320	64.7718
4316	64.8033
4312	64.7343
4308	64.9066
4304	65.1643
4300	65.2868
4296	65.3321
4292	65.2104
4288	64.9265
4284	64.8341
4280	64.8036
4276	64.7206
4272	64.7906
4268	64.8906
4264	64.8818
4260	64.8705
4256	64.8689
4252	64.8074
4248	64.7744
4244	64.9196
4240	65.0499
4236	65.0309
4232	65.1263
4228	65.184
4224	65.0249
4220	64.9482
4216	64.977
4212	64.9743
4208	65.0251
4204	65.1768
4200	65.3416
4196	65.3563
4192	65.2722
4188	65.308
4184	65.2856
4180	65.073
4176	64.9246
4172	64.887
4168	64.8455
4164	64.8412
4160	64.9174
4156	65.0147
4152	65.0739
4148	65.1007
4144	65.1367
4140	65.2256
4136	65.3209
4132	65.2929
4128	65.1972
4124	65.1703
4120	65.1567
4116	65.0042
4112	64.8459
4108	64.8918
4104	64.9735
4100	64.9885
4096	65.1149
4092	65.2495
4088	65.2466
4084	65.191
4080	65.1792
4076	65.2753
4072	65.286
4068	65.0726
4064	64.9023
4060	64.9728
4056	65.0519
4052	65.0278
4048	65.0555
4044	65.038
4040	64.9487
4036	64.9538
4032	64.9726
4028	64.9968
4024	65.1633
4020	65.2656
4016	65.2241
4012	65.2617
4008	65.3305
4004	65.2932
4000	65.2264
3996	65.3006
3992	65.432
3988	65.3683
3984	65.1018
3980	64.9239
3976	65.0588
3972	65.2348
3968	65.2122
3964	65.1662
3960	65.1951
3956	65.1855
3952	65.1223
3948	65.1444
3944	65.2096
3940	65.1731
3936	65.1491
3932	65.1821
3928	65.1657
3924	65.2176
3920	65.3706
3916	65.344
3912	65.136
3908	65.0923
3904	65.22
3900	65.3115
3896	65.351
3892	65.3695
3888	65.3236
3884	65.2233
3880	65.1716
3876	65.1923
3872	65.1504
3868	65.0117
3864	64.9945
3860	65.178
3856	65.3119
3852	65.2549
3848	65.1458
3844	65.1133
3840	65.1147
3836	65.0769
3832	65.0712
3828	65.1391
3824	65.2493
3820	65.2958
3816	65.1829
3812	65.0537
3808	65.0649
3804	65.201
3800	65.2961
3796	65.2668
3792	65.1365
3788	64.9291
3784	64.8416
3780	65.0027
3776	65.18
3772	65.1477
3768	65.116
3764	65.2679
3760	65.3614
3756	65.278
3752	65.1559
3748	65.1073
3744	65.1314
3740	65.1696
3736	65.1778
3732	65.1542
3728	65.1166
3724	65.0441
3720	64.9993
3716	65.0007
3712	65.0397
3708	65.1762
3704	65.3376
3700	65.3507
3696	65.171
3692	64.9905
3688	64.9475
3684	64.9667
3680	65.0071
3676	65.1445
3672	65.3774
3668	65.4753
3664	65.3384
3660	65.1963
3656	65.2097
3652	65.3502
3648	65.4216
3644	65.3347
3640	65.2272
3636	65.2313
3632	65.3435
3628	65.3487
3624	65.265
3620	65.248
3616	65.2744
3612	65.3222
3608	65.3507
3604	65.3191
3600	65.2539
3596	65.2722
3592	65.4304
3588	65.5194
3584	65.4073
3580	65.235
3576	65.1457
3572	65.186
3568	65.2863
3564	65.3328
3560	65.2721
3556	65.1877
3552	65.1446
3548	65.087
3544	65.0349
3540	65.0235
3536	65.0333
3532	64.9939
3528	64.9189
3524	65.0008
3520	65.2017
3516	65.309
3512	65.2567
3508	65.1115
3504	65.036
3500	65.0448
3496	65.0968
3492	65.1841
3488	65.1879
3484	65.1269
3480	65.1387
3476	65.1926
3472	65.1687
3468	65.1084
3464	65.0322
3460	64.9454
3456	64.9638
3452	65.0669
3448	65.1518
3444	65.1603
3440	65.1446
3436	65.2263
3432	65.3324
3428	65.357
3424	65.3542
3420	65.2956
3416	65.2103
3412	65.2298
3408	65.266
3404	65.2783
3400	65.3073
3396	65.3038
3392	65.3124
3388	65.3237
3384	65.2617
3380	65.1936
3376	65.2104
3372	65.2251
3368	65.1801
3364	65.1613
3360	65.2401
3356	65.3242
3352	65.2701
3348	65.2374
3344	65.2965
3340	65.2705
3336	65.1615
3332	65.0881
3328	65.1056
3324	65.1598
3320	65.1759
3316	65.1459
3312	65.0768
3308	65.021
3304	64.9951
3300	64.9782
3296	65.0394
3292	65.1584
3288	65.1983
3284	65.1779
3280	65.2087
3276	65.2751
3272	65.2497
3268	65.1657
3264	65.146
3260	65.1448
3256	65.1328
3252	65.1642
3248	65.233
3244	65.2439
3240	65.1479
3236	65.0385
3232	65.0249
3228	65.0739
3224	65.073
3220	65.0185
3216	64.9382
3212	64.9146
3208	64.9878
3204	64.9952
3200	64.9727
3196	65.0057
3192	64.9958
3188	64.9888
3184	64.999
3180	64.9855
3176	65.0185
3172	65.0638
3168	65.0396
3164	64.972
3160	64.9673
3156	65.0331
3152	65.0543
3148	65.0206
3144	64.9471
3140	64.8616
3136	64.8716
3132	64.9696
3128	65.0245
3124	64.9932
3120	65.0072
3116	65.0642
3112	65.0817
3108	65.0825
3104	65.105
3100	65.1881
3096	65.1803
3092	65.0393
3088	64.9842
3084	65.0848
3080	65.2109
3076	65.192
3072	65.1189
3068	65.1753
3064	65.2112
3060	65.142
3056	65.1304
3052	65.1448
3048	65.0934
3044	65.1053
3040	65.2057
3036	65.2219
3032	65.1066
3028	64.9966
3024	64.9864
3020	65.0449
3016	65.1054
3012	65.081
3008	65.0164
3004	65.0452
3000	65.1244
2996	65.1443
2992	65.168
2988	65.2117
2984	65.1899
2980	65.1107
2976	65.036
2972	64.9962
2968	64.95
2964	64.9361
2960	64.9979
2956	65.0049
2952	64.9456
2948	64.9744
2944	65.1143
2940	65.2059
2936	65.1153
2932	65.0196
2928	65.085
2924	65.1335
2920	65.0443
2916	64.9487
2912	64.9314
2908	64.9263
2904	64.9922
2900	65.1206
2896	65.1423
2892	65.0843
2888	65.0511
2884	65.0219
2880	64.9692
2876	64.9635
2872	65.0592
2868	65.1519
2864	65.1696
2860	65.1479
2856	65.1383
2852	65.0934
2848	64.9728
2844	64.9318
2840	64.9815
2836	64.9822
2832	64.983
2828	65.0549
2824	65.0869
2820	65.0151
2816	64.9493
2812	64.9429
2808	64.9641
2804	64.9799
2800	65.0341
2796	65.1271
2792	65.1284
2788	65.0209
2784	64.9224
2780	64.9539
2776	65.0633
2772	65.1551
2768	65.2538
2764	65.2932
2760	65.2546
2756	65.222
2752	65.195
2748	65.1768
2744	65.1615
2740	65.1076
2736	65.043
2732	65.0091
2728	64.9928
2724	65.006
2720	65.0375
2716	65.0129
2712	64.9578
2708	64.9381
2704	64.9795
2700	65.0745
2696	65.1388
2692	65.115
2688	65.0549
2684	65.0262
2680	65.0658
2676	65.1591
2672	65.1854
2668	65.1247
2664	65.0996
2660	65.1086
2656	65.0733
2652	65.0315
2648	65.0457
2644	65.0799
2640	65.1015
2636	65.1118
2632	65.0721
2628	64.9775
2624	64.9168
2620	64.9593
2616	65.014
2612	65.0093
2608	65.007
2604	65.0368
2600	65.0645
2596	65.0455
2592	65.0537
2588	65.1193
2584	65.0983
2580	64.9945
2576	64.9634
2572	64.9958
2568	65.011
2564	65.012
2560	65.0022
2556	64.9843
2552	64.928
2548	64.8812
2544	64.9384
2540	65.0096
2536	65.0172
2532	65.0145
2528	65.026
2524	65.0253
2520	64.9806
2516	64.9418
2512	64.954
2508	64.9961
2504	65.0695
2500	65.1038
2496	65.031
2492	64.9054
2488	64.8652
2484	64.9108
2480	64.9327
2476	64.9417
2472	64.921
2468	64.9078
2464	64.9603
2460	64.9534
2456	64.8846
2452	64.9022
2448	64.9527
2444	64.9837
2440	65.0404
2436	65.012
2432	64.9033
2428	64.8659
2424	64.8837
2420	64.8514
2416	64.822
2412	64.8741
2408	64.9065
2404	64.9123
2400	64.9814
2396	65.0547
2392	65.0602
2388	64.9971
2384	64.8935
2380	64.8113
2376	64.8096
2372	64.8722
2368	64.9127
2364	64.8983
2360	64.8571
2356	64.8446
2352	64.853
2348	64.8581
2344	64.8979
2340	64.918
2336	64.8807
2332	64.8619
2328	64.8445
2324	64.8039
2320	64.8313
2316	64.9187
2312	64.9228
2308	64.8505
2304	64.8484
2300	64.8932
2296	64.8854
2292	64.8632
2288	64.8704
2284	64.8593
2280	64.8209
2276	64.8004
2272	64.7764
2268	64.7145
2264	64.673
2260	64.723
2256	64.7984
2252	64.8125
2248	64.8052
2244	64.8011
2240	64.8015
2236	64.8536
2232	64.9196
2228	64.8968
2224	64.8265
2220	64.8085
2216	64.8242
2212	64.8518
2208	64.8938
2204	64.9438
2200	64.975
2196	64.939
2192	64.8633
2188	64.8328
2184	64.8992
2180	64.9648
2176	64.9236
2172	64.8656
2168	64.8538
2164	64.8548
2160	64.8529
2156	64.8423
2152	64.836
2148	64.848
2144	64.8738
2140	64.8276
2136	64.7757
2132	64.7992
2128	64.775
2124	64.7709
2120	64.8387
2116	64.889
2112	64.8948
2108	64.8669
2104	64.847
2100	64.826
2096	64.8075
2092	64.8138
2088	64.8128
2084	64.7806
2080	64.7521
2076	64.7834
2072	64.8756
2068	64.9283
2064	64.8815
2060	64.8283
2056	64.8544
2052	64.8553
2048	64.77
2044	64.7296
2040	64.7499
2036	64.7627
2032	64.7822
2028	64.8155
2024	64.8499
2020	64.8661
2016	64.8494
2012	64.8172
2008	64.8474
2004	64.9166
2000	64.9031
1996	64.8303
1992	64.7845
1988	64.7648
1984	64.732
1980	64.6995
1976	64.7228
1972	64.7995
1968	64.8522
1964	64.8597
1960	64.8175
1956	64.7532
1952	64.7445
1948	64.7393
1944	64.7315
1940	64.7579
1936	64.7318
1932	64.6392
1928	64.6401
1924	64.7733
1920	64.826
1916	64.7371
1912	64.6749
1908	64.6812
1904	64.689
1900	64.6803
1896	64.686
1892	64.7171
1888	64.7287
1884	64.6705
1880	64.5756
1876	64.5813
1872	64.6619
1868	64.6738
1864	64.6203
1860	64.572
1856	64.5943
1852	64.6491
1848	64.6127
1844	64.5756
1840	64.6248
1836	64.6326
1832	64.6055
1828	64.6292
1824	64.6624
1820	64.6745
1816	64.7049
1812	64.7252
1808	64.7005
1804	64.6786
1800	64.6356
1796	64.5632
1792	64.5191
1788	64.5235
1784	64.5824
1780	64.6415
1776	64.6152
1772	64.5481
1768	64.5413
1764	64.5593
1760	64.5468
1756	64.5541
1752	64.5328
1748	64.4086
1744	64.3086
1740	64.3017
1736	64.3246
1732	64.3751
1728	64.4307
1724	64.4516
1720	64.4542
1716	64.4448
1712	64.4375
1708	64.4707
1704	64.5649
1700	64.6763
1696	64.7137
1692	64.6989
1688	64.6946
1684	64.6389
1680	64.5531
1676	64.5445
1672	64.5824
1668	64.57
1664	64.5256
1660	64.495
1656	64.4592
1652	64.4222
1648	64.3775
1644	64.3582
1640	64.4078
1636	64.4868
1632	64.534
1628	64.5159
1624	64.4457
1620	64.3596
1616	64.3471
1612	64.4323
1608	64.472
1604	64.4112
1600	64.3554
1596	64.4047
1592	64.5222
1588	64.5632
1584	64.5095
1580	64.4418
1576	64.3673
1572	64.3325
1568	64.4148
1564	64.5578
1560	64.5976
1556	64.5096
1552	64.4221
1548	64.4069
1544	64.4005
1540	64.3388
1536	64.3251
1532	64.366
1528	64.346
1524	64.2822
1520	64.2665
1516	64.3264
1512	64.3904
1508	64.4201
1504	64.4512
1500	64.4942
1496	64.5001
1492	64.4757
1488	64.4962
1484	64.5169
1480	64.473
1476	64.3689
1472	64.2874
1468	64.3118
1464	64.307
1460	64.2476
1456	64.3058
1452	64.3777
1448	64.3311
1444	64.2986
1440	64.3477
1436	64.3619
1432	64.3
1428	64.2362
1424	64.2164
1420	64.2641
1416	64.326
1412	64.3248
1408	64.2878
1404	64.2381
1400	64.1993
1396	64.1845
1392	64.1853
1388	64.2088
1384	64.1922
1380	64.1507
1376	64.1789
1372	64.2586
1368	64.2804
1364	64.2063
1360	64.1119
1356	64.0593
1352	64.0817
1348	64.1892
1344	64.3016
1340	64.3425
1336	64.3137
1332	64.2369
1328	64.1665
1324	64.1292
1320	64.1477
1316	64.2138
1312	64.2398
1308	64.2737
1304	64.3433
1300	64.332
1296	64.2525
1292	64.224
1288	64.2293
1284	64.1625
1280	64.0581
1276	64.0315
1272	64.0568
1268	64.0615
1264	64.0773
1260	64.1333
1256	64.1962
1252	64.232
1248	64.1945
1244	64.1382
1240	64.1224
1236	64.1114
1232	64.1249
1228	64.1226
1224	64.0993
1220	64.1386
1216	64.2091
1212	64.2216
1208	64.1517
1204	64.0925
1200	64.0938
1196	64.0911
1192	64.0808
1188	64.0852
1184	64.1247
1180	64.1996
1176	64.1787
1172	64.0516
1168	64.0036
1164	64.0955
1160	64.1222
1156	63.9721
1152	63.8794
1148	63.9503
1144	64.0135
1140	63.9716
1136	63.9044
1132	63.9117
1128	63.9488
1124	63.9725
1120	64.0127
1116	64.0192
1112	64.0212
1108	64.1289
1104	64.1688
1100	64.0087
1096	63.8927
1092	63.9215
1088	63.9801
1084	64.0048
1080	64.0125
1076	64.0138
1072	63.9687
1068	63.9701
1064	64.0106
1060	63.9733
1056	63.9378
1052	63.937
1048	63.9453
1044	63.9449
1040	63.8987
1036	63.9433
1032	64.0904
1028	64.2032
1024	64.2711
1020	64.2412
1016	64.1934
1012	64.1922
1008	64.1403
1004	64.0987
1000	64.1145
996	 64.1365
992	 64.1437
988	 64.1221
984	 64.1367
980	 64.1792
976	 64.09
972	 63.9881
968	 64.0076
964	 64.0299
960	 64.0031
956	 63.9338
952	 63.8994
948	 63.9268
944	 63.9311
940	 63.9495
936	 64.0022
932	 64.0105
928	 64.0275
924	 64.0435
920	 64.012
916	 64.0525
912	 64.1091
908	 64.0428
904	 64.0076
900	 64.0817
896	 64.0922
892	 64.0262
888	 63.9753
884	 63.9923
880	 64.0871
876	 64.0962
872	 63.9832
868	 64.0048
864	 64.1312
860	 64.1464
856	 64.1182
852	 64.0986
848	 64.0478
844	 64.0316
840	 64.0336
836	 63.9215
832	 63.7595
828	 63.7012
824	 63.6851
820	 63.6988
816	 63.7844
812	 63.8566
808	 63.8724
804	 63.8163
800	 63.8633
796	 64.0966
792	 64.1875
788	 64.1663
784	 64.1897
780	 63.9964
776	 63.8025
772	 63.8978
768	 63.9472
764	 63.7985
760	 63.6683
756	 63.6324
752	 63.6539
748	 63.6567
744	 63.5064
740	 63.5001
736	 63.8151
732	 63.9124
728	 63.6459
724	 63.5167
720	 63.5937
716	 63.4837
712	 63.3855
708	 63.7122
704	 64.0447
700	 63.9325
696	 63.8284
692	 63.9976
688	 63.9268
684	 63.4319
680	 62.9718
676	 62.8434
672	 62.9899
668	 63.2682
664	 63.3638
660	 63.4052
656	 63.5126
652	 63.6611
648	 63.9167
644	 63.9343
640	 64.0631
636	 64.7091
632	 65.3177
628	 65.22
624	 64.1908
620	 63.0325
616	 62.6126
612	 62.9581
608	 63.6109
604	 63.9227
600	 64.1896
596	 64.6809
592	 64.5975
588	 63.9017
584	 63.3576
580	 63.4254
576	 64.0598
572	 64.4001
568	 63.928
564	 63.4482
560	 63.4135
556	 63.6278
552	 63.9675
548	 64.1095
544	 64.2145
540	 64.2801
536	 63.9462
532	 63.6146
528	 63.8426
524	 64.241
520	 64.0458
516	 63.6034
512	 63.3633
508	 63.262
504	 63.3582
500	 63.5705
496	 63.7053
492	 63.5328
488	 63.306
484	 63.5927
480	 64.198
476	 64.286
472	 63.7743
468	 63.4788
464	 63.2736
460	 62.5533
456	 61.9268
452	 62.0142
448	 62.5883
444	 62.7425
440	 62.2493
436	 62.7012
432	 63.6948
428	 63.2493
424	 62.2116
420	 61.866
416	 62.4385
412	 63.9459
408	 66.2384
404	 68.525
400	 68.562
396	 69.6864
392	 75.0047
388	 77.2747
384	 69.2705
380	 55.6688
376	 44.9481
372	 40.4587
370	 43.2255