File: Bakgrunnsmateriale/MATLAB/FTIR/ftir_data/subAa/Mapping_121/BZ1503107-1_t52_cm-1.asc
PE IR       SPECTRUM    SPECTRUM    ASCII       PEDS        1.60
  -1
BZ6AA3~1.ASC
17/04/07
17:31:23.00
17/04/07
17:31:23.00
tln
$BZ1503107-1_t0052$<tbV0>[-5.2,-2.6,8.0,0.0,27,1,0]
370
64

2002,4.07
MIRTGS : RIGHTBACK : INTERNAL 2
MIR : ON : INTERNAL 2
OPTKBR

0.200000
8
8.000000
FILLER
RATIO
SPECTRUM
UNLOCKED 256

DOUBLE
64
COMBINED
1
0
0

1.000000
RATIO

1
0
TRUE
51149
0
LEFT NOT FITTED RIGHT NOT FITTED 0
NONE
NONE
15600
12
4.427000
51148
TRUE
1 0 8 72 0 0 0 0

15798

#HDR
-1
-1
#GR
CM-1
%T
2.38419e-05
0.0
5000
-1.000000
4631
8
73.1369
54.122
#DATA
5000	66.481
4996	67.2652
4992	65.8064
4988	64.951
4984	65.1844
4980	64.9357
4976	65.103
4972	66.1229
4968	66.501
4964	66.0223
4960	65.489
4956	65.0456
4952	64.6048
4948	64.6465
4944	64.9936
4940	65.1968
4936	65.3235
4932	65.4942
4928	65.3853
4924	64.6969
4920	64.0205
4916	64.0205
4912	64.549
4908	64.9181
4904	64.9049
4900	64.7537
4896	64.7898
4892	65.0853
4888	65.2173
4884	65.0702
4880	64.8617
4876	64.4725
4872	64.1065
4868	64.161
4864	64.2868
4860	64.4511
4856	64.5675
4852	64.4185
4848	64.4037
4844	64.5427
4840	64.6664
4836	64.7799
4832	64.86
4828	64.7826
4824	64.5791
4820	64.5567
4816	64.6095
4812	64.5591
4808	64.548
4804	64.5904
4800	64.7069
4796	64.8442
4792	64.9049
4788	64.9481
4784	65.0847
4780	65.2382
4776	65.1073
4772	64.7854
4768	64.7036
4764	64.8242
4760	64.83
4756	64.6775
4752	64.5685
4748	64.6951
4744	64.9652
4740	65.1349
4736	65.0593
4732	64.8592
4728	64.7151
4724	64.6755
4720	64.673
4716	64.5575
4712	64.5254
4708	64.6487
4704	64.5917
4700	64.5626
4696	64.8632
4692	65.1976
4688	65.1954
4684	65.0591
4680	65.1983
4676	65.2826
4672	65.0192
4668	64.7723
4664	64.6326
4660	64.6207
4656	64.8252
4652	64.8859
4648	64.6751
4644	64.5815
4640	64.7256
4636	64.7103
4632	64.5463
4628	64.5765
4624	64.6931
4620	64.7058
4616	64.6851
4612	64.7593
4608	64.7805
4604	64.7434
4600	64.795
4596	64.8161
4592	64.7989
4588	64.8006
4584	64.7373
4580	64.6778
4576	64.7549
4572	64.8191
4568	64.754
4564	64.6273
4560	64.6453
4556	64.8995
4552	65.2073
4548	65.2223
4544	64.8666
4540	64.5941
4536	64.5882
4532	64.7426
4528	65.0195
4524	65.1525
4520	65.0708
4516	64.993
4512	64.8946
4508	64.9275
4504	65.0985
4500	65.0717
4496	64.9442
4492	64.7968
4488	64.561
4484	64.4384
4480	64.358
4476	64.1536
4472	64.1587
4468	64.6669
4464	64.9851
4460	65.2925
4456	65.8922
4452	66.0042
4448	66.8609
4444	70.4666
4440	73.1369
4436	67.3751
4432	60.6745
4428	62.3081
4424	63.7033
4420	62.0804
4416	61.7041
4412	63.2756
4408	64.3578
4404	64.3492
4400	64.4826
4396	64.7541
4392	65.1382
4388	65.1262
4384	64.6743
4380	64.5035
4376	64.5449
4372	64.4364
4368	64.4286
4364	64.7803
4360	65.4237
4356	65.8688
4352	65.672
4348	65.2499
4344	65.0471
4340	64.8879
4336	64.7599
4332	64.6849
4328	64.6689
4324	64.8033
4320	64.8872
4316	64.8472
4312	64.8882
4308	64.9543
4304	64.9105
4300	64.8084
4296	64.7938
4292	64.9538
4288	65.0621
4284	64.9489
4280	64.8153
4276	64.8764
4272	65.0126
4268	65.0491
4264	64.9991
4260	64.9719
4256	64.9306
4252	64.8153
4248	64.7976
4244	64.8754
4240	64.9346
4236	64.9879
4232	65.06
4228	65.0984
4224	65.0608
4220	65.0301
4216	64.9828
4212	64.9333
4208	64.9903
4204	65.0141
4200	64.9471
4196	64.924
4192	64.9629
4188	65.0208
4184	64.9749
4180	64.8098
4176	64.8468
4172	65.1164
4168	65.2436
4164	65.1485
4160	64.9809
4156	64.8985
4152	64.9244
4148	64.9763
4144	65.0725
4140	65.1517
4136	65.063
4132	64.8478
4128	64.7573
4124	64.908
4120	65.0918
4116	65.1604
4112	65.1725
4108	65.1413
4104	65.1373
4100	65.0793
4096	64.8573
4092	64.7455
4088	64.8134
4084	64.8942
4080	64.9619
4076	65.0307
4072	65.0938
4068	65.0609
4064	65.0408
4060	65.2038
4056	65.2312
4052	65.051
4048	65.006
4044	64.985
4040	64.9222
4036	64.9632
4032	65.1252
4028	65.2884
4024	65.2645
4020	65.1212
4016	65.0438
4012	64.9856
4008	64.8606
4004	64.844
4000	64.9633
3996	65.066
3992	65.1664
3988	65.2598
3984	65.2761
3980	65.2129
3976	65.1382
3972	65.0947
3968	65.0244
3964	64.9642
3960	64.9643
3956	64.9598
3952	64.9527
3948	64.9745
3944	65.0276
3940	65.0882
3936	65.0829
3932	65.0065
3928	64.9481
3924	64.9387
3920	64.9808
3916	65.0811
3912	65.1593
3908	65.2017
3904	65.2217
3900	65.0683
3896	64.9336
3892	65.0425
3888	65.1912
3884	65.2447
3880	65.2762
3876	65.3244
3872	65.2663
3868	65.1294
3864	65.0553
3860	64.9618
3856	64.9489
3852	65.1179
3848	65.1396
3844	65.0056
3840	65.0127
3836	65.1487
3832	65.3152
3828	65.4048
3824	65.3157
3820	65.1217
3816	64.9277
3812	64.8096
3808	64.833
3804	64.9182
3800	64.9074
3796	64.753
3792	64.6521
3788	64.8044
3784	65.0637
3780	65.1606
3776	65.1292
3772	65.0761
3768	64.9544
3764	64.8544
3760	64.8787
3756	64.962
3752	64.9919
3748	64.9553
3744	64.9777
3740	65.0484
3736	65.0444
3732	65.0207
3728	65.0289
3724	65.0914
3720	65.1744
3716	65.1959
3712	65.2846
3708	65.3989
3704	65.2869
3700	65.0596
3696	65.0097
3692	65.0604
3688	65.0605
3684	65.1381
3680	65.253
3676	65.1947
3672	65.0288
3668	64.9624
3664	65.0246
3660	65.1487
3656	65.2274
3652	65.1394
3648	64.9852
3644	64.982
3640	65.1483
3636	65.3419
3632	65.4018
3628	65.2773
3624	65.0835
3620	64.9711
3616	64.9739
3612	65.0136
3608	65.1026
3604	65.1733
3600	65.0714
3596	65.0126
3592	65.0647
3588	65.0262
3584	64.9562
3580	64.9388
3576	64.9759
3572	65.0373
3568	65.0845
3564	65.1038
3560	65.0946
3556	65.1045
3552	65.1727
3548	65.2013
3544	65.1688
3540	65.191
3536	65.193
3532	65.1272
3528	65.1255
3524	65.1953
3520	65.274
3516	65.3581
3512	65.4088
3508	65.3424
3504	65.1405
3500	65.0225
3496	65.1569
3492	65.3141
3488	65.3069
3484	65.2256
3480	65.1608
3476	65.1276
3472	65.0781
3468	65.0131
3464	64.9759
3460	64.9883
3456	65.0588
3452	65.1647
3448	65.187
3444	65.0825
3440	65.0582
3436	65.1251
3432	65.0839
3428	64.9461
3424	64.938
3420	65.0492
3416	65.0513
3412	65.018
3408	64.9989
3404	64.9094
3400	64.8582
3396	64.844
3392	64.8439
3388	64.9979
3384	65.1814
3380	65.1751
3376	65.1033
3372	65.1814
3368	65.2862
3364	65.1989
3360	65.0129
3356	64.8987
3352	64.9207
3348	64.9935
3344	65.0574
3340	65.1404
3336	65.141
3332	65.1214
3328	65.1817
3324	65.172
3320	65.0739
3316	65.001
3312	64.9612
3308	64.9821
3304	65.0123
3300	64.9539
3296	64.9066
3292	64.9568
3288	65.0546
3284	65.1409
3280	65.1542
3276	65.0847
3272	65.0441
3268	65.0695
3264	65.1051
3260	65.1463
3256	65.1771
3252	65.1511
3248	65.0847
3244	65.0635
3240	65.0439
3236	64.9401
3232	64.8322
3228	64.848
3224	64.9281
3220	64.9602
3216	64.9956
3212	64.9996
3208	64.8987
3204	64.8394
3200	64.9054
3196	65.0122
3192	65.0952
3188	65.0968
3184	65.0465
3180	64.9997
3176	64.9489
3172	64.9297
3168	64.9138
3164	64.8271
3160	64.7248
3156	64.7361
3152	64.8461
3148	64.9262
3144	64.9792
3140	65.0354
3136	65.0725
3132	65.119
3128	65.1324
3124	65.0834
3120	65.027
3116	64.9945
3112	64.9776
3108	64.9451
3104	64.933
3100	64.9883
3096	65.0091
3092	64.9113
3088	64.8189
3084	64.8177
3080	64.8897
3076	64.9949
3072	65.0043
3068	64.9342
3064	64.9621
3060	65.0409
3056	65.0227
3052	64.9568
3048	64.9076
3044	64.9157
3040	65.0055
3036	65.0238
3032	64.9476
3028	64.9115
3024	64.9225
3020	64.9519
3016	64.9908
3012	65.0704
3008	65.1516
3004	65.1395
3000	65.043
2996	64.9332
2992	64.8891
2988	64.9294
2984	64.9498
2980	64.9129
2976	64.8977
2972	64.8747
2968	64.8171
2964	64.8045
2960	64.8623
2956	64.9266
2952	64.9326
2948	64.8952
2944	64.87
2940	64.8577
2936	64.8595
2932	64.8469
2928	64.8093
2924	64.7478
2920	64.6889
2916	64.7073
2912	64.7362
2908	64.7481
2904	64.8104
2900	64.8796
2896	64.926
2892	64.9291
2888	64.9169
2884	64.8984
2880	64.809
2876	64.7306
2872	64.7878
2868	64.9543
2864	65.0513
2860	64.9992
2856	64.9525
2852	64.9961
2848	65.0275
2844	64.9811
2840	64.9212
2836	64.9187
2832	64.9429
2828	64.9579
2824	64.96
2820	64.9478
2816	64.926
2812	64.8951
2808	64.8846
2804	64.8967
2800	64.9348
2796	64.9921
2792	65.0457
2788	65.0433
2784	64.9627
2780	64.9155
2776	64.9518
2772	64.9737
2768	64.9197
2764	64.8618
2760	64.8578
2756	64.9021
2752	64.9303
2748	64.9115
2744	64.917
2740	64.9308
2736	64.9481
2732	65.0118
2728	65.0275
2724	64.953
2720	64.9096
2716	64.9304
2712	64.9963
2708	65.0822
2704	65.0843
2700	65.0213
2696	64.9797
2692	64.9427
2688	64.8987
2684	64.8969
2680	64.9572
2676	65.0194
2672	65.0272
2668	65.0007
2664	64.9803
2660	64.9679
2656	64.9367
2652	64.8916
2648	64.8757
2644	64.8813
2640	64.8755
2636	64.8878
2632	64.943
2628	64.9981
2624	64.9709
2620	64.8819
2616	64.8293
2612	64.8198
2608	64.8443
2604	64.907
2600	64.938
2596	64.9057
2592	64.8938
2588	64.8944
2584	64.831
2580	64.8289
2576	64.932
2572	64.9834
2568	64.9219
2564	64.807
2560	64.7429
2556	64.7785
2552	64.8233
2548	64.7968
2544	64.7934
2540	64.8692
2536	64.9276
2532	64.9133
2528	64.894
2524	64.9376
2520	65.0158
2516	65.0854
2512	65.0598
2508	64.9136
2504	64.7893
2500	64.8131
2496	64.8683
2492	64.831
2488	64.8533
2484	64.9608
2480	64.9796
2476	64.8835
2472	64.7763
2468	64.7256
2464	64.7644
2460	64.8779
2456	64.9405
2452	64.9309
2448	64.9401
2444	64.9174
2440	64.8213
2436	64.7628
2432	64.8052
2428	64.8564
2424	64.8344
2420	64.8057
2416	64.8086
2412	64.8299
2408	64.8689
2404	64.8494
2400	64.8154
2396	64.8622
2392	64.8957
2388	64.8648
2384	64.8285
2380	64.7938
2376	64.7741
2372	64.7617
2368	64.7417
2364	64.7461
2360	64.7418
2356	64.7274
2352	64.7524
2348	64.8348
2344	64.9007
2340	64.8546
2336	64.7652
2332	64.7463
2328	64.8082
2324	64.8293
2320	64.775
2316	64.7489
2312	64.7318
2308	64.6982
2304	64.695
2300	64.7226
2296	64.7293
2292	64.7257
2288	64.792
2284	64.8726
2280	64.8408
2276	64.7684
2272	64.7372
2268	64.7139
2264	64.7418
2260	64.7828
2256	64.778
2252	64.7683
2248	64.7346
2244	64.6748
2240	64.6418
2236	64.6245
2232	64.5927
2228	64.5899
2224	64.625
2220	64.6426
2216	64.6658
2212	64.7203
2208	64.735
2204	64.6975
2200	64.6927
2196	64.7329
2192	64.7482
2188	64.7167
2184	64.6734
2180	64.6839
2176	64.7026
2172	64.6231
2168	64.558
2164	64.62
2160	64.692
2156	64.7276
2152	64.7687
2148	64.7877
2144	64.7979
2140	64.8086
2136	64.7707
2132	64.7064
2128	64.677
2124	64.6814
2120	64.7352
2116	64.7555
2112	64.672
2108	64.6272
2104	64.6913
2100	64.7516
2096	64.7194
2092	64.6532
2088	64.6612
2084	64.7197
2080	64.7285
2076	64.644
2072	64.5505
2068	64.561
2064	64.6532
2060	64.7037
2056	64.6562
2052	64.6017
2048	64.5829
2044	64.5722
2040	64.5843
2036	64.6312
2032	64.6773
2028	64.6376
2024	64.5436
2020	64.5468
2016	64.616
2012	64.635
2008	64.6307
2004	64.6447
2000	64.6292
1996	64.5557
1992	64.5191
1988	64.5884
1984	64.676
1980	64.6682
1976	64.585
1972	64.5312
1968	64.5632
1964	64.5775
1960	64.4815
1956	64.4155
1952	64.4696
1948	64.5499
1944	64.5766
1940	64.582
1936	64.6156
1932	64.633
1928	64.5939
1924	64.5314
1920	64.4912
1916	64.4814
1912	64.4914
1908	64.5227
1904	64.5756
1900	64.5815
1896	64.5087
1892	64.4645
1888	64.5174
1884	64.5586
1880	64.5103
1876	64.4561
1872	64.4433
1868	64.4866
1864	64.5831
1860	64.66
1856	64.7022
1852	64.7112
1848	64.6623
1844	64.6098
1840	64.5933
1836	64.5602
1832	64.5408
1828	64.5785
1824	64.5856
1820	64.5159
1816	64.4458
1812	64.4427
1808	64.4664
1804	64.4652
1800	64.4574
1796	64.4833
1792	64.5074
1788	64.4754
1784	64.4503
1780	64.4584
1776	64.4617
1772	64.4712
1768	64.4646
1764	64.4154
1760	64.3677
1756	64.3545
1752	64.3648
1748	64.3556
1744	64.3062
1740	64.228
1736	64.1346
1732	64.116
1728	64.1989
1724	64.2526
1720	64.2323
1716	64.2286
1712	64.2727
1708	64.3283
1704	64.3376
1700	64.2733
1696	64.2295
1692	64.2394
1688	64.2223
1684	64.1884
1680	64.1948
1676	64.2246
1672	64.2332
1668	64.2541
1664	64.3162
1660	64.345
1656	64.3215
1652	64.3147
1648	64.3324
1644	64.2963
1640	64.2072
1636	64.18
1632	64.2534
1628	64.3497
1624	64.3315
1620	64.2344
1616	64.2287
1612	64.2526
1608	64.2073
1604	64.1594
1600	64.1353
1596	64.1418
1592	64.1859
1588	64.2314
1584	64.2411
1580	64.1794
1576	64.1067
1572	64.0821
1568	64.0735
1564	64.1086
1560	64.2221
1556	64.2976
1552	64.2442
1548	64.1547
1544	64.0981
1540	64.0945
1536	64.1113
1532	64.1388
1528	64.1949
1524	64.2255
1520	64.2306
1516	64.2308
1512	64.2077
1508	64.2061
1504	64.2816
1500	64.3554
1496	64.3269
1492	64.2357
1488	64.1709
1484	64.1567
1480	64.1464
1476	64.129
1472	64.1265
1468	64.1491
1464	64.2122
1460	64.2577
1456	64.1799
1452	64.0468
1448	64.0026
1444	64.0485
1440	64.1395
1436	64.2106
1432	64.1769
1428	64.1085
1424	64.1335
1420	64.1654
1416	64.0967
1412	64.0167
1408	64.0336
1404	64.1099
1400	64.1194
1396	64.0823
1392	64.0598
1388	64.0319
1384	64.0412
1380	64.0818
1376	64.1093
1372	64.1437
1368	64.1597
1364	64.1719
1360	64.1978
1356	64.127
1352	63.9548
1348	63.8493
1344	63.891
1340	63.9594
1336	63.9575
1332	63.9331
1328	63.9675
1324	64.0784
1320	64.1317
1316	64.0985
1312	64.0755
1308	64.0553
1304	64.0556
1300	64.0806
1296	64.0828
1292	64.0692
1288	64.0541
1284	64.0131
1280	63.984
1276	64.0111
1272	64.0448
1268	64.0793
1264	64.0673
1260	64.0058
1256	63.9757
1252	63.9808
1248	64.0141
1244	64.0323
1240	63.9709
1236	63.8571
1232	63.8159
1228	63.8445
1224	63.8562
1220	63.8852
1216	63.9442
1212	63.9909
1208	64.0141
1204	64.0002
1200	63.9315
1196	63.8788
1192	63.9136
1188	63.9803
1184	63.9927
1180	63.9324
1176	63.9176
1172	63.9729
1168	63.9278
1164	63.8173
1160	63.7648
1156	63.7308
1152	63.7177
1148	63.7198
1144	63.6815
1140	63.7187
1136	63.8098
1132	63.7768
1128	63.7228
1124	63.8141
1120	63.8592
1116	63.762
1112	63.7345
1108	63.8115
1104	63.7995
1100	63.7167
1096	63.7123
1092	63.7177
1088	63.705
1084	63.7489
1080	63.8201
1076	63.8542
1072	63.8016
1068	63.724
1064	63.7407
1060	63.8002
1056	63.7738
1052	63.6799
1048	63.6283
1044	63.6919
1040	63.7785
1036	63.756
1032	63.743
1028	63.8243
1024	63.8371
1020	63.6889
1016	63.5387
1012	63.5726
1008	63.7124
1004	63.8226
1000	63.8888
996	 63.9059
992	 63.9005
988	 63.9276
984	 63.8998
980	 63.7874
976	 63.8011
972	 63.8724
968	 63.7869
964	 63.6659
960	 63.6317
956	 63.632
952	 63.6844
948	 63.7113
944	 63.6158
940	 63.5093
936	 63.4577
932	 63.4695
928	 63.5729
924	 63.7453
920	 63.8539
916	 63.7829
912	 63.7437
908	 63.8889
904	 63.9169
900	 63.736
896	 63.6608
892	 63.6586
888	 63.5865
884	 63.6143
880	 63.6908
876	 63.6853
872	 63.6639
868	 63.6111
864	 63.6529
860	 63.8196
856	 63.8874
852	 63.8379
848	 63.7613
844	 63.6993
840	 63.6467
836	 63.632
832	 63.7025
828	 63.7449
824	 63.6693
820	 63.5383
816	 63.5149
812	 63.6312
808	 63.7296
804	 63.7273
800	 63.5991
796	 63.4663
792	 63.4313
788	 63.4211
784	 63.5121
780	 63.6335
776	 63.5636
772	 63.4262
768	 63.4509
764	 63.5303
760	 63.5107
756	 63.5136
752	 63.5601
748	 63.5942
744	 63.6476
740	 63.6665
736	 63.6475
732	 63.5449
728	 63.3802
724	 63.3188
720	 63.313
716	 63.338
712	 63.3974
708	 63.346
704	 63.1697
700	 63.0543
696	 63.0509
692	 63.1167
688	 63.3247
684	 63.4773
680	 63.5231
676	 63.5356
672	 63.4432
668	 63.4311
664	 63.5715
660	 63.8112
656	 63.9856
652	 63.9406
648	 63.7692
644	 63.416
640	 63.1477
636	 63.0949
632	 62.8844
628	 62.9808
624	 63.7667
620	 64.151
616	 63.3535
612	 62.6117
608	 62.9442
604	 63.3733
600	 63.6329
596	 64.1839
592	 64.1845
588	 63.5475
584	 63.2375
580	 63.4269
576	 63.4998
572	 63.2278
568	 63.1026
564	 62.8528
560	 62.241
556	 62.0098
552	 62.312
548	 62.7386
544	 62.8326
540	 62.3335
536	 61.787
532	 61.8853
528	 62.4398
524	 63.0641
520	 63.3047
516	 62.8547
512	 62.4385
508	 62.5676
504	 63.1045
500	 63.6447
496	 63.5064
492	 62.8458
488	 62.4291
484	 62.389
480	 62.4756
476	 62.5597
472	 62.4671
468	 62.3492
464	 62.6341
460	 63.1387
456	 63.3633
452	 63.0234
448	 62.6312
444	 62.8946
440	 62.4983
436	 61.1348
432	 61.3043
428	 63.2106
424	 65.14
420	 65.4313
416	 63.0481
412	 61.3968
408	 61.8806
404	 62.5629
400	 63.0811
396	 61.2644
392	 59.7296
388	 63.6328
384	 65.8581
380	 59.9781
376	 54.2482
372	 57.4834
370	 62.1351