File: Bakgrunnsmateriale/MATLAB/FTIR/ftir_data/subAa/Mapping_121/BZ1503107-1_t94.asc
PE IR       SPECTRUM    SPECTRUM    ASCII       PEDS        1.60
  -1
BZ395B~1.ASC
17/04/07
20:59:51.00
17/04/07
21:00:18.00
tln
$BZ1503107-1_t0094$<tbV0>[0.0,7.8,8.0,0.0,27,1,0]
27.028
64

2002,4.07
MIRTGS : RIGHTBACK : INTERNAL 2
MIR : ON : INTERNAL 2
OPTKBR

0.200000
8
8.000000
FILLER
RATIO
SPECTRUM
UNLOCKED 256

DOUBLE
64
COMBINED
1
0
0

0.002000
RATIO

1
0
TRUE
51149
0
LEFT NOT FITTED RIGHT NOT FITTED 0
NONE
NONE
15600
12
4.427000
51148
TRUE
1 0 8 72 0 0 0 0

15798

#HDR
-1
-1
#GR
µM
%T
2.38419e-05
0.0
2.000000
0.002000
12515
8
88.1355
53.5799
#DATA
2.000000	 63.8155
2.018000	 65.0346
2.036000	 64.5266
2.054000	 64.8994
2.072000	 64.4806
2.090000	 64.8464
2.108000	 64.7482
2.126000	 64.627
2.144000	 64.8254
2.162000	 64.9611
2.180000	 64.5745
2.198000	 64.3765
2.216000	 64.074
2.234000	 63.7607
2.252000	 88.1355
2.270000	 64.0767
2.288000	 64.6009
2.306000	 64.5984
2.324000	 64.4926
2.342000	 64.4132
2.360000	 64.7126
2.378000	 64.8593
2.396000	 65.3895
2.414000	 64.9168
2.432000	 65.118
2.450000	 64.943
2.468000	 64.8672
2.486000	 65.0096
2.504000	 64.9307
2.522000	 65.1034
2.540000	 64.8033
2.558000	 64.8544
2.576000	 64.7911
2.594000	 64.9691
2.612000	 64.782
2.630000	 64.8681
2.648000	 65.2286
2.666000	 64.8783
2.684000	 65
2.702000	 65.053
2.720000	 64.9549
2.738000	 65.0175
2.756000	 64.9618
2.774000	 64.9403
2.792000	 64.9583
2.810000	 64.8653
2.828000	 64.9735
2.846000	 64.9146
2.864000	 65.0052
2.882000	 65.0376
2.900000	 65.0028
2.918000	 64.8735
2.936000	 64.9926
2.954000	 64.843
2.972000	 64.8371
2.990000	 64.878
3.008000	 64.6593
3.026000	 64.9126
3.044000	 64.9433
3.062000	 64.8623
3.080000	 64.8605
3.098000	 64.8163
3.116000	 64.7648
3.134000	 65.0192
3.152000	 64.8845
3.170000	 64.8471
3.188000	 64.9179
3.206000	 64.7336
3.224000	 64.7604
3.242000	 64.7697
3.260000	 64.7613
3.278000	 64.8869
3.296000	 64.8077
3.314000	 64.8261
3.332000	 64.7763
3.350000	 64.7177
3.368000	 64.5034
3.386000	 64.533
3.404000	 64.6542
3.422000	 64.8539
3.440000	 64.6606
3.458000	 64.7846
3.476000	 64.6637
3.494000	 64.5849
3.512000	 64.6409
3.530000	 64.7997
3.548000	 64.7454
3.566000	 64.7404
3.584000	 64.785
3.602000	 64.7784
3.620000	 64.7895
3.638000	 64.6437
3.656000	 64.6462
3.674000	 64.8974
3.692000	 64.8094
3.710000	 64.7176
3.728000	 64.588
3.746000	 64.7289
3.764000	 64.6275
3.782000	 64.6737
3.800000	 64.7527
3.818000	 64.5705
3.836000	 64.5587
3.854000	 64.5398
3.872000	 64.7194
3.890000	 64.5919
3.908000	 64.611
3.926000	 64.5752
3.944000	 64.5794
3.962000	 64.583
3.980000	 64.5966
3.998000	 64.5744
4.016000	 64.5477
4.034000	 64.6964
4.052000	 64.6296
4.070000	 64.6322
4.088000	 64.4996
4.106000	 64.5382
4.124000	 64.6483
4.141999	 64.5427
4.160000	 64.5218
4.178000	 64.478
4.196000	 64.4227
4.214000	 64.498
4.232000	 64.4959
4.250000	 64.4398
4.268000	 64.4641
4.286000	 64.4702
4.304000	 64.6307
4.322000	 64.4854
4.340000	 64.4797
4.358000	 64.4806
4.375999	 64.3896
4.394000	 64.4586
4.412000	 64.4618
4.430000	 64.5381
4.448000	 64.4179
4.466000	 64.3018
4.484000	 64.3273
4.502000	 64.4562
4.520000	 64.3447
4.538000	 64.3244
4.556000	 64.2473
4.574000	 64.267
4.592000	 64.2915
4.609999	 64.3713
4.628000	 64.3259
4.646000	 64.2685
4.664000	 64.2344
4.682000	 64.2603
4.700000	 64.3029
4.718000	 64.3437
4.736000	 64.302
4.754000	 64.3151
4.772000	 64.3604
4.790000	 64.3649
4.808000	 64.2233
4.826000	 64.1174
4.843999	 64.252
4.862000	 64.3786
4.880000	 64.2749
4.898000	 64.2364
4.916000	 64.2939
4.934000	 64.2132
4.952000	 64.2137
4.970000	 64.2473
4.988000	 64.2284
5.006000	 64.1675
5.024000	 64.2218
5.042000	 64.1719
5.060000	 64.2164
5.077999	 64.2293
5.096000	 64.1754
5.114000	 64.1748
5.132000	 64.1215
5.150000	 64.1031
5.168000	 64.1368
5.186000	 64.0446
5.204000	 64.0865
5.222000	 64.1046
5.240000	 64.1594
5.258000	 64.1234
5.276000	 64.1342
5.294000	 64.1401
5.312000	 64.0903
5.330000	 64.1141
5.348000	 64.1283
5.366000	 64.0892
5.384000	 64.0875
5.402000	 64.061
5.420000	 63.9288
5.438000	 63.9966
5.456000	 64.0517
5.474000	 64.043
5.492000	 64.1469
5.510000	 64.1285
5.528000	 64.1292
5.546000	 64.0804
5.564000	 64.0955
5.582000	 64.047
5.600000	 63.9019
5.618000	 63.8948
5.636000	 63.8803
5.654000	 63.9119
5.672000	 63.947
5.690000	 63.8319
5.708000	 63.6973
5.726000	 63.6627
5.744000	 63.5579
5.762000	 63.4636
5.780000	 63.5526
5.798000	 63.7238
5.816000	 63.7602
5.834000	 63.798
5.852000	 63.8337
5.870000	 63.7364
5.888000	 63.6543
5.906000	 63.7407
5.923999	 63.7751
5.942000	 63.6819
5.960000	 63.5631
5.978000	 63.5289
5.996000	 63.6183
6.014000	 63.7134
6.032000	 63.7279
6.050000	 63.7734
6.068000	 63.8352
6.086000	 63.7908
6.104000	 63.7348
6.122000	 63.745
6.140000	 63.7717
6.158000	 63.7751
6.176000	 63.82
6.194000	 63.8068
6.212000	 63.7853
6.230000	 63.8006
6.248000	 63.771
6.266000	 63.7593
6.284000	 63.7688
6.302000	 63.7667
6.320000	 63.7245
6.338000	 63.669
6.356000	 63.6653
6.374000	 63.693
6.392000	 63.6457
6.410000	 63.5864
6.428000	 63.5971
6.446000	 63.6075
6.464000	 63.6109
6.482000	 63.6323
6.500000	 63.6981
6.518000	 63.7047
6.536000	 63.6751
6.554000	 63.6622
6.572000	 63.5776
6.590000	 63.5229
6.608000	 63.5761
6.626000	 63.6193
6.644000	 63.6188
6.662000	 63.6491
6.680000	 63.7544
6.698000	 63.8064
6.716000	 63.7549
6.734000	 63.7204
6.752000	 63.7203
6.770000	 63.7342
6.788000	 63.735
6.806000	 63.6888
6.824000	 63.6291
6.842000	 63.5782
6.860000	 63.4918
6.878000	 63.4108
6.896000	 63.4313
6.914000	 63.513
6.932000	 63.5729
6.950000	 63.6088
6.968000	 63.6067
6.986000	 63.5432
7.004000	 63.4807
7.022000	 63.501
7.040000	 63.5628
7.058000	 63.5704
7.076000	 63.544
7.094000	 63.5266
7.112000	 63.5129
7.130000	 63.4978
7.148000	 63.4524
7.166000	 63.4049
7.184000	 63.4258
7.202000	 63.4707
7.220000	 63.4711
7.238000	 63.4335
7.256000	 63.3817
7.274000	 63.3503
7.292000	 63.3842
7.310000	 63.4662
7.328000	 63.5342
7.346000	 63.5479
7.364000	 63.4826
7.382000	 63.3832
7.400000	 63.3728
7.418000	 63.4533
7.436000	 63.4816
7.454000	 63.4113
7.472000	 63.3305
7.490000	 63.3046
7.508000	 63.327
7.526000	 63.3513
7.544000	 63.3552
7.562000	 63.37
7.580000	 63.4045
7.598000	 63.4292
7.616000	 63.4475
7.634000	 63.4643
7.652000	 63.4456
7.670000	 63.3892
7.688000	 63.3423
7.706000	 63.3243
7.724000	 63.3069
7.742000	 63.2566
7.760000	 63.1889
7.778000	 63.1803
7.796000	 63.2701
7.814000	 63.3695
7.832000	 63.3685
7.850000	 63.2824
7.868000	 63.2011
7.886000	 63.1665
7.904000	 63.171
7.922000	 63.2024
7.940000	 63.2402
7.958000	 63.2604
7.976000	 63.2621
7.994000	 63.2639
8.012000	 63.2742
8.030000	 63.2811
8.048000	 63.2599
8.065999	 63.1961
8.084000	 63.1129
8.102000	 63.0535
8.120000	 63.0415
8.138000	 63.0785
8.155999	 63.1596
8.173999	 63.2557
8.192000	 63.3072
8.210000	 63.2792
8.228000	 63.2084
8.246000	 63.1637
8.263999	 63.1739
8.282000	 63.2176
8.300000	 63.2646
8.318000	 63.2993
8.336000	 63.3118
8.353999	 63.2963
8.372000	 63.2601
8.390000	 63.2165
8.408000	 63.1692
8.426000	 63.1144
8.443999	 63.0586
8.462000	 63.0232
8.480000	 63.0223
8.498000	 63.0397
8.516000	 63.0427
8.533999	 63.0189
8.552000	 62.9921
8.570000	 62.989
8.588000	 63.0051
8.606000	 63.0161
8.624000	 63.013
8.641999	 63.0078
8.660000	 63.0138
8.678000	 63.0316
8.696000	 63.0524
8.714000	 63.0711
8.731999	 63.0899
8.750000	 63.116
8.768000	 63.1541
8.786000	 63.1988
8.804000	 63.2294
8.821999	 63.2233
8.840000	 63.1816
8.858000	 63.1346
8.876000	 63.1129
8.894000	 63.1253
8.911999	 63.158
8.930000	 63.1849
8.948000	 63.185
8.966000	 63.1588
8.984000	 63.1236
9.001999	 63.0909
9.020000	 63.0613
9.038000	 63.032
9.056000	 63.0039
9.074000	 62.9839
9.092000	 62.9837
9.109999	 63.0081
9.128000	 63.0444
9.146000	 63.0697
9.164000	 63.0698
9.182000	 63.0494
9.199999	 63.0215
9.218000	 62.9908
9.236000	 62.9485
9.254000	 62.8858
9.272000	 62.8115
9.289999	 62.7548
9.308000	 62.7473
9.326000	 62.7982
9.344000	 62.8829
9.362000	 62.9588
9.379999	 62.9965
9.398000	 62.997
9.416000	 62.9833
9.434000	 62.9758
9.452000	 62.9794
9.469999	 62.9857
9.488000	 62.9859
9.506000	 62.9802
9.524000	 62.9758
9.542000	 62.9795
9.560000	 62.9922
9.577999	 63.0084
9.596000	 63.0205
9.614000	 63.024
9.632000	 63.0181
9.650000	 63.0044
9.667999	 62.9851
9.686000	 62.9649
9.704000	 62.9531
9.722000	 62.9573
9.740000	 62.9749
9.757999	 62.9912
9.776000	 62.9875
9.794000	 62.9557
9.812000	 62.9064
9.830000	 62.8604
9.847999	 62.8321
9.866000	 62.8202
9.884000	 62.8125
9.902000	 62.8
9.920000	 62.7858
9.937999	 62.781
9.956000	 62.7929
9.974000	 62.8173
9.992000	 62.8415
10.01	62.8554
10.028	62.8602
10.046	62.8676
10.064	62.8902
10.082	62.9319
10.1	62.985
10.118	63.0346
10.136	63.0669
10.154	63.0758
10.172	63.0642
10.19	63.0417
10.208	63.0199
10.226	63.0073
10.244	63.0071
10.262	63.0167
10.28	63.03
10.298	63.0412
10.316	63.0461
10.334	63.0436
10.352	63.0348
10.37	63.0232
10.388	63.0144
10.406	63.0134
10.424	63.0204
10.442	63.0273
10.46	63.0219
10.478	62.9947
10.496	62.9475
10.514	62.8936
10.532	62.8538
10.55	62.8439
10.568	62.8679
10.586	62.9144
10.604	62.9636
10.622	62.9959
10.64	63.0014
10.658	62.9822
10.676	62.951
10.694	62.922
10.712	62.9054
10.73	62.9017
10.748	62.9047
10.766	62.9054
10.784	62.8983
10.802	62.8834
10.82	62.8647
10.838	62.8466
10.856	62.8305
10.874	62.8157
10.892	62.8009
10.91	62.7851
10.928	62.7697
10.946	62.757
10.964	62.7493
10.982	62.7476
11	62.7529
11.018	62.7665
11.036	62.7905
11.054	62.8268
11.072	62.8748
11.09	62.9282
11.108	62.9764
11.126	63.0069
11.144	63.0121
11.162	62.9927
11.18	62.9582
11.198	62.9241
11.216	62.9045
11.234	62.9065
11.252	62.9271
11.27	62.955
11.288	62.974
11.306	62.9716
11.324	62.9436
11.342	62.897
11.36	62.8464
11.378	62.8112
11.396	62.8056
11.414	62.834
11.432	62.8895
11.45	62.9563
11.468	63.0151
11.486	63.0524
11.504	63.0634
11.522	63.0525
11.54	63.029
11.558	63.0032
11.576	62.9813
11.594	62.9643
11.612	62.9509
11.63	62.9388
11.648	62.9265
11.666	62.9143
11.684	62.9026
11.702	62.8909
11.72	62.877
11.738	62.8579
11.756	62.8316
11.774	62.7982
11.792	62.7602
11.81	62.7215
11.828	62.6863
11.846	62.6582
11.864	62.639
11.882	62.6297
11.9	62.6311
11.918	62.644
11.936	62.6683
11.954	62.703
11.972	62.7446
11.99	62.7874
12.008	62.825
12.026	62.8519
12.044	62.8655
12.062	62.8673
12.08	62.8623
12.098	62.8575
12.116	62.8592
12.134	62.8708
12.152	62.8921
12.17	62.9201
12.188	62.9503
12.206	62.9789
12.224	63.0032
12.242	63.0218
12.26	63.0342
12.278	63.0406
12.296	63.0413
12.314	63.0369
12.332	63.0273
12.35	63.0118
12.368	62.989
12.386	62.9572
12.404	62.9167
12.422	62.8708
12.44	62.8255
12.458	62.7886
12.476	62.7682
12.494	62.7692
12.512	62.7918
12.53	62.8305
12.548	62.8761
12.566	62.9182
12.584	62.9486
12.602	62.9637
12.62	62.9655
12.638	62.9596
12.656	62.9526
12.674	62.9494
12.692	62.9506
12.71	62.9538
12.728	62.9539
12.746	62.9461
12.764	62.9271
12.782	62.8963
12.8	62.8559
12.818	62.8103
12.836	62.7646
12.854	62.7237
12.872	62.6912
12.89	62.6691
12.908	62.6576
12.926	62.6555
12.944	62.6602
12.962	62.6686
12.98	62.677
12.998	62.6823
13.016	62.6821
13.034	62.6757
13.052	62.6636
13.07	62.6482
13.088	62.6323
13.106	62.6193
13.124	62.6114
13.142	62.6101
13.16	62.616
13.178	62.6286
13.196	62.6472
13.214	62.6707
13.232	62.6985
13.25	62.7291
13.268	62.761
13.286	62.7919
13.304	62.8195
13.322	62.8412
13.34	62.8549
13.358	62.8592
13.376	62.8539
13.394	62.8401
13.412	62.8203
13.43	62.7973
13.448	62.774
13.466	62.7528
13.484	62.7352
13.502	62.7219
13.52	62.713
13.538	62.7083
13.556	62.7076
13.574	62.7108
13.592	62.718
13.61	62.729
13.628	62.7427
13.646	62.7575
13.664	62.7705
13.682	62.7783
13.7	62.7773
13.718	62.7648
13.736	62.7391
13.754	62.7005
13.772	62.6515
13.79	62.5964
13.808	62.5406
13.826	62.4895
13.844	62.448
13.862	62.4186
13.88	62.4021
13.898	62.3968
13.916	62.3997
13.934	62.4065
13.952	62.4131
13.97	62.4161
13.988	62.4134
14.006	62.4045
14.024	62.3904
14.042	62.373
14.06	62.3545
14.078	62.3369
14.096	62.3217
14.114	62.3098
14.132	62.3016
14.15	62.2972
14.168	62.296
14.186	62.2975
14.204	62.3013
14.222	62.3072
14.24	62.3149
14.258	62.324
14.276	62.3341
14.294	62.3448
14.312	62.3553
14.33	62.3652
14.348	62.3742
14.366	62.3822
14.384	62.3899
14.402	62.3987
14.42	62.4099
14.438	62.4253
14.456	62.4456
14.474	62.4706
14.492	62.4983
14.51	62.5254
14.528	62.5472
14.546	62.5595
14.564	62.5589
14.582	62.5434
14.6	62.5131
14.618	62.4708
14.636	62.4211
14.654	62.3704
14.672	62.3249
14.69	62.2902
14.708	62.2707
14.726	62.2694
14.744	62.2865
14.762	62.3203
14.78	62.3673
14.798	62.4229
14.816	62.4819
14.834	62.5385
14.852	62.5874
14.87	62.6247
14.888	62.6479
14.906	62.6561
14.924	62.6495
14.942	62.6301
14.96	62.6011
14.978	62.566
14.996	62.5285
15.014	62.4921
15.032	62.4603
15.05	62.435
15.068	62.4171
15.086	62.4067
15.104	62.403
15.122	62.4042
15.14	62.4082
15.158	62.4132
15.176	62.4175
15.194	62.4197
15.212	62.4194
15.23	62.4165
15.248	62.4117
15.266	62.4062
15.284	62.4011
15.302	62.3977
15.32	62.397
15.338	62.3994
15.356	62.4054
15.374	62.4147
15.392	62.4266
15.41	62.4404
15.428	62.4554
15.446	62.4703
15.464	62.4844
15.482	62.4969
15.5	62.5069
15.518	62.5139
15.536	62.5175
15.554	62.5172
15.572	62.5128
15.59	62.5039
15.608	62.4909
15.626	62.4738
15.644	62.4532
15.662	62.4301
15.68	62.4053
15.698	62.3797
15.716	62.3544
15.734	62.3301
15.752	62.3076
15.77	62.2872
15.788	62.2692
15.806	62.2533
15.824	62.2395
15.842	62.2275
15.86	62.2173
15.878	62.2087
15.896	62.2018
15.914	62.1966
15.932	62.1934
15.95	62.1922
15.968	62.1931
15.986	62.1955
16.004	62.1987
16.022	62.2017
16.04	62.2029
16.058	62.2007
16.076	62.1938
16.094	62.1802
16.112	62.1593
16.13	62.1306
16.148	62.0937
16.166	62.0502
16.184	62.0016
16.202	61.95
16.22	61.8991
16.238	61.8516
16.256	61.8099
16.274	61.7774
16.292	61.7555
16.31	61.7454
16.328	61.7474
16.346	61.7605
16.364	61.7839
16.382	61.8148
16.4	61.8508
16.418	61.8895
16.436	61.9278
16.454	61.9637
16.472	61.9958
16.49	62.0225
16.508	62.0438
16.526	62.0599
16.544	62.0715
16.562	62.0799
16.58	62.086
16.598	62.0919
16.616	62.0982
16.634	62.1061
16.652	62.1164
16.67	62.1295
16.688	62.1454
16.706	62.164
16.724	62.1847
16.742	62.2066
16.76	62.2288
16.778	62.2504
16.796	62.27
16.814	62.286
16.832	62.2975
16.85	62.3024
16.868	62.2994
16.886	62.2872
16.904	62.2646
16.922	62.2314
16.94	62.1871
16.958	62.1335
16.976	62.0716
16.994	62.0042
17.012	61.9347
17.03	61.8657
17.048	61.8026
17.066	61.7479
17.084	61.7054
17.102	61.6785
17.12	61.6686
17.138	61.6771
17.156	61.7026
17.174	61.7444
17.192	61.7979
17.21	61.8608
17.228	61.9275
17.246	61.9935
17.264	62.0552
17.282	62.1069
17.3	62.1474
17.318	62.173
17.336	62.184
17.354	62.1801
17.372	62.1641
17.39	62.1379
17.408	62.1056
17.426	62.0716
17.444	62.0385
17.462	62.0113
17.48	61.9912
17.498	61.9816
17.516	61.9819
17.534	61.9927
17.552	62.0112
17.57	62.0365
17.588	62.0636
17.606	62.09
17.624	62.1117
17.642	62.1248
17.66	62.1274
17.678	62.1162
17.696	62.091
17.714	62.0515
17.732	61.9997
17.75	61.9365
17.768	61.8679
17.786	61.7953
17.804	61.7261
17.822	61.6622
17.84	61.6109
17.858	61.5746
17.876	61.5577
17.894	61.5626
17.912	61.591
17.93	61.6432
17.948	61.7191
17.966	61.8159
17.984	61.9313
18.002	62.061
18.02	62.2002
18.038	62.3449
18.056	62.488
18.074	62.6273
18.092	62.7546
18.11	62.869
18.128	62.9638
18.146	63.0386
18.164	63.0897
18.182	63.1175
18.2	63.1208
18.218	63.1015
18.236	63.0598
18.254	62.9994
18.272	62.921
18.29	62.8299
18.308	62.7269
18.326	62.6177
18.344	62.5031
18.362	62.3888
18.38	62.2755
18.398	62.1671
18.416	62.0649
18.434	61.9717
18.452	61.8883
18.47	61.8157
18.488	61.754
18.506	61.7037
18.524	61.6634
18.542	61.633
18.56	61.6099
18.578	61.594
18.596	61.5819
18.614	61.5736
18.632	61.5657
18.65	61.5581
18.668	61.5489
18.686	61.5379
18.704	61.5234
18.722	61.5059
18.74	61.4858
18.758	61.4637
18.776	61.4414
18.794	61.4199
18.812	61.4019
18.83	61.3883
18.848	61.3817
18.866	61.3828
18.884	61.3939
18.902	61.4151
18.92	61.4478
18.938	61.4913
18.956	61.5459
18.974	61.6101
18.992	61.6827
19.01	61.7619
19.028	61.8454
19.046	61.9312
19.064	62.0161
19.082	62.0988
19.1	62.1761
19.118	62.2474
19.136	62.31
19.154	62.3641
19.172	62.4081
19.19	62.4425
19.208	62.4672
19.226	62.4829
19.244	62.491
19.262	62.492
19.28	62.4885
19.298	62.4805
19.316	62.4713
19.334	62.4605
19.352	62.4507
19.37	62.4415
19.388	62.4349
19.406	62.4309
19.424	62.4292
19.442	62.4301
19.46	62.4327
19.478	62.4374
19.496	62.4419
19.514	62.4459
19.532	62.448
19.55	62.4478
19.568	62.4438
19.586	62.4343
19.604	62.4188
19.622	62.3954
19.64	62.3641
19.658	62.3223
19.676	62.2705
19.694	62.207
19.712	62.132
19.73	62.0448
19.748	61.9452
19.766	61.8339
19.784	61.7105
19.802	61.5769
19.82	61.4334
19.838	61.2819
19.856	61.1244
19.874	60.9619
19.892	60.7996
19.91	60.6368
19.928	60.4807
19.946	60.3303
19.964	60.1929
19.982	60.0686
20	59.9623
20.018	59.8766
20.036	59.813
20.054	59.7763
20.072	59.7658
20.09	59.7853
20.108	59.8343
20.126	59.9133
20.144	60.0229
20.162	60.1598
20.18	60.3243
20.198	60.5125
20.216	60.72
20.234	60.946
20.252	61.1806
20.27	61.4257
20.288	61.6689
20.306	61.9107
20.324	62.1427
20.342	62.3593
20.36	62.5594
20.378	62.7338
20.396	62.8843
20.414	63.0049
20.432	63.0954
20.45	63.1555
20.468	63.1838
20.486	63.1827
20.504	63.1545
20.522	63.0991
20.54	63.0238
20.558	62.9273
20.576	62.8173
20.594	62.6962
20.612	62.5668
20.63	62.4373
20.648	62.3058
20.666	62.1809
20.684	62.062
20.702	61.9533
20.72	61.8585
20.738	61.7768
20.756	61.7113
20.774	61.6614
20.792	61.6279
20.81	61.6117
20.828	61.6109
20.846	61.624
20.864	61.6511
20.882	61.6881
20.9	61.7359
20.918	61.79
20.936	61.8474
20.954	61.9079
20.972	61.9649
20.99	62.0199
21.008	62.0673
21.026	62.1049
21.044	62.1323
21.062	62.1442
21.08	62.1419
21.098	62.123
21.116	62.0862
21.134	62.0324
21.152	61.9615
21.17	61.8733
21.188	61.7715
21.206	61.6556
21.224	61.5286
21.242	61.3954
21.26	61.2541
21.278	61.1134
21.296	60.9734
21.314	60.837
21.332	60.7119
21.35	60.5954
21.368	60.4942
21.386	60.41
21.404	60.3426
21.422	60.2959
21.44	60.2693
21.458	60.262
21.476	60.2751
21.494	60.307
21.512	60.3539
21.53	60.4175
21.548	60.4927
21.566	60.5764
21.584	60.6694
21.602	60.764
21.62	60.8614
21.638	60.958
21.656	61.0484
21.674	61.1345
21.692	61.2119
21.71	61.2789
21.728	61.3362
21.746	61.3821
21.764	61.4166
21.782	61.4406
21.8	61.4544
21.818	61.458
21.836	61.4539
21.854	61.4419
21.872	61.4231
21.89	61.4002
21.908	61.3722
21.926	61.3407
21.944	61.3071
21.962	61.2707
21.98	61.2323
21.998	61.1921
22.016	61.1497
22.034	61.1049
22.052	61.058
22.07	61.0079
22.088	60.9539
22.106	60.8963
22.124	60.8338
22.142	60.7659
22.16	60.6929
22.178	60.6146
22.196	60.5305
22.214	60.442
22.232	60.3507
22.25	60.2555
22.268	60.1596
22.286	60.0643
22.304	59.969
22.322	59.8781
22.34	59.7918
22.358	59.7107
22.376	59.639
22.394	59.5759
22.412	59.5226
22.43	59.482
22.448	59.453
22.466	59.4368
22.484	59.4346
22.502	59.4459
22.52	59.4702
22.538	59.5081
22.556	59.559
22.574	59.6209
22.592	59.6943
22.61	59.7781
22.628	59.8687
22.646	59.9673
22.664	60.072
22.682	60.1787
22.7	60.2893
22.718	60.4008
22.736	60.5094
22.754	60.6172
22.772	60.7208
22.79	60.8172
22.808	60.9082
22.826	60.9905
22.844	61.0619
22.862	61.1239
22.88	61.1736
22.898	61.2097
22.916	61.2332
22.934	61.2421
22.952	61.2359
22.97	61.215
22.988	61.1789
23.006	61.127
23.024	61.0601
23.042	60.979
23.06	60.8834
23.078	60.774
23.096	60.6532
23.114	60.52
23.132	60.3758
23.15	60.2248
23.168	60.066
23.186	59.9007
23.204	59.7345
23.222	59.5658
23.24	59.3963
23.258	59.2331
23.276	59.0745
23.294	58.9221
23.312	58.7828
23.33	58.6553
23.348	58.5406
23.366	58.4455
23.384	58.3693
23.402	58.3121
23.42	58.2789
23.438	58.2699
23.456	58.2844
23.474	58.325
23.492	58.3924
23.51	58.4856
23.528	58.604
23.546	58.7485
23.564	58.9183
23.582	59.1095
23.6	59.3217
23.618	59.5557
23.636	59.8046
23.654	60.066
23.672	60.3428
23.69	60.6262
23.708	60.911
23.726	61.2021
23.744	61.4907
23.762	61.7693
23.78	62.0435
23.798	62.3063
23.816	62.5492
23.834	62.7768
23.852	62.985
23.87	63.1667
23.888	63.3237
23.906	63.4555
23.924	63.5575
23.942	63.6292
23.96	63.6719
23.978	63.6849
23.996	63.667
24.014	63.6189
24.032	63.5438
24.05	63.4431
24.068	63.3146
24.086	63.164
24.104	62.9962
24.122	62.8068
24.14	62.6015
24.158	62.388
24.176	62.1629
24.194	61.9288
24.212	61.6937
24.23	61.4584
24.248	61.221
24.266	60.9884
24.284	60.7646
24.302	60.5459
24.32	60.3363
24.338	60.1399
24.356	59.9546
24.374	59.7814
24.392	59.6228
24.41	59.479
24.428	59.3491
24.446	59.2335
24.464	59.1329
24.482	59.047
24.5	58.9742
24.518	58.9132
24.536	58.8652
24.554	58.8288
24.572	58.802
24.59	58.7851
24.608	58.7781
24.626	58.7796
24.644	58.7887
24.662	58.8061
24.68	58.8314
24.698	58.8641
24.716	58.9041
24.734	58.9518
24.752	59.0073
24.77	59.0704
24.788	59.1412
24.806	59.22
24.824	59.3072
24.842	59.4029
24.86	59.5063
24.878	59.6168
24.896	59.7352
24.914	59.8609
24.932	59.9918
24.95	60.1272
24.968	60.2687
24.986	60.4134
25.004	60.5587
25.022	60.7068
25.04	60.8561
25.058	61.0017
25.076	61.1425
25.094	61.2815
25.112	61.4129
25.13	61.5305
25.148	61.6378
25.166	61.7334
25.184	61.8123
25.202	61.872
25.22	61.9152
25.238	61.9405
25.256	61.9457
25.274	61.9308
25.292	61.8968
25.31	61.8449
25.328	61.7749
25.346	61.6856
25.364	61.5803
25.382	61.463
25.4	61.3311
25.418	61.1855
25.436	61.0327
25.454	60.8772
25.472	60.7134
25.49	60.5466
25.508	60.3845
25.526	60.2276
25.544	60.0723
25.562	59.9261
25.58	59.796
25.598	59.678
25.616	59.5732
25.634	59.4871
25.652	59.423
25.67	59.3773
25.688	59.3522
25.706	59.3506
25.724	59.3737
25.742	59.4198
25.76	59.488
25.778	59.5775
25.796	59.6916
25.814	59.8268
25.832	59.9768
25.85	60.1386
25.868	60.3187
25.886	60.509
25.904	60.6996
25.922	60.89
25.94	61.0857
25.958	61.2758
25.976	61.4494
25.994	61.6115
26.012	61.7625
26.03	61.8923
26.048	61.9925
26.066	62.069
26.084	62.1203
26.102	62.1411
26.12	62.1276
26.138	62.0826
26.156	62.0064
26.174	61.8989
26.192	61.7589
26.21	61.5863
26.228	61.3844
26.246	61.1565
26.264	60.9006
26.282	60.6158
26.3	60.3096
26.318	59.9889
26.336	59.6488
26.354	59.2904
26.372	58.9222
26.39	58.5521
26.408	58.1725
26.426	57.7868
26.444	57.4053
26.462	57.0365
26.48	56.6736
26.498	56.3185
26.516	55.9768
26.534	55.6519
26.552	55.3378
26.57	55.0392
26.588	54.7636
26.606	54.5147
26.624	54.2851
26.642	54.0811
26.66	53.9106
26.678	53.7768
26.696	53.6713
26.714	53.6024
26.732	53.58
26.75	53.6079
26.768	53.6766
26.786	53.795
26.804	53.973
26.822	54.2151
26.84	54.5122
26.858	54.8711
26.876	55.2993
26.894	55.8008
26.912	56.3698
26.93	57.0081
26.948	57.7183
26.966	58.5563
26.984	59.6002
27.002	60.6462
27.02	61.4735
27.028	61.6897