File: Bakgrunnsmateriale/MATLAB/FTIR/ftir_data/subAa/Mapping_121/BZ1503107-1_t62_cm-1.asc
PE IR       SPECTRUM    SPECTRUM    ASCII       PEDS        1.60
  -1
BZ6A21~1.ASC
17/04/07
18:18:13.00
17/04/07
18:18:13.00
tln
$BZ1503107-1_t0062$<tbV0>[-2.6,0.0,8.0,0.0,27,1,0]
370
64

2002,4.07
MIRTGS : RIGHTBACK : INTERNAL 2
MIR : ON : INTERNAL 2
OPTKBR

0.200000
8
8.000000
FILLER
RATIO
SPECTRUM
UNLOCKED 256

DOUBLE
64
COMBINED
1
0
0

1.000000
RATIO

1
0
TRUE
51149
0
LEFT NOT FITTED RIGHT NOT FITTED 0
NONE
NONE
15600
12
4.427000
51148
TRUE
1 0 8 72 0 0 0 0

15798

#HDR
-1
-1
#GR
CM-1
%T
2.38419e-05
0.0
5000
-1.000000
4631
8
77.8431
45.6467
#DATA
5000	65.66
4996	66.3106
4992	66.0528
4988	66.8723
4984	66.7936
4980	65.3302
4976	65.0743
4972	66.1474
4968	67.0589
4964	67.1202
4960	66.5658
4956	65.9612
4952	65.8242
4948	65.8395
4944	65.4578
4940	64.8382
4936	64.7314
4932	65.4888
4928	66.0015
4924	65.7953
4920	65.5246
4916	65.3964
4912	65.1657
4908	64.8441
4904	65.0149
4900	65.5421
4896	65.5545
4892	65.2033
4888	65.0044
4884	64.7755
4880	64.6236
4876	64.8131
4872	64.9915
4868	64.8002
4864	64.5275
4860	64.4549
4856	64.5488
4852	64.7362
4848	64.8254
4844	64.7517
4840	64.5495
4836	64.4143
4832	64.5083
4828	64.6673
4824	64.7811
4820	64.8195
4816	64.687
4812	64.5196
4808	64.393
4804	64.3309
4800	64.6035
4796	64.8859
4792	64.8729
4788	64.8838
4784	64.884
4780	64.8187
4776	64.9222
4772	65.0447
4768	64.975
4764	64.8211
4760	64.7109
4756	64.6269
4752	64.4933
4748	64.4799
4744	64.6878
4740	64.8711
4736	64.9163
4732	64.9239
4728	64.8512
4724	64.7208
4720	64.7439
4716	64.7927
4712	64.7769
4708	64.7241
4704	64.5485
4700	64.5885
4696	64.9296
4692	65.1583
4688	65.0883
4684	64.96
4680	65.0302
4676	65.0938
4672	65.059
4668	65.0237
4664	64.9387
4660	64.9664
4656	65.1415
4652	65.2153
4648	65.219
4644	65.1137
4640	64.8414
4636	64.6899
4632	64.8521
4628	64.9208
4624	64.6513
4620	64.5315
4616	64.6143
4612	64.5946
4608	64.521
4604	64.6049
4600	64.7876
4596	64.7855
4592	64.6747
4588	64.6266
4584	64.6723
4580	64.7575
4576	64.829
4572	64.8283
4568	64.7145
4564	64.7263
4560	64.886
4556	64.8857
4552	64.8607
4548	64.8961
4544	64.8265
4540	64.7628
4536	64.8033
4532	64.8487
4528	64.9351
4524	65.0657
4520	65.1053
4516	64.9765
4512	64.819
4508	64.845
4504	64.9684
4500	64.9808
4496	65.0141
4492	65.0013
4488	64.8634
4484	64.7432
4480	64.6112
4476	64.4992
4472	64.5771
4468	64.6337
4464	64.3901
4460	64.4095
4456	64.537
4452	64.6698
4448	63.7971
4444	64.7448
4440	71.6843
4436	77.8382
4432	73.5715
4428	64.4542
4424	60.8008
4420	60.7979
4416	61.4569
4412	63.4649
4408	64.8274
4404	64.4594
4400	64.4235
4396	65.0302
4392	65.3835
4388	65.1322
4384	64.8091
4380	64.8333
4376	64.9682
4372	64.83
4368	64.6046
4364	64.8763
4360	65.2404
4356	65.2447
4352	65.1185
4348	64.9555
4344	64.8247
4340	64.7984
4336	64.9472
4332	65.2081
4328	65.3728
4324	65.3791
4320	65.2004
4316	64.9665
4312	64.9448
4308	65.1263
4304	65.2793
4300	65.2941
4296	65.0397
4292	64.6822
4288	64.5969
4284	64.705
4280	64.854
4276	65.0627
4272	65.2408
4268	65.2222
4264	65.0109
4260	64.8334
4256	64.7978
4252	64.8768
4248	64.9702
4244	64.9727
4240	64.9997
4236	65.047
4232	65.0769
4228	65.0692
4224	64.9961
4220	64.9827
4216	65.0203
4212	65.0716
4208	65.1043
4204	65.093
4200	65.1235
4196	65.1685
4192	65.1209
4188	64.9986
4184	64.8889
4180	64.9243
4176	65.1009
4172	65.2127
4168	65.2717
4164	65.3119
4160	65.2046
4156	64.9528
4152	64.7389
4148	64.7299
4144	64.7732
4140	64.7966
4136	64.8681
4132	64.9366
4128	65.0584
4124	65.1932
4120	65.1294
4116	64.9937
4112	65.0687
4108	65.1467
4104	65.1114
4100	65.126
4096	65.1021
4092	64.9745
4088	64.9079
4084	64.9798
4080	64.9327
4076	64.7654
4072	64.8207
4068	64.9542
4064	64.8847
4060	64.8206
4056	64.9468
4052	65.0929
4048	65.1909
4044	65.2516
4040	65.2114
4036	65.1543
4032	65.0748
4028	64.945
4024	64.8969
4020	64.9776
4016	65.0514
4012	64.998
4008	64.9437
4004	64.9633
4000	64.9974
3996	65.0612
3992	65.1078
3988	65.0356
3984	64.9441
3980	65.0472
3976	65.1875
3972	65.0732
3968	64.8823
3964	64.8978
3960	64.9664
3956	64.9014
3952	64.8136
3948	64.8423
3944	64.9922
3940	65.0103
3936	64.8117
3932	64.7415
3928	64.8529
3924	65.0076
3920	65.1464
3916	65.1242
3912	65.0474
3908	64.9774
3904	64.8843
3900	64.8917
3896	64.9913
3892	65.1298
3888	65.2535
3884	65.2493
3880	65.137
3876	64.9984
3872	64.9796
3868	65.1124
3864	65.1345
3860	65.0512
3856	65.0751
3852	65.1602
3848	65.1272
3844	65.0143
3840	65.0829
3836	65.2377
3832	65.1872
3828	65.0335
3824	64.9407
3820	64.9121
3816	64.9105
3812	64.8659
3808	64.8332
3804	64.927
3800	65.0169
3796	64.8694
3792	64.7037
3788	64.8366
3784	65.1029
3780	65.197
3776	65.1615
3772	65.1132
3768	65.0411
3764	65.0326
3760	65.0641
3756	65.0441
3752	65.0439
3748	65.0909
3744	65.1298
3740	65.1662
3736	65.1862
3732	65.1222
3728	65.0191
3724	65.0068
3720	65.0843
3716	65.151
3712	65.1877
3708	65.2434
3704	65.3183
3700	65.3134
3696	65.2443
3692	65.1774
3688	65.1189
3684	65.0677
3680	65.0132
3676	64.9978
3672	65.0222
3668	65.0316
3664	65.0088
3660	65.0666
3656	65.1711
3652	65.1631
3648	65.1357
3644	65.2604
3640	65.4501
3636	65.4349
3632	65.2623
3628	65.2105
3624	65.2287
3620	65.1774
3616	65.0894
3612	65.007
3608	65.0553
3604	65.1908
3600	65.2148
3596	65.1541
3592	65.0895
3588	65.0242
3584	64.9624
3580	64.9096
3576	64.9137
3572	65.0153
3568	65.1297
3564	65.1864
3560	65.1872
3556	65.1201
3552	65.0111
3548	64.9217
3544	64.9851
3540	65.2117
3536	65.314
3532	65.1588
3528	65.0098
3524	65.0477
3520	65.1332
3516	65.1564
3512	65.1421
3508	65.1261
3504	65.0956
3500	65.112
3496	65.2106
3492	65.2258
3488	65.1219
3484	65.066
3480	65.0605
3476	65.0198
3472	64.9932
3468	64.958
3464	64.9498
3460	65.0556
3456	65.1376
3452	65.1215
3448	65.0785
3444	65.0986
3440	65.1605
3436	65.1208
3432	65.0039
3428	64.9643
3424	65.0261
3420	65.056
3416	64.9805
3412	64.9012
3408	64.9402
3404	65.036
3400	65.1067
3396	65.1825
3392	65.2064
3388	65.1451
3384	65.0479
3380	64.9905
3376	65.0884
3372	65.2295
3368	65.1891
3364	65.0998
3360	65.0726
3356	64.9638
3352	64.8818
3348	64.9337
3344	64.9784
3340	65.0153
3336	65.1087
3332	65.2148
3328	65.278
3324	65.2153
3320	65.0826
3316	65.0333
3312	65.0754
3308	65.1274
3304	65.1059
3300	65.0411
3296	64.9919
3292	64.9526
3288	64.9496
3284	64.9896
3280	65.0339
3276	65.0147
3272	64.9477
3268	64.9493
3264	65.0093
3260	65.0271
3256	64.9983
3252	64.9715
3248	64.9858
3244	65.0326
3240	65.0223
3236	64.9647
3232	64.9421
3228	64.9812
3224	65.0391
3220	64.9984
3216	64.9073
3212	64.9074
3208	64.9712
3204	65.023
3200	65.0433
3196	65.0541
3192	65.0798
3188	65.0584
3184	65.0058
3180	65.0131
3176	65.0049
3172	65.0207
3168	65.0827
3164	64.988
3160	64.8406
3156	64.912
3152	65.085
3148	65.1321
3144	65.0703
3140	64.9798
3136	64.9303
3132	64.927
3128	64.9558
3124	64.9895
3120	64.9634
3116	64.9498
3112	64.9702
3108	64.9836
3104	65.0133
3100	65.06
3096	65.0304
3092	64.8984
3088	64.8196
3084	64.8224
3080	64.836
3076	64.8635
3072	64.8997
3068	64.9523
3064	65.0463
3060	65.1086
3056	65.0747
3052	64.9968
3048	64.9251
3044	64.8878
3040	64.8984
3036	64.9218
3032	64.9565
3028	64.9792
3024	64.9394
3020	64.9194
3016	64.9933
3012	65.083
3008	65.114
3004	65.0937
3000	64.9869
2996	64.8842
2992	64.9127
2988	64.9553
2984	64.9598
2980	64.9607
2976	64.8902
2972	64.7606
2968	64.6767
2964	64.7064
2960	64.8313
2956	64.9292
2952	64.9455
2948	64.9648
2944	64.9569
2940	64.8509
2936	64.7185
2932	64.7185
2928	64.8834
2924	65.0273
2920	65.0641
2916	65.0034
2912	64.9603
2908	65.032
2904	65.0321
2900	64.9287
2896	64.9009
2892	64.9185
2888	64.9163
2884	64.9109
2880	64.8647
2876	64.8068
2872	64.8625
2868	64.9949
2864	65.0491
2860	65.0276
2856	64.9527
2852	64.8977
2848	64.9333
2844	64.9814
2840	65.0083
2836	65.0119
2832	64.9829
2828	64.9354
2824	64.9234
2820	64.9714
2816	64.9839
2812	64.9696
2808	65.0034
2804	64.9904
2800	64.9055
2796	64.853
2792	64.8688
2788	64.884
2784	64.8756
2780	64.8901
2776	64.9238
2772	64.8911
2768	64.8117
2764	64.8309
2760	64.9233
2756	64.9897
2752	64.9643
2748	64.8894
2744	64.8264
2740	64.7569
2736	64.7614
2732	64.8252
2728	64.8729
2724	64.8844
2720	64.8584
2716	64.8739
2712	64.9189
2708	64.9495
2704	64.9723
2700	64.9773
2696	65.0203
2692	65.0451
2688	64.9471
2684	64.8623
2680	64.9032
2676	64.9707
2672	64.9653
2668	64.887
2664	64.8054
2660	64.7697
2656	64.7643
2652	64.7918
2648	64.8198
2644	64.8374
2640	64.8986
2636	64.9463
2632	64.9199
2628	64.8659
2624	64.8025
2620	64.7354
2616	64.6951
2612	64.6846
2608	64.7224
2604	64.8592
2600	64.9955
2596	64.9793
2592	64.9128
2588	64.9322
2584	64.9508
2580	64.9221
2576	64.9024
2572	64.8791
2568	64.7986
2564	64.696
2560	64.677
2556	64.7324
2552	64.8089
2548	64.8623
2544	64.8378
2540	64.8008
2536	64.7911
2532	64.7715
2528	64.7699
2524	64.8267
2520	64.8676
2516	64.8354
2512	64.8333
2508	64.8416
2504	64.7984
2500	64.8261
2496	64.8807
2492	64.8259
2488	64.7744
2484	64.8409
2480	64.9109
2476	64.8489
2472	64.7197
2468	64.6751
2464	64.7204
2460	64.7753
2456	64.7942
2452	64.7786
2448	64.811
2444	64.8824
2440	64.8821
2436	64.8477
2432	64.8633
2428	64.9009
2424	64.923
2420	64.9153
2416	64.8862
2412	64.8613
2408	64.8523
2404	64.8688
2400	64.8732
2396	64.8271
2392	64.777
2388	64.7866
2384	64.8071
2380	64.7334
2376	64.6728
2372	64.7463
2368	64.8225
2364	64.8342
2360	64.8056
2356	64.7415
2352	64.7215
2348	64.7393
2344	64.7064
2340	64.6931
2336	64.7231
2332	64.7143
2328	64.7278
2324	64.7362
2320	64.6796
2316	64.651
2312	64.6867
2308	64.7607
2304	64.8281
2300	64.8231
2296	64.7624
2292	64.7261
2288	64.7132
2284	64.7038
2280	64.692
2276	64.6591
2272	64.642
2268	64.6872
2264	64.7501
2260	64.7705
2256	64.7659
2252	64.7185
2248	64.6526
2244	64.6498
2240	64.6821
2236	64.7215
2232	64.7483
2228	64.7212
2224	64.669
2220	64.6153
2216	64.5795
2212	64.5925
2208	64.6382
2204	64.6861
2200	64.7289
2196	64.7392
2192	64.6934
2188	64.6372
2184	64.6042
2180	64.6303
2176	64.678
2172	64.6192
2168	64.5552
2164	64.6238
2160	64.7217
2156	64.7518
2152	64.7138
2148	64.6626
2144	64.6794
2140	64.7236
2136	64.656
2132	64.5577
2128	64.5836
2124	64.6286
2120	64.6227
2116	64.6137
2112	64.5807
2108	64.5526
2104	64.5714
2100	64.6006
2096	64.6169
2092	64.6176
2088	64.5897
2084	64.5872
2080	64.6319
2076	64.6354
2072	64.5866
2068	64.5677
2064	64.5815
2060	64.5764
2056	64.5608
2052	64.5396
2048	64.5199
2044	64.516
2040	64.5025
2036	64.4565
2032	64.4546
2028	64.5181
2024	64.5243
2020	64.4921
2016	64.5112
2012	64.5798
2008	64.6218
2004	64.5746
2000	64.5242
1996	64.5393
1992	64.5792
1988	64.6096
1984	64.5703
1980	64.4803
1976	64.4735
1972	64.5464
1968	64.5899
1964	64.526
1960	64.3838
1956	64.3045
1952	64.3527
1948	64.4546
1944	64.5265
1940	64.5756
1936	64.6137
1932	64.5613
1928	64.4624
1924	64.4516
1920	64.4723
1916	64.464
1912	64.5014
1908	64.5362
1904	64.5277
1900	64.4991
1896	64.4594
1892	64.418
1888	64.4125
1884	64.4545
1880	64.4867
1876	64.4737
1872	64.4058
1868	64.3447
1864	64.3618
1860	64.3998
1856	64.4169
1852	64.4147
1848	64.3711
1844	64.3589
1840	64.4104
1836	64.4464
1832	64.4415
1828	64.4248
1824	64.4278
1820	64.4348
1816	64.4334
1812	64.4497
1808	64.4514
1804	64.3799
1800	64.2917
1796	64.2832
1792	64.3082
1788	64.282
1784	64.256
1780	64.2691
1776	64.2989
1772	64.3477
1768	64.3721
1764	64.3443
1760	64.2864
1756	64.2259
1752	64.1895
1748	64.1721
1744	64.1517
1740	64.1161
1736	64.0631
1732	64.0439
1728	64.0858
1724	64.0943
1720	64.113
1716	64.1936
1712	64.2258
1708	64.2286
1704	64.205
1700	64.1364
1696	64.0977
1692	64.07
1688	64.0247
1684	64.0313
1680	64.0959
1676	64.1423
1672	64.1694
1668	64.2283
1664	64.29
1660	64.2624
1656	64.2021
1652	64.1882
1648	64.2006
1644	64.2328
1640	64.2128
1636	64.158
1632	64.1741
1628	64.2211
1624	64.1937
1620	64.1108
1616	64.0922
1612	64.1202
1608	64.1396
1604	64.1856
1600	64.1909
1596	64.1243
1592	64.1004
1588	64.1417
1584	64.1258
1580	64.0407
1576	64.0291
1572	64.0851
1568	64.0954
1564	64.0743
1560	64.1189
1556	64.1991
1552	64.1715
1548	64.0759
1544	64.0603
1540	64.0956
1536	64.0737
1532	64.0511
1528	64.0733
1524	64.0621
1520	64.0272
1516	64.0068
1512	64.0122
1508	64.0473
1504	64.0946
1500	64.1045
1496	64.0952
1492	64.1354
1488	64.13
1484	64.0808
1480	64.0498
1476	64.0176
1472	64.0049
1468	63.9804
1464	63.9499
1460	63.9818
1456	63.9987
1452	63.9338
1448	63.8522
1444	63.8185
1440	63.8947
1436	64.0066
1432	64.0129
1428	63.9968
1424	64.0774
1420	64.134
1416	64.0528
1412	63.9529
1408	63.9343
1404	63.93
1400	63.9125
1396	63.9388
1392	63.9922
1388	64.0262
1384	64.024
1380	63.9929
1376	63.9734
1372	63.9453
1368	63.8684
1364	63.8363
1360	63.9139
1356	63.991
1352	63.9621
1348	63.8778
1344	63.8571
1340	63.8817
1336	63.8848
1332	63.8808
1328	63.8859
1324	63.9001
1320	63.8881
1316	63.8467
1312	63.8057
1308	63.7702
1304	63.7797
1300	63.8868
1296	64.0058
1292	63.9944
1288	63.9346
1284	63.9076
1280	63.847
1276	63.7881
1272	63.7807
1268	63.8448
1264	63.9135
1260	63.8906
1256	63.8317
1252	63.7768
1248	63.764
1244	63.8092
1240	63.8374
1236	63.8209
1232	63.8018
1228	63.8069
1224	63.8242
1220	63.8119
1216	63.759
1212	63.742
1208	63.7767
1204	63.8189
1200	63.8226
1196	63.7209
1192	63.6075
1188	63.6263
1184	63.747
1180	63.8289
1176	63.8227
1172	63.8239
1168	63.8344
1164	63.7407
1160	63.6267
1156	63.6189
1152	63.6403
1148	63.6571
1144	63.6915
1140	63.6877
1136	63.6252
1132	63.5768
1128	63.5879
1124	63.6424
1120	63.6917
1116	63.6668
1112	63.6296
1108	63.7009
1104	63.7602
1100	63.7553
1096	63.7799
1092	63.7283
1088	63.6582
1084	63.7099
1080	63.7793
1076	63.7244
1072	63.6031
1068	63.6001
1064	63.7011
1060	63.7177
1056	63.6134
1052	63.5931
1048	63.7055
1044	63.7259
1040	63.6288
1036	63.5334
1032	63.4937
1028	63.572
1024	63.6976
1020	63.6836
1016	63.5905
1012	63.6154
1008	63.7028
1004	63.6833
1000	63.6349
996	 63.6873
992	 63.7327
988	 63.7213
984	 63.7338
980	 63.7563
976	 63.7558
972	 63.7355
968	 63.6757
964	 63.5891
960	 63.4984
956	 63.4288
952	 63.4382
948	 63.4668
944	 63.4335
940	 63.3624
936	 63.3663
932	 63.4877
928	 63.6038
924	 63.6096
920	 63.5974
916	 63.6304
912	 63.6281
908	 63.6298
904	 63.6325
900	 63.5575
896	 63.4668
892	 63.3979
888	 63.4167
884	 63.5572
880	 63.6325
876	 63.6028
872	 63.571
868	 63.6075
864	 63.6869
860	 63.6271
856	 63.465
852	 63.3717
848	 63.4212
844	 63.5745
840	 63.6081
836	 63.5481
832	 63.5705
828	 63.5397
824	 63.4088
820	 63.396
816	 63.5077
812	 63.6093
808	 63.6321
804	 63.5337
800	 63.3908
796	 63.3282
792	 63.3085
788	 63.2583
784	 63.3111
780	 63.4531
776	 63.4834
772	 63.5035
768	 63.6056
764	 63.6256
760	 63.4576
756	 63.2043
752	 63.1024
748	 63.1974
744	 63.3257
740	 63.3636
736	 63.2983
732	 63.2087
728	 63.2556
724	 63.3726
720	 63.3607
716	 63.2921
712	 63.1896
708	 63.0525
704	 63.0297
700	 63.1211
696	 63.1265
692	 63.1458
688	 63.2649
684	 63.2599
680	 63.3496
676	 63.3973
672	 63.1602
668	 63.1044
664	 63.1749
660	 63.2774
656	 63.4189
652	 63.3023
648	 63.2962
644	 63.4657
640	 63.4384
636	 63.2709
632	 62.9816
628	 62.863
624	 63.3734
620	 63.9267
616	 63.3952
612	 62.6047
608	 63.1157
604	 64.1121
600	 64.3229
596	 64.286
592	 64.3324
588	 63.8944
584	 63.5563
580	 63.1958
576	 61.9277
572	 61.4522
568	 62.4421
564	 63.0585
560	 63.2174
556	 63.6183
552	 63.7509
548	 63.6453
544	 63.4132
540	 62.678
536	 62.3281
532	 63.1697
528	 64.1894
524	 64.151
520	 63.1891
516	 62.524
512	 62.622
508	 62.8902
504	 63.0733
500	 63.2338
496	 63.2135
492	 62.7718
488	 62.376
484	 62.4031
480	 62.5392
476	 62.6627
472	 62.9369
468	 63.2805
464	 63.4515
460	 63.5501
456	 63.403
452	 63.1032
448	 63.0836
444	 63.0846
440	 62.616
436	 62.2594
432	 62.5833
428	 62.4644
424	 61.6949
420	 61.476
416	 61.5635
412	 62.1984
408	 62.2445
404	 60.3616
400	 60.8534
396	 63.3547
392	 63.1021
388	 59.9242
384	 54.5627
380	 52.0886
376	 58.3867
372	 54.4525
370	 45.6467