File: Bakgrunnsmateriale/MATLAB/FTIR/ftir_data/subAa/Mapping_121/BZ1503107-1_t121.asc
PE IR       SPECTRUM    SPECTRUM    ASCII       PEDS        1.60
  -1
BZCEB6~1.ASC
17/04/07
23:11:28.00
17/04/07
23:11:54.00
tln
$BZ1503107-1_t0121$<tbV0>[-13.0,13.0,8.0,0.0,27,1,0]
27.028
64

2002,4.07
MIRTGS : RIGHTBACK : INTERNAL 2
MIR : ON : INTERNAL 2
OPTKBR

0.200000
8
8.000000
FILLER
RATIO
SPECTRUM
UNLOCKED 256

DOUBLE
64
COMBINED
1
0
0

0.002000
RATIO

1
0
TRUE
51149
0
LEFT NOT FITTED RIGHT NOT FITTED 0
NONE
NONE
15600
12
4.427000
51148
TRUE
1 0 8 72 0 0 0 0

15798

#HDR
-1
-1
#GR
µM
%T
2.38419e-05
0.0
2.000000
0.002000
12515
8
69.7381
44.8831
#DATA
2.000000	 66.3362
2.018000	 64.8964
2.036000	 65.1801
2.054000	 64.9059
2.072000	 64.5338
2.090000	 64.2893
2.108000	 64.3867
2.126000	 64.6807
2.144000	 64.5938
2.162000	 64.6049
2.180000	 64.4924
2.198000	 64.8044
2.216000	 64.7708
2.234000	 64.5817
2.252000	 68.3815
2.270000	 65.4701
2.288000	 65.1269
2.306000	 65.2744
2.324000	 64.7684
2.342000	 64.7359
2.360000	 64.6113
2.378000	 64.9197
2.396000	 64.8602
2.414000	 64.9388
2.432000	 64.7811
2.450000	 64.8639
2.468000	 64.8969
2.486000	 64.6932
2.504000	 65.0165
2.522000	 64.8904
2.540000	 64.8487
2.558000	 64.8863
2.576000	 65.1449
2.594000	 65.0715
2.612000	 65.0444
2.630000	 65.1426
2.648000	 65.071
2.666000	 64.6765
2.684000	 64.8311
2.702000	 64.9173
2.720000	 64.8806
2.738000	 64.9741
2.756000	 65.0373
2.774000	 64.9385
2.792000	 64.924
2.810000	 64.8383
2.828000	 64.88
2.846000	 64.7314
2.864000	 64.8698
2.882000	 64.8724
2.900000	 64.7551
2.918000	 64.9435
2.936000	 64.9804
2.954000	 64.6195
2.972000	 64.8764
2.990000	 64.6272
3.008000	 64.9057
3.026000	 64.7605
3.044000	 64.8658
3.062000	 64.8875
3.080000	 64.973
3.098000	 64.7488
3.116000	 64.8175
3.134000	 64.8589
3.152000	 64.8601
3.170000	 64.8612
3.188000	 64.7781
3.206000	 64.7687
3.224000	 64.7756
3.242000	 64.8424
3.260000	 64.5726
3.278000	 64.7147
3.296000	 64.7889
3.314000	 64.6847
3.332000	 64.7239
3.350000	 64.6891
3.368000	 64.6676
3.386000	 64.5257
3.404000	 64.5218
3.422000	 64.4638
3.440000	 64.3478
3.458000	 64.6139
3.476000	 64.516
3.494000	 64.5495
3.512000	 64.6307
3.530000	 64.5382
3.548000	 64.649
3.566000	 64.5811
3.584000	 64.5483
3.602000	 64.6873
3.620000	 64.5989
3.638000	 64.6774
3.656000	 64.5612
3.674000	 64.5889
3.692000	 64.5782
3.710000	 64.4889
3.728000	 64.4876
3.746000	 64.5362
3.764000	 64.5247
3.782000	 64.4534
3.800000	 64.4266
3.818000	 64.4774
3.836000	 64.4181
3.854000	 64.3142
3.872000	 64.3449
3.890000	 64.403
3.908000	 64.4388
3.926000	 64.4204
3.944000	 64.4354
3.962000	 64.4283
3.980000	 64.4337
3.998000	 64.3501
4.016000	 64.4314
4.034000	 64.4305
4.052000	 64.5498
4.070000	 64.428
4.088000	 64.393
4.106000	 64.3061
4.124000	 64.2458
4.141999	 64.3499
4.160000	 64.2664
4.178000	 64.2995
4.196000	 64.2213
4.214000	 64.3701
4.232000	 64.3151
4.250000	 64.231
4.268000	 64.3256
4.286000	 64.304
4.304000	 64.2631
4.322000	 64.1992
4.340000	 64.1869
4.358000	 64.2162
4.375999	 64.2025
4.394000	 64.19
4.412000	 64.2448
4.430000	 64.2246
4.448000	 64.2578
4.466000	 64.1257
4.484000	 64.0354
4.502000	 64.1404
4.520000	 64.2589
4.538000	 64.2187
4.556000	 64.1383
4.574000	 64.1805
4.592000	 64.1275
4.609999	 63.9635
4.628000	 64.0381
4.646000	 64.0472
4.664000	 64.1749
4.682000	 64.1153
4.700000	 64.0459
4.718000	 63.9503
4.736000	 64.0961
4.754000	 64.1006
4.772000	 64.0219
4.790000	 64.0388
4.808000	 64.0468
4.826000	 63.8816
4.843999	 63.989
4.862000	 63.9402
4.880000	 63.9822
4.898000	 63.9498
4.916000	 63.9528
4.934000	 63.9392
4.952000	 63.9655
4.970000	 63.9414
4.988000	 63.9004
5.006000	 63.8684
5.024000	 63.7876
5.042000	 63.7506
5.060000	 63.8037
5.077999	 63.8446
5.096000	 63.7965
5.114000	 63.762
5.132000	 63.7401
5.150000	 63.8853
5.168000	 63.9157
5.186000	 63.9701
5.204000	 63.8756
5.222000	 63.8473
5.240000	 63.9106
5.258000	 63.8454
5.276000	 63.7665
5.294000	 63.7521
5.312000	 63.8621
5.330000	 63.8843
5.348000	 63.793
5.366000	 63.8333
5.384000	 63.8748
5.402000	 63.85
5.420000	 63.7374
5.438000	 63.7518
5.456000	 63.7919
5.474000	 63.7908
5.492000	 63.8225
5.510000	 63.7942
5.528000	 63.7433
5.546000	 63.7465
5.564000	 63.7515
5.582000	 63.7216
5.600000	 63.7541
5.618000	 63.7763
5.636000	 63.7033
5.654000	 63.6273
5.672000	 63.6387
5.690000	 63.6708
5.708000	 63.5772
5.726000	 63.4893
5.744000	 63.4597
5.762000	 63.3636
5.780000	 63.3367
5.798000	 63.3899
5.816000	 63.4538
5.834000	 63.5249
5.852000	 63.5164
5.870000	 63.4335
5.888000	 63.473
5.906000	 63.5262
5.923999	 63.5543
5.942000	 63.5833
5.960000	 63.5482
5.978000	 63.5113
5.996000	 63.4906
6.014000	 63.448
6.032000	 63.4283
6.050000	 63.405
6.068000	 63.4554
6.086000	 63.5193
6.104000	 63.5189
6.122000	 63.4937
6.140000	 63.4255
6.158000	 63.3423
6.176000	 63.3662
6.194000	 63.368
6.212000	 63.3308
6.230000	 63.3477
6.248000	 63.3187
6.266000	 63.2934
6.284000	 63.38
6.302000	 63.3753
6.320000	 63.3037
6.338000	 63.3137
6.356000	 63.3326
6.374000	 63.3441
6.392000	 63.364
6.410000	 63.3789
6.428000	 63.3448
6.446000	 63.2827
6.464000	 63.2884
6.482000	 63.2827
6.500000	 63.2349
6.518000	 63.256
6.536000	 63.2671
6.554000	 63.2482
6.572000	 63.2893
6.590000	 63.3345
6.608000	 63.3313
6.626000	 63.35
6.644000	 63.3866
6.662000	 63.3702
6.680000	 63.321
6.698000	 63.2798
6.716000	 63.255
6.734000	 63.2299
6.752000	 63.2109
6.770000	 63.1976
6.788000	 63.154
6.806000	 63.0734
6.824000	 63.0315
6.842000	 63.0763
6.860000	 63.1449
6.878000	 63.16
6.896000	 63.1174
6.914000	 63.0874
6.932000	 63.1026
6.950000	 63.1332
6.968000	 63.1413
6.986000	 63.1136
7.004000	 63.0734
7.022000	 63.0665
7.040000	 63.1323
7.058000	 63.2155
7.076000	 63.2262
7.094000	 63.1899
7.112000	 63.1533
7.130000	 63.0836
7.148000	 63.0237
7.166000	 63.0567
7.184000	 63.1025
7.202000	 63.0678
7.220000	 63.0227
7.238000	 63.0322
7.256000	 63.0627
7.274000	 63.0846
7.292000	 63.0797
7.310000	 63.0293
7.328000	 62.9824
7.346000	 62.9933
7.364000	 63.0118
7.382000	 62.9891
7.400000	 62.9802
7.418000	 63.0204
7.436000	 63.051
7.454000	 63.0142
7.472000	 62.9423
7.490000	 62.9182
7.508000	 62.9524
7.526000	 62.9758
7.544000	 62.9634
7.562000	 62.9535
7.580000	 62.9704
7.598000	 63.0083
7.616000	 63.0419
7.634000	 63.0358
7.652000	 62.9828
7.670000	 62.9272
7.688000	 62.9144
7.706000	 62.9222
7.724000	 62.8989
7.742000	 62.8623
7.760000	 62.8821
7.778000	 62.9556
7.796000	 62.9942
7.814000	 62.9526
7.832000	 62.8803
7.850000	 62.8366
7.868000	 62.8248
7.886000	 62.8152
7.904000	 62.7905
7.922000	 62.7625
7.940000	 62.755
7.958000	 62.7663
7.976000	 62.7665
7.994000	 62.7425
8.012000	 62.7222
8.030000	 62.7298
8.048000	 62.745
8.065999	 62.7403
8.084000	 62.7276
8.102000	 62.7259
8.120000	 62.7192
8.138000	 62.694
8.155999	 62.683
8.173999	 62.7261
8.192000	 62.8099
8.210000	 62.8853
8.228000	 62.923
8.246000	 62.923
8.263999	 62.8902
8.282000	 62.8325
8.300000	 62.7736
8.318000	 62.744
8.336000	 62.7558
8.353999	 62.7895
8.372000	 62.8052
8.390000	 62.7764
8.408000	 62.7197
8.426000	 62.6815
8.443999	 62.6857
8.462000	 62.7066
8.480000	 62.7032
8.498000	 62.6632
8.516000	 62.6122
8.533999	 62.584
8.552000	 62.59
8.570000	 62.619
8.588000	 62.6527
8.606000	 62.6721
8.624000	 62.6646
8.641999	 62.6347
8.660000	 62.601
8.678000	 62.5768
8.696000	 62.5617
8.714000	 62.5538
8.731999	 62.5579
8.750000	 62.5754
8.768000	 62.5955
8.786000	 62.6062
8.804000	 62.6106
8.821999	 62.6239
8.840000	 62.6574
8.858000	 62.7023
8.876000	 62.7313
8.894000	 62.72
8.911999	 62.6709
8.930000	 62.6134
8.948000	 62.5777
8.966000	 62.5661
8.984000	 62.5523
9.001999	 62.5118
9.020000	 62.4513
9.038000	 62.404
9.056000	 62.3993
9.074000	 62.4369
9.092000	 62.4942
9.109999	 62.5462
9.128000	 62.5775
9.146000	 62.5839
9.164000	 62.5688
9.182000	 62.5418
9.199999	 62.5199
9.218000	 62.5193
9.236000	 62.5411
9.254000	 62.5609
9.272000	 62.5456
9.289999	 62.4861
9.308000	 62.4121
9.326000	 62.3694
9.344000	 62.3785
9.362000	 62.4157
9.379999	 62.4376
9.398000	 62.4208
9.416000	 62.3777
9.434000	 62.3387
9.452000	 62.3254
9.469999	 62.3371
9.488000	 62.3593
9.506000	 62.3795
9.524000	 62.395
9.542000	 62.4071
9.560000	 62.4131
9.577999	 62.4058
9.596000	 62.3837
9.614000	 62.3592
9.632000	 62.3532
9.650000	 62.3774
9.667999	 62.4227
9.686000	 62.4671
9.704000	 62.4939
9.722000	 62.5031
9.740000	 62.5054
9.757999	 62.5088
9.776000	 62.5122
9.794000	 62.5105
9.812000	 62.5044
9.830000	 62.5015
9.847999	 62.5104
9.866000	 62.5331
9.884000	 62.5648
9.902000	 62.5977
9.920000	 62.6242
9.937999	 62.6393
9.956000	 62.6411
9.974000	 62.6312
9.992000	 62.6139
10.01	62.5945
10.028	62.5772
10.046	62.5618
10.064	62.5455
10.082	62.5275
10.1	62.5133
10.118	62.5148
10.136	62.5405
10.154	62.5865
10.172	62.6339
10.19	62.6568
10.208	62.6393
10.226	62.5848
10.244	62.5139
10.262	62.451
10.28	62.4095
10.298	62.3895
10.316	62.3818
10.334	62.3778
10.352	62.3741
10.37	62.3702
10.388	62.3661
10.406	62.3603
10.424	62.3518
10.442	62.3436
10.46	62.3425
10.478	62.3569
10.496	62.3915
10.514	62.4445
10.532	62.5077
10.55	62.5679
10.568	62.6117
10.586	62.6277
10.604	62.6108
10.622	62.5625
10.64	62.4917
10.658	62.4125
10.676	62.3434
10.694	62.3003
10.712	62.2929
10.73	62.3193
10.748	62.3673
10.766	62.419
10.784	62.4608
10.802	62.4878
10.82	62.5052
10.838	62.523
10.856	62.5463
10.874	62.5702
10.892	62.5819
10.91	62.5675
10.928	62.5213
10.946	62.4496
10.964	62.3684
10.982	62.2976
11	62.2515
11.018	62.2364
11.036	62.2472
11.054	62.2717
11.072	62.2977
11.09	62.3152
11.108	62.3217
11.126	62.3205
11.144	62.3183
11.162	62.3214
11.18	62.3318
11.198	62.3457
11.216	62.3549
11.234	62.3506
11.252	62.3256
11.27	62.278
11.288	62.2107
11.306	62.1314
11.324	62.0528
11.342	61.9903
11.36	61.9581
11.378	61.9662
11.396	62.0153
11.414	62.0963
11.432	62.1922
11.45	62.2848
11.468	62.3586
11.486	62.4068
11.504	62.4304
11.522	62.4354
11.54	62.4282
11.558	62.4139
11.576	62.3959
11.594	62.3773
11.612	62.3634
11.63	62.3594
11.648	62.3684
11.666	62.3897
11.684	62.4171
11.702	62.4426
11.72	62.4587
11.738	62.4622
11.756	62.4548
11.774	62.4424
11.792	62.4308
11.81	62.4226
11.828	62.416
11.846	62.4068
11.864	62.3905
11.882	62.3651
11.9	62.3318
11.918	62.295
11.936	62.2603
11.954	62.233
11.972	62.2179
11.99	62.2182
12.008	62.2358
12.026	62.2705
12.044	62.3199
12.062	62.3782
12.08	62.4374
12.098	62.4883
12.116	62.5232
12.134	62.5383
12.152	62.5343
12.17	62.5152
12.188	62.4861
12.206	62.4514
12.224	62.4138
12.242	62.3752
12.26	62.3378
12.278	62.3048
12.296	62.2796
12.314	62.2647
12.332	62.261
12.35	62.2667
12.368	62.2783
12.386	62.2911
12.404	62.3013
12.422	62.3073
12.44	62.3098
12.458	62.3108
12.476	62.313
12.494	62.3174
12.512	62.3232
12.53	62.328
12.548	62.3284
12.566	62.3218
12.584	62.3069
12.602	62.285
12.62	62.2592
12.638	62.2338
12.656	62.2133
12.674	62.2012
12.692	62.1995
12.71	62.2072
12.728	62.2211
12.746	62.2361
12.764	62.2464
12.782	62.2472
12.8	62.2352
12.818	62.2101
12.836	62.1736
12.854	62.1301
12.872	62.0845
12.89	62.0423
12.908	62.0074
12.926	61.9823
12.944	61.9672
12.962	61.9604
12.98	61.9594
12.998	61.9613
13.016	61.9641
13.034	61.9672
13.052	61.9713
13.07	61.978
13.088	61.989
13.106	62.0053
13.124	62.0264
13.142	62.0498
13.16	62.0714
13.178	62.0864
13.196	62.0903
13.214	62.0806
13.232	62.0571
13.25	62.0229
13.268	61.9831
13.286	61.9439
13.304	61.9113
13.322	61.8894
13.34	61.8797
13.358	61.8813
13.376	61.8907
13.394	61.9042
13.412	61.9179
13.43	61.9298
13.448	61.9394
13.466	61.9481
13.484	61.9585
13.502	61.973
13.52	61.993
13.538	62.0185
13.556	62.0475
13.574	62.0774
13.592	62.1048
13.61	62.127
13.628	62.142
13.646	62.1491
13.664	62.1484
13.682	62.1406
13.7	62.1266
13.718	62.1074
13.736	62.0838
13.754	62.0563
13.772	62.0255
13.79	61.9921
13.808	61.9571
13.826	61.9223
13.844	61.8894
13.862	61.8605
13.88	61.8372
13.898	61.821
13.916	61.8123
13.934	61.8113
13.952	61.8171
13.97	61.8283
13.988	61.8434
14.006	61.8607
14.024	61.8791
14.042	61.8978
14.06	61.9166
14.078	61.935
14.096	61.9527
14.114	61.9685
14.132	61.9812
14.15	61.9887
14.168	61.9886
14.186	61.9785
14.204	61.9564
14.222	61.9215
14.24	61.8746
14.258	61.8182
14.276	61.7564
14.294	61.6944
14.312	61.6384
14.33	61.5942
14.348	61.5665
14.366	61.5584
14.384	61.57
14.402	61.5989
14.42	61.6402
14.438	61.6879
14.456	61.7353
14.474	61.7762
14.492	61.806
14.51	61.8224
14.528	61.8259
14.546	61.8201
14.564	61.8099
14.582	61.8009
14.6	61.7988
14.618	61.8076
14.636	61.8296
14.654	61.8638
14.672	61.907
14.69	61.9546
14.708	62.0011
14.726	62.0413
14.744	62.0706
14.762	62.087
14.78	62.0902
14.798	62.0814
14.816	62.0629
14.834	62.0374
14.852	62.0076
14.87	61.975
14.888	61.9403
14.906	61.9034
14.924	61.8638
14.942	61.8208
14.96	61.7745
14.978	61.726
14.996	61.6772
15.014	61.6307
15.032	61.5903
15.05	61.559
15.068	61.5389
15.086	61.5307
15.104	61.5339
15.122	61.5455
15.14	61.5616
15.158	61.5784
15.176	61.5921
15.194	61.5993
15.212	61.5982
15.23	61.5888
15.248	61.5722
15.266	61.5505
15.284	61.527
15.302	61.5052
15.32	61.4877
15.338	61.4764
15.356	61.4726
15.374	61.4762
15.392	61.4861
15.41	61.5002
15.428	61.516
15.446	61.5296
15.464	61.5384
15.482	61.5402
15.5	61.5332
15.518	61.517
15.536	61.4925
15.554	61.4612
15.572	61.4257
15.59	61.3895
15.608	61.3552
15.626	61.3249
15.644	61.3006
15.662	61.2831
15.68	61.2719
15.698	61.2662
15.716	61.2641
15.734	61.2634
15.752	61.2623
15.77	61.2592
15.788	61.2531
15.806	61.2446
15.824	61.2346
15.842	61.2248
15.86	61.2183
15.878	61.2172
15.896	61.2233
15.914	61.2387
15.932	61.2637
15.95	61.2981
15.968	61.3413
15.986	61.3917
16.004	61.4479
16.022	61.5082
16.04	61.5711
16.058	61.6358
16.076	61.7013
16.094	61.7673
16.112	61.8331
16.13	61.8984
16.148	61.9621
16.166	62.023
16.184	62.0804
16.202	62.1334
16.22	62.1805
16.238	62.2208
16.256	62.2539
16.274	62.2783
16.292	62.2941
16.31	62.301
16.328	62.2986
16.346	62.2864
16.364	62.2643
16.382	62.2315
16.4	62.1878
16.418	62.1331
16.436	62.0675
16.454	61.9919
16.472	61.9074
16.49	61.8168
16.508	61.7235
16.526	61.6306
16.544	61.5442
16.562	61.4692
16.58	61.4097
16.598	61.3722
16.616	61.3591
16.634	61.3731
16.652	61.415
16.67	61.4829
16.688	61.5748
16.706	61.684
16.724	61.8055
16.742	61.9324
16.76	62.0553
16.778	62.1694
16.796	62.2663
16.814	62.3404
16.832	62.3886
16.85	62.4063
16.868	62.3943
16.886	62.3522
16.904	62.2831
16.922	62.1898
16.94	62.076
16.958	61.9471
16.976	61.8058
16.994	61.658
17.012	61.5062
17.03	61.3526
17.048	61.1999
17.066	61.0484
17.084	60.899
17.102	60.7516
17.12	60.6064
17.138	60.464
17.156	60.3259
17.174	60.1928
17.192	60.0688
17.21	59.9557
17.228	59.8578
17.246	59.7786
17.264	59.7202
17.282	59.6863
17.3	59.677
17.318	59.693
17.336	59.7316
17.354	59.7918
17.372	59.8666
17.39	59.953
17.408	60.044
17.426	60.1339
17.444	60.2183
17.462	60.2915
17.48	60.3524
17.498	60.3979
17.516	60.4301
17.534	60.4497
17.552	60.4626
17.57	60.4708
17.588	60.483
17.606	60.5028
17.624	60.5368
17.642	60.5895
17.66	60.6637
17.678	60.7614
17.696	60.8821
17.714	61.0233
17.732	61.1806
17.75	61.3507
17.768	61.5239
17.786	61.6971
17.804	61.8588
17.822	62.0065
17.84	62.1306
17.858	62.2294
17.876	62.2983
17.894	62.3376
17.912	62.3464
17.93	62.3293
17.948	62.2874
17.966	62.2285
17.984	62.1556
18.002	62.0763
18.02	61.9956
18.038	61.9186
18.056	61.851
18.074	61.7951
18.092	61.7549
18.11	61.7307
18.128	61.7231
18.146	61.7312
18.164	61.7534
18.182	61.7877
18.2	61.8318
18.218	61.8828
18.236	61.9388
18.254	61.9966
18.272	62.0554
18.29	62.1124
18.308	62.1674
18.326	62.2189
18.344	62.267
18.362	62.3117
18.38	62.3529
18.398	62.391
18.416	62.4259
18.434	62.458
18.452	62.4863
18.47	62.5107
18.488	62.5295
18.506	62.5425
18.524	62.5469
18.542	62.5421
18.56	62.5253
18.578	62.4961
18.596	62.4517
18.614	62.3923
18.632	62.317
18.65	62.2262
18.668	62.1211
18.686	62.0023
18.704	61.8731
18.722	61.7346
18.74	61.5912
18.758	61.4442
18.776	61.2987
18.794	61.1557
18.812	61.0201
18.83	60.8926
18.848	60.7766
18.866	60.6725
18.884	60.5831
18.902	60.5085
18.92	60.45
18.938	60.4076
18.956	60.3819
18.974	60.3722
18.992	60.3785
19.01	60.3996
19.028	60.4346
19.046	60.4818
19.064	60.5393
19.082	60.6054
19.1	60.6769
19.118	60.7522
19.136	60.8275
19.154	60.9014
19.172	60.9695
19.19	61.031
19.208	61.0821
19.226	61.1226
19.244	61.1496
19.262	61.1636
19.28	61.1638
19.298	61.1509
19.316	61.127
19.334	61.0923
19.352	61.0512
19.37	61.0036
19.388	60.9553
19.406	60.9062
19.424	60.8613
19.442	60.8207
19.46	60.7878
19.478	60.7635
19.496	60.748
19.514	60.7422
19.532	60.7443
19.55	60.7545
19.568	60.7702
19.586	60.7896
19.604	60.8111
19.622	60.8313
19.64	60.8499
19.658	60.8629
19.676	60.871
19.694	60.8717
19.712	60.8654
19.73	60.8523
19.748	60.8323
19.766	60.8075
19.784	60.778
19.802	60.7467
19.82	60.7151
19.838	60.6849
19.856	60.659
19.874	60.6377
19.892	60.6249
19.91	60.6199
19.928	60.6254
19.946	60.641
19.964	60.6678
19.982	60.7059
20	60.7547
20.018	60.8141
20.036	60.8831
20.054	60.9601
20.072	61.0446
20.09	61.1334
20.108	61.2269
20.126	61.3208
20.144	61.4156
20.162	61.5079
20.18	61.5965
20.198	61.6801
20.216	61.756
20.234	61.8247
20.252	61.8831
20.27	61.9319
20.288	61.9694
20.306	61.9954
20.324	62.0099
20.342	62.0124
20.36	62.0034
20.378	61.9834
20.396	61.9523
20.414	61.912
20.432	61.8621
20.45	61.8046
20.468	61.74
20.486	61.6694
20.504	61.595
20.522	61.5165
20.54	61.4376
20.558	61.3577
20.576	61.2798
20.594	61.2047
20.612	61.1334
20.63	61.0689
20.648	61.0104
20.666	60.9605
20.684	60.9192
20.702	60.8872
20.72	60.8654
20.738	60.8533
20.756	60.8508
20.774	60.8581
20.792	60.8734
20.81	60.8971
20.828	60.9275
20.846	60.9629
20.864	61.0036
20.882	61.0462
20.9	61.0911
20.918	61.1362
20.936	61.1797
20.954	61.2218
20.972	61.2596
20.99	61.2936
21.008	61.3225
21.026	61.3456
21.044	61.363
21.062	61.3742
21.08	61.3792
21.098	61.3787
21.116	61.3724
21.134	61.361
21.152	61.3456
21.17	61.3256
21.188	61.3034
21.206	61.2789
21.224	61.253
21.242	61.2278
21.26	61.2025
21.278	61.1796
21.296	61.1593
21.314	61.1421
21.332	61.1296
21.35	61.1213
21.368	61.1179
21.386	61.12
21.404	61.1271
21.422	61.139
21.44	61.1558
21.458	61.1761
21.476	61.1995
21.494	61.2258
21.512	61.2521
21.53	61.2793
21.548	61.3051
21.566	61.3278
21.584	61.348
21.602	61.3626
21.62	61.3717
21.638	61.3746
21.656	61.3693
21.674	61.3566
21.692	61.3358
21.71	61.3066
21.728	61.2693
21.746	61.2244
21.764	61.1715
21.782	61.1124
21.8	61.048
21.818	60.9781
21.836	60.906
21.854	60.8314
21.872	60.7557
21.89	60.6825
21.908	60.6103
21.926	60.5421
21.944	60.48
21.962	60.4229
21.98	60.3736
21.998	60.3323
22.016	60.2992
22.034	60.2756
22.052	60.2615
22.07	60.2561
22.088	60.2595
22.106	60.2717
22.124	60.2904
22.142	60.3158
22.16	60.3472
22.178	60.3808
22.196	60.418
22.214	60.4562
22.232	60.4922
22.25	60.5275
22.268	60.5588
22.286	60.5842
22.304	60.6046
22.322	60.6173
22.34	60.6218
22.358	60.6185
22.376	60.6061
22.394	60.5845
22.412	60.5544
22.43	60.5161
22.448	60.4689
22.466	60.4151
22.484	60.3557
22.502	60.2901
22.52	60.2214
22.538	60.1508
22.556	60.0778
22.574	60.0061
22.592	59.936
22.61	59.8677
22.628	59.8046
22.646	59.7461
22.664	59.6928
22.682	59.6465
22.7	59.6069
22.718	59.574
22.736	59.5485
22.754	59.5303
22.772	59.5187
22.79	59.5134
22.808	59.5147
22.826	59.5215
22.844	59.5331
22.862	59.55
22.88	59.5707
22.898	59.5947
22.916	59.6224
22.934	59.6529
22.952	59.6857
22.97	59.7213
22.988	59.7593
23.006	59.7996
23.024	59.8424
23.042	59.8881
23.06	59.9366
23.078	59.9881
23.096	60.0431
23.114	60.1018
23.132	60.164
23.15	60.2301
23.168	60.3005
23.186	60.3746
23.204	60.4514
23.222	60.5316
23.24	60.6143
23.258	60.6979
23.276	60.7829
23.294	60.8687
23.312	60.9528
23.33	61.0359
23.348	61.1175
23.366	61.1948
23.384	61.2682
23.402	61.3376
23.42	61.4008
23.438	61.4581
23.456	61.5095
23.474	61.5534
23.492	61.5897
23.51	61.6186
23.528	61.6397
23.546	61.6526
23.564	61.6577
23.582	61.6552
23.6	61.6449
23.618	61.6269
23.636	61.6023
23.654	61.5715
23.672	61.5342
23.69	61.4914
23.708	61.4438
23.726	61.3908
23.744	61.3335
23.762	61.2724
23.78	61.2071
23.798	61.1383
23.816	61.0668
23.834	60.9921
23.852	60.9149
23.87	60.8364
23.888	60.7562
23.906	60.6746
23.924	60.5926
23.942	60.51
23.96	60.4269
23.978	60.3446
23.996	60.263
24.014	60.1819
24.032	60.1032
24.05	60.0279
24.068	59.9548
24.086	59.8863
24.104	59.8245
24.122	59.7677
24.14	59.7178
24.158	59.6776
24.176	59.6461
24.194	59.6237
24.212	59.613
24.23	59.6144
24.248	59.627
24.266	59.6522
24.284	59.6909
24.302	59.7427
24.32	59.8067
24.338	59.8825
24.356	59.9708
24.374	60.0704
24.392	60.1792
24.41	60.2987
24.428	60.4277
24.446	60.562
24.464	60.7008
24.482	60.8463
24.5	60.9922
24.518	61.1337
24.536	61.2754
24.554	61.4124
24.572	61.5372
24.59	61.6521
24.608	61.7568
24.626	61.8447
24.644	61.9133
24.662	61.9659
24.68	61.9985
24.698	62.0076
24.716	61.9949
24.734	61.96
24.752	61.9011
24.77	61.8169
24.788	61.7089
24.806	61.579
24.824	61.4282
24.842	61.254
24.86	61.0611
24.878	60.855
24.896	60.6322
24.914	60.3948
24.932	60.1511
24.95	59.9047
24.968	59.65
24.986	59.3955
25.004	59.1501
25.022	58.9088
25.04	58.6741
25.058	58.4547
25.076	58.2544
25.094	58.0681
25.112	57.9013
25.13	57.7597
25.148	57.641
25.166	57.5453
25.184	57.4755
25.202	57.4335
25.22	57.4179
25.238	57.4278
25.256	57.4629
25.274	57.5246
25.292	57.6113
25.31	57.7198
25.328	57.849
25.346	58.0013
25.364	58.1724
25.382	58.3577
25.4	58.5582
25.418	58.7743
25.436	59.002
25.454	59.2382
25.472	59.4854
25.49	59.742
25.508	60.0056
25.526	60.2752
25.544	60.552
25.562	60.8357
25.58	61.1256
25.598	61.4218
25.616	61.7245
25.634	62.0339
25.652	62.3502
25.67	62.6728
25.688	63.0025
25.706	63.3402
25.724	63.6866
25.742	64.0412
25.76	64.4024
25.778	64.7692
25.796	65.1445
25.814	65.5255
25.832	65.9071
25.85	66.287
25.868	66.6714
25.886	67.0521
25.904	67.4189
25.922	67.7719
25.94	68.1169
25.958	68.4413
25.976	68.7322
25.994	68.9971
26.012	69.2353
26.03	69.4324
26.048	69.5764
26.066	69.6779
26.084	69.7322
26.102	69.7276
26.12	69.6565
26.138	69.5276
26.156	69.3365
26.174	69.077
26.192	68.7454
26.21	68.3452
26.228	67.8787
26.246	67.3478
26.264	66.749
26.282	66.0828
26.3	65.3595
26.318	64.5891
26.336	63.7622
26.354	62.882
26.372	61.9662
26.39	61.0306
26.408	60.0592
26.426	59.0597
26.444	58.054
26.462	57.0592
26.48	56.0568
26.498	55.0566
26.516	54.0784
26.534	53.1358
26.552	52.2112
26.57	51.3156
26.588	50.4658
26.606	49.6724
26.624	48.9209
26.642	48.22
26.66	47.5818
26.678	47.0134
26.696	46.5054
26.714	46.0619
26.732	45.6884
26.75	45.389
26.768	45.16
26.786	45.0001
26.804	44.9078
26.822	44.8841
26.84	44.9314
26.858	45.0432
26.876	45.2128
26.894	45.4386
26.912	45.7281
26.93	46.0708
26.948	46.4553
26.966	46.904
26.984	47.4673
27.002	48.034
27.02	48.4826
27.028	48.5996