File: Bakgrunnsmateriale/MATLAB/FTIR/ftir_data/subAa/Mapping_121/BZ1503107-1_t95.asc
PE IR       SPECTRUM    SPECTRUM    ASCII       PEDS        1.60
  -1
BZ3D5B~1.ASC
17/04/07
21:04:28.00
17/04/07
21:04:55.00
tln
$BZ1503107-1_t0095$<tbV0>[-2.6,7.8,8.0,0.0,27,1,0]
27.028
64

2002,4.07
MIRTGS : RIGHTBACK : INTERNAL 2
MIR : ON : INTERNAL 2
OPTKBR

0.200000
8
8.000000
FILLER
RATIO
SPECTRUM
UNLOCKED 256

DOUBLE
64
COMBINED
1
0
0

0.002000
RATIO

1
0
TRUE
51149
0
LEFT NOT FITTED RIGHT NOT FITTED 0
NONE
NONE
15600
12
4.427000
51148
TRUE
1 0 8 72 0 0 0 0

15798

#HDR
-1
-1
#GR
µM
%T
2.38419e-05
0.0
2.000000
0.002000
12515
8
73.8738
50.1984
#DATA
2.000000	 63.7491
2.018000	 67.6471
2.036000	 64.33
2.054000	 65.1565
2.072000	 64.5814
2.090000	 65.0447
2.108000	 65.1511
2.126000	 64.9078
2.144000	 65.2399
2.162000	 65.0501
2.180000	 65.1193
2.198000	 64.8625
2.216000	 64.6636
2.234000	 64.2605
2.252000	 64.3944
2.270000	 65.4064
2.288000	 64.6391
2.306000	 65.0062
2.324000	 64.8323
2.342000	 64.7552
2.360000	 64.9223
2.378000	 65.0959
2.396000	 65.2289
2.414000	 64.7377
2.432000	 65.1692
2.450000	 65.1824
2.468000	 65.0319
2.486000	 65.0423
2.504000	 64.9038
2.522000	 65.0227
2.540000	 65.4171
2.558000	 64.8095
2.576000	 65.0184
2.594000	 65.2452
2.612000	 64.789
2.630000	 65.0142
2.648000	 64.9229
2.666000	 65.1268
2.684000	 65.0969
2.702000	 65.1685
2.720000	 65.0319
2.738000	 64.8466
2.756000	 65.1265
2.774000	 65.0168
2.792000	 65.2261
2.810000	 65.0934
2.828000	 65.0718
2.846000	 65.054
2.864000	 65.0702
2.882000	 65.1197
2.900000	 65.0676
2.918000	 64.9722
2.936000	 65.1261
2.954000	 64.9082
2.972000	 64.8613
2.990000	 64.8977
3.008000	 64.8796
3.026000	 64.8915
3.044000	 64.9214
3.062000	 64.852
3.080000	 65.0369
3.098000	 64.823
3.116000	 64.8062
3.134000	 64.9929
3.152000	 65.0818
3.170000	 64.8288
3.188000	 64.9089
3.206000	 64.7172
3.224000	 64.9108
3.242000	 64.896
3.260000	 64.9762
3.278000	 64.9816
3.296000	 65.0357
3.314000	 64.9138
3.332000	 64.8528
3.350000	 64.6841
3.368000	 64.7045
3.386000	 64.5156
3.404000	 64.7906
3.422000	 64.7176
3.440000	 64.6813
3.458000	 64.7278
3.476000	 64.7814
3.494000	 64.6506
3.512000	 64.6782
3.530000	 64.7762
3.548000	 64.7649
3.566000	 64.782
3.584000	 64.7873
3.602000	 64.8154
3.620000	 64.7927
3.638000	 64.7107
3.656000	 64.763
3.674000	 64.8675
3.692000	 64.7988
3.710000	 64.7374
3.728000	 64.7281
3.746000	 64.7826
3.764000	 64.6069
3.782000	 64.6874
3.800000	 64.692
3.818000	 64.662
3.836000	 64.6828
3.854000	 64.7346
3.872000	 64.5434
3.890000	 64.6896
3.908000	 64.633
3.926000	 64.575
3.944000	 64.6068
3.962000	 64.6304
3.980000	 64.6223
3.998000	 64.5789
4.016000	 64.6945
4.034000	 64.6216
4.052000	 64.7313
4.070000	 64.6952
4.088000	 64.5998
4.106000	 64.502
4.124000	 64.6821
4.141999	 64.5234
4.160000	 64.4628
4.178000	 64.5803
4.196000	 64.5827
4.214000	 64.5832
4.232000	 64.5019
4.250000	 64.4705
4.268000	 64.518
4.286000	 64.589
4.304000	 64.5646
4.322000	 64.4822
4.340000	 64.4541
4.358000	 64.5801
4.375999	 64.4645
4.394000	 64.5346
4.412000	 64.477
4.430000	 64.4869
4.448000	 64.4585
4.466000	 64.4832
4.484000	 64.5545
4.502000	 64.4378
4.520000	 64.4077
4.538000	 64.3425
4.556000	 64.3549
4.574000	 64.3023
4.592000	 64.4315
4.609999	 64.3862
4.628000	 64.3651
4.646000	 64.2623
4.664000	 64.3072
4.682000	 64.3378
4.700000	 64.3689
4.718000	 64.3446
4.736000	 64.2809
4.754000	 64.2863
4.772000	 64.2096
4.790000	 64.2246
4.808000	 64.292
4.826000	 64.2288
4.843999	 64.25
4.862000	 64.3802
4.880000	 64.2838
4.898000	 64.2601
4.916000	 64.3431
4.934000	 64.2679
4.952000	 64.2662
4.970000	 64.2328
4.988000	 64.1754
5.006000	 64.3026
5.024000	 64.3356
5.042000	 64.2592
5.060000	 64.2133
5.077999	 64.2155
5.096000	 64.2172
5.114000	 64.229
5.132000	 64.0867
5.150000	 64.0856
5.168000	 64.1463
5.186000	 64.0359
5.204000	 63.9697
5.222000	 64.0744
5.240000	 64.1196
5.258000	 64.1388
5.276000	 64.087
5.294000	 64.1304
5.312000	 64.0413
5.330000	 64.0483
5.348000	 64.0601
5.366000	 63.9963
5.384000	 64.1132
5.402000	 64.1031
5.420000	 64.0144
5.438000	 64.0954
5.456000	 64.0881
5.474000	 64.0353
5.492000	 64.1018
5.510000	 64.1559
5.528000	 64.0898
5.546000	 64.0573
5.564000	 64.0387
5.582000	 63.9569
5.600000	 63.9314
5.618000	 63.9444
5.636000	 63.9296
5.654000	 63.9386
5.672000	 63.9128
5.690000	 63.8732
5.708000	 63.7713
5.726000	 63.663
5.744000	 63.5358
5.762000	 63.4305
5.780000	 63.4402
5.798000	 63.6422
5.816000	 63.7595
5.834000	 63.7729
5.852000	 63.7329
5.870000	 63.7473
5.888000	 63.8222
5.906000	 63.8536
5.923999	 63.8339
5.942000	 63.801
5.960000	 63.7032
5.978000	 63.696
5.996000	 63.8183
6.014000	 63.9084
6.032000	 63.8338
6.050000	 63.7844
6.068000	 63.8452
6.086000	 63.8301
6.104000	 63.7627
6.122000	 63.7138
6.140000	 63.6981
6.158000	 63.7528
6.176000	 63.9145
6.194000	 63.9101
6.212000	 63.7489
6.230000	 63.7859
6.248000	 63.9064
6.266000	 63.8962
6.284000	 63.8306
6.302000	 63.7468
6.320000	 63.6218
6.338000	 63.5836
6.356000	 63.6632
6.374000	 63.6778
6.392000	 63.602
6.410000	 63.5985
6.428000	 63.661
6.446000	 63.6756
6.464000	 63.6685
6.482000	 63.6745
6.500000	 63.6732
6.518000	 63.6698
6.536000	 63.7126
6.554000	 63.7477
6.572000	 63.6659
6.590000	 63.5726
6.608000	 63.6002
6.626000	 63.663
6.644000	 63.6637
6.662000	 63.6579
6.680000	 63.7026
6.698000	 63.7014
6.716000	 63.676
6.734000	 63.6716
6.752000	 63.6088
6.770000	 63.5493
6.788000	 63.5702
6.806000	 63.5889
6.824000	 63.5087
6.842000	 63.4095
6.860000	 63.3891
6.878000	 63.394
6.896000	 63.41
6.914000	 63.459
6.932000	 63.525
6.950000	 63.5867
6.968000	 63.5796
6.986000	 63.5175
7.004000	 63.4684
7.022000	 63.4407
7.040000	 63.4411
7.058000	 63.441
7.076000	 63.429
7.094000	 63.4717
7.112000	 63.545
7.130000	 63.533
7.148000	 63.4179
7.166000	 63.3106
7.184000	 63.319
7.202000	 63.4168
7.220000	 63.4908
7.238000	 63.4891
7.256000	 63.4397
7.274000	 63.3897
7.292000	 63.3799
7.310000	 63.4096
7.328000	 63.4342
7.346000	 63.4358
7.364000	 63.4294
7.382000	 63.412
7.400000	 63.3858
7.418000	 63.3698
7.436000	 63.3603
7.454000	 63.3447
7.472000	 63.3369
7.490000	 63.3667
7.508000	 63.4351
7.526000	 63.4988
7.544000	 63.5298
7.562000	 63.5443
7.580000	 63.543
7.598000	 63.5099
7.616000	 63.4663
7.634000	 63.4333
7.652000	 63.3982
7.670000	 63.3701
7.688000	 63.3773
7.706000	 63.403
7.724000	 63.3999
7.742000	 63.3456
7.760000	 63.248
7.778000	 63.143
7.796000	 63.0838
7.814000	 63.0872
7.832000	 63.1174
7.850000	 63.1315
7.868000	 63.1113
7.886000	 63.067
7.904000	 63.0272
7.922000	 63.0176
7.940000	 63.0423
7.958000	 63.0918
7.976000	 63.1589
7.994000	 63.2299
8.012000	 63.2779
8.030000	 63.2869
8.048000	 63.266
8.065999	 63.2352
8.084000	 63.2126
8.102000	 63.2048
8.120000	 63.208
8.138000	 63.2181
8.155999	 63.2336
8.173999	 63.2441
8.192000	 63.2366
8.210000	 63.2145
8.228000	 63.1924
8.246000	 63.1686
8.263999	 63.1302
8.282000	 63.0849
8.300000	 63.0592
8.318000	 63.0626
8.336000	 63.0804
8.353999	 63.1013
8.372000	 63.129
8.390000	 63.1646
8.408000	 63.1879
8.426000	 63.1739
8.443999	 63.1239
8.462000	 63.0698
8.480000	 63.0387
8.498000	 63.0213
8.516000	 62.983
8.533999	 62.9089
8.552000	 62.8284
8.570000	 62.7877
8.588000	 62.8039
8.606000	 62.8634
8.624000	 62.947
8.641999	 63.0378
8.660000	 63.1112
8.678000	 63.1465
8.696000	 63.1478
8.714000	 63.1413
8.731999	 63.1447
8.750000	 63.1524
8.768000	 63.1521
8.786000	 63.1415
8.804000	 63.1216
8.821999	 63.089
8.840000	 63.0497
8.858000	 63.025
8.876000	 63.0309
8.894000	 63.0609
8.911999	 63.0929
8.930000	 63.103
8.948000	 63.0811
8.966000	 63.0406
8.984000	 63.0059
9.001999	 62.9902
9.020000	 62.994
9.038000	 63.0134
9.056000	 63.0373
9.074000	 63.0503
9.092000	 63.0465
9.109999	 63.0372
9.128000	 63.0377
9.146000	 63.0461
9.164000	 63.0428
9.182000	 63.0126
9.199999	 62.9627
9.218000	 62.9166
9.236000	 62.8925
9.254000	 62.8918
9.272000	 62.9071
9.289999	 62.9342
9.308000	 62.9721
9.326000	 63.0142
9.344000	 63.047
9.362000	 63.0595
9.379999	 63.053
9.398000	 63.0389
9.416000	 63.0287
9.434000	 63.0243
9.452000	 63.02
9.469999	 63.0106
9.488000	 62.9964
9.506000	 62.9811
9.524000	 62.9661
9.542000	 62.9507
9.560000	 62.9355
9.577999	 62.9265
9.596000	 62.9304
9.614000	 62.9467
9.632000	 62.9648
9.650000	 62.9748
9.667999	 62.9778
9.686000	 62.9861
9.704000	 63.0107
9.722000	 63.0492
9.740000	 63.0865
9.757999	 63.1088
9.776000	 63.1137
9.794000	 63.107
9.812000	 63.0929
9.830000	 63.0701
9.847999	 63.0371
9.866000	 62.9986
9.884000	 62.9631
9.902000	 62.9369
9.920000	 62.9206
9.937999	 62.9123
9.956000	 62.9126
9.974000	 62.9229
9.992000	 62.9396
10.01	62.9526
10.028	62.9517
10.046	62.9379
10.064	62.9244
10.082	62.9277
10.1	62.9536
10.118	62.9917
10.136	63.0227
10.154	63.0318
10.172	63.016
10.19	62.9832
10.208	62.9441
10.226	62.9076
10.244	62.8801
10.262	62.867
10.28	62.872
10.298	62.8956
10.316	62.9333
10.334	62.9766
10.352	63.0178
10.37	63.0521
10.388	63.0806
10.406	63.1065
10.424	63.1312
10.442	63.1522
10.46	63.1646
10.478	63.1639
10.496	63.1488
10.514	63.1215
10.532	63.087
10.55	63.0511
10.568	63.0203
10.586	63.0006
10.604	62.9954
10.622	63.0031
10.64	63.0161
10.658	63.0236
10.676	63.019
10.694	63.0043
10.712	62.9902
10.73	62.989
10.748	63.0063
10.766	63.0364
10.784	63.066
10.802	63.0831
10.82	63.0851
10.838	63.0801
10.856	63.0799
10.874	63.0921
10.892	63.1139
10.91	63.1337
10.928	63.1387
10.946	63.1199
10.964	63.0761
10.982	63.0126
11	62.9378
11.018	62.862
11.036	62.7952
11.054	62.7483
11.072	62.7293
11.09	62.7399
11.108	62.7731
11.126	62.8139
11.144	62.8468
11.162	62.8605
11.18	62.8531
11.198	62.8313
11.216	62.8058
11.234	62.7855
11.252	62.7749
11.27	62.7733
11.288	62.7765
11.306	62.7812
11.324	62.7865
11.342	62.7952
11.36	62.8106
11.378	62.8343
11.396	62.8648
11.414	62.8967
11.432	62.9224
11.45	62.9358
11.468	62.9347
11.486	62.9225
11.504	62.9068
11.522	62.8959
11.54	62.8944
11.558	62.9012
11.576	62.9098
11.594	62.9117
11.612	62.8995
11.63	62.8708
11.648	62.8285
11.666	62.7798
11.684	62.7334
11.702	62.6956
11.72	62.6704
11.738	62.6582
11.756	62.657
11.774	62.6638
11.792	62.675
11.81	62.6873
11.828	62.6978
11.846	62.7044
11.864	62.7067
11.882	62.7059
11.9	62.7043
11.918	62.7049
11.936	62.7093
11.954	62.7172
11.972	62.7261
11.99	62.7325
12.008	62.7334
12.026	62.7283
12.044	62.7192
12.062	62.7116
12.08	62.7115
12.098	62.7236
12.116	62.7495
12.134	62.7861
12.152	62.8272
12.17	62.8653
12.188	62.8943
12.206	62.9113
12.224	62.9176
12.242	62.9175
12.26	62.9164
12.278	62.9194
12.296	62.9301
12.314	62.9491
12.332	62.9734
12.35	62.9978
12.368	63.0144
12.386	63.016
12.404	62.9985
12.422	62.9626
12.44	62.9141
12.458	62.8614
12.476	62.8139
12.494	62.7779
12.512	62.7561
12.53	62.7465
12.548	62.745
12.566	62.7468
12.584	62.7492
12.602	62.7515
12.62	62.7553
12.638	62.7628
12.656	62.775
12.674	62.7908
12.692	62.8067
12.71	62.8186
12.728	62.8229
12.746	62.8176
12.764	62.8027
12.782	62.7794
12.8	62.7494
12.818	62.7146
12.836	62.6765
12.854	62.6368
12.872	62.5979
12.89	62.5632
12.908	62.5363
12.926	62.5207
12.944	62.5187
12.962	62.5303
12.98	62.5531
12.998	62.583
13.016	62.6145
13.034	62.6426
13.052	62.6637
13.07	62.6762
13.088	62.6798
13.106	62.6755
13.124	62.6642
13.142	62.6471
13.16	62.625
13.178	62.5988
13.196	62.5703
13.214	62.5415
13.232	62.5158
13.25	62.496
13.268	62.4848
13.286	62.4836
13.304	62.4926
13.322	62.5103
13.34	62.5344
13.358	62.5617
13.376	62.5889
13.394	62.6134
13.412	62.6334
13.43	62.6477
13.448	62.6565
13.466	62.6608
13.484	62.6622
13.502	62.663
13.52	62.6657
13.538	62.673
13.556	62.6867
13.574	62.7078
13.592	62.7356
13.61	62.7674
13.628	62.7989
13.646	62.8245
13.664	62.838
13.682	62.8343
13.7	62.81
13.718	62.7645
13.736	62.7002
13.754	62.6226
13.772	62.5392
13.79	62.458
13.808	62.3866
13.826	62.3309
13.844	62.294
13.862	62.2767
13.88	62.2773
13.898	62.2924
13.916	62.3178
13.934	62.3493
13.952	62.3832
13.97	62.4169
13.988	62.4479
14.006	62.4751
14.024	62.4976
14.042	62.5146
14.06	62.5257
14.078	62.5311
14.096	62.5314
14.114	62.5281
14.132	62.523
14.15	62.5181
14.168	62.5152
14.186	62.515
14.204	62.5178
14.222	62.5226
14.24	62.5275
14.258	62.5302
14.276	62.5289
14.294	62.5222
14.312	62.5099
14.33	62.4927
14.348	62.4725
14.366	62.4519
14.384	62.4337
14.402	62.4205
14.42	62.4138
14.438	62.4147
14.456	62.4229
14.474	62.4376
14.492	62.4567
14.51	62.4778
14.528	62.4984
14.546	62.5157
14.564	62.5275
14.582	62.5318
14.6	62.5271
14.618	62.5124
14.636	62.4879
14.654	62.4549
14.672	62.4158
14.69	62.3737
14.708	62.3323
14.726	62.296
14.744	62.2687
14.762	62.2538
14.78	62.2526
14.798	62.2652
14.816	62.2899
14.834	62.3234
14.852	62.3603
14.87	62.3954
14.888	62.4239
14.906	62.4417
14.924	62.4461
14.942	62.436
14.96	62.413
14.978	62.3801
14.996	62.3411
15.014	62.3004
15.032	62.2629
15.05	62.2322
15.068	62.2102
15.086	62.1977
15.104	62.1945
15.122	62.1985
15.14	62.207
15.158	62.2173
15.176	62.2267
15.194	62.2329
15.212	62.2342
15.23	62.2299
15.248	62.22
15.266	62.2052
15.284	62.1865
15.302	62.1655
15.32	62.144
15.338	62.1235
15.356	62.106
15.374	62.0934
15.392	62.0871
15.41	62.0878
15.428	62.0964
15.446	62.1126
15.464	62.1354
15.482	62.1633
15.5	62.1946
15.518	62.2264
15.536	62.2565
15.554	62.2831
15.572	62.3046
15.59	62.3201
15.608	62.3298
15.626	62.3344
15.644	62.3352
15.662	62.3346
15.68	62.334
15.698	62.3348
15.716	62.3385
15.734	62.3449
15.752	62.3534
15.77	62.3633
15.788	62.3724
15.806	62.3793
15.824	62.3827
15.842	62.3815
15.86	62.3756
15.878	62.3656
15.896	62.3523
15.914	62.3373
15.932	62.3223
15.95	62.3086
15.968	62.2975
15.986	62.2894
16.004	62.284
16.022	62.2807
16.04	62.2776
16.058	62.2728
16.076	62.2648
16.094	62.2512
16.112	62.2314
16.13	62.2052
16.148	62.1725
16.166	62.1358
16.184	62.0978
16.202	62.0612
16.22	62.0315
16.238	62.0118
16.256	62.0053
16.274	62.0157
16.292	62.0436
16.31	62.0894
16.328	62.151
16.346	62.2248
16.364	62.3076
16.382	62.3919
16.4	62.4721
16.418	62.5434
16.436	62.5986
16.454	62.6345
16.472	62.6488
16.49	62.6402
16.508	62.6113
16.526	62.5639
16.544	62.5043
16.562	62.4384
16.58	62.3707
16.598	62.3097
16.616	62.2586
16.634	62.2212
16.652	62.2001
16.67	62.1944
16.688	62.2033
16.706	62.2229
16.724	62.25
16.742	62.2803
16.76	62.3083
16.778	62.3315
16.796	62.3457
16.814	62.3492
16.832	62.3411
16.85	62.3215
16.868	62.292
16.886	62.2534
16.904	62.2096
16.922	62.1626
16.94	62.115
16.958	62.0703
16.976	62.0295
16.994	61.9951
17.012	61.9678
17.03	61.9481
17.048	61.936
17.066	61.9309
17.084	61.9324
17.102	61.9391
17.12	61.9505
17.138	61.9653
17.156	61.9828
17.174	62.0024
17.192	62.0236
17.21	62.0463
17.228	62.0701
17.246	62.0957
17.264	62.1232
17.282	62.1535
17.3	62.187
17.318	62.2241
17.336	62.2646
17.354	62.3083
17.372	62.3537
17.39	62.3998
17.408	62.4443
17.426	62.4845
17.444	62.5187
17.462	62.5427
17.48	62.5556
17.498	62.5545
17.516	62.5391
17.534	62.5085
17.552	62.4646
17.57	62.4083
17.588	62.3435
17.606	62.2726
17.624	62.1996
17.642	62.1289
17.66	62.0626
17.678	62.0057
17.696	61.9589
17.714	61.9251
17.732	61.9039
17.75	61.896
17.768	61.8991
17.786	61.913
17.804	61.9336
17.822	61.9599
17.84	61.9883
17.858	62.0175
17.876	62.0456
17.894	62.0715
17.912	62.0946
17.93	62.115
17.948	62.1328
17.966	62.1488
17.984	62.1631
18.002	62.1764
18.02	62.1888
18.038	62.2003
18.056	62.2103
18.074	62.2185
18.092	62.2234
18.11	62.2247
18.128	62.2203
18.146	62.2103
18.164	62.1933
18.182	62.1698
18.2	62.1396
18.218	62.1031
18.236	62.0604
18.254	62.0127
18.272	61.9602
18.29	61.9044
18.308	61.8455
18.326	61.7855
18.344	61.7248
18.362	61.6652
18.38	61.6074
18.398	61.5533
18.416	61.5043
18.434	61.4621
18.452	61.4282
18.47	61.4037
18.488	61.3903
18.506	61.3889
18.524	61.3996
18.542	61.4226
18.56	61.4564
18.578	61.501
18.596	61.5519
18.614	61.6089
18.632	61.6659
18.65	61.7225
18.668	61.7714
18.686	61.8123
18.704	61.8378
18.722	61.8481
18.74	61.8384
18.758	61.8093
18.776	61.7593
18.794	61.6901
18.812	61.6038
18.83	61.503
18.848	61.3923
18.866	61.2754
18.884	61.1588
18.902	61.0463
18.92	60.9451
18.938	60.858
18.956	60.7916
18.974	60.7472
18.992	60.7293
19.01	60.7376
19.028	60.7743
19.046	60.8376
19.064	60.9272
19.082	61.0406
19.1	61.1749
19.118	61.3276
19.136	61.494
19.154	61.6719
19.172	61.8556
19.19	62.0436
19.208	62.2299
19.226	62.414
19.244	62.5903
19.262	62.7589
19.28	62.9157
19.298	63.0608
19.316	63.1914
19.334	63.3078
19.352	63.4084
19.37	63.4933
19.388	63.5628
19.406	63.6168
19.424	63.6558
19.442	63.6797
19.46	63.6902
19.478	63.6876
19.496	63.6724
19.514	63.6445
19.532	63.6056
19.55	63.5566
19.568	63.4975
19.586	63.4284
19.604	63.3494
19.622	63.2605
19.64	63.1616
19.658	63.0515
19.676	62.9305
19.694	62.798
19.712	62.6542
19.73	62.4992
19.748	62.3328
19.766	62.1571
19.784	61.9719
19.802	61.7803
19.82	61.5835
19.838	61.3841
19.856	61.186
19.874	60.9901
19.892	60.8024
19.91	60.6222
19.928	60.4558
19.946	60.3026
19.964	60.1667
19.982	60.0486
20	59.9491
20.018	59.8694
20.036	59.8088
20.054	59.7672
20.072	59.7441
20.09	59.7376
20.108	59.748
20.126	59.7724
20.144	59.8108
20.162	59.8612
20.18	59.9226
20.198	59.9944
20.216	60.0747
20.234	60.1639
20.252	60.2602
20.27	60.3639
20.288	60.473
20.306	60.5878
20.324	60.7064
20.342	60.8279
20.36	60.9514
20.378	61.0735
20.396	61.195
20.414	61.3111
20.432	61.4228
20.45	61.5256
20.468	61.6177
20.486	61.6985
20.504	61.7642
20.522	61.8158
20.54	61.8514
20.558	61.8709
20.576	61.8757
20.594	61.8654
20.612	61.8422
20.63	61.8099
20.648	61.7677
20.666	61.7226
20.684	61.6736
20.702	61.6262
20.72	61.584
20.738	61.547
20.756	61.5211
20.774	61.5053
20.792	61.5023
20.81	61.5133
20.828	61.5373
20.846	61.5747
20.864	61.6251
20.882	61.6851
20.9	61.7559
20.918	61.8333
20.936	61.9149
20.954	62.0006
20.972	62.085
20.99	62.1694
21.008	62.2494
21.026	62.3235
21.044	62.3913
21.062	62.4495
21.08	62.4988
21.098	62.5381
21.116	62.5665
21.134	62.5848
21.152	62.5935
21.17	62.5922
21.188	62.5832
21.206	62.5661
21.224	62.5423
21.242	62.5138
21.26	62.48
21.278	62.4439
21.296	62.4058
21.314	62.3665
21.332	62.3285
21.35	62.2911
21.368	62.2562
21.386	62.2244
21.404	62.1955
21.422	62.1707
21.44	62.1498
21.458	62.133
21.476	62.1207
21.494	62.1126
21.512	62.1087
21.53	62.1088
21.548	62.1128
21.566	62.1205
21.584	62.1319
21.602	62.1463
21.62	62.1639
21.638	62.1841
21.656	62.2064
21.674	62.231
21.692	62.2569
21.71	62.2838
21.728	62.3117
21.746	62.3399
21.764	62.3686
21.782	62.397
21.8	62.4244
21.818	62.4511
21.836	62.4756
21.854	62.498
21.872	62.5177
21.89	62.5328
21.908	62.5441
21.926	62.5499
21.944	62.5491
21.962	62.5423
21.98	62.5275
21.998	62.5047
22.016	62.4737
22.034	62.4334
22.052	62.3838
22.07	62.3256
22.088	62.2585
22.106	62.1826
22.124	62.0997
22.142	62.0096
22.16	61.9132
22.178	61.8144
22.196	61.7115
22.214	61.6079
22.232	61.5077
22.25	61.4087
22.268	61.3157
22.286	61.2315
22.304	61.1545
22.322	61.0897
22.34	61.0377
22.358	60.9982
22.376	60.9739
22.394	60.9649
22.412	60.9705
22.43	60.9909
22.448	61.0264
22.466	61.075
22.484	61.1355
22.502	61.2089
22.52	61.2913
22.538	61.3818
22.556	61.4809
22.574	61.5834
22.592	61.6894
22.61	61.7984
22.628	61.9054
22.646	62.0112
22.664	62.1149
22.682	62.2133
22.7	62.3073
22.718	62.3961
22.736	62.4784
22.754	62.5544
22.772	62.6243
22.79	62.6876
22.808	62.7444
22.826	62.7951
22.844	62.8399
22.862	62.8786
22.88	62.9117
22.898	62.9397
22.916	62.9623
22.934	62.9795
22.952	62.9914
22.97	62.9979
22.988	62.9984
23.006	62.9932
23.024	62.9821
23.042	62.9638
23.06	62.9386
23.078	62.9063
23.096	62.8651
23.114	62.8148
23.132	62.7558
23.15	62.6872
23.168	62.6086
23.186	62.5208
23.204	62.4245
23.222	62.3188
23.24	62.2052
23.258	62.0871
23.276	61.9629
23.294	61.8346
23.312	61.7074
23.33	61.5797
23.348	61.4533
23.366	61.3353
23.384	61.2242
23.402	61.1213
23.42	61.0336
23.438	60.9608
23.456	60.9029
23.474	60.8653
23.492	60.8489
23.51	60.8524
23.528	60.8781
23.546	60.9275
23.564	60.9992
23.582	61.0915
23.6	61.205
23.618	61.3397
23.636	61.4904
23.654	61.6559
23.672	61.8382
23.69	62.0293
23.708	62.2242
23.726	62.4278
23.744	62.6309
23.762	62.8256
23.78	63.0178
23.798	63.1999
23.816	63.3631
23.834	63.5119
23.852	63.6423
23.87	63.747
23.888	63.8277
23.906	63.8839
23.924	63.9107
23.942	63.9073
23.96	63.8753
23.978	63.8135
23.996	63.7208
24.014	63.5979
24.032	63.4474
24.05	63.2703
24.068	63.0647
24.086	62.8358
24.104	62.588
24.122	62.3173
24.14	62.0288
24.158	61.7292
24.176	61.4153
24.194	61.0896
24.212	60.7602
24.23	60.4278
24.248	60.0906
24.266	59.7553
24.284	59.4255
24.302	59.0972
24.32	58.7762
24.338	58.4677
24.356	58.1674
24.374	57.8796
24.392	57.6113
24.41	57.3604
24.428	57.1274
24.446	56.9192
24.464	56.738
24.482	56.5807
24.5	56.4521
24.518	56.3563
24.536	56.2904
24.554	56.2562
24.572	56.2564
24.59	56.2915
24.608	56.36
24.626	56.4619
24.644	56.5977
24.662	56.7676
24.68	56.9681
24.698	57.1961
24.716	57.4558
24.734	57.7418
24.752	58.0464
24.77	58.371
24.788	58.7163
24.806	59.0726
24.824	59.4337
24.842	59.8074
24.86	60.1838
24.878	60.5511
24.896	60.9132
24.914	61.2696
24.932	61.6106
24.95	61.931
24.968	62.2365
24.986	62.5223
25.004	62.7831
25.022	63.0197
25.04	63.2334
25.058	63.424
25.076	63.5906
25.094	63.733
25.112	63.8545
25.13	63.9579
25.148	64.0393
25.166	64.1024
25.184	64.1552
25.202	64.2
25.22	64.2316
25.238	64.2592
25.256	64.2925
25.274	64.326
25.292	64.3621
25.31	64.4102
25.328	64.476
25.346	64.5529
25.364	64.6466
25.382	64.7637
25.4	64.9037
25.418	65.0648
25.436	65.2499
25.454	65.4615
25.472	65.6993
25.49	65.9611
25.508	66.2448
25.526	66.5513
25.544	66.8813
25.562	67.2297
25.58	67.5919
25.598	67.9727
25.616	68.3686
25.634	68.7716
25.652	69.1777
25.67	69.5939
25.688	70.0118
25.706	70.4217
25.724	70.8253
25.742	71.2257
25.76	71.6115
25.778	71.9724
25.796	72.3165
25.814	72.6402
25.832	72.9318
25.85	73.1848
25.868	73.4084
25.886	73.5948
25.904	73.7333
25.922	73.8228
25.94	73.8693
25.958	73.8637
25.976	73.7967
25.994	73.6712
26.012	73.4889
26.03	73.2443
26.048	72.9326
26.066	72.5554
26.084	72.1146
26.102	71.6111
26.12	71.044
26.138	70.4099
26.156	69.7166
26.174	68.9729
26.192	68.1793
26.21	67.329
26.228	66.4358
26.246	65.5144
26.264	64.5591
26.282	63.5658
26.3	62.5557
26.318	61.5495
26.336	60.5334
26.354	59.5092
26.372	58.5016
26.39	57.5327
26.408	56.5823
26.426	55.6585
26.444	54.7867
26.462	53.9876
26.48	53.2415
26.498	52.5564
26.516	51.9507
26.534	51.4375
26.552	51.0012
26.57	50.6497
26.588	50.3959
26.606	50.2487
26.624	50.1984
26.642	50.2477
26.66	50.4011
26.678	50.6624
26.696	51.0292
26.714	51.4985
26.732	52.0674
26.75	52.7365
26.768	53.5099
26.786	54.3785
26.804	55.3321
26.822	56.3687
26.84	57.4985
26.858	58.7069
26.876	59.9774
26.894	61.3052
26.912	62.7061
26.93	64.1617
26.948	65.651
26.966	67.2369
26.984	69.045
27.002	70.7888
27.02	72.1556
27.028	72.5197