File: Bakgrunnsmateriale/MATLAB/FTIR/ftir_data/subAa/Mapping_121/BZ1503107-1_t82.asc
PE IR       SPECTRUM    SPECTRUM    ASCII       PEDS        1.60
  -1
BZ2155~1.ASC
17/04/07
19:57:57.00
17/04/07
19:58:23.00
tln
$BZ1503107-1_t0082$<tbV0>[2.6,5.2,8.0,0.0,27,1,0]
27.028
64

2002,4.07
MIRTGS : RIGHTBACK : INTERNAL 2
MIR : ON : INTERNAL 2
OPTKBR

0.200000
8
8.000000
FILLER
RATIO
SPECTRUM
UNLOCKED 256

DOUBLE
64
COMBINED
1
0
0

0.002000
RATIO

1
0
TRUE
51149
0
LEFT NOT FITTED RIGHT NOT FITTED 0
NONE
NONE
15600
12
4.427000
51148
TRUE
1 0 8 72 0 0 0 0

15798

#HDR
-1
-1
#GR
µM
%T
2.38419e-05
0.0
2.000000
0.002000
12515
8
81.3865
51.2503
#DATA
2.000000	 66.2346
2.018000	 65.8588
2.036000	 64.9131
2.054000	 65.2975
2.072000	 64.7299
2.090000	 65.1522
2.108000	 64.8711
2.126000	 64.866
2.144000	 65.1503
2.162000	 65.1852
2.180000	 64.7833
2.198000	 64.4827
2.216000	 64.51
2.234000	 64.3992
2.252000	 71.7499
2.270000	 64.7308
2.288000	 63.9789
2.306000	 64.9047
2.324000	 64.6749
2.342000	 64.8832
2.360000	 64.6883
2.378000	 65.114
2.396000	 64.9829
2.414000	 64.6251
2.432000	 65.0718
2.450000	 65.1262
2.468000	 65.2891
2.486000	 65.0771
2.504000	 64.81
2.522000	 64.9118
2.540000	 65.059
2.558000	 64.8613
2.576000	 64.8817
2.594000	 64.8809
2.612000	 64.7539
2.630000	 65.0118
2.648000	 65.2559
2.666000	 64.8633
2.684000	 65.0734
2.702000	 65.0846
2.720000	 65.117
2.738000	 64.924
2.756000	 65.046
2.774000	 65.1368
2.792000	 64.8682
2.810000	 64.8986
2.828000	 65.1311
2.846000	 64.9656
2.864000	 64.9512
2.882000	 65.062
2.900000	 65.1322
2.918000	 64.9929
2.936000	 64.7639
2.954000	 64.9195
2.972000	 64.9921
2.990000	 64.9663
3.008000	 64.946
3.026000	 64.9678
3.044000	 64.9655
3.062000	 64.8167
3.080000	 64.9596
3.098000	 65.1334
3.116000	 64.9448
3.134000	 64.999
3.152000	 64.817
3.170000	 64.9535
3.188000	 64.8239
3.206000	 64.989
3.224000	 64.7898
3.242000	 64.8307
3.260000	 64.9676
3.278000	 64.9407
3.296000	 64.8301
3.314000	 64.8499
3.332000	 65.0154
3.350000	 64.9812
3.368000	 64.7485
3.386000	 64.6608
3.404000	 64.8663
3.422000	 64.7449
3.440000	 64.8439
3.458000	 64.7286
3.476000	 64.7893
3.494000	 64.9414
3.512000	 64.7075
3.530000	 64.7252
3.548000	 64.8223
3.566000	 64.8217
3.584000	 64.6616
3.602000	 64.8431
3.620000	 64.921
3.638000	 64.8518
3.656000	 64.8744
3.674000	 64.8274
3.692000	 64.7987
3.710000	 64.7953
3.728000	 64.7962
3.746000	 64.8114
3.764000	 64.7087
3.782000	 64.7626
3.800000	 64.7254
3.818000	 64.7563
3.836000	 64.6854
3.854000	 64.692
3.872000	 64.7216
3.890000	 64.6681
3.908000	 64.668
3.926000	 64.6059
3.944000	 64.7905
3.962000	 64.6052
3.980000	 64.6216
3.998000	 64.6649
4.016000	 64.675
4.034000	 64.6726
4.052000	 64.5796
4.070000	 64.5962
4.088000	 64.6447
4.106000	 64.6233
4.124000	 64.7287
4.141999	 64.6059
4.160000	 64.6721
4.178000	 64.5783
4.196000	 64.6091
4.214000	 64.6572
4.232000	 64.5042
4.250000	 64.5556
4.268000	 64.4879
4.286000	 64.5621
4.304000	 64.5646
4.322000	 64.5836
4.340000	 64.6154
4.358000	 64.341
4.375999	 64.4492
4.394000	 64.6364
4.412000	 64.5317
4.430000	 64.5559
4.448000	 64.4639
4.466000	 64.415
4.484000	 64.5376
4.502000	 64.499
4.520000	 64.406
4.538000	 64.4423
4.556000	 64.4509
4.574000	 64.4889
4.592000	 64.3548
4.609999	 64.4011
4.628000	 64.4636
4.646000	 64.3942
4.664000	 64.3504
4.682000	 64.4085
4.700000	 64.4144
4.718000	 64.3147
4.736000	 64.4384
4.754000	 64.3942
4.772000	 64.3564
4.790000	 64.432
4.808000	 64.4059
4.826000	 64.4096
4.843999	 64.4577
4.862000	 64.3775
4.880000	 64.2746
4.898000	 64.2927
4.916000	 64.3392
4.934000	 64.2971
4.952000	 64.3296
4.970000	 64.2796
4.988000	 64.2996
5.006000	 64.3255
5.024000	 64.1596
5.042000	 64.186
5.060000	 64.2892
5.077999	 64.2983
5.096000	 64.3534
5.114000	 64.3037
5.132000	 64.3187
5.150000	 64.2566
5.168000	 64.2071
5.186000	 64.2464
5.204000	 64.3643
5.222000	 64.343
5.240000	 64.2791
5.258000	 64.164
5.276000	 64.1175
5.294000	 64.1325
5.312000	 64.1863
5.330000	 64.2069
5.348000	 64.2178
5.366000	 64.2105
5.384000	 64.1824
5.402000	 64.1307
5.420000	 64.1406
5.438000	 64.1071
5.456000	 64.0293
5.474000	 64.0751
5.492000	 64.0467
5.510000	 64.1379
5.528000	 64.1845
5.546000	 64.1428
5.564000	 64.1454
5.582000	 64.1556
5.600000	 64.0954
5.618000	 64.0606
5.636000	 64.0893
5.654000	 64.1056
5.672000	 64.1014
5.690000	 64.0383
5.708000	 63.8771
5.726000	 63.7878
5.744000	 63.7155
5.762000	 63.7445
5.780000	 63.8658
5.798000	 63.8418
5.816000	 63.8068
5.834000	 63.92
5.852000	 63.9169
5.870000	 63.8564
5.888000	 63.9257
5.906000	 63.9907
5.923999	 63.9325
5.942000	 63.765
5.960000	 63.7452
5.978000	 63.7977
5.996000	 63.8135
6.014000	 63.8283
6.032000	 63.8299
6.050000	 63.8667
6.068000	 63.9329
6.086000	 63.9044
6.104000	 63.786
6.122000	 63.767
6.140000	 63.8968
6.158000	 63.9712
6.176000	 63.9914
6.194000	 63.9569
6.212000	 63.8517
6.230000	 63.8217
6.248000	 63.8796
6.266000	 63.8453
6.284000	 63.7744
6.302000	 63.8246
6.320000	 63.8652
6.338000	 63.8737
6.356000	 63.9236
6.374000	 63.931
6.392000	 63.8187
6.410000	 63.6982
6.428000	 63.68
6.446000	 63.7642
6.464000	 63.8728
6.482000	 63.912
6.500000	 63.9239
6.518000	 63.8815
6.536000	 63.825
6.554000	 63.8257
6.572000	 63.853
6.590000	 63.8614
6.608000	 63.8738
6.626000	 63.8973
6.644000	 63.8773
6.662000	 63.793
6.680000	 63.7302
6.698000	 63.7585
6.716000	 63.7858
6.734000	 63.7729
6.752000	 63.7625
6.770000	 63.745
6.788000	 63.6773
6.806000	 63.6321
6.824000	 63.7141
6.842000	 63.8415
6.860000	 63.8937
6.878000	 63.8753
6.896000	 63.8049
6.914000	 63.7059
6.932000	 63.6636
6.950000	 63.7042
6.968000	 63.7659
6.986000	 63.8024
7.004000	 63.7962
7.022000	 63.7361
7.040000	 63.6696
7.058000	 63.6405
7.076000	 63.6014
7.094000	 63.5556
7.112000	 63.5616
7.130000	 63.5779
7.148000	 63.5681
7.166000	 63.5818
7.184000	 63.614
7.202000	 63.6024
7.220000	 63.5566
7.238000	 63.5347
7.256000	 63.5254
7.274000	 63.4999
7.292000	 63.4853
7.310000	 63.4976
7.328000	 63.511
7.346000	 63.5048
7.364000	 63.4887
7.382000	 63.4893
7.400000	 63.5099
7.418000	 63.5409
7.436000	 63.5746
7.454000	 63.5945
7.472000	 63.5993
7.490000	 63.6103
7.508000	 63.6296
7.526000	 63.639
7.544000	 63.6125
7.562000	 63.5526
7.580000	 63.5108
7.598000	 63.5244
7.616000	 63.5614
7.634000	 63.5711
7.652000	 63.5491
7.670000	 63.5254
7.688000	 63.5135
7.706000	 63.5062
7.724000	 63.5066
7.742000	 63.5228
7.760000	 63.5411
7.778000	 63.5414
7.796000	 63.5201
7.814000	 63.4741
7.832000	 63.415
7.850000	 63.3905
7.868000	 63.4251
7.886000	 63.4659
7.904000	 63.4534
7.922000	 63.4039
7.940000	 63.3757
7.958000	 63.3908
7.976000	 63.4179
7.994000	 63.4175
8.012000	 63.3926
8.030000	 63.3863
8.048000	 63.4169
8.065999	 63.4474
8.084000	 63.4429
8.102000	 63.4225
8.120000	 63.4334
8.138000	 63.4899
8.155999	 63.5539
8.173999	 63.5658
8.192000	 63.5019
8.210000	 63.4072
8.228000	 63.3591
8.246000	 63.3873
8.263999	 63.4511
8.282000	 63.4949
8.300000	 63.5053
8.318000	 63.5028
8.336000	 63.5034
8.353999	 63.5019
8.372000	 63.485
8.390000	 63.4509
8.408000	 63.4148
8.426000	 63.3978
8.443999	 63.4065
8.462000	 63.4249
8.480000	 63.4263
8.498000	 63.3927
8.516000	 63.3296
8.533999	 63.2599
8.552000	 63.202
8.570000	 63.1611
8.588000	 63.1417
8.606000	 63.1529
8.624000	 63.1873
8.641999	 63.2139
8.660000	 63.212
8.678000	 63.2019
8.696000	 63.2183
8.714000	 63.2623
8.731999	 63.3038
8.750000	 63.3279
8.768000	 63.3508
8.786000	 63.3837
8.804000	 63.4094
8.821999	 63.4053
8.840000	 63.3688
8.858000	 63.3216
8.876000	 63.2934
8.894000	 63.2967
8.911999	 63.3172
8.930000	 63.333
8.948000	 63.3339
8.966000	 63.3192
8.984000	 63.2929
9.001999	 63.2651
9.020000	 63.2477
9.038000	 63.2452
9.056000	 63.2501
9.074000	 63.2491
9.092000	 63.2343
9.109999	 63.2145
9.128000	 63.2125
9.146000	 63.2425
9.164000	 63.293
9.182000	 63.3368
9.199999	 63.3541
9.218000	 63.3456
9.236000	 63.3264
9.254000	 63.3124
9.272000	 63.3101
9.289999	 63.3158
9.308000	 63.3194
9.326000	 63.3115
9.344000	 63.2924
9.362000	 63.2732
9.379999	 63.2674
9.398000	 63.2782
9.416000	 63.2954
9.434000	 63.303
9.452000	 63.2903
9.469999	 63.2601
9.488000	 63.2265
9.506000	 63.2048
9.524000	 63.2031
9.542000	 63.2168
9.560000	 63.2305
9.577999	 63.2263
9.596000	 63.194
9.614000	 63.141
9.632000	 63.0918
9.650000	 63.0747
9.667999	 63.1034
9.686000	 63.1652
9.704000	 63.2266
9.722000	 63.2549
9.740000	 63.2388
9.757999	 63.1933
9.776000	 63.1486
9.794000	 63.1305
9.812000	 63.1479
9.830000	 63.1898
9.847999	 63.2335
9.866000	 63.26
9.884000	 63.2652
9.902000	 63.2602
9.920000	 63.2595
9.937999	 63.2678
9.956000	 63.2743
9.974000	 63.2623
9.992000	 63.2223
10.01	63.1609
10.028	63.0977
10.046	63.0524
10.064	63.0339
10.082	63.0389
10.1	63.0579
10.118	63.0839
10.136	63.1173
10.154	63.1613
10.172	63.2148
10.19	63.2677
10.208	63.3062
10.226	63.322
10.244	63.3168
10.262	63.2987
10.28	63.2747
10.298	63.2474
10.316	63.217
10.334	63.1865
10.352	63.1635
10.37	63.1558
10.388	63.1648
10.406	63.1844
10.424	63.2048
10.442	63.219
10.46	63.2253
10.478	63.2244
10.496	63.2168
10.514	63.2035
10.532	63.1888
10.55	63.1808
10.568	63.187
10.586	63.2069
10.604	63.2288
10.622	63.2342
10.64	63.2091
10.658	63.1543
10.676	63.088
10.694	63.035
10.712	63.0148
10.73	63.0304
10.748	63.0699
10.766	63.1131
10.784	63.1438
10.802	63.1536
10.82	63.1434
10.838	63.1196
10.856	63.0903
10.874	63.0659
10.892	63.0556
10.91	63.066
10.928	63.0981
10.946	63.1466
10.964	63.2014
10.982	63.2509
11	63.2867
11.018	63.3048
11.036	63.3058
11.054	63.2929
11.072	63.2706
11.09	63.2438
11.108	63.2176
11.126	63.1975
11.144	63.1873
11.162	63.1887
11.18	63.2024
11.198	63.2281
11.216	63.2649
11.234	63.3099
11.252	63.3574
11.27	63.3987
11.288	63.4234
11.306	63.4246
11.324	63.4012
11.342	63.3599
11.36	63.3123
11.378	63.2716
11.396	63.2459
11.414	63.2362
11.432	63.2375
11.45	63.2415
11.468	63.2411
11.486	63.2327
11.504	63.2167
11.522	63.1964
11.54	63.1757
11.558	63.1575
11.576	63.1438
11.594	63.1346
11.612	63.129
11.63	63.1249
11.648	63.1193
11.666	63.1087
11.684	63.0906
11.702	63.0646
11.72	63.0328
11.738	62.9999
11.756	62.9709
11.774	62.9501
11.792	62.9395
11.81	62.9383
11.828	62.9443
11.846	62.9548
11.864	62.9682
11.882	62.9834
11.9	63.0005
11.918	63.0191
11.936	63.0386
11.954	63.058
11.972	63.0771
11.99	63.0972
12.008	63.1211
12.026	63.1519
12.044	63.1917
12.062	63.2397
12.08	63.2916
12.098	63.3407
12.116	63.3793
12.134	63.4014
12.152	63.4047
12.17	63.3895
12.188	63.3584
12.206	63.3154
12.224	63.2642
12.242	63.2087
12.26	63.1531
12.278	63.1027
12.296	63.0632
12.314	63.0402
12.332	63.0375
12.35	63.0562
12.368	63.0935
12.386	63.1422
12.404	63.1924
12.422	63.2332
12.44	63.2548
12.458	63.2516
12.476	63.2226
12.494	63.1727
12.512	63.1104
12.53	63.047
12.548	62.9931
12.566	62.9565
12.584	62.9412
12.602	62.9471
12.62	62.9703
12.638	63.0051
12.656	63.046
12.674	63.0887
12.692	63.1312
12.71	63.1731
12.728	63.2149
12.746	63.2572
12.764	63.2996
12.782	63.3397
12.8	63.3743
12.818	63.399
12.836	63.41
12.854	63.4035
12.872	63.3782
12.89	63.3345
12.908	63.2749
12.926	63.2036
12.944	63.1262
12.962	63.0488
12.98	62.9777
12.998	62.918
13.016	62.8734
13.034	62.8457
13.052	62.8347
13.07	62.838
13.088	62.8521
13.106	62.8733
13.124	62.8976
13.142	62.922
13.16	62.9443
13.178	62.964
13.196	62.9809
13.214	62.9963
13.232	63.0114
13.25	63.0281
13.268	63.0475
13.286	63.0703
13.304	63.0964
13.322	63.1246
13.34	63.1525
13.358	63.177
13.376	63.1949
13.394	63.203
13.412	63.199
13.43	63.182
13.448	63.1526
13.466	63.113
13.484	63.0667
13.502	63.0172
13.52	62.9679
13.538	62.9216
13.556	62.8802
13.574	62.8444
13.592	62.8145
13.61	62.7904
13.628	62.7722
13.646	62.7602
13.664	62.755
13.682	62.757
13.7	62.766
13.718	62.7811
13.736	62.8007
13.754	62.8217
13.772	62.8412
13.79	62.8562
13.808	62.865
13.826	62.8668
13.844	62.8629
13.862	62.8556
13.88	62.848
13.898	62.8438
13.916	62.8456
13.934	62.8549
13.952	62.8716
13.97	62.8936
13.988	62.9176
14.006	62.939
14.024	62.9527
14.042	62.9543
14.06	62.9412
14.078	62.9121
14.096	62.868
14.114	62.8118
14.132	62.7482
14.15	62.6825
14.168	62.6201
14.186	62.5657
14.204	62.523
14.222	62.4939
14.24	62.4786
14.258	62.4758
14.276	62.4832
14.294	62.4979
14.312	62.5176
14.33	62.5403
14.348	62.5653
14.366	62.5919
14.384	62.6206
14.402	62.6522
14.42	62.6873
14.438	62.7261
14.456	62.7684
14.474	62.813
14.492	62.8583
14.51	62.9023
14.528	62.9431
14.546	62.9796
14.564	63.0113
14.582	63.0387
14.6	63.0626
14.618	63.0843
14.636	63.1053
14.654	63.1262
14.672	63.1471
14.69	63.1675
14.708	63.1863
14.726	63.2028
14.744	63.2158
14.762	63.2252
14.78	63.2304
14.798	63.2308
14.816	63.2256
14.834	63.2133
14.852	63.1915
14.87	63.1581
14.888	63.1117
14.906	63.0514
14.924	62.978
14.942	62.8942
14.96	62.8049
14.978	62.7162
14.996	62.6348
15.014	62.5675
15.032	62.5206
15.05	62.4971
15.068	62.4973
15.086	62.5188
15.104	62.5571
15.122	62.6046
15.14	62.6533
15.158	62.696
15.176	62.7271
15.194	62.742
15.212	62.7394
15.23	62.7208
15.248	62.6891
15.266	62.6484
15.284	62.6039
15.302	62.56
15.32	62.5197
15.338	62.485
15.356	62.4564
15.374	62.4334
15.392	62.4141
15.41	62.3966
15.428	62.3789
15.446	62.3584
15.464	62.3336
15.482	62.3038
15.5	62.2683
15.518	62.2267
15.536	62.1797
15.554	62.1279
15.572	62.0721
15.59	62.015
15.608	61.9589
15.626	61.9066
15.644	61.8622
15.662	61.8304
15.68	61.815
15.698	61.8193
15.716	61.8466
15.734	61.8975
15.752	61.9712
15.77	62.0659
15.788	62.1761
15.806	62.2953
15.824	62.4175
15.842	62.5351
15.86	62.64
15.878	62.728
15.896	62.7955
15.914	62.8405
15.932	62.8646
15.95	62.87
15.968	62.8604
15.986	62.8422
16.004	62.8195
16.022	62.797
16.04	62.7797
16.058	62.7692
16.076	62.7671
16.094	62.7739
16.112	62.788
16.13	62.8086
16.148	62.8343
16.166	62.8631
16.184	62.8944
16.202	62.9274
16.22	62.9618
16.238	62.9975
16.256	63.0348
16.274	63.0734
16.292	63.1128
16.31	63.1525
16.328	63.1913
16.346	63.228
16.364	63.2616
16.382	63.2908
16.4	63.3154
16.418	63.335
16.436	63.3505
16.454	63.363
16.472	63.3734
16.49	63.3835
16.508	63.3934
16.526	63.4033
16.544	63.4124
16.562	63.4187
16.58	63.4209
16.598	63.4153
16.616	63.3998
16.634	63.3721
16.652	63.3301
16.67	63.2736
16.688	63.2026
16.706	63.1198
16.724	63.028
16.742	62.9307
16.76	62.8338
16.778	62.7399
16.796	62.6543
16.814	62.5799
16.832	62.5183
16.85	62.4711
16.868	62.4371
16.886	62.4156
16.904	62.4034
16.922	62.3985
16.94	62.3979
16.958	62.3987
16.976	62.3998
16.994	62.3992
17.012	62.3972
17.03	62.3939
17.048	62.391
17.066	62.3895
17.084	62.3916
17.102	62.3988
17.12	62.4121
17.138	62.4329
17.156	62.4611
17.174	62.497
17.192	62.5397
17.21	62.5887
17.228	62.6424
17.246	62.6997
17.264	62.7599
17.282	62.8215
17.3	62.8839
17.318	62.946
17.336	63.007
17.354	63.0662
17.372	63.122
17.39	63.1736
17.408	63.2194
17.426	63.2577
17.444	63.2873
17.462	63.306
17.48	63.3133
17.498	63.3078
17.516	63.2899
17.534	63.2591
17.552	63.2177
17.57	63.1664
17.588	63.1087
17.606	63.0467
17.624	62.9841
17.642	62.9241
17.66	62.8687
17.678	62.8213
17.696	62.7826
17.714	62.7541
17.732	62.7352
17.75	62.7256
17.768	62.723
17.786	62.7267
17.804	62.7332
17.822	62.7418
17.84	62.7494
17.858	62.7555
17.876	62.7589
17.894	62.7597
17.912	62.7579
17.93	62.7555
17.948	62.7527
17.966	62.7518
17.984	62.7531
18.002	62.7581
18.02	62.7661
18.038	62.7775
18.056	62.7904
18.074	62.8043
18.092	62.8156
18.11	62.8236
18.128	62.8244
18.146	62.8173
18.164	62.7994
18.182	62.7709
18.2	62.7305
18.218	62.6802
18.236	62.62
18.254	62.5538
18.272	62.4821
18.29	62.4104
18.308	62.3395
18.326	62.2742
18.344	62.2149
18.362	62.1647
18.38	62.1229
18.398	62.0901
18.416	62.0643
18.434	62.0443
18.452	62.0266
18.47	62.0094
18.488	61.9884
18.506	61.9621
18.524	61.927
18.542	61.8821
18.56	61.8261
18.578	61.7586
18.596	61.6815
18.614	61.5948
18.632	61.5023
18.65	61.4045
18.668	61.3073
18.686	61.2114
18.704	61.1222
18.722	61.0405
18.74	60.972
18.758	60.9173
18.776	60.8804
18.794	60.8618
18.812	60.8644
18.83	60.8878
18.848	60.9333
18.866	60.9997
18.884	61.0866
18.902	61.1919
18.92	61.3135
18.938	61.4487
18.956	61.5937
18.974	61.7455
18.992	61.8993
19.01	62.0523
19.028	62.199
19.046	62.3374
19.064	62.4627
19.082	62.5739
19.1	62.6673
19.118	62.7433
19.136	62.8
19.154	62.8389
19.172	62.8613
19.19	62.8687
19.208	62.8649
19.226	62.8512
19.244	62.8333
19.262	62.8117
19.28	62.7923
19.298	62.7748
19.316	62.7638
19.334	62.7588
19.352	62.7615
19.37	62.7716
19.388	62.7878
19.406	62.8105
19.424	62.836
19.442	62.8645
19.46	62.8926
19.478	62.9198
19.496	62.9438
19.514	62.9633
19.532	62.9785
19.55	62.9888
19.568	62.995
19.586	62.9973
19.604	62.9966
19.622	62.994
19.64	62.9898
19.658	62.9858
19.676	62.9817
19.694	62.9778
19.712	62.9741
19.73	62.9702
19.748	62.9662
19.766	62.9608
19.784	62.9536
19.802	62.9443
19.82	62.9321
19.838	62.9173
19.856	62.8996
19.874	62.8797
19.892	62.8588
19.91	62.8369
19.928	62.8171
19.946	62.7989
19.964	62.7857
19.982	62.7777
20	62.7766
20.018	62.784
20.036	62.7992
20.054	62.8232
20.072	62.8552
20.09	62.893
20.108	62.9371
20.126	62.9821
20.144	63.0286
20.162	63.0709
20.18	63.1073
20.198	63.1351
20.216	63.1493
20.234	63.1507
20.252	63.1346
20.27	63.1017
20.288	63.0511
20.306	62.982
20.324	62.8974
20.342	62.798
20.36	62.686
20.378	62.5673
20.396	62.4409
20.414	62.3164
20.432	62.1927
20.45	62.0771
20.468	61.9726
20.486	61.8807
20.504	61.8079
20.522	61.7526
20.54	61.7191
20.558	61.7073
20.576	61.7166
20.594	61.7476
20.612	61.7984
20.63	61.8663
20.648	61.9518
20.666	62.0477
20.684	62.1551
20.702	62.2676
20.72	62.3815
20.738	62.4962
20.756	62.6033
20.774	62.7047
20.792	62.7938
20.81	62.8693
20.828	62.9301
20.846	62.9728
20.864	62.9985
20.882	63.0062
20.9	62.9953
20.918	62.9681
20.936	62.9254
20.954	62.8679
20.972	62.8005
20.99	62.7215
21.008	62.6369
21.026	62.5482
21.044	62.4566
21.062	62.3682
21.08	62.2812
21.098	62.2008
21.116	62.128
21.134	62.0636
21.152	62.0105
21.17	61.968
21.188	61.9375
21.206	61.9195
21.224	61.9134
21.242	61.919
21.26	61.9366
21.278	61.9642
21.296	62.0018
21.314	62.0483
21.332	62.1013
21.35	62.1615
21.368	62.2259
21.386	62.2941
21.404	62.3653
21.422	62.4367
21.44	62.5093
21.458	62.5805
21.476	62.6492
21.494	62.7155
21.512	62.7773
21.53	62.835
21.548	62.8875
21.566	62.9335
21.584	62.9736
21.602	63.0072
21.62	63.0341
21.638	63.0545
21.656	63.0683
21.674	63.0754
21.692	63.0773
21.71	63.0738
21.728	63.0656
21.746	63.055
21.764	63.041
21.782	63.026
21.8	63.0118
21.818	62.9976
21.836	62.9874
21.854	62.9812
21.872	62.9799
21.89	62.9865
21.908	62.9999
21.926	63.0217
21.944	63.0533
21.962	63.0939
21.98	63.1434
21.998	63.2022
22.016	63.2694
22.034	63.343
22.052	63.4245
22.07	63.5103
22.088	63.5983
22.106	63.6896
22.124	63.7791
22.142	63.8665
22.16	63.9511
22.178	64.0275
22.196	64.0971
22.214	64.1575
22.232	64.2052
22.25	64.2418
22.268	64.2651
22.286	64.2734
22.304	64.2677
22.322	64.2478
22.34	64.213
22.358	64.1642
22.376	64.1032
22.394	64.029
22.412	63.9436
22.43	63.8497
22.448	63.7459
22.466	63.6354
22.484	63.5206
22.502	63.4001
22.52	63.2776
22.538	63.1545
22.556	63.03
22.574	62.9074
22.592	62.7871
22.61	62.6691
22.628	62.5554
22.646	62.4461
22.664	62.3413
22.682	62.2418
22.7	62.1476
22.718	62.0586
22.736	61.975
22.754	61.8967
22.772	61.8236
22.79	61.7553
22.808	61.692
22.826	61.6336
22.844	61.5797
22.862	61.5306
22.88	61.4862
22.898	61.4465
22.916	61.4114
22.934	61.3817
22.952	61.3575
22.97	61.3386
22.988	61.325
23.006	61.3165
23.024	61.3131
23.042	61.3151
23.06	61.3223
23.078	61.3348
23.096	61.353
23.114	61.3768
23.132	61.4062
23.15	61.4415
23.168	61.483
23.186	61.5302
23.204	61.5822
23.222	61.6392
23.24	61.7009
23.258	61.7658
23.276	61.8343
23.294	61.9059
23.312	61.9791
23.33	62.0543
23.348	62.131
23.366	62.2073
23.384	62.2835
23.402	62.3594
23.42	62.4327
23.438	62.5035
23.456	62.572
23.474	62.6359
23.492	62.6951
23.51	62.75
23.528	62.7991
23.546	62.842
23.564	62.8791
23.582	62.9096
23.6	62.9328
23.618	62.9494
23.636	62.959
23.654	62.9614
23.672	62.9568
23.69	62.9455
23.708	62.9275
23.726	62.9028
23.744	62.872
23.762	62.8357
23.78	62.7934
23.798	62.7462
23.816	62.6952
23.834	62.6395
23.852	62.5803
23.87	62.5193
23.888	62.4557
23.906	62.3902
23.924	62.3252
23.942	62.2605
23.96	62.1959
23.978	62.1343
23.996	62.0759
24.014	62.02
24.032	61.9695
24.05	61.9262
24.068	61.8884
24.086	61.8584
24.104	61.8383
24.122	61.8267
24.14	61.8248
24.158	61.8345
24.176	61.8558
24.194	61.8881
24.212	61.931
24.23	61.9851
24.248	62.05
24.266	62.1239
24.284	62.2062
24.302	62.2985
24.32	62.3963
24.338	62.4953
24.356	62.5997
24.374	62.7046
24.392	62.8029
24.41	62.8975
24.428	62.987
24.446	63.0621
24.464	63.1199
24.482	63.1649
24.5	63.1887
24.518	63.1844
24.536	63.1572
24.554	63.103
24.572	63.0147
24.59	62.8935
24.608	62.7402
24.626	62.5513
24.644	62.3245
24.662	62.0613
24.68	61.7636
24.698	61.4322
24.716	61.064
24.734	60.6641
24.752	60.2394
24.77	59.7879
24.788	59.3094
24.806	58.8152
24.824	58.3123
24.842	57.7922
24.86	57.2655
24.878	56.745
24.896	56.2252
24.914	55.7081
24.932	55.2066
24.95	54.7272
24.968	54.2616
24.986	53.8196
25.004	53.4117
25.022	53.0338
25.04	52.6864
25.058	52.3759
25.076	52.1061
25.094	51.8736
25.112	51.6783
25.13	51.5204
25.148	51.4015
25.166	51.3192
25.184	51.2691
25.202	51.2503
25.22	51.2655
25.238	51.3087
25.256	51.3737
25.274	51.4648
25.292	51.5795
25.31	51.7093
25.328	51.8502
25.346	52.0082
25.364	52.1757
25.382	52.3439
25.4	52.5146
25.418	52.6889
25.436	52.8611
25.454	53.0266
25.472	53.1884
25.49	53.3457
25.508	53.4964
25.526	53.6394
25.544	53.7759
25.562	53.9063
25.58	54.0312
25.598	54.1494
25.616	54.2621
25.634	54.3711
25.652	54.4775
25.67	54.5795
25.688	54.6794
25.706	54.7798
25.724	54.8808
25.742	54.9815
25.76	55.0836
25.778	55.1889
25.796	55.2973
25.814	55.408
25.832	55.5205
25.85	55.6349
25.868	55.7524
25.886	55.8706
25.904	55.9869
25.922	56.1011
25.94	56.2149
25.958	56.3248
25.976	56.4274
25.994	56.5242
26.012	56.6154
26.03	56.6978
26.048	56.7684
26.066	56.83
26.084	56.8812
26.102	56.9193
26.12	56.9421
26.138	56.9514
26.156	56.947
26.174	56.9286
26.192	56.8946
26.21	56.8449
26.228	56.7832
26.246	56.7136
26.264	56.634
26.282	56.5433
26.3	56.4486
26.318	56.3567
26.336	56.2648
26.354	56.1721
26.372	56.0838
26.39	56.0042
26.408	55.9289
26.426	55.8599
26.444	55.8031
26.462	55.7631
26.48	55.7341
26.498	55.7196
26.516	55.7262
26.534	55.7585
26.552	55.8105
26.57	55.8858
26.588	55.9901
26.606	56.1275
26.624	56.294
26.642	56.4903
26.66	56.7179
26.678	56.9777
26.696	57.2681
26.714	57.5899
26.732	57.9437
26.75	58.3311
26.768	58.7527
26.786	59.2045
26.804	59.6823
26.822	60.1832
26.84	60.7098
26.858	61.262
26.876	61.8399
26.894	62.4426
26.912	63.0689
26.93	63.7215
26.948	64.4035
26.966	65.1565
26.984	66.0375
27.002	66.8967
27.02	67.5721
27.028	67.7509