File: Bakgrunnsmateriale/MATLAB/FTIR/ftir_data/subAa/Mapping_121/BZ1503107-1_t76_cm-1.asc
PE IR       SPECTRUM    SPECTRUM    ASCII       PEDS        1.60
  -1
BZ6EA6~1.ASC
17/04/07
19:29:37.00
17/04/07
19:29:37.00
tln
$BZ1503107-1_t0076$<tbV0>[-10.4,2.6,8.0,0.0,27,1,0]
370
64

2002,4.07
MIRTGS : RIGHTBACK : INTERNAL 2
MIR : ON : INTERNAL 2
OPTKBR

0.200000
8
8.000000
FILLER
RATIO
SPECTRUM
UNLOCKED 256

DOUBLE
64
COMBINED
1
0
0

1.000000
RATIO

1
0
TRUE
51149
0
LEFT NOT FITTED RIGHT NOT FITTED 0
NONE
NONE
15600
12
4.427000
51148
TRUE
1 0 8 72 0 0 0 0

15798

#HDR
-1
-1
#GR
CM-1
%T
2.38419e-05
0.0
5000
-1.000000
4631
8
95.0537
47.2737
#DATA
5000	64.4641
4996	64.8255
4992	65.4488
4988	65.6193
4984	65.0329
4980	64.2902
4976	64.1306
4972	64.595
4968	64.9059
4964	64.6969
4960	64.5797
4956	64.5844
4952	64.5163
4948	64.6091
4944	64.5746
4940	64.1029
4936	63.8037
4932	63.8692
4928	63.9952
4924	64.3935
4920	64.8021
4916	64.9881
4912	65.0725
4908	64.9662
4904	64.7624
4900	64.6073
4896	64.6467
4892	64.7392
4888	64.695
4884	64.675
4880	64.7404
4876	64.8167
4872	64.8273
4868	64.7103
4864	64.5651
4860	64.56
4856	64.5417
4852	64.4569
4848	64.4937
4844	64.6174
4840	64.7392
4836	64.9484
4832	65.2174
4828	65.1526
4824	64.8042
4820	64.6607
4816	64.8266
4812	64.8853
4808	64.5798
4804	64.3888
4800	64.4833
4796	64.6388
4792	64.8605
4788	64.875
4784	64.6399
4780	64.5071
4776	64.5926
4772	64.7291
4768	64.727
4764	64.6654
4760	64.5322
4756	64.4332
4752	64.5528
4748	64.6191
4744	64.6068
4740	64.7338
4736	64.86
4732	64.8847
4728	65.0293
4724	65.3171
4720	65.3497
4716	65.042
4712	64.6748
4708	64.3972
4704	64.4509
4700	64.7936
4696	64.8926
4692	64.7196
4688	64.5322
4684	64.3291
4680	64.1465
4676	64.1858
4672	64.4142
4668	64.5813
4664	64.7448
4660	64.8997
4656	64.8711
4652	64.7063
4648	64.7462
4644	64.9778
4640	65.0367
4636	64.9363
4632	64.8849
4628	64.9346
4624	64.9306
4620	64.8159
4616	64.85
4612	65.1136
4608	65.1946
4604	64.9529
4600	64.8917
4596	65.187
4592	65.183
4588	64.7728
4584	64.6931
4580	64.977
4576	65.0591
4572	64.8643
4568	64.7413
4564	64.8075
4560	64.8799
4556	64.8011
4552	64.7113
4548	64.7692
4544	64.7747
4540	64.6018
4536	64.5459
4532	64.5935
4528	64.5392
4524	64.3588
4520	64.1204
4516	64.2441
4512	64.6717
4508	64.8909
4504	64.854
4500	64.8577
4496	64.9483
4492	64.9438
4488	64.9553
4484	65.0238
4480	64.7532
4476	64.1489
4472	63.8378
4468	64.0185
4464	64.1957
4460	64.1673
4456	63.8125
4452	63.4111
4448	63.5563
4444	64.265
4440	65.3409
4436	65.4511
4432	62.8189
4428	57.9924
4424	57.7247
4420	64.3085
4416	71.6779
4412	72.2798
4408	68.2026
4404	65.5037
4400	65.1229
4396	65.4234
4392	65.1986
4388	64.9602
4384	64.8545
4380	64.504
4376	64.2721
4372	64.3002
4368	64.42
4364	64.6528
4360	64.9166
4356	64.9864
4352	64.9441
4348	64.886
4344	64.9144
4340	65.0326
4336	65.0491
4332	64.9424
4328	64.8475
4324	64.8998
4320	64.9534
4316	64.8642
4312	64.7158
4308	64.5836
4304	64.555
4300	64.6825
4296	64.7814
4292	64.8463
4288	64.9289
4284	64.8722
4280	64.8299
4276	64.9194
4272	65.0049
4268	64.9924
4264	64.9081
4260	64.8444
4256	64.7697
4252	64.6934
4248	64.7408
4244	64.892
4240	65.0477
4236	65.1228
4232	65.0049
4228	64.8652
4224	64.9402
4220	65.0278
4216	64.9891
4212	64.938
4208	64.8336
4204	64.6973
4200	64.6882
4196	64.7649
4192	64.7928
4188	64.7148
4184	64.6275
4180	64.6913
4176	64.7893
4172	64.8211
4168	64.8763
4164	64.9158
4160	64.8841
4156	64.8235
4152	64.8093
4148	64.8497
4144	64.7489
4140	64.5695
4136	64.6019
4132	64.7911
4128	64.9832
4124	65.131
4120	65.117
4116	64.9457
4112	64.8884
4108	64.9441
4104	64.9434
4100	64.997
4096	65.0895
4092	65.039
4088	64.9473
4084	64.9346
4080	64.9199
4076	64.844
4072	64.7821
4068	64.8624
4064	64.9945
4060	64.9003
4056	64.6715
4052	64.6762
4048	64.8102
4044	64.8648
4040	64.9424
4036	64.9202
4032	64.8199
4028	64.8723
4024	64.936
4020	64.9318
4016	65.0124
4012	65.1983
4008	65.2366
4004	65.0968
4000	65.0635
3996	65.0748
3992	65.0129
3988	64.9715
3984	64.9627
3980	64.8887
3976	64.7937
3972	64.838
3968	64.9151
3964	64.9303
3960	64.9138
3956	64.842
3952	64.9009
3948	65.048
3944	64.9621
3940	64.7344
3936	64.6337
3932	64.7766
3928	64.9425
3924	64.9038
3920	64.8954
3916	64.9998
3912	65.0724
3908	65.0721
3904	65.0383
3900	65.0111
3896	64.9211
3892	64.8912
3888	64.97
3884	64.9753
3880	64.9653
3876	65.0335
3872	65.0866
3868	65.0852
3864	65.0598
3860	65.0411
3856	64.9663
3852	64.7404
3848	64.6081
3844	64.7453
3840	64.8142
3836	64.7109
3832	64.6787
3828	64.756
3824	64.8998
3820	65.0289
3816	64.9936
3812	64.792
3808	64.7414
3804	64.9501
3800	65.0208
3796	64.9298
3792	64.9604
3788	65.07
3784	65.0996
3780	65.08
3776	65.0355
3772	64.909
3768	64.7032
3764	64.502
3760	64.5025
3756	64.6473
3752	64.7838
3748	64.9498
3744	65.1621
3740	65.2916
3736	65.264
3732	65.2124
3728	65.1155
3724	65.0072
3720	65.0022
3716	65.0182
3712	65.1002
3708	65.2152
3704	65.191
3700	65.1098
3696	65.1372
3692	65.1764
3688	65.072
3684	64.9179
3680	64.8642
3676	64.9564
3672	65.0846
3668	65.1192
3664	65.1288
3660	65.1247
3656	65.0513
3652	65.0574
3648	65.1434
3644	65.1426
3640	65.0936
3636	64.9999
3632	64.8528
3628	64.7991
3624	64.8158
3620	64.7885
3616	64.8251
3612	64.9649
3608	65.0603
3604	65.0614
3600	65.0022
3596	64.9346
3592	64.9164
3588	64.8977
3584	64.8498
3580	64.8485
3576	64.8974
3572	64.9502
3568	64.9956
3564	65.0134
3560	64.9781
3556	65.0126
3552	65.118
3548	65.0439
3544	64.8824
3540	64.9281
3536	65.0559
3532	65.0534
3528	64.9961
3524	65.0001
3520	65.094
3516	65.1611
3512	65.0483
3508	64.8841
3504	64.8418
3500	64.8364
3496	64.8643
3492	65.0156
3488	65.1754
3484	65.1394
3480	64.9684
3476	64.9164
3472	64.9391
3468	64.9067
3464	64.9262
3460	64.9873
3456	65.0048
3452	65.0463
3448	65.104
3444	65.1023
3440	65.0053
3436	64.8627
3432	64.8146
3428	64.9023
3424	65.0187
3420	65.017
3416	64.9118
3412	64.8478
3408	64.8427
3404	64.8247
3400	64.8569
3396	64.985
3392	65.0305
3388	64.946
3384	64.8819
3380	64.9067
3376	64.9505
3372	64.955
3368	64.9754
3364	64.9821
3360	64.9593
3356	64.9389
3352	64.892
3348	64.8752
3344	64.8904
3340	64.9044
3336	64.9479
3332	64.9941
3328	65.0395
3324	65.0267
3320	64.9038
3316	64.8503
3312	64.9631
3308	65.0414
3304	64.9694
3300	64.9136
3296	64.9611
3292	64.9568
3288	64.8424
3284	64.7488
3280	64.7536
3276	64.8082
3272	64.8443
3268	64.8706
3264	64.8663
3260	64.7943
3256	64.8589
3252	65.0231
3248	64.9883
3244	64.9006
3240	64.9545
3236	65.0153
3232	64.9771
3228	64.9317
3224	64.9844
3220	65.0446
3216	64.9935
3212	64.8727
3208	64.8218
3204	64.9081
3200	65.0362
3196	65.1259
3192	65.1476
3188	65.108
3184	65.0326
3180	64.9405
3176	64.8724
3172	64.8483
3168	64.8364
3164	64.8347
3160	64.8968
3156	64.9846
3152	65.0446
3148	65.0275
3144	64.9674
3140	64.9102
3136	64.835
3132	64.8024
3128	64.8027
3124	64.8621
3120	64.9772
3116	64.9798
3112	64.9186
3108	64.919
3104	64.944
3100	64.9771
3096	64.9352
3092	64.8035
3088	64.7361
3084	64.7492
3080	64.7784
3076	64.8118
3072	64.8741
3068	64.9724
3064	65.0531
3060	65.0737
3056	65.0173
3052	64.944
3048	64.9281
3044	64.9441
3040	64.9035
3036	64.7875
3032	64.7303
3028	64.7851
3024	64.8715
3020	64.9567
3016	64.9733
3012	64.8828
3008	64.8062
3004	64.8377
3000	64.8912
2996	64.9084
2992	64.949
2988	64.9318
2984	64.8393
2980	64.8146
2976	64.7931
2972	64.7336
2968	64.7457
2964	64.7666
2960	64.7145
2956	64.6507
2952	64.6242
2948	64.6252
2944	64.5988
2940	64.5684
2936	64.6182
2932	64.6991
2928	64.7204
2924	64.7338
2920	64.8121
2916	64.8565
2912	64.8517
2908	64.8758
2904	64.8647
2900	64.7913
2896	64.7188
2892	64.7151
2888	64.7854
2884	64.8311
2880	64.8076
2876	64.7991
2872	64.8237
2868	64.8109
2864	64.7953
2860	64.8212
2856	64.8219
2852	64.7762
2848	64.7574
2844	64.7599
2840	64.7678
2836	64.7927
2832	64.7628
2828	64.7182
2824	64.7988
2820	64.919
2816	64.9256
2812	64.8856
2808	64.8761
2804	64.8672
2800	64.8629
2796	64.8728
2792	64.8595
2788	64.8297
2784	64.8238
2780	64.844
2776	64.8748
2772	64.8773
2768	64.851
2764	64.8867
2760	64.9389
2756	64.921
2752	64.8823
2748	64.8599
2744	64.8684
2740	64.9265
2736	64.9933
2732	64.9954
2728	64.9607
2724	64.9285
2720	64.8616
2716	64.8022
2712	64.8249
2708	64.8711
2704	64.8426
2700	64.7957
2696	64.8077
2692	64.8078
2688	64.7803
2684	64.8134
2680	64.8701
2676	64.8676
2672	64.8551
2668	64.8321
2664	64.7816
2660	64.7869
2656	64.8197
2652	64.7749
2648	64.6722
2644	64.6344
2640	64.6843
2636	64.7433
2632	64.8257
2628	64.8969
2624	64.8651
2620	64.8073
2616	64.7788
2612	64.7415
2608	64.7287
2604	64.7564
2600	64.7661
2596	64.7766
2592	64.7783
2588	64.713
2584	64.7091
2580	64.7954
2576	64.8073
2572	64.7098
2568	64.6295
2564	64.6418
2560	64.6657
2556	64.6521
2552	64.641
2548	64.6705
2544	64.7409
2540	64.7797
2536	64.767
2532	64.7715
2528	64.7994
2524	64.8257
2520	64.8051
2516	64.7145
2512	64.6498
2508	64.6754
2504	64.7464
2500	64.8255
2496	64.8622
2492	64.8104
2488	64.7661
2484	64.7624
2480	64.7563
2476	64.7625
2472	64.7349
2468	64.6923
2464	64.6561
2460	64.6391
2456	64.6801
2452	64.7146
2448	64.7171
2444	64.6651
2440	64.5832
2436	64.5676
2432	64.6259
2428	64.6927
2424	64.6975
2420	64.6877
2416	64.704
2412	64.6849
2408	64.6574
2404	64.694
2400	64.707
2396	64.6214
2392	64.5436
2388	64.5268
2384	64.5372
2380	64.5864
2376	64.6633
2372	64.6693
2368	64.5936
2364	64.5372
2360	64.5533
2356	64.6128
2352	64.6639
2348	64.6513
2344	64.6038
2340	64.646
2336	64.7451
2332	64.7608
2328	64.6845
2324	64.6353
2320	64.6282
2316	64.5941
2312	64.5824
2308	64.6247
2304	64.6455
2300	64.5965
2296	64.5465
2292	64.5463
2288	64.5312
2284	64.484
2280	64.4862
2276	64.5473
2272	64.5853
2268	64.6331
2264	64.6994
2260	64.6749
2256	64.6268
2252	64.6512
2248	64.6554
2244	64.5952
2240	64.549
2236	64.5388
2232	64.5633
2228	64.5936
2224	64.5667
2220	64.5565
2216	64.5711
2212	64.5444
2208	64.5215
2204	64.5141
2200	64.5117
2196	64.5028
2192	64.4844
2188	64.4902
2184	64.5324
2180	64.5685
2176	64.5334
2172	64.4721
2168	64.4757
2164	64.4905
2160	64.4549
2156	64.4172
2152	64.4226
2148	64.453
2144	64.4644
2140	64.4446
2136	64.4585
2132	64.5067
2128	64.5103
2124	64.4995
2120	64.5472
2116	64.5686
2112	64.5032
2108	64.4789
2104	64.5148
2100	64.4914
2096	64.4443
2092	64.4408
2088	64.4296
2084	64.3903
2080	64.3531
2076	64.3503
2072	64.3693
2068	64.3514
2064	64.3066
2060	64.2956
2056	64.3349
2052	64.3602
2048	64.3449
2044	64.3378
2040	64.377
2036	64.4274
2032	64.4258
2028	64.4129
2024	64.4291
2020	64.4618
2016	64.4732
2012	64.4372
2008	64.391
2004	64.3777
2000	64.374
1996	64.3152
1992	64.2666
1988	64.3401
1984	64.4443
1980	64.4609
1976	64.4319
1972	64.4156
1968	64.4012
1964	64.4038
1960	64.4258
1956	64.4276
1952	64.4194
1948	64.3921
1944	64.345
1940	64.3014
1936	64.2832
1932	64.3028
1928	64.3205
1924	64.3231
1920	64.3349
1916	64.3718
1912	64.3838
1908	64.3353
1904	64.2892
1900	64.2783
1896	64.2815
1892	64.316
1888	64.3721
1884	64.3677
1880	64.3003
1876	64.2444
1872	64.231
1868	64.2486
1864	64.2721
1860	64.2941
1856	64.3233
1852	64.37
1848	64.3609
1844	64.2705
1840	64.2356
1836	64.2618
1832	64.2514
1828	64.1991
1824	64.151
1820	64.1847
1816	64.2689
1812	64.2836
1808	64.2486
1804	64.2243
1800	64.2078
1796	64.1816
1792	64.1408
1788	64.1223
1784	64.146
1780	64.1677
1776	64.1797
1772	64.1933
1768	64.1886
1764	64.223
1760	64.2693
1756	64.1869
1752	64.0237
1748	63.9369
1744	63.9234
1740	63.8816
1736	63.8376
1732	63.8787
1728	63.9278
1724	63.902
1720	63.9028
1716	63.9816
1712	64.0425
1708	64.0102
1704	63.9556
1700	64.0042
1696	64.0912
1692	64.0984
1688	64.0404
1684	64.0113
1680	64.0643
1676	64.0886
1672	64.041
1668	64.0143
1664	63.9992
1660	63.9742
1656	63.9468
1652	63.9208
1648	63.9534
1644	64.0242
1640	64.0539
1636	64.0299
1632	64.0141
1628	64.0298
1624	64.0252
1620	64.0079
1616	64.0214
1612	63.9922
1608	63.9
1604	63.8912
1600	63.979
1596	64.0116
1592	63.9792
1588	64.0033
1584	64.0351
1580	63.9642
1576	63.8962
1572	63.9046
1568	63.8728
1564	63.8353
1560	63.8936
1556	63.9567
1552	63.9524
1548	63.9484
1544	64.0177
1540	64.0785
1536	64.0356
1532	63.9884
1528	63.9874
1524	64.005
1520	64.0313
1516	64.0549
1512	64.0471
1508	63.9945
1504	63.937
1500	63.8397
1496	63.79
1492	63.9195
1488	64.0041
1484	63.9677
1480	63.9115
1476	63.834
1472	63.766
1468	63.7243
1464	63.7288
1460	63.8374
1456	63.9516
1452	63.9588
1448	63.9238
1444	63.8931
1440	63.8422
1436	63.82
1432	63.8858
1428	63.9683
1424	64.0015
1420	63.9638
1416	63.851
1412	63.7336
1408	63.6617
1404	63.6508
1400	63.7185
1396	63.8308
1392	63.8558
1388	63.7489
1384	63.6857
1380	63.7182
1376	63.7468
1372	63.7428
1368	63.7011
1364	63.6798
1360	63.6957
1356	63.697
1352	63.6896
1348	63.6914
1344	63.6954
1340	63.7212
1336	63.7684
1332	63.7705
1328	63.7422
1324	63.752
1320	63.7503
1316	63.7047
1312	63.7129
1308	63.7154
1304	63.6399
1300	63.6357
1296	63.6913
1292	63.6989
1288	63.6309
1284	63.5125
1280	63.4862
1276	63.5256
1272	63.5287
1268	63.5307
1264	63.5371
1260	63.5335
1256	63.5299
1252	63.5398
1248	63.5407
1244	63.5566
1240	63.5736
1236	63.5514
1232	63.5323
1228	63.5235
1224	63.5126
1220	63.4696
1216	63.4226
1212	63.4466
1208	63.4807
1204	63.4922
1200	63.5305
1196	63.56
1192	63.4676
1188	63.3488
1184	63.3512
1180	63.3769
1176	63.3875
1172	63.4299
1168	63.4387
1164	63.3944
1160	63.3846
1156	63.4382
1152	63.4876
1148	63.4603
1144	63.419
1140	63.4384
1136	63.4585
1132	63.4649
1128	63.4527
1124	63.4372
1120	63.4099
1116	63.3208
1112	63.2424
1108	63.2566
1104	63.3065
1100	63.3261
1096	63.3648
1092	63.4456
1088	63.5039
1084	63.4964
1080	63.431
1076	63.373
1072	63.3648
1068	63.3581
1064	63.3248
1060	63.3077
1056	63.329
1052	63.3788
1048	63.4
1044	63.3454
1040	63.273
1036	63.254
1032	63.3053
1028	63.2677
1024	63.1202
1020	63.1243
1016	63.1985
1012	63.2467
1008	63.4344
1004	63.5281
1000	63.4279
996	 63.3896
992	 63.3789
988	 63.3115
984	 63.2902
980	 63.3363
976	 63.3459
972	 63.3544
968	 63.3878
964	 63.3744
960	 63.3373
956	 63.3373
952	 63.3229
948	 63.2961
944	 63.3533
940	 63.3627
936	 63.2757
932	 63.2916
928	 63.3865
924	 63.4239
920	 63.457
916	 63.5359
912	 63.5286
908	 63.3979
904	 63.3642
900	 63.4004
896	 63.4109
892	 63.4692
888	 63.4761
884	 63.4341
880	 63.4483
876	 63.5426
872	 63.6512
868	 63.5707
864	 63.3593
860	 63.2763
856	 63.2668
852	 63.2851
848	 63.4411
844	 63.5335
840	 63.3968
836	 63.1817
832	 63.0448
828	 63.0803
824	 63.3052
820	 63.4833
816	 63.4258
812	 63.2517
808	 63.0903
804	 62.9909
800	 62.9627
796	 62.9654
792	 62.9882
788	 63.0674
784	 63.1629
780	 63.262
776	 63.3548
772	 63.2948
768	 63.1012
764	 62.9697
760	 62.9772
756	 63.0797
752	 63.198
748	 63.1255
744	 62.9267
740	 62.9201
736	 62.9186
732	 62.6512
728	 62.5431
724	 62.8035
720	 62.95
716	 63.0206
712	 63.1295
708	 62.9271
704	 62.7128
700	 62.7857
696	 62.9057
692	 63.0184
688	 63.0352
684	 63.0223
680	 63.2549
676	 63.6024
672	 63.6198
668	 63.2054
664	 63.175
660	 63.5158
656	 63.153
652	 62.6482
648	 62.8044
644	 62.9966
640	 62.6114
636	 62.0577
632	 62.1519
628	 62.6236
624	 62.9284
620	 63.254
616	 63.3904
612	 63.2738
608	 63.6716
604	 64.3867
600	 64.1883
596	 63.2247
592	 62.7666
588	 62.9051
584	 63.0925
580	 63.1898
576	 63.0702
572	 62.8715
568	 62.945
564	 63.2175
560	 63.3432
556	 63.2688
552	 63.0323
548	 63.0367
544	 63.478
540	 63.5197
536	 63.1327
532	 63.0053
528	 63.0728
524	 62.9165
520	 62.5076
516	 62.3652
512	 62.2631
508	 61.935
504	 61.8917
500	 62.223
496	 62.6078
492	 62.8656
488	 62.7136
484	 62.3751
480	 62.3063
476	 62.4318
472	 62.6158
468	 62.9205
464	 63.332
460	 63.4041
456	 62.8438
452	 62.2758
448	 62.4984
444	 63.0073
440	 63.4632
436	 63.4658
432	 62.612
428	 62.8631
424	 64.0764
420	 63.8195
416	 63.5132
412	 63.363
408	 62.1347
404	 61.9239
400	 62.292
396	 62.5865
392	 60.1288
388	 55.2376
384	 50.9892
380	 47.2737
376	 57.4237
372	 84.6202
370	 95.0537