File: Bakgrunnsmateriale/MATLAB/FTIR/ftir_data/subAa/Mapping_121/BZ1503107-1_t30_cm-1.asc
PE IR       SPECTRUM    SPECTRUM    ASCII       PEDS        1.60
  -1
BZ68A4~1.ASC
17/04/07
15:42:11.00
17/04/07
15:42:11.00
tln
$BZ1503107-1_t0030$<tbV0>[-5.2,-7.8,8.0,0.0,27,1,0]
370
64

2002,4.07
MIRTGS : RIGHTBACK : INTERNAL 2
MIR : ON : INTERNAL 2
OPTKBR

0.200000
8
8.000000
FILLER
RATIO
SPECTRUM
UNLOCKED 256

DOUBLE
64
COMBINED
1
0
0

1.000000
RATIO

1
0
TRUE
51149
0
LEFT NOT FITTED RIGHT NOT FITTED 0
NONE
NONE
15600
12
4.427000
51148
TRUE
1 0 8 72 0 0 0 0

15798

#HDR
-1
-1
#GR
CM-1
%T
2.38419e-05
0.0
5000
-1.000000
4631
8
76.5669
43.9576
#DATA
5000	64.9832
4996	64.2716
4992	64.0331
4988	64.4332
4984	64.9768
4980	64.9684
4976	64.6653
4972	64.4071
4968	64.111
4964	64.1436
4960	64.4302
4956	64.3469
4952	64.1131
4948	64.0574
4944	64.2161
4940	64.4886
4936	64.228
4932	63.7287
4928	63.9103
4924	64.214
4920	64.2686
4916	64.5108
4912	64.634
4908	64.4837
4904	64.3044
4900	64.1526
4896	63.9723
4892	63.8684
4888	64.0831
4884	64.5909
4880	64.8946
4876	64.7904
4872	64.7419
4868	64.8506
4864	64.8463
4860	64.6714
4856	64.5002
4852	64.3703
4848	64.2666
4844	64.2698
4840	64.3266
4836	64.3596
4832	64.4133
4828	64.5961
4824	64.7849
4820	64.74
4816	64.5336
4812	64.4526
4808	64.4843
4804	64.5235
4800	64.5683
4796	64.5142
4792	64.4701
4788	64.53
4784	64.6251
4780	64.7578
4776	64.886
4772	64.9545
4768	64.8548
4764	64.6747
4760	64.7578
4756	65.0126
4752	65.0607
4748	64.7856
4744	64.4584
4740	64.4671
4736	64.6438
4732	64.6125
4728	64.4436
4724	64.3742
4720	64.6371
4716	65.1033
4712	65.4303
4708	65.5318
4704	65.357
4700	65.0756
4696	64.9576
4692	64.9315
4688	64.7602
4684	64.4744
4680	64.3166
4676	64.3574
4672	64.4301
4668	64.4903
4664	64.5965
4660	64.7187
4656	64.8501
4652	64.86
4648	64.7103
4644	64.5825
4640	64.5785
4636	64.6496
4632	64.5649
4628	64.3852
4624	64.4855
4620	64.6706
4616	64.6069
4612	64.5019
4608	64.5868
4604	64.6878
4600	64.6682
4596	64.6664
4592	64.579
4588	64.3395
4584	64.2765
4580	64.5137
4576	64.7078
4572	64.6132
4568	64.4128
4564	64.2844
4560	64.1767
4556	64.1423
4552	64.2331
4548	64.2897
4544	64.3305
4540	64.4062
4536	64.4932
4532	64.5385
4528	64.4568
4524	64.3143
4520	64.1957
4516	64.144
4512	64.1791
4508	64.1635
4504	64.0807
4500	64.0689
4496	63.9579
4492	63.703
4488	63.6777
4484	64.0222
4480	64.1052
4476	63.6606
4472	63.5431
4468	63.8462
4464	64.0815
4460	64.48
4456	64.7662
4452	64.6413
4448	64.4233
4444	64.6437
4440	66.1046
4436	67.4098
4432	68.0047
4428	71.7211
4424	76.5669
4420	69.7127
4416	59.0776
4412	58.6257
4408	62.1247
4404	64.1237
4400	64.7433
4396	63.9219
4392	64.0717
4388	64.7451
4384	65.1558
4380	65.3794
4376	65.0966
4372	64.5929
4368	64.3149
4364	64.1941
4360	64.2331
4356	64.4192
4352	64.4957
4348	64.3209
4344	64.1015
4340	64.1877
4336	64.4291
4332	64.4666
4328	64.2527
4324	64.1397
4320	64.2576
4316	64.3245
4312	64.3872
4308	64.5781
4304	64.6851
4300	64.7418
4296	64.8573
4292	64.7542
4288	64.5438
4284	64.53
4280	64.4537
4276	64.3026
4272	64.2617
4268	64.278
4264	64.4601
4260	64.5729
4256	64.3989
4252	64.2831
4248	64.3581
4244	64.5168
4240	64.6779
4236	64.7799
4232	64.8184
4228	64.849
4224	64.8061
4220	64.635
4216	64.585
4212	64.6803
4208	64.8414
4204	65.0601
4200	65.1109
4196	65.0365
4192	65.0668
4188	65.0334
4184	64.726
4180	64.5437
4176	64.8235
4172	65.1065
4168	65.0444
4164	64.9232
4160	64.8959
4156	64.8683
4152	64.8244
4148	64.8198
4144	64.8786
4140	64.9313
4136	64.8914
4132	64.7022
4128	64.5487
4124	64.5697
4120	64.611
4116	64.637
4112	64.7339
4108	64.8347
4104	64.8004
4100	64.6868
4096	64.6987
4092	64.8601
4088	64.9666
4084	64.8756
4080	64.7468
4076	64.7398
4072	64.7624
4068	64.8197
4064	64.9121
4060	64.8789
4056	64.7598
4052	64.7086
4048	64.6987
4044	64.6432
4040	64.6412
4036	64.6471
4032	64.5383
4028	64.4971
4024	64.585
4020	64.6992
4016	64.7962
4012	64.8674
4008	64.9062
4004	64.8397
4000	64.8171
3996	65.0381
3992	65.2128
3988	65.0962
3984	64.8708
3980	64.7503
3976	64.7402
3972	64.7564
3968	64.812
3964	64.8012
3960	64.6032
3956	64.4813
3952	64.6032
3948	64.6673
3944	64.5886
3940	64.5911
3936	64.6853
3932	64.7842
3928	64.9145
3924	65.1158
3920	65.175
3916	64.9961
3912	64.8659
3908	64.8951
3904	64.9665
3900	64.943
3896	64.8896
3892	64.8584
3888	64.7643
3884	64.6735
3880	64.6509
3876	64.7487
3872	64.9071
3868	64.924
3864	64.7698
3860	64.6079
3856	64.5507
3852	64.6274
3848	64.7885
3844	64.8455
3840	64.746
3836	64.6824
3832	64.7152
3828	64.7712
3824	64.8504
3820	64.8819
3816	64.8898
3812	64.9049
3808	64.8963
3804	64.913
3800	64.9248
3796	64.9481
3792	64.9667
3788	64.9167
3784	64.7916
3780	64.6781
3776	64.695
3772	64.8141
3768	64.9214
3764	64.9926
3760	65.0311
3756	64.9533
3752	64.8417
3748	64.8709
3744	64.96
3740	64.9515
3736	64.9171
3732	64.8843
3728	64.8433
3724	64.9208
3720	65.0833
3716	65.1277
3712	64.9976
3708	64.9305
3704	64.968
3700	64.9946
3696	65.0172
3692	65.0096
3688	65.0178
3684	65.0603
3680	65.0724
3676	65.0467
3672	65.0742
3668	65.1551
3664	65.1093
3660	65.0006
3656	64.9676
3652	64.9826
3648	65
3644	64.9676
3640	64.8919
3636	64.8015
3632	64.7609
3628	64.7867
3624	64.9122
3620	65.0789
3616	65.1112
3612	65.1263
3608	65.1719
3604	65.1002
3600	64.9739
3596	64.9294
3592	65.0187
3588	65.0845
3584	64.9707
3580	64.7942
3576	64.6933
3572	64.6852
3568	64.6796
3564	64.7032
3560	64.8683
3556	65.0204
3552	64.9912
3548	64.8743
3544	64.8239
3540	64.8058
3536	64.7533
3532	64.716
3528	64.6648
3524	64.6634
3520	64.8279
3516	65.0388
3512	65.1051
3508	65.0096
3504	64.9117
3500	64.9596
3496	65.0495
3492	64.966
3488	64.8174
3484	64.8006
3480	64.8689
3476	64.8844
3472	64.8033
3468	64.757
3464	64.7665
3460	64.8172
3456	64.9246
3452	64.963
3448	64.8365
3444	64.651
3440	64.5552
3436	64.5396
3432	64.6219
3428	64.7983
3424	64.9663
3420	65.0404
3416	65.0052
3412	65.007
3408	65.0801
3404	65.0586
3400	64.911
3396	64.8416
3392	64.9662
3388	65.0821
3384	65.0384
3380	64.8927
3376	64.8065
3372	64.8706
3368	64.9211
3364	64.8479
3360	64.8135
3356	64.8932
3352	64.962
3348	64.9682
3344	64.9268
3340	64.9058
3336	64.9354
3332	64.9357
3328	64.8879
3324	64.8397
3320	64.8177
3316	64.7582
3312	64.7165
3308	64.8054
3304	64.8003
3300	64.6975
3296	64.7209
3292	64.7941
3288	64.8107
3284	64.7866
3280	64.7885
3276	64.8285
3272	64.8427
3268	64.8442
3264	64.8418
3260	64.7858
3256	64.7684
3252	64.8494
3248	64.8942
3244	64.8744
3240	64.8775
3236	64.8632
3232	64.7505
3228	64.6436
3224	64.6355
3220	64.674
3216	64.7393
3212	64.8476
3208	64.9377
3204	64.8589
3200	64.6899
3196	64.6098
3192	64.6271
3188	64.6792
3184	64.6962
3180	64.7374
3176	64.7887
3172	64.7816
3168	64.8171
3164	64.8805
3160	64.8845
3156	64.8627
3152	64.8384
3148	64.7932
3144	64.7103
3140	64.6523
3136	64.7203
3132	64.8659
3128	64.9036
3124	64.8346
3120	64.8043
3116	64.7331
3112	64.6307
3108	64.6572
3104	64.7494
3100	64.8034
3096	64.8354
3092	64.8323
3088	64.8447
3084	64.9562
3080	65.0173
3076	64.9393
3072	64.8787
3068	64.9132
3064	64.9536
3060	64.8999
3056	64.8201
3052	64.8234
3048	64.8564
3044	64.8382
3040	64.805
3036	64.8249
3032	64.8882
3028	64.939
3024	64.9269
3020	64.8633
3016	64.8152
3012	64.8027
3008	64.791
3004	64.8213
3000	64.9227
2996	64.922
2992	64.7941
2988	64.7191
2984	64.7396
2980	64.7725
2976	64.7518
2972	64.6839
2968	64.5959
2964	64.5813
2960	64.668
2956	64.7632
2952	64.8375
2948	64.8702
2944	64.822
2940	64.7534
2936	64.7267
2932	64.7044
2928	64.6679
2924	64.6554
2920	64.7044
2916	64.75
2912	64.743
2908	64.7512
2904	64.7836
2900	64.8048
2896	64.794
2892	64.7727
2888	64.8246
2884	64.8629
2880	64.7551
2876	64.6486
2872	64.6875
2868	64.7916
2864	64.8539
2860	64.8797
2856	64.9258
2852	64.9222
2848	64.8109
2844	64.7021
2840	64.6918
2836	64.7091
2832	64.6917
2828	64.727
2824	64.7756
2820	64.7342
2816	64.7241
2812	64.8293
2808	64.9166
2804	64.919
2800	64.9351
2796	64.9803
2792	64.9423
2788	64.8303
2784	64.7599
2780	64.7783
2776	64.8496
2772	64.902
2768	64.8919
2764	64.8787
2760	64.9115
2756	64.942
2752	64.9052
2748	64.8683
2744	64.8875
2740	64.8633
2736	64.808
2732	64.8122
2728	64.8504
2724	64.8509
2720	64.8466
2716	64.8851
2712	64.8737
2708	64.8216
2704	64.8077
2700	64.8187
2696	64.8361
2692	64.8068
2688	64.7781
2684	64.8048
2680	64.8332
2676	64.8354
2672	64.7708
2668	64.6986
2664	64.6888
2660	64.7244
2656	64.8005
2652	64.8615
2648	64.8622
2644	64.8134
2640	64.7962
2636	64.8601
2632	64.8904
2628	64.8743
2624	64.8964
2620	64.8475
2616	64.7154
2612	64.697
2608	64.7511
2604	64.7559
2600	64.7481
2596	64.6924
2592	64.6191
2588	64.6336
2584	64.6739
2580	64.6728
2576	64.6671
2572	64.6921
2568	64.7249
2564	64.7492
2560	64.8014
2556	64.8195
2552	64.7309
2548	64.6382
2544	64.686
2540	64.8322
2536	64.8797
2532	64.8515
2528	64.8539
2524	64.7981
2520	64.7152
2516	64.7365
2512	64.8234
2508	64.8607
2504	64.8441
2500	64.774
2496	64.6416
2492	64.5674
2488	64.6313
2484	64.7452
2480	64.8123
2476	64.8436
2472	64.8442
2468	64.801
2464	64.724
2460	64.6541
2456	64.624
2452	64.5987
2448	64.6119
2444	64.6969
2440	64.7386
2436	64.6858
2432	64.6812
2428	64.7402
2424	64.7418
2420	64.6928
2416	64.6461
2412	64.7024
2408	64.828
2404	64.8256
2400	64.7746
2396	64.8219
2392	64.8542
2388	64.8057
2384	64.7327
2380	64.6535
2376	64.5965
2372	64.5694
2368	64.5645
2364	64.618
2360	64.6955
2356	64.7263
2352	64.7433
2348	64.7588
2344	64.7796
2340	64.8079
2336	64.783
2332	64.7405
2328	64.7183
2324	64.7154
2320	64.7547
2316	64.7783
2312	64.7547
2308	64.7542
2304	64.7485
2300	64.6671
2296	64.6016
2292	64.6336
2288	64.7098
2284	64.7622
2280	64.7677
2276	64.7634
2272	64.7622
2268	64.739
2264	64.7246
2260	64.7305
2256	64.7121
2252	64.681
2248	64.638
2244	64.5636
2240	64.5531
2236	64.6488
2232	64.7373
2228	64.715
2224	64.6209
2220	64.5823
2216	64.5916
2212	64.6102
2208	64.6264
2204	64.6381
2200	64.7017
2196	64.7535
2192	64.731
2188	64.691
2184	64.6872
2180	64.6967
2176	64.6957
2172	64.7068
2168	64.7042
2164	64.6926
2160	64.6694
2156	64.6096
2152	64.5802
2148	64.6261
2144	64.6531
2140	64.6042
2136	64.5812
2132	64.6126
2128	64.6541
2124	64.6955
2120	64.7031
2116	64.6642
2112	64.5983
2108	64.5627
2104	64.5589
2100	64.5698
2096	64.5968
2092	64.6142
2088	64.6707
2084	64.7214
2080	64.711
2076	64.6797
2072	64.6777
2068	64.7104
2064	64.6949
2060	64.6492
2056	64.6226
2052	64.571
2048	64.5365
2044	64.5499
2040	64.5613
2036	64.5724
2032	64.6139
2028	64.6803
2024	64.7091
2020	64.6946
2016	64.6739
2012	64.6431
2008	64.631
2004	64.6653
2000	64.7024
1996	64.6878
1992	64.6456
1988	64.6071
1984	64.5602
1980	64.5612
1976	64.6251
1972	64.6709
1968	64.6713
1964	64.6605
1960	64.6479
1956	64.6359
1952	64.6483
1948	64.6256
1944	64.5819
1940	64.6084
1936	64.6452
1932	64.6169
1928	64.5679
1924	64.5567
1920	64.5547
1916	64.5239
1912	64.5211
1908	64.5604
1904	64.5557
1900	64.5079
1896	64.4657
1892	64.4647
1888	64.5084
1884	64.529
1880	64.4851
1876	64.4528
1872	64.4974
1868	64.5504
1864	64.5184
1860	64.4283
1856	64.3966
1852	64.4393
1848	64.5109
1844	64.5702
1840	64.5661
1836	64.5188
1832	64.4773
1828	64.4614
1824	64.4626
1820	64.4776
1816	64.505
1812	64.4899
1808	64.4269
1804	64.412
1800	64.4718
1796	64.5031
1792	64.4689
1788	64.4757
1784	64.5091
1780	64.5156
1776	64.509
1772	64.4327
1768	64.3599
1764	64.3804
1760	64.4013
1756	64.3497
1752	64.2482
1748	64.1374
1744	64.0178
1740	63.8887
1736	63.8035
1732	63.8241
1728	63.913
1724	63.987
1720	64.0657
1716	64.1805
1712	64.2426
1708	64.2601
1704	64.3187
1700	64.3783
1696	64.39
1692	64.3669
1688	64.374
1684	64.3708
1680	64.3259
1676	64.3409
1672	64.3883
1668	64.3777
1664	64.3448
1660	64.3292
1656	64.2761
1652	64.2346
1648	64.263
1644	64.2545
1640	64.2274
1636	64.2504
1632	64.2977
1628	64.3254
1624	64.2918
1620	64.2351
1616	64.1976
1612	64.2235
1608	64.2927
1604	64.3346
1600	64.3524
1596	64.3299
1592	64.2565
1588	64.1929
1584	64.1455
1580	64.1096
1576	64.1139
1572	64.1665
1568	64.2651
1564	64.3582
1560	64.3529
1556	64.2591
1552	64.1986
1548	64.2165
1544	64.2591
1540	64.2749
1536	64.2895
1532	64.3143
1528	64.2563
1524	64.167
1520	64.1986
1516	64.2627
1512	64.3184
1508	64.4229
1504	64.4544
1500	64.3677
1496	64.29
1492	64.2965
1488	64.299
1484	64.2713
1480	64.2407
1476	64.1613
1472	64.0765
1468	64.054
1464	64.0672
1460	64.1288
1456	64.1728
1452	64.1341
1448	64.1192
1444	64.1835
1440	64.2488
1436	64.274
1432	64.2915
1428	64.3225
1424	64.3469
1420	64.3157
1416	64.2611
1412	64.2058
1408	64.1495
1404	64.1267
1400	64.1352
1396	64.1615
1392	64.1687
1388	64.135
1384	64.0768
1380	64.085
1376	64.1717
1372	64.1909
1368	64.1187
1364	64.0374
1360	64.0294
1356	64.0835
1352	64.0759
1348	64.0566
1344	64.099
1340	64.0975
1336	64.0353
1332	64.0271
1328	64.1174
1324	64.178
1320	64.1473
1316	64.1281
1312	64.1069
1308	64.08
1304	64.0812
1300	64.0709
1296	64.0673
1292	64.0645
1288	64.0291
1284	64.0091
1280	64.0449
1276	64.094
1272	64.0796
1268	64.0225
1264	63.9801
1260	63.9537
1256	63.9703
1252	64.0007
1248	64.0038
1244	64.0325
1240	64.047
1236	64.0215
1232	64.0611
1228	64.0767
1224	64.0106
1220	64.0128
1216	64.0843
1212	64.0615
1208	63.9167
1204	63.831
1200	63.8232
1196	63.8042
1192	63.8093
1188	63.8061
1184	63.8214
1180	63.8922
1176	63.8729
1172	63.7841
1168	63.786
1164	63.8492
1160	63.7948
1156	63.644
1152	63.6479
1148	63.8088
1144	63.9102
1140	63.9268
1136	63.9528
1132	63.9409
1128	63.8948
1124	63.8943
1120	63.9363
1116	63.9592
1112	63.8949
1108	63.7759
1104	63.723
1100	63.7403
1096	63.7686
1092	63.8612
1088	64.002
1084	64.0278
1080	63.9214
1076	63.841
1072	63.851
1068	63.9185
1064	63.9561
1060	63.9242
1056	63.9441
1052	63.9995
1048	63.9415
1044	63.858
1040	63.8327
1036	63.8064
1032	63.8707
1028	64.0202
1024	64.0987
1020	64.1092
1016	64.0954
1012	64.0697
1008	64.0268
1004	63.9795
1000	63.981
996	 64.0019
992	 63.9586
988	 63.835
984	 63.7831
980	 63.9021
976	 63.9737
972	 63.878
968	 63.8149
964	 63.8937
960	 64.0337
956	 64.1163
952	 64.1348
948	 64.095
944	 63.9666
940	 63.914
936	 64.006
932	 63.9882
928	 63.8953
924	 63.9848
920	 64.099
916	 64.0808
912	 64.0136
908	 63.9673
904	 63.9565
900	 63.9446
896	 63.9191
892	 63.866
888	 63.8352
884	 63.9315
880	 64.0297
876	 63.9817
872	 63.9596
868	 64.0652
864	 64.0752
860	 63.9634
856	 63.9419
852	 63.9424
848	 63.8953
844	 63.8913
840	 63.9598
836	 64.0533
832	 63.9585
828	 63.6887
824	 63.5643
820	 63.6461
816	 63.8089
812	 63.8768
808	 63.8054
804	 63.7334
800	 63.6879
796	 63.7735
792	 63.8794
788	 63.8479
784	 63.8495
780	 63.8398
776	 63.7781
772	 63.8064
768	 63.8971
764	 64.0161
760	 64.0232
756	 63.8785
752	 63.7908
748	 63.619
744	 63.427
740	 63.6103
736	 64.046
732	 64.3742
728	 64.4319
724	 64.1973
720	 63.7132
716	 63.257
712	 63.19
708	 63.5162
704	 63.7915
700	 63.758
696	 63.7964
692	 63.9719
688	 63.7056
684	 63.3211
680	 63.4698
676	 63.5494
672	 63.2442
668	 63.4094
664	 63.8253
660	 63.7188
656	 63.5312
652	 63.3982
648	 62.9984
644	 62.9739
640	 63.5854
636	 63.9903
632	 64.0162
628	 64.0166
624	 63.8748
620	 63.4732
616	 63.22
612	 63.505
608	 63.9417
604	 64.0852
600	 64.0927
596	 63.9435
592	 63.615
588	 63.3429
584	 63.3174
580	 63.5094
576	 63.6354
572	 63.6077
568	 63.5519
564	 63.6501
560	 63.8676
556	 63.9655
552	 64.0111
548	 63.874
544	 63.4861
540	 63.3655
536	 63.5621
532	 63.6076
528	 63.6901
524	 63.8231
520	 63.7444
516	 63.5071
512	 63.3344
508	 63.3155
504	 63.4502
500	 63.696
496	 63.7518
492	 63.5333
488	 63.3543
484	 63.6411
480	 64.2658
476	 64.2876
472	 63.6481
468	 62.9586
464	 62.7266
460	 62.9125
456	 62.7309
452	 62.3181
448	 62.1849
444	 62.1835
440	 61.7964
436	 61.3638
432	 61.8512
428	 62.9057
424	 63.357
420	 63.3882
416	 63.7124
412	 63.274
408	 61.0432
404	 57.4451
400	 53.7549
396	 51.1381
392	 51.6847
388	 58.6902
384	 66.4543
380	 72.1797
376	 74.0966
372	 57.9161
370	 43.9576