File: Bakgrunnsmateriale/MATLAB/FTIR/ftir_data/subAa/Mapping_121/BZ1503107-1_t93.asc
PE IR       SPECTRUM    SPECTRUM    ASCII       PEDS        1.60
  -1
BZ355B~1.ASC
17/04/07
20:55:14.00
17/04/07
20:55:40.00
tln
$BZ1503107-1_t0093$<tbV0>[2.6,7.8,8.0,0.0,27,1,0]
27.028
64

2002,4.07
MIRTGS : RIGHTBACK : INTERNAL 2
MIR : ON : INTERNAL 2
OPTKBR

0.200000
8
8.000000
FILLER
RATIO
SPECTRUM
UNLOCKED 256

DOUBLE
64
COMBINED
1
0
0

0.002000
RATIO

1
0
TRUE
51149
0
LEFT NOT FITTED RIGHT NOT FITTED 0
NONE
NONE
15600
12
4.427000
51148
TRUE
1 0 8 72 0 0 0 0

15798

#HDR
-1
-1
#GR
µM
%T
2.38419e-05
0.0
2.000000
0.002000
12515
8
98.2284
54.7102
#DATA
2.000000	 65.5887
2.018000	 66.8182
2.036000	 65.2464
2.054000	 64.342
2.072000	 64.9209
2.090000	 64.9314
2.108000	 65.0454
2.126000	 65.0516
2.144000	 65.0612
2.162000	 65.0528
2.180000	 64.2478
2.198000	 63.9643
2.216000	 63.843
2.234000	 62.6054
2.252000	 98.1189
2.270000	 64.0999
2.288000	 63.8125
2.306000	 64.202
2.324000	 64.5118
2.342000	 64.6062
2.360000	 64.6585
2.378000	 65.0599
2.396000	 65.1166
2.414000	 64.6947
2.432000	 65.2792
2.450000	 65.3135
2.468000	 64.8405
2.486000	 65.0222
2.504000	 64.7035
2.522000	 65.0686
2.540000	 64.8742
2.558000	 64.7451
2.576000	 64.3734
2.594000	 64.9244
2.612000	 64.8409
2.630000	 64.9089
2.648000	 64.9423
2.666000	 65.1066
2.684000	 65.0651
2.702000	 65.2406
2.720000	 64.9276
2.738000	 64.8831
2.756000	 64.8614
2.774000	 64.8975
2.792000	 64.892
2.810000	 64.812
2.828000	 64.9512
2.846000	 64.7776
2.864000	 64.8704
2.882000	 64.9914
2.900000	 64.668
2.918000	 64.7454
2.936000	 64.9288
2.954000	 64.921
2.972000	 64.8332
2.990000	 64.9257
3.008000	 64.8029
3.026000	 64.831
3.044000	 64.8623
3.062000	 64.8123
3.080000	 64.8745
3.098000	 64.8056
3.116000	 64.7283
3.134000	 64.6933
3.152000	 64.858
3.170000	 64.7983
3.188000	 64.8055
3.206000	 64.7689
3.224000	 64.781
3.242000	 64.7618
3.260000	 64.6971
3.278000	 64.8497
3.296000	 64.7201
3.314000	 64.7287
3.332000	 64.7431
3.350000	 64.5101
3.368000	 64.4919
3.386000	 64.4894
3.404000	 64.6684
3.422000	 64.6121
3.440000	 64.5115
3.458000	 64.5404
3.476000	 64.5566
3.494000	 64.6135
3.512000	 64.4653
3.530000	 64.5969
3.548000	 64.6284
3.566000	 64.5796
3.584000	 64.6114
3.602000	 64.7372
3.620000	 64.7174
3.638000	 64.5871
3.656000	 64.6248
3.674000	 64.7201
3.692000	 64.7256
3.710000	 64.6393
3.728000	 64.5707
3.746000	 64.4552
3.764000	 64.4769
3.782000	 64.5686
3.800000	 64.4857
3.818000	 64.3788
3.836000	 64.4753
3.854000	 64.5111
3.872000	 64.4352
3.890000	 64.3987
3.908000	 64.3485
3.926000	 64.4913
3.944000	 64.43
3.962000	 64.4327
3.980000	 64.4232
3.998000	 64.3756
4.016000	 64.49
4.034000	 64.4008
4.052000	 64.4638
4.070000	 64.4092
4.088000	 64.3487
4.106000	 64.3595
4.124000	 64.5075
4.141999	 64.3389
4.160000	 64.3876
4.178000	 64.303
4.196000	 64.3502
4.214000	 64.3067
4.232000	 64.5031
4.250000	 64.3828
4.268000	 64.3689
4.286000	 64.2712
4.304000	 64.45
4.322000	 64.3529
4.340000	 64.3362
4.358000	 64.3664
4.375999	 64.3431
4.394000	 64.2219
4.412000	 64.2674
4.430000	 64.2425
4.448000	 64.3374
4.466000	 64.3219
4.484000	 64.3237
4.502000	 64.1854
4.520000	 64.2263
4.538000	 64.1858
4.556000	 64.1934
4.574000	 64.1234
4.592000	 64.0853
4.609999	 64.1828
4.628000	 64.1106
4.646000	 64.1139
4.664000	 64.0781
4.682000	 64.2404
4.700000	 64.1744
4.718000	 64.18
4.736000	 64.0948
4.754000	 64.1664
4.772000	 64.2351
4.790000	 64.1387
4.808000	 64.1234
4.826000	 64.1298
4.843999	 64.1956
4.862000	 64.1724
4.880000	 64.1101
4.898000	 64.0914
4.916000	 64.1145
4.934000	 64.0539
4.952000	 64.0748
4.970000	 64.1164
4.988000	 64.0672
5.006000	 64.0775
5.024000	 64.1906
5.042000	 64.1625
5.060000	 64.1122
5.077999	 64.0022
5.096000	 64.0418
5.114000	 64.0475
5.132000	 63.9838
5.150000	 64.0001
5.168000	 64.0666
5.186000	 64.016
5.204000	 63.9127
5.222000	 63.8745
5.240000	 64.008
5.258000	 64.0298
5.276000	 64.0041
5.294000	 64.034
5.312000	 63.9328
5.330000	 63.9319
5.348000	 63.9397
5.366000	 63.9879
5.384000	 64.0321
5.402000	 64.0169
5.420000	 63.8954
5.438000	 63.9493
5.456000	 63.9209
5.474000	 63.9696
5.492000	 63.9486
5.510000	 63.8453
5.528000	 63.89
5.546000	 63.9181
5.564000	 63.8472
5.582000	 63.8617
5.600000	 63.9061
5.618000	 63.9101
5.636000	 63.8498
5.654000	 63.7894
5.672000	 63.7531
5.690000	 63.6973
5.708000	 63.5475
5.726000	 63.4885
5.744000	 63.3678
5.762000	 63.2749
5.780000	 63.4218
5.798000	 63.5375
5.816000	 63.5385
5.834000	 63.535
5.852000	 63.5375
5.870000	 63.5353
5.888000	 63.5372
5.906000	 63.6565
5.923999	 63.6543
5.942000	 63.6165
5.960000	 63.6238
5.978000	 63.6137
5.996000	 63.5788
6.014000	 63.6437
6.032000	 63.676
6.050000	 63.6487
6.068000	 63.7202
6.086000	 63.7083
6.104000	 63.58
6.122000	 63.5749
6.140000	 63.6387
6.158000	 63.69
6.176000	 63.6881
6.194000	 63.6278
6.212000	 63.5621
6.230000	 63.5434
6.248000	 63.5578
6.266000	 63.6022
6.284000	 63.6609
6.302000	 63.651
6.320000	 63.5832
6.338000	 63.5428
6.356000	 63.5586
6.374000	 63.5991
6.392000	 63.6093
6.410000	 63.5887
6.428000	 63.5958
6.446000	 63.5672
6.464000	 63.5301
6.482000	 63.5363
6.500000	 63.5528
6.518000	 63.5248
6.536000	 63.4996
6.554000	 63.5276
6.572000	 63.5442
6.590000	 63.5122
6.608000	 63.4973
6.626000	 63.512
6.644000	 63.525
6.662000	 63.5478
6.680000	 63.5708
6.698000	 63.5773
6.716000	 63.5901
6.734000	 63.569
6.752000	 63.5417
6.770000	 63.568
6.788000	 63.5871
6.806000	 63.52
6.824000	 63.3968
6.842000	 63.3514
6.860000	 63.3988
6.878000	 63.4053
6.896000	 63.3939
6.914000	 63.4449
6.932000	 63.5053
6.950000	 63.5452
6.968000	 63.5321
6.986000	 63.4272
7.004000	 63.3147
7.022000	 63.297
7.040000	 63.3342
7.058000	 63.3396
7.076000	 63.3442
7.094000	 63.409
7.112000	 63.476
7.130000	 63.4695
7.148000	 63.3933
7.166000	 63.3048
7.184000	 63.2686
7.202000	 63.2614
7.220000	 63.2413
7.238000	 63.2551
7.256000	 63.299
7.274000	 63.3155
7.292000	 63.3286
7.310000	 63.3546
7.328000	 63.3391
7.346000	 63.2854
7.364000	 63.2555
7.382000	 63.2547
7.400000	 63.2551
7.418000	 63.2789
7.436000	 63.3394
7.454000	 63.3727
7.472000	 63.3473
7.490000	 63.3345
7.508000	 63.3626
7.526000	 63.3635
7.544000	 63.3242
7.562000	 63.3073
7.580000	 63.3202
7.598000	 63.3195
7.616000	 63.302
7.634000	 63.2915
7.652000	 63.2846
7.670000	 63.2631
7.688000	 63.2269
7.706000	 63.1944
7.724000	 63.1741
7.742000	 63.1495
7.760000	 63.113
7.778000	 63.0944
7.796000	 63.1168
7.814000	 63.1492
7.832000	 63.1497
7.850000	 63.1257
7.868000	 63.107
7.886000	 63.0932
7.904000	 63.0692
7.922000	 63.0463
7.940000	 63.0456
7.958000	 63.0581
7.976000	 63.0601
7.994000	 63.0526
8.012000	 63.0462
8.030000	 63.0326
8.048000	 63.0033
8.065999	 62.9748
8.084000	 62.9673
8.102000	 62.9765
8.120000	 62.9903
8.138000	 63.0155
8.155999	 63.0591
8.173999	 63.102
8.192000	 63.1191
8.210000	 63.1116
8.228000	 63.0982
8.246000	 63.0891
8.263999	 63.0867
8.282000	 63.095
8.300000	 63.1098
8.318000	 63.1133
8.336000	 63.0953
8.353999	 63.0737
8.372000	 63.0763
8.390000	 63.1055
8.408000	 63.1295
8.426000	 63.113
8.443999	 63.0545
8.462000	 62.9889
8.480000	 62.9494
8.498000	 62.9333
8.516000	 62.9105
8.533999	 62.8647
8.552000	 62.816
8.570000	 62.7944
8.588000	 62.806
8.606000	 62.8363
8.624000	 62.8688
8.641999	 62.8885
8.660000	 62.8844
8.678000	 62.8613
8.696000	 62.8402
8.714000	 62.8402
8.731999	 62.8634
8.750000	 62.8967
8.768000	 62.9242
8.786000	 62.9371
8.804000	 62.9363
8.821999	 62.9318
8.840000	 62.9366
8.858000	 62.953
8.876000	 62.9658
8.894000	 62.9592
8.911999	 62.9329
8.930000	 62.893
8.948000	 62.8455
8.966000	 62.8111
8.984000	 62.8197
9.001999	 62.878
9.020000	 62.958
9.038000	 63.0192
9.056000	 63.0385
9.074000	 63.023
9.092000	 62.9979
9.109999	 62.9827
9.128000	 62.9762
9.146000	 62.9639
9.164000	 62.9363
9.182000	 62.8982
9.199999	 62.8629
9.218000	 62.8391
9.236000	 62.827
9.254000	 62.8238
9.272000	 62.8286
9.289999	 62.8426
9.308000	 62.8625
9.326000	 62.8795
9.344000	 62.8812
9.362000	 62.8605
9.379999	 62.8204
9.398000	 62.7735
9.416000	 62.7343
9.434000	 62.7091
9.452000	 62.6948
9.469999	 62.6883
9.488000	 62.6975
9.506000	 62.7396
9.524000	 62.8259
9.542000	 62.9468
9.560000	 63.0703
9.577999	 63.1571
9.596000	 63.181
9.614000	 63.1407
9.632000	 63.0588
9.650000	 62.968
9.667999	 62.8971
9.686000	 62.8599
9.704000	 62.8539
9.722000	 62.8674
9.740000	 62.8868
9.757999	 62.9013
9.776000	 62.9035
9.794000	 62.8908
9.812000	 62.8668
9.830000	 62.8416
9.847999	 62.8256
9.866000	 62.8233
9.884000	 62.8312
9.902000	 62.8414
9.920000	 62.8479
9.937999	 62.8502
9.956000	 62.85
9.974000	 62.8471
9.992000	 62.8371
10.01	62.8161
10.028	62.7854
10.046	62.7526
10.064	62.7278
10.082	62.7172
10.1	62.7221
10.118	62.7412
10.136	62.7731
10.154	62.8161
10.172	62.8644
10.19	62.9065
10.208	62.9293
10.226	62.9257
10.244	62.8989
10.262	62.8613
10.28	62.8272
10.298	62.8059
10.316	62.7992
10.334	62.804
10.352	62.8164
10.37	62.8344
10.388	62.8561
10.406	62.8783
10.424	62.8953
10.442	62.9007
10.46	62.8909
10.478	62.8662
10.496	62.8321
10.514	62.7974
10.532	62.7714
10.55	62.7602
10.568	62.7643
10.586	62.7794
10.604	62.7987
10.622	62.816
10.64	62.828
10.658	62.8349
10.676	62.839
10.694	62.8424
10.712	62.8466
10.73	62.8525
10.748	62.8606
10.766	62.8696
10.784	62.8766
10.802	62.8769
10.82	62.8667
10.838	62.8444
10.856	62.8113
10.874	62.7716
10.892	62.7324
10.91	62.703
10.928	62.6926
10.946	62.7082
10.964	62.7497
10.982	62.808
11	62.866
11.018	62.9032
11.036	62.9055
11.054	62.8701
11.072	62.8068
11.09	62.7329
11.108	62.664
11.126	62.6106
11.144	62.575
11.162	62.5558
11.18	62.551
11.198	62.5594
11.216	62.58
11.234	62.6102
11.252	62.6446
11.27	62.6762
11.288	62.6984
11.306	62.7086
11.324	62.7082
11.342	62.702
11.36	62.6951
11.378	62.6914
11.396	62.6924
11.414	62.6976
11.432	62.7062
11.45	62.7186
11.468	62.7355
11.486	62.757
11.504	62.7815
11.522	62.804
11.54	62.8175
11.558	62.8156
11.576	62.7951
11.594	62.7582
11.612	62.7127
11.63	62.6695
11.648	62.6379
11.666	62.624
11.684	62.6279
11.702	62.6454
11.72	62.6697
11.738	62.6948
11.756	62.7181
11.774	62.7398
11.792	62.7617
11.81	62.7844
11.828	62.8067
11.846	62.8249
11.864	62.8346
11.882	62.8331
11.9	62.8202
11.918	62.7989
11.936	62.7738
11.954	62.7498
11.972	62.7295
11.99	62.7128
12.008	62.6964
12.026	62.676
12.044	62.6488
12.062	62.6151
12.08	62.5797
12.098	62.55
12.116	62.5338
12.134	62.5353
12.152	62.5543
12.17	62.5864
12.188	62.6249
12.206	62.663
12.224	62.6952
12.242	62.7186
12.26	62.7318
12.278	62.7342
12.296	62.7261
12.314	62.7077
12.332	62.6802
12.35	62.646
12.368	62.6088
12.386	62.5735
12.404	62.5458
12.422	62.5314
12.44	62.5342
12.458	62.5561
12.476	62.5964
12.494	62.6514
12.512	62.715
12.53	62.7799
12.548	62.8382
12.566	62.8836
12.584	62.9122
12.602	62.923
12.62	62.9189
12.638	62.9051
12.656	62.8878
12.674	62.8728
12.692	62.8637
12.71	62.862
12.728	62.866
12.746	62.8726
12.764	62.8774
12.782	62.8766
12.8	62.8673
12.818	62.8487
12.836	62.8211
12.854	62.7868
12.872	62.7484
12.89	62.7093
12.908	62.6727
12.926	62.6412
12.944	62.6165
12.962	62.599
12.98	62.5882
12.998	62.5822
13.016	62.579
13.034	62.577
13.052	62.5756
13.07	62.5748
13.088	62.5757
13.106	62.5795
13.124	62.5866
13.142	62.5967
13.16	62.6075
13.178	62.6161
13.196	62.619
13.214	62.6138
13.232	62.5993
13.25	62.576
13.268	62.5469
13.286	62.5157
13.304	62.4868
13.322	62.4634
13.34	62.4473
13.358	62.4385
13.376	62.4353
13.394	62.435
13.412	62.4346
13.43	62.4314
13.448	62.4239
13.466	62.4114
13.484	62.3947
13.502	62.3754
13.52	62.3559
13.538	62.3387
13.556	62.3263
13.574	62.3206
13.592	62.3232
13.61	62.3348
13.628	62.3551
13.646	62.3833
13.664	62.4176
13.682	62.4556
13.7	62.4945
13.718	62.5313
13.736	62.5634
13.754	62.5886
13.772	62.6056
13.79	62.6138
13.808	62.6138
13.826	62.6072
13.844	62.5962
13.862	62.5833
13.88	62.5711
13.898	62.5616
13.916	62.5564
13.934	62.5555
13.952	62.5578
13.97	62.5611
13.988	62.5625
14.006	62.5589
14.024	62.5478
14.042	62.5278
14.06	62.499
14.078	62.4631
14.096	62.4235
14.114	62.3841
14.132	62.3494
14.15	62.3227
14.168	62.3059
14.186	62.2992
14.204	62.3006
14.222	62.3069
14.24	62.3144
14.258	62.3199
14.276	62.3215
14.294	62.3184
14.312	62.312
14.33	62.3044
14.348	62.2989
14.366	62.2985
14.384	62.3062
14.402	62.3233
14.42	62.3499
14.438	62.3849
14.456	62.4257
14.474	62.4682
14.492	62.5078
14.51	62.539
14.528	62.557
14.546	62.5585
14.564	62.5418
14.582	62.5073
14.6	62.4574
14.618	62.3969
14.636	62.3324
14.654	62.2707
14.672	62.2182
14.69	62.1802
14.708	62.1603
14.726	62.1599
14.744	62.1775
14.762	62.2089
14.78	62.2489
14.798	62.2914
14.816	62.3301
14.834	62.3595
14.852	62.3752
14.87	62.3762
14.888	62.363
14.906	62.3385
14.924	62.3067
14.942	62.2735
14.96	62.2442
14.978	62.2228
14.996	62.2119
15.014	62.2127
15.032	62.2243
15.05	62.2436
15.068	62.2671
15.086	62.2909
15.104	62.3111
15.122	62.3245
15.14	62.33
15.158	62.3281
15.176	62.3202
15.194	62.3089
15.212	62.2983
15.23	62.2917
15.248	62.2919
15.266	62.3011
15.284	62.3204
15.302	62.349
15.32	62.3848
15.338	62.4253
15.356	62.4665
15.374	62.5045
15.392	62.536
15.41	62.5585
15.428	62.5697
15.446	62.5692
15.464	62.5575
15.482	62.536
15.5	62.5071
15.518	62.4744
15.536	62.441
15.554	62.4101
15.572	62.3845
15.59	62.3666
15.608	62.3571
15.626	62.3565
15.644	62.3641
15.662	62.3781
15.68	62.3966
15.698	62.4175
15.716	62.4382
15.734	62.4566
15.752	62.4714
15.77	62.4814
15.788	62.4864
15.806	62.4868
15.824	62.4834
15.842	62.4772
15.86	62.4695
15.878	62.4615
15.896	62.4539
15.914	62.4478
15.932	62.4431
15.95	62.4401
15.968	62.4381
15.986	62.4369
16.004	62.4359
16.022	62.4344
16.04	62.4317
16.058	62.4275
16.076	62.4215
16.094	62.4132
16.112	62.4026
16.13	62.3898
16.148	62.3745
16.166	62.357
16.184	62.3379
16.202	62.3177
16.22	62.2977
16.238	62.2789
16.256	62.2622
16.274	62.2492
16.292	62.2407
16.31	62.2375
16.328	62.2399
16.346	62.2476
16.364	62.2599
16.382	62.2754
16.4	62.2922
16.418	62.3088
16.436	62.3225
16.454	62.3319
16.472	62.3358
16.49	62.3328
16.508	62.3231
16.526	62.3068
16.544	62.2855
16.562	62.2609
16.58	62.2344
16.598	62.2086
16.616	62.1849
16.634	62.1645
16.652	62.1486
16.67	62.1369
16.688	62.1293
16.706	62.1246
16.724	62.1215
16.742	62.1185
16.76	62.1137
16.778	62.1063
16.796	62.0946
16.814	62.0781
16.832	62.0564
16.85	62.0294
16.868	61.9976
16.886	61.9612
16.904	61.9213
16.922	61.8784
16.94	61.8335
16.958	61.7873
16.976	61.7402
16.994	61.6928
17.012	61.6454
17.03	61.5981
17.048	61.5511
17.066	61.5047
17.084	61.4593
17.102	61.4155
17.12	61.3736
17.138	61.3349
17.156	61.3006
17.174	61.2714
17.192	61.2492
17.21	61.2348
17.228	61.2297
17.246	61.2345
17.264	61.2499
17.282	61.2763
17.3	61.3132
17.318	61.3602
17.336	61.4155
17.354	61.4781
17.372	61.5451
17.39	61.6152
17.408	61.6855
17.426	61.7537
17.444	61.818
17.462	61.8757
17.48	61.9262
17.498	61.9676
17.516	61.9999
17.534	62.0226
17.552	62.0367
17.57	62.0425
17.588	62.0416
17.606	62.0347
17.624	62.0231
17.642	62.0078
17.66	61.9893
17.678	61.9687
17.696	61.9462
17.714	61.9219
17.732	61.8959
17.75	61.8677
17.768	61.8373
17.786	61.8044
17.804	61.7691
17.822	61.7318
17.84	61.6932
17.858	61.654
17.876	61.6151
17.894	61.5784
17.912	61.5445
17.93	61.5159
17.948	61.4931
17.966	61.4778
17.984	61.4698
18.002	61.4695
18.02	61.4759
18.038	61.4886
18.056	61.5052
18.074	61.5251
18.092	61.5447
18.11	61.5633
18.128	61.5769
18.146	61.585
18.164	61.5844
18.182	61.5745
18.2	61.5539
18.218	61.5227
18.236	61.4802
18.254	61.4285
18.272	61.3677
18.29	61.3006
18.308	61.2276
18.326	61.1528
18.344	61.077
18.362	61.0043
18.38	60.9359
18.398	60.8759
18.416	60.8255
18.434	60.7877
18.452	60.7638
18.47	60.7556
18.488	60.7639
18.506	60.7895
18.524	60.8319
18.542	60.8912
18.56	60.9648
18.578	61.0525
18.596	61.1498
18.614	61.2564
18.632	61.3663
18.65	61.4791
18.668	61.5888
18.686	61.6952
18.704	61.7924
18.722	61.8806
18.74	61.9565
18.758	62.0204
18.776	62.071
18.794	62.1096
18.812	62.1378
18.83	62.1573
18.848	62.1717
18.866	62.183
18.884	62.196
18.902	62.2124
18.92	62.2368
18.938	62.2701
18.956	62.3153
18.974	62.3719
18.992	62.4412
19.01	62.5205
19.028	62.6081
19.046	62.7004
19.064	62.7928
19.082	62.8816
19.1	62.9601
19.118	63.0258
19.136	63.0716
19.154	63.0968
19.172	63.0957
19.19	63.0694
19.208	63.016
19.226	62.9375
19.244	62.8373
19.262	62.7174
19.28	62.586
19.298	62.4439
19.316	62.3027
19.334	62.1621
19.352	62.0335
19.37	61.9163
19.388	61.8189
19.406	61.7411
19.424	61.6855
19.442	61.6528
19.46	61.64
19.478	61.6478
19.496	61.6695
19.514	61.7045
19.532	61.7461
19.55	61.7911
19.568	61.8355
19.586	61.8737
19.604	61.9051
19.622	61.9245
19.64	61.9328
19.658	61.9282
19.676	61.9113
19.694	61.8843
19.712	61.8468
19.73	61.8046
19.748	61.7573
19.766	61.7108
19.784	61.666
19.802	61.6265
19.82	61.5952
19.838	61.572
19.856	61.5593
19.874	61.5561
19.892	61.5622
19.91	61.5774
19.928	61.5985
19.946	61.6259
19.964	61.6549
19.982	61.6855
20	61.7144
20.018	61.7395
20.036	61.7604
20.054	61.7744
20.072	61.7823
20.09	61.7835
20.108	61.778
20.126	61.7682
20.144	61.7534
20.162	61.7374
20.18	61.7212
20.198	61.7067
20.216	61.6973
20.234	61.6928
20.252	61.6973
20.27	61.7102
20.288	61.7336
20.306	61.7681
20.324	61.8132
20.342	61.8693
20.36	61.9353
20.378	62.0093
20.396	62.0915
20.414	62.1774
20.432	62.2678
20.45	62.3587
20.468	62.4487
20.486	62.5366
20.504	62.6187
20.522	62.6958
20.54	62.7648
20.558	62.8259
20.576	62.8782
20.594	62.9209
20.612	62.9548
20.63	62.9806
20.648	62.998
20.666	63.009
20.684	63.0133
20.702	63.0128
20.72	63.0086
20.738	63.0007
20.756	62.9908
20.774	62.9786
20.792	62.9647
20.81	62.9495
20.828	62.9323
20.846	62.9127
20.864	62.8907
20.882	62.8654
20.9	62.837
20.918	62.8044
20.936	62.7666
20.954	62.7238
20.972	62.6748
20.99	62.6197
21.008	62.5585
21.026	62.4908
21.044	62.4174
21.062	62.3392
21.08	62.2558
21.098	62.17
21.116	62.0819
21.134	61.993
21.152	61.9065
21.17	61.8214
21.188	61.7422
21.206	61.6693
21.224	61.6041
21.242	61.5504
21.26	61.5069
21.278	61.477
21.296	61.4614
21.314	61.46
21.332	61.4748
21.35	61.5052
21.368	61.5507
21.386	61.6116
21.404	61.6867
21.422	61.7737
21.44	61.8736
21.458	61.9823
21.476	62.0984
21.494	62.2216
21.512	62.3466
21.53	62.4746
21.548	62.6022
21.566	62.7263
21.584	62.848
21.602	62.9633
21.62	63.0721
21.638	63.1739
21.656	63.2669
21.674	63.3516
21.692	63.4274
21.71	63.4939
21.728	63.5516
21.746	63.6015
21.764	63.6432
21.782	63.6772
21.8	63.7041
21.818	63.7236
21.836	63.7365
21.854	63.7434
21.872	63.7435
21.89	63.7361
21.908	63.7216
21.926	63.6985
21.944	63.666
21.962	63.6243
21.98	63.5703
21.998	63.5041
22.016	63.425
22.034	63.3309
22.052	63.2224
22.07	63.0988
22.088	62.9592
22.106	62.8039
22.124	62.6344
22.142	62.4499
22.16	62.2518
22.178	62.0443
22.196	61.8252
22.214	61.599
22.232	61.371
22.25	61.1382
22.268	60.908
22.286	60.6842
22.304	60.4647
22.322	60.2581
22.34	60.0648
22.358	59.8855
22.376	59.7267
22.394	59.5873
22.412	59.4686
22.43	59.374
22.448	59.3025
22.466	59.2545
22.484	59.2308
22.502	59.2313
22.52	59.2541
22.538	59.299
22.556	59.366
22.574	59.4507
22.592	59.5536
22.61	59.6734
22.628	59.8045
22.646	59.9485
22.664	60.1027
22.682	60.2616
22.7	60.4275
22.718	60.5968
22.736	60.765
22.754	60.9347
22.772	61.1013
22.79	61.2611
22.808	61.4162
22.826	61.5628
22.844	61.698
22.862	61.8236
22.88	61.9365
22.898	62.0347
22.916	62.1197
22.934	62.1897
22.952	62.244
22.97	62.2833
22.988	62.3072
23.006	62.3152
23.024	62.3079
23.042	62.2872
23.06	62.2526
23.078	62.2048
23.096	62.1474
23.114	62.0794
23.132	62.0022
23.15	61.9209
23.168	61.8343
23.186	61.7439
23.204	61.6555
23.222	61.5678
23.24	61.4821
23.258	61.4047
23.276	61.3343
23.294	61.272
23.312	61.2232
23.33	61.1874
23.348	61.1648
23.366	61.1593
23.384	61.1709
23.402	61.1992
23.42	61.2463
23.438	61.3131
23.456	61.3983
23.474	61.501
23.492	61.6223
23.51	61.761
23.528	61.9133
23.546	62.0792
23.564	62.2589
23.582	62.4464
23.6	62.64
23.618	62.8416
23.636	63.0445
23.654	63.2458
23.672	63.4486
23.69	63.6459
23.708	63.8333
23.726	64.0147
23.744	64.1842
23.762	64.3366
23.78	64.4754
23.798	64.5972
23.816	64.6975
23.834	64.7783
23.852	64.8385
23.87	64.8759
23.888	64.8908
23.906	64.8836
23.924	64.8537
23.942	64.8005
23.96	64.7249
23.978	64.6276
23.996	64.5086
24.014	64.3678
24.032	64.2076
24.05	64.0292
24.068	63.8314
24.086	63.617
24.104	63.3889
24.122	63.1447
24.14	62.8874
24.158	62.6208
24.176	62.3432
24.194	62.056
24.212	61.7636
24.23	61.4663
24.248	61.163
24.266	60.8583
24.284	60.5541
24.302	60.2483
24.32	59.9443
24.338	59.6457
24.356	59.3496
24.374	59.059
24.392	58.7788
24.41	58.5075
24.428	58.2455
24.446	57.9973
24.464	57.7646
24.482	57.5453
24.5	57.342
24.518	57.1569
24.536	56.9887
24.554	56.8379
24.572	56.7061
24.59	56.5936
24.608	56.4995
24.626	56.4227
24.644	56.3631
24.662	56.3211
24.68	56.2948
24.698	56.2826
24.716	56.2867
24.734	56.3043
24.752	56.3318
24.77	56.3688
24.788	56.4165
24.806	56.4719
24.824	56.5332
24.842	56.6024
24.86	56.6773
24.878	56.7556
24.896	56.8369
24.914	56.9222
24.932	57.0117
24.95	57.1051
24.968	57.202
24.986	57.3043
25.004	57.414
25.022	57.5292
25.04	57.6515
25.058	57.7844
25.076	57.9297
25.094	58.085
25.112	58.2529
25.13	58.4359
25.148	58.6327
25.166	58.8437
25.184	59.0708
25.202	59.3152
25.22	59.5759
25.238	59.8527
25.256	60.1458
25.274	60.4565
25.292	60.7831
25.31	61.123
25.328	61.4752
25.346	61.8425
25.364	62.2198
25.382	62.6013
25.4	62.9893
25.418	63.3837
25.436	63.7782
25.454	64.1681
25.472	64.5585
25.49	64.9452
25.508	65.3224
25.526	65.6893
25.544	66.0486
25.562	66.3961
25.58	66.7276
25.598	67.0455
25.616	67.3492
25.634	67.6357
25.652	67.9033
25.67	68.1538
25.688	68.3864
25.706	68.5993
25.724	68.7929
25.742	68.9677
25.76	69.1224
25.778	69.2558
25.796	69.3694
25.814	69.4623
25.832	69.5325
25.85	69.5789
25.868	69.604
25.886	69.605
25.904	69.579
25.922	69.5257
25.94	69.447
25.958	69.3398
25.976	69.2008
25.994	69.0312
26.012	68.8315
26.03	68.5996
26.048	68.3336
26.066	68.0343
26.084	67.7023
26.102	67.3375
26.12	66.9392
26.138	66.5059
26.156	66.0416
26.174	65.5503
26.192	65.0318
26.21	64.4824
26.228	63.9109
26.246	63.3264
26.264	62.7254
26.282	62.105
26.3	61.4791
26.318	60.8608
26.336	60.2411
26.354	59.6212
26.372	59.0174
26.39	58.4443
26.408	57.8891
26.426	57.3565
26.444	56.8624
26.462	56.4197
26.48	56.0168
26.498	55.6577
26.516	55.353
26.534	55.1102
26.552	54.9216
26.57	54.7899
26.588	54.7202
26.606	54.7168
26.624	54.7775
26.642	54.8996
26.66	55.0809
26.678	55.3213
26.696	55.624
26.714	55.983
26.732	56.392
26.75	56.8493
26.768	57.3623
26.786	57.9205
26.804	58.5125
26.822	59.1334
26.84	59.7929
26.858	60.4825
26.876	61.1921
26.894	61.9174
26.912	62.6663
26.93	63.4328
26.948	64.2101
26.966	65.0315
26.984	65.9575
27.002	66.8457
27.02	67.5409
27.028	67.7266