File: Bakgrunnsmateriale/MATLAB/FTIR/ftir_data/subAa/Mapping_121/BZ1503107-1_t69_cm-1.asc
PE IR       SPECTRUM    SPECTRUM    ASCII       PEDS        1.60
  -1
BZ6131~1.ASC
17/04/07
18:57:17.00
17/04/07
18:57:17.00
tln
$BZ1503107-1_t0069$<tbV0>[7.8,2.6,8.0,0.0,27,1,0]
370
64

2002,4.07
MIRTGS : RIGHTBACK : INTERNAL 2
MIR : ON : INTERNAL 2
OPTKBR

0.200000
8
8.000000
FILLER
RATIO
SPECTRUM
UNLOCKED 256

DOUBLE
64
COMBINED
1
0
0

1.000000
RATIO

1
0
TRUE
51149
0
LEFT NOT FITTED RIGHT NOT FITTED 0
NONE
NONE
15600
12
4.427000
51148
TRUE
1 0 8 72 0 0 0 0

15798

#HDR
-1
-1
#GR
CM-1
%T
2.38419e-05
0.0
5000
-1.000000
4631
8
66.3816
46.2795
#DATA
5000	65.3958
4996	65.5297
4992	65.5236
4988	65.5876
4984	65.5225
4980	65.3055
4976	65.2018
4972	65.2561
4968	65.304
4964	65.1659
4960	64.9462
4956	64.9451
4952	64.8978
4948	64.6866
4944	64.8021
4940	64.9993
4936	64.9723
4932	64.9459
4928	65.0218
4924	64.9959
4920	64.7635
4916	64.7423
4912	65.0226
4908	65.254
4904	65.2567
4900	65.1006
4896	64.9427
4892	64.9006
4888	64.8805
4884	64.9181
4880	65.1797
4876	65.3854
4872	65.3219
4868	65.1459
4864	64.9992
4860	64.842
4856	64.6807
4852	64.6167
4848	64.6111
4844	64.6693
4840	64.7123
4836	64.7141
4832	64.8424
4828	64.9626
4824	64.9781
4820	64.9408
4816	64.8532
4812	64.6828
4808	64.4945
4804	64.4906
4800	64.4525
4796	64.3064
4792	64.3352
4788	64.3582
4784	64.3317
4780	64.3666
4776	64.4634
4772	64.7095
4768	64.9765
4764	65.0522
4760	64.8029
4756	64.5452
4752	64.6718
4748	64.8617
4744	64.8533
4740	64.774
4736	64.6107
4732	64.5391
4728	64.7181
4724	64.8888
4720	64.942
4716	64.9454
4712	64.8298
4708	64.735
4704	64.7333
4700	64.7076
4696	64.6881
4692	64.5723
4688	64.3127
4684	64.2788
4680	64.49
4676	64.5306
4672	64.592
4668	64.8763
4664	65.0096
4660	64.9529
4656	64.7795
4652	64.4989
4648	64.453
4644	64.685
4640	64.8148
4636	64.8084
4632	64.9786
4628	65.1877
4624	65.2098
4620	65.2501
4616	65.3117
4612	65.2202
4608	65.0298
4604	64.9115
4600	64.9858
4596	65.2761
4592	65.5151
4588	65.3255
4584	64.9966
4580	64.9649
4576	65.0328
4572	65.033
4568	65.1917
4564	65.3682
4560	65.3426
4556	65.2502
4552	65.0123
4548	64.8692
4544	65.0505
4540	65.1191
4536	65.0499
4532	65.0878
4528	65.0997
4524	65.2069
4520	65.5443
4516	65.7592
4512	65.6918
4508	65.6387
4504	65.6651
4500	65.7807
4496	65.923
4492	65.9547
4488	65.957
4484	65.9429
4480	65.8502
4476	65.7865
4472	65.59
4468	65.2805
4464	64.9524
4460	64.499
4456	64.2301
4452	64.2234
4448	64.1971
4444	64.4967
4440	64.5971
4436	64.0929
4432	65.8745
4428	64.6392
4424	54.8779
4420	46.7175
4416	50.2745
4412	62.0064
4408	65.8991
4404	63.9932
4400	64.3985
4396	65.6271
4392	66.0928
4388	66.2912
4384	66.3816
4380	66.2703
4376	65.8689
4372	65.5414
4368	65.5282
4364	65.6646
4360	65.7739
4356	65.7962
4352	65.7559
4348	65.5817
4344	65.4416
4340	65.5461
4336	65.6847
4332	65.7484
4328	65.7457
4324	65.6445
4320	65.5401
4316	65.4872
4312	65.2721
4308	65.0391
4304	65.0743
4300	65.093
4296	64.9617
4292	64.9741
4288	65.0928
4284	65.1447
4280	65.2212
4276	65.3478
4272	65.4378
4268	65.453
4264	65.3458
4260	65.2067
4256	65.2109
4252	65.2301
4248	65.1486
4244	65.1265
4240	65.0939
4236	64.9575
4232	64.9005
4228	65.0479
4224	65.2513
4220	65.1553
4216	64.8898
4212	64.8269
4208	64.9831
4204	65.1686
4200	65.0756
4196	64.8599
4192	64.8262
4188	64.7719
4184	64.7049
4180	64.9072
4176	65.1576
4172	65.1532
4168	65.1437
4164	65.1454
4160	65.0126
4156	64.9585
4152	64.9257
4148	64.8075
4144	64.6532
4140	64.5098
4136	64.5597
4132	64.8012
4128	64.9259
4124	64.9225
4120	65.0025
4116	65.0892
4112	65.1749
4108	65.2256
4104	65.1337
4100	65.0459
4096	65.0638
4092	65.0635
4088	64.948
4084	64.8574
4080	64.7905
4076	64.7286
4072	64.787
4068	64.8298
4064	64.8331
4060	64.9317
4056	65.0681
4052	65.1671
4048	65.1813
4044	65.1101
4040	65.0736
4036	65.0564
4032	64.9129
4028	64.7907
4024	64.8375
4020	64.9441
4016	65.0799
4012	65.1371
4008	65.0613
4004	65.036
4000	65.0288
3996	64.9353
3992	64.8925
3988	64.9877
3984	65.1779
3980	65.3278
3976	65.3436
3972	65.2896
3968	65.154
3964	64.991
3960	64.8931
3956	64.8533
3952	64.9206
3948	65.0507
3944	65.066
3940	64.9516
3936	64.8725
3932	64.8156
3928	64.7784
3924	64.8914
3920	65.0088
3916	64.9934
3912	64.9527
3908	64.9811
3904	65.1272
3900	65.2636
3896	65.2463
3892	65.1996
3888	65.1757
3884	65.0238
3880	64.8771
3876	64.9182
3872	65.0577
3868	65.1737
3864	65.1603
3860	65.1187
3856	65.1286
3852	65.0806
3848	65.0311
3844	65.0939
3840	65.2157
3836	65.2334
3832	65.1119
3828	65.0556
3824	65.0891
3820	65.108
3816	65.2724
3812	65.3936
3808	65.2854
3804	65.2306
3800	65.2529
3796	65.3098
3792	65.3406
3788	65.2486
3784	65.2068
3780	65.2754
3776	65.2032
3772	65.0452
3768	64.9994
3764	64.9283
3760	64.9615
3756	65.1341
3752	65.1813
3748	65.1138
3744	65.0957
3740	65.1099
3736	64.9844
3732	64.8674
3728	64.9597
3724	65.0655
3720	65.0462
3716	64.99
3712	64.9493
3708	64.952
3704	65.0183
3700	65.1135
3696	65.1458
3692	65.0755
3688	65.0514
3684	65.1255
3680	65.1926
3676	65.2772
3672	65.3499
3668	65.2746
3664	65.1421
3660	65.0153
3656	64.9477
3652	65.0701
3648	65.1515
3644	65.0851
3640	65.093
3636	65.1344
3632	65.0963
3628	65.0444
3624	65.021
3620	64.9948
3616	64.9809
3612	65.0277
3608	65.1181
3604	65.1669
3600	65.1491
3596	65.146
3592	65.1316
3588	65.0523
3584	65.026
3580	65.0633
3576	65.0354
3572	65.0065
3568	65.0636
3564	65.0819
3560	64.9861
3556	64.9619
3552	65.1067
3548	65.1981
3544	65.1554
3540	65.1215
3536	65.1268
3532	65.1708
3528	65.2197
3524	65.1717
3520	65.1667
3516	65.2705
3512	65.2338
3508	65.0976
3504	65.0552
3500	65.0359
3496	64.9959
3492	64.982
3488	64.9945
3484	64.9772
3480	64.9265
3476	64.9273
3472	64.9874
3468	65.0413
3464	65.0604
3460	65.0807
3456	65.1135
3452	65.1391
3448	65.1452
3444	65.0818
3440	64.928
3436	64.7958
3432	64.8772
3428	65.0816
3424	65.1361
3420	65.1122
3416	65.0608
3412	64.8913
3408	64.8117
3404	64.92
3400	65.0321
3396	65.0719
3392	65.0621
3388	65.0436
3384	65.0635
3380	65.1532
3376	65.2109
3372	65.1353
3368	65.1052
3364	65.1114
3360	65.0672
3356	65.075
3352	65.0501
3348	65.0058
3344	65.0208
3340	64.9797
3336	64.8746
3332	64.8765
3328	64.9758
3324	64.9642
3320	64.8733
3316	64.895
3312	65.0457
3308	65.1824
3304	65.1172
3300	64.8984
3296	64.7735
3292	64.807
3288	64.8641
3284	64.8605
3280	64.8498
3276	64.857
3272	64.8636
3268	64.885
3264	64.921
3260	64.9359
3256	64.9566
3252	64.9964
3248	64.9869
3244	64.8772
3240	64.768
3236	64.8638
3232	65.0417
3228	65.0667
3224	65.0214
3220	64.9708
3216	64.9194
3212	64.924
3208	64.9193
3204	64.9015
3200	64.9478
3196	65.0543
3192	65.1445
3188	65.113
3184	65.0053
3180	64.9061
3176	64.885
3172	64.9158
3168	64.8907
3164	64.8974
3160	64.9531
3156	64.9911
3152	65.0586
3148	65.1167
3144	65.1188
3140	65.0832
3136	65.0176
3132	64.9427
3128	64.8943
3124	64.9371
3120	65.0058
3116	64.9639
3112	64.9266
3108	64.9882
3104	65.0458
3100	65.0327
3096	64.9822
3092	64.9221
3088	64.8703
3084	64.8628
3080	64.8977
3076	64.9658
3072	65.0012
3068	65.007
3064	65.0578
3060	65.101
3056	65.0823
3052	65.0575
3048	65.0299
3044	64.9749
3040	64.9023
3036	64.7899
3032	64.7376
3028	64.8391
3024	64.9381
3020	64.8949
3016	64.8223
3012	64.8483
3008	64.9107
3004	64.9646
3000	65.0334
2996	65.0553
2992	65.0179
2988	64.9656
2984	64.8839
2980	64.8002
2976	64.7401
2972	64.7015
2968	64.7423
2964	64.8318
2960	64.8488
2956	64.8071
2952	64.7525
2948	64.7218
2944	64.762
2940	64.8193
2936	64.8644
2932	64.9065
2928	64.8673
2924	64.7783
2920	64.7984
2916	64.8427
2912	64.83
2908	64.8531
2904	64.8887
2900	64.8976
2896	64.862
2892	64.8248
2888	64.8359
2884	64.8118
2880	64.7671
2876	64.8031
2872	64.83
2868	64.7953
2864	64.8075
2860	64.8119
2856	64.7733
2852	64.7593
2848	64.7665
2844	64.7808
2840	64.782
2836	64.7672
2832	64.763
2828	64.7944
2824	64.8555
2820	64.8902
2816	64.922
2812	64.9675
2808	64.9673
2804	64.9195
2800	64.8477
2796	64.8065
2792	64.8424
2788	64.9012
2784	64.9288
2780	64.9392
2776	64.9156
2772	64.8993
2768	64.9343
2764	64.974
2760	64.9732
2756	64.959
2752	64.9528
2748	64.8925
2744	64.8665
2740	64.9571
2736	65.0374
2732	65.0317
2728	64.9814
2724	64.946
2720	64.9002
2716	64.839
2712	64.8527
2708	64.9022
2704	64.9123
2700	64.8936
2696	64.8441
2692	64.7911
2688	64.7684
2684	64.8137
2680	64.9002
2676	64.9211
2672	64.9076
2668	64.8888
2664	64.82
2660	64.7574
2656	64.7388
2652	64.7627
2648	64.8253
2644	64.8552
2640	64.8271
2636	64.8167
2632	64.8631
2628	64.8852
2624	64.8619
2620	64.8749
2616	64.8632
2612	64.8088
2608	64.797
2604	64.7799
2600	64.7213
2596	64.6789
2592	64.7077
2588	64.731
2584	64.7503
2580	64.8375
2576	64.9248
2572	64.9267
2568	64.8441
2564	64.7974
2560	64.779
2556	64.7072
2552	64.6597
2548	64.6952
2544	64.7619
2540	64.7762
2536	64.804
2532	64.8768
2528	64.866
2524	64.8385
2520	64.8505
2516	64.7983
2512	64.7169
2508	64.7225
2504	64.7867
2500	64.7847
2496	64.7313
2492	64.7383
2488	64.7825
2484	64.7987
2480	64.8158
2476	64.8213
2472	64.7871
2468	64.7615
2464	64.7721
2460	64.8316
2456	64.8716
2452	64.7953
2448	64.7246
2444	64.7479
2440	64.7746
2436	64.7871
2432	64.7996
2428	64.7992
2424	64.8011
2420	64.7974
2416	64.7568
2412	64.6944
2408	64.6853
2404	64.7232
2400	64.7043
2396	64.6287
2392	64.5739
2388	64.6077
2384	64.7015
2380	64.7413
2376	64.7319
2372	64.7211
2368	64.679
2364	64.6216
2360	64.6053
2356	64.5845
2352	64.5638
2348	64.6299
2344	64.7018
2340	64.686
2336	64.6915
2332	64.735
2328	64.7173
2324	64.7022
2320	64.7034
2316	64.6858
2312	64.7124
2308	64.7502
2304	64.7319
2300	64.6702
2296	64.6077
2292	64.6067
2288	64.635
2284	64.6217
2280	64.6168
2276	64.6769
2272	64.7436
2268	64.7389
2264	64.7287
2260	64.7563
2256	64.7265
2252	64.637
2248	64.5658
2244	64.5247
2240	64.5175
2236	64.5744
2232	64.6557
2228	64.6924
2224	64.6802
2220	64.6427
2216	64.6051
2212	64.6138
2208	64.6556
2204	64.6349
2200	64.578
2196	64.57
2192	64.5966
2188	64.6137
2184	64.6045
2180	64.6041
2176	64.5936
2172	64.5483
2168	64.5779
2164	64.6253
2160	64.5995
2156	64.6028
2152	64.6487
2148	64.6211
2144	64.5837
2140	64.6101
2136	64.6415
2132	64.6674
2128	64.6558
2124	64.5862
2120	64.5326
2116	64.5258
2112	64.5276
2108	64.5213
2104	64.533
2100	64.5566
2096	64.5851
2092	64.5754
2088	64.5047
2084	64.4729
2080	64.4771
2076	64.468
2072	64.4732
2068	64.4685
2064	64.4663
2060	64.504
2056	64.5189
2052	64.4739
2048	64.4432
2044	64.4595
2040	64.4781
2036	64.494
2032	64.4954
2028	64.4907
2024	64.5158
2020	64.539
2016	64.5187
2012	64.4681
2008	64.4522
2004	64.4622
2000	64.4354
1996	64.3993
1992	64.3717
1988	64.3573
1984	64.3909
1980	64.4453
1976	64.4533
1972	64.4127
1968	64.3856
1964	64.4094
1960	64.4502
1956	64.459
1952	64.441
1948	64.4389
1944	64.4373
1940	64.4238
1936	64.4392
1932	64.4457
1928	64.4088
1924	64.3812
1920	64.377
1916	64.3822
1912	64.4173
1908	64.4419
1904	64.3806
1900	64.2668
1896	64.233
1892	64.3083
1888	64.3518
1884	64.3508
1880	64.4149
1876	64.4603
1872	64.4019
1868	64.3401
1864	64.3452
1860	64.3705
1856	64.3716
1852	64.384
1848	64.4195
1844	64.3867
1840	64.2977
1836	64.2413
1832	64.22
1828	64.2241
1824	64.2389
1820	64.2785
1816	64.3176
1812	64.2815
1808	64.2018
1804	64.1879
1800	64.2482
1796	64.2924
1792	64.2952
1788	64.2707
1784	64.2542
1780	64.2949
1776	64.3393
1772	64.3347
1768	64.3311
1764	64.3545
1760	64.3618
1756	64.2607
1752	64.0952
1748	64.0773
1744	64.1845
1740	64.2138
1736	64.1479
1732	64.0983
1728	64.1181
1724	64.1548
1720	64.1748
1716	64.1892
1712	64.169
1708	64.1037
1704	64.0711
1700	64.0822
1696	64.0701
1692	64.0698
1688	64.0864
1684	64.1028
1680	64.1662
1676	64.1896
1672	64.1004
1668	64.0495
1664	64.0657
1660	64.0682
1656	64.0914
1652	64.1495
1648	64.2114
1644	64.1894
1640	64.0834
1636	64.0376
1632	64.1103
1628	64.1901
1624	64.1927
1620	64.1833
1616	64.1492
1612	64.0577
1608	64.0007
1604	64.0043
1600	64.0297
1596	64.0316
1592	63.9984
1588	63.9955
1584	63.9995
1580	63.9673
1576	63.9438
1572	63.9451
1568	63.9337
1564	63.8889
1560	63.8687
1556	63.9085
1552	63.9645
1548	63.9985
1544	64.0246
1540	64.079
1536	64.0768
1532	63.997
1528	63.9226
1524	63.9195
1520	63.9773
1516	64.0166
1512	64.0318
1508	64.0298
1504	64.0014
1500	63.9269
1496	63.8529
1492	63.8797
1488	63.9344
1484	63.9219
1480	63.8643
1476	63.8407
1472	63.8743
1468	63.8786
1464	63.8453
1460	63.8527
1456	63.8879
1452	63.9298
1448	63.9397
1444	63.9261
1440	63.9751
1436	64.0512
1432	64.0816
1428	64.0775
1424	64.0834
1420	64.0373
1416	63.9265
1412	63.8415
1408	63.7973
1404	63.8293
1400	63.9031
1396	63.9503
1392	63.9849
1388	63.9453
1384	63.8464
1380	63.819
1376	63.8661
1372	63.9125
1368	63.8877
1364	63.8272
1360	63.787
1356	63.7335
1352	63.7465
1348	63.8738
1344	63.9283
1340	63.87
1336	63.8812
1332	63.9206
1328	63.9279
1324	63.9192
1320	63.8114
1316	63.681
1312	63.6776
1308	63.7489
1304	63.7875
1300	63.7998
1296	63.8105
1292	63.821
1288	63.8101
1284	63.7721
1280	63.7287
1276	63.661
1272	63.659
1268	63.7267
1264	63.7113
1260	63.6834
1256	63.7256
1252	63.7446
1248	63.7205
1244	63.7187
1240	63.6856
1236	63.5797
1232	63.541
1228	63.6766
1224	63.8034
1220	63.7311
1216	63.6077
1212	63.5995
1208	63.6643
1204	63.71
1200	63.7449
1196	63.7651
1192	63.6671
1188	63.5326
1184	63.5179
1180	63.5211
1176	63.4856
1172	63.5062
1168	63.5446
1164	63.585
1160	63.6468
1156	63.6636
1152	63.6468
1148	63.6249
1144	63.6253
1140	63.6679
1136	63.6772
1132	63.6214
1128	63.585
1124	63.6284
1120	63.6837
1116	63.7326
1112	63.7909
1108	63.8116
1104	63.7841
1100	63.7178
1096	63.6117
1092	63.5212
1088	63.529
1084	63.5869
1080	63.6117
1076	63.5828
1072	63.5778
1068	63.6358
1064	63.6382
1060	63.6508
1056	63.7604
1052	63.8395
1048	63.8254
1044	63.7521
1040	63.6514
1036	63.5629
1032	63.5559
1028	63.5483
1024	63.4613
1020	63.4471
1016	63.4763
1012	63.4997
1008	63.6441
1004	63.7815
1000	63.7432
996	 63.6145
992	 63.4984
988	 63.4922
984	 63.6698
980	 63.8018
976	 63.6832
972	 63.5579
968	 63.5798
964	 63.6014
960	 63.5529
956	 63.4526
952	 63.3954
948	 63.4839
944	 63.601
940	 63.5872
936	 63.4824
932	 63.439
928	 63.5098
924	 63.5359
920	 63.4803
916	 63.5384
912	 63.6428
908	 63.6394
904	 63.6211
900	 63.6069
896	 63.6076
892	 63.6357
888	 63.6766
884	 63.7126
880	 63.6303
876	 63.6088
872	 63.7354
868	 63.6811
864	 63.4764
860	 63.4115
856	 63.4893
852	 63.5664
848	 63.5455
844	 63.4273
840	 63.4064
836	 63.5018
832	 63.5464
828	 63.5841
824	 63.6337
820	 63.566
816	 63.4415
812	 63.4193
808	 63.4598
804	 63.4591
800	 63.4249
796	 63.4154
792	 63.4202
788	 63.4073
784	 63.415
780	 63.4856
776	 63.5422
772	 63.4167
768	 63.2546
764	 63.2507
760	 63.2856
756	 63.2891
752	 63.2812
748	 63.1954
744	 63.0545
740	 63.0588
736	 63.0884
732	 62.949
728	 62.8351
724	 62.8927
720	 62.9645
716	 63.1459
712	 63.4064
708	 63.2988
704	 63.0387
700	 62.8141
696	 62.5191
692	 62.584
688	 63.0705
684	 63.2843
680	 63.0627
676	 62.921
672	 63.1232
668	 63.2215
664	 63.0525
660	 63.2415
656	 63.4768
652	 63.3058
648	 63.166
644	 62.9363
640	 62.5764
636	 62.5709
632	 62.9311
628	 62.933
624	 62.459
620	 62.3863
616	 62.8097
612	 63.1587
608	 63.3106
604	 63.4854
600	 63.4848
596	 63.1248
592	 62.8071
588	 62.6176
584	 62.6587
580	 62.9798
576	 63.2897
572	 63.3597
568	 63.1213
564	 63.0604
560	 63.2307
556	 63.1567
552	 63.0475
548	 63.0716
544	 63.1624
540	 63.2747
536	 63.2231
532	 62.9844
528	 62.7135
524	 62.6497
520	 62.7482
516	 62.624
512	 62.5509
508	 62.7769
504	 62.8545
500	 62.8961
496	 63.1378
492	 63.0851
488	 62.6533
484	 62.3551
480	 62.3429
476	 62.3403
472	 61.9726
468	 61.5999
464	 61.5721
460	 61.6095
456	 61.5569
452	 61.8034
448	 62.2624
444	 62.5486
440	 63.1568
436	 63.1907
432	 62.1614
428	 61.9569
424	 62.4949
420	 63.1949
416	 63.4793
412	 62.7081
408	 62.8314
404	 62.4318
400	 60.2317
396	 58.4233
392	 54.8205
388	 52.6732
384	 54.6078
380	 52.0288
376	 50.0652
372	 59.1975
370	 66.3275