File: Bakgrunnsmateriale/MATLAB/FTIR/ftir_data/subAa/Mapping_121/BZ1503107-1_t109.asc
PE IR       SPECTRUM    SPECTRUM    ASCII       PEDS        1.60
  -1
BZE6B6~1.ASC
17/04/07
22:09:47.00
17/04/07
22:10:13.00
tln
$BZ1503107-1_t0109$<tbV0>[-10.4,10.4,8.0,0.0,27,1,0]
27.028
64

2002,4.07
MIRTGS : RIGHTBACK : INTERNAL 2
MIR : ON : INTERNAL 2
OPTKBR

0.200000
8
8.000000
FILLER
RATIO
SPECTRUM
UNLOCKED 256

DOUBLE
64
COMBINED
1
0
0

0.002000
RATIO

1
0
TRUE
51149
0
LEFT NOT FITTED RIGHT NOT FITTED 0
NONE
NONE
15600
12
4.427000
51148
TRUE
1 0 8 72 0 0 0 0

15798

#HDR
-1
-1
#GR
µM
%T
2.38419e-05
0.0
2.000000
0.002000
12515
8
76.8024
56.7526
#DATA
2.000000	 64.2356
2.018000	 65.6003
2.036000	 64.8338
2.054000	 64.7405
2.072000	 64.5315
2.090000	 65.2999
2.108000	 65.0898
2.126000	 64.801
2.144000	 65.1352
2.162000	 65.0468
2.180000	 64.7998
2.198000	 64.5035
2.216000	 64.3259
2.234000	 64.2757
2.252000	 74.934
2.270000	 64.5974
2.288000	 63.9599
2.306000	 64.6443
2.324000	 64.828
2.342000	 64.6401
2.360000	 64.8239
2.378000	 64.8887
2.396000	 64.9436
2.414000	 64.9059
2.432000	 64.9794
2.450000	 64.9576
2.468000	 64.8109
2.486000	 64.8905
2.504000	 65.1355
2.522000	 65.1466
2.540000	 65.3604
2.558000	 64.8879
2.576000	 65.0426
2.594000	 65.1374
2.612000	 64.9916
2.630000	 64.8767
2.648000	 64.9607
2.666000	 65.0306
2.684000	 64.9518
2.702000	 65.1879
2.720000	 64.943
2.738000	 65.071
2.756000	 65.0418
2.774000	 65.0475
2.792000	 64.9583
2.810000	 64.9461
2.828000	 65.0276
2.846000	 64.8457
2.864000	 64.9905
2.882000	 64.9348
2.900000	 64.9427
2.918000	 64.7759
2.936000	 64.9063
2.954000	 64.9052
2.972000	 64.7475
2.990000	 65.0041
3.008000	 64.735
3.026000	 64.908
3.044000	 64.9425
3.062000	 64.8752
3.080000	 64.8572
3.098000	 64.9717
3.116000	 64.7774
3.134000	 65.0771
3.152000	 64.8776
3.170000	 64.7492
3.188000	 64.9345
3.206000	 64.7303
3.224000	 64.8203
3.242000	 64.9006
3.260000	 64.8824
3.278000	 64.9471
3.296000	 64.8598
3.314000	 64.7018
3.332000	 64.6371
3.350000	 64.8129
3.368000	 64.6698
3.386000	 64.6711
3.404000	 64.8101
3.422000	 64.5254
3.440000	 64.6463
3.458000	 64.69
3.476000	 64.6602
3.494000	 64.5584
3.512000	 64.6349
3.530000	 64.7106
3.548000	 64.6609
3.566000	 64.7242
3.584000	 64.668
3.602000	 64.6813
3.620000	 64.793
3.638000	 64.5737
3.656000	 64.5692
3.674000	 64.6787
3.692000	 64.6967
3.710000	 64.6184
3.728000	 64.6224
3.746000	 64.7348
3.764000	 64.6403
3.782000	 64.748
3.800000	 64.65
3.818000	 64.5005
3.836000	 64.5022
3.854000	 64.6719
3.872000	 64.6675
3.890000	 64.6403
3.908000	 64.6352
3.926000	 64.5392
3.944000	 64.521
3.962000	 64.5156
3.980000	 64.5302
3.998000	 64.4482
4.016000	 64.5665
4.034000	 64.5122
4.052000	 64.4916
4.070000	 64.6028
4.088000	 64.4746
4.106000	 64.5003
4.124000	 64.5387
4.141999	 64.5131
4.160000	 64.4221
4.178000	 64.5044
4.196000	 64.5795
4.214000	 64.4686
4.232000	 64.5244
4.250000	 64.5719
4.268000	 64.4061
4.286000	 64.3345
4.304000	 64.5896
4.322000	 64.4743
4.340000	 64.4475
4.358000	 64.4727
4.375999	 64.2908
4.394000	 64.3558
4.412000	 64.4654
4.430000	 64.3733
4.448000	 64.3915
4.466000	 64.3564
4.484000	 64.4229
4.502000	 64.3402
4.520000	 64.2146
4.538000	 64.2404
4.556000	 64.2199
4.574000	 64.239
4.592000	 64.213
4.609999	 64.2726
4.628000	 64.249
4.646000	 64.2937
4.664000	 64.2994
4.682000	 64.3003
4.700000	 64.1925
4.718000	 64.2546
4.736000	 64.231
4.754000	 64.2335
4.772000	 64.2558
4.790000	 64.1783
4.808000	 64.2269
4.826000	 64.1606
4.843999	 64.0633
4.862000	 64.1862
4.880000	 64.0998
4.898000	 64.1753
4.916000	 64.1863
4.934000	 64.0689
4.952000	 64.0236
4.970000	 64.0957
4.988000	 64.0978
5.006000	 64.1727
5.024000	 64.2034
5.042000	 64.1242
5.060000	 64.1709
5.077999	 64.1729
5.096000	 64.1202
5.114000	 64.1163
5.132000	 63.9697
5.150000	 64.0067
5.168000	 64.0563
5.186000	 63.9306
5.204000	 63.9093
5.222000	 63.9357
5.240000	 64.0176
5.258000	 64.0616
5.276000	 64.0235
5.294000	 64.0188
5.312000	 63.9497
5.330000	 64.0279
5.348000	 63.9636
5.366000	 63.8932
5.384000	 64.0054
5.402000	 64.0578
5.420000	 63.9713
5.438000	 63.9712
5.456000	 63.9833
5.474000	 63.9191
5.492000	 63.8443
5.510000	 63.8564
5.528000	 63.9512
5.546000	 63.9276
5.564000	 63.9037
5.582000	 63.8619
5.600000	 63.8112
5.618000	 63.8495
5.636000	 63.8478
5.654000	 63.8139
5.672000	 63.7717
5.690000	 63.755
5.708000	 63.6839
5.726000	 63.611
5.744000	 63.5195
5.762000	 63.4389
5.780000	 63.4808
5.798000	 63.5661
5.816000	 63.6146
5.834000	 63.6899
5.852000	 63.751
5.870000	 63.8154
5.888000	 63.8269
5.906000	 63.7662
5.923999	 63.72
5.942000	 63.7409
5.960000	 63.6723
5.978000	 63.6346
5.996000	 63.6677
6.014000	 63.7461
6.032000	 63.78
6.050000	 63.7245
6.068000	 63.7154
6.086000	 63.7195
6.104000	 63.7912
6.122000	 63.7296
6.140000	 63.5619
6.158000	 63.5559
6.176000	 63.5923
6.194000	 63.6226
6.212000	 63.6782
6.230000	 63.6766
6.248000	 63.6169
6.266000	 63.6013
6.284000	 63.6362
6.302000	 63.5765
6.320000	 63.4813
6.338000	 63.5015
6.356000	 63.6369
6.374000	 63.7241
6.392000	 63.6543
6.410000	 63.5694
6.428000	 63.5166
6.446000	 63.486
6.464000	 63.5556
6.482000	 63.627
6.500000	 63.5532
6.518000	 63.445
6.536000	 63.4216
6.554000	 63.4337
6.572000	 63.4748
6.590000	 63.5234
6.608000	 63.5462
6.626000	 63.5081
6.644000	 63.4372
6.662000	 63.4381
6.680000	 63.5031
6.698000	 63.5273
6.716000	 63.5085
6.734000	 63.4811
6.752000	 63.4775
6.770000	 63.5237
6.788000	 63.5385
6.806000	 63.4885
6.824000	 63.4404
6.842000	 63.3797
6.860000	 63.2556
6.878000	 63.1477
6.896000	 63.1563
6.914000	 63.2337
6.932000	 63.2654
6.950000	 63.242
6.968000	 63.2587
6.986000	 63.293
7.004000	 63.2792
7.022000	 63.2807
7.040000	 63.3216
7.058000	 63.3347
7.076000	 63.304
7.094000	 63.2765
7.112000	 63.3007
7.130000	 63.3338
7.148000	 63.292
7.166000	 63.232
7.184000	 63.2476
7.202000	 63.2931
7.220000	 63.3063
7.238000	 63.2872
7.256000	 63.2457
7.274000	 63.2122
7.292000	 63.2032
7.310000	 63.1772
7.328000	 63.1388
7.346000	 63.16
7.364000	 63.2304
7.382000	 63.2649
7.400000	 63.2544
7.418000	 63.2307
7.436000	 63.1731
7.454000	 63.079
7.472000	 63.0232
7.490000	 63.0715
7.508000	 63.1803
7.526000	 63.2408
7.544000	 63.2293
7.562000	 63.2259
7.580000	 63.2594
7.598000	 63.2687
7.616000	 63.2353
7.634000	 63.215
7.652000	 63.2264
7.670000	 63.2371
7.688000	 63.2372
7.706000	 63.2321
7.724000	 63.2132
7.742000	 63.1775
7.760000	 63.1452
7.778000	 63.1387
7.796000	 63.1593
7.814000	 63.1803
7.832000	 63.1765
7.850000	 63.1548
7.868000	 63.1324
7.886000	 63.1033
7.904000	 63.0544
7.922000	 63.0008
7.940000	 62.9705
7.958000	 62.963
7.976000	 62.9571
7.994000	 62.9454
8.012000	 62.9406
8.030000	 62.956
8.048000	 62.9821
8.065999	 62.9908
8.084000	 62.9728
8.102000	 62.9581
8.120000	 62.9793
8.138000	 63.0298
8.155999	 63.0742
8.173999	 63.0819
8.192000	 63.0482
8.210000	 62.9966
8.228000	 62.9633
8.246000	 62.9566
8.263999	 62.9488
8.282000	 62.9286
8.300000	 62.925
8.318000	 62.9551
8.336000	 62.9886
8.353999	 62.9938
8.372000	 62.9809
8.390000	 62.975
8.408000	 62.9745
8.426000	 62.9648
8.443999	 62.9496
8.462000	 62.946
8.480000	 62.9564
8.498000	 62.9657
8.516000	 62.962
8.533999	 62.9503
8.552000	 62.9455
8.570000	 62.9552
8.588000	 62.9704
8.606000	 62.976
8.624000	 62.9664
8.641999	 62.9434
8.660000	 62.9114
8.678000	 62.8797
8.696000	 62.8655
8.714000	 62.8815
8.731999	 62.9198
8.750000	 62.9567
8.768000	 62.9748
8.786000	 62.9731
8.804000	 62.9586
8.821999	 62.9364
8.840000	 62.9119
8.858000	 62.8971
8.876000	 62.9018
8.894000	 62.9143
8.911999	 62.9059
8.930000	 62.8634
8.948000	 62.8092
8.966000	 62.7773
8.984000	 62.7735
9.001999	 62.775
9.020000	 62.7668
9.038000	 62.7624
9.056000	 62.7838
9.074000	 62.8308
9.092000	 62.8813
9.109999	 62.9131
9.128000	 62.9191
9.146000	 62.9047
9.164000	 62.881
9.182000	 62.8594
9.199999	 62.8467
9.218000	 62.8392
9.236000	 62.8222
9.254000	 62.7833
9.272000	 62.7272
9.289999	 62.6752
9.308000	 62.6493
9.326000	 62.6562
9.344000	 62.6863
9.362000	 62.7236
9.379999	 62.7551
9.398000	 62.7713
9.416000	 62.7679
9.434000	 62.7491
9.452000	 62.7283
9.469999	 62.7191
9.488000	 62.7239
9.506000	 62.7338
9.524000	 62.741
9.542000	 62.7479
9.560000	 62.7618
9.577999	 62.7832
9.596000	 62.8037
9.614000	 62.815
9.632000	 62.8171
9.650000	 62.8166
9.667999	 62.8159
9.686000	 62.8112
9.704000	 62.7984
9.722000	 62.7805
9.740000	 62.7662
9.757999	 62.7629
9.776000	 62.7704
9.794000	 62.781
9.812000	 62.7861
9.830000	 62.7829
9.847999	 62.776
9.866000	 62.7718
9.884000	 62.7733
9.902000	 62.7777
9.920000	 62.7799
9.937999	 62.7786
9.956000	 62.7794
9.974000	 62.7901
9.992000	 62.8137
10.01	62.8429
10.028	62.8627
10.046	62.8605
10.064	62.836
10.082	62.802
10.1	62.7782
10.118	62.778
10.136	62.8007
10.154	62.833
10.172	62.8581
10.19	62.8662
10.208	62.8578
10.226	62.8397
10.244	62.8175
10.262	62.7926
10.28	62.7643
10.298	62.7336
10.316	62.706
10.334	62.6887
10.352	62.6857
10.37	62.6939
10.388	62.7036
10.406	62.7036
10.424	62.6861
10.442	62.6513
10.46	62.6057
10.478	62.5597
10.496	62.5235
10.514	62.5057
10.532	62.5119
10.55	62.5445
10.568	62.6018
10.586	62.6769
10.604	62.7587
10.622	62.8339
10.64	62.8902
10.658	62.9212
10.676	62.927
10.694	62.914
10.712	62.8923
10.73	62.8717
10.748	62.8589
10.766	62.8549
10.784	62.8553
10.802	62.8515
10.82	62.834
10.838	62.7966
10.856	62.7395
10.874	62.6707
10.892	62.6036
10.91	62.5535
10.928	62.5305
10.946	62.5381
10.964	62.5704
10.982	62.6141
11	62.6545
11.018	62.6787
11.036	62.681
11.054	62.6631
11.072	62.6324
11.09	62.5983
11.108	62.5677
11.126	62.5435
11.144	62.5251
11.162	62.5121
11.18	62.5065
11.198	62.5129
11.216	62.5357
11.234	62.5745
11.252	62.6215
11.27	62.6637
11.288	62.6864
11.306	62.6821
11.324	62.6551
11.342	62.6202
11.36	62.5957
11.378	62.5949
11.396	62.6175
11.414	62.65
11.432	62.6729
11.45	62.6721
11.468	62.6451
11.486	62.6034
11.504	62.5661
11.522	62.5519
11.54	62.5695
11.558	62.6154
11.576	62.6764
11.594	62.7375
11.612	62.787
11.63	62.822
11.648	62.8467
11.666	62.8679
11.684	62.8901
11.702	62.9117
11.72	62.9259
11.738	62.9238
11.756	62.8997
11.774	62.8534
11.792	62.7912
11.81	62.7229
11.828	62.6587
11.846	62.6065
11.864	62.5697
11.882	62.5481
11.9	62.539
11.918	62.5387
11.936	62.5437
11.954	62.5507
11.972	62.5566
11.99	62.5589
12.008	62.5571
12.026	62.5534
12.044	62.551
12.062	62.5542
12.08	62.5661
12.098	62.587
12.116	62.6142
12.134	62.6432
12.152	62.669
12.17	62.6882
12.188	62.6999
12.206	62.7061
12.224	62.7103
12.242	62.7157
12.26	62.7246
12.278	62.7375
12.296	62.7528
12.314	62.7679
12.332	62.7787
12.35	62.7807
12.368	62.7685
12.386	62.7379
12.404	62.6872
12.422	62.619
12.44	62.5403
12.458	62.461
12.476	62.3925
12.494	62.3439
12.512	62.3203
12.53	62.3216
12.548	62.3435
12.566	62.379
12.584	62.4209
12.602	62.4638
12.62	62.5041
12.638	62.5403
12.656	62.5715
12.674	62.5958
12.692	62.6103
12.71	62.6114
12.728	62.596
12.746	62.5631
12.764	62.5149
12.782	62.4565
12.8	62.3953
12.818	62.3395
12.836	62.2967
12.854	62.2718
12.872	62.2671
12.89	62.2813
12.908	62.3104
12.926	62.3487
12.944	62.3902
12.962	62.4299
12.98	62.4641
12.998	62.4912
13.016	62.5113
13.034	62.5251
13.052	62.534
13.07	62.5388
13.088	62.54
13.106	62.538
13.124	62.5331
13.142	62.5262
13.16	62.5186
13.178	62.5125
13.196	62.5103
13.214	62.5138
13.232	62.5239
13.25	62.54
13.268	62.5599
13.286	62.5804
13.304	62.5979
13.322	62.6093
13.34	62.6129
13.358	62.6086
13.376	62.5978
13.394	62.5829
13.412	62.5667
13.43	62.5517
13.448	62.5395
13.466	62.5302
13.484	62.5228
13.502	62.5155
13.52	62.5063
13.538	62.4937
13.556	62.4769
13.574	62.4568
13.592	62.4352
13.61	62.4146
13.628	62.397
13.646	62.384
13.664	62.3758
13.682	62.3714
13.7	62.3684
13.718	62.3645
13.736	62.3573
13.754	62.3453
13.772	62.3286
13.79	62.3083
13.808	62.2867
13.826	62.2662
13.844	62.249
13.862	62.236
13.88	62.2273
13.898	62.2218
13.916	62.2177
13.934	62.2136
13.952	62.2084
13.97	62.2021
13.988	62.1955
14.006	62.1896
14.024	62.1856
14.042	62.184
14.06	62.184
14.078	62.184
14.096	62.182
14.114	62.1757
14.132	62.1633
14.15	62.1442
14.168	62.1189
14.186	62.0891
14.204	62.0575
14.222	62.0275
14.24	62.0022
14.258	61.9841
14.276	61.9749
14.294	61.9752
14.312	61.9843
14.33	62.001
14.348	62.0234
14.366	62.0491
14.384	62.0761
14.402	62.1028
14.42	62.1281
14.438	62.1511
14.456	62.1712
14.474	62.1878
14.492	62.2002
14.51	62.2078
14.528	62.2099
14.546	62.2062
14.564	62.1967
14.582	62.1821
14.6	62.1638
14.618	62.1436
14.636	62.1233
14.654	62.1049
14.672	62.0897
14.69	62.0786
14.708	62.0721
14.726	62.0701
14.744	62.072
14.762	62.0773
14.78	62.0854
14.798	62.0957
14.816	62.1075
14.834	62.12
14.852	62.1325
14.87	62.144
14.888	62.1536
14.906	62.1603
14.924	62.1635
14.942	62.1625
14.96	62.1569
14.978	62.1467
14.996	62.1323
15.014	62.1143
15.032	62.0934
15.05	62.0708
15.068	62.0471
15.086	62.0231
15.104	61.9996
15.122	61.977
15.14	61.9561
15.158	61.9374
15.176	61.9217
15.194	61.9099
15.212	61.9031
15.23	61.9027
15.248	61.9096
15.266	61.9246
15.284	61.9483
15.302	61.9804
15.32	62.0198
15.338	62.0652
15.356	62.1141
15.374	62.1637
15.392	62.2109
15.41	62.2528
15.428	62.2862
15.446	62.3082
15.464	62.3169
15.482	62.3116
15.5	62.2917
15.518	62.2588
15.536	62.215
15.554	62.1633
15.572	62.1072
15.59	62.0517
15.608	62.0006
15.626	61.9574
15.644	61.9258
15.662	61.9082
15.68	61.9054
15.698	61.9179
15.716	61.9451
15.734	61.9848
15.752	62.0345
15.77	62.0914
15.788	62.1511
15.806	62.2099
15.824	62.2644
15.842	62.3112
15.86	62.3475
15.878	62.3722
15.896	62.3843
15.914	62.3843
15.932	62.3741
15.95	62.3555
15.968	62.3314
15.986	62.306
16.004	62.2817
16.022	62.261
16.04	62.247
16.058	62.2401
16.076	62.2407
16.094	62.248
16.112	62.2597
16.13	62.2739
16.148	62.2879
16.166	62.2986
16.184	62.3045
16.202	62.3045
16.22	62.298
16.238	62.2857
16.256	62.2682
16.274	62.2472
16.292	62.2234
16.31	62.1979
16.328	62.171
16.346	62.1421
16.364	62.1105
16.382	62.0749
16.4	62.0347
16.418	61.9896
16.436	61.9398
16.454	61.8873
16.472	61.8336
16.49	61.7828
16.508	61.7384
16.526	61.7032
16.544	61.6817
16.562	61.6757
16.58	61.6866
16.598	61.715
16.616	61.7592
16.634	61.8179
16.652	61.8864
16.67	61.9613
16.688	62.039
16.706	62.1137
16.724	62.1832
16.742	62.2437
16.76	62.2933
16.778	62.3315
16.796	62.3577
16.814	62.3732
16.832	62.3788
16.85	62.3763
16.868	62.367
16.886	62.3523
16.904	62.3327
16.922	62.3085
16.94	62.2797
16.958	62.2451
16.976	62.204
16.994	62.1553
17.012	62.098
17.03	62.0317
17.048	61.9563
17.066	61.8728
17.084	61.7819
17.102	61.6866
17.12	61.5881
17.138	61.4907
17.156	61.3973
17.174	61.3104
17.192	61.2345
17.21	61.1708
17.228	61.1222
17.246	61.0889
17.264	61.0716
17.282	61.069
17.3	61.0798
17.318	61.1014
17.336	61.131
17.354	61.1666
17.372	61.204
17.39	61.2423
17.408	61.2786
17.426	61.3125
17.444	61.3429
17.462	61.3705
17.48	61.3956
17.498	61.4192
17.516	61.4421
17.534	61.4653
17.552	61.4894
17.57	61.5146
17.588	61.5404
17.606	61.5662
17.624	61.591
17.642	61.6126
17.66	61.63
17.678	61.6407
17.696	61.6441
17.714	61.638
17.732	61.622
17.75	61.5951
17.768	61.5577
17.786	61.5095
17.804	61.4524
17.822	61.3869
17.84	61.3156
17.858	61.2398
17.876	61.1615
17.894	61.0832
17.912	61.0059
17.93	60.9324
17.948	60.863
17.966	60.7998
17.984	60.7428
18.002	60.6931
18.02	60.6506
18.038	60.6155
18.056	60.5879
18.074	60.5676
18.092	60.5545
18.11	60.5483
18.128	60.5488
18.146	60.5558
18.164	60.569
18.182	60.5883
18.2	60.6135
18.218	60.6441
18.236	60.6801
18.254	60.7206
18.272	60.7658
18.29	60.8141
18.308	60.8655
18.326	60.9186
18.344	60.9731
18.362	61.0273
18.38	61.0812
18.398	61.1339
18.416	61.1851
18.434	61.2343
18.452	61.2818
18.47	61.3277
18.488	61.3731
18.506	61.4181
18.524	61.4643
18.542	61.512
18.56	61.5629
18.578	61.6175
18.596	61.6762
18.614	61.7391
18.632	61.8058
18.65	61.876
18.668	61.947
18.686	62.0183
18.704	62.0862
18.722	62.1498
18.74	62.2048
18.758	62.2505
18.776	62.2835
18.794	62.3035
18.812	62.3084
18.83	62.299
18.848	62.2748
18.866	62.2379
18.884	62.1899
18.902	62.1334
18.92	62.072
18.938	62.0085
18.956	61.9472
18.974	61.8903
18.992	61.8422
19.01	61.8036
19.028	61.7775
19.046	61.7631
19.064	61.7611
19.082	61.7698
19.1	61.7875
19.118	61.812
19.136	61.8397
19.154	61.8688
19.172	61.8941
19.19	61.9151
19.208	61.9267
19.226	61.9295
19.244	61.9204
19.262	61.9004
19.28	61.8699
19.298	61.8297
19.316	61.7833
19.334	61.7308
19.352	61.6786
19.37	61.6263
19.388	61.5803
19.406	61.5403
19.424	61.5113
19.442	61.4933
19.46	61.4888
19.478	61.4985
19.496	61.5212
19.514	61.5573
19.532	61.6041
19.55	61.661
19.568	61.7243
19.586	61.7908
19.604	61.8585
19.622	61.922
19.64	61.981
19.658	62.0285
19.676	62.0653
19.694	62.0857
19.712	62.0903
19.73	62.0759
19.748	62.0422
19.766	61.9893
19.784	61.9166
19.802	61.8263
19.82	61.7189
19.838	61.5965
19.856	61.4621
19.874	61.3167
19.892	61.1659
19.91	61.0094
19.928	60.8543
19.946	60.6997
19.964	60.5526
19.982	60.4133
20	60.286
20.018	60.1732
20.036	60.0762
20.054	59.9994
20.072	59.9421
20.09	59.9082
20.108	59.8969
20.126	59.9101
20.144	59.9481
20.162	60.0098
20.18	60.0959
20.198	60.204
20.216	60.3322
20.234	60.4799
20.252	60.6409
20.27	60.8166
20.288	60.9983
20.306	61.1866
20.324	61.3748
20.342	61.559
20.36	61.7377
20.378	61.9028
20.396	62.0558
20.414	62.1897
20.432	62.3049
20.45	62.3987
20.468	62.469
20.486	62.5171
20.504	62.5423
20.522	62.5452
20.54	62.5293
20.558	62.4937
20.576	62.4438
20.594	62.381
20.612	62.3076
20.63	62.2301
20.648	62.1473
20.666	62.0664
20.684	61.9869
20.702	61.9129
20.72	61.8477
20.738	61.7905
20.756	61.7445
20.774	61.7092
20.792	61.6848
20.81	61.6722
20.828	61.6696
20.846	61.6754
20.864	61.6899
20.882	61.709
20.9	61.7337
20.918	61.7602
20.936	61.7861
20.954	61.8115
20.972	61.8318
20.99	61.8478
21.008	61.8568
21.026	61.8571
21.044	61.8492
21.062	61.8314
21.08	61.8038
21.098	61.767
21.116	61.7206
21.134	61.6656
21.152	61.6038
21.17	61.5346
21.188	61.4615
21.206	61.3846
21.224	61.3057
21.242	61.228
21.26	61.1505
21.278	61.0778
21.296	61.0102
21.314	60.9488
21.332	60.8973
21.35	60.8544
21.368	60.8224
21.386	60.8021
21.404	60.7931
21.422	60.7957
21.44	60.8101
21.458	60.835
21.476	60.8703
21.494	60.9154
21.512	60.9673
21.53	61.0273
21.548	61.092
21.566	61.1596
21.584	61.2306
21.602	61.3006
21.62	61.3701
21.638	61.4372
21.656	61.4989
21.674	61.5564
21.692	61.607
21.71	61.6498
21.728	61.6853
21.746	61.7121
21.764	61.7305
21.782	61.7405
21.8	61.7421
21.818	61.7353
21.836	61.7211
21.854	61.6994
21.872	61.6708
21.89	61.6361
21.908	61.595
21.926	61.5486
21.944	61.4975
21.962	61.4414
21.98	61.3812
21.998	61.3167
22.016	61.2482
22.034	61.1759
22.052	61.0999
22.07	61.0202
22.088	60.9366
22.106	60.8494
22.124	60.7585
22.142	60.664
22.16	60.566
22.178	60.4653
22.196	60.3613
22.214	60.2552
22.232	60.1483
22.25	60.0397
22.268	59.9319
22.286	59.8256
22.304	59.7205
22.322	59.6197
22.34	59.5231
22.358	59.4314
22.376	59.3475
22.394	59.2706
22.412	59.202
22.43	59.1438
22.448	59.095
22.466	59.0573
22.484	59.032
22.502	59.0183
22.52	59.0176
22.538	59.0306
22.556	59.0569
22.574	59.0968
22.592	59.1506
22.61	59.2179
22.628	59.2979
22.646	59.3911
22.664	59.4966
22.682	59.613
22.7	59.7411
22.718	59.8793
22.736	60.0256
22.754	60.1813
22.772	60.3437
22.79	60.5109
22.808	60.6841
22.826	60.8601
22.844	61.0367
22.862	61.2154
22.88	61.3923
22.898	61.5656
22.916	61.7366
22.934	61.901
22.952	62.0576
22.97	62.2073
22.988	62.3464
23.006	62.4743
23.024	62.5914
23.042	62.6948
23.06	62.7841
23.078	62.8597
23.096	62.9198
23.114	62.9641
23.132	62.9932
23.15	63.0066
23.168	63.004
23.186	62.986
23.204	62.954
23.222	62.9072
23.24	62.8466
23.258	62.7752
23.276	62.6919
23.294	62.5981
23.312	62.4984
23.33	62.3916
23.348	62.2789
23.366	62.1659
23.384	62.0514
23.402	61.9364
23.42	61.8268
23.438	61.7222
23.456	61.6228
23.474	61.5331
23.492	61.4538
23.51	61.384
23.528	61.3271
23.546	61.2841
23.564	61.254
23.582	61.2372
23.6	61.2347
23.618	61.2459
23.636	61.2692
23.654	61.3046
23.672	61.3528
23.69	61.4096
23.708	61.4728
23.726	61.5449
23.744	61.6206
23.762	61.6958
23.78	61.774
23.798	61.85
23.816	61.9179
23.834	61.9811
23.852	62.0361
23.87	62.0768
23.888	62.1051
23.906	62.12
23.924	62.1168
23.942	62.0952
23.96	62.0561
23.978	61.9981
23.996	61.9197
24.014	61.822
24.032	61.7064
24.05	61.5732
24.068	61.4212
24.086	61.2546
24.104	61.0767
24.122	60.8844
24.14	60.6821
24.158	60.476
24.176	60.263
24.194	60.0456
24.212	59.8312
24.23	59.6202
24.248	59.411
24.266	59.2107
24.284	59.0234
24.302	58.845
24.32	58.6806
24.338	58.5349
24.356	58.4051
24.374	58.2929
24.392	58.202
24.41	58.1324
24.428	58.0831
24.446	58.0545
24.464	58.0474
24.482	58.0616
24.5	58.0946
24.518	58.1448
24.536	58.2148
24.554	58.3006
24.572	58.3972
24.59	58.507
24.608	58.6286
24.626	58.7554
24.644	58.8849
24.662	59.0207
24.68	59.1565
24.698	59.2865
24.716	59.415
24.734	59.5384
24.752	59.6505
24.77	59.7507
24.788	59.8409
24.806	59.9173
24.824	59.9771
24.842	60.0222
24.86	60.052
24.878	60.065
24.896	60.0602
24.914	60.0393
24.932	60.0043
24.95	59.9558
24.968	59.8918
24.986	59.817
25.004	59.7363
25.022	59.6462
25.04	59.5489
25.058	59.451
25.076	59.3546
25.094	59.2561
25.112	59.161
25.13	59.075
25.148	58.9956
25.166	58.9233
25.184	58.862
25.202	58.8136
25.22	58.7763
25.238	58.7506
25.256	58.7375
25.274	58.7384
25.292	58.7513
25.31	58.7732
25.328	58.803
25.346	58.8437
25.364	58.89
25.382	58.9359
25.4	58.9839
25.418	59.0338
25.436	59.0789
25.454	59.1141
25.472	59.1444
25.49	59.1662
25.508	59.1745
25.526	59.1681
25.544	59.1495
25.562	59.1163
25.58	59.0661
25.598	58.9986
25.616	58.9155
25.634	58.8182
25.652	58.7068
25.67	58.579
25.688	58.4395
25.706	58.294
25.724	58.1406
25.742	57.978
25.76	57.8143
25.778	57.6567
25.796	57.4984
25.814	57.3434
25.832	57.2016
25.85	57.079
25.868	56.968
25.886	56.8746
25.904	56.8071
25.922	56.768
25.94	56.7527
25.958	56.7642
25.976	56.8058
25.994	56.8787
26.012	56.9806
26.03	57.1088
26.048	57.2613
26.066	57.443
26.084	57.6489
26.102	57.8707
26.12	58.1041
26.138	58.3575
26.156	58.6217
26.174	58.8855
26.192	59.1464
26.21	59.4126
26.228	59.6726
26.246	59.9146
26.264	60.1392
26.282	60.3513
26.3	60.5424
26.318	60.7042
26.336	60.8386
26.354	60.9477
26.372	61.0284
26.39	61.0777
26.408	61.0944
26.426	61.0815
26.444	61.043
26.462	60.9813
26.48	60.8903
26.498	60.7758
26.516	60.6473
26.534	60.5104
26.552	60.3552
26.57	60.1901
26.588	60.0276
26.606	59.8747
26.624	59.7197
26.642	59.5719
26.66	59.4432
26.678	59.3403
26.696	59.2534
26.714	59.1885
26.732	59.1538
26.75	59.1537
26.768	59.1829
26.786	59.2426
26.804	59.3348
26.822	59.4621
26.84	59.6245
26.858	59.8173
26.876	60.0354
26.894	60.2786
26.912	60.5533
26.93	60.8493
26.948	61.1552
26.966	61.4799
26.984	61.8543
27.002	62.2176
27.02	62.5027
27.028	62.5785