File: Bakgrunnsmateriale/MATLAB/FTIR/ftir_data/subAa/Mapping_121/BZ1503107-1_t97_cm-1.asc
PE IR       SPECTRUM    SPECTRUM    ASCII       PEDS        1.60
  -1
BZ6FA5~1.ASC
17/04/07
21:13:43.00
17/04/07
21:13:43.00
tln
$BZ1503107-1_t0097$<tbV0>[-7.8,7.8,8.0,0.0,27,1,0]
370
64

2002,4.07
MIRTGS : RIGHTBACK : INTERNAL 2
MIR : ON : INTERNAL 2
OPTKBR

0.200000
8
8.000000
FILLER
RATIO
SPECTRUM
UNLOCKED 256

DOUBLE
64
COMBINED
1
0
0

1.000000
RATIO

1
0
TRUE
51149
0
LEFT NOT FITTED RIGHT NOT FITTED 0
NONE
NONE
15600
12
4.427000
51148
TRUE
1 0 8 72 0 0 0 0

15798

#HDR
-1
-1
#GR
CM-1
%T
2.38419e-05
0.0
5000
-1.000000
4631
8
71.0617
40.1491
#DATA
5000	63.5048
4996	63.2901
4992	62.7991
4988	62.851
4984	63.2047
4980	62.7651
4976	62.1933
4972	62.6475
4968	63.7419
4964	63.9961
4960	63.6252
4956	64.2499
4952	65.5024
4948	65.2585
4944	63.4679
4940	62.8396
4936	63.6238
4932	63.646
4928	63.4657
4924	63.9974
4920	64.4264
4916	64.7037
4912	64.8502
4908	64.7673
4904	64.0579
4900	63.3649
4896	63.7132
4892	64.1154
4888	63.9692
4884	64.0674
4880	64.4794
4876	64.4441
4872	63.8115
4868	63.1032
4864	63.0522
4860	63.5235
4856	63.6563
4852	63.283
4848	62.8868
4844	63.0715
4840	63.5131
4836	63.6731
4832	63.7383
4828	63.7274
4824	63.6615
4820	63.7311
4816	63.8932
4812	64.0324
4808	64.2523
4804	64.3853
4800	64.1958
4796	63.9912
4792	64.0234
4788	63.9908
4784	63.7714
4780	63.7479
4776	63.8878
4772	63.7903
4768	63.5756
4764	63.5871
4760	63.6517
4756	63.4464
4752	63.2365
4748	63.4361
4744	63.8243
4740	64.1248
4736	64.2335
4732	64.0625
4728	63.8487
4724	63.8048
4720	63.8624
4716	64.0088
4712	64.1589
4708	64.0307
4704	63.7196
4700	63.5849
4696	63.6584
4692	63.8646
4688	64.1062
4684	64.2235
4680	64.22
4676	64.1706
4672	64.2255
4668	64.3738
4664	64.4247
4660	64.3579
4656	64.2456
4652	64.0714
4648	63.8429
4644	63.7673
4640	63.895
4636	64.0548
4632	64.1648
4628	64.1302
4624	64.0861
4620	64.1519
4616	64.1866
4612	64.1479
4608	64.0608
4604	64.0976
4600	64.2687
4596	64.2595
4592	64.0429
4588	63.9006
4584	63.8212
4580	63.7613
4576	63.7861
4572	63.9463
4568	64.1534
4564	64.0678
4560	63.7585
4556	63.5637
4552	63.6976
4548	63.8582
4544	63.8416
4540	63.9981
4536	64.2376
4532	64.3956
4528	64.4238
4524	64.2971
4520	64.2251
4516	64.078
4512	63.7723
4508	63.5996
4504	63.5836
4500	63.4983
4496	63.4939
4492	63.5108
4488	63.3808
4484	63.2446
4480	63.2974
4476	63.4138
4472	63.4444
4468	63.1479
4464	62.9559
4460	63.7713
4456	65.1585
4452	64.7262
4448	57.7556
4444	52.9368
4440	64.0411
4436	70.6282
4432	68.9538
4428	67.1751
4424	65.9174
4420	64.97
4416	64.7037
4412	64.5282
4408	64.3797
4404	64.7126
4400	64.7093
4396	63.7914
4392	63.2511
4388	63.6866
4384	64.1674
4380	64.2552
4376	64.1841
4372	64.0902
4368	64.0712
4364	64.1262
4360	64.1311
4356	64.0804
4352	63.9908
4348	63.9306
4344	63.907
4340	63.9056
4336	63.9203
4332	63.9075
4328	63.9587
4324	64.0665
4320	64.0083
4316	63.7645
4312	63.6082
4308	63.6476
4304	63.7622
4300	63.8283
4296	63.8243
4292	63.9058
4288	64.0358
4284	64.0327
4280	63.9532
4276	63.8356
4272	63.7145
4268	63.6768
4264	63.7491
4260	63.9538
4256	64.2103
4252	64.2547
4248	64.0675
4244	64.0112
4240	64.0861
4236	64.0209
4232	63.9355
4228	63.8913
4224	63.7723
4220	63.7645
4216	63.9286
4212	63.9624
4208	63.8296
4204	63.7746
4200	63.8309
4196	63.857
4192	63.8868
4188	64.0216
4184	64.1761
4180	64.2617
4176	64.341
4172	64.4378
4168	64.3705
4164	64.1758
4160	64.0623
4156	64.047
4152	64.0268
4148	63.9129
4144	63.7936
4140	63.8278
4136	64.0612
4132	64.2099
4128	64.1495
4124	64.0972
4120	64.0611
4116	64.0586
4112	64.0884
4108	64.0308
4104	63.981
4100	64.0645
4096	64.1069
4092	64.0738
4088	64.1239
4084	64.1431
4080	64.0758
4076	64.08
4072	64.1683
4068	64.1728
4064	64.062
4060	63.9834
4056	63.9775
4052	63.9714
4048	63.9798
4044	64.0843
4040	64.194
4036	64.1674
4032	64.0744
4028	64.0174
4024	63.9926
4020	63.9917
4016	64.005
4012	63.9694
4008	63.8561
4004	63.8618
4000	64.0036
3996	64.0142
3992	63.9912
3988	64.031
3984	63.9634
3980	63.8634
3976	63.9354
3972	64.1817
3968	64.2712
3964	64.0341
3960	63.9171
3956	64.046
3952	64.0706
3948	64.0348
3944	64.122
3940	64.2491
3936	64.2302
3932	64.1701
3928	64.2596
3924	64.2448
3920	63.9947
3916	63.8166
3912	63.9128
3908	64.1839
3904	64.325
3900	64.2653
3896	64.2064
3892	64.0897
3888	63.8676
3884	63.7959
3880	63.9304
3876	64.0636
3872	64.2037
3868	64.2845
3864	64.1625
3860	64.0618
3856	64.0785
3852	64.0878
3848	64.1087
3844	64.1901
3840	64.2994
3836	64.3339
3832	64.2929
3828	64.2907
3824	64.2971
3820	64.2014
3816	64.1275
3812	64.1362
3808	63.9902
3804	63.7792
3800	63.778
3796	63.8731
3792	63.9328
3788	64.0046
3784	64.1099
3780	64.1881
3776	64.1886
3772	64.1829
3768	64.2253
3764	64.222
3760	64.1294
3756	64.1193
3752	64.2117
3748	64.1783
3744	64.0689
3740	64.0562
3736	64.1368
3732	64.2084
3728	64.1985
3724	64.1763
3720	64.1801
3716	64.2314
3712	64.2873
3708	64.2505
3704	64.1911
3700	64.1973
3696	64.2128
3692	64.1963
3688	64.2286
3684	64.3064
3680	64.3405
3676	64.3177
3672	64.2925
3668	64.2864
3664	64.2312
3660	64.1252
3656	64.0908
3652	64.1569
3648	64.2007
3644	64.1724
3640	64.1533
3636	64.1824
3632	64.1834
3628	64.1302
3624	64.0883
3620	64.0719
3616	64.1126
3612	64.2012
3608	64.264
3604	64.2931
3600	64.2966
3596	64.3096
3592	64.3084
3588	64.2554
3584	64.2208
3580	64.1526
3576	64.0788
3572	64.1602
3568	64.2501
3564	64.1635
3560	64.0091
3556	63.9322
3552	63.9185
3548	63.8887
3544	63.9143
3540	64.0508
3536	64.1513
3532	64.215
3528	64.2861
3524	64.2003
3520	63.9701
3516	63.8785
3512	64.0202
3508	64.1798
3504	64.2664
3500	64.3189
3496	64.2552
3492	64.1849
3488	64.3005
3484	64.4319
3480	64.3783
3476	64.3342
3472	64.3872
3468	64.3236
3464	64.155
3460	64.0512
3456	64.0494
3452	64.1125
3448	64.068
3444	63.9197
3440	63.9658
3436	64.1454
3432	64.185
3428	64.1403
3424	64.1549
3420	64.1446
3416	64.1241
3412	64.1912
3408	64.1968
3404	64.1098
3400	64.0286
3396	63.9672
3392	63.9948
3388	64.099
3384	64.1703
3380	64.1496
3376	64.0788
3372	64.0411
3368	64.0558
3364	64.1057
3360	64.0973
3356	64.0513
3352	64.0918
3348	64.1324
3344	64.1235
3340	64.1354
3336	64.1419
3332	64.1025
3328	64.0183
3324	63.9711
3320	64.0157
3316	64.0312
3312	64.0036
3308	64.0733
3304	64.156
3300	64.1696
3296	64.2121
3292	64.2318
3288	64.1653
3284	64.1048
3280	64.081
3276	64.0519
3272	63.9987
3268	63.9975
3264	64.0926
3260	64.1664
3256	64.2099
3252	64.2398
3248	64.1516
3244	64.0569
3240	64.0694
3236	64.0477
3232	64.0152
3228	64.0908
3224	64.1265
3220	64.0432
3216	63.9801
3212	63.9496
3208	63.9574
3204	64.0457
3200	64.1298
3196	64.1362
3192	64.0711
3188	64.0201
3184	64.0272
3180	64.0463
3176	64.043
3172	64.0355
3168	64.0046
3164	63.9434
3160	63.9433
3156	63.971
3152	63.978
3148	63.9862
3144	63.9788
3140	63.9792
3136	63.997
3132	63.9849
3128	64.0239
3124	64.0891
3120	64.0286
3116	64.003
3112	64.0874
3108	64.107
3104	64.0474
3100	64.0055
3096	63.999
3092	64.0094
3088	64.0094
3084	63.9552
3080	63.9385
3076	64.0152
3072	64.0495
3068	64.035
3064	64.0431
3060	64.0517
3056	64.0497
3052	64.0797
3048	64.1574
3044	64.1598
3040	64.0553
3036	63.9713
3032	63.9907
3028	64.0567
3024	64.0753
3020	64.0819
3016	64.1082
3012	64.0972
3008	64.0615
3004	64.0846
3000	64.1092
2996	64.047
2992	63.9606
2988	63.9252
2984	63.9671
2980	64.0136
2976	63.9767
2972	63.9076
2968	63.8498
2964	63.8144
2960	63.7938
2956	63.7686
2952	63.8035
2948	63.8895
2944	63.9392
2940	63.9259
2936	63.872
2932	63.8577
2928	63.9164
2924	63.9282
2920	63.8971
2916	63.8476
2912	63.7719
2908	63.8125
2904	63.9195
2900	63.9271
2896	63.9239
2892	63.9989
2888	64.0367
2884	63.9564
2880	63.8875
2876	63.875
2872	63.8448
2868	63.8326
2864	63.8468
2860	63.8742
2856	63.9082
2852	63.8861
2848	63.8722
2844	63.908
2840	63.9115
2836	63.9023
2832	63.9224
2828	63.9501
2824	63.9666
2820	63.9692
2816	63.9588
2812	63.9502
2808	63.9633
2804	63.9754
2800	63.9697
2796	63.9858
2792	64.0024
2788	64.0015
2784	64.0502
2780	64.1156
2776	64.109
2772	64.0662
2768	64.0747
2764	64.0989
2760	64.0879
2756	64.0705
2752	64.017
2748	63.9301
2744	63.8813
2740	63.8656
2736	63.8712
2732	63.9194
2728	64.0095
2724	64.084
2720	64.0523
2716	64.0031
2712	64.0274
2708	64.0259
2704	63.994
2700	64.0185
2696	64.0619
2692	64.0091
2688	63.9426
2684	63.9694
2680	63.9839
2676	63.9596
2672	63.9552
2668	63.9882
2664	64.0023
2660	63.9661
2656	63.9779
2652	64.0443
2648	64.0528
2644	63.9949
2640	63.9607
2636	63.9479
2632	63.929
2628	63.9251
2624	63.9305
2620	63.9273
2616	63.9334
2612	63.9411
2608	63.8999
2604	63.87
2600	63.9017
2596	63.9534
2592	63.9544
2588	63.89
2584	63.8989
2580	63.9642
2576	63.9629
2572	63.9354
2568	63.9038
2564	63.8362
2560	63.7772
2556	63.798
2552	63.8654
2548	63.8511
2544	63.7795
2540	63.8055
2536	63.8462
2532	63.8124
2528	63.7978
2524	63.8077
2520	63.8264
2516	63.8478
2512	63.8363
2508	63.7977
2504	63.8063
2500	63.8842
2496	63.9298
2492	63.9257
2488	63.9108
2484	63.8599
2480	63.7881
2476	63.7819
2472	63.8234
2468	63.8376
2464	63.8396
2460	63.8318
2456	63.8237
2452	63.8123
2448	63.8001
2444	63.8098
2440	63.821
2436	63.8177
2432	63.8044
2428	63.8063
2424	63.8089
2420	63.8203
2416	63.8297
2412	63.792
2408	63.7413
2404	63.7293
2400	63.7746
2396	63.8183
2392	63.7792
2388	63.7609
2384	63.8622
2380	63.8711
2376	63.7275
2372	63.6857
2368	63.7792
2364	63.8488
2360	63.8728
2356	63.9013
2352	63.8811
2348	63.792
2344	63.6913
2340	63.6289
2336	63.6545
2332	63.7136
2328	63.7643
2324	63.8296
2320	63.8188
2316	63.7093
2312	63.6571
2308	63.6972
2304	63.7476
2300	63.8018
2296	63.8399
2292	63.8315
2288	63.7981
2284	63.7676
2280	63.748
2276	63.7437
2272	63.7558
2268	63.7404
2264	63.722
2260	63.7703
2256	63.8519
2252	63.9107
2248	63.9125
2244	63.8369
2240	63.7594
2236	63.7202
2232	63.6864
2228	63.6667
2224	63.639
2220	63.6308
2216	63.6794
2212	63.717
2208	63.71
2204	63.704
2200	63.6946
2196	63.6553
2192	63.615
2188	63.5886
2184	63.6253
2180	63.725
2176	63.754
2172	63.7183
2168	63.725
2164	63.7165
2160	63.6467
2156	63.604
2152	63.6142
2148	63.6201
2144	63.6456
2140	63.7041
2136	63.7042
2132	63.6392
2128	63.6082
2124	63.6226
2120	63.6227
2116	63.6103
2112	63.607
2108	63.6222
2104	63.6622
2100	63.7136
2096	63.7584
2092	63.7328
2088	63.6343
2084	63.5416
2080	63.4774
2076	63.4878
2072	63.5291
2068	63.5556
2064	63.6284
2060	63.6976
2056	63.7428
2052	63.7567
2048	63.6897
2044	63.608
2040	63.5696
2036	63.5359
2032	63.4808
2028	63.457
2024	63.519
2020	63.5975
2016	63.5928
2012	63.5438
2008	63.5296
2004	63.5508
2000	63.5753
1996	63.5858
1992	63.5892
1988	63.5804
1984	63.5534
1980	63.5451
1976	63.5528
1972	63.5262
1968	63.4835
1964	63.4994
1960	63.5444
1956	63.5451
1952	63.5169
1948	63.4694
1944	63.4429
1940	63.5142
1936	63.5775
1932	63.5011
1928	63.4053
1924	63.416
1920	63.4527
1916	63.4473
1912	63.4558
1908	63.4774
1904	63.4599
1900	63.4408
1896	63.4748
1892	63.5248
1888	63.5144
1884	63.4602
1880	63.4219
1876	63.4083
1872	63.4332
1868	63.4691
1864	63.4679
1860	63.4795
1856	63.5099
1852	63.4767
1848	63.3964
1844	63.3528
1840	63.4017
1836	63.4935
1832	63.5029
1828	63.4583
1824	63.4656
1820	63.4876
1816	63.4451
1812	63.4263
1808	63.4673
1804	63.4391
1800	63.3812
1796	63.3851
1792	63.398
1788	63.3866
1784	63.3716
1780	63.3665
1776	63.3578
1772	63.3491
1768	63.333
1764	63.2905
1760	63.2511
1756	63.2082
1752	63.1456
1748	63.0867
1744	63.0276
1740	62.9611
1736	62.906
1732	62.9288
1728	63.0295
1724	63.0845
1720	63.0796
1716	63.0947
1712	63.1535
1708	63.2095
1704	63.1937
1700	63.1427
1696	63.157
1692	63.1967
1688	63.1619
1684	63.1269
1680	63.1249
1676	63.1012
1672	63.0887
1668	63.109
1664	63.1761
1660	63.2456
1656	63.2502
1652	63.2679
1648	63.3157
1644	63.2769
1640	63.2105
1636	63.2069
1632	63.1803
1628	63.1513
1624	63.1844
1620	63.2
1616	63.1647
1612	63.152
1608	63.1705
1604	63.1793
1600	63.194
1596	63.2203
1592	63.2558
1588	63.2683
1584	63.2154
1580	63.147
1576	63.1215
1572	63.1562
1568	63.2169
1564	63.2267
1560	63.2159
1556	63.21
1552	63.1608
1548	63.1237
1544	63.1201
1540	63.075
1536	63.0078
1532	63.0158
1528	63.1007
1524	63.1469
1520	63.1327
1516	63.1262
1512	63.1197
1508	63.0929
1504	63.0427
1500	63.0329
1496	63.0994
1492	63.1053
1488	63.0321
1484	62.9931
1480	63.0022
1476	63.0273
1472	63.0297
1468	62.9509
1464	62.8382
1460	62.8433
1456	62.9224
1452	62.9291
1448	62.884
1444	62.8824
1440	62.9617
1436	63.0436
1432	63.0019
1428	62.9192
1424	62.9308
1420	62.9589
1416	62.9334
1412	62.8933
1408	62.8947
1404	62.9305
1400	62.925
1396	62.9143
1392	62.9301
1388	62.9342
1384	62.9398
1380	62.9282
1376	62.863
1372	62.8109
1368	62.8425
1364	62.87
1360	62.8478
1356	62.8411
1352	62.8792
1348	62.9104
1344	62.8832
1340	62.8435
1336	62.8255
1332	62.8661
1328	62.916
1324	62.9047
1320	62.8946
1316	62.9088
1312	62.9311
1308	62.9159
1304	62.8441
1300	62.7713
1296	62.7226
1292	62.7202
1288	62.7153
1284	62.6677
1280	62.6377
1276	62.6328
1272	62.6408
1268	62.6483
1264	62.6683
1260	62.7222
1256	62.7648
1252	62.797
1248	62.8301
1244	62.8134
1240	62.7509
1236	62.693
1232	62.6759
1228	62.7332
1224	62.8317
1220	62.8609
1216	62.8022
1212	62.7454
1208	62.7312
1204	62.7104
1200	62.6863
1196	62.7021
1192	62.7119
1188	62.6903
1184	62.6664
1180	62.6595
1176	62.6697
1172	62.6625
1168	62.597
1164	62.519
1160	62.5308
1156	62.6065
1152	62.6518
1148	62.6877
1144	62.7054
1140	62.6812
1136	62.6582
1132	62.6139
1128	62.5839
1124	62.6074
1120	62.6035
1116	62.5932
1112	62.596
1108	62.5591
1104	62.6122
1100	62.7761
1096	62.8139
1092	62.6745
1088	62.5343
1084	62.4425
1080	62.3578
1076	62.3649
1072	62.4622
1068	62.5252
1064	62.5612
1060	62.5774
1056	62.5307
1052	62.489
1048	62.4836
1044	62.4784
1040	62.5444
1036	62.6335
1032	62.6117
1028	62.535
1024	62.5108
1020	62.526
1016	62.489
1012	62.4424
1008	62.4573
1004	62.487
1000	62.4696
996	 62.4033
992	 62.4351
988	 62.5849
984	 62.7227
980	 62.799
976	 62.7713
972	 62.6939
968	 62.6348
964	 62.595
960	 62.5804
956	 62.5256
952	 62.4035
948	 62.3774
944	 62.5033
940	 62.5851
936	 62.545
932	 62.5458
928	 62.6399
924	 62.6655
920	 62.6011
916	 62.5332
912	 62.5043
908	 62.5586
904	 62.5804
900	 62.5242
896	 62.477
892	 62.4178
888	 62.3724
884	 62.3719
880	 62.3828
876	 62.4502
872	 62.5159
868	 62.5362
864	 62.6138
860	 62.6508
856	 62.6144
852	 62.5372
848	 62.3905
844	 62.3522
840	 62.4254
836	 62.4629
832	 62.5003
828	 62.5288
824	 62.5012
820	 62.4826
816	 62.5426
812	 62.6041
808	 62.568
804	 62.4501
800	 62.418
796	 62.5793
792	 62.7517
788	 62.7057
784	 62.4467
780	 62.2417
776	 62.2462
772	 62.3159
768	 62.3049
764	 62.2576
760	 62.2953
756	 62.39
752	 62.4632
748	 62.5118
744	 62.4511
740	 62.3046
736	 62.2613
732	 62.2888
728	 62.2599
724	 62.1973
720	 62.2078
716	 62.245
712	 62.2093
708	 62.16
704	 62.2161
700	 62.2651
696	 62.1333
692	 62.0087
688	 62.0397
684	 62.0836
680	 61.9981
676	 61.9059
672	 61.9555
668	 62.0248
664	 61.9926
660	 61.9945
656	 62.0515
652	 61.9794
648	 61.9442
644	 62.0404
640	 62.0528
636	 61.9723
632	 61.9574
628	 61.9608
624	 61.8199
620	 61.7158
616	 61.757
612	 61.8967
608	 62.1703
604	 62.2987
600	 62.276
596	 62.2307
592	 62.0299
588	 61.8257
584	 61.6479
580	 61.492
576	 61.4992
572	 61.6706
568	 61.9537
564	 62.2192
560	 62.4591
556	 62.5927
552	 62.205
548	 61.6595
544	 61.6806
540	 62.0575
536	 62.6403
532	 63.0533
528	 62.6669
524	 62.0741
520	 61.7878
516	 61.5122
512	 61.7212
508	 62.6469
504	 62.6473
500	 61.2114
496	 60.2033
492	 60.8691
488	 61.9775
484	 61.7846
480	 61.6914
476	 62.665
472	 62.5881
468	 61.203
464	 60.6574
460	 61.2057
456	 61.6292
452	 61.4805
448	 60.9422
444	 60.6875
440	 60.5583
436	 60.7607
432	 60.992
428	 60.592
424	 61.488
420	 64.6236
416	 67.7633
412	 68.3085
408	 66.1409
404	 64.378
400	 64.21
396	 62.7347
392	 61.6563
388	 63.0678
384	 67.209
380	 71.0617
376	 64.2595
372	 47.3831
370	 40.1491