File: Bakgrunnsmateriale/MATLAB/FTIR/ftir_data/subAa/Mapping_121/BZ1503107-1_t07_cm-1.asc
PE IR       SPECTRUM    SPECTRUM    ASCII       PEDS        1.60
  -1
BZ6F22~1.ASC
17/04/07
13:48:11.00
17/04/07
13:48:11.00
tln
$BZ1503107-1_t0007$<tbV0>[-2.6,-13.0,8.0,0.0,27,1,0]
370
64

2002,4.07
MIRTGS : RIGHTBACK : INTERNAL 2
MIR : ON : INTERNAL 2
OPTKBR

0.200000
8
8.000000
FILLER
RATIO
SPECTRUM
UNLOCKED 256

DOUBLE
64
COMBINED
1
0
0

1.000000
RATIO

1
0
TRUE
51149
0
LEFT NOT FITTED RIGHT NOT FITTED 0
NONE
NONE
15600
12
4.427000
51148
TRUE
1 0 8 72 0 0 0 0

15798

#HDR
-1
-1
#GR
CM-1
%T
2.38419e-05
0.0
5000
-1.000000
4631
8
80.3834
47.9481
#DATA
5000	64.4937
4996	64.5528
4992	64.8808
4988	64.9597
4984	64.7114
4980	64.2311
4976	63.9413
4972	64.1909
4968	64.4324
4964	64.4812
4960	64.3181
4956	63.9224
4952	64.3665
4948	65.7306
4944	65.983
4940	64.9106
4936	63.9696
4932	63.4789
4928	63.875
4924	65.0939
4920	65.3401
4916	64.0197
4912	63.4129
4908	64.3018
4904	65.1226
4900	65.5907
4896	65.7197
4892	65.0823
4888	64.5775
4884	64.962
4880	65.128
4876	64.6668
4872	64.0021
4868	63.7538
4864	64.3921
4860	64.7364
4856	64.413
4852	64.396
4848	64.6722
4844	64.5911
4840	64.4852
4836	64.5807
4832	64.4425
4828	64.5858
4824	64.8053
4820	64.5236
4816	64.6399
4812	64.831
4808	64.5835
4804	65.0392
4800	65.6669
4796	65.4144
4792	65.0592
4788	64.9417
4784	64.671
4780	64.3564
4776	64.4494
4772	64.5263
4768	64.1038
4764	64.2655
4760	65.0864
4756	65.0622
4752	64.4688
4748	64.3732
4744	64.639
4740	64.6838
4736	64.4882
4732	64.521
4728	64.532
4724	64.131
4720	63.7874
4716	64.0857
4712	64.5777
4708	64.5501
4704	64.4374
4700	64.7035
4696	64.9465
4692	64.9015
4688	64.7652
4684	64.6898
4680	64.8137
4676	64.996
4672	64.8755
4668	64.6587
4664	64.6606
4660	64.7544
4656	64.6621
4652	64.4238
4648	64.4823
4644	64.7749
4640	64.8034
4636	64.548
4632	64.4159
4628	64.5199
4624	64.5916
4620	64.6176
4616	64.562
4612	64.4057
4608	64.3541
4604	64.4567
4600	64.5556
4596	64.5337
4592	64.6483
4588	64.8923
4584	64.8153
4580	64.4251
4576	64.2366
4572	64.2684
4568	64.3734
4564	64.63
4560	64.8395
4556	64.7394
4552	64.4414
4548	64.3213
4544	64.369
4540	64.3724
4536	64.4118
4532	64.4359
4528	64.4141
4524	64.4455
4520	64.6512
4516	64.8648
4512	64.9695
4508	64.9943
4504	65.1126
4500	65.4401
4496	66.2444
4492	67.7407
4488	68.0189
4484	68.2458
4480	68.5625
4476	66.3213
4472	64.1776
4468	63.3889
4464	62.3906
4460	61.9308
4456	59.9856
4452	51.2795
4448	49.3311
4444	64.61
4440	72.9539
4436	67.9744
4432	65.4568
4428	65.3966
4424	64.8384
4420	64.6523
4416	64.582
4412	64.419
4408	64.6506
4404	64.8669
4400	64.785
4396	64.8115
4392	64.8057
4388	64.6635
4384	64.6543
4380	64.7027
4376	64.5108
4372	64.52
4368	64.8576
4364	64.9984
4360	64.8711
4356	64.7017
4352	64.6204
4348	64.7065
4344	64.8884
4340	64.8976
4336	64.8396
4332	64.9221
4328	64.8924
4324	64.6864
4320	64.5159
4316	64.5625
4312	64.7195
4308	64.8111
4304	64.8792
4300	64.9004
4296	64.8928
4292	64.8914
4288	64.8292
4284	64.7398
4280	64.7973
4276	64.9903
4272	65.0737
4268	64.9848
4264	64.8345
4260	64.672
4256	64.499
4252	64.4534
4248	64.5681
4244	64.6571
4240	64.643
4236	64.6823
4232	64.7876
4228	64.6627
4224	64.5281
4220	64.7412
4216	64.857
4212	64.8105
4208	64.9502
4204	65.0479
4200	64.9186
4196	64.7513
4192	64.7742
4188	64.8939
4184	64.8995
4180	64.8134
4176	64.7477
4172	64.7175
4168	64.7071
4164	64.7698
4160	64.866
4156	64.8223
4152	64.6398
4148	64.537
4144	64.643
4140	64.8082
4136	64.8258
4132	64.7741
4128	64.7503
4124	64.7207
4120	64.793
4116	65.0249
4112	65.2279
4108	65.2073
4104	65.0358
4100	64.8789
4096	64.8284
4092	64.9908
4088	65.1553
4084	65.1278
4080	65.1243
4076	65.1706
4072	65.0982
4068	64.9647
4064	64.9391
4060	64.9876
4056	65.0553
4052	65.0731
4048	64.8757
4044	64.6764
4040	64.7222
4036	64.9131
4032	65.0128
4028	64.9042
4024	64.8129
4020	64.8818
4016	64.8964
4012	64.8225
4008	64.8602
4004	64.912
4000	64.9273
3996	64.9998
3992	64.992
3988	64.8056
3984	64.6473
3980	64.6623
3976	64.7726
3972	64.9724
3968	65.1025
3964	65.022
3960	64.9657
3956	65.1061
3952	65.2332
3948	65.1743
3944	65.1307
3940	65.1965
3936	65.1027
3932	64.8489
3928	64.753
3924	64.8045
3920	64.8862
3916	64.9717
3912	64.9706
3908	64.8908
3904	64.7766
3900	64.7664
3896	64.881
3892	64.9074
3888	64.933
3884	65.0157
3880	64.9905
3876	64.9207
3872	64.8768
3868	64.8834
3864	64.889
3860	64.8891
3856	65.0128
3852	65.0561
3848	64.9412
3844	64.8759
3840	64.8679
3836	64.9061
3832	64.9498
3828	64.9708
3824	64.9606
3820	64.8811
3816	64.8699
3812	64.963
3808	65.0531
3804	65.1759
3800	65.1981
3796	65.0976
3792	65.0431
3788	64.9934
3784	64.9641
3780	64.9433
3776	64.8425
3772	64.7409
3768	64.7389
3764	64.8309
3760	64.9354
3756	65.0122
3752	65.0905
3748	65.1439
3744	65.1457
3740	65.1227
3736	65.0954
3732	65.0141
3728	64.9256
3724	64.937
3720	64.9543
3716	64.9084
3712	64.9083
3708	65.0019
3704	65.09
3700	65.1076
3696	65.0799
3692	65.0491
3688	65.0853
3684	65.1312
3680	65.1783
3676	65.296
3672	65.2705
3668	65.0599
3664	64.9514
3660	64.9888
3656	64.9974
3652	65.0134
3648	65.0725
3644	65.1223
3640	65.2121
3636	65.2485
3632	65.2388
3628	65.2937
3624	65.2457
3620	65.067
3616	65.0375
3612	65.1638
3608	65.2072
3604	65.1707
3600	65.1231
3596	65.007
3592	64.893
3588	64.8783
3584	64.9034
3580	64.8549
3576	64.8335
3572	64.9513
3568	65.0057
3564	64.9553
3560	64.9763
3556	65.0037
3552	64.9479
3548	64.9626
3544	65.045
3540	65.0452
3536	64.997
3532	64.9778
3528	64.9335
3524	64.8155
3520	64.781
3516	64.8782
3512	64.9812
3508	65.036
3504	65.0293
3500	64.9703
3496	64.9147
3492	64.8992
3488	64.9183
3484	64.9359
3480	64.9438
3476	64.9324
3472	64.8724
3468	64.8532
3464	64.8804
3460	64.8621
3456	64.8829
3452	64.9189
3448	64.8657
3444	64.8437
3440	64.8646
3436	64.871
3432	64.9192
3428	64.9484
3424	64.8927
3420	64.8318
3416	64.8517
3412	64.9422
3408	65.0438
3404	65.0598
3400	64.9406
3396	64.8082
3392	64.8268
3388	64.9655
3384	65.0314
3380	65.0115
3376	65.0112
3372	65.0333
3368	65.0579
3364	65.0442
3360	65.0021
3356	65.0153
3352	65.0801
3348	65.0701
3344	64.9709
3340	64.9676
3336	65.11
3332	65.1872
3328	65.0762
3324	64.9601
3320	64.9806
3316	64.9969
3312	64.969
3308	64.9827
3304	65.0257
3300	65.0242
3296	64.9704
3292	64.9932
3288	65.0473
3284	65.0154
3280	64.9779
3276	64.9735
3272	64.9312
3268	64.8612
3264	64.8685
3260	64.9576
3256	65.0646
3252	65.0589
3248	64.8996
3244	64.7601
3240	64.7132
3236	64.7569
3232	64.8108
3228	64.8029
3224	64.8376
3220	64.9384
3216	65.0174
3212	65.0268
3208	64.9958
3204	64.9612
3200	64.9563
3196	64.9785
3192	64.9444
3188	64.8597
3184	64.8552
3180	64.9034
3176	64.9404
3172	64.9984
3168	64.9701
3164	64.9039
3160	64.9413
3156	64.9748
3152	64.9598
3148	64.9328
3144	64.8466
3140	64.7916
3136	64.8629
3132	64.9234
3128	64.9268
3124	64.9585
3120	64.9422
3116	64.861
3112	64.8603
3108	64.9311
3104	64.9899
3100	65.006
3096	64.9878
3092	64.9699
3088	64.9095
3084	64.8583
3080	64.9003
3076	64.973
3072	65.0094
3068	64.9866
3064	64.9314
3060	64.859
3056	64.7865
3052	64.7644
3048	64.7928
3044	64.8656
3040	64.9925
3036	65.0742
3032	65.0157
3028	64.9443
3024	64.9667
3020	64.993
3016	64.98
3012	64.9717
3008	65.0154
3004	65.077
3000	65.0267
2996	64.8961
2992	64.8368
2988	64.8474
2984	64.8751
2980	64.8916
2976	64.8868
2972	64.9391
2968	64.9422
2964	64.8009
2960	64.7379
2956	64.8215
2952	64.8756
2948	64.9175
2944	65.0092
2940	64.9682
2936	64.7913
2932	64.6926
2928	64.6923
2924	64.6794
2920	64.6866
2916	64.7658
2912	64.8363
2908	64.8818
2904	64.8899
2900	64.8474
2896	64.7928
2892	64.779
2888	64.8169
2884	64.8633
2880	64.9122
2876	64.917
2872	64.8757
2868	64.8477
2864	64.874
2860	64.9587
2856	64.9721
2852	64.881
2848	64.8387
2844	64.9007
2840	64.9699
2836	64.942
2832	64.8856
2828	64.8876
2824	64.8463
2820	64.8024
2816	64.8167
2812	64.7922
2808	64.7733
2804	64.8426
2800	64.9456
2796	64.9706
2792	64.9316
2788	64.919
2784	64.933
2780	64.9225
2776	64.8638
2772	64.8293
2768	64.8778
2764	64.9216
2760	64.9002
2756	64.8726
2752	64.8798
2748	64.8705
2744	64.8195
2740	64.8645
2736	64.9614
2732	64.9214
2728	64.8646
2724	64.8941
2720	64.8997
2716	64.8751
2712	64.8496
2708	64.8574
2704	64.9397
2700	64.96
2696	64.8906
2692	64.8353
2688	64.8049
2684	64.8041
2680	64.8155
2676	64.8109
2672	64.7901
2668	64.7634
2664	64.7412
2660	64.7628
2656	64.8551
2652	64.9234
2648	64.9136
2644	64.8943
2640	64.9025
2636	64.9221
2632	64.9158
2628	64.879
2624	64.8709
2620	64.883
2616	64.8739
2612	64.8756
2608	64.8623
2604	64.8097
2600	64.8024
2596	64.8946
2592	64.9911
2588	64.979
2584	64.8969
2580	64.8428
2576	64.8924
2572	64.9663
2568	64.933
2564	64.8647
2560	64.8479
2556	64.8834
2552	64.9339
2548	64.9394
2544	64.953
2540	65.019
2536	65.0686
2532	65.0372
2528	64.921
2524	64.8265
2520	64.8427
2516	64.9094
2512	64.9554
2508	64.9514
2504	64.9208
2500	64.8854
2496	64.8377
2492	64.8668
2488	64.9683
2484	65.0097
2480	64.9808
2476	64.9474
2472	64.9288
2468	64.946
2464	64.9865
2460	64.9754
2456	64.9559
2452	64.9485
2448	64.8909
2444	64.8139
2440	64.7883
2436	64.8449
2432	64.9038
2428	64.897
2424	64.8589
2420	64.777
2416	64.7079
2412	64.7431
2408	64.7869
2404	64.8378
2400	64.9232
2396	64.9446
2392	64.9193
2388	64.8588
2384	64.8168
2380	64.8355
2376	64.8423
2372	64.8437
2368	64.8252
2364	64.8011
2360	64.8118
2356	64.8318
2352	64.8549
2348	64.8597
2344	64.8477
2340	64.8421
2336	64.8515
2332	64.8908
2328	64.9033
2324	64.8324
2320	64.7879
2316	64.8231
2312	64.8418
2308	64.8284
2304	64.8197
2300	64.8186
2296	64.8149
2292	64.8023
2288	64.7845
2284	64.7671
2280	64.8059
2276	64.8721
2272	64.8846
2268	64.8782
2264	64.8605
2260	64.8381
2256	64.8491
2252	64.8857
2248	64.905
2244	64.8925
2240	64.8764
2236	64.8766
2232	64.9007
2228	64.8967
2224	64.8578
2220	64.8776
2216	64.889
2212	64.8318
2208	64.8401
2204	64.8727
2200	64.8504
2196	64.8443
2192	64.8345
2188	64.8142
2184	64.8263
2180	64.812
2176	64.7854
2172	64.8279
2168	64.8581
2164	64.8111
2160	64.728
2156	64.6348
2152	64.5751
2148	64.6174
2144	64.6928
2140	64.6743
2136	64.6569
2132	64.7241
2128	64.8126
2124	64.8904
2120	64.9327
2116	64.9232
2112	64.8934
2108	64.8357
2104	64.7897
2100	64.8113
2096	64.8547
2092	64.9023
2088	64.8933
2084	64.8149
2080	64.7824
2076	64.7869
2072	64.7921
2068	64.7932
2064	64.7757
2060	64.763
2056	64.7655
2052	64.7729
2048	64.7928
2044	64.8193
2040	64.8223
2036	64.7992
2032	64.7636
2028	64.7535
2024	64.7665
2020	64.7396
2016	64.7347
2012	64.7884
2008	64.7921
2004	64.7772
2000	64.7732
1996	64.7356
1992	64.7005
1988	64.6968
1984	64.7301
1980	64.7683
1976	64.8002
1972	64.8393
1968	64.8355
1964	64.7719
1960	64.7149
1956	64.717
1952	64.7254
1948	64.7094
1944	64.7074
1940	64.6932
1936	64.687
1932	64.723
1928	64.7286
1924	64.6591
1920	64.6148
1916	64.6767
1912	64.7377
1908	64.7484
1904	64.7848
1900	64.7967
1896	64.7847
1892	64.8097
1888	64.802
1884	64.7638
1880	64.7495
1876	64.7327
1872	64.7026
1868	64.6941
1864	64.695
1860	64.6817
1856	64.7091
1852	64.7918
1848	64.865
1844	64.8695
1840	64.8076
1836	64.7243
1832	64.6452
1828	64.5971
1824	64.5992
1820	64.6799
1816	64.7894
1812	64.8034
1808	64.7455
1804	64.7228
1800	64.7524
1796	64.767
1792	64.735
1788	64.7194
1784	64.7367
1780	64.7183
1776	64.6841
1772	64.7128
1768	64.7648
1764	64.7829
1760	64.7533
1756	64.6922
1752	64.6285
1748	64.5551
1744	64.5123
1740	64.5415
1736	64.5541
1732	64.4761
1728	64.4369
1724	64.5239
1720	64.6217
1716	64.6138
1712	64.578
1708	64.6124
1704	64.6781
1700	64.7405
1696	64.7155
1692	64.6346
1688	64.6327
1684	64.6483
1680	64.6484
1676	64.6733
1672	64.6428
1668	64.5743
1664	64.5816
1660	64.6694
1656	64.7661
1652	64.7571
1648	64.6697
1644	64.6176
1640	64.6017
1636	64.617
1632	64.6446
1628	64.6565
1624	64.6838
1620	64.7177
1616	64.6812
1612	64.6243
1608	64.6476
1604	64.6741
1600	64.6378
1596	64.6293
1592	64.6718
1588	64.6513
1584	64.5984
1580	64.5904
1576	64.5823
1572	64.5586
1568	64.5039
1564	64.4913
1560	64.5952
1556	64.6948
1552	64.6878
1548	64.6271
1544	64.6361
1540	64.6045
1536	64.4651
1532	64.4198
1528	64.5074
1524	64.6276
1520	64.6713
1516	64.6136
1512	64.5527
1508	64.5449
1504	64.5908
1500	64.6732
1496	64.7534
1492	64.7341
1488	64.6253
1484	64.5487
1480	64.5816
1476	64.6796
1472	64.6799
1468	64.5919
1464	64.5703
1460	64.6312
1456	64.6577
1452	64.5835
1448	64.4965
1444	64.5075
1440	64.577
1436	64.5941
1432	64.5693
1428	64.545
1424	64.5321
1420	64.5058
1416	64.42
1412	64.3706
1408	64.4374
1404	64.5281
1400	64.51
1396	64.4005
1392	64.3345
1388	64.3558
1384	64.4207
1380	64.4388
1376	64.3637
1372	64.3095
1368	64.372
1364	64.4215
1360	64.369
1356	64.3428
1352	64.3719
1348	64.3987
1344	64.433
1340	64.4168
1336	64.355
1332	64.3873
1328	64.4588
1324	64.4397
1320	64.3618
1316	64.2849
1312	64.2644
1308	64.2577
1304	64.2262
1300	64.2167
1296	64.2273
1292	64.2697
1288	64.3195
1284	64.3253
1280	64.2988
1276	64.2738
1272	64.2542
1268	64.2265
1264	64.2195
1260	64.2334
1256	64.2708
1252	64.3248
1248	64.3055
1244	64.2446
1240	64.2584
1236	64.286
1232	64.2336
1228	64.1912
1224	64.1903
1220	64.2004
1216	64.2599
1212	64.2739
1208	64.2194
1204	64.2347
1200	64.3112
1196	64.3467
1192	64.3376
1188	64.3439
1184	64.2867
1180	64.1217
1176	64.0322
1172	64.063
1168	64.0926
1164	64.1249
1160	64.1961
1156	64.2228
1152	64.1498
1148	64.1187
1144	64.2008
1140	64.275
1136	64.2709
1132	64.2255
1128	64.1785
1124	64.1824
1120	64.2163
1116	64.265
1112	64.3403
1108	64.348
1104	64.262
1100	64.164
1096	64.1992
1092	64.3184
1088	64.2962
1084	64.2742
1080	64.3381
1076	64.2743
1072	64.114
1068	64.0378
1064	64.1116
1060	64.2083
1056	64.2125
1052	64.1744
1048	64.1794
1044	64.1697
1040	64.1122
1036	64.1263
1032	64.1807
1028	64.1921
1024	64.1356
1020	64.0388
1016	64.0731
1012	64.1983
1008	64.202
1004	64.1936
1000	64.3013
996	 64.4017
992	 64.3791
988	 64.295
984	 64.2711
980	 64.2435
976	 64.1961
972	 64.2355
968	 64.3168
964	 64.3252
960	 64.2251
956	 64.1235
952	 64.1553
948	 64.2374
944	 64.2547
940	 64.2736
936	 64.2735
932	 64.2068
928	 64.1387
924	 64.0763
920	 64.0244
916	 64.0584
912	 64.1713
908	 64.1796
904	 64.0949
900	 64.122
896	 64.1894
892	 64.1265
888	 64.0407
884	 64.1112
880	 64.2226
876	 64.1897
872	 64.1303
868	 64.1812
864	 64.2348
860	 64.2141
856	 64.1941
852	 64.2173
848	 64.2744
844	 64.305
840	 64.1981
836	 63.9985
832	 63.8844
828	 63.913
824	 63.9937
820	 64.0925
816	 64.1343
812	 64.0517
808	 63.9705
804	 63.9591
800	 64.0217
796	 64.1014
792	 64.1013
788	 64.0859
784	 64.1292
780	 64.1715
776	 64.1078
772	 63.9809
768	 63.937
764	 63.9826
760	 64.0603
756	 64.169
752	 64.3187
748	 64.4208
744	 64.3815
740	 64.2805
736	 64.1958
732	 64.1746
728	 64.221
724	 64.099
720	 63.8689
716	 63.8415
712	 63.9642
708	 64.0939
704	 64.1473
700	 64.1347
696	 64.1128
692	 64.1642
688	 64.3311
684	 64.3242
680	 64.0379
676	 63.9019
672	 64.0813
668	 64.2277
664	 64.2478
660	 64.2354
656	 64.1539
652	 64.052
648	 63.9729
644	 63.9591
640	 63.9561
636	 63.8619
632	 63.776
628	 63.7485
624	 63.7807
620	 63.912
616	 64.0776
612	 64.0532
608	 63.8113
604	 63.6574
600	 63.6554
596	 63.7321
592	 63.9477
588	 64.131
584	 64.0663
580	 63.9386
576	 64.0056
572	 63.9802
568	 63.885
564	 64.1941
560	 64.4828
556	 64.3983
552	 64.1434
548	 64.0399
544	 64.2367
540	 64.3106
536	 64.1866
532	 64.1045
528	 63.8731
524	 63.5148
520	 63.9807
516	 65.3389
512	 65.6772
508	 64.6999
504	 64.1668
500	 63.9323
496	 63.6011
492	 63.5509
488	 63.3012
484	 63.1468
480	 63.3388
476	 64.1867
472	 65.4207
468	 64.9353
464	 63.7914
460	 63.8333
456	 63.3861
452	 63.2291
448	 64.2305
444	 63.9777
440	 62.8478
436	 62.5975
432	 64.0542
428	 66.1046
424	 65.5305
420	 61.7944
416	 59.1485
412	 62.1514
408	 67.1206
404	 66.5908
400	 62.0247
396	 59.4946
392	 59.8036
388	 58.1638
384	 57.7615
380	 61.8876
376	 80.3834
372	 64.5091
370	 78.1386