File: Bakgrunnsmateriale/MATLAB/FTIR/ftir_data/subAa/Mapping_121/BZ1503107-1_t39_cm-1.asc
PE IR       SPECTRUM    SPECTRUM    ASCII       PEDS        1.60
  -1
BZ61B0~1.ASC
17/04/07
16:24:22.00
17/04/07
16:24:22.00
tln
$BZ1503107-1_t0039$<tbV0>[0.0,-5.2,8.0,0.0,27,1,0]
370
64

2002,4.07
MIRTGS : RIGHTBACK : INTERNAL 2
MIR : ON : INTERNAL 2
OPTKBR

0.200000
8
8.000000
FILLER
RATIO
SPECTRUM
UNLOCKED 256

DOUBLE
64
COMBINED
1
0
0

1.000000
RATIO

1
0
TRUE
51149
0
LEFT NOT FITTED RIGHT NOT FITTED 0
NONE
NONE
15600
12
4.427000
51148
TRUE
1 0 8 72 0 0 0 0

15798

#HDR
-1
-1
#GR
CM-1
%T
2.38419e-05
0.0
5000
-1.000000
4631
8
77.5638
36.1422
#DATA
5000	65.7692
4996	65.255
4992	64.8924
4988	64.9577
4984	64.9482
4980	64.7903
4976	64.7472
4972	64.7315
4968	64.5648
4964	64.5627
4960	64.6765
4956	64.7345
4952	64.7246
4948	64.5547
4944	64.4305
4940	64.4365
4936	64.2405
4932	64.06
4928	64.2326
4924	64.2656
4920	64.0608
4916	64.1235
4912	64.4211
4908	64.6874
4904	64.7668
4900	64.5934
4896	64.5088
4892	64.5842
4888	64.6245
4884	64.8852
4880	65.1829
4876	65.0639
4872	64.6846
4868	64.5056
4864	64.7808
4860	65.0066
4856	64.9132
4852	64.8521
4848	64.751
4844	64.7112
4840	65.0367
4836	65.2444
4832	64.9408
4828	64.5817
4824	64.439
4820	64.3921
4816	64.5375
4812	64.8874
4808	65.0628
4804	65.0379
4800	64.9631
4796	64.7974
4792	64.7674
4788	64.8118
4784	64.7175
4780	64.6226
4776	64.6419
4772	64.79
4768	64.9204
4764	65.0479
4760	65.2973
4756	65.4904
4752	65.5141
4748	65.3765
4744	65.0645
4740	64.8587
4736	64.8668
4732	64.9186
4728	64.8723
4724	64.6847
4720	64.7624
4716	65.0182
4712	65.12
4708	65.2431
4704	65.2616
4700	65.1416
4696	65.1111
4692	65.0585
4688	64.9177
4684	64.7895
4680	64.7423
4676	64.9318
4672	65.2104
4668	65.2003
4664	64.9276
4660	64.7762
4656	64.8994
4652	64.9898
4648	64.9518
4644	64.8763
4640	64.8389
4636	64.8689
4632	64.789
4628	64.6357
4624	64.5908
4620	64.6496
4616	64.6072
4612	64.565
4608	64.697
4604	64.6984
4600	64.6579
4596	64.9285
4592	65.2254
4588	65.1802
4584	65.0301
4580	65.0666
4576	64.9884
4572	64.6559
4568	64.5346
4564	64.7001
4560	64.7606
4556	64.6334
4552	64.5642
4548	64.6698
4544	64.7971
4540	64.6998
4536	64.4026
4532	64.3605
4528	64.611
4524	64.7262
4520	64.7526
4516	64.7808
4512	64.7543
4508	64.5464
4504	64.1602
4500	64.0521
4496	64.2992
4492	64.4878
4488	64.5931
4484	64.8455
4480	64.9076
4476	64.6804
4472	64.5822
4468	64.719
4464	64.8226
4460	64.8206
4456	64.6501
4452	64.7326
4448	65.3793
4444	65.9346
4440	66.5566
4436	66.5221
4432	64.7726
4428	60.5113
4424	55.9167
4420	58.5201
4416	69.3841
4412	76.2594
4408	72.077
4404	66.8719
4400	65.2703
4396	64.592
4392	65.0334
4388	65.5474
4384	65.3413
4380	65.0532
4376	64.8879
4372	64.6545
4368	64.5416
4364	64.6066
4360	64.6595
4356	64.5531
4352	64.5217
4348	64.5214
4344	64.5076
4340	64.6794
4336	64.8832
4332	64.8221
4328	64.4857
4324	64.2802
4320	64.3817
4316	64.4916
4312	64.5849
4308	64.8046
4304	64.9933
4300	65.0361
4296	65.1174
4292	65.1421
4288	65.0823
4284	65.0039
4280	64.7437
4276	64.6262
4272	64.8161
4268	64.9387
4264	64.9025
4260	64.7973
4256	64.7179
4252	64.7414
4248	64.7236
4244	64.7228
4240	64.8403
4236	65.0016
4232	65.1481
4228	65.0764
4224	64.9403
4220	64.9991
4216	65.062
4212	65.0773
4208	65.0786
4204	65.0714
4200	65.1845
4196	65.2797
4192	65.1243
4188	64.8555
4184	64.7998
4180	65.0175
4176	65.0936
4172	64.872
4168	64.9597
4164	65.2549
4160	65.1614
4156	65.0283
4152	65.1314
4148	65.2252
4144	65.2283
4140	65.2171
4136	65.1581
4132	65.0761
4128	65.0662
4124	65.0439
4120	65.0604
4116	65.177
4112	65.2485
4108	65.1733
4104	65.0791
4100	65.1133
4096	65.1777
4092	65.1261
4088	65.0047
4084	64.9323
4080	65.0189
4076	65.2083
4072	65.2561
4068	65.2035
4064	65.163
4060	65.1421
4056	65.1947
4052	65.2595
4048	65.2643
4044	65.1538
4040	65.0372
4036	65.0659
4032	65.1503
4028	65.2354
4024	65.3072
4020	65.2436
4016	65.0779
4012	65.1321
4008	65.2882
4004	65.1798
4000	65.0712
3996	65.1325
3992	65.1613
3988	65.1087
3984	65.0447
3980	65.0696
3976	65.099
3972	65.0385
3968	65.0263
3964	65.0322
3960	64.9133
3956	64.8155
3952	64.9409
3948	65.135
3944	65.1424
3940	65.0795
3936	65.1134
3932	65.1792
3928	65.1638
3924	65.0796
3920	65.1051
3916	65.1507
3912	65.1003
3908	65.1635
3904	65.2846
3900	65.2365
3896	65.1603
3892	65.1438
3888	65.0403
3884	64.8797
3880	64.8426
3876	64.9766
3872	65.0645
3868	65.0167
3864	64.9772
3860	65.0378
3856	65.103
3852	65.0663
3848	65.0349
3844	65.0985
3840	65.1069
3836	64.9304
3832	64.8394
3828	64.9882
3824	65.0992
3820	65.0952
3816	65.0547
3812	65.0033
3808	65.0391
3804	65.1163
3800	65.2659
3796	65.4221
3792	65.3311
3788	65.1522
3784	65.097
3780	65.2123
3776	65.4024
3772	65.4433
3768	65.3528
3764	65.2052
3760	65.0221
3756	64.945
3752	65.0068
3748	65.082
3744	65.0809
3740	64.8519
3736	64.5684
3732	64.6564
3728	64.9832
3724	65.2162
3720	65.3796
3716	65.4362
3712	65.3063
3708	65.1389
3704	65.0747
3700	65.1508
3696	65.2347
3692	65.1894
3688	65.1547
3684	65.1848
3680	65.1625
3676	65.1157
3672	65.115
3668	65.1857
3664	65.2425
3660	65.1872
3656	65.1754
3652	65.238
3648	65.1991
3644	65.1181
3640	65.0577
3636	65.0468
3632	65.1676
3628	65.266
3624	65.2814
3620	65.3057
3616	65.2935
3612	65.3001
3608	65.3474
3604	65.3143
3600	65.2125
3596	65.1873
3592	65.2538
3588	65.2365
3584	65.1444
3580	65.1117
3576	65.1018
3572	65.1131
3568	65.1425
3564	65.0838
3560	65.0058
3556	65.0194
3552	65.0455
3548	65.0146
3544	65.0289
3540	65.0872
3536	65.0662
3532	65.0757
3528	65.1077
3524	65.0294
3520	65.0089
3516	65.1299
3512	65.2603
3508	65.2624
3504	65.1425
3500	65.1206
3496	65.2097
3492	65.1969
3488	65.0474
3484	64.902
3480	64.8829
3476	64.9947
3472	65.1149
3468	65.192
3464	65.1874
3460	65.0902
3456	65.0283
3452	65.0331
3448	65.0314
3444	64.9893
3440	64.974
3436	64.9876
3432	65.0064
3428	65.1073
3424	65.2468
3420	65.2659
3416	65.1932
3412	65.1886
3408	65.2107
3404	65.1839
3400	65.1585
3396	65.1761
3392	65.2082
3388	65.2176
3384	65.2195
3380	65.2049
3376	65.2147
3372	65.2082
3368	65.0893
3364	64.9889
3360	64.9967
3356	65.0553
3352	65.0674
3348	65.0349
3344	65.1099
3340	65.2201
3336	65.1799
3332	65.1315
3328	65.225
3324	65.2766
3320	65.1603
3316	65.039
3312	65.0987
3308	65.2109
3304	65.1238
3300	65.0004
3296	65.0192
3292	65.0126
3288	64.9807
3284	65.0232
3280	65.0695
3276	65.151
3272	65.2361
3268	65.2201
3264	65.164
3260	65.0678
3256	64.9763
3252	65.0199
3248	65.1062
3244	65.1317
3240	65.1096
3236	65.0376
3232	65.0235
3228	65.1103
3224	65.1235
3220	65.0446
3216	65.0099
3212	65.0679
3208	65.1551
3204	65.1207
3200	64.9827
3196	64.8873
3192	64.9095
3188	64.9972
3184	65
3180	64.97
3176	65.0512
3172	65.1039
3168	65.0535
3164	65.0459
3160	65.0898
3156	65.1786
3152	65.2377
3148	65.1114
3144	64.9752
3140	64.985
3136	65.0043
3132	65.012
3128	65.0281
3124	65.004
3120	65.0026
3116	65.0475
3112	65.0652
3108	65.0597
3104	65.0695
3100	65.0548
3096	65.0143
3092	64.9537
3088	64.8875
3084	64.9477
3080	65.0759
3076	65.1072
3072	65.0645
3068	65.0673
3064	65.1563
3060	65.1985
3056	65.1434
3052	65.1031
3048	65.0882
3044	65.0458
3040	65.0132
3036	65.0029
3032	65.0078
3028	65.0505
3024	65.0953
3020	65.1473
3016	65.2043
3012	65.1949
3008	65.1568
3004	65.1539
3000	65.1052
2996	65.0222
2992	65.0323
2988	65.0851
2984	65.094
2980	65.0269
2976	64.9214
2972	64.8591
2968	64.8654
2964	64.8968
2960	64.8978
2956	64.9234
2952	64.9733
2948	64.9898
2944	64.9259
2940	64.8284
2936	64.7998
2932	64.8494
2928	64.919
2924	64.9364
2920	64.9636
2916	65.0201
2912	65.0095
2908	64.966
2904	64.9969
2900	65.0541
2896	65.0338
2892	64.9966
2888	65.0149
2884	64.9852
2880	64.9004
2876	64.8927
2872	64.957
2868	65.0379
2864	65.0878
2860	65.0895
2856	65.0944
2852	65.0627
2848	64.9788
2844	64.9389
2840	64.9615
2836	65.0076
2832	65.0618
2828	65.1111
2824	65.1207
2820	65.0717
2816	65.0286
2812	64.9898
2808	64.9625
2804	65.0277
2800	65.1323
2796	65.1992
2792	65.2149
2788	65.1608
2784	65.0636
2780	65.0038
2776	65.0077
2772	65.0088
2768	64.9769
2764	64.9754
2760	65.0002
2756	64.9958
2752	64.9732
2748	64.9466
2744	64.9424
2740	64.9595
2736	64.9341
2732	64.8899
2728	64.9094
2724	64.9581
2720	64.9657
2716	64.9838
2712	65.0022
2708	64.9939
2704	65.0327
2700	65.0675
2696	65.0355
2692	64.9963
2688	65.0114
2684	65.0623
2680	65.0561
2676	64.9664
2672	64.8791
2668	64.8334
2664	64.8535
2660	64.9615
2656	65.0339
2652	65.0056
2648	64.9532
2644	64.921
2640	64.9277
2636	64.9541
2632	64.949
2628	64.9216
2624	64.9087
2620	64.9019
2616	64.8715
2612	64.8414
2608	64.8655
2604	64.9522
2600	64.9882
2596	64.8968
2592	64.8431
2588	64.9135
2584	64.9884
2580	64.9714
2576	64.8754
2572	64.8343
2568	64.8944
2564	64.9615
2560	64.9811
2556	64.9348
2552	64.8706
2548	64.8235
2544	64.813
2540	64.8753
2536	64.9316
2532	64.9632
2528	64.967
2524	64.9015
2520	64.8449
2516	64.8378
2512	64.8709
2508	64.962
2504	65.0489
2500	64.9847
2496	64.8177
2492	64.7698
2488	64.8471
2484	64.887
2480	64.8683
2476	64.8937
2472	64.9341
2468	64.927
2464	64.904
2460	64.8497
2456	64.7711
2452	64.7621
2448	64.7859
2444	64.783
2440	64.8521
2436	64.9574
2432	65.0105
2428	65.0234
2424	64.9538
2420	64.8223
2416	64.7174
2412	64.7436
2408	64.9137
2404	65.0004
2400	64.9396
2396	64.89
2392	64.8747
2388	64.8559
2384	64.8179
2380	64.7456
2376	64.7006
2372	64.7525
2368	64.8265
2364	64.8439
2360	64.8326
2356	64.8479
2352	64.9062
2348	64.9409
2344	64.9162
2340	64.8685
2336	64.8434
2332	64.8713
2328	64.8962
2324	64.886
2320	64.8608
2316	64.817
2312	64.786
2308	64.777
2304	64.7854
2300	64.8034
2296	64.8225
2292	64.8585
2288	64.8773
2284	64.8409
2280	64.7851
2276	64.7497
2272	64.7337
2268	64.7399
2264	64.7644
2260	64.784
2256	64.7783
2252	64.7817
2248	64.7791
2244	64.7402
2240	64.754
2236	64.8121
2232	64.8303
2228	64.7992
2224	64.7565
2220	64.7531
2216	64.7534
2212	64.7303
2208	64.7495
2204	64.814
2200	64.8791
2196	64.9017
2192	64.8656
2188	64.8361
2184	64.8203
2180	64.8011
2176	64.802
2172	64.8019
2168	64.7943
2164	64.8096
2160	64.827
2156	64.7942
2152	64.7145
2148	64.6564
2144	64.678
2140	64.7429
2136	64.796
2132	64.792
2128	64.7292
2124	64.7007
2120	64.6999
2116	64.6781
2112	64.6816
2108	64.69
2104	64.6855
2100	64.7257
2096	64.7536
2092	64.7302
2088	64.7434
2084	64.7289
2080	64.6575
2076	64.6539
2072	64.6884
2068	64.6806
2064	64.7192
2060	64.782
2056	64.7767
2052	64.7892
2048	64.7884
2044	64.7146
2040	64.6727
2036	64.6738
2032	64.6708
2028	64.667
2024	64.6418
2020	64.6059
2016	64.5993
2012	64.6214
2008	64.6768
2004	64.7536
2000	64.7646
1996	64.71
1992	64.693
1988	64.6898
1984	64.6425
1980	64.6056
1976	64.6389
1972	64.7196
1968	64.7626
1964	64.7242
1960	64.6792
1956	64.6956
1952	64.7264
1948	64.7214
1944	64.7233
1940	64.7647
1936	64.7686
1932	64.6954
1928	64.6195
1924	64.5784
1920	64.54
1916	64.5216
1912	64.5395
1908	64.5579
1904	64.5718
1900	64.5509
1896	64.5249
1892	64.5872
1888	64.6754
1884	64.6745
1880	64.5984
1876	64.5633
1872	64.5855
1868	64.6002
1864	64.5818
1860	64.535
1856	64.5379
1852	64.6081
1848	64.6726
1844	64.6942
1840	64.6491
1836	64.5528
1832	64.4787
1828	64.4864
1824	64.5374
1820	64.5496
1816	64.5421
1812	64.5214
1808	64.4936
1804	64.5259
1800	64.5622
1796	64.5565
1792	64.5289
1788	64.4888
1784	64.4962
1780	64.5466
1776	64.5704
1772	64.5337
1768	64.4409
1764	64.3464
1760	64.3116
1756	64.3162
1752	64.3046
1748	64.2994
1744	64.3076
1740	64.2548
1736	64.1674
1732	64.1364
1728	64.2032
1724	64.3462
1720	64.4816
1716	64.4839
1712	64.3677
1708	64.3317
1704	64.3893
1700	64.4443
1696	64.4816
1692	64.486
1688	64.432
1684	64.3623
1680	64.392
1676	64.4744
1672	64.482
1668	64.4547
1664	64.4067
1660	64.3132
1656	64.2547
1652	64.2973
1648	64.3711
1644	64.3421
1640	64.3035
1636	64.3604
1632	64.3969
1628	64.364
1624	64.3122
1620	64.2494
1616	64.1884
1612	64.1975
1608	64.2495
1604	64.2568
1600	64.2455
1596	64.2966
1592	64.3347
1588	64.2572
1584	64.1703
1580	64.1448
1576	64.1348
1572	64.1621
1568	64.2114
1564	64.2323
1560	64.2487
1556	64.2873
1552	64.2992
1548	64.3041
1544	64.3439
1540	64.3306
1536	64.2983
1532	64.2998
1528	64.2623
1524	64.2323
1520	64.2887
1516	64.3496
1512	64.3665
1508	64.3659
1504	64.3637
1500	64.3474
1496	64.3061
1492	64.3298
1488	64.3791
1484	64.3403
1480	64.2772
1476	64.2558
1472	64.2573
1468	64.2589
1464	64.2507
1460	64.231
1456	64.1955
1452	64.1994
1448	64.2719
1444	64.3214
1440	64.3088
1436	64.2426
1432	64.1824
1428	64.2177
1424	64.2535
1420	64.2235
1416	64.2094
1412	64.1805
1408	64.1177
1404	64.1011
1400	64.1333
1396	64.1701
1392	64.1892
1388	64.1589
1384	64.12
1380	64.1274
1376	64.1717
1372	64.198
1368	64.0952
1364	63.9807
1360	64.035
1356	64.1107
1352	64.1033
1348	64.1089
1344	64.1568
1340	64.1818
1336	64.1406
1332	64.0837
1328	64.0712
1324	64.0909
1320	64.1072
1316	64.095
1312	64.0531
1308	64.0412
1304	64.0735
1300	64.0912
1296	64.0692
1292	64.0417
1288	64.0699
1284	64.1149
1280	64.0988
1276	64.0583
1272	64.0131
1268	63.9786
1264	63.9747
1260	63.9919
1256	64.0684
1252	64.1533
1248	64.121
1244	64.0465
1240	64.0326
1236	64.0173
1232	63.9738
1228	63.9049
1224	63.8704
1220	63.9507
1216	64.0421
1212	63.9818
1208	63.8054
1204	63.743
1200	63.8358
1196	63.9286
1192	63.9627
1188	63.9591
1184	63.9973
1180	64.0397
1176	63.9566
1172	63.843
1168	63.8351
1164	63.903
1160	63.9264
1156	63.8637
1152	63.8253
1148	63.8499
1144	63.8837
1140	63.8592
1136	63.8625
1132	63.9102
1128	63.8978
1124	63.8696
1120	63.9022
1116	63.9084
1112	63.8255
1108	63.7985
1104	63.8876
1100	63.8836
1096	63.7793
1092	63.7633
1088	63.8082
1084	63.8098
1080	63.849
1076	63.9787
1072	64.0587
1068	64.0506
1064	63.9936
1060	63.9074
1056	63.8658
1052	63.8463
1048	63.7678
1044	63.694
1040	63.7433
1036	63.866
1032	64.0152
1028	64.1738
1024	64.1687
1020	63.9517
1016	63.7628
1012	63.7724
1008	63.8744
1004	63.9405
1000	63.9465
996	 63.8883
992	 63.8369
988	 63.8619
984	 63.9318
980	 63.9765
976	 63.9647
972	 63.9354
968	 63.9149
964	 63.953
960	 63.9748
956	 63.8525
952	 63.7748
948	 63.818
944	 63.838
940	 63.8762
936	 63.9971
932	 64.0262
928	 63.9877
924	 64.1148
920	 64.2161
916	 64.1163
912	 63.9347
908	 63.8552
904	 63.9212
900	 63.9349
896	 63.9301
892	 63.9003
888	 63.8268
884	 63.9164
880	 64.0358
876	 63.9774
872	 63.9636
868	 64.1237
864	 64.1684
860	 64.009
856	 63.8487
852	 63.7918
848	 63.8255
844	 63.8481
840	 63.7789
836	 63.7545
832	 63.8978
828	 64.0094
824	 63.8763
820	 63.6869
816	 63.6958
812	 63.8428
808	 63.9395
804	 63.8362
800	 63.7784
796	 63.9636
792	 63.9762
788	 63.8045
784	 63.8228
780	 63.81
776	 63.751
772	 63.7883
768	 63.6744
764	 63.5838
760	 63.6614
756	 63.6291
752	 63.4812
748	 63.4223
744	 63.4528
740	 63.5617
736	 63.6775
732	 63.7747
728	 63.849
724	 63.7778
720	 63.6411
716	 63.4994
712	 63.4513
708	 63.4824
704	 63.4132
700	 63.2235
696	 63.2193
692	 63.7635
688	 64.1306
684	 63.8302
680	 63.6949
676	 63.8203
672	 63.748
668	 63.6698
664	 63.5864
660	 63.3129
656	 63.1517
652	 63.3943
648	 63.3642
644	 63.2149
640	 63.7578
636	 64.3047
632	 63.9864
628	 63.2922
624	 63.313
620	 63.6452
616	 63.6483
612	 63.5484
608	 63.4557
604	 63.769
600	 64.3695
596	 64.4855
592	 64.1777
588	 63.9903
584	 63.8137
580	 63.6725
576	 63.7989
572	 63.9193
568	 63.6839
564	 63.3299
560	 63.4345
556	 63.9026
552	 64.2566
548	 64.1752
544	 63.7012
540	 63.2232
536	 63.2007
532	 63.5473
528	 63.8178
524	 63.8625
520	 63.5481
516	 63.1224
512	 63.1273
508	 63.6643
504	 63.9804
500	 63.6043
496	 63.3599
492	 63.59
488	 63.7509
484	 63.9232
480	 63.8895
476	 63.1104
472	 62.3636
468	 62.1841
464	 62.2983
460	 62.5589
456	 62.7891
452	 63.1145
448	 63.3275
444	 63.2005
440	 62.7393
436	 61.7437
432	 61.1923
428	 61.2686
424	 61.4908
420	 62.8405
416	 64.7169
412	 65.4627
408	 64.4856
404	 60.6212
400	 55.1213
396	 56.4315
392	 65.2235
388	 72.5373
384	 77.2366
380	 74.9691
376	 67.1311
372	 52.25
370	 36.1422