File: Bakgrunnsmateriale/MATLAB/FTIR/ftir_data/subAa/Mapping_121/BZ1503107-1_t93_cm-1.asc
PE IR       SPECTRUM    SPECTRUM    ASCII       PEDS        1.60
  -1
BZ6BA5~1.ASC
17/04/07
20:55:14.00
17/04/07
20:55:14.00
tln
$BZ1503107-1_t0093$<tbV0>[2.6,7.8,8.0,0.0,27,1,0]
370
64

2002,4.07
MIRTGS : RIGHTBACK : INTERNAL 2
MIR : ON : INTERNAL 2
OPTKBR

0.200000
8
8.000000
FILLER
RATIO
SPECTRUM
UNLOCKED 256

DOUBLE
64
COMBINED
1
0
0

1.000000
RATIO

1
0
TRUE
51149
0
LEFT NOT FITTED RIGHT NOT FITTED 0
NONE
NONE
15600
12
4.427000
51148
TRUE
1 0 8 72 0 0 0 0

15798

#HDR
-1
-1
#GR
CM-1
%T
2.38419e-05
0.0
5000
-1.000000
4631
8
101.733
54.7106
#DATA
5000	65.5887
4996	65.7037
4992	64.7041
4988	63.6745
4984	63.9403
4980	64.2008
4976	63.4647
4972	63.1517
4968	64.0464
4964	65.632
4960	66.5566
4956	66.7601
4952	67.3715
4948	67.3432
4944	65.8279
4940	64.8432
4936	64.6786
4932	64.006
4928	64.0251
4924	65.0471
4920	65.2935
4916	64.9648
4912	65.1911
4908	65.615
4904	65.2065
4900	64.7701
4896	64.9307
4892	64.668
4888	64.3305
4884	64.6943
4880	65.0367
4876	64.7065
4872	64.3657
4868	64.3467
4864	64.3902
4860	64.49
4856	64.5652
4852	64.5147
4848	64.3921
4844	64.5942
4840	65.0602
4836	65.0857
4832	64.8424
4828	64.8866
4824	64.913
4820	64.9595
4816	65.1712
4812	65.0953
4808	64.9292
4804	65.01
4800	65.0655
4796	64.9406
4792	64.886
4788	64.9284
4784	64.9339
4780	65.0045
4776	65.0715
4772	65.026
4768	64.9798
4764	65.0855
4760	65.1567
4756	65.0304
4752	65.0196
4748	65.1205
4744	65.0524
4740	64.8632
4736	64.8093
4732	64.895
4728	64.8482
4724	64.7616
4720	64.8764
4716	65.0716
4712	65.2615
4708	65.3374
4704	65.0824
4700	64.7288
4696	64.5082
4692	64.5569
4688	64.9113
4684	65.0796
4680	64.8931
4676	64.8405
4672	65.057
4668	65.1812
4664	65.0509
4660	64.7867
4656	64.6397
4652	64.5791
4648	64.429
4644	64.3304
4640	64.3863
4636	64.5516
4632	64.7943
4628	65.0207
4624	65.0114
4620	64.6825
4616	64.2859
4612	64.1524
4608	64.2655
4604	64.3568
4600	64.4399
4596	64.5225
4592	64.3495
4588	64.2226
4584	64.4334
4580	64.5145
4576	64.3679
4572	64.346
4568	64.3797
4564	64.189
4560	63.943
4556	63.8788
4552	63.9367
4548	63.9487
4544	63.7932
4540	63.7147
4536	63.6679
4532	63.5041
4528	63.6638
4524	64.1172
4520	64.2951
4516	64.0953
4512	63.8041
4508	63.7166
4504	63.8201
4500	63.8984
4496	63.8141
4492	63.3347
4488	62.7856
4484	62.6829
4480	62.7096
4476	62.6122
4472	63.1983
4468	63.7814
4464	63.6074
4460	64.4731
4456	66.1749
4452	70.1323
4448	81.4969
4444	99.6905
4440	96.1418
4436	76.505
4432	66.5901
4428	65.5714
4424	65.4082
4420	64.2966
4416	64.0798
4412	64.4377
4408	64.3064
4404	64.0303
4400	63.9342
4396	63.9186
4392	63.8334
4388	63.7093
4384	63.7345
4380	63.5727
4376	63.4022
4372	63.676
4368	64.0285
4364	64.2283
4360	64.3155
4356	64.207
4352	64.0323
4348	64.0391
4344	64.0821
4340	64.0858
4336	64.2251
4332	64.3329
4328	64.2594
4324	64.1837
4320	64.1168
4316	64.0239
4312	64.0932
4308	64.2693
4304	64.4482
4300	64.7033
4296	64.8263
4292	64.7636
4288	64.7209
4284	64.6529
4280	64.5834
4276	64.5838
4272	64.6056
4268	64.5928
4264	64.5363
4260	64.5671
4256	64.7504
4252	64.8892
4248	64.8364
4244	64.6971
4240	64.6309
4236	64.6888
4232	64.8146
4228	64.9114
4224	64.9122
4220	64.8385
4216	64.8002
4212	64.8427
4208	64.97
4204	65.0721
4200	64.9599
4196	64.8156
4192	64.8009
4188	64.8511
4184	64.9605
4180	65.0796
4176	65.1369
4172	65.0872
4168	65.0555
4164	65.1258
4160	65.152
4156	65.0951
4152	65.0509
4148	64.972
4144	64.7688
4140	64.6417
4136	64.7793
4132	64.9658
4128	65.007
4124	65.0116
4120	65.0772
4116	65.1781
4112	65.2772
4108	65.2507
4104	65.1624
4100	65.1561
4096	65.1484
4092	65.1281
4088	65.1637
4084	65.2712
4080	65.2957
4076	65.0912
4072	64.881
4068	64.7836
4064	64.8458
4060	65.0231
4056	65.0406
4052	64.8493
4048	64.5972
4044	64.5429
4040	64.7496
4036	64.9954
4032	65.1495
4028	65.1785
4024	65.0792
4020	64.9192
4016	64.8048
4012	64.7929
4008	64.7692
4004	64.7376
4000	64.7822
3996	64.7539
3992	64.6706
3988	64.5712
3984	64.4655
3980	64.5048
3976	64.7197
3972	65.026
3968	65.1542
3964	65.0184
3960	64.8792
3956	64.8341
3952	64.695
3948	64.4089
3944	64.3877
3940	64.7068
3936	64.8937
3932	64.8679
3928	64.852
3924	64.8991
3920	64.8875
3916	64.7768
3912	64.7154
3908	64.7716
3904	64.8334
3900	64.8039
3896	64.7644
3892	64.7333
3888	64.5562
3884	64.371
3880	64.4316
3876	64.5771
3872	64.7124
3868	64.8827
3864	65.0034
3860	65.0174
3856	64.9441
3852	64.8773
3848	64.8465
3844	64.8417
3840	64.9023
3836	65.0219
3832	65.0033
3828	64.8215
3824	64.7869
3820	64.8533
3816	64.8521
3812	64.8405
3808	64.8345
3804	64.8748
3800	64.9487
3796	64.9387
3792	64.8494
3788	64.8379
3784	64.9023
3780	64.9419
3776	64.9403
3772	64.9133
3768	64.9105
3764	64.9099
3760	64.8946
3756	64.979
3752	65.0988
3748	65.0821
3744	65.0692
3740	65.0635
3736	64.9813
3732	64.9482
3728	65.0022
3724	65.1232
3720	65.208
3716	65.2062
3712	65.2024
3708	65.2169
3704	65.2294
3700	65.2412
3696	65.181
3692	65.0178
3688	64.9357
3684	64.966
3680	64.9466
3676	64.929
3672	64.9624
3668	65.0187
3664	65.0844
3660	65.028
3656	64.9102
3652	64.8837
3648	64.8808
3644	64.8129
3640	64.7522
3636	64.7936
3632	64.8787
3628	64.8531
3624	64.8038
3620	64.8426
3616	64.8591
3612	64.895
3608	64.9291
3604	64.885
3600	64.8753
3596	64.9668
3592	65.0342
3588	64.9846
3584	64.9283
3580	64.8462
3576	64.6886
3572	64.6465
3568	64.8111
3564	64.9425
3560	64.8625
3556	64.7165
3552	64.6495
3548	64.6079
3544	64.6058
3540	64.7804
3536	64.9526
3532	64.9648
3528	64.9742
3524	64.9784
3520	64.9054
3516	64.8053
3512	64.7802
3508	64.8273
3504	64.8739
3500	64.9277
3496	64.9322
3492	64.8749
3488	64.8513
3484	64.8532
3480	64.8879
3476	64.9759
3472	65.0096
3468	64.9685
3464	64.9241
3460	64.8877
3456	64.8184
3452	64.7154
3448	64.6683
3444	64.7167
3440	64.764
3436	64.7488
3432	64.7103
3428	64.7275
3424	64.8109
3420	64.891
3416	65.0022
3412	65.066
3408	64.9905
3404	64.8724
3400	64.8137
3396	64.818
3392	64.8276
3388	64.875
3384	64.9367
3380	64.9505
3376	64.8945
3372	64.8256
3368	64.8344
3364	64.8232
3360	64.7299
3356	64.7033
3352	64.7993
3348	64.889
3344	64.927
3340	64.8809
3336	64.7933
3332	64.7836
3328	64.7889
3324	64.8077
3320	64.8513
3316	64.8374
3312	64.806
3308	64.8133
3304	64.8352
3300	64.8777
3296	64.942
3292	64.9459
3288	64.8876
3284	64.8603
3280	64.887
3276	64.9493
3272	64.9434
3268	64.8381
3264	64.8292
3260	64.9204
3256	64.9613
3252	64.9472
3248	64.8938
3244	64.8421
3240	64.8251
3236	64.8245
3232	64.8332
3228	64.807
3224	64.7628
3220	64.7704
3216	64.7583
3212	64.7201
3208	64.7434
3204	64.8225
3200	64.8844
3196	64.8291
3192	64.7155
3188	64.6755
3184	64.7309
3180	64.8646
3176	64.93
3172	64.8405
3168	64.7499
3164	64.7095
3160	64.7254
3156	64.793
3152	64.7655
3148	64.6987
3144	64.7163
3140	64.7708
3136	64.8066
3132	64.7383
3128	64.6482
3124	64.6915
3120	64.7623
3116	64.7767
3112	64.772
3108	64.7401
3104	64.7377
3100	64.8286
3096	64.9136
3092	64.9044
3088	64.8344
3084	64.7516
3080	64.6884
3076	64.6558
3072	64.6508
3068	64.6896
3064	64.7429
3060	64.7635
3056	64.7842
3052	64.8335
3048	64.8594
3044	64.7889
3040	64.6963
3036	64.6987
3032	64.7342
3028	64.7207
3024	64.6883
3020	64.7102
3016	64.7194
3012	64.6106
3008	64.5522
3004	64.6586
3000	64.7637
2996	64.7499
2992	64.6515
2988	64.5461
2984	64.51
2980	64.5421
2976	64.5189
2972	64.4688
2968	64.5071
2964	64.5075
2960	64.4508
2956	64.4662
2952	64.4932
2948	64.4976
2944	64.5695
2940	64.6578
2936	64.6558
2932	64.6007
2928	64.5668
2924	64.5875
2920	64.6349
2916	64.5848
2912	64.4949
2908	64.5012
2904	64.532
2900	64.5353
2896	64.5336
2892	64.5396
2888	64.573
2884	64.5895
2880	64.5654
2876	64.5599
2872	64.5864
2868	64.5764
2864	64.5841
2860	64.6411
2856	64.611
2852	64.5108
2848	64.4654
2844	64.4925
2840	64.5657
2836	64.6135
2832	64.5886
2828	64.5881
2824	64.6593
2820	64.6591
2816	64.5755
2812	64.5623
2808	64.5936
2804	64.5772
2800	64.5399
2796	64.5425
2792	64.5879
2788	64.6412
2784	64.7046
2780	64.7431
2776	64.7361
2772	64.7109
2768	64.6963
2764	64.7148
2760	64.6976
2756	64.6129
2752	64.5565
2748	64.604
2744	64.7062
2740	64.7284
2736	64.6442
2732	64.5699
2728	64.6061
2724	64.7036
2720	64.7061
2716	64.6714
2712	64.7088
2708	64.7245
2704	64.7103
2700	64.6869
2696	64.643
2692	64.6472
2688	64.6638
2684	64.6008
2680	64.5498
2676	64.5581
2672	64.5087
2668	64.4279
2664	64.3914
2660	64.4166
2656	64.4911
2652	64.5405
2648	64.5534
2644	64.569
2640	64.5636
2636	64.5052
2632	64.4837
2628	64.5029
2624	64.4638
2620	64.3895
2616	64.372
2612	64.4252
2608	64.4689
2604	64.4885
2600	64.5041
2596	64.5107
2592	64.508
2588	64.4906
2584	64.4527
2580	64.4074
2576	64.4097
2572	64.4107
2568	64.3675
2564	64.3482
2560	64.3481
2556	64.3619
2552	64.4275
2548	64.4886
2544	64.4665
2540	64.4201
2536	64.4262
2532	64.4577
2528	64.4636
2524	64.4329
2520	64.4059
2516	64.4134
2512	64.4221
2508	64.3846
2504	64.3534
2500	64.395
2496	64.4545
2492	64.4814
2488	64.4962
2484	64.4741
2480	64.4118
2476	64.4008
2472	64.4391
2468	64.4634
2464	64.4798
2460	64.4538
2456	64.3973
2452	64.3828
2448	64.3686
2444	64.3235
2440	64.3125
2436	64.3517
2432	64.4214
2428	64.4938
2424	64.503
2420	64.4514
2416	64.3713
2412	64.3172
2408	64.3562
2404	64.3883
2400	64.3401
2396	64.304
2392	64.3028
2388	64.2999
2384	64.3385
2380	64.3756
2376	64.3259
2372	64.3175
2368	64.4194
2364	64.4967
2360	64.4985
2356	64.4466
2352	64.3672
2348	64.3629
2344	64.3808
2340	64.2988
2336	64.2466
2332	64.2873
2328	64.3532
2324	64.4412
2320	64.4443
2316	64.369
2312	64.3586
2308	64.375
2304	64.3339
2300	64.2897
2296	64.3365
2292	64.4109
2288	64.3985
2284	64.316
2280	64.2415
2276	64.2215
2272	64.2435
2268	64.264
2264	64.2694
2260	64.2591
2256	64.2359
2252	64.2579
2248	64.3415
2244	64.3781
2240	64.3329
2236	64.3009
2232	64.3168
2228	64.314
2224	64.2373
2220	64.1749
2216	64.1894
2212	64.2303
2208	64.2533
2204	64.1947
2200	64.1284
2196	64.1739
2192	64.2136
2188	64.1556
2184	64.0912
2180	64.0704
2176	64.109
2172	64.1701
2168	64.1793
2164	64.1441
2160	64.1053
2156	64.1048
2152	64.1128
2148	64.0788
2144	64.0792
2140	64.1723
2136	64.2401
2132	64.2045
2128	64.1739
2124	64.192
2120	64.184
2116	64.138
2112	64.097
2108	64.1075
2104	64.1598
2100	64.2019
2096	64.2329
2092	64.2229
2088	64.1453
2084	64.0921
2080	64.1219
2076	64.1486
2072	64.1293
2068	64.1418
2064	64.2008
2060	64.2073
2056	64.1649
2052	64.1372
2048	64.0961
2044	64.0743
2040	64.1078
2036	64.1221
2032	64.0998
2028	64.0646
2024	64.0417
2020	64.0677
2016	64.1106
2012	64.1161
2008	64.0878
2004	64.0637
2000	64.0601
1996	64.1004
1992	64.1728
1988	64.1947
1984	64.1667
1980	64.1474
1976	64.1079
1972	64.0358
1968	63.9972
1964	64.0229
1960	64.0602
1956	64.0521
1952	64.0148
1948	63.9799
1944	63.9773
1940	64.0245
1936	64.0643
1932	64.0559
1928	64.0124
1924	63.9516
1920	63.889
1916	63.8663
1912	63.9287
1908	64.0146
1904	64.0403
1900	64.0156
1896	64.0021
1892	64.0273
1888	64.0274
1884	63.959
1880	63.9118
1876	63.9331
1872	63.9408
1868	63.9478
1864	63.9848
1860	64.0085
1856	64.0455
1852	64.0336
1848	63.9362
1844	63.8965
1840	63.9398
1836	63.9468
1832	63.9181
1828	63.9529
1824	63.9865
1820	63.9318
1816	63.8564
1812	63.849
1808	63.9042
1804	63.9244
1800	63.8787
1796	63.8407
1792	63.8569
1788	63.8922
1784	63.9131
1780	63.9102
1776	63.8716
1772	63.8219
1768	63.7839
1764	63.7575
1760	63.7348
1756	63.6615
1752	63.5491
1748	63.4994
1744	63.4527
1740	63.3391
1736	63.2731
1732	63.3525
1728	63.4897
1724	63.5397
1720	63.5383
1716	63.5389
1712	63.5313
1708	63.5406
1704	63.5378
1700	63.5221
1696	63.5887
1692	63.6724
1688	63.6538
1684	63.6183
1680	63.62
1676	63.6251
1672	63.6072
1668	63.5788
1664	63.621
1660	63.6788
1656	63.6604
1652	63.6548
1648	63.72
1644	63.7257
1640	63.6207
1636	63.5587
1632	63.5937
1628	63.6471
1624	63.6893
1620	63.694
1616	63.6505
1612	63.5904
1608	63.5479
1604	63.5457
1600	63.5605
1596	63.601
1592	63.6554
1588	63.6616
1584	63.611
1580	63.5546
1576	63.5443
1572	63.5694
1568	63.6059
1564	63.607
1560	63.5886
1556	63.5958
1552	63.5742
1548	63.5351
1544	63.5304
1540	63.5504
1536	63.5415
1532	63.5056
1528	63.508
1524	63.5414
1520	63.5349
1516	63.502
1512	63.5008
1508	63.5161
1504	63.5296
1500	63.5555
1496	63.5728
1492	63.5804
1488	63.5895
1484	63.5589
1480	63.5438
1476	63.5786
1472	63.5772
1468	63.4795
1464	63.3649
1460	63.3672
1456	63.4111
1452	63.3936
1448	63.4167
1444	63.4849
1440	63.5356
1436	63.5434
1432	63.4473
1428	63.3197
1424	63.2977
1420	63.3374
1416	63.3372
1412	63.36
1408	63.4458
1404	63.4825
1400	63.4197
1396	63.3156
1392	63.2687
1388	63.259
1384	63.2396
1380	63.2762
1376	63.3129
1372	63.3243
1368	63.3545
1364	63.3301
1360	63.2689
1356	63.254
1352	63.2546
1348	63.28
1344	63.3534
1340	63.3648
1336	63.3327
1332	63.3619
1328	63.356
1324	63.3103
1320	63.3169
1316	63.3189
1312	63.2972
1308	63.2881
1304	63.2653
1300	63.218
1296	63.1823
1292	63.1531
1288	63.1059
1284	63.1028
1280	63.1474
1276	63.144
1272	63.1123
1268	63.0927
1264	63.0581
1260	63.044
1256	63.0598
1252	63.0556
1248	63.0458
1244	63.0202
1240	62.9765
1236	62.9696
1232	62.9875
1228	63.0268
1224	63.0939
1220	63.1188
1216	63.1011
1212	63.0877
1208	63.0923
1204	63.113
1200	63.099
1196	63.0708
1192	63.1041
1188	63.1269
1184	63.047
1180	62.9579
1176	62.9286
1172	62.8693
1168	62.8
1164	62.8103
1160	62.8634
1156	62.8897
1152	62.8577
1148	62.8383
1144	62.8803
1140	62.9284
1136	62.9366
1132	62.9334
1128	62.9598
1124	62.9562
1120	62.8965
1116	62.8183
1112	62.8431
1108	62.9795
1104	63.0382
1100	62.9992
1096	62.9776
1092	62.9481
1088	62.8791
1084	62.8331
1080	62.8243
1076	62.8464
1072	62.8808
1068	62.8582
1064	62.7723
1060	62.7091
1056	62.6883
1052	62.7385
1048	62.9467
1044	63.1588
1040	63.1356
1036	62.9564
1032	62.8562
1028	62.8734
1024	62.904
1020	62.8785
1016	62.829
1012	62.8298
1008	62.848
1004	62.8497
1000	62.8292
996	 62.7629
992	 62.7174
988	 62.7464
984	 62.8391
980	 62.9265
976	 62.8952
972	 62.8158
968	 62.8024
964	 62.8384
960	 62.8894
956	 62.8907
952	 62.8157
948	 62.7605
944	 62.7871
940	 62.8271
936	 62.8404
932	 62.8524
928	 62.874
924	 62.8644
920	 62.7816
916	 62.6962
912	 62.7523
908	 62.8964
904	 62.8446
900	 62.6536
896	 62.5567
892	 62.5729
888	 62.6617
884	 62.7094
880	 62.694
876	 62.6982
872	 62.7353
868	 62.8026
864	 62.7981
860	 62.674
856	 62.6269
852	 62.6935
848	 62.7622
844	 62.8267
840	 62.8152
836	 62.7405
832	 62.6844
828	 62.5848
824	 62.5365
820	 62.6404
816	 62.7292
812	 62.706
808	 62.5921
804	 62.5328
800	 62.6719
796	 62.8768
792	 62.915
788	 62.8642
784	 62.8755
780	 62.8454
776	 62.7166
772	 62.6065
768	 62.5784
764	 62.5759
760	 62.6064
756	 62.6038
752	 62.4961
748	 62.4361
744	 62.4275
740	 62.3627
736	 62.3216
732	 62.412
728	 62.5638
724	 62.6129
720	 62.5659
716	 62.5606
712	 62.5237
708	 62.3633
704	 62.3008
700	 62.3204
696	 62.2989
692	 62.4138
688	 62.5597
684	 62.3904
680	 62.1616
676	 62.2797
672	 62.3698
668	 62.2309
664	 62.2568
660	 62.3296
656	 62.291
652	 62.424
648	 62.5706
644	 62.4558
640	 62.3564
636	 62.446
632	 62.4837
628	 62.4451
624	 62.4339
620	 62.3905
616	 62.2831
612	 62.2444
608	 62.3291
604	 62.2689
600	 62.1387
596	 62.106
592	 61.9485
588	 61.659
584	 61.3663
580	 61.2322
576	 61.5041
572	 61.9325
568	 62.0349
564	 61.8981
560	 61.6558
556	 61.4695
552	 61.5683
548	 61.4462
544	 60.9277
540	 60.8172
536	 61.5203
532	 62.1151
528	 62.2732
524	 62.8905
520	 62.9133
516	 61.8604
512	 61.7444
508	 61.8991
504	 61.5689
500	 61.7144
496	 61.738
492	 61.8165
488	 62.5636
484	 63.0066
480	 62.9267
476	 62.5571
472	 61.7487
468	 61.5493
464	 62.628
460	 63.5834
456	 63.6923
452	 62.6354
448	 60.2643
444	 59.2589
440	 60.6835
436	 62.1957
432	 61.9293
428	 61.1591
424	 62.4769
420	 64.6639
416	 64.1458
412	 60.7597
408	 57.2389
404	 56.3326
400	 57.389
396	 60.0879
392	 65.3677
388	 69.2223
384	 68.4311
380	 60.9361
376	 54.7106
372	 61.4203
370	 67.7266