File: Bakgrunnsmateriale/MATLAB/FTIR/ftir_data/subAa/Mapping_121/BZ1503107-1_t33.asc
PE IR       SPECTRUM    SPECTRUM    ASCII       PEDS        1.60
  -1
BZ2557~1.ASC
17/04/07
15:56:02.00
17/04/07
15:56:29.00
tln
$BZ1503107-1_t0033$<tbV0>[-13.0,-7.8,8.0,0.0,27,1,0]
27.028
64

2002,4.07
MIRTGS : RIGHTBACK : INTERNAL 2
MIR : ON : INTERNAL 2
OPTKBR

0.200000
8
8.000000
FILLER
RATIO
SPECTRUM
UNLOCKED 256

DOUBLE
64
COMBINED
1
0
0

0.002000
RATIO

1
0
TRUE
51149
0
LEFT NOT FITTED RIGHT NOT FITTED 0
NONE
NONE
15600
12
4.427000
51148
TRUE
1 0 8 72 0 0 0 0

15798

#HDR
-1
-1
#GR
µM
%T
2.38419e-05
0.0
2.000000
0.002000
12515
8
76.6354
48.5142
#DATA
2.000000	 65.3728
2.018000	 64.2445
2.036000	 64.7785
2.054000	 64.5667
2.072000	 65.1664
2.090000	 64.8999
2.108000	 65.3846
2.126000	 65.5185
2.144000	 64.7476
2.162000	 64.7183
2.180000	 64.5651
2.198000	 64.3187
2.216000	 64.0591
2.234000	 64.0241
2.252000	 65.6016
2.270000	 71.3752
2.288000	 63.8358
2.306000	 64.414
2.324000	 64.4626
2.342000	 64.915
2.360000	 64.6747
2.378000	 65.2575
2.396000	 64.9546
2.414000	 65.0699
2.432000	 65.6349
2.450000	 65.2236
2.468000	 65.3362
2.486000	 65.1234
2.504000	 65.2973
2.522000	 65.0969
2.540000	 64.917
2.558000	 65.1118
2.576000	 64.8717
2.594000	 65.1108
2.612000	 65.0873
2.630000	 65.0795
2.648000	 65.1099
2.666000	 65.0924
2.684000	 65.1322
2.702000	 65.23
2.720000	 65.085
2.738000	 65.628
2.756000	 65.2375
2.774000	 65.2722
2.792000	 65.1873
2.810000	 64.9083
2.828000	 65.063
2.846000	 65.1368
2.864000	 64.963
2.882000	 65.0209
2.900000	 64.9668
2.918000	 65.0787
2.936000	 65.2961
2.954000	 65.1656
2.972000	 65.1779
2.990000	 65.2514
3.008000	 65.0829
3.026000	 65.0375
3.044000	 65.1216
3.062000	 65.2525
3.080000	 65.151
3.098000	 65.1625
3.116000	 65.0953
3.134000	 65.1777
3.152000	 65.1381
3.170000	 65.085
3.188000	 65.0091
3.206000	 65.0851
3.224000	 65.0201
3.242000	 64.9155
3.260000	 65.0556
3.278000	 65.0066
3.296000	 64.9664
3.314000	 64.9142
3.332000	 65.2197
3.350000	 65.2155
3.368000	 64.9167
3.386000	 65.0659
3.404000	 64.7774
3.422000	 64.9513
3.440000	 64.9563
3.458000	 65.0107
3.476000	 64.8776
3.494000	 65.1871
3.512000	 64.8798
3.530000	 65.0541
3.548000	 65.0177
3.566000	 64.9306
3.584000	 65.1688
3.602000	 65.0107
3.620000	 65.203
3.638000	 65.0867
3.656000	 65.0338
3.674000	 65.2051
3.692000	 65.0339
3.710000	 65.1899
3.728000	 65.1667
3.746000	 64.9878
3.764000	 64.9871
3.782000	 65.0121
3.800000	 65.0335
3.818000	 64.9302
3.836000	 64.9415
3.854000	 65.0546
3.872000	 65.0392
3.890000	 65.0005
3.908000	 65.0564
3.926000	 65.0125
3.944000	 64.9954
3.962000	 64.9127
3.980000	 64.9553
3.998000	 64.9226
4.016000	 64.9631
4.034000	 64.9982
4.052000	 64.9387
4.070000	 64.8911
4.088000	 64.8952
4.106000	 65.0388
4.124000	 64.8725
4.141999	 64.9229
4.160000	 65.0248
4.178000	 64.936
4.196000	 65.0111
4.214000	 64.9482
4.232000	 64.9499
4.250000	 64.9726
4.268000	 64.8841
4.286000	 64.902
4.304000	 65.0008
4.322000	 64.9483
4.340000	 64.9585
4.358000	 64.9511
4.375999	 64.9605
4.394000	 64.9317
4.412000	 64.8035
4.430000	 64.7779
4.448000	 64.9248
4.466000	 64.8387
4.484000	 64.9055
4.502000	 64.8772
4.520000	 64.8947
4.538000	 64.8453
4.556000	 64.8566
4.574000	 64.8678
4.592000	 64.7718
4.609999	 64.7776
4.628000	 64.9214
4.646000	 64.8793
4.664000	 64.813
4.682000	 64.8598
4.700000	 64.7766
4.718000	 64.9048
4.736000	 64.9384
4.754000	 64.8959
4.772000	 64.8561
4.790000	 64.7963
4.808000	 64.7702
4.826000	 64.7979
4.843999	 64.7898
4.862000	 64.7191
4.880000	 64.7707
4.898000	 64.7507
4.916000	 64.7875
4.934000	 64.8772
4.952000	 64.9096
4.970000	 64.8353
4.988000	 64.9036
5.006000	 64.9141
5.024000	 64.7942
5.042000	 64.8033
5.060000	 64.8134
5.077999	 64.8642
5.096000	 64.852
5.114000	 64.852
5.132000	 64.9021
5.150000	 64.8303
5.168000	 64.8395
5.186000	 64.8126
5.204000	 64.8114
5.222000	 64.7667
5.240000	 64.7551
5.258000	 64.635
5.276000	 64.7288
5.294000	 64.8124
5.312000	 64.7187
5.330000	 64.664
5.348000	 64.767
5.366000	 64.8128
5.384000	 64.7386
5.402000	 64.8388
5.420000	 64.8559
5.438000	 64.8267
5.456000	 64.7084
5.474000	 64.7196
5.492000	 64.7382
5.510000	 64.7647
5.528000	 64.6861
5.546000	 64.7531
5.564000	 64.807
5.582000	 64.7203
5.600000	 64.6743
5.618000	 64.645
5.636000	 64.6218
5.654000	 64.6171
5.672000	 64.572
5.690000	 64.5434
5.708000	 64.5304
5.726000	 64.4771
5.744000	 64.3334
5.762000	 64.2623
5.780000	 64.2906
5.798000	 64.355
5.816000	 64.3917
5.834000	 64.4906
5.852000	 64.5282
5.870000	 64.5484
5.888000	 64.5718
5.906000	 64.5812
5.923999	 64.5676
5.942000	 64.5326
5.960000	 64.6114
5.978000	 64.6186
5.996000	 64.5353
6.014000	 64.5389
6.032000	 64.531
6.050000	 64.4829
6.068000	 64.4792
6.086000	 64.4306
6.104000	 64.434
6.122000	 64.4762
6.140000	 64.4347
6.158000	 64.3682
6.176000	 64.3705
6.194000	 64.3884
6.212000	 64.395
6.230000	 64.3743
6.248000	 64.3506
6.266000	 64.4125
6.284000	 64.4296
6.302000	 64.4207
6.320000	 64.4281
6.338000	 64.3918
6.356000	 64.4026
6.374000	 64.4136
6.392000	 64.4285
6.410000	 64.4695
6.428000	 64.4762
6.446000	 64.429
6.464000	 64.4092
6.482000	 64.4651
6.500000	 64.4656
6.518000	 64.4322
6.536000	 64.4096
6.554000	 64.3476
6.572000	 64.3759
6.590000	 64.5097
6.608000	 64.5524
6.626000	 64.5258
6.644000	 64.5413
6.662000	 64.5555
6.680000	 64.5043
6.698000	 64.4363
6.716000	 64.4341
6.734000	 64.4714
6.752000	 64.4667
6.770000	 64.4382
6.788000	 64.4471
6.806000	 64.4713
6.824000	 64.4843
6.842000	 64.5135
6.860000	 64.5598
6.878000	 64.5513
6.896000	 64.471
6.914000	 64.4279
6.932000	 64.4957
6.950000	 64.5774
6.968000	 64.5478
6.986000	 64.4489
7.004000	 64.3672
7.022000	 64.328
7.040000	 64.3442
7.058000	 64.3828
7.076000	 64.3935
7.094000	 64.3846
7.112000	 64.3697
7.130000	 64.3387
7.148000	 64.3177
7.166000	 64.334
7.184000	 64.3539
7.202000	 64.3458
7.220000	 64.3351
7.238000	 64.3588
7.256000	 64.4232
7.274000	 64.5004
7.292000	 64.5295
7.310000	 64.465
7.328000	 64.3552
7.346000	 64.3007
7.364000	 64.3228
7.382000	 64.3523
7.400000	 64.3339
7.418000	 64.2779
7.436000	 64.2436
7.454000	 64.2932
7.472000	 64.3963
7.490000	 64.4353
7.508000	 64.379
7.526000	 64.3192
7.544000	 64.3014
7.562000	 64.2912
7.580000	 64.2906
7.598000	 64.3168
7.616000	 64.3343
7.634000	 64.3217
7.652000	 64.3024
7.670000	 64.2906
7.688000	 64.2913
7.706000	 64.3062
7.724000	 64.3116
7.742000	 64.2987
7.760000	 64.2931
7.778000	 64.3027
7.796000	 64.317
7.814000	 64.3331
7.832000	 64.334
7.850000	 64.3028
7.868000	 64.2683
7.886000	 64.2654
7.904000	 64.2899
7.922000	 64.3102
7.940000	 64.2934
7.958000	 64.2405
7.976000	 64.198
7.994000	 64.2045
8.012000	 64.2418
8.030000	 64.2712
8.048000	 64.2726
8.065999	 64.2374
8.084000	 64.172
8.102000	 64.1079
8.120000	 64.0736
8.138000	 64.0746
8.155999	 64.1078
8.173999	 64.1589
8.192000	 64.198
8.210000	 64.2165
8.228000	 64.2401
8.246000	 64.2754
8.263999	 64.2885
8.282000	 64.2624
8.300000	 64.2283
8.318000	 64.2109
8.336000	 64.1877
8.353999	 64.1301
8.372000	 64.0534
8.390000	 64.0068
8.408000	 64.0186
8.426000	 64.0713
8.443999	 64.1281
8.462000	 64.1665
8.480000	 64.1821
8.498000	 64.1722
8.516000	 64.135
8.533999	 64.0812
8.552000	 64.0297
8.570000	 63.9959
8.588000	 63.9893
8.606000	 64.0123
8.624000	 64.0525
8.641999	 64.0819
8.660000	 64.0811
8.678000	 64.0639
8.696000	 64.0632
8.714000	 64.088
8.731999	 64.1077
8.750000	 64.0855
8.768000	 64.0278
8.786000	 63.9845
8.804000	 63.9876
8.821999	 64.0149
8.840000	 64.0294
8.858000	 64.029
8.876000	 64.0334
8.894000	 64.0507
8.911999	 64.0741
8.930000	 64.097
8.948000	 64.1176
8.966000	 64.1348
8.984000	 64.1469
9.001999	 64.1598
9.020000	 64.1902
9.038000	 64.2456
9.056000	 64.2996
9.074000	 64.3077
9.092000	 64.2517
9.109999	 64.161
9.128000	 64.0846
9.146000	 64.0506
9.164000	 64.0538
9.182000	 64.076
9.199999	 64.1027
9.218000	 64.1236
9.236000	 64.1294
9.254000	 64.1175
9.272000	 64.0966
9.289999	 64.0795
9.308000	 64.0719
9.326000	 64.0691
9.344000	 64.0651
9.362000	 64.0584
9.379999	 64.0496
9.398000	 64.0385
9.416000	 64.0269
9.434000	 64.0239
9.452000	 64.0403
9.469999	 64.0791
9.488000	 64.1284
9.506000	 64.1647
9.524000	 64.1658
9.542000	 64.1281
9.560000	 64.0737
9.577999	 64.0366
9.596000	 64.0377
9.614000	 64.0705
9.632000	 64.109
9.650000	 64.1299
9.667999	 64.1299
9.686000	 64.1211
9.704000	 64.1163
9.722000	 64.1172
9.740000	 64.1165
9.757999	 64.1075
9.776000	 64.09
9.794000	 64.07
9.812000	 64.0548
9.830000	 64.049
9.847999	 64.0537
9.866000	 64.0668
9.884000	 64.0847
9.902000	 64.1063
9.920000	 64.1346
9.937999	 64.1738
9.956000	 64.2226
9.974000	 64.2718
9.992000	 64.3089
10.01	64.3269
10.028	64.3275
10.046	64.3178
10.064	64.3019
10.082	64.2799
10.1	64.2526
10.118	64.2282
10.136	64.2199
10.154	64.2363
10.172	64.2717
10.19	64.3056
10.208	64.3163
10.226	64.2957
10.244	64.2543
10.262	64.2145
10.28	64.1932
10.298	64.1936
10.316	64.2065
10.334	64.2205
10.352	64.2323
10.37	64.2477
10.388	64.2756
10.406	64.3183
10.424	64.3681
10.442	64.4104
10.46	64.4328
10.478	64.4299
10.496	64.4061
10.514	64.3705
10.532	64.3323
10.55	64.2956
10.568	64.2604
10.586	64.2249
10.604	64.1901
10.622	64.1606
10.64	64.1424
10.658	64.1388
10.676	64.1483
10.694	64.1658
10.712	64.1842
10.73	64.2008
10.748	64.2164
10.766	64.2351
10.784	64.2605
10.802	64.294
10.82	64.3341
10.838	64.3773
10.856	64.4183
10.874	64.45
10.892	64.4661
10.91	64.4615
10.928	64.4371
10.946	64.3991
10.964	64.3575
10.982	64.3223
11	64.2977
11.018	64.2812
11.036	64.2654
11.054	64.2426
11.072	64.2111
11.09	64.1764
11.108	64.148
11.126	64.1356
11.144	64.1431
11.162	64.1673
11.18	64.2
11.198	64.2309
11.216	64.2523
11.234	64.262
11.252	64.262
11.27	64.2552
11.288	64.2442
11.306	64.2298
11.324	64.2132
11.342	64.1985
11.36	64.1923
11.378	64.2009
11.396	64.2265
11.414	64.2649
11.432	64.3065
11.45	64.341
11.468	64.3612
11.486	64.3663
11.504	64.3607
11.522	64.3507
11.54	64.3396
11.558	64.3265
11.576	64.3078
11.594	64.2808
11.612	64.2459
11.63	64.2076
11.648	64.1716
11.666	64.1426
11.684	64.1219
11.702	64.1076
11.72	64.0969
11.738	64.0883
11.756	64.0828
11.774	64.0829
11.792	64.0914
11.81	64.1091
11.828	64.1337
11.846	64.1607
11.864	64.1851
11.882	64.203
11.9	64.2129
11.918	64.2149
11.936	64.2099
11.954	64.199
11.972	64.1835
11.99	64.1651
12.008	64.1473
12.026	64.1346
12.044	64.1322
12.062	64.1423
12.08	64.1628
12.098	64.1877
12.116	64.2082
12.134	64.2164
12.152	64.2088
12.17	64.187
12.188	64.157
12.206	64.1268
12.224	64.1032
12.242	64.0891
12.26	64.0832
12.278	64.0803
12.296	64.0739
12.314	64.058
12.332	64.0301
12.35	63.9915
12.368	63.9479
12.386	63.907
12.404	63.8778
12.422	63.8677
12.44	63.8813
12.458	63.9193
12.476	63.9781
12.494	64.0507
12.512	64.1279
12.53	64.2006
12.548	64.262
12.566	64.3083
12.584	64.3393
12.602	64.3572
12.62	64.3662
12.638	64.3704
12.656	64.3729
12.674	64.3751
12.692	64.376
12.71	64.3728
12.728	64.3614
12.746	64.3383
12.764	64.3021
12.782	64.254
12.8	64.1987
12.818	64.1434
12.836	64.0958
12.854	64.0621
12.872	64.0463
12.89	64.0479
12.908	64.0626
12.926	64.0834
12.944	64.103
12.962	64.1149
12.98	64.1155
12.998	64.1037
13.016	64.0812
13.034	64.0511
13.052	64.0165
13.07	63.9792
13.088	63.94
13.106	63.8995
13.124	63.8581
13.142	63.8177
13.16	63.7815
13.178	63.7543
13.196	63.7402
13.214	63.7425
13.232	63.762
13.25	63.7972
13.268	63.8438
13.286	63.8967
13.304	63.9509
13.322	64.0036
13.34	64.0546
13.358	64.1051
13.376	64.1571
13.394	64.2124
13.412	64.2708
13.43	64.3293
13.448	64.3823
13.466	64.4236
13.484	64.4474
13.502	64.4504
13.52	64.4331
13.538	64.3992
13.556	64.3549
13.574	64.3065
13.592	64.2586
13.61	64.2127
13.628	64.1667
13.646	64.1159
13.664	64.0542
13.682	63.9773
13.7	63.8834
13.718	63.7749
13.736	63.6592
13.754	63.5462
13.772	63.4489
13.79	63.3787
13.808	63.3453
13.826	63.3533
13.844	63.4031
13.862	63.4902
13.88	63.6066
13.898	63.7412
13.916	63.882
13.934	64.0177
13.952	64.1389
13.97	64.2385
13.988	64.3123
14.006	64.3595
14.024	64.382
14.042	64.384
14.06	64.3702
14.078	64.3461
14.096	64.3161
14.114	64.2839
14.132	64.2518
14.15	64.2211
14.168	64.1928
14.186	64.1679
14.204	64.1485
14.222	64.1373
14.24	64.1373
14.258	64.1509
14.276	64.18
14.294	64.2245
14.312	64.2816
14.33	64.3458
14.348	64.4094
14.366	64.4634
14.384	64.4986
14.402	64.508
14.42	64.4877
14.438	64.4376
14.456	64.3613
14.474	64.2656
14.492	64.1596
14.51	64.0529
14.528	63.9533
14.546	63.8651
14.564	63.7897
14.582	63.7248
14.6	63.6654
14.618	63.6051
14.636	63.5372
14.654	63.4583
14.672	63.3677
14.69	63.2684
14.708	63.166
14.726	63.0682
14.744	62.985
14.762	62.9242
14.78	62.8918
14.798	62.8909
14.816	62.9214
14.834	62.9805
14.852	63.0621
14.87	63.1593
14.888	63.264
14.906	63.3686
14.924	63.4659
14.942	63.5495
14.96	63.6155
14.978	63.6613
14.996	63.6855
15.014	63.6881
15.032	63.6705
15.05	63.6355
15.068	63.5865
15.086	63.5274
15.104	63.463
15.122	63.3987
15.14	63.3396
15.158	63.2894
15.176	63.2513
15.194	63.2276
15.212	63.2191
15.23	63.2245
15.248	63.2419
15.266	63.2686
15.284	63.3005
15.302	63.3347
15.32	63.3692
15.338	63.4025
15.356	63.4348
15.374	63.4675
15.392	63.5032
15.41	63.5446
15.428	63.595
15.446	63.6576
15.464	63.7337
15.482	63.8238
15.5	63.9271
15.518	64.0407
15.536	64.1606
15.554	64.2824
15.572	64.4011
15.59	64.5106
15.608	64.6068
15.626	64.6865
15.644	64.7467
15.662	64.7864
15.68	64.8063
15.698	64.8076
15.716	64.7931
15.734	64.7666
15.752	64.7317
15.77	64.6918
15.788	64.651
15.806	64.6114
15.824	64.5748
15.842	64.5426
15.86	64.515
15.878	64.4916
15.896	64.4718
15.914	64.4539
15.932	64.4366
15.95	64.419
15.968	64.3997
15.986	64.3776
16.004	64.3521
16.022	64.3223
16.04	64.2875
16.058	64.2472
16.076	64.2012
16.094	64.1493
16.112	64.0919
16.13	64.0295
16.148	63.9627
16.166	63.8931
16.184	63.8224
16.202	63.7527
16.22	63.6876
16.238	63.6291
16.256	63.5795
16.274	63.5417
16.292	63.5171
16.31	63.5067
16.328	63.5111
16.346	63.5292
16.364	63.5599
16.382	63.6007
16.4	63.649
16.418	63.7028
16.436	63.7589
16.454	63.8154
16.472	63.8707
16.49	63.9234
16.508	63.9733
16.526	64.0205
16.544	64.0659
16.562	64.1105
16.58	64.1551
16.598	64.2012
16.616	64.2487
16.634	64.2981
16.652	64.349
16.67	64.4005
16.688	64.4516
16.706	64.5003
16.724	64.5452
16.742	64.5841
16.76	64.6153
16.778	64.638
16.796	64.6503
16.814	64.6519
16.832	64.6427
16.85	64.6222
16.868	64.5911
16.886	64.5499
16.904	64.4997
16.922	64.4414
16.94	64.376
16.958	64.3051
16.976	64.2297
16.994	64.1519
17.012	64.0735
17.03	63.9959
17.048	63.9217
17.066	63.8526
17.084	63.7907
17.102	63.7385
17.12	63.6972
17.138	63.6694
17.156	63.6555
17.174	63.6567
17.192	63.6729
17.21	63.7039
17.228	63.7486
17.246	63.8053
17.264	63.8729
17.282	63.9483
17.3	64.0301
17.318	64.1152
17.336	64.2007
17.354	64.2849
17.372	64.3646
17.39	64.4388
17.408	64.5052
17.426	64.5626
17.444	64.61
17.462	64.6463
17.48	64.6712
17.498	64.6845
17.516	64.6863
17.534	64.6767
17.552	64.6569
17.57	64.6271
17.588	64.5887
17.606	64.5429
17.624	64.4912
17.642	64.4356
17.66	64.377
17.678	64.3186
17.696	64.2611
17.714	64.2073
17.732	64.1584
17.75	64.116
17.768	64.0818
17.786	64.0563
17.804	64.0408
17.822	64.0353
17.84	64.0403
17.858	64.0554
17.876	64.0804
17.894	64.1143
17.912	64.1568
17.93	64.2061
17.948	64.2618
17.966	64.3213
17.984	64.3836
18.002	64.4461
18.02	64.5066
18.038	64.5633
18.056	64.613
18.074	64.6547
18.092	64.6853
18.11	64.7043
18.128	64.7097
18.146	64.7014
18.164	64.679
18.182	64.6433
18.2	64.595
18.218	64.5361
18.236	64.4673
18.254	64.3919
18.272	64.3106
18.29	64.227
18.308	64.1415
18.326	64.0576
18.344	63.9757
18.362	63.8986
18.38	63.8267
18.398	63.7618
18.416	63.7043
18.434	63.6552
18.452	63.6147
18.47	63.5831
18.488	63.56
18.506	63.5454
18.524	63.5383
18.542	63.5389
18.56	63.5449
18.578	63.5564
18.596	63.5712
18.614	63.5893
18.632	63.6086
18.65	63.629
18.668	63.6491
18.686	63.669
18.704	63.6876
18.722	63.705
18.74	63.7211
18.758	63.7358
18.776	63.7491
18.794	63.761
18.812	63.7717
18.83	63.7813
18.848	63.7898
18.866	63.7972
18.884	63.8036
18.902	63.8089
18.92	63.8131
18.938	63.8163
18.956	63.8182
18.974	63.8191
18.992	63.819
19.01	63.8179
19.028	63.816
19.046	63.8135
19.064	63.8108
19.082	63.808
19.1	63.8055
19.118	63.8035
19.136	63.8025
19.154	63.8028
19.172	63.8049
19.19	63.809
19.208	63.8157
19.226	63.8251
19.244	63.8377
19.262	63.8535
19.28	63.8725
19.298	63.8947
19.316	63.9193
19.334	63.9464
19.352	63.9744
19.37	64.0032
19.388	64.0308
19.406	64.0575
19.424	64.0807
19.442	64.1007
19.46	64.1151
19.478	64.1237
19.496	64.1253
19.514	64.1194
19.532	64.1059
19.55	64.0845
19.568	64.056
19.586	64.0208
19.604	63.9799
19.622	63.9349
19.64	63.8865
19.658	63.8379
19.676	63.7888
19.694	63.743
19.712	63.7002
19.73	63.6636
19.748	63.6331
19.766	63.6106
19.784	63.5966
19.802	63.5912
19.82	63.5951
19.838	63.6072
19.856	63.6272
19.874	63.6545
19.892	63.6868
19.91	63.7244
19.928	63.7639
19.946	63.8056
19.964	63.8463
19.982	63.8859
20	63.9224
20.018	63.9545
20.036	63.9821
20.054	64.0036
20.072	64.0194
20.09	64.029
20.108	64.0324
20.126	64.0303
20.144	64.0225
20.162	64.0102
20.18	63.9938
20.198	63.974
20.216	63.9522
20.234	63.9283
20.252	63.9043
20.27	63.88
20.288	63.8571
20.306	63.8356
20.324	63.8165
20.342	63.8005
20.36	63.7877
20.378	63.7793
20.396	63.7751
20.414	63.7757
20.432	63.7811
20.45	63.7917
20.468	63.8077
20.486	63.8289
20.504	63.855
20.522	63.886
20.54	63.9206
20.558	63.9594
20.576	64.0003
20.594	64.0431
20.612	64.0867
20.63	64.1289
20.648	64.17
20.666	64.2069
20.684	64.2401
20.702	64.2674
20.72	64.2874
20.738	64.3005
20.756	64.3048
20.774	64.3006
20.792	64.2879
20.81	64.2662
20.828	64.2368
20.846	64.2004
20.864	64.1572
20.882	64.1105
20.9	64.0595
20.918	64.0073
20.936	63.956
20.954	63.9054
20.972	63.8599
20.99	63.8187
21.008	63.7841
21.026	63.7576
21.044	63.7389
21.062	63.7292
21.08	63.7286
21.098	63.736
21.116	63.7517
21.134	63.7744
21.152	63.8018
21.17	63.8348
21.188	63.869
21.206	63.9044
21.224	63.9394
21.242	63.9703
21.26	63.9982
21.278	64.0196
21.296	64.0338
21.314	64.0405
21.332	64.0379
21.35	64.0265
21.368	64.0064
21.386	63.9772
21.404	63.9398
21.422	63.8963
21.44	63.8458
21.458	63.7917
21.476	63.7349
21.494	63.6758
21.512	63.6186
21.53	63.5624
21.548	63.5097
21.566	63.4628
21.584	63.4208
21.602	63.3862
21.62	63.3592
21.638	63.3397
21.656	63.3284
21.674	63.3253
21.692	63.3291
21.71	63.3399
21.728	63.3571
21.746	63.3786
21.764	63.4053
21.782	63.435
21.8	63.4661
21.818	63.4992
21.836	63.5315
21.854	63.563
21.872	63.5932
21.89	63.6199
21.908	63.6439
21.926	63.6644
21.944	63.6805
21.962	63.6926
21.98	63.7007
21.998	63.7046
22.016	63.7046
22.034	63.701
22.052	63.6936
22.07	63.6832
22.088	63.6703
22.106	63.6548
22.124	63.6378
22.142	63.6195
22.16	63.5999
22.178	63.5801
22.196	63.5598
22.214	63.5394
22.232	63.5195
22.25	63.4999
22.268	63.4804
22.286	63.4612
22.304	63.4422
22.322	63.4228
22.34	63.4031
22.358	63.3829
22.376	63.3612
22.394	63.3383
22.412	63.3137
22.43	63.2867
22.448	63.2577
22.466	63.2263
22.484	63.1921
22.502	63.1553
22.52	63.1161
22.538	63.0745
22.556	63.0305
22.574	62.9855
22.592	62.9391
22.61	62.892
22.628	62.8462
22.646	62.8009
22.664	62.7574
22.682	62.7183
22.7	62.6825
22.718	62.6516
22.736	62.6278
22.754	62.6099
22.772	62.5995
22.79	62.5979
22.808	62.6046
22.826	62.6197
22.844	62.6437
22.862	62.6765
22.88	62.7164
22.898	62.7633
22.916	62.8174
22.934	62.8752
22.952	62.9362
22.97	63.0006
22.988	63.064
23.006	63.1259
23.024	63.1866
23.042	63.2411
23.06	63.2895
23.078	63.3316
23.096	63.3638
23.114	63.386
23.132	63.3984
23.15	63.399
23.168	63.3875
23.186	63.3645
23.204	63.33
23.222	63.2833
23.24	63.2255
23.258	63.1587
23.276	63.0817
23.294	62.9959
23.312	62.9052
23.33	62.8086
23.348	62.7071
23.366	62.605
23.384	62.5018
23.402	62.3979
23.42	62.2969
23.438	62.1989
23.456	62.1037
23.474	62.0138
23.492	61.9297
23.51	61.8508
23.528	61.7778
23.546	61.7112
23.564	61.6504
23.582	61.5955
23.6	61.5464
23.618	61.5032
23.636	61.4652
23.654	61.4321
23.672	61.4042
23.69	61.3811
23.708	61.3624
23.726	61.3483
23.744	61.3388
23.762	61.3338
23.78	61.3332
23.798	61.3374
23.816	61.3468
23.834	61.361
23.852	61.3804
23.87	61.4055
23.888	61.4363
23.906	61.4727
23.924	61.5141
23.942	61.561
23.96	61.613
23.978	61.6687
23.996	61.7285
24.014	61.7925
24.032	61.8576
24.05	61.9221
24.068	61.988
24.086	62.0517
24.104	62.1102
24.122	62.1652
24.14	62.2153
24.158	62.2576
24.176	62.2927
24.194	62.3206
24.212	62.3409
24.23	62.3525
24.248	62.3562
24.266	62.3537
24.284	62.3454
24.302	62.3301
24.32	62.3111
24.338	62.2909
24.356	62.2669
24.374	62.2424
24.392	62.2225
24.41	62.2062
24.428	62.1935
24.446	62.1884
24.464	62.1926
24.482	62.2043
24.5	62.2254
24.518	62.2579
24.536	62.3018
24.554	62.3553
24.572	62.4164
24.59	62.4876
24.608	62.5667
24.626	62.648
24.644	62.7299
24.662	62.8158
24.68	62.8978
24.698	62.969
24.716	63.035
24.734	63.0909
24.752	63.1275
24.77	63.1445
24.788	63.1444
24.806	63.1209
24.824	63.0695
24.842	62.9932
24.86	62.8914
24.878	62.7627
24.896	62.6049
24.914	62.4209
24.932	62.2155
24.95	61.9899
24.968	61.7402
24.986	61.4757
25.004	61.2059
25.022	60.9235
25.04	60.6336
25.058	60.3499
25.076	60.0774
25.094	59.8076
25.112	59.5531
25.13	59.3262
25.148	59.1203
25.166	58.938
25.184	58.7898
25.202	58.6807
25.22	58.6048
25.238	58.5664
25.256	58.5704
25.274	58.6174
25.292	58.7047
25.31	58.8298
25.328	58.9931
25.346	59.1978
25.364	59.4354
25.382	59.6969
25.4	59.9876
25.418	60.306
25.436	60.6384
25.454	60.9753
25.472	61.328
25.49	61.6861
25.508	62.0345
25.526	62.3721
25.544	62.7058
25.562	63.0213
25.58	63.3053
25.598	63.566
25.616	63.8005
25.634	63.9978
25.652	64.1512
25.67	64.2686
25.688	64.3443
25.706	64.3709
25.724	64.3473
25.742	64.2769
25.76	64.1575
25.778	63.9868
25.796	63.7639
25.814	63.4914
25.832	63.1728
25.85	62.8092
25.868	62.3962
25.886	61.9411
25.904	61.4525
25.922	60.9304
25.94	60.3702
25.958	59.7829
25.976	59.1796
25.994	58.5538
26.012	57.9066
26.03	57.251
26.048	56.598
26.066	55.9358
26.084	55.2719
26.102	54.6209
26.12	53.9916
26.138	53.3717
26.156	52.771
26.174	52.2026
26.192	51.6704
26.21	51.1659
26.228	50.6972
26.246	50.2737
26.264	49.8957
26.282	49.559
26.3	49.2673
26.318	49.0241
26.336	48.8296
26.354	48.6818
26.372	48.5801
26.39	48.5242
26.408	48.5172
26.426	48.5557
26.444	48.6335
26.462	48.7461
26.48	48.9014
26.498	49.0927
26.516	49.3086
26.534	49.5418
26.552	49.8035
26.57	50.0849
26.588	50.3732
26.606	50.661
26.624	50.961
26.642	51.2627
26.66	51.5527
26.678	51.8236
26.696	52.0864
26.714	52.334
26.732	52.5579
26.75	52.7536
26.768	52.9281
26.786	53.0772
26.804	53.196
26.822	53.2801
26.84	53.3315
26.858	53.3544
26.876	53.353
26.894	53.327
26.912	53.2707
26.93	53.1939
26.948	53.1074
26.966	53.0118
26.984	52.8912
27.002	52.7693
27.02	52.6727
27.028	52.6476