File: Bakgrunnsmateriale/MATLAB/FTIR/ftir_data/subAa/Mapping_121/BZ1503107-1_t36.asc
PE IR       SPECTRUM    SPECTRUM    ASCII       PEDS        1.60
  -1
BZ2167~1.ASC
17/04/07
16:10:31.00
17/04/07
16:10:57.00
tln
$BZ1503107-1_t0036$<tbV0>[7.8,-5.2,8.0,0.0,27,1,0]
27.028
64

2002,4.07
MIRTGS : RIGHTBACK : INTERNAL 2
MIR : ON : INTERNAL 2
OPTKBR

0.200000
8
8.000000
FILLER
RATIO
SPECTRUM
UNLOCKED 256

DOUBLE
64
COMBINED
1
0
0

0.002000
RATIO

1
0
TRUE
51149
0
LEFT NOT FITTED RIGHT NOT FITTED 0
NONE
NONE
15600
12
4.427000
51148
TRUE
1 0 8 72 0 0 0 0

15798

#HDR
-1
-1
#GR
µM
%T
2.38419e-05
0.0
2.000000
0.002000
12515
8
77.5598
40.355
#DATA
2.000000	 65.3729
2.018000	 63.9306
2.036000	 64.6408
2.054000	 64.8538
2.072000	 65.0795
2.090000	 64.8799
2.108000	 65.2582
2.126000	 65.5363
2.144000	 65.0173
2.162000	 64.811
2.180000	 64.8205
2.198000	 64.7354
2.216000	 65.0173
2.234000	 65.071
2.252000	 65.8522
2.270000	 68.2859
2.288000	 64.794
2.306000	 64.979
2.324000	 65.2112
2.342000	 64.8566
2.360000	 65.0365
2.378000	 65.1231
2.396000	 64.8986
2.414000	 65.1628
2.432000	 64.8436
2.450000	 65.171
2.468000	 65.0276
2.486000	 65.224
2.504000	 65.3905
2.522000	 65.17
2.540000	 65.1456
2.558000	 65.0776
2.576000	 65.1853
2.594000	 65.3133
2.612000	 65.1278
2.630000	 65.2566
2.648000	 65.1701
2.666000	 65.1337
2.684000	 65.0788
2.702000	 65.3678
2.720000	 65.1212
2.738000	 65.3391
2.756000	 65.3563
2.774000	 65.3314
2.792000	 65.3026
2.810000	 65.2413
2.828000	 65.0333
2.846000	 65.2976
2.864000	 65.1897
2.882000	 65.1353
2.900000	 65.1481
2.918000	 65.3572
2.936000	 65.2697
2.954000	 65.2879
2.972000	 65.1583
2.990000	 65.2909
3.008000	 65.1547
3.026000	 64.9993
3.044000	 65.1824
3.062000	 65.1466
3.080000	 65.2476
3.098000	 65.0749
3.116000	 64.9642
3.134000	 64.989
3.152000	 65.0605
3.170000	 65.0495
3.188000	 64.8602
3.206000	 65.02
3.224000	 65.15
3.242000	 65.0663
3.260000	 65.1864
3.278000	 65.1315
3.296000	 65.1735
3.314000	 65.0887
3.332000	 65.1047
3.350000	 65.2035
3.368000	 64.9641
3.386000	 64.9629
3.404000	 65.1723
3.422000	 65.1076
3.440000	 64.932
3.458000	 65.0824
3.476000	 64.9554
3.494000	 65.1602
3.512000	 64.9571
3.530000	 64.9764
3.548000	 64.9835
3.566000	 64.9785
3.584000	 65.0876
3.602000	 65.0573
3.620000	 65.282
3.638000	 65.1788
3.656000	 65.034
3.674000	 65.026
3.692000	 64.9376
3.710000	 65.1406
3.728000	 65.0321
3.746000	 65.1499
3.764000	 65.0832
3.782000	 65.0792
3.800000	 65.0639
3.818000	 64.9744
3.836000	 65.0126
3.854000	 65.0395
3.872000	 65.0642
3.890000	 65.0035
3.908000	 64.9985
3.926000	 64.8849
3.944000	 65.0163
3.962000	 65.0252
3.980000	 64.9502
3.998000	 65.1034
4.016000	 64.8691
4.034000	 64.9355
4.052000	 64.9084
4.070000	 64.8978
4.088000	 64.9643
4.106000	 64.9985
4.124000	 64.882
4.141999	 64.8375
4.160000	 64.9136
4.178000	 65.0669
4.196000	 64.8736
4.214000	 64.8547
4.232000	 64.8878
4.250000	 64.852
4.268000	 64.9087
4.286000	 64.8639
4.304000	 64.8016
4.322000	 64.937
4.340000	 64.8469
4.358000	 64.8751
4.375999	 64.8672
4.394000	 64.7999
4.412000	 64.6916
4.430000	 64.7784
4.448000	 64.8054
4.466000	 64.8073
4.484000	 64.922
4.502000	 64.8079
4.520000	 64.8483
4.538000	 64.9485
4.556000	 64.919
4.574000	 64.8513
4.592000	 64.9516
4.609999	 64.8546
4.628000	 64.8541
4.646000	 64.8362
4.664000	 64.8737
4.682000	 64.7757
4.700000	 64.7716
4.718000	 64.8465
4.736000	 64.8923
4.754000	 64.845
4.772000	 64.8072
4.790000	 64.8113
4.808000	 64.7519
4.826000	 64.873
4.843999	 64.889
4.862000	 64.846
4.880000	 64.797
4.898000	 64.7403
4.916000	 64.7694
4.934000	 64.8269
4.952000	 64.8659
4.970000	 64.8175
4.988000	 64.9064
5.006000	 64.8597
5.024000	 64.7762
5.042000	 64.7251
5.060000	 64.7187
5.077999	 64.8409
5.096000	 64.8492
5.114000	 64.7482
5.132000	 64.7419
5.150000	 64.7458
5.168000	 64.7101
5.186000	 64.6346
5.204000	 64.8267
5.222000	 64.713
5.240000	 64.6797
5.258000	 64.6852
5.276000	 64.6899
5.294000	 64.7308
5.312000	 64.6329
5.330000	 64.5784
5.348000	 64.6803
5.366000	 64.6139
5.384000	 64.5772
5.402000	 64.6502
5.420000	 64.5752
5.438000	 64.6354
5.456000	 64.6081
5.474000	 64.6414
5.492000	 64.6717
5.510000	 64.715
5.528000	 64.7078
5.546000	 64.6729
5.564000	 64.5854
5.582000	 64.5167
5.600000	 64.5518
5.618000	 64.6416
5.636000	 64.5843
5.654000	 64.538
5.672000	 64.5582
5.690000	 64.548
5.708000	 64.5314
5.726000	 64.3573
5.744000	 64.2987
5.762000	 64.3289
5.780000	 64.4046
5.798000	 64.4499
5.816000	 64.4536
5.834000	 64.4388
5.852000	 64.4591
5.870000	 64.5775
5.888000	 64.7032
5.906000	 64.7026
5.923999	 64.6948
5.942000	 64.6138
5.960000	 64.5367
5.978000	 64.5767
5.996000	 64.5677
6.014000	 64.5153
6.032000	 64.4766
6.050000	 64.4306
6.068000	 64.3774
6.086000	 64.3635
6.104000	 64.4423
6.122000	 64.5237
6.140000	 64.5232
6.158000	 64.4436
6.176000	 64.3474
6.194000	 64.3741
6.212000	 64.4684
6.230000	 64.4339
6.248000	 64.3578
6.266000	 64.407
6.284000	 64.5374
6.302000	 64.5526
6.320000	 64.4806
6.338000	 64.4007
6.356000	 64.3336
6.374000	 64.3866
6.392000	 64.544
6.410000	 64.5981
6.428000	 64.5012
6.446000	 64.4148
6.464000	 64.4091
6.482000	 64.3847
6.500000	 64.3218
6.518000	 64.3447
6.536000	 64.3662
6.554000	 64.31
6.572000	 64.2625
6.590000	 64.2993
6.608000	 64.3735
6.626000	 64.4129
6.644000	 64.4405
6.662000	 64.484
6.680000	 64.5043
6.698000	 64.4793
6.716000	 64.4873
6.734000	 64.5167
6.752000	 64.4913
6.770000	 64.4009
6.788000	 64.301
6.806000	 64.2971
6.824000	 64.3218
6.842000	 64.2639
6.860000	 64.2651
6.878000	 64.3567
6.896000	 64.3661
6.914000	 64.3065
6.932000	 64.3108
6.950000	 64.3607
6.968000	 64.3528
6.986000	 64.2895
7.004000	 64.2334
7.022000	 64.2161
7.040000	 64.256
7.058000	 64.3173
7.076000	 64.3314
7.094000	 64.3047
7.112000	 64.2649
7.130000	 64.2205
7.148000	 64.1942
7.166000	 64.1833
7.184000	 64.1854
7.202000	 64.2066
7.220000	 64.2025
7.238000	 64.1632
7.256000	 64.1524
7.274000	 64.2027
7.292000	 64.2686
7.310000	 64.2803
7.328000	 64.2217
7.346000	 64.1395
7.364000	 64.0777
7.382000	 64.0567
7.400000	 64.0943
7.418000	 64.1869
7.436000	 64.2836
7.454000	 64.3357
7.472000	 64.3382
7.490000	 64.2995
7.508000	 64.2351
7.526000	 64.1769
7.544000	 64.1393
7.562000	 64.1277
7.580000	 64.1589
7.598000	 64.2119
7.616000	 64.2372
7.634000	 64.2496
7.652000	 64.2945
7.670000	 64.3457
7.688000	 64.3425
7.706000	 64.2857
7.724000	 64.2341
7.742000	 64.2247
7.760000	 64.2313
7.778000	 64.2018
7.796000	 64.1263
7.814000	 64.0536
7.832000	 64.0296
7.850000	 64.0448
7.868000	 64.0605
7.886000	 64.0615
7.904000	 64.0679
7.922000	 64.0976
7.940000	 64.1423
7.958000	 64.1874
7.976000	 64.2231
7.994000	 64.2296
8.012000	 64.1966
8.030000	 64.1523
8.048000	 64.1295
8.065999	 64.1218
8.084000	 64.1131
8.102000	 64.1139
8.120000	 64.127
8.138000	 64.1272
8.155999	 64.1079
8.173999	 64.1003
8.192000	 64.1269
8.210000	 64.1754
8.228000	 64.2169
8.246000	 64.2262
8.263999	 64.1945
8.282000	 64.1399
8.300000	 64.0988
8.318000	 64.089
8.336000	 64.0946
8.353999	 64.094
8.372000	 64.0859
8.390000	 64.0808
8.408000	 64.082
8.426000	 64.0912
8.443999	 64.1201
8.462000	 64.1692
8.480000	 64.2071
8.498000	 64.1943
8.516000	 64.1269
8.533999	 64.0453
8.552000	 64.0011
8.570000	 64.0205
8.588000	 64.0843
8.606000	 64.1332
8.624000	 64.1122
8.641999	 64.0222
8.660000	 63.9237
8.678000	 63.8797
8.696000	 63.9037
8.714000	 63.9606
8.731999	 64.0049
8.750000	 64.0116
8.768000	 63.9813
8.786000	 63.9356
8.804000	 63.9031
8.821999	 63.9
8.840000	 63.9197
8.858000	 63.942
8.876000	 63.9566
8.894000	 63.9699
8.911999	 63.991
8.930000	 64.0142
8.948000	 64.0238
8.966000	 64.0157
8.984000	 64.0118
9.001999	 64.0422
9.020000	 64.108
9.038000	 64.169
9.056000	 64.1729
9.074000	 64.105
9.092000	 64.0027
9.109999	 63.9213
9.128000	 63.8903
9.146000	 63.9023
9.164000	 63.9338
9.182000	 63.9664
9.199999	 63.9905
9.218000	 64.0027
9.236000	 64.0067
9.254000	 64.0107
9.272000	 64.0168
9.289999	 64.0159
9.308000	 63.9986
9.326000	 63.9718
9.344000	 63.9572
9.362000	 63.9685
9.379999	 63.9947
9.398000	 64.0105
9.416000	 64.0005
9.434000	 63.9732
9.452000	 63.9487
9.469999	 63.9377
9.488000	 63.9363
9.506000	 63.9371
9.524000	 63.9392
9.542000	 63.9453
9.560000	 63.951
9.577999	 63.9453
9.596000	 63.9237
9.614000	 63.8998
9.632000	 63.8986
9.650000	 63.9354
9.667999	 64.0019
9.686000	 64.0754
9.704000	 64.1386
9.722000	 64.1892
9.740000	 64.2317
9.757999	 64.2635
9.776000	 64.2739
9.794000	 64.2578
9.812000	 64.2266
9.830000	 64.201
9.847999	 64.1926
9.866000	 64.1946
9.884000	 64.1907
9.902000	 64.1715
9.920000	 64.1414
9.937999	 64.1139
9.956000	 64.0998
9.974000	 64.1002
9.992000	 64.1095
10.01	64.1206
10.028	64.1307
10.046	64.1389
10.064	64.144
10.082	64.1434
10.1	64.1355
10.118	64.124
10.136	64.1181
10.154	64.1268
10.172	64.1501
10.19	64.1736
10.208	64.1775
10.226	64.1498
10.244	64.0963
10.262	64.0382
10.28	63.9974
10.298	63.9843
10.316	63.9934
10.334	64.0109
10.352	64.0248
10.37	64.03
10.388	64.0264
10.406	64.0144
10.424	63.9934
10.442	63.9648
10.46	63.9342
10.478	63.9101
10.496	63.8994
10.514	63.903
10.532	63.9154
10.55	63.9276
10.568	63.9332
10.586	63.9322
10.604	63.9305
10.622	63.9358
10.64	63.9513
10.658	63.9738
10.676	63.9951
10.694	64.0084
10.712	64.0119
10.73	64.0105
10.748	64.0119
10.766	64.0204
10.784	64.0337
10.802	64.0439
10.82	64.0444
10.838	64.034
10.856	64.0192
10.874	64.0111
10.892	64.0179
10.91	64.0407
10.928	64.072
10.946	64.0989
10.964	64.1092
10.982	64.0975
11	64.0683
11.018	64.034
11.036	64.0088
11.054	64.0032
11.072	64.0184
11.09	64.047
11.108	64.0773
11.126	64.0977
11.144	64.102
11.162	64.091
11.18	64.0696
11.198	64.0441
11.216	64.0192
11.234	63.9977
11.252	63.9813
11.27	63.9718
11.288	63.9722
11.306	63.9849
11.324	64.0104
11.342	64.0449
11.36	64.0807
11.378	64.1069
11.396	64.1143
11.414	64.0985
11.432	64.0635
11.45	64.0198
11.468	63.9831
11.486	63.9662
11.504	63.9753
11.522	64.0076
11.54	64.0536
11.558	64.0997
11.576	64.1341
11.594	64.1518
11.612	64.1536
11.63	64.1452
11.648	64.1335
11.666	64.1238
11.684	64.1177
11.702	64.1135
11.72	64.1079
11.738	64.098
11.756	64.0833
11.774	64.0654
11.792	64.0482
11.81	64.0355
11.828	64.0299
11.846	64.0311
11.864	64.0362
11.882	64.0401
11.9	64.0365
11.918	64.0201
11.936	63.9888
11.954	63.9438
11.972	63.8902
11.99	63.8349
12.008	63.7852
12.026	63.7465
12.044	63.7212
12.062	63.7072
12.08	63.7004
12.098	63.6962
12.116	63.6914
12.134	63.6857
12.152	63.6817
12.17	63.683
12.188	63.6926
12.206	63.711
12.224	63.7361
12.242	63.7642
12.26	63.7921
12.278	63.8172
12.296	63.8385
12.314	63.8556
12.332	63.8681
12.35	63.875
12.368	63.875
12.386	63.867
12.404	63.8516
12.422	63.8321
12.44	63.8146
12.458	63.807
12.476	63.8167
12.494	63.848
12.512	63.9008
12.53	63.9688
12.548	64.0415
12.566	64.1071
12.584	64.1558
12.602	64.1826
12.62	64.1889
12.638	64.1815
12.656	64.1702
12.674	64.1639
12.692	64.1669
12.71	64.1782
12.728	64.1906
12.746	64.1943
12.764	64.1797
12.782	64.1418
12.8	64.0817
12.818	64.0071
12.836	63.9302
12.854	63.8642
12.872	63.8193
12.89	63.8012
12.908	63.8094
12.926	63.8379
12.944	63.877
12.962	63.9157
12.98	63.9446
12.998	63.9574
13.016	63.9517
13.034	63.9286
13.052	63.8921
13.07	63.8477
13.088	63.801
13.106	63.757
13.124	63.7191
13.142	63.6886
13.16	63.6661
13.178	63.6504
13.196	63.6403
13.214	63.6344
13.232	63.6321
13.25	63.6335
13.268	63.6386
13.286	63.6471
13.304	63.6574
13.322	63.6666
13.34	63.6707
13.358	63.6656
13.376	63.6483
13.394	63.6182
13.412	63.5776
13.43	63.5325
13.448	63.4911
13.466	63.4626
13.484	63.4552
13.502	63.474
13.52	63.5196
13.538	63.5879
13.556	63.6709
13.574	63.7573
13.592	63.8353
13.61	63.8946
13.628	63.9279
13.646	63.9318
13.664	63.9068
13.682	63.8576
13.7	63.7917
13.718	63.7183
13.736	63.6469
13.754	63.5864
13.772	63.5428
13.79	63.5194
13.808	63.5154
13.826	63.5272
13.844	63.5484
13.862	63.5716
13.88	63.5891
13.898	63.5946
13.916	63.5847
13.934	63.5589
13.952	63.5203
13.97	63.4748
13.988	63.4297
14.006	63.3941
14.024	63.376
14.042	63.382
14.06	63.4148
14.078	63.4742
14.096	63.556
14.114	63.6532
14.132	63.7564
14.15	63.8556
14.168	63.9412
14.186	64.0058
14.204	64.044
14.222	64.0545
14.24	64.0398
14.258	64.0054
14.276	63.9593
14.294	63.9102
14.312	63.8666
14.33	63.8356
14.348	63.8216
14.366	63.8269
14.384	63.8499
14.402	63.8861
14.42	63.9291
14.438	63.9715
14.456	64.006
14.474	64.0257
14.492	64.025
14.51	64.0006
14.528	63.9516
14.546	63.8796
14.564	63.7878
14.582	63.6808
14.6	63.5643
14.618	63.4443
14.636	63.3269
14.654	63.2168
14.672	63.118
14.69	63.0333
14.708	62.9646
14.726	62.912
14.744	62.8753
14.762	62.8527
14.78	62.8431
14.798	62.8451
14.816	62.8581
14.834	62.8818
14.852	62.9157
14.87	62.9593
14.888	63.011
14.906	63.0684
14.924	63.1289
14.942	63.1879
14.96	63.2416
14.978	63.2868
14.996	63.3211
15.014	63.3438
15.032	63.3566
15.05	63.3624
15.068	63.3645
15.086	63.3662
15.104	63.3705
15.122	63.3796
15.14	63.3937
15.158	63.4122
15.176	63.4337
15.194	63.4561
15.212	63.4776
15.23	63.4978
15.248	63.517
15.266	63.5366
15.284	63.559
15.302	63.5866
15.32	63.6208
15.338	63.6625
15.356	63.7115
15.374	63.7645
15.392	63.8178
15.41	63.8674
15.428	63.9089
15.446	63.9386
15.464	63.9554
15.482	63.9595
15.5	63.953
15.518	63.9411
15.536	63.9296
15.554	63.9243
15.572	63.931
15.59	63.9557
15.608	64.0007
15.626	64.0673
15.644	64.1556
15.662	64.2623
15.68	64.3839
15.698	64.5162
15.716	64.6535
15.734	64.7905
15.752	64.9229
15.77	65.0465
15.788	65.1566
15.806	65.2494
15.824	65.3218
15.842	65.3706
15.86	65.3922
15.878	65.3844
15.896	65.3452
15.914	65.2722
15.932	65.1661
15.95	65.0283
15.968	64.8608
15.986	64.6696
16.004	64.4596
16.022	64.2364
16.04	64.0089
16.058	63.7838
16.076	63.5668
16.094	63.365
16.112	63.1834
16.13	63.0247
16.148	62.8912
16.166	62.784
16.184	62.7031
16.202	62.6482
16.22	62.6188
16.238	62.6133
16.256	62.6304
16.274	62.6685
16.292	62.726
16.31	62.8012
16.328	62.8917
16.346	62.994
16.364	63.1054
16.382	63.2209
16.4	63.3362
16.418	63.448
16.436	63.5512
16.454	63.6431
16.472	63.7217
16.49	63.7856
16.508	63.8362
16.526	63.8745
16.544	63.9048
16.562	63.9309
16.58	63.956
16.598	63.9863
16.616	64.0243
16.634	64.0724
16.652	64.1326
16.67	64.2035
16.688	64.2841
16.706	64.37
16.724	64.4576
16.742	64.5418
16.76	64.6168
16.778	64.6794
16.796	64.7243
16.814	64.7487
16.832	64.7511
16.85	64.7299
16.868	64.6866
16.886	64.6222
16.904	64.5406
16.922	64.4442
16.94	64.3363
16.958	64.2217
16.976	64.1028
16.994	63.9843
17.012	63.8691
17.03	63.7593
17.048	63.658
17.066	63.5665
17.084	63.4864
17.102	63.4192
17.12	63.3657
17.138	63.3273
17.156	63.3047
17.174	63.2985
17.192	63.3094
17.21	63.3373
17.228	63.382
17.246	63.4423
17.264	63.5177
17.282	63.605
17.3	63.7026
17.318	63.8069
17.336	63.9134
17.354	64.0196
17.372	64.1191
17.39	64.2098
17.408	64.2862
17.426	64.3457
17.444	64.386
17.462	64.4048
17.48	64.4021
17.498	64.378
17.516	64.3346
17.534	64.273
17.552	64.1984
17.57	64.1123
17.588	64.0207
17.606	63.9261
17.624	63.8331
17.642	63.7452
17.66	63.6643
17.678	63.5933
17.696	63.5327
17.714	63.4836
17.732	63.4454
17.75	63.4179
17.768	63.3998
17.786	63.3904
17.804	63.3879
17.822	63.3918
17.84	63.4007
17.858	63.4142
17.876	63.4316
17.894	63.4531
17.912	63.4786
17.93	63.5084
17.948	63.5425
17.966	63.5811
17.984	63.6238
18.002	63.6699
18.02	63.7184
18.038	63.7686
18.056	63.8184
18.074	63.8672
18.092	63.9128
18.11	63.9548
18.128	63.9914
18.146	64.0228
18.164	64.0482
18.182	64.0684
18.2	64.0835
18.218	64.0952
18.236	64.104
18.254	64.1122
18.272	64.1201
18.29	64.1297
18.308	64.1412
18.326	64.1554
18.344	64.1721
18.362	64.1911
18.38	64.2118
18.398	64.2329
18.416	64.2531
18.434	64.271
18.452	64.2849
18.47	64.2934
18.488	64.2951
18.506	64.2891
18.524	64.2748
18.542	64.2517
18.56	64.2205
18.578	64.181
18.596	64.1351
18.614	64.0829
18.632	64.0272
18.65	63.9682
18.668	63.9092
18.686	63.8505
18.704	63.7954
18.722	63.7442
18.74	63.6999
18.758	63.6627
18.776	63.6349
18.794	63.6166
18.812	63.6091
18.83	63.6121
18.848	63.6265
18.866	63.6513
18.884	63.6862
18.902	63.7299
18.92	63.7811
18.938	63.8381
18.956	63.8986
18.974	63.9607
18.992	64.0216
19.01	64.0797
19.028	64.1319
19.046	64.1772
19.064	64.213
19.082	64.2389
19.1	64.2531
19.118	64.2561
19.136	64.2472
19.154	64.2273
19.172	64.1974
19.19	64.1583
19.208	64.1123
19.226	64.0601
19.244	64.0047
19.262	63.9464
19.28	63.8883
19.298	63.8302
19.316	63.7747
19.334	63.7216
19.352	63.6723
19.37	63.6267
19.388	63.5851
19.406	63.5475
19.424	63.5133
19.442	63.4825
19.46	63.4544
19.478	63.4288
19.496	63.4052
19.514	63.3831
19.532	63.3625
19.55	63.3433
19.568	63.3256
19.586	63.3096
19.604	63.2955
19.622	63.2835
19.64	63.2737
19.658	63.2669
19.676	63.2629
19.694	63.2618
19.712	63.2637
19.73	63.2687
19.748	63.2768
19.766	63.2876
19.784	63.3011
19.802	63.3168
19.82	63.3347
19.838	63.3545
19.856	63.3757
19.874	63.3983
19.892	63.4217
19.91	63.4461
19.928	63.4708
19.946	63.496
19.964	63.5211
19.982	63.5461
20	63.5705
20.018	63.5941
20.036	63.6166
20.054	63.6373
20.072	63.6563
20.09	63.6726
20.108	63.6863
20.126	63.6964
20.144	63.703
20.162	63.7054
20.18	63.7032
20.198	63.6965
20.216	63.6851
20.234	63.6691
20.252	63.6491
20.27	63.6249
20.288	63.5977
20.306	63.5672
20.324	63.535
20.342	63.5015
20.36	63.4675
20.378	63.4348
20.396	63.403
20.414	63.3749
20.432	63.3501
20.45	63.3301
20.468	63.3158
20.486	63.3072
20.504	63.3058
20.522	63.3111
20.54	63.324
20.558	63.3443
20.576	63.3719
20.594	63.4069
20.612	63.4486
20.63	63.4964
20.648	63.5505
20.666	63.6088
20.684	63.6716
20.702	63.7372
20.72	63.8045
20.738	63.8731
20.756	63.9403
20.774	64.0068
20.792	64.0697
20.81	64.1289
20.828	64.1833
20.846	64.2308
20.864	64.272
20.882	64.3048
20.9	64.3293
20.918	64.345
20.936	64.3512
20.954	64.3482
20.972	64.3364
20.99	64.3154
21.008	64.2867
21.026	64.2505
21.044	64.2075
21.062	64.1598
21.08	64.1069
21.098	64.0516
21.116	63.9944
21.134	63.936
21.152	63.8791
21.17	63.8229
21.188	63.7699
21.206	63.7204
21.224	63.6747
21.242	63.6341
21.26	63.5983
21.278	63.5674
21.296	63.5418
21.314	63.5207
21.332	63.5033
21.35	63.4899
21.368	63.4785
21.386	63.4688
21.404	63.4601
21.422	63.4497
21.44	63.4385
21.458	63.4242
21.476	63.4058
21.494	63.3835
21.512	63.3555
21.53	63.322
21.548	63.2826
21.566	63.2366
21.584	63.1843
21.602	63.1265
21.62	63.0626
21.638	62.9938
21.656	62.9211
21.674	62.844
21.692	62.7651
21.71	62.6846
21.728	62.603
21.746	62.5229
21.764	62.4435
21.782	62.3667
21.8	62.2941
21.818	62.2251
21.836	62.1614
21.854	62.1031
21.872	62.0505
21.89	62.0047
21.908	61.9653
21.926	61.9328
21.944	61.9074
21.962	61.8889
21.98	61.8773
21.998	61.8727
22.016	61.8749
22.034	61.8834
22.052	61.8985
22.07	61.9194
22.088	61.9457
22.106	61.9777
22.124	62.0144
22.142	62.0558
22.16	62.1016
22.178	62.1504
22.196	62.2028
22.214	62.2577
22.232	62.3134
22.25	62.3709
22.268	62.428
22.286	62.4837
22.304	62.5386
22.322	62.5898
22.34	62.6373
22.358	62.6808
22.376	62.7177
22.394	62.7487
22.412	62.7728
22.43	62.7887
22.448	62.7967
22.466	62.7967
22.484	62.788
22.502	62.7709
22.52	62.7465
22.538	62.7146
22.556	62.6754
22.574	62.632
22.592	62.584
22.61	62.5324
22.628	62.4815
22.646	62.4301
22.664	62.3801
22.682	62.336
22.7	62.2961
22.718	62.2626
22.736	62.2389
22.754	62.2235
22.772	62.2183
22.79	62.2255
22.808	62.2443
22.826	62.2748
22.844	62.3179
22.862	62.3733
22.88	62.4389
22.898	62.5145
22.916	62.6004
22.934	62.692
22.952	62.7887
22.97	62.8909
22.988	62.9931
23.006	63.0952
23.024	63.197
23.042	63.2931
23.06	63.3834
23.078	63.4678
23.096	63.5417
23.114	63.6051
23.132	63.6582
23.15	63.6982
23.168	63.7248
23.186	63.7386
23.204	63.7393
23.222	63.7262
23.24	63.7003
23.258	63.6634
23.276	63.6146
23.294	63.5551
23.312	63.4879
23.33	63.4121
23.348	63.3289
23.366	63.2419
23.384	63.1506
23.402	63.0556
23.42	62.961
23.438	62.8666
23.456	62.7724
23.474	62.6814
23.492	62.5942
23.51	62.5101
23.528	62.4306
23.546	62.3561
23.564	62.2863
23.582	62.2215
23.6	62.1622
23.618	62.108
23.636	62.0592
23.654	62.0161
23.672	61.9783
23.69	61.9459
23.708	61.919
23.726	61.8973
23.744	61.881
23.762	61.8699
23.78	61.864
23.798	61.8634
23.816	61.8685
23.834	61.8789
23.852	61.8949
23.87	61.9172
23.888	61.9456
23.906	61.98
23.924	62.0211
23.942	62.0687
23.96	62.1228
23.978	62.1837
23.996	62.2517
24.014	62.3268
24.032	62.408
24.05	62.4951
24.068	62.5885
24.086	62.6871
24.104	62.7898
24.122	62.897
24.14	63.0085
24.158	63.1238
24.176	63.2428
24.194	63.3656
24.212	63.4928
24.23	63.6241
24.248	63.7596
24.266	63.8995
24.284	64.0439
24.302	64.1926
24.32	64.3456
24.338	64.5031
24.356	64.6647
24.374	64.8307
24.392	65.0018
24.41	65.1783
24.428	65.3596
24.446	65.5453
24.464	65.736
24.482	65.9317
24.5	66.1301
24.518	66.3293
24.536	66.5315
24.554	66.7338
24.572	66.9321
24.59	67.1281
24.608	67.3211
24.626	67.5068
24.644	67.6834
24.662	67.8533
24.68	68.013
24.698	68.1592
24.716	68.2943
24.734	68.4165
24.752	68.5225
24.77	68.6114
24.788	68.6846
24.806	68.7418
24.824	68.7824
24.842	68.8057
24.86	68.8143
24.878	68.8113
24.896	68.7936
24.914	68.7636
24.932	68.7277
24.95	68.6883
24.968	68.641
24.986	68.5935
25.004	68.554
25.022	68.5175
25.04	68.4867
25.058	68.4707
25.076	68.4732
25.094	68.4888
25.112	68.5239
25.13	68.5851
25.148	68.6697
25.166	68.7778
25.184	68.9132
25.202	69.0781
25.22	69.2708
25.238	69.4903
25.256	69.7359
25.274	70.01
25.292	70.3101
25.31	70.6313
25.328	70.9718
25.346	71.3357
25.364	71.7161
25.382	72.1053
25.4	72.5071
25.418	72.9207
25.436	73.336
25.454	73.7457
25.472	74.1582
25.49	74.566
25.508	74.9583
25.526	75.3346
25.544	75.6999
25.562	76.0431
25.58	76.3536
25.598	76.639
25.616	76.8959
25.634	77.114
25.652	77.2871
25.67	77.4226
25.688	77.5151
25.706	77.5575
25.724	77.5492
25.742	77.4936
25.76	77.387
25.778	77.2265
25.796	77.0128
25.814	76.747
25.832	76.4295
25.85	76.0599
25.868	75.6373
25.886	75.1645
25.904	74.6449
25.922	74.0777
25.94	73.4612
25.958	72.8025
25.976	72.1085
25.994	71.3751
26.012	70.6033
26.03	69.8017
26.048	68.9777
26.066	68.1228
26.084	67.2429
26.102	66.3496
26.12	65.4496
26.138	64.5334
26.156	63.6089
26.174	62.6863
26.192	61.7685
26.21	60.8487
26.228	59.9345
26.246	59.0339
26.264	58.1469
26.282	57.27
26.3	56.4083
26.318	55.5667
26.336	54.7445
26.354	53.9402
26.372	53.1546
26.39	52.3884
26.408	51.6412
26.426	50.9129
26.444	50.2036
26.462	49.5139
26.48	48.8444
26.498	48.1937
26.516	47.5602
26.534	46.942
26.552	46.3386
26.57	45.7523
26.588	45.1854
26.606	44.6383
26.624	44.1065
26.642	43.596
26.66	43.1144
26.678	42.6644
26.696	42.2379
26.714	41.8435
26.732	41.4914
26.75	41.1854
26.768	40.9161
26.786	40.6922
26.804	40.5239
26.822	40.4162
26.84	40.3615
26.858	40.3631
26.876	40.4255
26.894	40.5524
26.912	40.7426
26.93	40.9909
26.948	41.2925
26.966	41.6737
26.984	42.181
27.002	42.703
27.02	43.1184
27.028	43.2255