File: Bakgrunnsmateriale/MATLAB/FTIR/ftir_data/subAa/Mapping_121/BZ1503107-1_t86.asc
PE IR       SPECTRUM    SPECTRUM    ASCII       PEDS        1.60
  -1
BZ2165~1.ASC
17/04/07
20:16:25.00
17/04/07
20:16:51.00
tln
$BZ1503107-1_t0086$<tbV0>[-7.8,5.2,8.0,0.0,27,1,0]
27.028
64

2002,4.07
MIRTGS : RIGHTBACK : INTERNAL 2
MIR : ON : INTERNAL 2
OPTKBR

0.200000
8
8.000000
FILLER
RATIO
SPECTRUM
UNLOCKED 256

DOUBLE
64
COMBINED
1
0
0

0.002000
RATIO

1
0
TRUE
51149
0
LEFT NOT FITTED RIGHT NOT FITTED 0
NONE
NONE
15600
12
4.427000
51148
TRUE
1 0 8 72 0 0 0 0

15798

#HDR
-1
-1
#GR
µM
%T
2.38419e-05
0.0
2.000000
0.002000
12515
8
89.9827
56.1754
#DATA
2.000000	 65.0197
2.018000	 64.1331
2.036000	 65.3288
2.054000	 64.8183
2.072000	 64.9507
2.090000	 64.9393
2.108000	 64.8777
2.126000	 64.699
2.144000	 64.8451
2.162000	 64.9279
2.180000	 64.4556
2.198000	 64.5851
2.216000	 64.6616
2.234000	 64.5417
2.252000	 69.8564
2.270000	 64.8518
2.288000	 64.7626
2.306000	 65.0756
2.324000	 64.7758
2.342000	 65.027
2.360000	 64.9578
2.378000	 65.0482
2.396000	 64.8202
2.414000	 64.4668
2.432000	 65.1338
2.450000	 64.7751
2.468000	 65.1125
2.486000	 64.8379
2.504000	 64.9646
2.522000	 64.9881
2.540000	 64.5966
2.558000	 64.9337
2.576000	 65.1019
2.594000	 65.1681
2.612000	 64.9145
2.630000	 65.1114
2.648000	 65.198
2.666000	 64.9634
2.684000	 65.0749
2.702000	 64.9553
2.720000	 65.0707
2.738000	 65.1347
2.756000	 65.0262
2.774000	 65.1927
2.792000	 64.9519
2.810000	 65.0404
2.828000	 65.1369
2.846000	 64.9797
2.864000	 64.9347
2.882000	 64.9965
2.900000	 65.0963
2.918000	 64.8389
2.936000	 64.9495
2.954000	 64.8888
2.972000	 64.9137
2.990000	 64.8766
3.008000	 64.8428
3.026000	 64.7717
3.044000	 64.7593
3.062000	 64.9242
3.080000	 64.9407
3.098000	 65.0172
3.116000	 64.9291
3.134000	 64.8814
3.152000	 64.8801
3.170000	 64.9104
3.188000	 64.7178
3.206000	 64.8687
3.224000	 64.7588
3.242000	 64.7663
3.260000	 64.9257
3.278000	 64.9472
3.296000	 64.8381
3.314000	 64.8066
3.332000	 64.8156
3.350000	 64.795
3.368000	 64.7234
3.386000	 64.6647
3.404000	 64.6274
3.422000	 64.7252
3.440000	 64.7243
3.458000	 64.6963
3.476000	 64.7039
3.494000	 64.7194
3.512000	 64.8114
3.530000	 64.6902
3.548000	 64.825
3.566000	 64.8817
3.584000	 64.732
3.602000	 64.8758
3.620000	 64.8498
3.638000	 64.8065
3.656000	 64.7869
3.674000	 64.7844
3.692000	 64.8244
3.710000	 64.6877
3.728000	 64.8503
3.746000	 64.7817
3.764000	 64.6977
3.782000	 64.6502
3.800000	 64.7223
3.818000	 64.7986
3.836000	 64.6368
3.854000	 64.6155
3.872000	 64.6095
3.890000	 64.7204
3.908000	 64.6624
3.926000	 64.6054
3.944000	 64.5566
3.962000	 64.7099
3.980000	 64.6
3.998000	 64.6434
4.016000	 64.6874
4.034000	 64.706
4.052000	 64.6798
4.070000	 64.5747
4.088000	 64.6394
4.106000	 64.5884
4.124000	 64.5323
4.141999	 64.6015
4.160000	 64.5937
4.178000	 64.5507
4.196000	 64.5469
4.214000	 64.5181
4.232000	 64.5126
4.250000	 64.4375
4.268000	 64.5243
4.286000	 64.5678
4.304000	 64.6067
4.322000	 64.5735
4.340000	 64.4708
4.358000	 64.3429
4.375999	 64.4449
4.394000	 64.5299
4.412000	 64.5006
4.430000	 64.5425
4.448000	 64.3975
4.466000	 64.4018
4.484000	 64.4791
4.502000	 64.4349
4.520000	 64.4487
4.538000	 64.4056
4.556000	 64.3946
4.574000	 64.501
4.592000	 64.4501
4.609999	 64.3348
4.628000	 64.4015
4.646000	 64.3791
4.664000	 64.4128
4.682000	 64.385
4.700000	 64.3378
4.718000	 64.2754
4.736000	 64.4723
4.754000	 64.4474
4.772000	 64.3103
4.790000	 64.2905
4.808000	 64.19
4.826000	 64.3049
4.843999	 64.2822
4.862000	 64.2449
4.880000	 64.2198
4.898000	 64.2463
4.916000	 64.2511
4.934000	 64.1955
4.952000	 64.2364
4.970000	 64.2419
4.988000	 64.2399
5.006000	 64.2256
5.024000	 64.1854
5.042000	 64.1775
5.060000	 64.3304
5.077999	 64.24
5.096000	 64.1925
5.114000	 64.1789
5.132000	 64.1529
5.150000	 64.2387
5.168000	 64.2024
5.186000	 64.0947
5.204000	 64.1527
5.222000	 64.1506
5.240000	 64.1063
5.258000	 64.0902
5.276000	 64.0436
5.294000	 64.2243
5.312000	 64.1701
5.330000	 64.1514
5.348000	 64.2023
5.366000	 64.1891
5.384000	 64.1533
5.402000	 64.1657
5.420000	 64.1287
5.438000	 64.0372
5.456000	 64.004
5.474000	 64.1146
5.492000	 64.0978
5.510000	 64.0993
5.528000	 64.0607
5.546000	 64.0033
5.564000	 64.0885
5.582000	 64.0614
5.600000	 64.0117
5.618000	 64.0284
5.636000	 64.1111
5.654000	 64.1217
5.672000	 64.0566
5.690000	 64.0195
5.708000	 63.8393
5.726000	 63.8051
5.744000	 63.8571
5.762000	 63.7921
5.780000	 63.7481
5.798000	 63.7891
5.816000	 63.8567
5.834000	 63.9198
5.852000	 63.888
5.870000	 63.8483
5.888000	 63.8392
5.906000	 63.8994
5.923999	 63.9371
5.942000	 63.9624
5.960000	 63.9614
5.978000	 63.8418
5.996000	 63.8254
6.014000	 63.9143
6.032000	 63.9299
6.050000	 63.8992
6.068000	 63.9372
6.086000	 63.9457
6.104000	 63.8617
6.122000	 63.8934
6.140000	 64.0012
6.158000	 64.052
6.176000	 64.0511
6.194000	 63.9665
6.212000	 63.866
6.230000	 63.8087
6.248000	 63.8212
6.266000	 63.8293
6.284000	 63.7963
6.302000	 63.8891
6.320000	 63.9462
6.338000	 63.8513
6.356000	 63.7497
6.374000	 63.7064
6.392000	 63.6457
6.410000	 63.6868
6.428000	 63.7761
6.446000	 63.8064
6.464000	 63.8372
6.482000	 63.8862
6.500000	 63.9068
6.518000	 63.8271
6.536000	 63.7365
6.554000	 63.7241
6.572000	 63.7873
6.590000	 63.8666
6.608000	 63.9218
6.626000	 63.9269
6.644000	 63.8668
6.662000	 63.7723
6.680000	 63.7152
6.698000	 63.7252
6.716000	 63.7681
6.734000	 63.7684
6.752000	 63.7452
6.770000	 63.7453
6.788000	 63.7197
6.806000	 63.6698
6.824000	 63.6216
6.842000	 63.6523
6.860000	 63.7649
6.878000	 63.7949
6.896000	 63.7262
6.914000	 63.6478
6.932000	 63.6445
6.950000	 63.7614
6.968000	 63.8895
6.986000	 63.9219
7.004000	 63.8722
7.022000	 63.7978
7.040000	 63.7196
7.058000	 63.6464
7.076000	 63.5945
7.094000	 63.5771
7.112000	 63.6093
7.130000	 63.6595
7.148000	 63.6801
7.166000	 63.6775
7.184000	 63.657
7.202000	 63.6054
7.220000	 63.5548
7.238000	 63.5592
7.256000	 63.5943
7.274000	 63.6064
7.292000	 63.5903
7.310000	 63.5419
7.328000	 63.4833
7.346000	 63.4793
7.364000	 63.5201
7.382000	 63.5322
7.400000	 63.5093
7.418000	 63.5051
7.436000	 63.5384
7.454000	 63.6012
7.472000	 63.6816
7.490000	 63.7326
7.508000	 63.713
7.526000	 63.6588
7.544000	 63.6242
7.562000	 63.6065
7.580000	 63.572
7.598000	 63.5178
7.616000	 63.4727
7.634000	 63.447
7.652000	 63.4337
7.670000	 63.4457
7.688000	 63.4847
7.706000	 63.5111
7.724000	 63.4961
7.742000	 63.4409
7.760000	 63.3599
7.778000	 63.2978
7.796000	 63.2999
7.814000	 63.342
7.832000	 63.3752
7.850000	 63.4075
7.868000	 63.4561
7.886000	 63.4811
7.904000	 63.444
7.922000	 63.3801
7.940000	 63.3569
7.958000	 63.3929
7.976000	 63.4432
7.994000	 63.4503
8.012000	 63.4053
8.030000	 63.358
8.048000	 63.3469
8.065999	 63.3529
8.084000	 63.3445
8.102000	 63.3322
8.120000	 63.3481
8.138000	 63.3993
8.155999	 63.4555
8.173999	 63.4787
8.192000	 63.4649
8.210000	 63.4472
8.228000	 63.4489
8.246000	 63.4464
8.263999	 63.4104
8.282000	 63.3596
8.300000	 63.3386
8.318000	 63.3607
8.336000	 63.4073
8.353999	 63.4531
8.372000	 63.4661
8.390000	 63.4202
8.408000	 63.3291
8.426000	 63.2494
8.443999	 63.2223
8.462000	 63.2304
8.480000	 63.2247
8.498000	 63.1828
8.516000	 63.1297
8.533999	 63.1027
8.552000	 63.1082
8.570000	 63.1263
8.588000	 63.1451
8.606000	 63.1712
8.624000	 63.2068
8.641999	 63.2351
8.660000	 63.2397
8.678000	 63.2279
8.696000	 63.222
8.714000	 63.2365
8.731999	 63.2704
8.750000	 63.3124
8.768000	 63.3475
8.786000	 63.3612
8.804000	 63.3423
8.821999	 63.2862
8.840000	 63.1984
8.858000	 63.1014
8.876000	 63.0303
8.894000	 63.014
8.911999	 63.0507
8.930000	 63.1116
8.948000	 63.1649
8.966000	 63.1951
8.984000	 63.205
9.001999	 63.2053
9.020000	 63.206
9.038000	 63.2134
9.056000	 63.2281
9.074000	 63.2434
9.092000	 63.2498
9.109999	 63.2425
9.128000	 63.2266
9.146000	 63.2138
9.164000	 63.2136
9.182000	 63.2262
9.199999	 63.2414
9.218000	 63.2478
9.236000	 63.2423
9.254000	 63.2357
9.272000	 63.2434
9.289999	 63.2718
9.308000	 63.3085
9.326000	 63.3311
9.344000	 63.3253
9.362000	 63.296
9.379999	 63.2616
9.398000	 63.2395
9.416000	 63.2345
9.434000	 63.2391
9.452000	 63.2397
9.469999	 63.2248
9.488000	 63.1933
9.506000	 63.1617
9.524000	 63.1587
9.542000	 63.2034
9.560000	 63.2826
9.577999	 63.3549
9.596000	 63.3811
9.614000	 63.3516
9.632000	 63.2889
9.650000	 63.2263
9.667999	 63.1854
9.686000	 63.1677
9.704000	 63.1631
9.722000	 63.1633
9.740000	 63.1653
9.757999	 63.1657
9.776000	 63.1561
9.794000	 63.128
9.812000	 63.0831
9.830000	 63.0366
9.847999	 63.0075
9.866000	 63.0053
9.884000	 63.0243
9.902000	 63.0485
9.920000	 63.0627
9.937999	 63.0591
9.956000	 63.0387
9.974000	 63.0081
9.992000	 62.9787
10.01	62.9632
10.028	62.9701
10.046	62.9978
10.064	63.0348
10.082	63.0679
10.1	63.0924
10.118	63.1177
10.136	63.1607
10.154	63.2317
10.172	63.3238
10.19	63.4112
10.208	63.4632
10.226	63.4608
10.244	63.4074
10.262	63.3297
10.28	63.2633
10.298	63.2343
10.316	63.2473
10.334	63.2854
10.352	63.3235
10.37	63.3401
10.388	63.3277
10.406	63.2921
10.424	63.2478
10.442	63.2116
10.46	63.1938
10.478	63.1955
10.496	63.2084
10.514	63.2219
10.532	63.2291
10.55	63.233
10.568	63.2424
10.586	63.2641
10.604	63.2944
10.622	63.3185
10.64	63.3191
10.658	63.2869
10.676	63.2278
10.694	63.1593
10.712	63.1029
10.73	63.0718
10.748	63.0682
10.766	63.0837
10.784	63.1079
10.802	63.133
10.82	63.1574
10.838	63.1831
10.856	63.2121
10.874	63.2436
10.892	63.2722
10.91	63.289
10.928	63.2861
10.946	63.2593
10.964	63.2116
10.982	63.153
11	63.0976
11.018	63.059
11.036	63.0444
11.054	63.0525
11.072	63.076
11.09	63.1039
11.108	63.1282
11.126	63.1448
11.144	63.1544
11.162	63.1597
11.18	63.1646
11.198	63.1731
11.216	63.1883
11.234	63.2113
11.252	63.2398
11.27	63.2677
11.288	63.2848
11.306	63.282
11.324	63.256
11.342	63.2131
11.36	63.1681
11.378	63.139
11.396	63.1384
11.414	63.1689
11.432	63.2211
11.45	63.2793
11.468	63.3253
11.486	63.3471
11.504	63.3406
11.522	63.3099
11.54	63.2645
11.558	63.2161
11.576	63.1759
11.594	63.1512
11.612	63.145
11.63	63.1542
11.648	63.1708
11.666	63.184
11.684	63.1851
11.702	63.1713
11.72	63.1471
11.738	63.1221
11.756	63.106
11.774	63.1055
11.792	63.1203
11.81	63.1443
11.828	63.1681
11.846	63.1831
11.864	63.1844
11.882	63.1714
11.9	63.1474
11.918	63.1167
11.936	63.0828
11.954	63.0472
11.972	63.011
11.99	62.976
12.008	62.9449
12.026	62.922
12.044	62.9118
12.062	62.9181
12.08	62.9423
12.098	62.983
12.116	63.0362
12.134	63.0963
12.152	63.1564
12.17	63.2102
12.188	63.2511
12.206	63.2734
12.224	63.2724
12.242	63.2456
12.26	63.1938
12.278	63.122
12.296	63.0404
12.314	62.9623
12.332	62.9017
12.35	62.8694
12.368	62.8707
12.386	62.9036
12.404	62.959
12.422	63.0232
12.44	63.0819
12.458	63.1239
12.476	63.1428
12.494	63.1383
12.512	63.1153
12.53	63.0806
12.548	63.0414
12.566	63.0026
12.584	62.9668
12.602	62.9345
12.62	62.9047
12.638	62.8764
12.656	62.8491
12.674	62.8229
12.692	62.7993
12.71	62.7801
12.728	62.7683
12.746	62.7668
12.764	62.7781
12.782	62.8032
12.8	62.8416
12.818	62.8902
12.836	62.9443
12.854	62.9982
12.872	63.0458
12.89	63.0827
12.908	63.107
12.926	63.1187
12.944	63.1201
12.962	63.1142
12.98	63.1041
12.998	63.0914
13.016	63.0766
13.034	63.0591
13.052	63.0381
13.07	63.0139
13.088	62.9883
13.106	62.9644
13.124	62.9461
13.142	62.9373
13.16	62.9402
13.178	62.9551
13.196	62.9794
13.214	63.0082
13.232	63.0357
13.25	63.0561
13.268	63.0646
13.286	63.0585
13.304	63.0371
13.322	63.0017
13.34	62.9556
13.358	62.9026
13.376	62.8475
13.394	62.7947
13.412	62.7481
13.43	62.7111
13.448	62.6856
13.466	62.6723
13.484	62.6705
13.502	62.6782
13.52	62.6921
13.538	62.7084
13.556	62.7229
13.574	62.7321
13.592	62.7332
13.61	62.7248
13.628	62.7064
13.646	62.679
13.664	62.6446
13.682	62.6057
13.7	62.5655
13.718	62.5275
13.736	62.4954
13.754	62.4724
13.772	62.4615
13.79	62.4644
13.808	62.4817
13.826	62.5122
13.844	62.5537
13.862	62.6027
13.88	62.6552
13.898	62.7074
13.916	62.7558
13.934	62.7978
13.952	62.8317
13.97	62.8565
13.988	62.8723
14.006	62.8792
14.024	62.877
14.042	62.8655
14.06	62.8447
14.078	62.8147
14.096	62.7762
14.114	62.7305
14.132	62.6803
14.15	62.6285
14.168	62.5788
14.186	62.5344
14.204	62.4979
14.222	62.4709
14.24	62.4535
14.258	62.4449
14.276	62.4429
14.294	62.4452
14.312	62.4496
14.33	62.454
14.348	62.4577
14.366	62.4602
14.384	62.4628
14.402	62.4674
14.42	62.4762
14.438	62.4914
14.456	62.5148
14.474	62.5473
14.492	62.5886
14.51	62.6374
14.528	62.6914
14.546	62.7482
14.564	62.8055
14.582	62.8614
14.6	62.9147
14.618	62.9645
14.636	63.0104
14.654	63.052
14.672	63.0891
14.69	63.121
14.708	63.1468
14.726	63.166
14.744	63.1777
14.762	63.1818
14.78	63.1783
14.798	63.1673
14.816	63.149
14.834	63.1236
14.852	63.0909
14.87	63.0513
14.888	63.0053
14.906	62.9538
14.924	62.8988
14.942	62.843
14.96	62.79
14.978	62.7441
14.996	62.7094
15.014	62.6899
15.032	62.6888
15.05	62.7069
15.068	62.7432
15.086	62.7948
15.104	62.8575
15.122	62.9242
15.14	62.9882
15.158	63.0432
15.176	63.0838
15.194	63.1058
15.212	63.1069
15.23	63.088
15.248	63.0509
15.266	62.9989
15.284	62.937
15.302	62.8698
15.32	62.8012
15.338	62.7348
15.356	62.6731
15.374	62.618
15.392	62.5693
15.41	62.5267
15.428	62.4894
15.446	62.4554
15.464	62.4233
15.482	62.3918
15.5	62.3593
15.518	62.3244
15.536	62.2863
15.554	62.2447
15.572	62.1989
15.59	62.1499
15.608	62.0987
15.626	62.047
15.644	61.9973
15.662	61.9532
15.68	61.9175
15.698	61.8929
15.716	61.8824
15.734	61.8874
15.752	61.9082
15.77	61.9444
15.788	61.9934
15.806	62.0513
15.824	62.1142
15.842	62.1766
15.86	62.2324
15.878	62.2777
15.896	62.3089
15.914	62.3231
15.932	62.3199
15.95	62.2998
15.968	62.2645
15.986	62.2181
16.004	62.1644
16.022	62.1073
16.04	62.0527
16.058	62.0039
16.076	61.964
16.094	61.9365
16.112	61.9221
16.13	61.9213
16.148	61.934
16.166	61.9579
16.184	61.9907
16.202	62.0299
16.22	62.071
16.238	62.1113
16.256	62.1477
16.274	62.1774
16.292	62.1994
16.31	62.213
16.328	62.2195
16.346	62.2215
16.364	62.2211
16.382	62.2238
16.4	62.2336
16.418	62.2535
16.436	62.2883
16.454	62.3391
16.472	62.4068
16.49	62.4897
16.508	62.583
16.526	62.683
16.544	62.7806
16.562	62.8685
16.58	62.9407
16.598	62.9877
16.616	63.0061
16.634	62.9919
16.652	62.9444
16.67	62.8659
16.688	62.7587
16.706	62.6309
16.724	62.4875
16.742	62.3357
16.76	62.1845
16.778	62.0378
16.796	61.9023
16.814	61.7814
16.832	61.6768
16.85	61.5901
16.868	61.5206
16.886	61.468
16.904	61.4303
16.922	61.4062
16.94	61.3939
16.958	61.3919
16.976	61.3993
16.994	61.4149
17.012	61.4385
17.03	61.47
17.048	61.5091
17.066	61.5555
17.084	61.6092
17.102	61.6686
17.12	61.733
17.138	61.8005
17.156	61.8694
17.174	61.9382
17.192	62.0043
17.21	62.0667
17.228	62.1234
17.246	62.1735
17.264	62.2164
17.282	62.2517
17.3	62.2798
17.318	62.301
17.336	62.3165
17.354	62.3268
17.372	62.3335
17.39	62.337
17.408	62.3384
17.426	62.3382
17.444	62.3368
17.462	62.3344
17.48	62.3311
17.498	62.3264
17.516	62.32
17.534	62.3115
17.552	62.3009
17.57	62.2882
17.588	62.2738
17.606	62.2587
17.624	62.2438
17.642	62.2308
17.66	62.2205
17.678	62.2159
17.696	62.2176
17.714	62.2276
17.732	62.246
17.75	62.2735
17.768	62.3086
17.786	62.3511
17.804	62.3972
17.822	62.4459
17.84	62.4928
17.858	62.5359
17.876	62.5722
17.894	62.5991
17.912	62.6154
17.93	62.6195
17.948	62.6114
17.966	62.5919
17.984	62.5624
18.002	62.5252
18.02	62.4831
18.038	62.4383
18.056	62.3952
18.074	62.3551
18.092	62.3221
18.11	62.2968
18.128	62.2816
18.146	62.2763
18.164	62.2818
18.182	62.2972
18.2	62.322
18.218	62.3548
18.236	62.3949
18.254	62.4406
18.272	62.4913
18.29	62.5458
18.308	62.6038
18.326	62.6646
18.344	62.7282
18.362	62.7948
18.38	62.8643
18.398	62.937
18.416	63.0124
18.434	63.0904
18.452	63.1697
18.47	63.2495
18.488	63.3275
18.506	63.4033
18.524	63.4727
18.542	63.5353
18.56	63.5868
18.578	63.6272
18.596	63.6519
18.614	63.6607
18.632	63.6505
18.65	63.6216
18.668	63.572
18.686	63.5024
18.704	63.4135
18.722	63.306
18.74	63.1829
18.758	63.0453
18.776	62.8975
18.794	62.7413
18.812	62.5823
18.83	62.4224
18.848	62.2673
18.866	62.1192
18.884	61.9838
18.902	61.863
18.92	61.7616
18.938	61.681
18.956	61.6249
18.974	61.5933
18.992	61.5884
19.01	61.6092
19.028	61.6561
19.046	61.7273
19.064	61.8212
19.082	61.9352
19.1	62.0658
19.118	62.2101
19.136	62.3629
19.154	62.5215
19.172	62.6793
19.19	62.8345
19.208	62.9796
19.226	63.1138
19.244	63.23
19.262	63.3283
19.28	63.4033
19.298	63.4554
19.316	63.4815
19.334	63.4822
19.352	63.4579
19.37	63.4087
19.388	63.3383
19.406	63.2464
19.424	63.1397
19.442	63.0178
19.46	62.8889
19.478	62.7532
19.496	62.6185
19.514	62.4863
19.532	62.3626
19.55	62.2508
19.568	62.1535
19.586	62.0749
19.604	62.0152
19.622	61.9784
19.64	61.9633
19.658	61.9707
19.676	61.9999
19.694	62.0482
19.712	62.1159
19.73	62.1968
19.748	62.2915
19.766	62.3928
19.784	62.5003
19.802	62.6082
19.82	62.7133
19.838	62.8131
19.856	62.9023
19.874	62.9809
19.892	63.0437
19.91	63.0915
19.928	63.1213
19.946	63.1332
19.964	63.1277
19.982	63.1043
20	63.0656
20.018	63.0123
20.036	62.9467
20.054	62.8722
20.072	62.7893
20.09	62.7036
20.108	62.6143
20.126	62.5279
20.144	62.4441
20.162	62.3671
20.18	62.2987
20.198	62.24
20.216	62.1941
20.234	62.1604
20.252	62.1408
20.27	62.135
20.288	62.1425
20.306	62.1638
20.324	62.1969
20.342	62.2412
20.36	62.2957
20.378	62.3577
20.396	62.4277
20.414	62.5019
20.432	62.5807
20.45	62.6608
20.468	62.7412
20.486	62.8208
20.504	62.8967
20.522	62.9694
20.54	63.0361
20.558	63.0971
20.576	63.151
20.594	63.197
20.612	63.2349
20.63	63.2637
20.648	63.2835
20.666	63.2936
20.684	63.2939
20.702	63.2846
20.72	63.2654
20.738	63.2366
20.756	63.1986
20.774	63.1511
20.792	63.0956
20.81	63.032
20.828	62.9613
20.846	62.8847
20.864	62.8021
20.882	62.7158
20.9	62.6255
20.918	62.5332
20.936	62.4403
20.954	62.3469
20.972	62.2564
20.99	62.1677
21.008	62.0841
21.026	62.0065
21.044	61.9354
21.062	61.8739
21.08	61.8211
21.098	61.7796
21.116	61.75
21.134	61.7323
21.152	61.7281
21.17	61.737
21.188	61.7589
21.206	61.7944
21.224	61.8424
21.242	61.9019
21.26	61.9732
21.278	62.0532
21.296	62.1421
21.314	62.2381
21.332	62.3376
21.35	62.4419
21.368	62.5459
21.386	62.6492
21.404	62.7504
21.422	62.8447
21.44	62.9337
21.458	63.0134
21.476	63.0823
21.494	63.1406
21.512	63.1851
21.53	63.2162
21.548	63.2333
21.566	63.235
21.584	63.2222
21.602	63.1949
21.62	63.1526
21.638	63.0966
21.656	63.0281
21.674	62.9465
21.692	62.8546
21.71	62.7526
21.728	62.6413
21.746	62.5242
21.764	62.4001
21.782	62.2721
21.8	62.1423
21.818	62.0097
21.836	61.8784
21.854	61.748
21.872	61.6198
21.89	61.4967
21.908	61.3775
21.926	61.2649
21.944	61.1604
21.962	61.0633
21.98	60.9761
21.998	60.8989
22.016	60.8318
22.034	60.7764
22.052	60.7321
22.07	60.6992
22.088	60.6781
22.106	60.6685
22.124	60.6697
22.142	60.682
22.16	60.7047
22.178	60.736
22.196	60.7768
22.214	60.8251
22.232	60.8785
22.25	60.9381
22.268	61.0012
22.286	61.0662
22.304	61.1338
22.322	61.201
22.34	61.2673
22.358	61.3328
22.376	61.3954
22.394	61.4553
22.412	61.5124
22.43	61.5661
22.448	61.6163
22.466	61.6636
22.484	61.7083
22.502	61.7501
22.52	61.7903
22.538	61.8292
22.556	61.8666
22.574	61.9044
22.592	61.9429
22.61	61.9819
22.628	62.0229
22.646	62.0659
22.664	62.1107
22.682	62.1572
22.7	62.2062
22.718	62.2561
22.736	62.3056
22.754	62.3557
22.772	62.4042
22.79	62.4495
22.808	62.4927
22.826	62.5307
22.844	62.5618
22.862	62.5871
22.88	62.6034
22.898	62.6093
22.916	62.6058
22.934	62.5903
22.952	62.5618
22.97	62.5212
22.988	62.4678
23.006	62.4012
23.024	62.3219
23.042	62.2315
23.06	62.1292
23.078	62.0159
23.096	61.8955
23.114	61.767
23.132	61.6317
23.15	61.494
23.168	61.353
23.186	61.21
23.204	61.0698
23.222	60.9319
23.24	60.7968
23.258	60.6683
23.276	60.546
23.294	60.43
23.312	60.3223
23.33	60.2232
23.348	60.1321
23.366	60.0485
23.384	59.9731
23.402	59.9049
23.42	59.8413
23.438	59.783
23.456	59.7292
23.474	59.6765
23.492	59.6248
23.51	59.5742
23.528	59.5217
23.546	59.4663
23.564	59.4089
23.582	59.3477
23.6	59.2818
23.618	59.2118
23.636	59.1379
23.654	59.0597
23.672	58.977
23.69	58.892
23.708	58.8058
23.726	58.717
23.744	58.6287
23.762	58.5435
23.78	58.4593
23.798	58.3792
23.816	58.307
23.834	58.2407
23.852	58.1822
23.87	58.1354
23.888	58.0988
23.906	58.0735
23.924	58.0626
23.942	58.0662
23.96	58.0839
23.978	58.1176
23.996	58.1684
24.014	58.2352
24.032	58.3184
24.05	58.4182
24.068	58.5347
24.086	58.6665
24.104	58.8125
24.122	58.9739
24.14	59.1487
24.158	59.3345
24.176	59.5326
24.194	59.7418
24.212	59.9585
24.23	60.1826
24.248	60.4146
24.266	60.6513
24.284	60.891
24.302	61.1356
24.32	61.3819
24.338	61.6272
24.356	61.874
24.374	62.1194
24.392	62.3592
24.41	62.5947
24.428	62.8253
24.446	63.0467
24.464	63.257
24.482	63.4585
24.5	63.648
24.518	63.8231
24.536	63.9857
24.554	64.1343
24.572	64.2665
24.59	64.3824
24.608	64.4826
24.626	64.5661
24.644	64.6326
24.662	64.6827
24.68	64.716
24.698	64.7321
24.716	64.7304
24.734	64.7125
24.752	64.6803
24.77	64.634
24.788	64.5733
24.806	64.4994
24.824	64.4137
24.842	64.3157
24.86	64.2052
24.878	64.0822
24.896	63.9469
24.914	63.7992
24.932	63.6391
24.95	63.4661
24.968	63.2803
24.986	63.0826
25.004	62.8742
25.022	62.6538
25.04	62.4226
25.058	62.1828
25.076	61.9349
25.094	61.6775
25.112	61.414
25.13	61.1473
25.148	60.8745
25.166	60.5979
25.184	60.3236
25.202	60.0531
25.22	59.7824
25.238	59.5187
25.256	59.2697
25.274	59.0313
25.292	58.8048
25.31	58.5973
25.328	58.4127
25.346	58.2463
25.364	58.102
25.382	57.9846
25.4	57.8952
25.418	57.8312
25.436	57.7916
25.454	57.7762
25.472	57.7881
25.49	57.8217
25.508	57.8701
25.526	57.9342
25.544	58.0172
25.562	58.1076
25.58	58.1952
25.598	58.2878
25.616	58.3814
25.634	58.4639
25.652	58.5284
25.67	58.5832
25.688	58.6217
25.706	58.6354
25.724	58.6224
25.742	58.5866
25.76	58.5269
25.778	58.4418
25.796	58.3283
25.814	58.1908
25.832	58.0359
25.85	57.8665
25.868	57.674
25.886	57.4704
25.904	57.2698
25.922	57.0722
25.94	56.8694
25.958	56.6796
25.976	56.5209
25.994	56.3841
26.012	56.2694
26.03	56.1947
26.048	56.1756
26.066	56.1999
26.084	56.2719
26.102	56.4038
26.12	56.6041
26.138	56.8653
26.156	57.1885
26.174	57.5765
26.192	58.0333
26.21	58.558
26.228	59.1425
26.246	59.7784
26.264	60.4705
26.282	61.2207
26.3	62.0122
26.318	62.8291
26.336	63.6845
26.354	64.575
26.372	65.4766
26.39	66.3677
26.408	67.2651
26.426	68.1635
26.444	69.0429
26.462	69.8867
26.48	70.7109
26.498	71.5085
26.516	72.2646
26.534	72.9667
26.552	73.6225
26.57	74.2339
26.588	74.8007
26.606	75.3198
26.624	75.7846
26.642	76.2096
26.66	76.6113
26.678	76.9957
26.696	77.3444
26.714	77.6788
26.732	78.024
26.75	78.3892
26.768	78.7507
26.786	79.1327
26.804	79.5629
26.822	80.0546
26.84	80.5863
26.858	81.1707
26.876	81.8236
26.894	82.5551
26.912	83.3567
26.93	84.2246
26.948	85.156
26.966	86.2105
26.984	87.4798
27.002	88.7339
27.02	89.7225
27.028	89.9827