File: Bakgrunnsmateriale/MATLAB/FTIR/ftir_data/subAa/Mapping_121/BZ1503107-1_t38_cm-1.asc
PE IR       SPECTRUM    SPECTRUM    ASCII       PEDS        1.60
  -1
BZ60B0~1.ASC
17/04/07
16:19:45.00
17/04/07
16:19:45.00
tln
$BZ1503107-1_t0038$<tbV0>[2.6,-5.2,8.0,0.0,27,1,0]
370
64

2002,4.07
MIRTGS : RIGHTBACK : INTERNAL 2
MIR : ON : INTERNAL 2
OPTKBR

0.200000
8
8.000000
FILLER
RATIO
SPECTRUM
UNLOCKED 256

DOUBLE
64
COMBINED
1
0
0

1.000000
RATIO

1
0
TRUE
51149
0
LEFT NOT FITTED RIGHT NOT FITTED 0
NONE
NONE
15600
12
4.427000
51148
TRUE
1 0 8 72 0 0 0 0

15798

#HDR
-1
-1
#GR
CM-1
%T
2.38419e-05
0.0
5000
-1.000000
4631
8
79.3896
53.1787
#DATA
5000	65.5348
4996	64.7832
4992	64.1141
4988	64.3172
4984	64.9361
4980	64.933
4976	64.6109
4972	64.6436
4968	64.5864
4964	64.5057
4960	64.6622
4956	64.7038
4952	64.7515
4948	64.7988
4944	64.8507
4940	64.997
4936	64.6654
4932	64.1779
4928	64.284
4924	64.351
4920	64.2404
4916	64.6139
4912	65.0036
4908	64.9781
4904	64.8667
4900	64.7606
4896	64.703
4892	64.8483
4888	64.9845
4884	65.0466
4880	65.1814
4876	65.0335
4872	64.6761
4868	64.5844
4864	64.7662
4860	65.0556
4856	65.2792
4852	65.2871
4848	65.1248
4844	65.0667
4840	65.1195
4836	65.1062
4832	65.1331
4828	65.1962
4824	65.1782
4820	65.0933
4816	64.9711
4812	65.039
4808	65.0678
4804	64.7264
4800	64.5743
4796	64.6761
4792	64.6859
4788	64.7495
4784	64.7772
4780	64.7962
4776	64.9972
4772	65.1327
4768	65.1051
4764	65.1461
4760	65.1864
4756	65.2862
4752	65.4517
4748	65.2755
4744	65.0089
4740	65.1858
4736	65.4634
4732	65.4059
4728	65.16
4724	64.9811
4720	65.0661
4716	65.2884
4712	65.5628
4708	65.7422
4704	65.4027
4700	64.9205
4696	64.8328
4692	64.9698
4688	65.0446
4684	64.9645
4680	64.8623
4676	64.8362
4672	64.8691
4668	64.9319
4664	64.9579
4660	64.897
4656	64.8524
4652	64.954
4648	65.105
4644	65.1168
4640	64.9429
4636	64.8583
4632	64.9784
4628	65.076
4624	65.1848
4620	65.2223
4616	64.9693
4612	64.7199
4608	64.7225
4604	64.7306
4600	64.6978
4596	64.756
4592	64.7956
4588	64.8623
4584	64.9828
4580	65.1102
4576	65.1071
4572	64.7481
4568	64.6162
4564	65.0302
4560	65.2761
4556	65.1855
4552	65.1602
4548	65.4331
4544	65.7556
4540	65.4739
4536	64.959
4532	64.8745
4528	64.8117
4524	64.7377
4520	64.9715
4516	65.1316
4512	65.0446
4508	64.9211
4504	64.8011
4500	64.731
4496	64.6972
4492	64.4996
4488	64.5391
4484	65.0641
4480	65.2154
4476	64.8126
4472	64.4913
4468	64.3738
4464	64.4202
4460	64.8996
4456	65.5111
4452	65.9099
4448	66.2909
4444	66.5699
4440	67.5112
4436	68.142
4432	68.6815
4428	67.316
4424	58.5225
4420	53.1787
4416	59.4423
4412	67.6216
4408	69.5049
4404	67.3353
4400	65.6804
4396	64.9356
4392	65.1681
4388	65.6213
4384	65.5239
4380	65.2825
4376	65.2938
4372	65.3986
4368	65.4385
4364	65.2751
4360	64.9809
4356	64.843
4352	65.0222
4348	65.2598
4344	65.2464
4340	65.2146
4336	65.229
4332	65.0089
4328	64.5601
4324	64.273
4320	64.3976
4316	64.6196
4312	64.7051
4308	64.8668
4304	65.0715
4300	65.1106
4296	65.1863
4292	65.3201
4288	65.3445
4284	65.3076
4280	65.1135
4276	64.9138
4272	64.9657
4268	65.0838
4264	65.1033
4260	65.0627
4256	65.0146
4252	65.0131
4248	64.9938
4244	64.9311
4240	64.9683
4236	65.1088
4232	65.2087
4228	65.2145
4224	65.1393
4220	65.0273
4216	64.9247
4212	64.9432
4208	65.1077
4204	65.1165
4200	64.9818
4196	65.07
4192	65.1551
4188	64.8612
4184	64.6806
4180	64.8558
4176	64.8423
4172	64.7022
4168	64.8463
4164	65.1148
4160	65.1372
4156	64.9777
4152	65.004
4148	65.1895
4144	65.2901
4140	65.2997
4136	65.2167
4132	65.0696
4128	65.0452
4124	65.0733
4120	65.0443
4116	65.0986
4112	65.19
4108	65.1402
4104	64.9485
4100	64.8086
4096	64.8546
4092	64.9189
4088	64.8652
4084	64.8265
4080	64.9207
4076	65.0885
4072	65.1356
4068	65.0384
4064	64.9652
4060	64.9647
4056	64.9854
4052	65.048
4048	65.122
4044	65.1305
4040	65.1424
4036	65.1396
4032	65.0759
4028	65.1041
4024	65.2902
4020	65.3316
4016	65.1801
4012	65.1708
4008	65.2359
4004	65.211
4000	65.1998
3996	65.2189
3992	65.1875
3988	65.1198
3984	65.0579
3980	65.155
3976	65.3816
3972	65.3526
3968	65.1681
3964	65.1999
3960	65.309
3956	65.2729
3952	65.157
3948	65.1193
3944	65.1518
3940	65.074
3936	64.9085
3932	64.8678
3928	64.9521
3924	65.1001
3920	65.2461
3916	65.3321
3912	65.4131
3908	65.4729
3904	65.5486
3900	65.5948
3896	65.5151
3892	65.384
3888	65.2947
3884	65.2783
3880	65.2218
3876	65.1196
3872	65.1076
3868	65.1114
3864	65.0986
3860	65.1443
3856	65.2016
3852	65.2013
3848	65.1349
3844	65.1187
3840	65.1718
3836	65.1738
3832	65.2034
3828	65.2284
3824	65.0473
3820	64.899
3816	64.9599
3812	64.9672
3808	64.982
3804	65.162
3800	65.3693
3796	65.4304
3792	65.2808
3788	65.0658
3784	64.9689
3780	65.0365
3776	65.1566
3772	65.2644
3768	65.4106
3764	65.5837
3760	65.5578
3756	65.3435
3752	65.2727
3748	65.2835
3744	65.2462
3740	65.1866
3736	65.1618
3732	65.238
3728	65.2105
3724	65.0863
3720	65.0966
3716	65.2056
3712	65.3632
3708	65.4438
3704	65.3069
3700	65.1978
3696	65.2136
3692	65.1686
3688	65.1334
3684	65.1363
3680	65.1165
3676	65.1844
3672	65.3323
3668	65.4437
3664	65.4367
3660	65.4074
3656	65.4388
3652	65.4143
3648	65.3906
3644	65.465
3640	65.4638
3636	65.4147
3632	65.5138
3628	65.5133
3624	65.4008
3620	65.4346
3616	65.4692
3612	65.4005
3608	65.3183
3604	65.2844
3600	65.2571
3596	65.2412
3592	65.2985
3588	65.3621
3584	65.336
3580	65.2014
3576	65.0324
3572	64.9918
3568	65.0696
3564	65.0693
3560	65.0539
3556	65.1208
3552	65.1235
3548	65.0328
3544	64.9682
3540	64.9904
3536	65.048
3532	65.0378
3528	65.0049
3524	65.0678
3520	65.2007
3516	65.2566
3512	65.1759
3508	65.1105
3504	65.1276
3500	65.126
3496	65.1202
3492	65.1581
3488	65.1418
3484	65.0939
3480	65.1055
3476	65.1106
3472	65.1299
3468	65.1772
3464	65.1183
3460	65.0568
3456	65.1052
3452	65.0956
3448	65.0324
3444	65.0497
3440	65.1098
3436	65.1317
3432	65.1121
3428	65.1021
3424	65.1559
3420	65.1985
3416	65.1873
3412	65.2567
3408	65.3497
3404	65.3214
3400	65.2745
3396	65.2831
3392	65.3075
3388	65.3683
3384	65.4198
3380	65.3712
3376	65.2507
3372	65.1538
3368	65.096
3364	65.0246
3360	64.9926
3356	65.0947
3352	65.1981
3348	65.1727
3344	65.1649
3340	65.2345
3336	65.2425
3332	65.1557
3328	65.0617
3324	65.0257
3320	65.0044
3316	64.9469
3312	64.9777
3308	65.144
3304	65.2159
3300	65.1633
3296	65.1541
3292	65.1606
3288	65.1219
3284	65.1161
3280	65.1406
3276	65.1185
3272	65.0236
3268	64.9234
3264	64.9375
3260	64.9733
3256	64.9523
3252	65.0135
3248	65.1863
3244	65.2932
3240	65.2249
3236	65.0737
3232	64.9885
3228	65.0032
3224	65.025
3220	65.0559
3216	65.1159
3212	65.118
3208	65.0486
3204	64.9913
3200	65.0046
3196	65.0089
3192	64.9769
3188	64.9897
3184	65.0178
3180	65.0756
3176	65.1758
3172	65.189
3168	65.1514
3164	65.1487
3160	65.2025
3156	65.3241
3152	65.2955
3148	65.0833
3144	64.9434
3140	64.9456
3136	65.0228
3132	65.1392
3128	65.2245
3124	65.1819
3120	65.031
3116	64.8996
3112	64.906
3108	64.9836
3104	65.007
3100	65.0319
3096	65.1063
3092	65.1098
3088	65.0214
3084	65.0158
3080	65.1003
3076	65.1421
3072	65.1204
3068	65.1206
3064	65.1862
3060	65.2144
3056	65.1875
3052	65.1603
3048	65.1426
3044	65.1446
3040	65.1284
3036	65.1026
3032	65.0639
3028	64.9729
3024	64.9292
3020	65.0095
3016	65.1083
3012	65.1381
3008	65.1234
3004	65.1015
3000	65.0785
2996	65.0605
2992	65.119
2988	65.1559
2984	65.0682
2980	65.0354
2976	65.106
2972	65.1253
2968	65.0343
2964	64.9324
2960	64.9524
2956	65.0398
2952	65.0321
2948	64.9767
2944	64.9764
2940	64.9768
2936	64.9455
2932	64.9287
2928	64.9577
2924	65.0168
2920	65.0504
2916	64.9974
2912	64.9345
2908	64.9279
2904	64.9764
2900	65.0269
2896	65.0125
2892	65.0255
2888	65.0836
2884	65.0653
2880	64.9855
2876	64.9758
2872	65.0968
2868	65.231
2864	65.2334
2860	65.111
2856	65.0297
2852	65.0228
2848	64.9755
2844	64.9733
2840	65.0453
2836	65.0527
2832	65.0379
2828	65.083
2824	65.06
2820	64.9644
2816	64.9706
2812	65.0265
2808	65.0488
2804	65.075
2800	65.0966
2796	65.1317
2792	65.1733
2788	65.1218
2784	64.9971
2780	64.9744
2776	65.0774
2772	65.1517
2768	65.1329
2764	65.0522
2760	64.995
2756	65.0487
2752	65.1162
2748	65.1023
2744	65.0787
2740	65.0396
2736	64.9518
2732	64.9798
2728	65.1049
2724	65.1054
2720	65.0276
2716	64.9622
2712	64.9188
2708	64.9743
2704	65.0884
2700	65.1513
2696	65.1585
2692	65.1218
2688	65.0744
2684	65.0246
2680	64.9548
2676	64.9468
2672	64.974
2668	64.9938
2664	65.0498
2660	65.074
2656	65.0474
2652	65.0353
2648	65.0179
2644	64.9584
2640	64.9392
2636	64.9727
2632	64.9951
2628	65.0512
2624	65.1104
2620	65.0856
2616	64.9951
2612	64.9468
2608	64.959
2604	64.9498
2600	64.931
2596	64.902
2592	64.8837
2588	64.9614
2584	65.0693
2580	65.0762
2576	65.015
2572	65.0001
2568	65.0046
2564	64.9874
2560	65.0109
2556	65.0648
2552	65.0564
2548	64.9595
2544	64.8937
2540	64.9096
2536	64.9601
2532	65.0366
2528	65.0521
2524	64.9778
2520	64.9314
2516	64.9511
2512	64.9878
2508	65.0329
2504	65.0526
2500	65.0273
2496	65.0339
2492	65.032
2488	64.954
2484	64.9049
2480	64.9559
2476	65.0307
2472	65.0463
2468	65.0026
2464	64.9628
2460	64.9729
2456	64.9978
2452	64.9994
2448	64.9712
2444	64.9402
2440	64.9724
2436	65.0414
2432	65.0792
2428	65.1531
2424	65.2109
2420	65.0565
2416	64.8733
2412	64.8825
2408	64.9784
2404	65.0873
2400	65.1213
2396	65.0667
2392	65.0465
2388	65.0338
2384	64.9801
2380	64.9036
2376	64.8295
2372	64.836
2368	64.9042
2364	64.9491
2360	64.9724
2356	64.9946
2352	65.0031
2348	64.9581
2344	64.9002
2340	64.8898
2336	64.8681
2332	64.8333
2328	64.8253
2324	64.8329
2320	64.8721
2316	64.9174
2312	64.9135
2308	64.8838
2304	64.8987
2300	64.9004
2296	64.8553
2292	64.8854
2288	64.9403
2284	64.9179
2280	64.9132
2276	64.9456
2272	64.9271
2268	64.8866
2264	64.8775
2260	64.8558
2256	64.8057
2252	64.8052
2248	64.8825
2244	64.9406
2240	64.9276
2236	64.9303
2232	64.9631
2228	64.9002
2224	64.7744
2220	64.746
2216	64.7954
2212	64.8417
2208	64.8656
2204	64.8788
2200	64.8843
2196	64.8803
2192	64.8901
2188	64.9006
2184	64.9054
2180	64.8347
2176	64.7351
2172	64.7661
2168	64.8232
2164	64.8033
2160	64.8216
2156	64.8963
2152	64.9243
2148	64.8764
2144	64.8228
2140	64.8282
2136	64.8667
2132	64.8677
2128	64.8181
2124	64.8016
2120	64.854
2116	64.8855
2112	64.8816
2108	64.8825
2104	64.8584
2100	64.8373
2096	64.8354
2092	64.8241
2088	64.8475
2084	64.8258
2080	64.7386
2076	64.7824
2072	64.9312
2068	64.9287
2064	64.7506
2060	64.6334
2056	64.6972
2052	64.8022
2048	64.8283
2044	64.7866
2040	64.724
2036	64.7036
2032	64.7439
2028	64.8181
2024	64.8448
2020	64.7799
2016	64.7179
2012	64.7237
2008	64.7892
2004	64.8563
2000	64.8285
1996	64.7078
1992	64.6179
1988	64.6109
1984	64.6268
1980	64.6332
1976	64.6471
1972	64.7067
1968	64.7667
1964	64.7509
1960	64.7093
1956	64.7172
1952	64.7844
1948	64.8182
1944	64.786
1940	64.7873
1936	64.7869
1932	64.7063
1928	64.6245
1924	64.6511
1920	64.728
1916	64.7361
1912	64.6931
1908	64.6462
1904	64.6235
1900	64.6104
1896	64.5499
1892	64.5265
1888	64.59
1884	64.6271
1880	64.6256
1876	64.6543
1872	64.6749
1868	64.6468
1864	64.6217
1860	64.6404
1856	64.6672
1852	64.6775
1848	64.7105
1844	64.7427
1840	64.6796
1836	64.5985
1832	64.6399
1828	64.6943
1824	64.6707
1820	64.6619
1816	64.654
1812	64.5938
1808	64.5679
1804	64.6079
1800	64.6329
1796	64.6312
1792	64.594
1788	64.5417
1784	64.5448
1780	64.5613
1776	64.5622
1772	64.5641
1768	64.5282
1764	64.4966
1760	64.502
1756	64.48
1752	64.4501
1748	64.4292
1744	64.4064
1740	64.3806
1736	64.3105
1732	64.2436
1728	64.2917
1724	64.3907
1720	64.4223
1716	64.4111
1712	64.4064
1708	64.4522
1704	64.5288
1700	64.594
1696	64.6191
1692	64.5873
1688	64.5764
1684	64.5609
1680	64.5003
1676	64.5294
1672	64.6473
1668	64.6517
1664	64.5049
1660	64.3851
1656	64.3842
1652	64.4175
1648	64.4102
1644	64.3935
1640	64.4183
1636	64.4717
1632	64.4873
1628	64.4438
1624	64.3723
1620	64.2964
1616	64.2491
1612	64.2877
1608	64.396
1604	64.4637
1600	64.4516
1596	64.4205
1592	64.4021
1588	64.4043
1584	64.4413
1580	64.4372
1576	64.3797
1572	64.3945
1568	64.4709
1564	64.5085
1560	64.4369
1556	64.3266
1552	64.2672
1548	64.2586
1544	64.3271
1540	64.3638
1536	64.323
1532	64.3077
1528	64.3058
1524	64.3239
1520	64.423
1516	64.5188
1512	64.5043
1508	64.4295
1504	64.3815
1500	64.3836
1496	64.4273
1492	64.4456
1488	64.3928
1484	64.3608
1480	64.3798
1476	64.3702
1472	64.2965
1468	64.2307
1464	64.2451
1460	64.3018
1456	64.2689
1452	64.2081
1448	64.2753
1444	64.3603
1440	64.3723
1436	64.3892
1432	64.4155
1428	64.4159
1424	64.41
1420	64.4008
1416	64.3564
1412	64.2962
1408	64.2929
1404	64.3096
1400	64.3021
1396	64.3329
1392	64.3522
1388	64.3005
1384	64.2455
1380	64.2164
1376	64.2083
1372	64.2294
1368	64.2391
1364	64.2223
1360	64.2467
1356	64.2728
1352	64.2243
1348	64.2054
1344	64.2438
1340	64.2587
1336	64.2747
1332	64.2902
1328	64.2464
1324	64.1516
1320	64.076
1316	64.0607
1312	64.0897
1308	64.1681
1304	64.1909
1300	64.1133
1296	64.1248
1292	64.2265
1288	64.2629
1284	64.1863
1280	64.0687
1276	64.0327
1272	64.0682
1268	64.1019
1264	64.0846
1260	64.0422
1256	64.0432
1252	64.0861
1248	64.1078
1244	64.1027
1240	64.1382
1236	64.1678
1232	64.1276
1228	64.0926
1224	64.1269
1220	64.1817
1216	64.1727
1212	64.1068
1208	64.0735
1204	64.1319
1200	64.2219
1196	64.2342
1192	64.1438
1188	64.0427
1184	64.0282
1180	64.0456
1176	63.9932
1172	63.8895
1168	63.7967
1164	63.8561
1160	64.0405
1156	64.1034
1152	64.0474
1148	64.0194
1144	64.0133
1140	63.9538
1136	63.9297
1132	63.9397
1128	63.8481
1124	63.8228
1120	63.9849
1116	64.0398
1112	63.917
1108	63.869
1104	63.8789
1100	63.8198
1096	63.7571
1092	63.7838
1088	63.9096
1084	63.9716
1080	63.9202
1076	63.9738
1072	64.0771
1068	64.0262
1064	63.9055
1060	63.8496
1056	63.884
1052	63.9709
1048	63.9626
1044	63.8434
1040	63.7658
1036	63.7679
1032	63.8764
1028	64.0479
1024	64.1218
1020	64.0236
1016	63.935
1012	63.9798
1008	64.0222
1004	64.0298
1000	64.0366
996	 63.9857
992	 63.9467
988	 63.9886
984	 63.9842
980	 63.9182
976	 63.8865
972	 63.9108
968	 63.9773
964	 64.0137
960	 63.9882
956	 63.9089
952	 63.8901
948	 64.0284
944	 64.1262
940	 64.1385
936	 64.1536
932	 64.1407
928	 64.1871
924	 64.2519
920	 64.243
916	 64.1924
912	 64.0668
908	 63.9314
904	 63.8898
900	 63.9755
896	 64.1246
892	 64.171
888	 64.0686
884	 63.9683
880	 64.0616
876	 64.2483
872	 64.2768
868	 64.1785
864	 64.0427
860	 63.9244
856	 63.8927
852	 63.8304
848	 63.759
844	 63.8025
840	 63.8244
836	 63.767
832	 63.7259
828	 63.7393
824	 63.7108
820	 63.6222
816	 63.7005
812	 63.8623
808	 63.8326
804	 63.7084
800	 63.7109
796	 63.8277
792	 63.9175
788	 63.9557
784	 64.0504
780	 64.0938
776	 63.9957
772	 63.8967
768	 63.7718
764	 63.6211
760	 63.5589
756	 63.5275
752	 63.5669
748	 63.8904
744	 64.0007
740	 63.5684
736	 63.4259
732	 63.6953
728	 63.8109
724	 63.8093
720	 63.7284
716	 63.5764
712	 63.5457
708	 63.6962
704	 63.9358
700	 63.8723
696	 63.4881
692	 63.3375
688	 63.2296
684	 63.1431
680	 63.6234
676	 64.2194
672	 64.3265
668	 63.8523
664	 63.1604
660	 63.2547
656	 63.5153
652	 63.161
648	 63.3306
644	 64.1374
640	 64.7719
636	 64.9784
632	 64.6075
628	 64.1295
624	 63.9028
620	 63.4354
616	 62.6673
612	 62.511
608	 63.2901
604	 63.867
600	 63.9303
596	 63.9006
592	 63.481
588	 63.0183
584	 63.2245
580	 63.7181
576	 63.9603
572	 64.0666
568	 64.0088
564	 63.7894
560	 63.7744
556	 63.9975
552	 64.1041
548	 63.9362
544	 63.7207
540	 63.4229
536	 63.2481
532	 63.411
528	 63.8038
524	 64.1763
520	 64.2354
516	 64.068
512	 63.8277
508	 63.5962
504	 63.7123
500	 63.8347
496	 63.2507
492	 62.5769
488	 62.6398
484	 63.1669
480	 63.6367
476	 63.7596
472	 63.7311
468	 63.4861
464	 63.094
460	 63.1258
456	 63.3779
452	 63.5494
448	 64.0335
444	 64.4085
440	 63.7173
436	 63.3705
432	 64.438
428	 64.5001
424	 62.7059
420	 61.818
416	 63.1045
412	 64.4717
408	 63.9954
404	 63.6472
400	 65.2143
396	 67.0086
392	 69.664
388	 76.3007
384	 79.2516
380	 76.6173
376	 78.5904
372	 77.2197
370	 71.9525