File: Bakgrunnsmateriale/MATLAB/FTIR/ftir_data/subAa/Mapping_121/BZ1503107-1_t73_cm-1.asc
PE IR       SPECTRUM    SPECTRUM    ASCII       PEDS        1.60
  -1
BZ6BA6~1.ASC
17/04/07
19:15:46.00
17/04/07
19:15:46.00
tln
$BZ1503107-1_t0073$<tbV0>[-2.6,2.6,8.0,0.0,27,1,0]
370
64

2002,4.07
MIRTGS : RIGHTBACK : INTERNAL 2
MIR : ON : INTERNAL 2
OPTKBR

0.200000
8
8.000000
FILLER
RATIO
SPECTRUM
UNLOCKED 256

DOUBLE
64
COMBINED
1
0
0

1.000000
RATIO

1
0
TRUE
51149
0
LEFT NOT FITTED RIGHT NOT FITTED 0
NONE
NONE
15600
12
4.427000
51148
TRUE
1 0 8 72 0 0 0 0

15798

#HDR
-1
-1
#GR
CM-1
%T
2.38419e-05
0.0
5000
-1.000000
4631
8
89.7969
54.3866
#DATA
5000	65.5807
4996	65.3072
4992	64.7419
4988	64.4243
4984	64.1468
4980	64.0013
4976	64.2014
4972	64.4528
4968	64.5926
4964	64.6671
4960	64.8077
4956	64.9813
4952	64.823
4948	64.6276
4944	64.8417
4940	64.8477
4936	64.419
4932	64.1591
4928	64.3055
4924	64.4791
4920	64.5518
4916	64.7407
4912	64.8847
4908	64.8444
4904	64.6999
4900	64.7121
4896	64.9018
4892	64.8608
4888	64.615
4884	64.604
4880	64.7163
4876	64.6397
4872	64.5781
4868	64.5977
4864	64.5675
4860	64.4788
4856	64.545
4852	64.672
4848	64.5219
4844	64.4989
4840	64.7061
4836	64.8174
4832	64.7255
4828	64.4422
4824	64.4099
4820	64.5492
4816	64.6616
4812	64.7817
4808	64.7532
4804	64.8265
4800	64.8499
4796	64.6097
4792	64.5367
4788	64.6804
4784	64.7541
4780	64.6421
4776	64.575
4772	64.8033
4768	65.0631
4764	65.0927
4760	64.8992
4756	64.676
4752	64.7003
4748	64.8621
4744	64.9474
4740	64.8721
4736	64.6974
4732	64.6572
4728	64.7537
4724	64.9747
4720	65.2356
4716	65.1786
4712	64.839
4708	64.7819
4704	64.9366
4700	64.9094
4696	64.8156
4692	64.6116
4688	64.4058
4684	64.3666
4680	64.2944
4676	64.3033
4672	64.4537
4668	64.5586
4664	64.706
4660	64.8482
4656	64.871
4652	64.7764
4648	64.7214
4644	64.9478
4640	65.1867
4636	65.2275
4632	65.2517
4628	65.2611
4624	65.1102
4620	64.8689
4616	64.8802
4612	65.0927
4608	64.9946
4604	64.6727
4600	64.5438
4596	64.6126
4592	64.7251
4588	64.6857
4584	64.7226
4580	65.1681
4576	65.5617
4572	65.5099
4568	65.218
4564	64.9728
4560	64.8153
4556	64.5256
4552	64.3621
4548	64.6078
4544	64.7093
4540	64.6244
4536	64.7542
4532	64.7808
4528	64.5515
4524	64.3966
4520	64.4346
4516	64.6101
4512	64.7928
4508	64.9982
4504	65.1151
4500	65.1499
4496	65.1617
4492	65.0712
4488	65.0909
4484	65.0237
4480	64.7663
4476	64.7326
4472	64.665
4468	64.3872
4464	64.1855
4460	64.2038
4456	64.385
4452	64.3555
4448	64.1945
4444	64.3488
4440	64.5562
4436	65.0844
4432	67.6212
4428	67.3925
4424	60.4724
4420	57.8668
4416	65.479
4412	73.7553
4408	75.8723
4404	74.4678
4400	70.5349
4396	67.0161
4392	65.3897
4388	65.1423
4384	65.3255
4380	65.0563
4376	64.4524
4372	64.3981
4368	64.8344
4364	65.1087
4360	65.3416
4356	65.3035
4352	64.9831
4348	64.7667
4344	64.7929
4340	65.1291
4336	65.2083
4332	64.6648
4328	63.6855
4324	63.045
4320	63.024
4316	62.4808
4312	62.1992
4308	63.0596
4304	63.8595
4300	64.3301
4296	64.8249
4292	65.187
4288	65.1422
4284	64.6626
4280	64.3493
4276	64.6376
4272	64.9763
4268	64.8437
4264	64.6203
4260	64.6559
4256	64.7476
4252	64.7571
4248	64.7905
4244	64.899
4240	64.8855
4236	64.7535
4232	64.6804
4228	64.6523
4224	64.7083
4220	64.8468
4216	64.8942
4212	64.8353
4208	64.9105
4204	64.9899
4200	64.8174
4196	64.8269
4192	65.1356
4188	65.1741
4184	65.0206
4180	65.1008
4176	65.23
4172	65.1134
4168	64.8989
4164	64.7268
4160	64.5236
4156	64.4332
4152	64.6116
4148	64.8107
4144	64.7058
4140	64.4516
4136	64.4488
4132	64.6756
4128	64.8234
4124	64.8482
4120	64.9314
4116	64.9317
4112	64.5947
4108	64.3314
4104	64.5036
4100	64.7105
4096	64.7807
4092	64.8287
4088	64.8771
4084	64.9538
4080	64.9815
4076	64.9354
4072	64.9282
4068	64.9702
4064	64.9534
4060	64.9453
4056	65.02
4052	65.0554
4048	64.9965
4044	64.9332
4040	64.8837
4036	64.8908
4032	65.0334
4028	65.1376
4024	65.0173
4020	64.8765
4016	64.9519
4012	65.0781
4008	65.069
4004	65.0275
4000	64.9171
3996	64.6523
3992	64.54
3988	64.7633
3984	65.0208
3980	65.0733
3976	65.1478
3972	65.3267
3968	65.3083
3964	65.1247
3960	64.9894
3956	64.8483
3952	64.818
3948	64.99
3944	65.0526
3940	64.8995
3936	64.8208
3932	64.8911
3928	64.856
3924	64.7428
3920	64.7538
3916	64.8987
3912	65.1054
3908	65.1918
3904	65.1288
3900	65.1455
3896	65.1825
3892	65.1315
3888	65.1596
3884	65.1942
3880	65.1668
3876	65.18
3872	65.1924
3868	65.1266
3864	65.0004
3860	64.9556
3856	64.9493
3852	64.8518
3848	64.7613
3844	64.7322
3840	64.7885
3836	64.9294
3832	64.9791
3828	64.9452
3824	64.9784
3820	65.0251
3816	65.0505
3812	65.0327
3808	65.0122
3804	65.1575
3800	65.3718
3796	65.4071
3792	65.1915
3788	64.9749
3784	64.9801
3780	65.0425
3776	65.0275
3772	64.9771
3768	64.9789
3764	65.0178
3760	65.0223
3756	65.0627
3752	65.1465
3748	65.2237
3744	65.2732
3740	65.1657
3736	65.0087
3732	65.0532
3728	64.9784
3724	64.709
3720	64.81
3716	65.2336
3712	65.3406
3708	65.1469
3704	65.1565
3700	65.2842
3696	65.2492
3692	65.1516
3688	65.0659
3684	64.8597
3680	64.6407
3676	64.6659
3672	64.9318
3668	65.2364
3664	65.2671
3660	64.9861
3656	64.7494
3652	64.798
3648	64.9364
3644	64.9343
3640	64.9568
3636	65.0573
3632	65.0874
3628	65.0558
3624	64.989
3620	64.9404
3616	65.0077
3612	65.1319
3608	65.1573
3604	65.0779
3600	64.9613
3596	64.896
3592	64.923
3588	64.9347
3584	64.9567
3580	65.0326
3576	65.0756
3572	65.0813
3568	65.0362
3564	65.0098
3560	65.0304
3556	64.9199
3552	64.8099
3548	64.9213
3544	65.1041
3540	65.2329
3536	65.2694
3532	65.1814
3528	65.1254
3524	65.1071
3520	65.0314
3516	64.9487
3512	64.9099
3508	64.9421
3504	64.9528
3500	64.8358
3496	64.7089
3492	64.731
3488	64.8616
3484	64.9252
3480	64.9421
3476	65.0249
3472	65.069
3468	65.1098
3464	65.1611
3460	65.0922
3456	65.0109
3452	64.9719
3448	64.981
3444	64.9634
3440	64.794
3436	64.6557
3432	64.6952
3428	64.8144
3424	64.8657
3420	64.8139
3416	64.7727
3412	64.8577
3408	64.9834
3404	64.9662
3400	64.843
3396	64.7889
3392	64.8005
3388	64.7753
3384	64.8026
3380	64.9812
3376	65.142
3372	65.1664
3368	65.1731
3364	65.1998
3360	65.208
3356	65.136
3352	64.9722
3348	64.9078
3344	64.993
3340	65.0747
3336	65.0852
3332	65.0922
3328	65.111
3324	65.0377
3320	64.9067
3316	64.7995
3312	64.8005
3308	64.927
3304	64.9999
3300	64.9649
3296	64.9164
3292	64.8902
3288	64.8675
3284	64.8288
3280	64.8728
3276	64.9864
3272	64.9662
3268	64.834
3264	64.7622
3260	64.6912
3256	64.561
3252	64.3809
3248	64.7648
3244	65.9728
3240	66.1901
3236	65.4852
3232	65.4937
3228	65.5621
3224	65.2232
3220	64.9463
3216	64.7806
3212	64.6984
3208	64.7489
3204	64.8352
3200	64.8952
3196	64.9799
3192	65.0416
3188	65.0536
3184	65.0409
3180	65.0252
3176	65.091
3172	65.1353
3168	65.0509
3164	65.04
3160	65.1102
3156	65.0623
3152	64.9535
3148	64.9546
3144	65.0631
3140	65.0831
3136	64.9853
3132	64.8888
3128	64.8446
3124	64.9042
3120	65.0048
3116	65.0361
3112	64.9748
3108	64.8923
3104	64.8457
3100	64.8081
3096	64.795
3092	64.8272
3088	64.8395
3084	64.8133
3080	64.7855
3076	64.7097
3072	64.7162
3068	64.9297
3064	65.077
3060	65.0439
3056	65.0199
3052	65.029
3048	64.9861
3044	64.9271
3040	64.9395
3036	64.9453
3032	64.8767
3028	64.8309
3024	64.8091
3020	64.7803
3016	64.7897
3012	64.7821
3008	64.769
3004	64.8053
3000	64.7885
2996	64.7509
2992	64.7887
2988	64.7822
2984	64.7545
2980	64.8744
2976	65.0295
2972	65.0297
2968	64.9559
2964	64.9602
2960	64.9103
2956	64.7766
2952	64.7103
2948	64.6531
2944	64.6388
2940	64.6859
2936	64.6485
2932	64.6189
2928	64.6417
2924	64.6211
2920	64.6547
2916	64.7194
2912	64.7728
2908	64.8337
2904	64.8088
2900	64.766
2896	64.7712
2892	64.7444
2888	64.7274
2884	64.7774
2880	64.8404
2876	64.8756
2872	64.8425
2868	64.7238
2864	64.6466
2860	64.7139
2856	64.8045
2852	64.8279
2848	64.8562
2844	64.9115
2840	64.9155
2836	64.7845
2832	64.65
2828	64.6837
2824	64.7759
2820	64.8089
2816	64.8454
2812	64.8893
2808	64.8779
2804	64.8337
2800	64.8216
2796	64.8432
2792	64.8606
2788	64.8457
2784	64.8414
2780	64.9156
2776	64.9492
2772	64.9104
2768	64.9331
2764	65.0004
2760	64.963
2756	64.8571
2752	64.8488
2748	64.8961
2744	64.9047
2740	64.874
2736	64.8662
2732	64.9192
2728	64.9412
2724	64.9506
2720	65.0134
2716	64.9858
2712	64.841
2708	64.7548
2704	64.7257
2700	64.7064
2696	64.7234
2692	64.794
2688	64.8995
2684	64.9491
2680	64.968
2676	64.9547
2672	64.914
2668	64.9012
2664	64.8819
2660	64.8713
2656	64.8452
2652	64.8039
2648	64.7659
2644	64.7242
2640	64.7285
2636	64.7499
2632	64.7619
2628	64.7691
2624	64.766
2620	64.8038
2616	64.847
2612	64.8127
2608	64.7167
2604	64.6325
2600	64.5756
2596	64.5206
2592	64.5041
2588	64.5289
2584	64.6077
2580	64.7731
2576	64.9101
2572	64.8482
2568	64.6762
2564	64.6514
2560	64.7179
2556	64.67
2552	64.6179
2548	64.6927
2544	64.7742
2540	64.7465
2536	64.6973
2532	64.6892
2528	64.6676
2524	64.705
2520	64.7812
2516	64.7576
2512	64.7173
2508	64.7289
2504	64.7538
2500	64.7584
2496	64.6725
2492	64.5481
2488	64.5085
2484	64.5511
2480	64.5966
2476	64.6424
2472	64.7377
2468	64.8506
2464	64.8541
2460	64.7573
2456	64.689
2452	64.7258
2448	64.7619
2444	64.6367
2440	64.5643
2436	64.701
2432	64.9093
2428	64.9845
2424	64.8114
2420	64.6438
2416	64.5978
2412	64.5423
2408	64.4805
2404	64.4611
2400	64.5487
2396	64.6487
2392	64.6537
2388	64.6194
2384	64.5443
2380	64.5031
2376	64.5756
2372	64.6524
2368	64.6296
2364	64.6143
2360	64.6755
2356	64.6498
2352	64.562
2348	64.5442
2344	64.6299
2340	64.7653
2336	64.7815
2332	64.703
2328	64.6211
2324	64.5575
2320	64.5829
2316	64.6866
2312	64.7673
2308	64.7223
2304	64.5989
2300	64.5407
2296	64.5679
2292	64.589
2288	64.567
2284	64.5544
2280	64.5726
2276	64.6278
2272	64.6729
2268	64.6393
2264	64.5886
2260	64.5825
2256	64.5914
2252	64.5945
2248	64.536
2244	64.4594
2240	64.4527
2236	64.4624
2232	64.4713
2228	64.4902
2224	64.5344
2220	64.572
2216	64.5648
2212	64.5709
2208	64.5925
2204	64.584
2200	64.5181
2196	64.4537
2192	64.4705
2188	64.4957
2184	64.4884
2180	64.4491
2176	64.475
2172	64.8568
2168	65.1113
2164	64.0117
2160	62.6725
2156	62.935
2152	63.7466
2148	64.0813
2144	64.1687
2140	64.1927
2136	64.3626
2132	64.5581
2128	64.6071
2124	64.5656
2120	64.4669
2116	64.4184
2112	64.4767
2108	64.5258
2104	64.5325
2100	64.5122
2096	64.5076
2092	64.5281
2088	64.5335
2084	64.5349
2080	64.5172
2076	64.4956
2072	64.4841
2068	64.4631
2064	64.4583
2060	64.4756
2056	64.4537
2052	64.3872
2048	64.3103
2044	64.2595
2040	64.3022
2036	64.4087
2032	64.4495
2028	64.4324
2024	64.4461
2020	64.4622
2016	64.4197
2012	64.3431
2008	64.3246
2004	64.3621
2000	64.3864
1996	64.4108
1992	64.4119
1988	64.3501
1984	64.3314
1980	64.3326
1976	64.2601
1972	64.2586
1968	64.3422
1964	64.3678
1960	64.3343
1956	64.3124
1952	64.3018
1948	64.2885
1944	64.3164
1940	64.3404
1936	64.3417
1932	64.3594
1928	64.3904
1924	64.4235
1920	64.4467
1916	64.4714
1912	64.4454
1908	64.3767
1904	64.3541
1900	64.34
1896	64.2921
1892	64.2509
1888	64.2289
1884	64.2361
1880	64.2483
1876	64.2099
1872	64.1765
1868	64.2049
1864	64.2401
1860	64.2533
1856	64.3115
1852	64.3772
1848	64.35
1844	64.2966
1840	64.2744
1836	64.2518
1832	64.2162
1828	64.1953
1824	64.2182
1820	64.2453
1816	64.2257
1812	64.1932
1808	64.2177
1804	64.2852
1800	64.3064
1796	64.2585
1792	64.2545
1788	64.3292
1784	64.3178
1780	64.1959
1776	64.174
1772	64.2404
1768	64.2041
1764	64.1437
1760	64.158
1756	64.1092
1752	64.0035
1748	63.9811
1744	63.9893
1740	63.9642
1736	63.9776
1732	64.0468
1728	64.0946
1724	64.0626
1720	64.0322
1716	64.0767
1712	64.0666
1708	63.9717
1704	63.8954
1700	63.8588
1696	63.8898
1692	63.9939
1688	64.0765
1684	64.0956
1680	64.1089
1676	64.0925
1672	63.9949
1668	63.8982
1664	63.9066
1660	63.993
1656	64.0284
1652	64.021
1648	64.0144
1644	63.9618
1640	63.8662
1636	63.8021
1632	63.9128
1628	64.0908
1624	64.1133
1620	64.1371
1616	64.1934
1612	64.1059
1608	64.0053
1604	63.9467
1600	63.9088
1596	63.9032
1592	63.8406
1588	63.8258
1584	63.9138
1580	63.9475
1576	63.9272
1572	63.9103
1568	63.8407
1564	63.7799
1560	63.8214
1556	63.8897
1552	63.8929
1548	63.8667
1544	63.9154
1540	64.0194
1536	64.0091
1532	63.9369
1528	63.9292
1524	63.9125
1520	63.8691
1516	63.8716
1512	63.9042
1508	63.9301
1504	63.8961
1500	63.7516
1496	63.6822
1492	63.8424
1488	63.9974
1484	64.0009
1480	63.9652
1476	63.9385
1472	63.8694
1468	63.7768
1464	63.6792
1460	63.6487
1456	63.6969
1452	63.8354
1448	63.9567
1444	63.8616
1440	63.7417
1436	63.7421
1432	63.8175
1428	63.9116
1424	63.8654
1420	63.7511
1416	63.8143
1412	63.913
1408	63.8219
1404	63.7285
1400	63.8065
1396	63.9389
1392	63.9647
1388	63.8543
1384	63.7496
1380	63.6963
1376	63.6408
1372	63.6199
1368	63.6526
1364	63.7072
1360	63.7099
1356	63.6827
1352	63.6489
1348	63.5862
1344	63.6234
1340	63.7604
1336	63.8152
1332	63.7696
1328	63.8259
1324	63.9639
1320	63.8861
1316	63.6888
1312	63.6622
1308	63.7134
1304	63.7197
1300	63.6774
1296	63.5476
1292	63.4399
1288	63.4996
1284	63.6004
1280	63.6101
1276	63.5533
1272	63.5253
1268	63.615
1264	63.7046
1260	63.704
1256	63.6769
1252	63.6527
1248	63.5914
1244	63.5446
1240	63.513
1236	63.4433
1232	63.4846
1228	63.6013
1224	63.6153
1220	63.5471
1216	63.4696
1212	63.4674
1208	63.558
1204	63.6359
1200	63.6981
1196	63.7426
1192	63.6395
1188	63.5523
1184	63.6116
1180	63.5899
1176	63.5233
1172	63.5535
1168	63.5231
1164	63.346
1160	63.2715
1156	63.4306
1152	63.5666
1148	63.5344
1144	63.5009
1140	63.5309
1136	63.5596
1132	63.5759
1128	63.6299
1124	63.6621
1120	63.5997
1116	63.5016
1112	63.4601
1108	63.4257
1104	63.3418
1100	63.1911
1096	63.1971
1092	63.1928
1088	63.2814
1084	65.4447
1080	66.806
1076	64.1944
1072	62.5936
1068	63.3069
1064	63.4758
1060	63.3696
1056	63.4185
1052	63.3256
1048	63.1152
1044	63.0836
1040	63.2327
1036	63.287
1032	63.2677
1028	63.3503
1024	63.4111
1020	63.4049
1016	63.4218
1012	63.4604
1008	63.4063
1004	63.2777
1000	63.2004
996	 63.1509
992	 63.2472
988	 63.3938
984	 63.403
980	 63.4366
976	 63.4641
972	 63.416
968	 63.3863
964	 63.395
960	 63.4447
956	 63.4427
952	 63.3282
948	 63.2407
944	 63.3309
940	 63.4257
936	 63.3537
932	 63.2356
928	 63.14
924	 63.0998
920	 63.092
916	 63.0546
912	 63.0819
908	 63.2707
904	 63.45
900	 63.4858
896	 63.4776
892	 63.4788
888	 63.5309
884	 63.4853
880	 63.2296
876	 63.0608
872	 63.2172
868	 63.505
864	 63.515
860	 63.3526
856	 63.3606
852	 63.4184
848	 63.3536
844	 63.3052
840	 63.3495
836	 63.4352
832	 63.5949
828	 63.6651
824	 63.55
820	 63.5385
816	 63.6392
812	 63.5425
808	 63.2923
804	 63.1517
800	 63.126
796	 63.0903
792	 63.0532
788	 63.0216
784	 62.9048
780	 62.8462
776	 62.9296
772	 63.0602
768	 63.0631
764	 62.7867
760	 62.6669
756	 62.8736
752	 62.9512
748	 62.7388
744	 62.6238
740	 62.749
736	 62.732
732	 62.6479
728	 62.8483
724	 63.1334
720	 63.2004
716	 63.0875
712	 62.8197
708	 62.3971
704	 61.9457
700	 61.7374
696	 61.7954
692	 62.1139
688	 62.7425
684	 63.0652
680	 63.0628
676	 63.3159
672	 63.5176
668	 63.1469
664	 62.7387
660	 63.0218
656	 63.2454
652	 62.8362
648	 62.5216
644	 62.4525
640	 62.0615
636	 61.6576
632	 62.0638
628	 62.3911
624	 62.1668
620	 62.5164
616	 63.1438
612	 63.3049
608	 63.4512
604	 63.8665
600	 63.72
596	 62.9776
592	 62.6068
588	 62.8069
584	 63.2442
580	 63.341
576	 62.8986
572	 62.6369
568	 62.8875
564	 62.9677
560	 62.7043
556	 62.4833
552	 62.5835
548	 62.7995
544	 62.6618
540	 62.4667
536	 62.5571
532	 62.621
528	 62.4272
524	 62.2249
520	 62.3238
516	 62.729
512	 63.0753
508	 63.143
504	 62.8995
500	 62.958
496	 63.5012
492	 63.3705
488	 63.014
484	 63.1889
480	 63.0532
476	 62.4232
472	 62.2713
468	 62.5938
464	 62.5954
460	 62.8601
456	 63.1505
452	 62.7013
448	 62.807
444	 63.3742
440	 63.1657
436	 61.7836
432	 59.6576
428	 59.3841
424	 61.7611
420	 65.0704
416	 67.1001
412	 66.0933
408	 65.0151
404	 65.253
400	 65.838
396	 68.2019
392	 67.5255
388	 59.1549
384	 54.403
380	 62.4557
376	 72.9962
372	 82.5725
370	 89.7969