File: Bakgrunnsmateriale/MATLAB/FTIR/ftir_data/subAa/Mapping_121/BZ1503107-1_t18.asc
PE IR       SPECTRUM    SPECTRUM    ASCII       PEDS        1.60
  -1
BZ296B~1.ASC
17/04/07
14:39:36.00
17/04/07
14:40:02.00
tln
$BZ1503107-1_t0018$<tbV0>[-2.6,-10.4,8.0,0.0,27,1,0]
27.028
64

2002,4.07
MIRTGS : RIGHTBACK : INTERNAL 2
MIR : ON : INTERNAL 2
OPTKBR

0.200000
8
8.000000
FILLER
RATIO
SPECTRUM
UNLOCKED 256

DOUBLE
64
COMBINED
1
0
0

0.002000
RATIO

1
0
TRUE
51149
0
LEFT NOT FITTED RIGHT NOT FITTED 0
NONE
NONE
15600
12
4.427000
51148
TRUE
1 0 8 72 0 0 0 0

15798

#HDR
-1
-1
#GR
µM
%T
2.38419e-05
0.0
2.000000
0.002000
12515
8
70.5214
47.9483
#DATA
2.000000	 66.1167
2.018000	 65.2057
2.036000	 64.4303
2.054000	 64.9291
2.072000	 64.7882
2.090000	 65.0497
2.108000	 64.6053
2.126000	 64.6038
2.144000	 64.9069
2.162000	 64.6753
2.180000	 65.1783
2.198000	 64.3491
2.216000	 65.2074
2.234000	 68.5601
2.252000	 57.5919
2.270000	 65.8361
2.288000	 65.3625
2.306000	 65.3698
2.324000	 65.4565
2.342000	 65.0162
2.360000	 65.2622
2.378000	 65.2728
2.396000	 65.2318
2.414000	 64.7289
2.432000	 65.0537
2.450000	 65.1408
2.468000	 65.3855
2.486000	 64.9033
2.504000	 64.8678
2.522000	 65.552
2.540000	 64.985
2.558000	 65.1671
2.576000	 65.2738
2.594000	 65.4391
2.612000	 65.0398
2.630000	 65.2621
2.648000	 64.9303
2.666000	 65.426
2.684000	 65.0329
2.702000	 65.1324
2.720000	 65.3826
2.738000	 65.2159
2.756000	 65.2876
2.774000	 65.3085
2.792000	 65.3007
2.810000	 64.9416
2.828000	 65.1516
2.846000	 65.0969
2.864000	 65.114
2.882000	 65.03
2.900000	 65.1705
2.918000	 65.2019
2.936000	 64.9695
2.954000	 65.1621
2.972000	 65.1448
2.990000	 65.1003
3.008000	 65.3541
3.026000	 65.1217
3.044000	 65.1142
3.062000	 64.8903
3.080000	 64.8996
3.098000	 65.0561
3.116000	 65.0423
3.134000	 65.0132
3.152000	 65.2298
3.170000	 65.2178
3.188000	 65.0467
3.206000	 65.1802
3.224000	 65.1271
3.242000	 65.1243
3.260000	 65.1587
3.278000	 65.0289
3.296000	 65.1313
3.314000	 65.2116
3.332000	 65.2582
3.350000	 64.9631
3.368000	 64.9488
3.386000	 64.9631
3.404000	 64.9785
3.422000	 64.9203
3.440000	 64.8704
3.458000	 64.9624
3.476000	 64.8642
3.494000	 64.9384
3.512000	 65.0372
3.530000	 65.0499
3.548000	 64.9075
3.566000	 65.0124
3.584000	 64.9275
3.602000	 64.9512
3.620000	 65.0242
3.638000	 64.9857
3.656000	 65.0648
3.674000	 65.013
3.692000	 64.9542
3.710000	 65.0637
3.728000	 64.9623
3.746000	 64.924
3.764000	 64.9253
3.782000	 64.7824
3.800000	 64.9506
3.818000	 64.959
3.836000	 64.9206
3.854000	 65.0124
3.872000	 64.9902
3.890000	 65.0428
3.908000	 65.0511
3.926000	 64.9622
3.944000	 65.0138
3.962000	 65.0963
3.980000	 65.1114
3.998000	 65.0007
4.016000	 64.9797
4.034000	 65.1029
4.052000	 65.0639
4.070000	 65.0113
4.088000	 65.0124
4.106000	 65.0398
4.124000	 65.1081
4.141999	 65.1526
4.160000	 64.8836
4.178000	 64.9912
4.196000	 65.0246
4.214000	 64.9239
4.232000	 64.9135
4.250000	 64.9714
4.268000	 64.9027
4.286000	 64.8955
4.304000	 64.8375
4.322000	 65.0378
4.340000	 64.929
4.358000	 64.8813
4.375999	 64.8406
4.394000	 64.9291
4.412000	 64.8926
4.430000	 64.8598
4.448000	 64.9528
4.466000	 64.896
4.484000	 64.8378
4.502000	 64.8184
4.520000	 64.8208
4.538000	 64.8261
4.556000	 64.8927
4.574000	 64.869
4.592000	 64.8083
4.609999	 64.9219
4.628000	 64.8611
4.646000	 64.7185
4.664000	 64.7746
4.682000	 64.839
4.700000	 64.8071
4.718000	 64.8184
4.736000	 64.834
4.754000	 64.7721
4.772000	 64.76
4.790000	 64.7337
4.808000	 64.8094
4.826000	 64.8033
4.843999	 64.8585
4.862000	 64.7871
4.880000	 64.8185
4.898000	 64.8667
4.916000	 64.7988
4.934000	 64.7933
4.952000	 64.8103
4.970000	 64.7967
4.988000	 64.8601
5.006000	 64.7464
5.024000	 64.6463
5.042000	 64.7043
5.060000	 64.7958
5.077999	 64.8244
5.096000	 64.7282
5.114000	 64.7976
5.132000	 64.8718
5.150000	 64.837
5.168000	 64.7171
5.186000	 64.7281
5.204000	 64.7408
5.222000	 64.7636
5.240000	 64.7367
5.258000	 64.8201
5.276000	 64.8538
5.294000	 64.8323
5.312000	 64.6881
5.330000	 64.7451
5.348000	 64.8324
5.366000	 64.7207
5.384000	 64.6924
5.402000	 64.8133
5.420000	 64.808
5.438000	 64.7276
5.456000	 64.7401
5.474000	 64.7617
5.492000	 64.7314
5.510000	 64.8004
5.528000	 64.7668
5.546000	 64.7491
5.564000	 64.814
5.582000	 64.7206
5.600000	 64.7184
5.618000	 64.6905
5.636000	 64.662
5.654000	 64.7391
5.672000	 64.7481
5.690000	 64.7389
5.708000	 64.688
5.726000	 64.4225
5.744000	 64.2233
5.762000	 64.1533
5.780000	 64.1489
5.798000	 64.2255
5.816000	 64.4341
5.834000	 64.586
5.852000	 64.5663
5.870000	 64.7623
5.888000	 64.9458
5.906000	 64.7489
5.923999	 64.7048
5.942000	 64.7473
5.960000	 64.6014
5.978000	 64.6638
5.996000	 64.7004
6.014000	 64.6401
6.032000	 64.6947
6.050000	 64.7156
6.068000	 64.6298
6.086000	 64.6404
6.104000	 64.7634
6.122000	 64.7227
6.140000	 64.5913
6.158000	 64.6407
6.176000	 64.7024
6.194000	 64.6242
6.212000	 64.5131
6.230000	 64.5618
6.248000	 64.5876
6.266000	 64.5986
6.284000	 64.6443
6.302000	 64.6539
6.320000	 64.6662
6.338000	 64.7702
6.356000	 64.7526
6.374000	 64.6338
6.392000	 64.6789
6.410000	 64.8617
6.428000	 64.8454
6.446000	 64.684
6.464000	 64.6399
6.482000	 64.6727
6.500000	 64.6709
6.518000	 64.6368
6.536000	 64.6688
6.554000	 64.7372
6.572000	 64.7478
6.590000	 64.6897
6.608000	 64.6864
6.626000	 64.7834
6.644000	 64.7685
6.662000	 64.659
6.680000	 64.6537
6.698000	 64.6405
6.716000	 64.5977
6.734000	 64.5829
6.752000	 64.6091
6.770000	 64.7319
6.788000	 64.8037
6.806000	 64.7205
6.824000	 64.6066
6.842000	 64.5387
6.860000	 64.4743
6.878000	 64.3739
6.896000	 64.304
6.914000	 64.3322
6.932000	 64.4211
6.950000	 64.4725
6.968000	 64.4179
6.986000	 64.3485
7.004000	 64.3466
7.022000	 64.3715
7.040000	 64.3993
7.058000	 64.412
7.076000	 64.3757
7.094000	 64.3002
7.112000	 64.239
7.130000	 64.2515
7.148000	 64.307
7.166000	 64.3164
7.184000	 64.2997
7.202000	 64.3194
7.220000	 64.3373
7.238000	 64.3077
7.256000	 64.2493
7.274000	 64.1781
7.292000	 64.123
7.310000	 64.137
7.328000	 64.2131
7.346000	 64.295
7.364000	 64.3508
7.382000	 64.3683
7.400000	 64.3543
7.418000	 64.3511
7.436000	 64.3774
7.454000	 64.3864
7.472000	 64.3534
7.490000	 64.3274
7.508000	 64.3354
7.526000	 64.3357
7.544000	 64.3021
7.562000	 64.2607
7.580000	 64.2322
7.598000	 64.2163
7.616000	 64.2199
7.634000	 64.2446
7.652000	 64.2722
7.670000	 64.2761
7.688000	 64.2422
7.706000	 64.1956
7.724000	 64.1882
7.742000	 64.2362
7.760000	 64.2922
7.778000	 64.303
7.796000	 64.2726
7.814000	 64.2425
7.832000	 64.2215
7.850000	 64.1803
7.868000	 64.114
7.886000	 64.0643
7.904000	 64.0668
7.922000	 64.1105
7.940000	 64.1602
7.958000	 64.1936
7.976000	 64.2042
7.994000	 64.1877
8.012000	 64.143
8.030000	 64.0924
8.048000	 64.0747
8.065999	 64.0972
8.084000	 64.1128
8.102000	 64.0814
8.120000	 64.0373
8.138000	 64.0483
8.155999	 64.1199
8.173999	 64.1889
8.192000	 64.2077
8.210000	 64.1887
8.228000	 64.1686
8.246000	 64.1672
8.263999	 64.1843
8.282000	 64.2125
8.300000	 64.2423
8.318000	 64.2626
8.336000	 64.2623
8.353999	 64.2364
8.372000	 64.1974
8.390000	 64.1716
8.408000	 64.1659
8.426000	 64.1471
8.443999	 64.0803
8.462000	 63.9811
8.480000	 63.9053
8.498000	 63.8864
8.516000	 63.9003
8.533999	 63.9017
8.552000	 63.8793
8.570000	 63.8566
8.588000	 63.8521
8.606000	 63.8649
8.624000	 63.8902
8.641999	 63.93
8.660000	 63.9849
8.678000	 64.0442
8.696000	 64.0907
8.714000	 64.1158
8.731999	 64.1284
8.750000	 64.1422
8.768000	 64.1572
8.786000	 64.1587
8.804000	 64.1422
8.821999	 64.1271
8.840000	 64.1353
8.858000	 64.1645
8.876000	 64.1942
8.894000	 64.2065
8.911999	 64.1991
8.930000	 64.1805
8.948000	 64.162
8.966000	 64.1516
8.984000	 64.1438
9.001999	 64.1234
9.020000	 64.0869
9.038000	 64.0602
9.056000	 64.0797
9.074000	 64.1543
9.092000	 64.2551
9.109999	 64.3488
9.128000	 64.4266
9.146000	 64.4881
9.164000	 64.5152
9.182000	 64.4869
9.199999	 64.4167
9.218000	 64.3564
9.236000	 64.3541
9.254000	 64.4103
9.272000	 64.4771
9.289999	 64.4969
9.308000	 64.4428
9.326000	 64.3282
9.344000	 64.1915
9.362000	 64.0711
9.379999	 63.988
9.398000	 63.9437
9.416000	 63.9315
9.434000	 63.9473
9.452000	 63.9896
9.469999	 64.0528
9.488000	 64.1209
9.506000	 64.1691
9.524000	 64.1738
9.542000	 64.128
9.560000	 64.0485
9.577999	 63.9677
9.596000	 63.9161
9.614000	 63.9058
9.632000	 63.9297
9.650000	 63.9693
9.667999	 64.0071
9.686000	 64.033
9.704000	 64.0462
9.722000	 64.0527
9.740000	 64.0605
9.757999	 64.0726
9.776000	 64.0842
9.794000	 64.087
9.812000	 64.0773
9.830000	 64.0609
9.847999	 64.0491
9.866000	 64.0508
9.884000	 64.0682
9.902000	 64.0958
9.920000	 64.1228
9.937999	 64.1371
9.956000	 64.1306
9.974000	 64.1047
9.992000	 64.072
10.01	64.051
10.028	64.0538
10.046	64.0774
10.064	64.1075
10.082	64.1295
10.1	64.1375
10.118	64.1349
10.136	64.1284
10.154	64.1218
10.172	64.1148
10.19	64.1068
10.208	64.1009
10.226	64.1029
10.244	64.1172
10.262	64.1438
10.28	64.1783
10.298	64.2141
10.316	64.2455
10.334	64.2701
10.352	64.288
10.37	64.299
10.388	64.3
10.406	64.2864
10.424	64.2571
10.442	64.2195
10.46	64.186
10.478	64.1689
10.496	64.1723
10.514	64.1901
10.532	64.209
10.55	64.2162
10.568	64.2048
10.586	64.1773
10.604	64.1426
10.622	64.1122
10.64	64.0941
10.658	64.0902
10.676	64.0954
10.694	64.1007
10.712	64.0978
10.73	64.0856
10.748	64.0697
10.766	64.0594
10.784	64.0612
10.802	64.0752
10.82	64.0954
10.838	64.1136
10.856	64.1249
10.874	64.1285
10.892	64.128
10.91	64.1285
10.928	64.1338
10.946	64.1459
10.964	64.1641
10.982	64.1854
11	64.2049
11.018	64.2166
11.036	64.2165
11.054	64.2044
11.072	64.1847
11.09	64.1648
11.108	64.1503
11.126	64.1427
11.144	64.1374
11.162	64.1276
11.18	64.1091
11.198	64.0843
11.216	64.0608
11.234	64.0476
11.252	64.0499
11.27	64.0667
11.288	64.0915
11.306	64.1173
11.324	64.1392
11.342	64.1559
11.36	64.1677
11.378	64.1742
11.396	64.1732
11.414	64.1623
11.432	64.1422
11.45	64.118
11.468	64.0987
11.486	64.0917
11.504	64.0995
11.522	64.118
11.54	64.1394
11.558	64.1555
11.576	64.1622
11.594	64.161
11.612	64.1566
11.63	64.1548
11.648	64.1587
11.666	64.1678
11.684	64.1783
11.702	64.1862
11.72	64.1889
11.738	64.1875
11.756	64.1852
11.774	64.1857
11.792	64.1908
11.81	64.1993
11.828	64.2068
11.846	64.208
11.864	64.199
11.882	64.1788
11.9	64.1494
11.918	64.1147
11.936	64.0784
11.954	64.0418
11.972	64.0038
11.99	63.9622
12.008	63.9164
12.026	63.8692
12.044	63.8267
12.062	63.7974
12.08	63.7878
12.098	63.8003
12.116	63.8307
12.134	63.8688
12.152	63.9015
12.17	63.9183
12.188	63.9133
12.206	63.8886
12.224	63.8521
12.242	63.8147
12.26	63.7864
12.278	63.7737
12.296	63.7781
12.314	63.7968
12.332	63.8237
12.35	63.8518
12.368	63.874
12.386	63.8851
12.404	63.8837
12.422	63.8723
12.44	63.8568
12.458	63.8449
12.476	63.8443
12.494	63.8596
12.512	63.8915
12.53	63.9362
12.548	63.9869
12.566	64.0362
12.584	64.0778
12.602	64.1092
12.62	64.1316
12.638	64.1491
12.656	64.167
12.674	64.1887
12.692	64.215
12.71	64.2432
12.728	64.2679
12.746	64.283
12.764	64.2832
12.782	64.2659
12.8	64.2322
12.818	64.1862
12.836	64.1342
12.854	64.0829
12.872	64.0383
12.89	64.0038
12.908	63.9801
12.926	63.9654
12.944	63.9562
12.962	63.949
12.98	63.941
12.998	63.9311
13.016	63.9201
13.034	63.9104
13.052	63.9046
13.07	63.9048
13.088	63.9111
13.106	63.9216
13.124	63.9324
13.142	63.9381
13.16	63.9335
13.178	63.9147
13.196	63.8805
13.214	63.8335
13.232	63.7793
13.25	63.7263
13.268	63.6839
13.286	63.6604
13.304	63.6618
13.322	63.69
13.34	63.7425
13.358	63.813
13.376	63.8928
13.394	63.9724
13.412	64.0435
13.43	64.0998
13.448	64.1383
13.466	64.1593
13.484	64.1655
13.502	64.1614
13.52	64.1519
13.538	64.141
13.556	64.1317
13.574	64.1256
13.592	64.1226
13.61	64.1219
13.628	64.122
13.646	64.1223
13.664	64.1221
13.682	64.1218
13.7	64.122
13.718	64.124
13.736	64.1287
13.754	64.1366
13.772	64.1468
13.79	64.158
13.808	64.1676
13.826	64.173
13.844	64.1718
13.862	64.1624
13.88	64.1443
13.898	64.1189
13.916	64.0886
13.934	64.0567
13.952	64.0267
13.97	64.0013
13.988	63.9822
14.006	63.9691
14.024	63.9603
14.042	63.9523
14.06	63.9411
14.078	63.9226
14.096	63.8937
14.114	63.8528
14.132	63.8002
14.15	63.7377
14.168	63.668
14.186	63.5948
14.204	63.5217
14.222	63.4522
14.24	63.3887
14.258	63.3325
14.276	63.2843
14.294	63.2445
14.312	63.2129
14.33	63.1893
14.348	63.1737
14.366	63.1662
14.384	63.1672
14.402	63.1767
14.42	63.1948
14.438	63.2209
14.456	63.2541
14.474	63.2929
14.492	63.3353
14.51	63.3788
14.528	63.4209
14.546	63.4593
14.564	63.492
14.582	63.5177
14.6	63.5361
14.618	63.5473
14.636	63.5526
14.654	63.5539
14.672	63.5535
14.69	63.5541
14.708	63.5583
14.726	63.5687
14.744	63.5871
14.762	63.6147
14.78	63.6515
14.798	63.6965
14.816	63.7474
14.834	63.8013
14.852	63.8544
14.87	63.9035
14.888	63.9459
14.906	63.9799
14.924	64.0047
14.942	64.0212
14.96	64.0312
14.978	64.0373
14.996	64.0419
15.014	64.047
15.032	64.0546
15.05	64.0643
15.068	64.0752
15.086	64.0854
15.104	64.0921
15.122	64.0925
15.14	64.0842
15.158	64.0661
15.176	64.0379
15.194	64.0003
15.212	63.9552
15.23	63.9052
15.248	63.8529
15.266	63.8011
15.284	63.7521
15.302	63.7075
15.32	63.6685
15.338	63.6359
15.356	63.6105
15.374	63.5927
15.392	63.5828
15.41	63.5811
15.428	63.5875
15.446	63.6015
15.464	63.6216
15.482	63.6463
15.5	63.6731
15.518	63.6988
15.536	63.7207
15.554	63.7364
15.572	63.7436
15.59	63.7415
15.608	63.731
15.626	63.7135
15.644	63.6919
15.662	63.6703
15.68	63.652
15.698	63.6399
15.716	63.6371
15.734	63.6443
15.752	63.6607
15.77	63.6851
15.788	63.7134
15.806	63.7419
15.824	63.7668
15.842	63.7844
15.86	63.7913
15.878	63.7867
15.896	63.7698
15.914	63.7419
15.932	63.7056
15.95	63.6632
15.968	63.6184
15.986	63.5748
16.004	63.5346
16.022	63.5001
16.04	63.473
16.058	63.4532
16.076	63.4409
16.094	63.4351
16.112	63.4344
16.13	63.438
16.148	63.4445
16.166	63.4531
16.184	63.4633
16.202	63.4747
16.22	63.4872
16.238	63.5004
16.256	63.5142
16.274	63.5281
16.292	63.5411
16.31	63.5528
16.328	63.5615
16.346	63.5663
16.364	63.5664
16.382	63.5606
16.4	63.5489
16.418	63.5311
16.436	63.5082
16.454	63.4815
16.472	63.4524
16.49	63.4233
16.508	63.396
16.526	63.372
16.544	63.3536
16.562	63.3418
16.58	63.3373
16.598	63.3401
16.616	63.3495
16.634	63.3648
16.652	63.3837
16.67	63.4051
16.688	63.4273
16.706	63.4486
16.724	63.4686
16.742	63.4866
16.76	63.5028
16.778	63.5176
16.796	63.5318
16.814	63.5461
16.832	63.5609
16.85	63.5769
16.868	63.594
16.886	63.6123
16.904	63.6309
16.922	63.6492
16.94	63.6661
16.958	63.6802
16.976	63.691
16.994	63.6976
17.012	63.6999
17.03	63.6977
17.048	63.6917
17.066	63.6825
17.084	63.6711
17.102	63.6588
17.12	63.6462
17.138	63.6354
17.156	63.6277
17.174	63.6245
17.192	63.6279
17.21	63.6384
17.228	63.6576
17.246	63.6858
17.264	63.7235
17.282	63.7704
17.3	63.8259
17.318	63.8892
17.336	63.958
17.354	64.0313
17.372	64.105
17.39	64.1775
17.408	64.2448
17.426	64.304
17.444	64.3529
17.462	64.3884
17.48	64.4098
17.498	64.4151
17.516	64.4054
17.534	64.3805
17.552	64.3437
17.57	64.2962
17.588	64.2433
17.606	64.1879
17.624	64.1349
17.642	64.0896
17.66	64.0546
17.678	64.0353
17.696	64.0327
17.714	64.0494
17.732	64.0851
17.75	64.1407
17.768	64.2123
17.786	64.2989
17.804	64.3941
17.822	64.4956
17.84	64.595
17.858	64.6882
17.876	64.7693
17.894	64.8317
17.912	64.8725
17.93	64.8856
17.948	64.8705
17.966	64.8247
17.984	64.7497
18.002	64.6466
18.02	64.5202
18.038	64.3732
18.056	64.2148
18.074	64.0474
18.092	63.883
18.11	63.7233
18.128	63.5799
18.146	63.4543
18.164	63.3549
18.182	63.2831
18.2	63.2429
18.218	63.2344
18.236	63.2586
18.254	63.3125
18.272	63.3956
18.29	63.5018
18.308	63.6302
18.326	63.7724
18.344	63.9268
18.362	64.0847
18.38	64.2438
18.398	64.3964
18.416	64.539
18.434	64.6659
18.452	64.7733
18.47	64.8577
18.488	64.9158
18.506	64.9459
18.524	64.9467
18.542	64.9175
18.56	64.8599
18.578	64.7737
18.596	64.6633
18.614	64.5291
18.632	64.3778
18.65	64.2101
18.668	64.0342
18.686	63.851
18.704	63.6695
18.722	63.4907
18.74	63.3225
18.758	63.1657
18.776	63.0268
18.794	62.9061
18.812	62.8077
18.83	62.7311
18.848	62.678
18.866	62.6472
18.884	62.6383
18.902	62.6494
18.92	62.6784
18.938	62.7233
18.956	62.7811
18.974	62.8497
18.992	62.9258
19.01	63.0083
19.028	63.0945
19.046	63.1839
19.064	63.2749
19.082	63.3677
19.1	63.462
19.118	63.5581
19.136	63.6564
19.154	63.7568
19.172	63.8596
19.19	63.9642
19.208	64.0699
19.226	64.1758
19.244	64.2796
19.262	64.3805
19.28	64.4743
19.298	64.5608
19.316	64.6348
19.334	64.6966
19.352	64.741
19.37	64.7684
19.388	64.7763
19.406	64.7645
19.424	64.7336
19.442	64.6829
19.46	64.6165
19.478	64.5339
19.496	64.4411
19.514	64.3385
19.532	64.232
19.55	64.1243
19.568	64.0189
19.586	63.9207
19.604	63.8307
19.622	63.7543
19.64	63.691
19.658	63.6444
19.676	63.6138
19.694	63.6
19.712	63.6029
19.73	63.6196
19.748	63.6506
19.766	63.691
19.784	63.7407
19.802	63.7951
19.82	63.8518
19.838	63.9088
19.856	63.9619
19.874	64.0112
19.892	64.0526
19.91	64.0866
19.928	64.1112
19.946	64.1263
19.964	64.1327
19.982	64.1298
20	64.1197
20.018	64.103
20.036	64.0814
20.054	64.0574
20.072	64.0312
20.09	64.0065
20.108	63.9829
20.126	63.9634
20.144	63.9482
20.162	63.9382
20.18	63.9341
20.198	63.9354
20.216	63.9426
20.234	63.955
20.252	63.971
20.27	63.991
20.288	64.0121
20.306	64.0345
20.324	64.0558
20.342	64.0745
20.36	64.0904
20.378	64.1008
20.396	64.1064
20.414	64.1057
20.432	64.0985
20.45	64.0848
20.468	64.0641
20.486	64.0373
20.504	64.0053
20.522	63.968
20.54	63.928
20.558	63.8846
20.576	63.8407
20.594	63.7974
20.612	63.7553
20.63	63.7171
20.648	63.6823
20.666	63.6536
20.684	63.6311
20.702	63.6157
20.72	63.6085
20.738	63.6091
20.756	63.618
20.774	63.6352
20.792	63.6599
20.81	63.6928
20.828	63.7324
20.846	63.7774
20.864	63.828
20.882	63.881
20.9	63.9371
20.918	63.9934
20.936	64.048
20.954	64.1011
20.972	64.1489
20.99	64.1922
21.008	64.2283
21.026	64.2561
21.044	64.2755
21.062	64.2845
21.08	64.2835
21.098	64.2719
21.116	64.2491
21.134	64.2159
21.152	64.1727
21.17	64.1192
21.188	64.0577
21.206	63.9881
21.224	63.9117
21.242	63.8312
21.26	63.7459
21.278	63.6593
21.296	63.5717
21.314	63.4843
21.332	63.4001
21.35	63.3181
21.368	63.2411
21.386	63.1699
21.404	63.1045
21.422	63.0468
21.44	62.9964
21.458	62.9536
21.476	62.9191
21.494	62.8923
21.512	62.8727
21.53	62.8606
21.548	62.8544
21.566	62.8532
21.584	62.8573
21.602	62.8638
21.62	62.8735
21.638	62.8845
21.656	62.8947
21.674	62.9049
21.692	62.9132
21.71	62.919
21.728	62.9224
21.746	62.9222
21.764	62.9184
21.782	62.9117
21.8	62.9023
21.818	62.8901
21.836	62.877
21.854	62.8624
21.872	62.8478
21.89	62.8356
21.908	62.8249
21.926	62.8182
21.944	62.8172
21.962	62.8211
21.98	62.8328
21.998	62.8525
22.016	62.8801
22.034	62.9169
22.052	62.9629
22.07	63.0174
22.088	63.0804
22.106	63.1519
22.124	63.2297
22.142	63.314
22.16	63.4038
22.178	63.4956
22.196	63.5905
22.214	63.686
22.232	63.7786
22.25	63.8702
22.268	63.9567
22.286	64.036
22.304	64.1093
22.322	64.1728
22.34	64.2261
22.358	64.2694
22.376	64.3002
22.394	64.3188
22.412	64.3253
22.43	64.3191
22.448	64.3003
22.466	64.2697
22.484	64.2278
22.502	64.1742
22.52	64.111
22.538	64.0388
22.556	63.9574
22.574	63.8698
22.592	63.7759
22.61	63.6762
22.628	63.574
22.646	63.4685
22.664	63.361
22.682	63.2543
22.7	63.1474
22.718	63.0419
22.736	62.94
22.754	62.8405
22.772	62.7453
22.79	62.6562
22.808	62.5722
22.826	62.4949
22.844	62.4256
22.862	62.3634
22.88	62.3095
22.898	62.2645
22.916	62.228
22.934	62.2003
22.952	62.1816
22.97	62.1717
22.988	62.1702
23.006	62.1773
23.024	62.1927
23.042	62.215
23.06	62.2444
23.078	62.2807
23.096	62.3218
23.114	62.3683
23.132	62.4196
23.15	62.4728
23.168	62.5287
23.186	62.5865
23.204	62.6427
23.222	62.6982
23.24	62.7522
23.258	62.8009
23.276	62.8451
23.294	62.8841
23.312	62.9147
23.33	62.9373
23.348	62.9516
23.366	62.9552
23.384	62.9482
23.402	62.9306
23.42	62.9008
23.438	62.8582
23.456	62.8035
23.474	62.7372
23.492	62.6587
23.51	62.5687
23.528	62.4698
23.546	62.3617
23.564	62.2444
23.582	62.1228
23.6	61.9979
23.618	61.8681
23.636	61.7396
23.654	61.6147
23.672	61.4908
23.69	61.3738
23.708	61.2672
23.726	61.1681
23.744	61.0806
23.762	61.0086
23.78	60.95
23.798	60.9062
23.816	60.8795
23.834	60.8697
23.852	60.8758
23.87	60.8973
23.888	60.9352
23.906	60.9881
23.924	61.0529
23.942	61.1306
23.96	61.2204
23.978	61.3181
23.996	61.4226
24.014	61.5355
24.032	61.6516
24.05	61.7679
24.068	61.8871
24.086	62.0054
24.104	62.1189
24.122	62.2298
24.14	62.3364
24.158	62.4358
24.176	62.5284
24.194	62.6146
24.212	62.6934
24.23	62.7641
24.248	62.8273
24.266	62.8848
24.284	62.9373
24.302	62.9836
24.32	63.0264
24.338	63.0682
24.356	63.1073
24.374	63.1452
24.392	63.1845
24.41	63.2252
24.428	63.2668
24.446	63.3103
24.464	63.3564
24.482	63.4047
24.5	63.4547
24.518	63.5065
24.536	63.5613
24.554	63.6166
24.572	63.6698
24.59	63.7221
24.608	63.7729
24.626	63.8181
24.644	63.8566
24.662	63.8907
24.68	63.9156
24.698	63.9268
24.716	63.9277
24.734	63.9158
24.752	63.8868
24.77	63.8407
24.788	63.7785
24.806	63.6975
24.824	63.5954
24.842	63.4737
24.86	63.3322
24.878	63.1704
24.896	62.9872
24.914	62.7839
24.932	62.5633
24.95	62.3261
24.968	62.0702
24.986	61.8004
25.004	61.5217
25.022	61.2301
25.04	60.9286
25.058	60.625
25.076	60.3216
25.094	60.0136
25.112	59.7097
25.13	59.4187
25.148	59.1358
25.166	58.8631
25.184	58.6081
25.202	58.3745
25.22	58.158
25.238	57.962
25.256	57.7903
25.274	57.6427
25.292	57.5179
25.31	57.4155
25.328	57.3362
25.346	57.2812
25.364	57.2464
25.382	57.2276
25.4	57.228
25.418	57.2463
25.436	57.2747
25.454	57.3078
25.472	57.3517
25.49	57.401
25.508	57.4477
25.526	57.4929
25.544	57.5401
25.562	57.5769
25.58	57.5921
25.598	57.5938
25.616	57.5783
25.634	57.5335
25.652	57.4506
25.67	57.3355
25.688	57.1896
25.706	57.0129
25.724	56.8021
25.742	56.5585
25.76	56.2909
25.778	56.0069
25.796	55.6904
25.814	55.3558
25.832	55.0303
25.85	54.729
25.868	54.4266
25.886	54.1496
25.904	53.9309
25.922	53.7889
25.94	53.7061
25.958	53.6721
25.976	53.6769
25.994	53.7327
26.012	53.8336
26.03	53.956
26.048	54.0791
26.066	54.218
26.084	54.3673
26.102	54.5125
26.12	54.6437
26.138	54.7712
26.156	54.8897
26.174	54.9919
26.192	55.0562
26.21	55.0782
26.228	55.1131
26.246	55.2174
26.264	55.386
26.282	55.5962
26.3	55.8922
26.318	56.3176
26.336	56.8769
26.354	57.5487
26.372	58.3224
26.39	59.1897
26.408	60.1786
26.426	61.2645
26.444	62.4017
26.462	63.5635
26.48	64.853
26.498	66.1643
26.516	67.3383
26.534	68.2596
26.552	69.0559
26.57	69.6637
26.588	69.9759
26.606	69.9071
26.624	69.5034
26.642	68.8021
26.66	67.8326
26.678	66.59
26.696	65.0168
26.714	63.2163
26.732	61.3045
26.75	59.2857
26.768	56.9974
26.786	54.6998
26.804	52.6813
26.822	51.0799
26.84	49.6735
26.858	48.5963
26.876	48.0101
26.894	48.0351
26.912	48.5959
26.93	49.6142
26.948	51.0176
26.966	52.9367
26.984	55.6766
27.002	58.5692
27.02	60.8837
27.028	61.4735