File: Bakgrunnsmateriale/MATLAB/FTIR/ftir_data/subAa/Mapping_121/BZ1503107-1_e124_cm-1.asc
PE IR       SPECTRUM    SPECTRUM    ASCII       PEDS        1.60
  -1
BZ097A~1.ASC
17/04/07
16:53:18.00
17/04/07
16:53:18.00
tln
$BZ1503107-1_e0124$<ebV0>[-23.3,12.1,10.0,0.0,27,1,0]
370
64

2002,4.07
MIRTGS : RIGHTBACK : INTERNAL 2
MIR : ON : INTERNAL 2
OPTKBR

0.200000
8
8.000000
FILLER
SINGLE
SPECTRUM
UNLOCKED 256

DOUBLE

COMBINED
1
0
0

1.000000
BACKG

1
0
TRUE
51149
0
LEFT NOT FITTED RIGHT NOT FITTED 0
NONE
NONE
15600
12
4.427000
51148
TRUE
1 0 8 72 0 0 0 0

15798

#HDR
-1
-1
#GR
CM-1
EGY
2.38419e-05
0.0
5000
-1.000000
4631
8
2.464175
0.008201
#DATA
5000	0.774908
4996	0.771403
4992	0.774121
4988	0.778031
4984	0.780272
4980	0.783586
4976	0.787329
4972	0.789546
4968	0.790739
4964	0.792622
4960	0.794792
4956	0.796389
4952	0.798106
4948	0.799965
4944	0.801706
4940	0.802278
4936	0.802230
4932	0.802755
4928	0.804281
4924	0.807380
4920	0.809979
4916	0.810217
4912	0.810837
4908	0.813865
4904	0.815773
4900	0.815868
4896	0.817584
4892	0.820827
4888	0.823616
4884	0.825190
4880	0.826811
4876	0.829792
4872	0.833034
4868	0.835633
4864	0.838065
4860	0.839734
4856	0.841546
4852	0.844645
4848	0.847363
4844	0.849103
4840	0.851655
4836	0.855278
4832	0.857949
4828	0.859808
4824	0.862979
4820	0.865912
4816	0.868034
4812	0.870513
4808	0.873374
4804	0.876593
4800	0.878787
4796	0.880551
4792	0.883698
4788	0.887084
4784	0.888943
4780	0.889778
4776	0.891280
4772	0.893330
4768	0.895237
4764	0.898313
4760	0.902295
4756	0.905060
4752	0.907826
4748	0.909972
4744	0.908756
4740	0.907135
4736	0.908207
4732	0.910353
4728	0.911569
4724	0.913071
4720	0.914764
4716	0.915098
4712	0.915455
4708	0.916814
4704	0.918912
4700	0.920128
4696	0.918316
4692	0.915384
4688	0.915193
4684	0.916385
4680	0.915408
4676	0.915765
4672	0.919055
4668	0.921702
4664	0.923061
4660	0.922632
4656	0.921583
4652	0.922513
4648	0.924205
4644	0.925326
4640	0.925779
4636	0.926876
4632	0.928592
4628	0.930142
4624	0.933027
4620	0.936317
4616	0.939035
4612	0.941467
4608	0.942945
4604	0.943636
4600	0.945162
4596	0.948381
4592	0.951075
4588	0.952959
4584	0.956273
4580	0.959515
4576	0.960922
4572	0.964117
4568	0.969481
4564	0.972819
4560	0.973773
4556	0.974297
4552	0.975203
4548	0.977921
4544	0.981903
4540	0.985050
4536	0.987601
4532	0.989556
4528	0.990986
4524	0.991964
4520	0.992584
4516	0.995016
4512	0.998473
4508	1.000499
4504	1.001501
4500	1.002311
4496	1.004624
4492	1.007795
4488	1.009321
4484	1.009154
4480	1.009941
4476	1.012587
4472	1.013612
4468	1.010751
4464	1.009345
4460	1.008272
4456	1.003623
4452	1.000452
4448	1.000952
4444	1.005363
4440	1.008486
4436	1.002454
4432	1.024889
4428	1.099181
4424	1.136279
4420	1.116776
4416	1.091599
4412	1.058721
4408	1.038241
4404	1.038026
4400	1.038479
4396	1.035642
4392	1.036453
4388	1.041078
4384	1.045227
4380	1.047158
4376	1.047182
4372	1.048755
4368	1.051044
4364	1.050996
4360	1.050901
4356	1.054549
4352	1.061701
4348	1.068329
4344	1.073646
4340	1.078867
4336	1.081919
4332	1.084351
4328	1.088905
4324	1.094198
4320	1.099634
4316	1.105356
4312	1.110720
4308	1.115059
4304	1.118803
4300	1.122808
4296	1.128697
4292	1.135444
4288	1.140165
4284	1.143980
4280	1.148128
4276	1.152181
4272	1.155328
4268	1.158547
4264	1.162195
4260	1.165509
4256	1.169872
4252	1.174759
4248	1.178359
4244	1.181054
4240	1.183629
4236	1.186180
4232	1.189112
4228	1.192331
4224	1.194167
4220	1.195263
4216	1.197147
4212	1.198887
4208	1.200437
4204	1.202130
4200	1.204109
4196	1.207089
4192	1.209354
4188	1.210403
4184	1.212191
4180	1.215696
4176	1.219010
4172	1.221299
4168	1.223707
4164	1.225829
4160	1.227283
4156	1.229238
4152	1.233148
4148	1.237010
4144	1.238560
4140	1.239991
4136	1.243162
4132	1.246809
4128	1.249456
4124	1.250791
4120	1.253771
4116	1.259303
4112	1.263213
4108	1.267027
4104	1.272273
4100	1.276850
4096	1.281905
4092	1.287436
4088	1.292657
4084	1.298213
4080	1.304173
4076	1.309895
4072	1.315069
4068	1.320743
4064	1.326894
4060	1.332211
4056	1.337838
4052	1.344084
4048	1.348876
4044	1.353430
4040	1.358270
4036	1.362037
4032	1.366281
4028	1.372194
4024	1.378226
4020	1.383137
4016	1.387882
4012	1.392579
4008	1.395964
4004	1.398491
4000	1.401162
3996	1.403427
3992	1.404666
3988	1.406145
3984	1.409101
3980	1.412558
3976	1.414942
3972	1.417613
3968	1.421213
3964	1.423144
3960	1.424098
3956	1.426267
3952	1.428723
3948	1.429891
3944	1.430058
3940	1.430869
3936	1.431560
3932	1.432371
3928	1.434588
3924	1.434826
3920	1.433396
3916	1.435327
3912	1.438117
3908	1.437425
3904	1.436114
3900	1.438307
3896	1.441478
3892	1.441264
3888	1.441526
3884	1.446223
3880	1.451683
3876	1.454019
3872	1.454472
3868	1.455855
3864	1.458787
3860	1.460051
3856	1.457571
3852	1.460742
3848	1.472640
3844	1.480007
3840	1.479578
3836	1.481890
3832	1.490831
3828	1.499295
3824	1.502585
3820	1.503062
3816	1.507949
3812	1.517796
3808	1.523280
3804	1.523804
3800	1.528096
3796	1.539206
3792	1.549792
3788	1.552009
3784	1.549720
3780	1.551723
3776	1.556944
3772	1.560497
3768	1.563835
3764	1.567387
3760	1.568913
3756	1.566123
3752	1.560807
3748	1.558589
3744	1.562762
3740	1.569724
3736	1.573491
3732	1.576805
3728	1.581692
3724	1.584839
3720	1.585769
3716	1.583576
3712	1.580882
3708	1.582694
3704	1.586198
3700	1.588582
3696	1.588010
3692	1.583719
3688	1.582646
3684	1.585435
3680	1.583218
3676	1.577711
3672	1.578092
3668	1.584672
3664	1.589608
3660	1.588153
3656	1.584267
3652	1.581263
3648	1.582431
3644	1.588010
3640	1.590442
3636	1.588559
3632	1.586461
3628	1.587605
3624	1.591420
3620	1.593661
3616	1.594781
3612	1.595854
3608	1.597833
3604	1.601433
3600	1.604676
3596	1.606965
3592	1.608371
3588	1.609921
3584	1.613497
3580	1.617598
3576	1.619768
3572	1.619529
3568	1.619529
3564	1.623225
3560	1.628279
3556	1.630973
3552	1.631855
3548	1.633167
3544	1.635193
3540	1.635289
3536	1.634573
3532	1.635503
3528	1.637125
3524	1.638555
3520	1.639413
3516	1.639175
3512	1.638531
3508	1.637339
3504	1.635694
3500	1.634120
3496	1.632261
3492	1.630473
3488	1.628756
3484	1.626586
3480	1.624369
3476	1.623106
3472	1.621890
3468	1.620030
3464	1.617741
3460	1.614737
3456	1.611065
3452	1.607441
3448	1.604509
3444	1.602005
3440	1.599812
3436	1.598405
3432	1.598334
3428	1.598668
3424	1.597642
3420	1.597285
3416	1.599645
3412	1.601767
3408	1.603007
3404	1.606369
3400	1.610445
3396	1.613068
3392	1.615452
3388	1.617836
3384	1.619911
3380	1.622200
3376	1.624011
3372	1.625490
3368	1.630449
3364	1.638364
3360	1.645898
3356	1.654291
3352	1.661825
3348	1.666712
3344	1.671433
3340	1.676630
3336	1.681995
3332	1.686978
3328	1.691555
3324	1.698088
3320	1.706075
3316	1.712679
3312	1.717162
3308	1.721715
3304	1.727962
3300	1.734805
3296	1.741623
3292	1.747417
3288	1.751112
3284	1.754093
3280	1.758575
3276	1.764488
3272	1.770281
3268	1.775050
3264	1.778340
3260	1.780748
3256	1.783132
3252	1.786184
3248	1.789808
3244	1.792216
3240	1.793932
3236	1.796603
3232	1.798629
3228	1.798439
3224	1.798439
3220	1.800584
3216	1.802253
3212	1.802539
3208	1.802349
3204	1.802349
3200	1.803469
3196	1.804637
3192	1.804876
3188	1.805520
3184	1.806879
3180	1.807665
3176	1.808476
3172	1.809954
3168	1.811671
3164	1.813983
3160	1.816987
3156	1.819658
3152	1.822018
3148	1.825213
3144	1.828813
3140	1.832461
3136	1.836609
3132	1.841115
3128	1.845240
3124	1.849937
3120	1.856565
3116	1.863336
3112	1.868867
3108	1.874423
3104	1.880264
3100	1.886343
3096	1.895022
3092	1.906633
3088	1.916956
3084	1.924514
3080	1.930475
3076	1.935243
3072	1.940107
3068	1.945352
3064	1.950120
3060	1.955723
3056	1.963376
3052	1.971626
3048	1.979303
3044	1.985526
3040	1.989006
3036	1.990556
3032	1.990842
3028	1.987957
3024	1.980280
3020	1.973509
3016	1.977968
3012	1.994490
3008	2.013206
3004	2.026915
3000	2.036476
2996	2.042388
2992	2.043604
2988	2.041411
2984	2.036762
2980	2.029585
2976	2.018260
2972	1.999783
2968	1.974821
2964	1.952815
2960	1.941466
2956	1.936769
2952	1.931810
2948	1.920413
2944	1.896858
2940	1.862478
2936	1.826047
2932	1.795554
2928	1.775956
2924	1.779508
2920	1.813364
2916	1.862645
2912	1.906275
2908	1.936793
2904	1.957654
2900	1.973938
2896	1.987218
2892	1.998114
2888	2.007770
2884	2.015328
2880	2.018404
2876	2.013468
2872	1.995778
2868	1.962971
2864	1.927733
2860	1.916623
2856	1.938366
2852	1.976251
2848	2.016282
2844	2.052903
2840	2.081418
2836	2.102231
2832	2.118062
2828	2.130818
2824	2.142190
2820	2.153539
2816	2.164697
2812	2.173805
2808	2.180194
2804	2.186679
2800	2.194595
2796	2.201938
2792	2.207970
2788	2.214574
2784	2.223229
2780	2.232027
2776	2.239108
2772	2.245473
2768	2.251410
2764	2.255606
2760	2.258896
2756	2.261781
2752	2.263879
2748	2.266144
2744	2.268290
2740	2.269840
2736	2.270793
2732	2.270793
2728	2.270436
2724	2.269935
2720	2.268528
2716	2.266192
2712	2.263307
2708	2.259874
2704	2.257657
2700	2.256989
2696	2.255272
2692	2.252793
2688	2.251172
2684	2.249479
2680	2.246928
2676	2.244520
2672	2.241802
2668	2.238774
2664	2.236175
2660	2.233815
2656	2.232360
2652	2.231311
2648	2.229738
2644	2.228975
2640	2.229213
2636	2.228784
2632	2.228307
2628	2.229046
2624	2.230596
2620	2.231669
2616	2.231788
2612	2.233123
2608	2.235293
2604	2.236032
2600	2.235960
2596	2.236700
2592	2.238988
2588	2.243471
2584	2.249884
2580	2.257251
2576	2.264070
2572	2.270889
2568	2.278447
2564	2.285313
2560	2.290415
2556	2.294206
2552	2.297544
2548	2.301335
2544	2.306437
2540	2.312302
2536	2.317190
2532	2.320575
2528	2.323484
2524	2.326130
2520	2.328467
2516	2.329587
2512	2.330636
2508	2.333807
2504	2.337479
2500	2.338266
2496	2.337193
2492	2.336382
2488	2.335548
2484	2.333903
2480	2.332282
2476	2.332258
2472	2.332210
2468	2.329945
2464	2.325820
2460	2.320313
2456	2.315640
2452	2.312660
2448	2.308058
2444	2.302455
2440	2.298069
2436	2.293515
2432	2.288675
2428	2.284693
2424	2.281212
2420	2.277755
2416	2.274990
2412	2.272367
2408	2.269005
2404	2.266120
2400	2.264070
2396	2.261686
2392	2.259564
2388	2.258205
2384	2.257013
2380	2.255582
2376	2.252578
2372	2.248072
2368	2.244663
2364	2.243709
2360	2.246832
2356	2.255320
2352	2.264761
2348	2.270388
2344	2.273130
2340	2.275729
2336	2.279996
2332	2.286791
2328	2.294182
2324	2.302265
2320	2.311825
2316	2.320432
2312	2.327942
2308	2.335619
2304	2.341747
2300	2.346301
2296	2.352523
2292	2.359747
2288	2.365040
2284	2.368927
2280	2.373480
2276	2.378153
2272	2.381515
2268	2.383399
2264	2.384209
2260	2.385210
2256	2.387142
2252	2.389574
2248	2.391719
2244	2.392125
2240	2.391576
2236	2.391147
2232	2.390313
2228	2.388691
2224	2.385926
2220	2.382564
2216	2.380013
2212	2.377533
2208	2.373981
2204	2.370190
2200	2.366781
2196	2.363324
2192	2.360391
2188	2.358675
2184	2.356886
2180	2.352881
2176	2.348947
2172	2.348518
2168	2.348303
2164	2.345705
2160	2.343082
2156	2.342557
2152	2.343058
2148	2.343010
2144	2.342581
2140	2.342128
2136	2.342414
2132	2.343010
2128	2.342271
2124	2.342438
2120	2.344012
2116	2.344679
2112	2.345991
2108	2.347970
2104	2.348136
2100	2.346611
2096	2.345132
2092	2.345490
2088	2.347993
2084	2.350831
2080	2.354383
2076	2.360558
2072	2.367758
2068	2.374553
2064	2.381920
2060	2.390909
2056	2.400827
2052	2.409625
2048	2.417778
2044	2.425646
2040	2.432203
2036	2.438044
2032	2.443313
2028	2.447915
2024	2.452230
2020	2.454710
2016	2.456307
2012	2.458596
2008	2.460789
2004	2.462768
2000	2.463960
1996	2.464056
1992	2.462911
1988	2.460741
1984	2.458763
1980	2.456760
1976	2.453875
1972	2.449846
1968	2.446222
1964	2.444028
1960	2.442526
1956	2.440094
1952	2.435708
1948	2.430081
1944	2.425146
1940	2.421545
1936	2.418327
1932	2.415370
1928	2.412271
1924	2.407336
1920	2.401852
1916	2.398180
1912	2.394413
1908	2.389240
1904	2.384948
1900	2.382731
1896	2.381134
1892	2.379846
1888	2.380371
1884	2.382087
1880	2.383708
1876	2.384734
1872	2.384471
1868	2.385592
1864	2.389907
1860	2.393937
1856	2.396559
1852	2.398681
1848	2.399754
1844	2.402424
1840	2.408456
1836	2.413272
1832	2.414751
1828	2.416825
1824	2.421712
1820	2.427840
1816	2.432632
1812	2.435588
1808	2.437949
1804	2.439117
1800	2.438735
1796	2.436041
1792	2.433919
1788	2.435541
1784	2.436423
1780	2.433776
1776	2.427124
1772	2.421021
1768	2.421045
1764	2.421307
1760	2.416777
1756	2.406930
1752	2.393341
1748	2.381420
1744	2.369785
1740	2.352714
1736	2.335095
1732	2.329468
1728	2.333474
1724	2.330541
1720	2.316808
1716	2.307271
1712	2.306771
1708	2.299928
1704	2.281856
1700	2.263736
1696	2.259635
1692	2.264118
1688	2.256679
1684	2.246308
1680	2.246356
1676	2.242946
1672	2.233791
1668	2.226352
1664	2.219867
1660	2.208590
1656	2.186632
1652	2.169489
1648	2.167415
1644	2.167534
1640	2.160573
1636	2.149128
1632	2.140641
1628	2.130484
1624	2.112770
1620	2.085137
1616	2.045249
1612	2.002978
1608	1.977610
1604	1.980447
1600	1.999068
1596	2.015042
1592	2.022027
1588	2.020478
1584	2.012825
1580	2.001118
1576	1.991772
1572	1.988387
1568	1.982188
1564	1.961660
1560	1.937150
1556	1.937508
1552	1.956343
1548	1.964282
1544	1.963949
1540	1.986312
1536	2.038550
1532	2.088499
1528	2.113342
1524	2.118277
1520	2.114987
1516	2.108454
1512	2.095484
1508	2.068400
1504	2.000117
1500	1.856088
1496	1.705932
1492	1.687216
1488	1.793193
1484	1.904916
1480	1.962208
1476	1.977443
1472	1.976847
1468	1.967525
1464	1.940155
1460	1.883983
1456	1.809453
1452	1.765871
1448	1.788163
1444	1.837515
1440	1.863121
1436	1.869654
1432	1.873445
1428	1.873612
1424	1.867699
1420	1.857709
1416	1.845812
1412	1.818752
1408	1.769518
1404	1.730680
1400	1.734638
1396	1.766943
1392	1.791262
1388	1.792192
1384	1.789379
1380	1.800322
1376	1.812458
1372	1.817274
1368	1.819348
1364	1.820278
1360	1.820254
1356	1.819849
1352	1.819539
1348	1.818919
1344	1.817965
1340	1.820921
1336	1.830935
1332	1.842594
1328	1.850032
1324	1.853680
1320	1.856350
1316	1.858568
1312	1.859331
1308	1.858830
1304	1.857733
1300	1.856684
1296	1.856756
1292	1.857519
1288	1.856923
1284	1.854610
1280	1.849246
1276	1.835751
1272	1.808094
1268	1.764059
1264	1.723408
1260	1.721596
1256	1.759719
1252	1.801896
1248	1.826095
1244	1.835441
1240	1.838016
1236	1.837468
1232	1.833534
1228	1.826882
1224	1.817607
1220	1.803040
1216	1.783418
1212	1.763534
1208	1.749944
1204	1.745605
1200	1.746916
1196	1.747870
1192	1.744055
1188	1.735448
1184	1.724314
1180	1.712942
1176	1.701045
1172	1.686024
1168	1.668524
1164	1.650428
1160	1.633715
1156	1.621627
1152	1.614689
1148	1.609301
1144	1.601886
1140	1.591014
1136	1.577067
1132	1.560926
1128	1.542901
1124	1.522636
1120	1.501393
1116	1.480507
1112	1.460409
1108	1.443886
1104	1.433563
1100	1.428222
1096	1.425790
1092	1.426982
1088	1.430368
1084	1.431274
1080	1.428627
1076	1.428318
1072	1.433610
1068	1.439046
1064	1.438021
1060	1.420831
1056	1.371693
1052	1.313662
1048	1.308393
1044	1.350522
1040	1.381111
1036	1.386570
1032	1.381158
1028	1.370787
1024	1.361942
1020	1.361560
1016	1.369237
1012	1.379466
1008	1.388716
1004	1.396322
1000	1.400637
996	 1.400208
992	 1.396298
988	 1.390314
984	 1.382637
980	 1.374363
976	 1.365685
972	 1.355624
968	 1.344537
964	 1.332211
960	 1.318359
956	 1.304388
952	 1.290678
948	 1.279044
944	 1.271128
940	 1.264238
936	 1.255822
932	 1.246142
928	 1.236104
924	 1.226711
920	 1.216888
916	 1.204323
912	 1.188230
908	 1.172351
904	 1.161718
900	 1.156258
896	 1.151680
892	 1.142454
888	 1.121783
884	 1.087856
880	 1.051497
876	 1.031565
872	 1.039266
868	 1.064062
864	 1.084756
860	 1.092958
856	 1.092696
852	 1.088762
848	 1.083064
844	 1.075196
840	 1.060771
836	 1.027488
832	 0.962758
828	 0.883889
824	 0.845837
820	 0.873017
816	 0.920176
812	 0.945353
808	 0.950360
804	 0.948166
800	 0.947284
796	 0.951838
792	 0.961422
788	 0.972414
784	 0.979256
780	 0.980472
776	 0.978922
772	 0.975751
768	 0.971603
764	 0.968289
760	 0.965571
756	 0.962090
752	 0.957512
748	 0.951266
744	 0.943207
740	 0.934767
736	 0.926470
732	 0.916719
728	 0.904512
724	 0.891637
720	 0.880455
716	 0.869750
712	 0.857925
708	 0.845813
704	 0.832939
700	 0.816011
696	 0.792551
692	 0.761485
688	 0.735521
684	 0.730562
680	 0.733780
676	 0.730848
672	 0.725078
668	 0.717759
664	 0.708794
660	 0.697612
656	 0.685691
652	 0.675058
648	 0.664210
644	 0.655317
640	 0.646567
636	 0.635552
632	 0.626850
628	 0.617361
624	 0.602006
620	 0.585460
616	 0.573158
612	 0.559949
608	 0.541019
604	 0.527167
600	 0.524687
596	 0.523829
592	 0.519967
588	 0.515031
584	 0.509357
580	 0.504517
576	 0.501441
572	 0.498032
568	 0.493001
564	 0.486755
560	 0.479793
556	 0.472068
552	 0.464963
548	 0.458788
544	 0.453066
540	 0.447797
536	 0.440859
532	 0.430488
528	 0.418233
524	 0.406646
520	 0.397920
516	 0.390791
512	 0.382494
508	 0.372409
504	 0.360846
500	 0.348210
496	 0.334620
492	 0.320649
488	 0.305962
484	 0.290822
480	 0.277018
476	 0.264453
472	 0.251770
468	 0.239014
464	 0.225901
460	 0.211548
456	 0.196385
452	 0.181889
448	 0.169873
444	 0.159931
440	 0.150179
436	 0.139474
432	 0.126814
428	 0.112223
424	 0.098013
420	 0.085735
416	 0.075793
412	 0.066494
408	 0.057291
404	 0.048732
400	 0.039935
396	 0.032210
392	 0.026726
388	 0.022172
384	 0.018024
380	 0.014209
376	 0.010681
372	 0.008773
370	 0.008201