File: Bakgrunnsmateriale/MATLAB/FTIR/ftir_data/subAa/Mapping_121/BZ1503107-1_t115_cm-1.asc
PE IR       SPECTRUM    SPECTRUM    ASCII       PEDS        1.60
  -1
BZ4CFB~1.ASC
17/04/07
22:43:44.00
17/04/07
22:43:44.00
tln
$BZ1503107-1_t0115$<tbV0>[2.6,13.0,8.0,0.0,27,1,0]
370
64

2002,4.07
MIRTGS : RIGHTBACK : INTERNAL 2
MIR : ON : INTERNAL 2
OPTKBR

0.200000
8
8.000000
FILLER
RATIO
SPECTRUM
UNLOCKED 256

DOUBLE
64
COMBINED
1
0
0

1.000000
RATIO

1
0
TRUE
51149
0
LEFT NOT FITTED RIGHT NOT FITTED 0
NONE
NONE
15600
12
4.427000
51148
TRUE
1 0 8 72 0 0 0 0

15798

#HDR
-1
-1
#GR
CM-1
%T
2.38419e-05
0.0
5000
-1.000000
4631
8
68.0158
40.6172
#DATA
5000	65.9962
4996	64.9305
4992	65.1265
4988	66.133
4984	66.2849
4980	65.5802
4976	64.9068
4972	64.8931
4968	65.1817
4964	65.3253
4960	65.9494
4956	66.5688
4952	66.0407
4948	65.3501
4944	65.0805
4940	65.0137
4936	65.4359
4932	65.9037
4928	65.7771
4924	65.5513
4920	65.6252
4916	65.5841
4912	65.5959
4908	65.6505
4904	65.4541
4900	65.1762
4896	65.0714
4892	65.1202
4888	65.1892
4884	65.3531
4880	65.3187
4876	65.0163
4872	64.7382
4868	64.6439
4864	64.9336
4860	65.3553
4856	65.4882
4852	65.4333
4848	65.3613
4844	65.3632
4840	65.3574
4836	65.2096
4832	65.2149
4828	65.2652
4824	64.9557
4820	64.6575
4816	64.5924
4812	64.5442
4808	64.6529
4804	64.8463
4800	65.0524
4796	65.2675
4792	65.2975
4788	65.2036
4784	65.0487
4780	64.9062
4776	64.8232
4772	64.7692
4768	64.8636
4764	65.0653
4760	65.1877
4756	65.2313
4752	65.2228
4748	65.1067
4744	64.9113
4740	64.8864
4736	64.9854
4732	65.0818
4728	65.2024
4724	65.1969
4720	65.2107
4716	65.1379
4712	64.8001
4708	64.6408
4704	64.752
4700	64.798
4696	64.776
4692	64.8355
4688	64.9438
4684	65.0368
4680	65.0848
4676	65.0285
4672	64.9545
4668	64.9935
4664	65.0779
4660	65.074
4656	65.0783
4652	65.2477
4648	65.2985
4644	65.2545
4640	65.4463
4636	65.5253
4632	65.2811
4628	65.0825
4624	65.138
4620	65.3443
4616	65.5356
4612	65.5977
4608	65.5493
4604	65.5665
4600	65.5668
4596	65.443
4592	65.484
4588	65.6281
4584	65.5575
4580	65.4299
4576	65.5366
4572	65.7152
4568	65.8415
4564	66.1575
4560	66.3807
4556	66.3167
4552	66.1681
4548	66.0206
4544	66.0748
4540	66.0738
4536	65.8876
4532	66.0225
4528	66.2448
4524	66.1261
4520	65.9559
4516	65.9616
4512	66.1124
4508	66.2529
4504	66.3451
4500	66.4472
4496	66.4393
4492	66.323
4488	66.1556
4484	66.181
4480	66.5158
4476	66.5451
4472	66.5674
4468	66.8716
4464	67.4257
4460	67.9973
4456	67.5636
4452	66.3461
4448	65.9904
4444	65.4513
4440	61.5859
4436	54.3674
4432	48.2624
4428	48.0772
4424	51.0751
4420	54.7036
4416	60.7511
4412	66.0789
4408	67.7155
4404	67.3783
4400	67.0735
4396	66.8448
4392	66.2567
4388	66.232
4384	66.6072
4380	66.5628
4376	66.5813
4372	66.7005
4368	66.7598
4364	66.6711
4360	66.197
4356	65.8574
4352	65.9686
4348	66.0344
4344	65.9383
4340	65.9024
4336	66.0236
4332	66.2371
4328	66.3042
4324	66.243
4320	66.1064
4316	65.9107
4312	65.8678
4308	65.856
4304	65.7339
4300	65.6582
4296	65.6028
4292	65.5512
4288	65.6235
4284	65.7834
4280	65.8511
4276	65.7943
4272	65.7114
4268	65.6329
4264	65.5482
4260	65.45
4256	65.4621
4252	65.541
4248	65.502
4244	65.463
4240	65.495
4236	65.5258
4232	65.4737
4228	65.2808
4224	65.1154
4220	65.1213
4216	65.2805
4212	65.5197
4208	65.5792
4204	65.4647
4200	65.4309
4196	65.3634
4192	65.2053
4188	65.0325
4184	64.9754
4180	65.0598
4176	65.0936
4172	65.1283
4168	65.0917
4164	64.9274
4160	64.8623
4156	64.9598
4152	65.0763
4148	65.0458
4144	64.8615
4140	64.8046
4136	65.0002
4132	65.1586
4128	65.2006
4124	65.2166
4120	65.1241
4116	65.0507
4112	65.1052
4108	65.1034
4104	65.0615
4100	65.1163
4096	65.1608
4092	65.1257
4088	65.0835
4084	65.115
4080	65.1861
4076	65.1772
4072	65.0906
4068	65.1056
4064	65.2246
4060	65.2587
4056	65.2112
4052	65.1731
4048	65.0572
4044	64.9216
4040	64.9801
4036	65.1107
4032	65.1521
4028	65.0311
4024	64.8526
4020	64.8967
4016	65.0535
4012	65.0776
4008	65.0501
4004	65.0908
4000	65.1375
3996	65.1612
3992	65.1872
3988	65.1955
3984	65.219
3980	65.2655
3976	65.2504
3972	65.1979
3968	65.1841
3964	65.2155
3960	65.3268
3956	65.4665
3952	65.5516
3948	65.6128
3944	65.6079
3940	65.5174
3936	65.5259
3932	65.7025
3928	65.7068
3924	65.5205
3920	65.4943
3916	65.4888
3912	65.3602
3908	65.3355
3904	65.4263
3900	65.4091
3896	65.2842
3892	65.246
3888	65.3627
3884	65.4942
3880	65.5315
3876	65.5292
3872	65.4971
3868	65.4652
3864	65.5252
3860	65.6611
3856	65.7241
3852	65.5752
3848	65.303
3844	65.2137
3840	65.3908
3836	65.5606
3832	65.585
3828	65.5143
3824	65.4014
3820	65.2847
3816	65.2171
3812	65.3304
3808	65.5191
3804	65.5165
3800	65.3778
3796	65.3673
3792	65.4185
3788	65.2638
3784	65.0826
3780	65.1203
3776	65.3092
3772	65.4772
3768	65.436
3764	65.3288
3760	65.3228
3756	65.3191
3752	65.2512
3748	65.2068
3744	65.2717
3740	65.3072
3736	65.2317
3732	65.1551
3728	65.1492
3724	65.1833
3720	65.2578
3716	65.2886
3712	65.1942
3708	65.1673
3704	65.1866
3700	65.1193
3696	65.0849
3692	65.14
3688	65.1992
3684	65.1513
3680	65.1332
3676	65.2611
3672	65.3308
3668	65.2472
3664	65.1882
3660	65.2483
3656	65.2251
3652	65.127
3648	65.1003
3644	65.0812
3640	65.1853
3636	65.4106
3632	65.5027
3628	65.4365
3624	65.3234
3620	65.2237
3616	65.1477
3612	65.1641
3608	65.2174
3604	65.1212
3600	65.0458
3596	65.1166
3592	65.1254
3588	65.0555
3584	65.0616
3580	65.1102
3576	65.0845
3572	65.1099
3568	65.2667
3564	65.3602
3560	65.3477
3556	65.2829
3552	65.156
3548	65.1166
3544	65.2093
3540	65.2471
3536	65.1522
3532	65.0209
3528	64.9503
3524	64.9377
3520	64.9413
3516	64.9925
3512	65.1138
3508	65.1325
3504	65.0508
3500	65.0678
3496	65.1112
3492	65.1374
3488	65.1851
3484	65.1553
3480	65.1562
3476	65.2581
3472	65.2492
3468	65.1857
3464	65.1811
3460	65.1958
3456	65.244
3452	65.2885
3448	65.2739
3444	65.2031
3440	65.1925
3436	65.2716
3432	65.3713
3428	65.4538
3424	65.3728
3420	65.1922
3416	65.1875
3412	65.2657
3408	65.2376
3404	65.1355
3400	65.0772
3396	65.1659
3392	65.2304
3388	65.1729
3384	65.1058
3380	65.0546
3376	65.1216
3372	65.2436
3368	65.2631
3364	65.2339
3360	65.1713
3356	65.1339
3352	65.1902
3348	65.1794
3344	65.0699
3340	65.0521
3336	65.1102
3332	65.1314
3328	65.1439
3324	65.1814
3320	65.1717
3316	65.1003
3312	65.0143
3308	64.9446
3304	64.9568
3300	64.9636
3296	64.9111
3292	64.9156
3288	64.9297
3284	64.9427
3280	65.0299
3276	65.1108
3272	65.1436
3268	65.1298
3264	65.0985
3260	65.0743
3256	65.0112
3252	64.94
3248	64.9477
3244	65.0489
3240	65.1046
3236	65.0866
3232	65.0703
3228	65
3224	64.9026
3220	64.8323
3216	64.7933
3212	64.8788
3208	65.0094
3204	65.0081
3200	64.9841
3196	65.0281
3192	65.0501
3188	65.0049
3184	64.9305
3180	64.8838
3176	64.8985
3172	64.9436
3168	64.9869
3164	65.0458
3160	65.0914
3156	65.085
3152	65.0053
3148	64.9148
3144	64.9322
3140	64.988
3136	64.9934
3132	64.9126
3128	64.8199
3124	64.8727
3120	64.916
3116	64.8663
3112	64.8305
3108	64.7609
3104	64.7515
3100	64.8842
3096	64.9699
3092	64.9346
3088	64.9045
3084	64.9303
3080	64.9736
3076	64.9454
3072	64.8697
3068	64.9075
3064	65.0077
3060	65.0255
3056	64.9806
3052	64.9372
3048	64.9305
3044	64.9633
3040	65.001
3036	65.0517
3032	65.0905
3028	65.0649
3024	65.0111
3020	64.9725
3016	64.9195
3012	64.8404
3008	64.8028
3004	64.8179
3000	64.87
2996	64.9627
2992	65.0028
2988	64.8986
2984	64.7655
2980	64.7235
2976	64.6858
2972	64.6171
2968	64.589
2964	64.6018
2960	64.6021
2956	64.5608
2952	64.4966
2948	64.4659
2944	64.5159
2940	64.6073
2936	64.6572
2932	64.5952
2928	64.4902
2924	64.4678
2920	64.4906
2916	64.4948
2912	64.5154
2908	64.5861
2904	64.6539
2900	64.6612
2896	64.6784
2892	64.8063
2888	64.9341
2884	64.899
2880	64.7578
2876	64.6715
2872	64.6626
2868	64.6529
2864	64.645
2860	64.6677
2856	64.7012
2852	64.7149
2848	64.7186
2844	64.7573
2840	64.7766
2836	64.7122
2832	64.6309
2828	64.6254
2824	64.7038
2820	64.74
2816	64.7076
2812	64.771
2808	64.881
2804	64.822
2800	64.6814
2796	64.6618
2792	64.6803
2788	64.6327
2784	64.6533
2780	64.7518
2776	64.768
2772	64.7375
2768	64.7522
2764	64.7568
2760	64.7432
2756	64.7182
2752	64.6591
2748	64.6412
2744	64.6904
2740	64.721
2736	64.7178
2732	64.7293
2728	64.7732
2724	64.8166
2720	64.795
2716	64.7443
2712	64.7483
2708	64.7764
2704	64.806
2700	64.8033
2696	64.7543
2692	64.712
2688	64.6566
2684	64.6301
2680	64.6753
2676	64.6913
2672	64.6828
2668	64.7072
2664	64.7318
2660	64.7002
2656	64.6409
2652	64.6779
2648	64.7356
2644	64.6973
2640	64.6314
2636	64.6096
2632	64.6312
2628	64.6935
2624	64.7301
2620	64.6774
2616	64.6625
2612	64.7182
2608	64.7315
2604	64.7085
2600	64.7243
2596	64.73
2592	64.6416
2588	64.5603
2584	64.5969
2580	64.6579
2576	64.6317
2572	64.5929
2568	64.5926
2564	64.602
2560	64.6276
2556	64.6412
2552	64.6502
2548	64.6979
2544	64.7086
2540	64.6126
2536	64.5198
2532	64.4841
2528	64.457
2524	64.4882
2520	64.5593
2516	64.582
2512	64.578
2508	64.5863
2504	64.6358
2500	64.6733
2496	64.6116
2492	64.5565
2488	64.59
2484	64.6439
2480	64.6593
2476	64.6373
2472	64.66
2468	64.7013
2464	64.6466
2460	64.5574
2456	64.5493
2452	64.5746
2448	64.5451
2444	64.5226
2440	64.5587
2436	64.58
2432	64.5498
2428	64.4894
2424	64.4306
2420	64.4011
2416	64.364
2412	64.3328
2408	64.3651
2404	64.4369
2400	64.5036
2396	64.5111
2392	64.4787
2388	64.4808
2384	64.465
2380	64.4229
2376	64.448
2372	64.4872
2368	64.4503
2364	64.4129
2360	64.4096
2356	64.3743
2352	64.3384
2348	64.3514
2344	64.3938
2340	64.4312
2336	64.4284
2332	64.4093
2328	64.4026
2324	64.3806
2320	64.364
2316	64.3447
2312	64.3094
2308	64.3187
2304	64.3287
2300	64.3047
2296	64.3052
2292	64.3362
2288	64.3929
2284	64.4599
2280	64.465
2276	64.3978
2272	64.3379
2268	64.3215
2264	64.3071
2260	64.2509
2256	64.1979
2252	64.2216
2248	64.3148
2244	64.3986
2240	64.3755
2236	64.2534
2232	64.1544
2228	64.1791
2224	64.3058
2220	64.3981
2216	64.4107
2212	64.4087
2208	64.4018
2204	64.3761
2200	64.2991
2196	64.1964
2192	64.18
2188	64.2458
2184	64.3082
2180	64.318
2176	64.2742
2172	64.2265
2168	64.2165
2164	64.2215
2160	64.2215
2156	64.2488
2152	64.2859
2148	64.3017
2144	64.2996
2140	64.2974
2136	64.2915
2132	64.2641
2128	64.2896
2124	64.3214
2120	64.2689
2116	64.2378
2112	64.2142
2108	64.1851
2104	64.2141
2100	64.2071
2096	64.1485
2092	64.1433
2088	64.1651
2084	64.1763
2080	64.1842
2076	64.1914
2072	64.2058
2068	64.179
2064	64.1116
2060	64.0745
2056	64.1033
2052	64.1165
2048	64.047
2044	64.0044
2040	64.043
2036	64.075
2032	64.068
2028	64.0499
2024	64.0237
2020	64.0305
2016	64.0473
2012	64.0076
2008	63.981
2004	64.0013
2000	64.0234
1996	64.0249
1992	63.9771
1988	63.9157
1984	63.8795
1980	63.8722
1976	63.9168
1972	63.9578
1968	63.9366
1964	63.9284
1960	63.9471
1956	63.9124
1952	63.8779
1948	63.8912
1944	63.9198
1940	63.9675
1936	64.0192
1932	64.0467
1928	64.0172
1924	63.9418
1920	63.8846
1916	63.8546
1912	63.8561
1908	63.9304
1904	64.0046
1900	63.9473
1896	63.8557
1892	63.8611
1888	63.8712
1884	63.8309
1880	63.8299
1876	63.8975
1872	63.9149
1868	63.8548
1864	63.8418
1860	63.8624
1856	63.8515
1852	63.8546
1848	63.8502
1844	63.8056
1840	63.8005
1836	63.8241
1832	63.7909
1828	63.7635
1824	63.7985
1820	63.8388
1816	63.8767
1812	63.9242
1808	63.9527
1804	63.9159
1800	63.8067
1796	63.7132
1792	63.6636
1788	63.6602
1784	63.7257
1780	63.7599
1776	63.735
1772	63.7267
1768	63.7359
1764	63.7493
1760	63.7249
1756	63.6511
1752	63.5402
1748	63.3501
1744	63.1523
1740	63.0049
1736	62.8855
1732	62.8704
1728	62.9872
1724	63.1439
1720	63.2836
1716	63.4077
1712	63.5073
1708	63.5705
1704	63.5894
1700	63.5831
1696	63.6072
1692	63.6688
1688	63.7128
1684	63.6727
1680	63.6141
1676	63.6273
1672	63.6245
1668	63.5959
1664	63.587
1660	63.5726
1656	63.5407
1652	63.5037
1648	63.5061
1644	63.5249
1640	63.5456
1636	63.5664
1632	63.5194
1628	63.4276
1624	63.3759
1620	63.352
1616	63.2957
1612	63.2729
1608	63.3492
1604	63.422
1600	63.3955
1596	63.3685
1592	63.4223
1588	63.4253
1584	63.3576
1580	63.3453
1576	63.3906
1572	63.4264
1568	63.4253
1564	63.3882
1560	63.3502
1556	63.3762
1552	63.4281
1548	63.4307
1544	63.408
1540	63.3754
1536	63.3421
1532	63.3332
1528	63.329
1524	63.3469
1520	63.4258
1516	63.4677
1512	63.412
1508	63.3643
1504	63.3999
1500	63.4976
1496	63.5741
1492	63.5309
1488	63.4131
1484	63.3352
1480	63.2967
1476	63.2586
1472	63.2089
1468	63.1187
1464	63.0723
1460	63.1722
1456	63.2447
1452	63.1525
1448	63.0802
1444	63.1124
1440	63.123
1436	63.1114
1432	63.139
1428	63.1641
1424	63.1821
1420	63.2104
1416	63.2129
1412	63.1848
1408	63.1432
1404	63.1148
1400	63.1195
1396	63.148
1392	63.1149
1388	63.0227
1384	63.0151
1380	63.0642
1376	63.0646
1372	63.0462
1368	63.0434
1364	63.0466
1360	63.0544
1356	63.0711
1352	63.0968
1348	63.0783
1344	63.0314
1340	63.0269
1336	63.0323
1332	63.0341
1328	63.0434
1324	63.0663
1320	63.0762
1316	63.0744
1312	63.0812
1308	63.0403
1304	62.9965
1300	63.023
1296	63.021
1292	62.9241
1288	62.8386
1284	62.8139
1280	62.8135
1276	62.8375
1272	62.825
1268	62.7563
1264	62.6751
1260	62.624
1256	62.6294
1252	62.6097
1248	62.5993
1244	62.6718
1240	62.6989
1236	62.7042
1232	62.7497
1228	62.7066
1224	62.6569
1220	62.6985
1216	62.7543
1212	62.8052
1208	62.7993
1204	62.7102
1200	62.6375
1196	62.6731
1192	62.7318
1188	62.6855
1184	62.5913
1180	62.504
1176	62.4042
1172	62.3101
1168	62.3049
1164	62.4098
1160	62.4641
1156	62.4287
1152	62.4552
1148	62.5528
1144	62.6039
1140	62.5839
1136	62.5768
1132	62.6126
1128	62.638
1124	62.6657
1120	62.6662
1116	62.5865
1112	62.5081
1108	62.4669
1104	62.4884
1100	62.5654
1096	62.6047
1092	62.5719
1088	62.4851
1084	62.47
1080	62.6006
1076	62.6154
1072	62.51
1068	62.5441
1064	62.6011
1060	62.5405
1056	62.4389
1052	62.3838
1048	62.4408
1044	62.5273
1040	62.484
1036	62.4015
1032	62.3767
1028	62.3837
1024	62.4225
1020	62.3826
1016	62.3335
1012	62.4413
1008	62.5415
1004	62.4845
1000	62.4428
996	 62.5097
992	 62.5133
988	 62.4727
984	 62.5475
980	 62.6439
976	 62.5865
972	 62.4412
968	 62.3642
964	 62.3677
960	 62.4409
956	 62.5376
952	 62.5397
948	 62.4758
944	 62.4383
940	 62.3882
936	 62.3121
932	 62.2955
928	 62.3725
924	 62.4625
920	 62.4711
916	 62.4584
912	 62.5289
908	 62.5783
904	 62.5747
900	 62.571
896	 62.4517
892	 62.2695
888	 62.2058
884	 62.2762
880	 62.4318
876	 62.5178
872	 62.4572
868	 62.3521
864	 62.2712
860	 62.2597
856	 62.2485
852	 62.2653
848	 62.3595
844	 62.3535
840	 62.2795
836	 62.2935
832	 62.3872
828	 62.5007
824	 62.5104
820	 62.4202
816	 62.4063
812	 62.4475
808	 62.3893
804	 62.3249
800	 62.401
796	 62.4292
792	 62.2287
788	 62.0422
784	 62.0667
780	 62.0827
776	 62.0334
772	 62.0776
768	 62.1284
764	 62.0474
760	 61.941
756	 61.8867
752	 61.908
748	 62.0134
744	 61.9832
740	 61.8919
736	 61.9443
732	 62.021
728	 62.0912
724	 62.1661
720	 62.1551
716	 62.0166
712	 61.8649
708	 61.6716
704	 61.4579
700	 61.5182
696	 61.8433
692	 62.2237
688	 62.3378
684	 62.1338
680	 62.0144
676	 61.9769
672	 61.9583
668	 61.9357
664	 61.7407
660	 61.5851
656	 61.7007
652	 61.8957
648	 61.9401
644	 61.8355
640	 61.5754
636	 61.2735
632	 61.196
628	 61.1916
624	 61.1163
620	 61.0534
616	 61.1368
612	 61.5494
608	 61.6552
604	 61.3785
600	 61.6541
596	 62.1533
592	 61.9132
588	 61.3186
584	 61.342
580	 61.4845
576	 61.0082
572	 60.6733
568	 61.2044
564	 61.749
560	 61.763
556	 61.6773
552	 61.493
548	 61.3309
544	 61.5328
540	 61.9951
536	 61.9454
532	 61.1238
528	 60.5242
524	 60.4559
520	 60.5508
516	 61.1062
512	 61.7784
508	 61.8145
504	 61.5347
500	 61.2904
496	 61.0999
492	 60.9118
488	 60.6184
484	 60.3754
480	 60.2424
476	 60.1565
472	 60.1545
468	 60.5834
464	 61.4919
460	 61.9577
456	 61.7788
452	 61.6516
448	 61.0237
444	 60.0895
440	 59.9298
436	 60.1599
432	 60.509
428	 60.7541
424	 60.0993
420	 59.1327
416	 58.3622
412	 57.4803
408	 58.1929
404	 59.5633
400	 60.452
396	 61.9824
392	 59.8746
388	 56.6296
384	 57.0998
380	 57.7085
376	 60.2161
372	 52.6944
370	 40.6172