File: Bakgrunnsmateriale/MATLAB/FTIR/ftir_data/subAa/Mapping_121/BZ1503107-1_t106_cm-1.asc
PE IR       SPECTRUM    SPECTRUM    ASCII       PEDS        1.60
  -1
BZCB79~1.ASC
17/04/07
21:55:55.00
17/04/07
21:55:55.00
tln
$BZ1503107-1_t0106$<tbV0>[-2.6,10.4,8.0,0.0,27,1,0]
370
64

2002,4.07
MIRTGS : RIGHTBACK : INTERNAL 2
MIR : ON : INTERNAL 2
OPTKBR

0.200000
8
8.000000
FILLER
RATIO
SPECTRUM
UNLOCKED 256

DOUBLE
64
COMBINED
1
0
0

1.000000
RATIO

1
0
TRUE
51149
0
LEFT NOT FITTED RIGHT NOT FITTED 0
NONE
NONE
15600
12
4.427000
51148
TRUE
1 0 8 72 0 0 0 0

15798

#HDR
-1
-1
#GR
CM-1
%T
2.38419e-05
0.0
5000
-1.000000
4631
8
85.0374
52.6392
#DATA
5000	63.984
4996	64.8884
4992	64.8818
4988	64.6497
4984	64.7501
4980	64.5529
4976	64.0974
4972	63.913
4968	63.8898
4964	64.3232
4960	64.9904
4956	65.499
4952	66.5377
4948	66.8096
4944	65.1232
4940	64.0423
4936	64.4624
4932	64.6654
4928	64.7649
4924	65.2876
4920	65.3848
4916	64.7617
4912	64.5072
4908	65.0104
4904	64.937
4900	64.5347
4896	64.7719
4892	64.9138
4888	64.7868
4884	64.8062
4880	64.7184
4876	64.464
4872	64.3778
4868	64.4952
4864	64.6717
4860	64.8195
4856	64.8359
4852	64.7296
4848	64.6866
4844	64.7897
4840	64.8282
4836	64.7264
4832	64.7133
4828	64.9268
4824	65.088
4820	65.156
4816	65.2893
4812	65.2695
4808	65.1386
4804	65.1335
4800	65.2624
4796	65.2783
4792	65.0806
4788	64.9226
4784	64.8627
4780	64.8662
4776	64.8799
4772	64.9257
4768	65.0992
4764	65.2159
4760	65.1368
4756	64.8449
4752	64.5921
4748	64.6548
4744	64.6708
4740	64.6299
4736	64.861
4732	65.011
4728	64.8695
4724	64.7286
4720	64.8545
4716	65.149
4712	65.257
4708	65.149
4704	65.0602
4700	65.124
4696	65.2108
4692	65.2331
4688	65.2543
4684	65.2847
4680	65.3171
4676	65.3021
4672	65.3639
4668	65.4926
4664	65.3804
4660	65.0796
4656	64.9959
4652	65.1411
4648	65.2238
4644	65.1982
4640	65.092
4636	64.9929
4632	65.1451
4628	65.4161
4624	65.3578
4620	65.0685
4616	64.8749
4612	64.7232
4608	64.6084
4604	64.5738
4600	64.4862
4596	64.419
4592	64.4596
4588	64.5427
4584	64.6472
4580	64.6845
4576	64.6434
4572	64.6298
4568	64.6437
4564	64.6344
4560	64.6549
4556	64.6066
4552	64.5011
4548	64.4643
4544	64.3888
4540	64.2915
4536	64.353
4532	64.571
4528	64.6267
4524	64.4403
4520	64.3917
4516	64.4651
4512	64.4008
4508	64.4961
4504	64.7604
4500	64.7287
4496	64.5084
4492	64.2954
4488	64.1519
4484	64.1737
4480	64.2911
4476	64.3126
4472	64.3383
4468	64.2783
4464	64.2346
4460	65.1164
4456	65.9663
4452	67.7178
4448	74.4386
4444	84.5353
4440	78.6044
4436	63.5502
4432	58.0441
4428	58.3457
4424	54.2985
4420	53.3552
4416	60.2533
4412	64.6917
4408	65.1656
4404	65.3363
4400	65.3737
4396	65.1627
4392	64.9967
4388	65.0228
4384	65.0342
4380	64.894
4376	64.6478
4372	64.5719
4368	64.6034
4364	64.6238
4360	64.835
4356	65.035
4352	65.0686
4348	65.1839
4344	65.1641
4340	64.8604
4336	64.6871
4332	64.7211
4328	64.7661
4324	64.8866
4320	64.9473
4316	64.8595
4312	64.8898
4308	65.0005
4304	64.973
4300	64.9006
4296	64.8295
4292	64.8433
4288	64.9491
4284	64.9145
4280	64.8374
4276	64.9119
4272	64.9826
4268	64.9085
4264	64.9112
4260	65.0514
4256	65.1202
4252	65.0078
4248	64.8628
4244	64.894
4240	64.9084
4236	64.7772
4232	64.7665
4228	64.853
4224	64.8038
4220	64.7598
4216	64.7865
4212	64.8428
4208	65.0922
4204	65.3362
4200	65.1824
4196	64.8384
4192	64.7503
4188	64.9082
4184	65.0824
4180	65.1241
4176	65.0748
4172	65.0626
4168	64.9835
4164	64.9202
4160	65.02
4156	65.1252
4152	65.1982
4148	65.1605
4144	64.9164
4140	64.7399
4136	64.8583
4132	65.0803
4128	65.1562
4124	65.0969
4120	65.1027
4116	65.1818
4112	65.1965
4108	65.1244
4104	65.0623
4100	65.063
4096	65.0587
4092	65.0658
4088	65.0862
4084	65.163
4080	65.2285
4076	65.1702
4072	65.0929
4068	65.0818
4064	65.1641
4060	65.1633
4056	65.0078
4052	64.9492
4048	64.9144
4044	64.7933
4040	64.798
4036	64.9412
4032	65.0438
4028	65.022
4024	64.9597
4020	64.9209
4016	64.9323
4012	64.996
4008	64.9912
4004	64.9784
4000	65.0441
3996	65.0255
3992	64.9176
3988	64.8593
3984	64.9077
3980	65.0472
3976	65.1165
3972	65.1387
3968	65.1981
3964	65.1549
3960	64.9881
3956	64.8851
3952	64.8392
3948	64.6845
3944	64.6171
3940	64.8335
3936	65.0878
3932	65.1399
3928	64.9841
3924	64.7874
3920	64.7133
3916	64.6958
3912	64.7064
3908	64.7955
3904	64.8823
3900	64.9205
3896	64.8995
3892	64.7975
3888	64.7202
3884	64.8503
3880	65.0808
3876	65.1262
3872	65.0242
3868	65.0072
3864	65.155
3860	65.262
3856	65.2477
3852	65.2123
3848	65.1726
3844	65.1644
3840	65.1154
3836	64.9995
3832	64.959
3828	64.9728
3824	65.0123
3820	65.0827
3816	64.9824
3812	64.8251
3808	64.8568
3804	64.9871
3800	65.0857
3796	65.037
3792	64.8958
3788	64.8593
3784	64.9084
3780	64.9549
3776	64.9739
3772	64.9791
3768	65.0069
3764	65.0164
3760	65.0418
3756	65.0709
3752	65.0777
3748	65.1626
3744	65.3023
3740	65.3623
3736	65.3161
3732	65.2787
3728	65.2927
3724	65.2938
3720	65.2699
3716	65.2231
3712	65.1352
3708	65.0545
3704	65.0728
3700	65.1454
3696	65.1619
3692	65.102
3688	65.0332
3684	65.0026
3680	64.994
3676	65.0409
3672	65.0642
3668	64.9841
3664	64.8805
3660	64.8655
3656	65.0089
3652	65.1254
3648	65.1293
3644	65.1259
3640	65.1111
3636	65.111
3632	65.0708
3628	64.9223
3624	64.8254
3620	64.9625
3616	65.1999
3612	65.2586
3608	65.0964
3604	64.9253
3600	64.9201
3596	65.0221
3592	65.1127
3588	65.1025
3584	65.0001
3580	64.8798
3576	64.8351
3572	64.9364
3568	65.0685
3564	65.046
3560	64.8438
3556	64.7391
3552	64.8873
3548	65.0241
3544	64.9998
3540	64.9333
3536	64.8599
3532	64.8132
3528	64.8707
3524	64.9244
3520	64.9201
3516	64.9541
3512	64.9999
3508	64.9943
3504	65.0037
3500	65.0549
3496	65.0659
3492	65.048
3488	65.0672
3484	65.0438
3480	64.924
3476	64.9081
3472	65.0026
3468	64.9889
3464	64.9521
3460	65.0027
3456	65.0155
3452	64.9192
3448	64.8087
3444	64.7752
3440	64.8611
3436	65.036
3432	65.099
3428	64.9772
3424	64.8794
3420	64.9504
3416	65.1137
3412	65.2209
3408	65.2019
3404	65.1312
3400	65.0947
3396	65.0853
3392	65.0255
3388	64.9158
3384	64.9128
3380	65.0008
3376	65.0479
3372	64.9833
3368	64.8472
3364	64.8088
3360	64.8763
3356	64.9894
3352	65.0328
3348	64.967
3344	64.9463
3340	64.9355
3336	64.9127
3332	64.9268
3328	64.8952
3324	64.869
3320	64.9611
3316	65.0043
3312	64.8858
3308	64.7971
3304	64.8497
3300	64.9741
3296	65.0656
3292	65.0729
3288	65.0182
3284	64.9702
3280	64.9282
3276	64.8993
3272	64.9054
3268	64.9091
3264	64.9627
3260	65.0291
3256	65.0053
3252	64.9541
3248	64.9099
3244	64.8705
3240	64.8686
3236	64.9178
3232	64.9729
3228	64.9346
3224	64.8016
3220	64.6687
3216	64.6598
3212	64.7833
3208	64.863
3204	64.8317
3200	64.8071
3196	64.8659
3192	64.9131
3188	64.8979
3184	64.9629
3180	65.0688
3176	65.0294
3172	64.9175
3168	64.8434
3164	64.7614
3160	64.6988
3156	64.667
3152	64.6888
3148	64.7783
3144	64.8167
3140	64.8575
3136	64.9211
3132	64.8581
3128	64.7934
3124	64.8252
3120	64.8623
3116	64.9018
3112	64.9006
3108	64.8576
3104	64.8436
3100	64.8517
3096	64.8597
3092	64.9027
3088	64.9184
3084	64.821
3080	64.7399
3076	64.7916
3072	64.8505
3068	64.8146
3064	64.8298
3060	64.9222
3056	64.9305
3052	64.9135
3048	64.9753
3044	65.0191
3040	65.0156
3036	64.9825
3032	64.8962
3028	64.8218
3024	64.7996
3020	64.8246
3016	64.8717
3012	64.8816
3008	64.82
3004	64.7458
3000	64.7369
2996	64.7592
2992	64.7521
2988	64.7016
2984	64.7202
2980	64.8189
2976	64.7802
2972	64.6412
2968	64.6154
2964	64.6184
2960	64.5232
2956	64.473
2952	64.5504
2948	64.6533
2944	64.7385
2940	64.8106
2936	64.8136
2932	64.7306
2928	64.6653
2924	64.6689
2920	64.7248
2916	64.7516
2912	64.7097
2908	64.6624
2904	64.6318
2900	64.6575
2896	64.7071
2892	64.6988
2888	64.6987
2884	64.7003
2880	64.6822
2876	64.7038
2872	64.7264
2868	64.7027
2864	64.6331
2860	64.5517
2856	64.5229
2852	64.5622
2848	64.6132
2844	64.6321
2840	64.6356
2836	64.6389
2832	64.6899
2828	64.7644
2824	64.7562
2820	64.7064
2816	64.6897
2812	64.6996
2808	64.7151
2804	64.7564
2800	64.8083
2796	64.7883
2792	64.7288
2788	64.7104
2784	64.7262
2780	64.7118
2776	64.6229
2772	64.5672
2768	64.6303
2764	64.7173
2760	64.7283
2756	64.6732
2752	64.6422
2748	64.6901
2744	64.7583
2740	64.771
2736	64.7341
2732	64.7404
2728	64.801
2724	64.8077
2720	64.7786
2716	64.7892
2712	64.7964
2708	64.7661
2704	64.7012
2700	64.6421
2696	64.6402
2692	64.6193
2688	64.566
2684	64.5608
2680	64.5782
2676	64.5958
2672	64.6157
2668	64.6287
2664	64.6114
2660	64.5892
2656	64.6341
2652	64.7242
2648	64.7719
2644	64.7254
2640	64.6642
2636	64.6631
2632	64.6615
2628	64.6281
2624	64.5977
2620	64.5925
2616	64.5833
2612	64.519
2608	64.4649
2604	64.4814
2600	64.5149
2596	64.5419
2592	64.5302
2588	64.5388
2584	64.6246
2580	64.6498
2576	64.5959
2572	64.562
2568	64.5648
2564	64.5777
2560	64.6013
2556	64.6619
2552	64.7047
2548	64.694
2544	64.6224
2540	64.5292
2536	64.5134
2532	64.5509
2528	64.5568
2524	64.5233
2520	64.5056
2516	64.5089
2512	64.5348
2508	64.5746
2504	64.5902
2500	64.6327
2496	64.712
2492	64.7413
2488	64.6684
2484	64.5321
2480	64.4667
2476	64.5171
2472	64.558
2468	64.5434
2464	64.5717
2460	64.6471
2456	64.6452
2452	64.5552
2448	64.501
2444	64.4758
2440	64.4326
2436	64.4033
2432	64.4206
2428	64.5046
2424	64.5822
2420	64.6182
2416	64.6001
2412	64.52
2408	64.4867
2404	64.4973
2400	64.4837
2396	64.4663
2392	64.4384
2388	64.426
2384	64.4753
2380	64.5043
2376	64.4512
2372	64.4251
2368	64.498
2364	64.5856
2360	64.6274
2356	64.5888
2352	64.4663
2348	64.3898
2344	64.3727
2340	64.3485
2336	64.3483
2332	64.3673
2328	64.4334
2324	64.5148
2320	64.4902
2316	64.4073
2312	64.3989
2308	64.4561
2304	64.4809
2300	64.4736
2296	64.4801
2292	64.476
2288	64.4541
2284	64.4244
2280	64.3789
2276	64.3718
2272	64.4203
2268	64.4294
2264	64.3951
2260	64.4039
2256	64.4311
2252	64.4
2248	64.3426
2244	64.3215
2240	64.3418
2236	64.369
2232	64.3908
2228	64.4035
2224	64.3918
2220	64.3638
2216	64.3011
2212	64.2471
2208	64.2464
2204	64.2536
2200	64.2437
2196	64.2299
2192	64.2287
2188	64.2181
2184	64.1888
2180	64.1738
2176	64.1863
2172	64.2388
2168	64.296
2164	64.2812
2160	64.2223
2156	64.2044
2152	64.1977
2148	64.1442
2144	64.1439
2140	64.2236
2136	64.2573
2132	64.2128
2128	64.1601
2124	64.1543
2120	64.168
2116	64.1618
2112	64.168
2108	64.1874
2104	64.1737
2100	64.1593
2096	64.158
2092	64.1305
2088	64.0848
2084	64.079
2080	64.0993
2076	64.1128
2072	64.1415
2068	64.1467
2064	64.1409
2060	64.1606
2056	64.1607
2052	64.112
2048	64.0738
2044	64.1113
2040	64.1782
2036	64.2342
2032	64.2144
2028	64.088
2024	64.0135
2020	64.0604
2016	64.1228
2012	64.1197
2008	64.0792
2004	64.0628
2000	64.081
1996	64.1198
1992	64.143
1988	64.1057
1984	64.0282
1980	63.987
1976	63.9806
1972	63.989
1968	64.0445
1964	64.1093
1960	64.1233
1956	64.0788
1952	64.007
1948	63.9519
1944	63.9393
1940	63.9942
1936	64.0443
1932	64.0113
1928	63.9443
1924	63.9196
1920	63.9382
1916	63.9576
1912	63.9847
1908	63.9778
1904	63.9528
1900	63.9855
1896	64.0036
1892	64.0013
1888	64.0348
1884	64.0315
1880	64.0029
1876	64.0088
1872	64.0105
1868	63.9772
1864	63.9294
1860	63.9129
1856	63.9234
1852	63.901
1848	63.8393
1844	63.8334
1840	63.9282
1836	63.9951
1832	63.9645
1828	63.908
1824	63.8696
1820	63.8987
1816	63.9572
1812	63.9479
1808	63.9215
1804	63.9241
1800	63.9332
1796	63.9417
1792	63.9096
1788	63.8168
1784	63.7595
1780	63.7854
1776	63.8093
1772	63.8118
1768	63.8134
1764	63.8011
1760	63.7753
1756	63.701
1752	63.6039
1748	63.5808
1744	63.5788
1740	63.5218
1736	63.4378
1732	63.3924
1728	63.4427
1724	63.5386
1720	63.6064
1716	63.6337
1712	63.6751
1708	63.7147
1704	63.6714
1700	63.5874
1696	63.5844
1692	63.6695
1688	63.7129
1684	63.6787
1680	63.6038
1676	63.5363
1672	63.5494
1668	63.6045
1664	63.6426
1660	63.6786
1656	63.698
1652	63.6727
1648	63.6328
1644	63.5937
1640	63.5584
1636	63.5709
1632	63.6123
1628	63.6226
1624	63.629
1620	63.6713
1616	63.6842
1612	63.6223
1608	63.5903
1604	63.6086
1600	63.6002
1596	63.6077
1592	63.6539
1588	63.6436
1584	63.5258
1580	63.411
1576	63.4366
1572	63.5656
1568	63.6664
1564	63.6487
1560	63.5449
1556	63.4601
1552	63.4475
1548	63.4952
1544	63.512
1540	63.4826
1536	63.4698
1532	63.4844
1528	63.4938
1524	63.4862
1520	63.4759
1516	63.4657
1512	63.4798
1508	63.5184
1504	63.522
1500	63.4841
1496	63.4718
1492	63.4889
1488	63.4696
1484	63.4275
1480	63.4318
1476	63.4825
1472	63.4963
1468	63.4333
1464	63.3615
1460	63.3561
1456	63.4082
1452	63.4329
1448	63.3988
1444	63.3478
1440	63.3296
1436	63.3529
1432	63.3348
1428	63.3035
1424	63.3669
1420	63.423
1416	63.3673
1412	63.3336
1408	63.3447
1404	63.2878
1400	63.2079
1396	63.1345
1392	63.1248
1388	63.2418
1384	63.3105
1380	63.2619
1376	63.2178
1372	63.1928
1368	63.2045
1364	63.2677
1360	63.3018
1356	63.2391
1352	63.1945
1348	63.2842
1344	63.3502
1340	63.2995
1336	63.2421
1332	63.2308
1328	63.1949
1324	63.1041
1320	63.0682
1316	63.0951
1312	63.1099
1308	63.1382
1304	63.1662
1300	63.1563
1296	63.1444
1292	63.1193
1288	63.0637
1284	63.058
1280	63.1061
1276	63.1222
1272	63.1333
1268	63.1484
1264	63.1354
1260	63.1428
1256	63.1379
1252	63.0776
1248	63.0145
1244	62.9781
1240	62.9977
1236	63.0673
1232	63.0897
1228	63.0346
1224	62.9862
1220	62.9971
1216	63.032
1212	63.0546
1208	63.0737
1204	63.0566
1200	62.996
1196	62.9976
1192	63.0558
1188	63.0088
1184	62.8769
1180	62.8416
1176	62.8839
1172	62.8961
1168	62.8621
1164	62.7933
1160	62.7804
1156	62.8523
1152	62.9155
1148	62.9421
1144	62.9977
1140	63.0945
1136	63.0724
1132	62.9263
1128	62.8319
1124	62.8506
1120	62.9108
1116	62.8962
1112	62.8229
1108	62.7683
1104	62.7801
1100	62.8491
1096	62.9104
1092	62.9092
1088	62.8216
1084	62.7002
1080	62.6275
1076	62.6334
1072	62.6548
1068	62.6787
1064	62.7045
1060	62.6753
1056	62.6351
1052	62.6564
1048	62.7519
1044	62.8473
1040	62.8252
1036	62.651
1032	62.5279
1028	62.6353
1024	62.7737
1020	62.7719
1016	62.7055
1012	62.625
1008	62.5783
1004	62.5667
1000	62.5518
996	 62.5544
992	 62.5871
988	 62.6695
984	 62.7854
980	 62.8371
976	 62.7332
972	 62.6098
968	 62.6519
964	 62.7431
960	 62.7599
956	 62.7605
952	 62.7705
948	 62.7452
944	 62.6783
940	 62.648
936	 62.6096
932	 62.5606
928	 62.6455
924	 62.7507
920	 62.6936
916	 62.5914
912	 62.5971
908	 62.603
904	 62.5143
900	 62.4667
896	 62.4783
892	 62.5064
888	 62.5765
884	 62.5473
880	 62.4557
876	 62.5231
872	 62.6625
868	 62.708
864	 62.6671
860	 62.6134
856	 62.5755
852	 62.5305
848	 62.5142
844	 62.5273
840	 62.4981
836	 62.4572
832	 62.4578
828	 62.4679
824	 62.4843
820	 62.5239
816	 62.5575
812	 62.591
808	 62.5806
804	 62.4528
800	 62.3676
796	 62.4481
792	 62.5208
788	 62.5641
784	 62.6061
780	 62.5392
776	 62.3993
772	 62.3474
768	 62.3855
764	 62.3643
760	 62.3638
756	 62.4755
752	 62.5203
748	 62.4146
744	 62.3978
740	 62.5021
736	 62.4493
732	 62.338
728	 62.3418
724	 62.3013
720	 62.2189
716	 62.2062
712	 62.2245
708	 62.2123
704	 62.1277
700	 62.1091
696	 62.2174
692	 62.3373
688	 62.5291
684	 62.5184
680	 62.1565
676	 62.1164
672	 62.5342
668	 62.7119
664	 62.4556
660	 62.0708
656	 61.777
652	 61.7551
648	 62.015
644	 62.2969
640	 62.4195
636	 62.3928
632	 62.3177
628	 62.395
624	 62.4395
620	 62.2674
616	 61.8084
612	 61.3023
608	 61.6434
604	 62.0367
600	 61.9573
596	 62.104
592	 61.8041
588	 61.0959
584	 60.9883
580	 61.7276
576	 62.0835
572	 61.4357
568	 60.9937
564	 60.8153
560	 60.6992
556	 61.1768
552	 61.6554
548	 61.6398
544	 61.4783
540	 61.4326
536	 61.8248
532	 62.227
528	 62.0588
524	 61.9671
520	 62.2215
516	 62.0501
512	 61.9368
508	 62.1234
504	 61.6083
500	 60.6637
496	 60.4139
492	 61.1902
488	 61.8663
484	 61.3828
480	 60.8604
476	 61.2217
472	 61.3007
468	 60.6077
464	 60.3802
460	 60.7698
456	 60.8145
452	 60.5425
448	 59.9968
444	 59.5563
440	 59.812
436	 61.0924
432	 62.2609
428	 61.3478
424	 60.2897
420	 60.8662
416	 61.1204
412	 61.0609
408	 61.9324
404	 62.2165
400	 60.9788
396	 61.9474
392	 65.996
388	 70.3532
384	 71.564
380	 67.7638
376	 63.6787
372	 62.9485
370	 64.0568