File: Bakgrunnsmateriale/MATLAB/FTIR/ftir_data/subAa/Mapping_121/BZ1503107-1_t04.asc
PE IR       SPECTRUM    SPECTRUM    ASCII       PEDS        1.60
  -1
BZ1955~1.ASC
17/04/07
13:34:21.00
17/04/07
13:34:47.00
tln
$BZ1503107-1_t0004$<tbV0>[5.2,-13.0,8.0,0.0,27,1,0]
27.028
64

2002,4.07
MIRTGS : RIGHTBACK : INTERNAL 2
MIR : ON : INTERNAL 2
OPTKBR

0.200000
8
8.000000
FILLER
RATIO
SPECTRUM
UNLOCKED 256

DOUBLE
64
COMBINED
1
0
0

0.002000
RATIO

1
0
TRUE
51149
0
LEFT NOT FITTED RIGHT NOT FITTED 0
NONE
NONE
15600
12
4.427000
51148
TRUE
1 0 8 72 0 0 0 0

15798

#HDR
-1
-1
#GR
µM
%T
2.38419e-05
0.0
2.000000
0.002000
12515
8
75.2784
29.9271
#DATA
2.000000	 64.354
2.018000	 64.342
2.036000	 65.8393
2.054000	 65.8317
2.072000	 65.3477
2.090000	 65.4264
2.108000	 64.819
2.126000	 64.3415
2.144000	 64.6454
2.162000	 64.6905
2.180000	 64.874
2.198000	 64.366
2.216000	 64.7525
2.234000	 68.0186
2.252000	 64.38
2.270000	 64.3418
2.288000	 64.5268
2.306000	 64.6954
2.324000	 64.9666
2.342000	 64.5717
2.360000	 65.1543
2.378000	 65.1741
2.396000	 65.4247
2.414000	 64.8393
2.432000	 65.5063
2.450000	 65.0338
2.468000	 65.0716
2.486000	 65.0087
2.504000	 64.8645
2.522000	 65.2823
2.540000	 64.8907
2.558000	 65.0179
2.576000	 65.0063
2.594000	 65.2949
2.612000	 65.2699
2.630000	 65.1906
2.648000	 65.084
2.666000	 65.337
2.684000	 65.0211
2.702000	 65.0669
2.720000	 65.5564
2.738000	 65.2243
2.756000	 65.3124
2.774000	 65.2767
2.792000	 65.1693
2.810000	 64.9629
2.828000	 65.1899
2.846000	 65.0492
2.864000	 65.2412
2.882000	 65.1073
2.900000	 65.0444
2.918000	 65.1399
2.936000	 65.1276
2.954000	 65.0914
2.972000	 65.2044
2.990000	 65.0974
3.008000	 65.096
3.026000	 65.0865
3.044000	 65.0644
3.062000	 65.1426
3.080000	 65.0747
3.098000	 65.0036
3.116000	 65.0632
3.134000	 65.2318
3.152000	 65.0971
3.170000	 65.2055
3.188000	 65.205
3.206000	 65.0597
3.224000	 65.0174
3.242000	 65.1131
3.260000	 65.0964
3.278000	 64.9184
3.296000	 65.1051
3.314000	 65.1783
3.332000	 65.1684
3.350000	 65.055
3.368000	 65.1105
3.386000	 64.9362
3.404000	 64.9872
3.422000	 64.9708
3.440000	 65.1612
3.458000	 65.0011
3.476000	 65.071
3.494000	 65.0349
3.512000	 65.0669
3.530000	 65.1349
3.548000	 64.9993
3.566000	 65.0502
3.584000	 64.9886
3.602000	 65.0476
3.620000	 65.1005
3.638000	 64.9938
3.656000	 65.1061
3.674000	 65.0866
3.692000	 65.0779
3.710000	 65.1064
3.728000	 65.0584
3.746000	 65.0233
3.764000	 65.1134
3.782000	 65.0481
3.800000	 65.1055
3.818000	 65.1646
3.836000	 65.0807
3.854000	 65.2679
3.872000	 65.1568
3.890000	 65.1762
3.908000	 65.1372
3.926000	 65.0421
3.944000	 65.0552
3.962000	 65.096
3.980000	 65.1107
3.998000	 65.0302
4.016000	 65.1643
4.034000	 65.0843
4.052000	 65.0684
4.070000	 64.9063
4.088000	 65.0442
4.106000	 65.0074
4.124000	 65.0151
4.141999	 64.9495
4.160000	 65.0462
4.178000	 65.0834
4.196000	 65.0452
4.214000	 65.0645
4.232000	 64.9844
4.250000	 65.0784
4.268000	 64.8882
4.286000	 64.9679
4.304000	 64.8904
4.322000	 64.9878
4.340000	 64.9373
4.358000	 64.9292
4.375999	 64.8891
4.394000	 64.9886
4.412000	 64.9244
4.430000	 64.9933
4.448000	 64.9409
4.466000	 64.9218
4.484000	 65.0238
4.502000	 65.0338
4.520000	 64.8992
4.538000	 64.9583
4.556000	 64.9242
4.574000	 64.872
4.592000	 64.8859
4.609999	 64.9598
4.628000	 64.8853
4.646000	 64.7266
4.664000	 64.7464
4.682000	 64.8277
4.700000	 64.8751
4.718000	 64.9782
4.736000	 64.9378
4.754000	 64.9515
4.772000	 64.8429
4.790000	 64.8111
4.808000	 64.8878
4.826000	 64.8928
4.843999	 64.8133
4.862000	 64.8415
4.880000	 64.8916
4.898000	 64.9368
4.916000	 64.9011
4.934000	 64.9762
4.952000	 64.9271
4.970000	 64.8906
4.988000	 64.8885
5.006000	 64.8242
5.024000	 64.7791
5.042000	 64.8295
5.060000	 64.9042
5.077999	 64.881
5.096000	 64.9065
5.114000	 64.8249
5.132000	 64.9055
5.150000	 64.8553
5.168000	 64.7834
5.186000	 64.8119
5.204000	 64.8622
5.222000	 64.9391
5.240000	 64.9021
5.258000	 64.8012
5.276000	 64.8193
5.294000	 64.8987
5.312000	 64.8325
5.330000	 64.8138
5.348000	 64.8864
5.366000	 64.9131
5.384000	 64.8468
5.402000	 64.815
5.420000	 64.85
5.438000	 64.8885
5.456000	 64.8546
5.474000	 64.811
5.492000	 64.8693
5.510000	 64.924
5.528000	 64.879
5.546000	 64.8649
5.564000	 64.902
5.582000	 64.9256
5.600000	 64.8999
5.618000	 64.7913
5.636000	 64.8089
5.654000	 64.8745
5.672000	 64.8544
5.690000	 64.8075
5.708000	 64.7915
5.726000	 64.6719
5.744000	 64.6141
5.762000	 64.6885
5.780000	 64.6797
5.798000	 64.6544
5.816000	 64.7773
5.834000	 64.7821
5.852000	 64.7272
5.870000	 64.7964
5.888000	 64.9143
5.906000	 64.7782
5.923999	 64.7316
5.942000	 64.8155
5.960000	 64.8359
5.978000	 64.8076
5.996000	 64.7107
6.014000	 64.7221
6.032000	 64.8491
6.050000	 64.9547
6.068000	 64.8312
6.086000	 64.7376
6.104000	 64.8147
6.122000	 64.8308
6.140000	 64.7758
6.158000	 64.7777
6.176000	 64.7139
6.194000	 64.6583
6.212000	 64.7016
6.230000	 64.7831
6.248000	 64.7659
6.266000	 64.6962
6.284000	 64.6837
6.302000	 64.6474
6.320000	 64.603
6.338000	 64.6075
6.356000	 64.6069
6.374000	 64.5901
6.392000	 64.6447
6.410000	 64.736
6.428000	 64.765
6.446000	 64.7489
6.464000	 64.762
6.482000	 64.7976
6.500000	 64.7166
6.518000	 64.5737
6.536000	 64.5594
6.554000	 64.6273
6.572000	 64.6787
6.590000	 64.6796
6.608000	 64.6358
6.626000	 64.5507
6.644000	 64.4789
6.662000	 64.4967
6.680000	 64.6092
6.698000	 64.6659
6.716000	 64.6156
6.734000	 64.6012
6.752000	 64.616
6.770000	 64.6006
6.788000	 64.544
6.806000	 64.4911
6.824000	 64.506
6.842000	 64.6059
6.860000	 64.6775
6.878000	 64.5819
6.896000	 64.472
6.914000	 64.5159
6.932000	 64.6126
6.950000	 64.6739
6.968000	 64.6641
6.986000	 64.6089
7.004000	 64.5933
7.022000	 64.6171
7.040000	 64.5953
7.058000	 64.4774
7.076000	 64.361
7.094000	 64.373
7.112000	 64.472
7.130000	 64.5263
7.148000	 64.4896
7.166000	 64.4268
7.184000	 64.3914
7.202000	 64.3618
7.220000	 64.3375
7.238000	 64.3527
7.256000	 64.4125
7.274000	 64.4887
7.292000	 64.5359
7.310000	 64.5354
7.328000	 64.5019
7.346000	 64.4611
7.364000	 64.4571
7.382000	 64.5045
7.400000	 64.5594
7.418000	 64.5811
7.436000	 64.5592
7.454000	 64.5077
7.472000	 64.4624
7.490000	 64.4344
7.508000	 64.4063
7.526000	 64.3928
7.544000	 64.4244
7.562000	 64.4707
7.580000	 64.4839
7.598000	 64.481
7.616000	 64.4896
7.634000	 64.4821
7.652000	 64.4424
7.670000	 64.4033
7.688000	 64.389
7.706000	 64.3918
7.724000	 64.3993
7.742000	 64.4074
7.760000	 64.4124
7.778000	 64.4009
7.796000	 64.3646
7.814000	 64.3291
7.832000	 64.3226
7.850000	 64.3255
7.868000	 64.3013
7.886000	 64.2634
7.904000	 64.269
7.922000	 64.3386
7.940000	 64.4214
7.958000	 64.4647
7.976000	 64.4729
7.994000	 64.4674
8.012000	 64.4399
8.030000	 64.3888
8.048000	 64.348
8.065999	 64.3431
8.084000	 64.3571
8.102000	 64.3612
8.120000	 64.3589
8.138000	 64.375
8.155999	 64.4117
8.173999	 64.4355
8.192000	 64.4249
8.210000	 64.4087
8.228000	 64.4235
8.246000	 64.4566
8.263999	 64.468
8.282000	 64.455
8.300000	 64.4549
8.318000	 64.4896
8.336000	 64.5374
8.353999	 64.5624
8.372000	 64.549
8.390000	 64.5108
8.408000	 64.4651
8.426000	 64.4129
8.443999	 64.3452
8.462000	 64.2684
8.480000	 64.215
8.498000	 64.2246
8.516000	 64.2986
8.533999	 64.3821
8.552000	 64.4102
8.570000	 64.3717
8.588000	 64.3151
8.606000	 64.2863
8.624000	 64.2832
8.641999	 64.2782
8.660000	 64.2589
8.678000	 64.2315
8.696000	 64.2012
8.714000	 64.1705
8.731999	 64.1504
8.750000	 64.1574
8.768000	 64.1962
8.786000	 64.2559
8.804000	 64.3202
8.821999	 64.3745
8.840000	 64.4047
8.858000	 64.4028
8.876000	 64.3787
8.894000	 64.3569
8.911999	 64.3547
8.930000	 64.3633
8.948000	 64.3609
8.966000	 64.3398
8.984000	 64.3132
9.001999	 64.2976
9.020000	 64.2971
9.038000	 64.3023
9.056000	 64.3005
9.074000	 64.2886
9.092000	 64.2819
9.109999	 64.3061
9.128000	 64.3707
9.146000	 64.4452
9.164000	 64.4786
9.182000	 64.4526
9.199999	 64.4012
9.218000	 64.3692
9.236000	 64.3634
9.254000	 64.3528
9.272000	 64.3138
9.289999	 64.2569
9.308000	 64.2079
9.326000	 64.1749
9.344000	 64.1502
9.362000	 64.1315
9.379999	 64.1258
9.398000	 64.1351
9.416000	 64.15
9.434000	 64.1616
9.452000	 64.1748
9.469999	 64.2031
9.488000	 64.2481
9.506000	 64.288
9.524000	 64.2893
9.542000	 64.2347
9.560000	 64.1411
9.577999	 64.0527
9.596000	 64.0145
9.614000	 64.0435
9.632000	 64.1208
9.650000	 64.2085
9.667999	 64.2759
9.686000	 64.3153
9.704000	 64.3369
9.722000	 64.3509
9.740000	 64.3558
9.757999	 64.3427
9.776000	 64.3084
9.794000	 64.2643
9.812000	 64.231
9.830000	 64.2252
9.847999	 64.2496
9.866000	 64.2908
9.884000	 64.3272
9.902000	 64.3414
9.920000	 64.3283
9.937999	 64.295
9.956000	 64.2517
9.974000	 64.2063
9.992000	 64.166
10.01	64.1393
10.028	64.1347
10.046	64.1544
10.064	64.1893
10.082	64.2235
10.1	64.2448
10.118	64.2549
10.136	64.2671
10.154	64.2945
10.172	64.337
10.19	64.3785
10.208	64.3976
10.226	64.3832
10.244	64.3427
10.262	64.2985
10.28	64.2734
10.298	64.2776
10.316	64.3033
10.334	64.3317
10.352	64.3449
10.37	64.3348
10.388	64.306
10.406	64.27
10.424	64.2405
10.442	64.2271
10.46	64.2333
10.478	64.2568
10.496	64.2914
10.514	64.3297
10.532	64.3639
10.55	64.3884
10.568	64.3997
10.586	64.3981
10.604	64.3866
10.622	64.3699
10.64	64.3516
10.658	64.332
10.676	64.3092
10.694	64.2826
10.712	64.255
10.73	64.2347
10.748	64.2319
10.766	64.2534
10.784	64.2985
10.802	64.3584
10.82	64.4209
10.838	64.4751
10.856	64.5163
10.874	64.5446
10.892	64.5613
10.91	64.5655
10.928	64.5532
10.946	64.5207
10.964	64.4683
10.982	64.4033
11	64.337
11.018	64.2822
11.036	64.2477
11.054	64.2371
11.072	64.2488
11.09	64.2775
11.108	64.3165
11.126	64.357
11.144	64.3899
11.162	64.4073
11.18	64.405
11.198	64.3855
11.216	64.3562
11.234	64.3267
11.252	64.3044
11.27	64.291
11.288	64.2831
11.306	64.2762
11.324	64.2683
11.342	64.262
11.36	64.2629
11.378	64.2741
11.396	64.2936
11.414	64.3144
11.432	64.3294
11.45	64.3361
11.468	64.3385
11.486	64.3449
11.504	64.3617
11.522	64.3899
11.54	64.4236
11.558	64.4523
11.576	64.4662
11.594	64.4616
11.612	64.4413
11.63	64.4138
11.648	64.3891
11.666	64.3752
11.684	64.3762
11.702	64.3921
11.72	64.42
11.738	64.4549
11.756	64.4906
11.774	64.52
11.792	64.536
11.81	64.5337
11.828	64.5113
11.846	64.4716
11.864	64.4216
11.882	64.3694
11.9	64.3227
11.918	64.2859
11.936	64.2589
11.954	64.2381
11.972	64.219
11.99	64.1983
12.008	64.1766
12.026	64.1577
12.044	64.1469
12.062	64.1487
12.08	64.1645
12.098	64.1917
12.116	64.2246
12.134	64.2558
12.152	64.279
12.17	64.2902
12.188	64.2879
12.206	64.2735
12.224	64.2499
12.242	64.2211
12.26	64.1913
12.278	64.1643
12.296	64.1431
12.314	64.1298
12.332	64.1249
12.35	64.1269
12.368	64.1331
12.386	64.1402
12.404	64.1456
12.422	64.1482
12.44	64.1488
12.458	64.1492
12.476	64.1511
12.494	64.1554
12.512	64.1619
12.53	64.1695
12.548	64.1774
12.566	64.1852
12.584	64.1937
12.602	64.2037
12.62	64.2159
12.638	64.2299
12.656	64.2444
12.674	64.2571
12.692	64.2659
12.71	64.2697
12.728	64.2685
12.746	64.2642
12.764	64.259
12.782	64.2549
12.8	64.2526
12.818	64.2512
12.836	64.2488
12.854	64.2431
12.872	64.2327
12.89	64.2172
12.908	64.1984
12.926	64.1788
12.944	64.1616
12.962	64.1497
12.98	64.1456
12.998	64.1502
13.016	64.1636
13.034	64.1847
13.052	64.2122
13.07	64.2438
13.088	64.2771
13.106	64.3091
13.124	64.3369
13.142	64.3574
13.16	64.3681
13.178	64.3674
13.196	64.3557
13.214	64.3348
13.232	64.3076
13.25	64.2782
13.268	64.2503
13.286	64.2271
13.304	64.21
13.322	64.1989
13.34	64.1921
13.358	64.1865
13.376	64.179
13.394	64.1668
13.412	64.1484
13.43	64.1238
13.448	64.0948
13.466	64.0643
13.484	64.0354
13.502	64.0109
13.52	63.9926
13.538	63.9808
13.556	63.975
13.574	63.9746
13.592	63.9787
13.61	63.987
13.628	64
13.646	64.0185
13.664	64.0435
13.682	64.0747
13.7	64.1111
13.718	64.1499
13.736	64.1878
13.754	64.2205
13.772	64.244
13.79	64.2556
13.808	64.2544
13.826	64.2416
13.844	64.2202
13.862	64.1942
13.88	64.168
13.898	64.1456
13.916	64.13
13.934	64.1228
13.952	64.1239
13.97	64.1325
13.988	64.1466
14.006	64.1637
14.024	64.1813
14.042	64.197
14.06	64.2092
14.078	64.2165
14.096	64.2183
14.114	64.2142
14.132	64.2042
14.15	64.1885
14.168	64.167
14.186	64.1393
14.204	64.1055
14.222	64.0656
14.24	64.02
14.258	63.97
14.276	63.9176
14.294	63.8654
14.312	63.8169
14.33	63.7755
14.348	63.7445
14.366	63.7264
14.384	63.7224
14.402	63.732
14.42	63.7536
14.438	63.7841
14.456	63.8199
14.474	63.8575
14.492	63.8938
14.51	63.9264
14.528	63.9544
14.546	63.9778
14.564	63.9972
14.582	64.0132
14.6	64.0264
14.618	64.0373
14.636	64.0454
14.654	64.0501
14.672	64.051
14.69	64.0476
14.708	64.0401
14.726	64.0293
14.744	64.0164
14.762	64.0038
14.78	63.9935
14.798	63.9874
14.816	63.9871
14.834	63.9931
14.852	64.0053
14.87	64.0224
14.888	64.0427
14.906	64.0641
14.924	64.0845
14.942	64.1021
14.96	64.1157
14.978	64.1246
14.996	64.1286
15.014	64.128
15.032	64.1233
15.05	64.1155
15.068	64.1054
15.086	64.0937
15.104	64.0814
15.122	64.0689
15.14	64.0568
15.158	64.0456
15.176	64.0359
15.194	64.0278
15.212	64.0217
15.23	64.0179
15.248	64.0168
15.266	64.0187
15.284	64.0241
15.302	64.0329
15.32	64.0452
15.338	64.0609
15.356	64.0796
15.374	64.1004
15.392	64.1224
15.41	64.1444
15.428	64.1652
15.446	64.1831
15.464	64.1971
15.482	64.2062
15.5	64.2097
15.518	64.2075
15.536	64.2001
15.554	64.1881
15.572	64.1726
15.59	64.1556
15.608	64.1387
15.626	64.1232
15.644	64.1109
15.662	64.1027
15.68	64.0992
15.698	64.1001
15.716	64.1051
15.734	64.1129
15.752	64.1221
15.77	64.1315
15.788	64.139
15.806	64.1435
15.824	64.144
15.842	64.1399
15.86	64.1309
15.878	64.1174
15.896	64.0997
15.914	64.0788
15.932	64.0556
15.95	64.0311
15.968	64.0063
15.986	63.9824
16.004	63.9598
16.022	63.9395
16.04	63.9221
16.058	63.908
16.076	63.8976
16.094	63.8911
16.112	63.8886
16.13	63.8897
16.148	63.8943
16.166	63.9012
16.184	63.9095
16.202	63.9181
16.22	63.9253
16.238	63.9298
16.256	63.9303
16.274	63.9257
16.292	63.9157
16.31	63.9001
16.328	63.8794
16.346	63.8552
16.364	63.8284
16.382	63.8015
16.4	63.7764
16.418	63.7545
16.436	63.7379
16.454	63.7276
16.472	63.7238
16.49	63.7267
16.508	63.7351
16.526	63.7483
16.544	63.764
16.562	63.7807
16.58	63.797
16.598	63.8109
16.616	63.8221
16.634	63.8299
16.652	63.8345
16.67	63.8363
16.688	63.836
16.706	63.8351
16.724	63.8342
16.742	63.8344
16.76	63.8366
16.778	63.8409
16.796	63.8476
16.814	63.856
16.832	63.8657
16.85	63.8757
16.868	63.8856
16.886	63.8948
16.904	63.9028
16.922	63.9095
16.94	63.9151
16.958	63.9199
16.976	63.9244
16.994	63.9294
17.012	63.9357
17.03	63.9435
17.048	63.9534
17.066	63.9652
17.084	63.9789
17.102	63.9936
17.12	64.009
17.138	64.0238
17.156	64.0377
17.174	64.05
17.192	64.06
17.21	64.0677
17.228	64.0728
17.246	64.0754
17.264	64.0755
17.282	64.073
17.3	64.068
17.318	64.0601
17.336	64.049
17.354	64.0343
17.372	64.0152
17.39	63.9913
17.408	63.962
17.426	63.9272
17.444	63.8866
17.462	63.8412
17.48	63.7913
17.498	63.7388
17.516	63.6854
17.534	63.6328
17.552	63.5844
17.57	63.5412
17.588	63.5071
17.606	63.4832
17.624	63.4717
17.642	63.4737
17.66	63.4901
17.678	63.5208
17.696	63.5652
17.714	63.622
17.732	63.6894
17.75	63.7658
17.768	63.8475
17.786	63.9332
17.804	64.0187
17.822	64.1028
17.84	64.1816
17.858	64.2534
17.876	64.3158
17.894	64.3666
17.912	64.405
17.93	64.4294
17.948	64.4398
17.966	64.4361
17.984	64.4192
18.002	64.3901
18.02	64.351
18.038	64.3031
18.056	64.2504
18.074	64.1938
18.092	64.1379
18.11	64.0834
18.128	64.0339
18.146	63.99
18.164	63.9539
18.182	63.9255
18.2	63.9056
18.218	63.8933
18.236	63.8886
18.254	63.8897
18.272	63.8961
18.29	63.9056
18.308	63.9178
18.326	63.9303
18.344	63.943
18.362	63.9538
18.38	63.9626
18.398	63.9685
18.416	63.9712
18.434	63.97
18.452	63.9654
18.47	63.9573
18.488	63.9464
18.506	63.9328
18.524	63.918
18.542	63.9022
18.56	63.887
18.578	63.8727
18.596	63.8612
18.614	63.8526
18.632	63.8487
18.65	63.8494
18.668	63.8562
18.686	63.8691
18.704	63.8886
18.722	63.9147
18.74	63.9476
18.758	63.9869
18.776	64.0323
18.794	64.0832
18.812	64.1388
18.83	64.1986
18.848	64.2613
18.866	64.3262
18.884	64.3918
18.902	64.4573
18.92	64.5213
18.938	64.5828
18.956	64.6404
18.974	64.6934
18.992	64.7402
19.01	64.7805
19.028	64.8131
19.046	64.8382
19.064	64.855
19.082	64.8639
19.1	64.865
19.118	64.8589
19.136	64.8463
19.154	64.828
19.172	64.8053
19.19	64.7786
19.208	64.7496
19.226	64.7186
19.244	64.6873
19.262	64.6557
19.28	64.6251
19.298	64.5953
19.316	64.5671
19.334	64.5403
19.352	64.5148
19.37	64.4905
19.388	64.4666
19.406	64.4433
19.424	64.4193
19.442	64.3949
19.46	64.3687
19.478	64.3408
19.496	64.3107
19.514	64.2783
19.532	64.2439
19.55	64.2071
19.568	64.169
19.586	64.1301
19.604	64.0913
19.622	64.0542
19.64	64.0189
19.658	63.9884
19.676	63.9623
19.694	63.9437
19.712	63.9322
19.73	63.9298
19.748	63.9367
19.766	63.9532
19.784	63.9796
19.802	64.0147
19.82	64.0585
19.838	64.1094
19.856	64.1655
19.874	64.2264
19.892	64.2884
19.91	64.3518
19.928	64.4125
19.946	64.4707
19.964	64.5234
19.982	64.5701
20	64.6095
20.018	64.6405
20.036	64.6635
20.054	64.6778
20.072	64.6839
20.09	64.6826
20.108	64.6737
20.126	64.6592
20.144	64.6388
20.162	64.6141
20.18	64.5857
20.198	64.5541
20.216	64.5203
20.234	64.4843
20.252	64.4466
20.27	64.4073
20.288	64.3663
20.306	64.3237
20.324	64.2794
20.342	64.2333
20.36	64.1854
20.378	64.1356
20.396	64.084
20.414	64.0312
20.432	63.9768
20.45	63.9226
20.468	63.8688
20.486	63.8164
20.504	63.7677
20.522	63.7222
20.54	63.683
20.558	63.6495
20.576	63.6241
20.594	63.6077
20.612	63.6004
20.63	63.6034
20.648	63.6164
20.666	63.6395
20.684	63.6731
20.702	63.716
20.72	63.768
20.738	63.8286
20.756	63.8958
20.774	63.9701
20.792	64.0484
20.81	64.1305
20.828	64.2149
20.846	64.2993
20.864	64.3843
20.882	64.4673
20.9	64.5485
20.918	64.6269
20.936	64.7014
20.954	64.7724
20.972	64.8388
20.99	64.9009
21.008	64.9583
21.026	65.0111
21.044	65.0592
21.062	65.1028
21.08	65.1419
21.098	65.1766
21.116	65.2069
21.134	65.2328
21.152	65.2544
21.17	65.2717
21.188	65.2845
21.206	65.2927
21.224	65.2963
21.242	65.2951
21.26	65.2891
21.278	65.2784
21.296	65.2629
21.314	65.2431
21.332	65.2196
21.35	65.1922
21.368	65.1629
21.386	65.1315
21.404	65.0991
21.422	65.0684
21.44	65.0383
21.458	65.0124
21.476	64.992
21.494	64.9772
21.512	64.972
21.53	64.9756
21.548	64.9899
21.566	65.0169
21.584	65.0557
21.602	65.107
21.62	65.1711
21.638	65.2473
21.656	65.3355
21.674	65.4361
21.692	65.5451
21.71	65.6627
21.728	65.787
21.746	65.9118
21.764	66.0397
21.782	66.164
21.8	66.2796
21.818	66.3887
21.836	66.4827
21.854	66.5617
21.872	66.6238
21.89	66.6621
21.908	66.679
21.926	66.6711
21.944	66.6356
21.962	66.5741
21.98	66.4861
21.998	66.3704
22.016	66.2293
22.034	66.0659
22.052	65.878
22.07	65.6718
22.088	65.451
22.106	65.2136
22.124	64.9697
22.142	64.7199
22.16	64.4656
22.178	64.2174
22.196	63.9726
22.214	63.736
22.232	63.5149
22.25	63.3059
22.268	63.1152
22.286	62.9466
22.304	62.798
22.322	62.6742
22.34	62.5766
22.358	62.5041
22.376	62.4573
22.394	62.4374
22.412	62.4416
22.43	62.4677
22.448	62.5172
22.466	62.5856
22.484	62.6695
22.502	62.7709
22.52	62.8835
22.538	63.0057
22.556	63.1381
22.574	63.273
22.592	63.4099
22.61	63.5483
22.628	63.682
22.646	63.8117
22.664	63.9362
22.682	64.0514
22.7	64.1576
22.718	64.2555
22.736	64.3446
22.754	64.4244
22.772	64.4974
22.79	64.565
22.808	64.6254
22.826	64.6847
22.844	64.746
22.862	64.8068
22.88	64.8753
22.898	64.9546
22.916	65.0424
22.934	65.1473
22.952	65.2714
22.97	65.4132
22.988	65.5799
23.006	65.7735
23.024	65.9922
23.042	66.2387
23.06	66.5148
23.078	66.8181
23.096	67.1455
23.114	67.4993
23.132	67.8762
23.15	68.2666
23.168	68.6735
23.186	69.0932
23.204	69.5128
23.222	69.9357
23.24	70.3578
23.258	70.7642
23.276	71.1574
23.294	71.535
23.312	71.8838
23.33	72.2055
23.348	72.4989
23.366	72.7542
23.384	72.9705
23.402	73.1497
23.42	73.2887
23.438	73.3867
23.456	73.4452
23.474	73.4649
23.492	73.4445
23.51	73.3856
23.528	73.2927
23.546	73.1666
23.564	73.0067
23.582	72.8176
23.6	72.6009
23.618	72.3551
23.636	72.0845
23.654	71.7915
23.672	71.4745
23.69	71.135
23.708	70.7743
23.726	70.3917
23.744	69.9877
23.762	69.5627
23.78	69.117
23.798	68.6499
23.816	68.1611
23.834	67.6504
23.852	67.1186
23.87	66.5666
23.888	65.9925
23.906	65.3989
23.924	64.7907
23.942	64.1655
23.96	63.525
23.978	62.8793
23.996	62.2297
24.014	61.5733
24.032	60.9225
24.05	60.2842
24.068	59.6509
24.086	59.0353
24.104	58.4493
24.122	57.8843
24.14	57.3489
24.158	56.856
24.176	56.4009
24.194	55.9859
24.212	55.6217
24.23	55.311
24.248	55.0499
24.266	54.8415
24.284	54.6882
24.302	54.5889
24.32	54.541
24.338	54.5432
24.356	54.5981
24.374	54.701
24.392	54.8453
24.41	55.0334
24.428	55.2638
24.446	55.5281
24.464	55.8242
24.482	56.1559
24.5	56.5131
24.518	56.8876
24.536	57.2857
24.554	57.7015
24.572	58.1266
24.59	58.5631
24.608	59.0107
24.626	59.462
24.644	59.9134
24.662	60.3686
24.68	60.8239
24.698	61.2755
24.716	61.7258
24.734	62.1733
24.752	62.6146
24.77	63.0493
24.788	63.4784
24.806	63.9006
24.824	64.3148
24.842	64.7222
24.86	65.1215
24.878	65.5112
24.896	65.8921
24.914	66.264
24.932	66.6252
24.95	66.9749
24.968	67.314
24.986	67.642
25.004	67.9583
25.022	68.2643
25.04	68.5588
25.058	68.8391
25.076	69.1046
25.094	69.3567
25.112	69.5932
25.13	69.8118
25.148	70.0157
25.166	70.2021
25.184	70.3657
25.202	70.5046
25.22	70.6226
25.238	70.714
25.256	70.7732
25.274	70.8046
25.292	70.8059
25.31	70.7693
25.328	70.6909
25.346	70.5763
25.364	70.4197
25.382	70.2142
25.4	69.9609
25.418	69.6614
25.436	69.312
25.454	68.9095
25.472	68.4543
25.49	67.9496
25.508	67.3984
25.526	66.8006
25.544	66.1553
25.562	65.4666
25.58	64.7384
25.598	63.9672
25.616	63.1555
25.634	62.3098
25.652	61.4309
25.67	60.5099
25.688	59.5638
25.706	58.6119
25.724	57.6511
25.742	56.6752
25.76	55.7063
25.778	54.7643
25.796	53.8294
25.814	52.9135
25.832	52.0455
25.85	51.2436
25.868	50.4849
25.886	49.7871
25.904	49.1734
25.922	48.6658
25.94	48.2528
25.958	47.9005
25.976	47.576
25.994	47.3039
26.012	47.0775
26.03	46.8476
26.048	46.5722
26.066	46.2832
26.084	45.9688
26.102	45.5965
26.12	45.1435
26.138	44.6302
26.156	44.0512
26.174	43.397
26.192	42.6388
26.21	41.7708
26.228	40.8678
26.246	40.0064
26.264	39.1721
26.282	38.3366
26.3	37.5778
26.318	36.9723
26.336	36.5058
26.354	36.1573
26.372	35.9492
26.39	35.9032
26.408	36.0232
26.426	36.2923
26.444	36.6932
26.462	37.2243
26.48	37.9751
26.498	38.8369
26.516	39.6549
26.534	40.3175
26.552	40.9517
26.57	41.49
26.588	41.8215
26.606	41.8591
26.624	41.6533
26.642	41.2353
26.66	40.6275
26.678	39.8218
26.696	38.7676
26.714	37.5603
26.732	36.3071
26.75	35.0056
26.768	33.4977
26.786	32.0455
26.804	30.9393
26.822	30.3203
26.84	29.9673
26.858	30.0065
26.876	30.5914
26.894	31.8434
26.912	33.7
26.93	36.0594
26.948	38.8234
26.966	42.1722
26.984	46.524
27.002	50.9632
27.02	54.4886
27.028	55.4017