File: Bakgrunnsmateriale/MATLAB/FTIR/ftir_data/subAa/Mapping_121/BZ1503107-1_t14_cm-1.asc
PE IR       SPECTRUM    SPECTRUM    ASCII       PEDS        1.60
  -1
BZ6CA1~1.ASC
17/04/07
14:21:08.00
17/04/07
14:21:08.00
tln
$BZ1503107-1_t0014$<tbV0>[7.8,-10.4,8.0,0.0,27,1,0]
370
64

2002,4.07
MIRTGS : RIGHTBACK : INTERNAL 2
MIR : ON : INTERNAL 2
OPTKBR

0.200000
8
8.000000
FILLER
RATIO
SPECTRUM
UNLOCKED 256

DOUBLE
64
COMBINED
1
0
0

1.000000
RATIO

1
0
TRUE
51149
0
LEFT NOT FITTED RIGHT NOT FITTED 0
NONE
NONE
15600
12
4.427000
51148
TRUE
1 0 8 72 0 0 0 0

15798

#HDR
-1
-1
#GR
CM-1
%T
2.38419e-05
0.0
5000
-1.000000
4631
8
98.3437
52.1989
#DATA
5000	64.0523
4996	64.4649
4992	64.5882
4988	63.6523
4984	64.052
4980	65.6281
4976	65.531
4972	64.8093
4968	63.9456
4964	63.0449
4960	63.0608
4956	63.5012
4952	64.3295
4948	65.2514
4944	65.7269
4940	65.7673
4936	66.1551
4932	66.5614
4928	65.8534
4924	64.885
4920	64.1091
4916	63.721
4912	64.4446
4908	65.3117
4904	65.2324
4900	64.8988
4896	64.9326
4892	64.94
4888	64.7711
4884	64.4965
4880	64.3715
4876	64.4866
4872	64.6382
4868	64.903
4864	65.1556
4860	65.1687
4856	64.8397
4852	64.5658
4848	64.9158
4844	65.3707
4840	65.2387
4836	64.9529
4832	64.8726
4828	64.9199
4824	65.0169
4820	65.1332
4816	65.5197
4812	65.437
4808	64.8156
4804	65.1176
4800	65.7609
4796	65.6167
4792	65.4442
4788	65.4808
4784	65.2597
4780	64.9574
4776	65.0578
4772	65.1263
4768	64.5753
4764	64.4276
4760	65.0912
4756	65.3696
4752	65.1522
4748	65.1133
4744	65.1318
4740	65.0194
4736	64.914
4732	64.9424
4728	64.8734
4724	64.5926
4720	64.3087
4716	64.3368
4712	64.5232
4708	64.4546
4704	64.4489
4700	64.6289
4696	64.6477
4692	64.6096
4688	64.7864
4684	64.9767
4680	65.1161
4676	65.3135
4672	65.313
4668	65.0968
4664	64.933
4660	64.9497
4656	64.9924
4652	64.8822
4648	64.8669
4644	64.9236
4640	64.696
4636	64.4665
4632	64.4639
4628	64.3855
4624	64.3237
4620	64.4539
4616	64.7309
4612	65.0357
4608	65.0979
4604	65.0354
4600	64.9354
4596	64.751
4592	64.7704
4588	64.8367
4584	64.7972
4580	64.8875
4576	64.9472
4572	64.813
4568	64.6738
4564	64.6448
4560	64.6482
4556	64.5735
4552	64.3955
4548	64.2013
4544	64.2256
4540	64.4978
4536	64.6911
4532	64.5705
4528	64.4669
4524	64.5289
4520	64.4879
4516	64.4553
4512	64.5302
4508	64.6696
4504	64.8791
4500	65.1317
4496	65.8652
4492	67.328
4488	68.0026
4484	68.8576
4480	69.7797
4476	67.9896
4472	65.4186
4468	63.6371
4464	62.3549
4460	62.0996
4456	61.1701
4452	61.6786
4448	65.6551
4444	66.8677
4440	69.3599
4436	73.6609
4432	70.4204
4428	65.1721
4424	63.5304
4420	63.9621
4416	64.6447
4412	64.9632
4408	65.3081
4404	65.1719
4400	64.8599
4396	64.5659
4392	64.5282
4388	64.7327
4384	64.9043
4380	64.9971
4376	64.843
4372	64.6425
4368	64.7357
4364	64.8225
4360	64.7773
4356	64.7101
4352	64.5621
4348	64.5863
4344	64.8124
4340	64.8577
4336	64.7275
4332	64.6018
4328	64.5257
4324	64.5124
4320	64.5638
4316	64.7591
4312	65.0184
4308	65.1564
4304	65.1995
4300	65.1834
4296	65.1121
4292	65.0646
4288	65.0582
4284	64.9936
4280	64.9263
4276	65.011
4272	65.0492
4268	64.9319
4264	64.8566
4260	64.8703
4256	65.001
4252	65.2152
4248	65.3319
4244	65.3149
4240	65.2965
4236	65.3579
4232	65.3203
4228	65.189
4224	65.1656
4220	65.2093
4216	65.2676
4212	65.3264
4208	65.3676
4204	65.4102
4200	65.3817
4196	65.1894
4192	65.0651
4188	65.2006
4184	65.2885
4180	65.024
4176	64.7748
4172	64.8924
4168	65.0264
4164	65.0453
4160	65.192
4156	65.3192
4152	65.2228
4148	65.0699
4144	65.0355
4140	65.0928
4136	65.1408
4132	65.1168
4128	65.0796
4124	65.0835
4120	65.1475
4116	65.3594
4112	65.5844
4108	65.674
4104	65.6813
4100	65.5653
4096	65.3363
4092	65.2336
4088	65.2911
4084	65.2508
4080	65.1661
4076	65.1651
4072	65.2053
4068	65.2712
4064	65.3442
4060	65.4026
4056	65.4603
4052	65.4172
4048	65.133
4044	64.9218
4040	65.1092
4036	65.3597
4032	65.3844
4028	65.2844
4024	65.1607
4020	65.0872
4016	65.0221
4012	64.9682
4008	65.0026
4004	65.0668
4000	65.1601
3996	65.2868
3992	65.3503
3988	65.3015
3984	65.2127
3980	65.1363
3976	65.0222
3972	64.9726
3968	65.0642
3964	65.1144
3960	65.1064
3956	65.2242
3952	65.4277
3948	65.5399
3944	65.5207
3940	65.4315
3936	65.2602
3932	65.0499
3928	64.9888
3924	64.964
3920	64.8197
3916	64.769
3912	64.9332
3908	65.113
3904	65.1608
3900	65.235
3896	65.3108
3892	65.2514
3888	65.2376
3884	65.2678
3880	65.2284
3876	65.143
3872	65.0941
3868	65.2254
3864	65.2887
3860	65.2156
3856	65.3138
3852	65.3864
3848	65.2591
3844	65.1509
3840	65.2034
3836	65.3746
3832	65.4575
3828	65.3352
3824	65.1959
3820	65.2303
3816	65.2908
3812	65.211
3808	65.1619
3804	65.2974
3800	65.3414
3796	65.1832
3792	65.0856
3788	65.1228
3784	65.1819
3780	65.1776
3776	65.168
3772	65.2282
3768	65.2661
3764	65.2311
3760	65.2524
3756	65.3876
3752	65.5023
3748	65.5107
3744	65.449
3740	65.3584
3736	65.2382
3732	65.0805
3728	65.0274
3724	65.0892
3720	65.1145
3716	65.1624
3712	65.2481
3708	65.2796
3704	65.2607
3700	65.255
3696	65.3542
3692	65.4532
3688	65.4462
3684	65.3982
3680	65.3876
3676	65.4772
3672	65.4938
3668	65.3176
3664	65.1838
3660	65.2001
3656	65.2031
3652	65.1619
3648	65.2306
3644	65.3874
3640	65.4046
3636	65.3343
3632	65.3809
3628	65.4146
3624	65.343
3620	65.3027
3616	65.3444
3612	65.381
3608	65.3947
3604	65.4353
3600	65.3941
3596	65.2202
3592	65.1144
3588	65.1568
3584	65.2446
3580	65.3178
3576	65.3264
3572	65.2452
3568	65.1404
3564	65.0587
3560	65.0133
3556	65.0708
3552	65.1398
3548	65.1517
3544	65.1853
3540	65.1924
3536	65.1766
3532	65.1525
3528	65.1168
3524	65.1682
3520	65.2649
3516	65.2551
3512	65.1911
3508	65.1456
3504	65.1291
3500	65.1412
3496	65.0802
3492	65.0115
3488	65.1456
3484	65.2721
3480	65.1841
3476	65.1134
3472	65.0992
3468	65.0726
3464	65.0872
3460	65.1311
3456	65.2033
3452	65.2452
3448	65.2126
3444	65.2394
3440	65.3458
3436	65.3476
3432	65.2442
3428	65.2067
3424	65.2488
3420	65.3154
3416	65.344
3412	65.3003
3408	65.2576
3404	65.2075
3400	65.1302
3396	65.1344
3392	65.1542
3388	65.0696
3384	65.0515
3380	65.1242
3376	65.1916
3372	65.2961
3368	65.3152
3364	65.1793
3360	65.065
3356	65.0542
3352	65.0255
3348	64.943
3344	64.9186
3340	65.0339
3336	65.2184
3332	65.2383
3328	65.1235
3324	65.1433
3320	65.2626
3316	65.2522
3312	65.1247
3308	65.0824
3304	65.1574
3300	65.1981
3296	65.1899
3292	65.2615
3288	65.3736
3284	65.4238
3280	65.3711
3276	65.2201
3272	65.153
3268	65.2089
3264	65.2332
3260	65.2067
3256	65.2067
3252	65.2039
3248	65.1606
3244	65.1217
3240	65.0864
3236	65.1048
3232	65.1736
3228	65.263
3224	65.3582
3220	65.3572
3216	65.3043
3212	65.2959
3208	65.294
3204	65.2658
3200	65.2349
3196	65.2246
3192	65.1961
3188	65.0969
3184	65.0393
3180	65.1126
3176	65.2391
3172	65.3535
3168	65.3852
3164	65.3141
3160	65.2378
3156	65.2173
3152	65.2597
3148	65.324
3144	65.2931
3140	65.2004
3136	65.1387
3132	65.0736
3128	65.0697
3124	65.1925
3120	65.287
3116	65.2277
3112	65.1133
3108	65.0958
3104	65.1659
3100	65.2621
3096	65.3336
3092	65.3452
3088	65.3096
3084	65.2491
3080	65.1929
3076	65.1658
3072	65.203
3068	65.2583
3064	65.2721
3060	65.2128
3056	65.1355
3052	65.1018
3048	65.0497
3044	65.0735
3040	65.2252
3036	65.2849
3032	65.1658
3028	65.0356
3024	64.996
3020	65.0753
3016	65.2364
3012	65.3167
3008	65.3481
3004	65.4079
3000	65.3589
2996	65.2183
2992	65.1668
2988	65.2047
2984	65.2504
2980	65.246
2976	65.1936
2972	65.1767
2968	65.1686
2964	65.1704
2960	65.2216
2956	65.2239
2952	65.1581
2948	65.1094
2944	65.0987
2940	65.065
2936	65.0116
2932	65.0251
2928	65.0887
2924	65.0762
2920	65.0154
2916	65.0177
2912	65.0617
2908	65.1022
2904	65.0619
2900	64.9515
2896	64.9282
2892	65.0336
2888	65.0755
2884	64.9797
2880	64.9546
2876	65.0839
2872	65.2494
2868	65.3104
2864	65.2221
2860	65.1126
2856	65.0713
2852	65.0823
2848	65.099
2844	65.0847
2840	65.0691
2836	65.1059
2832	65.197
2828	65.246
2824	65.1999
2820	65.1256
2816	65.0722
2812	65.0578
2808	65.0706
2804	65.0887
2800	65.1023
2796	65.0908
2792	65.0413
2788	65.02
2784	65.0737
2780	65.107
2776	65.0663
2772	65.0093
2768	65.0301
2764	65.0828
2760	65.0756
2756	65.0419
2752	65.0112
2748	65.0245
2744	65.0947
2740	65.1925
2736	65.2634
2732	65.2507
2728	65.2068
2724	65.1842
2720	65.1691
2716	65.1602
2712	65.1383
2708	65.132
2704	65.1761
2700	65.1952
2696	65.1484
2692	65.0594
2688	65.0047
2684	65.0372
2680	65.0837
2676	65.0836
2672	65.0457
2668	65.03
2664	65.0579
2660	65.0895
2656	65.0927
2652	65.0627
2648	65.0584
2644	65.078
2640	65.0847
2636	65.0335
2632	64.962
2628	65.0187
2624	65.1031
2620	65.0518
2616	64.967
2612	64.9596
2608	64.9636
2604	64.9434
2600	64.9909
2596	65.1198
2592	65.1932
2588	65.1441
2584	65.1185
2580	65.1778
2576	65.1865
2572	65.1254
2568	65.0803
2564	65.0596
2560	65.0647
2556	65.1204
2552	65.1566
2548	65.1275
2544	65.0986
2540	65.0584
2536	65.0238
2532	65.0424
2528	65.0619
2524	65.065
2520	65.0807
2516	65.1136
2512	65.1918
2508	65.2433
2504	65.1685
2500	65.0733
2496	65.0447
2492	65.0926
2488	65.1806
2484	65.1844
2480	65.1023
2476	65.0456
2472	65.04
2468	65.0219
2464	65.007
2460	65.0183
2456	65.0178
2452	65.0182
2448	65.0243
2444	65.0027
2440	64.9574
2436	64.9284
2432	64.8984
2428	64.8806
2424	64.9268
2420	64.9866
2416	65.0098
2412	64.9895
2408	64.9527
2404	64.9581
2400	64.9902
2396	65.0166
2392	65.0695
2388	65.0976
2384	65.0652
2380	65.0862
2376	65.1151
2372	65.0605
2368	65.0365
2364	65.083
2360	65.0993
2356	65.0392
2352	65.0116
2348	65.0589
2344	65.0526
2340	64.9929
2336	64.9629
2332	64.9253
2328	64.8869
2324	64.8962
2320	64.9487
2316	65.0696
2312	65.1667
2308	65.105
2304	64.981
2300	64.9609
2296	65.031
2292	65.0457
2288	64.9846
2284	64.9576
2280	64.9767
2276	64.9801
2272	64.9815
2268	65.0262
2264	65.0559
2260	65.0478
2256	65.0502
2252	65.0385
2248	65.005
2244	64.9753
2240	64.9457
2236	64.9
2232	64.8637
2228	64.8836
2224	64.9231
2220	64.934
2216	64.8885
2212	64.8177
2208	64.8537
2204	64.9492
2200	64.9753
2196	64.9657
2192	64.9391
2188	64.9208
2184	64.9553
2180	65.0057
2176	65.0411
2172	65.0282
2168	65.0267
2164	65.0441
2160	64.8942
2156	64.7196
2152	64.7052
2148	64.74
2144	64.7882
2140	64.816
2136	64.8247
2132	64.8607
2128	64.9331
2124	65.0033
2120	64.9466
2116	64.8174
2112	64.839
2108	64.9477
2104	64.9482
2100	64.893
2096	64.864
2092	64.8623
2088	64.8902
2084	64.8961
2080	64.8877
2076	64.9335
2072	64.9857
2068	64.9544
2064	64.9186
2060	64.9235
2056	64.8992
2052	64.9187
2048	64.9694
2044	64.9117
2040	64.8002
2036	64.7712
2032	64.853
2028	64.9507
2024	64.963
2020	64.9195
2016	64.9276
2012	64.9745
2008	64.9473
2004	64.8736
2000	64.8282
1996	64.8043
1992	64.8188
1988	64.8749
1984	64.9291
1980	64.9594
1976	64.973
1972	64.9737
1968	64.9494
1964	64.9113
1960	64.8802
1956	64.865
1952	64.8701
1948	64.8774
1944	64.8844
1940	64.8887
1936	64.8957
1932	64.8784
1928	64.8063
1924	64.7911
1920	64.8746
1916	64.9411
1912	64.9516
1908	64.9143
1904	64.8501
1900	64.8133
1896	64.8252
1892	64.8809
1888	64.9121
1884	64.87
1880	64.8452
1876	64.8674
1872	64.868
1868	64.8542
1864	64.8033
1860	64.705
1856	64.6794
1852	64.7885
1848	64.9338
1844	64.9568
1840	64.9016
1836	64.9195
1832	64.922
1828	64.8345
1824	64.7964
1820	64.8382
1816	64.8757
1812	64.8963
1808	64.9017
1804	64.8864
1800	64.8611
1796	64.8302
1792	64.8206
1788	64.8359
1784	64.8431
1780	64.8524
1776	64.8784
1772	64.9051
1768	64.8805
1764	64.8225
1760	64.807
1756	64.8026
1752	64.7476
1748	64.694
1744	64.6997
1740	64.7679
1736	64.8242
1732	64.7486
1728	64.6345
1724	64.6444
1720	64.7703
1716	64.8633
1712	64.8357
1708	64.7653
1704	64.7667
1700	64.8515
1696	64.853
1692	64.7483
1688	64.6853
1684	64.6781
1680	64.699
1676	64.7258
1672	64.7026
1668	64.682
1664	64.7142
1660	64.7566
1656	64.8082
1652	64.8252
1648	64.7882
1644	64.7302
1640	64.6745
1636	64.6768
1632	64.704
1628	64.7057
1624	64.7091
1620	64.7432
1616	64.734
1612	64.673
1608	64.6716
1604	64.6708
1600	64.641
1596	64.6615
1592	64.6867
1588	64.686
1584	64.735
1580	64.8177
1576	64.8439
1572	64.7881
1568	64.7198
1564	64.7527
1560	64.8576
1556	64.8357
1552	64.7269
1548	64.7295
1544	64.7957
1540	64.7698
1536	64.6666
1532	64.5926
1528	64.5956
1524	64.6753
1520	64.7699
1516	64.786
1512	64.7465
1508	64.7404
1504	64.7186
1500	64.7009
1496	64.7305
1492	64.7112
1488	64.7112
1484	64.7171
1480	64.6808
1476	64.6835
1472	64.6874
1468	64.6557
1464	64.6575
1460	64.7642
1456	64.8151
1452	64.6657
1448	64.5571
1444	64.5607
1440	64.5836
1436	64.629
1432	64.5927
1428	64.5042
1424	64.4886
1420	64.4929
1416	64.4428
1412	64.4086
1408	64.4557
1404	64.5072
1400	64.5106
1396	64.4734
1392	64.4486
1388	64.4685
1384	64.4534
1380	64.4294
1376	64.3972
1372	64.352
1368	64.4053
1364	64.5295
1360	64.5929
1356	64.5601
1352	64.5216
1348	64.5444
1344	64.5727
1340	64.5133
1336	64.4226
1332	64.4172
1328	64.466
1324	64.5046
1320	64.5141
1316	64.4918
1312	64.4767
1308	64.4575
1304	64.4297
1300	64.4553
1296	64.4994
1292	64.5196
1288	64.5206
1284	64.4743
1280	64.3917
1276	64.3317
1272	64.3395
1268	64.3833
1264	64.4117
1260	64.4116
1256	64.3807
1252	64.3717
1248	64.3602
1244	64.3099
1240	64.29
1236	64.2419
1232	64.1898
1228	64.2863
1224	64.4227
1220	64.4558
1216	64.4476
1212	64.4037
1208	64.3245
1204	64.3038
1200	64.344
1196	64.3775
1192	64.4019
1188	64.4567
1184	64.4783
1180	64.3841
1176	64.2577
1172	64.2417
1168	64.2592
1164	64.2117
1160	64.1793
1156	64.1309
1152	64.0588
1148	64.0759
1144	64.1676
1140	64.2648
1136	64.2775
1132	64.2555
1128	64.3232
1124	64.3953
1120	64.3567
1116	64.263
1112	64.1723
1108	64.0984
1104	64.1832
1100	64.3488
1096	64.4147
1092	64.479
1088	64.4959
1084	64.4579
1080	64.4509
1076	64.4196
1072	64.3471
1068	64.2164
1064	64.124
1060	64.1513
1056	64.2638
1052	64.3568
1048	64.2988
1044	64.1656
1040	64.0557
1036	64.0011
1032	64.0625
1028	64.1229
1024	64.1215
1020	64.1802
1016	64.233
1012	64.1961
1008	64.1833
1004	64.2322
1000	64.2314
996	 64.2288
992	 64.2498
988	 64.2377
984	 64.3189
980	 64.4151
976	 64.339
972	 64.2613
968	 64.3455
964	 64.4056
960	 64.3851
956	 64.3772
952	 64.3466
948	 64.3183
944	 64.3106
940	 64.2761
936	 64.2042
932	 64.1567
928	 64.1793
924	 64.2377
920	 64.3693
916	 64.5313
912	 64.4902
908	 64.2767
904	 64.1766
900	 64.2104
896	 64.1979
892	 64.145
888	 64.1798
884	 64.227
880	 64.1957
876	 64.1794
872	 64.1658
868	 64.0888
864	 64.0217
860	 64.0235
856	 64.0874
852	 64.202
848	 64.3003
844	 64.2667
840	 64.1573
836	 64.1574
832	 64.1549
828	 64.0949
824	 64.1439
820	 64.1953
816	 64.1961
812	 64.1894
808	 64.1001
804	 63.9716
800	 63.9535
796	 64.1088
792	 64.2499
788	 64.2702
784	 64.2541
780	 64.2145
776	 64.2188
772	 64.2429
768	 64.1783
764	 64.0987
760	 64.0579
756	 64.1175
752	 64.2058
748	 64.1294
744	 64.0512
740	 64.0628
736	 63.9347
732	 63.8254
728	 63.9152
724	 63.9607
720	 63.9326
716	 63.9472
712	 63.9879
708	 63.998
704	 63.9729
700	 63.9684
696	 63.905
692	 63.8595
688	 63.9101
684	 63.8607
680	 63.7262
676	 63.7125
672	 63.8381
668	 63.9132
664	 63.8739
660	 63.8419
656	 63.8515
652	 63.8986
648	 63.9252
644	 63.8534
640	 63.7702
636	 63.7746
632	 63.8174
628	 63.7792
624	 63.6436
620	 63.5875
616	 63.664
612	 63.7797
608	 63.8721
604	 63.6961
600	 63.5944
596	 63.8567
592	 63.8924
588	 63.763
584	 63.973
580	 64.396
576	 64.7328
572	 64.6171
568	 63.882
564	 63.8431
560	 64.5311
556	 64.1238
552	 63.2289
548	 63.2659
544	 63.8678
540	 64.5304
536	 65.0818
532	 65.22
528	 64.9862
524	 64.7484
520	 64.5556
516	 63.9433
512	 63.5587
508	 64.2518
504	 64.9658
500	 64.928
496	 64.4228
492	 63.8139
488	 63.273
484	 63.4306
480	 64.8297
476	 65.5847
472	 64.7699
468	 64.0315
464	 63.9213
460	 63.8666
456	 63.2768
452	 62.7064
448	 62.7801
444	 62.8663
440	 63.0889
436	 63.6238
432	 64.01
428	 64.3462
424	 64.3134
420	 63.6446
416	 63.6203
412	 65.245
408	 66.6984
404	 63.4331
400	 55.6184
396	 52.3016
392	 56.4257
388	 57.765
384	 58.905
380	 72.7354
376	 90.6676
372	 83.0994
370	 98.3437