File: Bakgrunnsmateriale/MATLAB/FTIR/ftir_data/subAa/Mapping_121/BZ1503107-1_t11.asc
PE IR       SPECTRUM    SPECTRUM    ASCII       PEDS        1.60
  -1
BZ2D4B~1.ASC
17/04/07
14:06:39.00
17/04/07
14:07:06.00
tln
$BZ1503107-1_t0011$<tbV0>[-13.0,-13.0,8.0,0.0,27,1,0]
27.028
64

2002,4.07
MIRTGS : RIGHTBACK : INTERNAL 2
MIR : ON : INTERNAL 2
OPTKBR

0.200000
8
8.000000
FILLER
RATIO
SPECTRUM
UNLOCKED 256

DOUBLE
64
COMBINED
1
0
0

0.002000
RATIO

1
0
TRUE
51149
0
LEFT NOT FITTED RIGHT NOT FITTED 0
NONE
NONE
15600
12
4.427000
51148
TRUE
1 0 8 72 0 0 0 0

15798

#HDR
-1
-1
#GR
µM
%T
2.38419e-05
0.0
2.000000
0.002000
12515
8
92.8159
61.6059
#DATA
2.000000	 65.1273
2.018000	 63.5958
2.036000	 64.9937
2.054000	 64.8456
2.072000	 64.635
2.090000	 65.5558
2.108000	 64.9242
2.126000	 64.746
2.144000	 64.8994
2.162000	 64.4862
2.180000	 64.3351
2.198000	 63.604
2.216000	 63.6947
2.234000	 66.3209
2.252000	 81.9068
2.270000	 64.117
2.288000	 63.4192
2.306000	 64.0962
2.324000	 64.9252
2.342000	 64.75
2.360000	 64.6987
2.378000	 64.7234
2.396000	 65.0446
2.414000	 65.271
2.432000	 65.6739
2.450000	 65.2724
2.468000	 65.3002
2.486000	 65.0408
2.504000	 65.1242
2.522000	 65.0724
2.540000	 65.0591
2.558000	 65.1924
2.576000	 64.9161
2.594000	 65.1965
2.612000	 65.1286
2.630000	 65.1705
2.648000	 65.1329
2.666000	 65.3715
2.684000	 65.1007
2.702000	 65.2929
2.720000	 65.3584
2.738000	 65.3773
2.756000	 65.4835
2.774000	 65.2621
2.792000	 65.1564
2.810000	 65.1326
2.828000	 65.072
2.846000	 65.0925
2.864000	 65.0614
2.882000	 65.0198
2.900000	 64.9856
2.918000	 65.132
2.936000	 65.0592
2.954000	 65.1467
2.972000	 65.0732
2.990000	 65.1982
3.008000	 65.2486
3.026000	 65.1784
3.044000	 65.1692
3.062000	 65.0376
3.080000	 65.1472
3.098000	 65.1153
3.116000	 65.2826
3.134000	 64.9787
3.152000	 64.9888
3.170000	 65.1555
3.188000	 65.124
3.206000	 65.1524
3.224000	 65.2326
3.242000	 65.0397
3.260000	 65.1214
3.278000	 65.1307
3.296000	 65.0471
3.314000	 65.211
3.332000	 65.2026
3.350000	 65.0315
3.368000	 65.1075
3.386000	 64.9591
3.404000	 65.0325
3.422000	 64.982
3.440000	 64.911
3.458000	 65.0214
3.476000	 65.1778
3.494000	 65.0522
3.512000	 65.0996
3.530000	 65.2016
3.548000	 65.018
3.566000	 65.1564
3.584000	 65.0923
3.602000	 65.1206
3.620000	 64.9876
3.638000	 65.1527
3.656000	 65.1047
3.674000	 65.1076
3.692000	 64.9514
3.710000	 65.1554
3.728000	 65.1715
3.746000	 65.1664
3.764000	 65.1865
3.782000	 65.018
3.800000	 65.0954
3.818000	 65.055
3.836000	 65.0299
3.854000	 65.1466
3.872000	 65.0572
3.890000	 65.0978
3.908000	 65.1456
3.926000	 65.09
3.944000	 65.0673
3.962000	 65.0041
3.980000	 65.0243
3.998000	 65.0857
4.016000	 65.2508
4.034000	 65.1452
4.052000	 65.0244
4.070000	 65.1239
4.088000	 65.0988
4.106000	 65.1453
4.124000	 64.9839
4.141999	 65.135
4.160000	 65.0547
4.178000	 65.0677
4.196000	 65.0197
4.214000	 65.1149
4.232000	 65.0944
4.250000	 65.1141
4.268000	 65.0183
4.286000	 64.996
4.304000	 64.9473
4.322000	 64.9177
4.340000	 64.9436
4.358000	 64.9603
4.375999	 64.8964
4.394000	 64.8537
4.412000	 64.8406
4.430000	 64.9586
4.448000	 65.0166
4.466000	 65.0171
4.484000	 64.9579
4.502000	 64.9408
4.520000	 64.9221
4.538000	 64.9245
4.556000	 64.9784
4.574000	 64.8786
4.592000	 64.9203
4.609999	 64.9222
4.628000	 64.87
4.646000	 64.675
4.664000	 64.8516
4.682000	 64.8524
4.700000	 64.9661
4.718000	 65.0009
4.736000	 64.9881
4.754000	 64.9132
4.772000	 64.8087
4.790000	 64.7896
4.808000	 64.8718
4.826000	 64.8706
4.843999	 64.9019
4.862000	 64.8803
4.880000	 64.9602
4.898000	 64.9962
4.916000	 64.961
4.934000	 65.0066
4.952000	 64.9027
4.970000	 64.9389
4.988000	 64.9341
5.006000	 64.9005
5.024000	 64.9249
5.042000	 64.9026
5.060000	 64.893
5.077999	 64.9253
5.096000	 64.9788
5.114000	 64.9872
5.132000	 64.9621
5.150000	 64.9015
5.168000	 64.879
5.186000	 64.8443
5.204000	 64.8632
5.222000	 64.9369
5.240000	 64.9796
5.258000	 64.9175
5.276000	 64.9131
5.294000	 64.9771
5.312000	 64.8826
5.330000	 64.8229
5.348000	 64.9554
5.366000	 64.9119
5.384000	 64.8335
5.402000	 64.8622
5.420000	 64.8089
5.438000	 64.7938
5.456000	 64.7797
5.474000	 64.8064
5.492000	 64.8181
5.510000	 64.8164
5.528000	 64.7716
5.546000	 64.8456
5.564000	 64.8664
5.582000	 64.765
5.600000	 64.7925
5.618000	 64.7707
5.636000	 64.8319
5.654000	 64.9158
5.672000	 64.8622
5.690000	 64.8228
5.708000	 64.7505
5.726000	 64.6177
5.744000	 64.6432
5.762000	 64.7615
5.780000	 64.6241
5.798000	 64.5001
5.816000	 64.6056
5.834000	 64.6588
5.852000	 64.6981
5.870000	 64.7529
5.888000	 64.7983
5.906000	 64.7382
5.923999	 64.8199
5.942000	 64.8497
5.960000	 64.7063
5.978000	 64.7654
5.996000	 64.8009
6.014000	 64.8002
6.032000	 64.8982
6.050000	 64.8954
6.068000	 64.7506
6.086000	 64.7146
6.104000	 64.786
6.122000	 64.784
6.140000	 64.7588
6.158000	 64.7714
6.176000	 64.795
6.194000	 64.712
6.212000	 64.6296
6.230000	 64.6808
6.248000	 64.6742
6.266000	 64.6551
6.284000	 64.6541
6.302000	 64.6529
6.320000	 64.753
6.338000	 64.8609
6.356000	 64.8228
6.374000	 64.7351
6.392000	 64.7679
6.410000	 64.9094
6.428000	 64.9353
6.446000	 64.8316
6.464000	 64.7502
6.482000	 64.7743
6.500000	 64.824
6.518000	 64.7618
6.536000	 64.7017
6.554000	 64.7112
6.572000	 64.7248
6.590000	 64.7508
6.608000	 64.8073
6.626000	 64.8568
6.644000	 64.8032
6.662000	 64.7053
6.680000	 64.7551
6.698000	 64.8221
6.716000	 64.7875
6.734000	 64.7423
6.752000	 64.7361
6.770000	 64.7788
6.788000	 64.7738
6.806000	 64.7076
6.824000	 64.6518
6.842000	 64.6511
6.860000	 64.6889
6.878000	 64.651
6.896000	 64.5569
6.914000	 64.538
6.932000	 64.5892
6.950000	 64.6705
6.968000	 64.7364
6.986000	 64.7243
7.004000	 64.6827
7.022000	 64.6788
7.040000	 64.6456
7.058000	 64.5786
7.076000	 64.5823
7.094000	 64.6136
7.112000	 64.5595
7.130000	 64.4815
7.148000	 64.4874
7.166000	 64.5327
7.184000	 64.5382
7.202000	 64.5089
7.220000	 64.4619
7.238000	 64.4356
7.256000	 64.4724
7.274000	 64.5139
7.292000	 64.5174
7.310000	 64.5445
7.328000	 64.5883
7.346000	 64.5758
7.364000	 64.5457
7.382000	 64.554
7.400000	 64.5435
7.418000	 64.493
7.436000	 64.4712
7.454000	 64.4779
7.472000	 64.4767
7.490000	 64.4963
7.508000	 64.5281
7.526000	 64.5172
7.544000	 64.4842
7.562000	 64.4771
7.580000	 64.464
7.598000	 64.4134
7.616000	 64.3694
7.634000	 64.3647
7.652000	 64.3758
7.670000	 64.3823
7.688000	 64.3798
7.706000	 64.3754
7.724000	 64.4085
7.742000	 64.4867
7.760000	 64.5273
7.778000	 64.4674
7.796000	 64.3672
7.814000	 64.315
7.832000	 64.3221
7.850000	 64.3517
7.868000	 64.3697
7.886000	 64.3647
7.904000	 64.355
7.922000	 64.361
7.940000	 64.3772
7.958000	 64.398
7.976000	 64.4277
7.994000	 64.4432
8.012000	 64.4031
8.030000	 64.3152
8.048000	 64.2468
8.065999	 64.2441
8.084000	 64.277
8.102000	 64.2812
8.120000	 64.248
8.138000	 64.2306
8.155999	 64.2611
8.173999	 64.3133
8.192000	 64.361
8.210000	 64.4157
8.228000	 64.4888
8.246000	 64.5501
8.263999	 64.5554
8.282000	 64.4919
8.300000	 64.4023
8.318000	 64.3541
8.336000	 64.3756
8.353999	 64.4234
8.372000	 64.4308
8.390000	 64.3807
8.408000	 64.3114
8.426000	 64.2651
8.443999	 64.2498
8.462000	 64.2491
8.480000	 64.2522
8.498000	 64.2705
8.516000	 64.3179
8.533999	 64.3804
8.552000	 64.4172
8.570000	 64.402
8.588000	 64.3535
8.606000	 64.3148
8.624000	 64.3043
8.641999	 64.3024
8.660000	 64.2906
8.678000	 64.2783
8.696000	 64.2835
8.714000	 64.3094
8.731999	 64.351
8.750000	 64.4014
8.768000	 64.4479
8.786000	 64.4779
8.804000	 64.4951
8.821999	 64.5148
8.840000	 64.535
8.858000	 64.5303
8.876000	 64.4865
8.894000	 64.4233
8.911999	 64.3742
8.930000	 64.3552
8.948000	 64.3606
8.966000	 64.3752
8.984000	 64.385
9.001999	 64.3779
9.020000	 64.3451
9.038000	 64.2889
9.056000	 64.2304
9.074000	 64.2001
9.092000	 64.2218
9.109999	 64.296
9.128000	 64.3975
9.146000	 64.4876
9.164000	 64.535
9.182000	 64.5333
9.199999	 64.5021
9.218000	 64.4679
9.236000	 64.4442
9.254000	 64.4251
9.272000	 64.3987
9.289999	 64.3625
9.308000	 64.3239
9.326000	 64.289
9.344000	 64.2586
9.362000	 64.2317
9.379999	 64.2114
9.398000	 64.2046
9.416000	 64.2185
9.434000	 64.2533
9.452000	 64.2987
9.469999	 64.3334
9.488000	 64.3344
9.506000	 64.2914
9.524000	 64.2152
9.542000	 64.1311
9.560000	 64.0626
9.577999	 64.0227
9.596000	 64.0165
9.614000	 64.0456
9.632000	 64.1067
9.650000	 64.1883
9.667999	 64.2726
9.686000	 64.3423
9.704000	 64.3881
9.722000	 64.4108
9.740000	 64.4171
9.757999	 64.415
9.776000	 64.4104
9.794000	 64.4081
9.812000	 64.4109
9.830000	 64.4175
9.847999	 64.4232
9.866000	 64.4243
9.884000	 64.4212
9.902000	 64.4184
9.920000	 64.4168
9.937999	 64.4106
9.956000	 64.3907
9.974000	 64.3539
9.992000	 64.3075
10.01	64.2657
10.028	64.2403
10.046	64.2329
10.064	64.2379
10.082	64.2505
10.1	64.2725
10.118	64.3094
10.136	64.3627
10.154	64.4247
10.172	64.4812
10.19	64.5183
10.208	64.5298
10.226	64.5179
10.244	64.49
10.262	64.4544
10.28	64.419
10.298	64.3913
10.316	64.3777
10.334	64.3794
10.352	64.3902
10.37	64.3985
10.388	64.3937
10.406	64.3732
10.424	64.3447
10.442	64.3211
10.46	64.3125
10.478	64.3216
10.496	64.3442
10.514	64.3747
10.532	64.4091
10.55	64.4453
10.568	64.4807
10.586	64.5102
10.604	64.5278
10.622	64.5294
10.64	64.5134
10.658	64.4815
10.676	64.4371
10.694	64.385
10.712	64.3319
10.73	64.2862
10.748	64.2562
10.766	64.2474
10.784	64.2596
10.802	64.2874
10.82	64.323
10.838	64.3588
10.856	64.391
10.874	64.4181
10.892	64.4395
10.91	64.4549
10.928	64.4636
10.946	64.4649
10.964	64.4594
10.982	64.4483
11	64.4335
11.018	64.4165
11.036	64.3989
11.054	64.383
11.072	64.3712
11.09	64.3652
11.108	64.3649
11.126	64.3664
11.144	64.3631
11.162	64.3475
11.18	64.3146
11.198	64.2645
11.216	64.2032
11.234	64.1403
11.252	64.0869
11.27	64.0512
11.288	64.0375
11.306	64.0452
11.324	64.0696
11.342	64.103
11.36	64.1377
11.378	64.1663
11.396	64.185
11.414	64.1929
11.432	64.1928
11.45	64.1894
11.468	64.1877
11.486	64.191
11.504	64.1997
11.522	64.2121
11.54	64.225
11.558	64.2363
11.576	64.2452
11.594	64.2538
11.612	64.265
11.63	64.2828
11.648	64.3094
11.666	64.3448
11.684	64.3863
11.702	64.4291
11.72	64.4674
11.738	64.4963
11.756	64.5124
11.774	64.5149
11.792	64.5044
11.81	64.483
11.828	64.453
11.846	64.4172
11.864	64.3787
11.882	64.3415
11.9	64.3102
11.918	64.2889
11.936	64.2803
11.954	64.2843
11.972	64.2974
11.99	64.3134
12.008	64.3261
12.026	64.3308
12.044	64.3259
12.062	64.3141
12.08	64.3007
12.098	64.292
12.116	64.2923
12.134	64.3027
12.152	64.3202
12.17	64.3401
12.188	64.3577
12.206	64.37
12.224	64.3761
12.242	64.3763
12.26	64.3713
12.278	64.3617
12.296	64.3473
12.314	64.3283
12.332	64.3049
12.35	64.2776
12.368	64.2474
12.386	64.216
12.404	64.1856
12.422	64.159
12.44	64.1397
12.458	64.1313
12.476	64.1364
12.494	64.156
12.512	64.1883
12.53	64.2291
12.548	64.2722
12.566	64.3111
12.584	64.3405
12.602	64.3576
12.62	64.3623
12.638	64.357
12.656	64.345
12.674	64.3293
12.692	64.3118
12.71	64.2936
12.728	64.276
12.746	64.2608
12.764	64.2502
12.782	64.2473
12.8	64.2543
12.818	64.2725
12.836	64.3004
12.854	64.3346
12.872	64.3696
12.89	64.3993
12.908	64.418
12.926	64.4219
12.944	64.4097
12.962	64.3832
12.98	64.3462
12.998	64.304
13.016	64.262
13.034	64.2249
13.052	64.1956
13.07	64.1753
13.088	64.1632
13.106	64.1578
13.124	64.1565
13.142	64.1574
13.16	64.1587
13.178	64.1598
13.196	64.161
13.214	64.1626
13.232	64.1654
13.25	64.1696
13.268	64.1747
13.286	64.18
13.304	64.1843
13.322	64.1864
13.34	64.1857
13.358	64.182
13.376	64.1759
13.394	64.1683
13.412	64.1604
13.43	64.1534
13.448	64.1474
13.466	64.1424
13.484	64.1376
13.502	64.1325
13.52	64.1267
13.538	64.1205
13.556	64.1152
13.574	64.1124
13.592	64.1144
13.61	64.1232
13.628	64.1398
13.646	64.1643
13.664	64.1947
13.682	64.2281
13.7	64.2603
13.718	64.2868
13.736	64.3035
13.754	64.3073
13.772	64.2968
13.79	64.2726
13.808	64.2372
13.826	64.1945
13.844	64.1495
13.862	64.1075
13.88	64.0733
13.898	64.0505
13.916	64.0412
13.934	64.0456
13.952	64.0621
13.97	64.0874
13.988	64.1175
14.006	64.1475
14.024	64.1731
14.042	64.1909
14.06	64.1989
14.078	64.1971
14.096	64.1871
14.114	64.1716
14.132	64.154
14.15	64.1375
14.168	64.1248
14.186	64.1172
14.204	64.1145
14.222	64.115
14.24	64.1163
14.258	64.1156
14.276	64.1106
14.294	64.0999
14.312	64.0833
14.33	64.0618
14.348	64.0371
14.366	64.0117
14.384	63.9877
14.402	63.9663
14.42	63.9481
14.438	63.9328
14.456	63.9196
14.474	63.908
14.492	63.8974
14.51	63.8888
14.528	63.8837
14.546	63.8843
14.564	63.8927
14.582	63.9106
14.6	63.9384
14.618	63.9749
14.636	64.0175
14.654	64.0621
14.672	64.1045
14.69	64.1403
14.708	64.1656
14.726	64.1779
14.744	64.1761
14.762	64.1612
14.78	64.1357
14.798	64.1028
14.816	64.0662
14.834	64.0298
14.852	63.9972
14.87	63.9706
14.888	63.9514
14.906	63.9397
14.924	63.9351
14.942	63.9365
14.96	63.9424
14.978	63.9515
14.996	63.9627
15.014	63.9746
15.032	63.9865
15.05	63.9973
15.068	64.0062
15.086	64.0124
15.104	64.0148
15.122	64.012
15.14	64.0028
15.158	63.9862
15.176	63.9615
15.194	63.9284
15.212	63.8881
15.23	63.8425
15.248	63.7947
15.266	63.7483
15.284	63.708
15.302	63.6781
15.32	63.6616
15.338	63.6607
15.356	63.6768
15.374	63.7081
15.392	63.7522
15.41	63.8058
15.428	63.8646
15.446	63.924
15.464	63.981
15.482	64.0331
15.5	64.0787
15.518	64.1178
15.536	64.1512
15.554	64.1799
15.572	64.2057
15.59	64.2297
15.608	64.2521
15.626	64.2724
15.644	64.2895
15.662	64.3015
15.68	64.3068
15.698	64.3042
15.716	64.2926
15.734	64.2725
15.752	64.2453
15.77	64.2128
15.788	64.1781
15.806	64.1437
15.824	64.1119
15.842	64.0844
15.86	64.0617
15.878	64.0436
15.896	64.0293
15.914	64.0172
15.932	64.0055
15.95	63.9931
15.968	63.9786
15.986	63.9618
16.004	63.9431
16.022	63.9234
16.04	63.9042
16.058	63.8874
16.076	63.8744
16.094	63.867
16.112	63.8662
16.13	63.8724
16.148	63.8858
16.166	63.9055
16.184	63.9306
16.202	63.9599
16.22	63.9913
16.238	64.0238
16.256	64.0561
16.274	64.0868
16.292	64.1155
16.31	64.1418
16.328	64.1658
16.346	64.1877
16.364	64.2076
16.382	64.226
16.4	64.2428
16.418	64.258
16.436	64.2711
16.454	64.2815
16.472	64.2888
16.49	64.2918
16.508	64.2897
16.526	64.2817
16.544	64.2668
16.562	64.2445
16.58	64.2144
16.598	64.1765
16.616	64.1315
16.634	64.08
16.652	64.0236
16.67	63.9639
16.688	63.9025
16.706	63.8427
16.724	63.7861
16.742	63.7354
16.76	63.6936
16.778	63.662
16.796	63.6431
16.814	63.6378
16.832	63.6464
16.85	63.669
16.868	63.704
16.886	63.7505
16.904	63.8051
16.922	63.8659
16.94	63.9297
16.958	63.9929
16.976	64.0541
16.994	64.1098
17.012	64.1591
17.03	64.201
17.048	64.2351
17.066	64.262
17.084	64.2825
17.102	64.299
17.12	64.3127
17.138	64.3263
17.156	64.3409
17.174	64.3579
17.192	64.3777
17.21	64.3999
17.228	64.4238
17.246	64.447
17.264	64.4682
17.282	64.4836
17.3	64.4915
17.318	64.4883
17.336	64.4721
17.354	64.4413
17.372	64.3952
17.39	64.3345
17.408	64.2605
17.426	64.1768
17.444	64.0852
17.462	63.9923
17.48	63.9
17.498	63.815
17.516	63.7402
17.534	63.679
17.552	63.6348
17.57	63.6082
17.588	63.6003
17.606	63.6093
17.624	63.6337
17.642	63.6691
17.66	63.714
17.678	63.7617
17.696	63.8109
17.714	63.8567
17.732	63.8978
17.75	63.9317
17.768	63.9593
17.786	63.9806
17.804	63.9991
17.822	64.0163
17.84	64.0375
17.858	64.0655
17.876	64.1043
17.894	64.1571
17.912	64.2256
17.93	64.3109
17.948	64.4127
17.966	64.528
17.984	64.6542
18.002	64.7861
18.02	64.9174
18.038	65.0433
18.056	65.1546
18.074	65.2484
18.092	65.3147
18.11	65.3524
18.128	65.3547
18.146	65.322
18.164	65.2521
18.182	65.1482
18.2	65.0117
18.218	64.85
18.236	64.6656
18.254	64.4706
18.272	64.2672
18.29	64.0696
18.308	63.8796
18.326	63.7103
18.344	63.5626
18.362	63.4458
18.38	63.3597
18.398	63.3087
18.416	63.2908
18.434	63.3061
18.452	63.3502
18.47	63.4214
18.488	63.5126
18.506	63.6217
18.524	63.7409
18.542	63.8687
18.56	63.9975
18.578	64.1264
18.596	64.2505
18.614	64.3697
18.632	64.4812
18.65	64.5852
18.668	64.6821
18.686	64.7718
18.704	64.8554
18.722	64.933
18.74	65.006
18.758	65.0743
18.776	65.1386
18.794	65.1987
18.812	65.2544
18.83	65.305
18.848	65.3495
18.866	65.3874
18.884	65.4173
18.902	65.4392
18.92	65.4521
18.938	65.4566
18.956	65.4523
18.974	65.4402
18.992	65.4212
19.01	65.3966
19.028	65.3683
19.046	65.338
19.064	65.3082
19.082	65.2803
19.1	65.2572
19.118	65.2395
19.136	65.2296
19.154	65.2276
19.172	65.2349
19.19	65.251
19.208	65.2757
19.226	65.3082
19.244	65.3472
19.262	65.3919
19.28	65.4391
19.298	65.4886
19.316	65.5364
19.334	65.5825
19.352	65.6226
19.37	65.6569
19.388	65.6822
19.406	65.6987
19.424	65.7046
19.442	65.6997
19.46	65.6837
19.478	65.656
19.496	65.6178
19.514	65.5689
19.532	65.5111
19.55	65.445
19.568	65.3726
19.586	65.2954
19.604	65.215
19.622	65.1349
19.64	65.0551
19.658	64.9797
19.676	64.9082
19.694	64.8442
19.712	64.7875
19.73	64.7393
19.748	64.6997
19.766	64.6682
19.784	64.6455
19.802	64.6288
19.82	64.6175
19.838	64.6094
19.856	64.6011
19.874	64.5922
19.892	64.5776
19.91	64.558
19.928	64.529
19.946	64.4907
19.964	64.4415
19.982	64.3807
20	64.3095
20.018	64.2274
20.036	64.1367
20.054	64.0399
20.072	63.9377
20.09	63.8362
20.108	63.7343
20.126	63.6393
20.144	63.5508
20.162	63.4737
20.18	63.4101
20.198	63.3608
20.216	63.3291
20.234	63.3141
20.252	63.3166
20.27	63.3368
20.288	63.3721
20.306	63.423
20.324	63.4861
20.342	63.5594
20.36	63.6419
20.378	63.7285
20.396	63.8203
20.414	63.9116
20.432	64.0028
20.45	64.0912
20.468	64.1752
20.486	64.2546
20.504	64.3273
20.522	64.3938
20.54	64.4533
20.558	64.5059
20.576	64.5514
20.594	64.59
20.612	64.6215
20.63	64.6462
20.648	64.6641
20.666	64.6747
20.684	64.6782
20.702	64.6738
20.72	64.6613
20.738	64.6404
20.756	64.61
20.774	64.5703
20.792	64.5212
20.81	64.4624
20.828	64.3943
20.846	64.3172
20.864	64.2311
20.882	64.1382
20.9	64.038
20.918	63.9329
20.936	63.8243
20.954	63.7126
20.972	63.602
20.99	63.4915
21.008	63.3847
21.026	63.283
21.044	63.1867
21.062	63.099
21.08	63.0192
21.098	62.949
21.116	62.889
21.134	62.8389
21.152	62.7994
21.17	62.7702
21.188	62.7504
21.206	62.7402
21.224	62.7387
21.242	62.7446
21.26	62.7584
21.278	62.7781
21.296	62.8035
21.314	62.8342
21.332	62.8687
21.35	62.9076
21.368	62.9496
21.386	62.9945
21.404	63.0423
21.422	63.0924
21.44	63.1449
21.458	63.1991
21.476	63.2547
21.494	63.3116
21.512	63.3687
21.53	63.4266
21.548	63.4838
21.566	63.5394
21.584	63.5938
21.602	63.645
21.62	63.6934
21.638	63.7381
21.656	63.7777
21.674	63.8125
21.692	63.8419
21.71	63.8653
21.728	63.8831
21.746	63.8955
21.764	63.9022
21.782	63.9043
21.8	63.9026
21.818	63.8967
21.836	63.8896
21.854	63.8809
21.872	63.8719
21.89	63.865
21.908	63.8594
21.926	63.8572
21.944	63.86
21.962	63.8671
21.98	63.8799
21.998	63.8987
22.016	63.9232
22.034	63.9531
22.052	63.9889
22.07	64.029
22.088	64.0723
22.106	64.1194
22.124	64.167
22.142	64.2151
22.16	64.263
22.178	64.3074
22.196	64.3492
22.214	64.3869
22.232	64.4183
22.25	64.4444
22.268	64.4641
22.286	64.4768
22.304	64.4827
22.322	64.4828
22.34	64.4764
22.358	64.4644
22.376	64.4491
22.394	64.4294
22.412	64.4072
22.43	64.3853
22.448	64.3624
22.466	64.3406
22.484	64.3219
22.502	64.3052
22.52	64.2917
22.538	64.2824
22.556	64.2766
22.574	64.2741
22.592	64.2755
22.61	64.2799
22.628	64.2855
22.646	64.2934
22.664	64.3017
22.682	64.3076
22.7	64.3124
22.718	64.314
22.736	64.3094
22.754	64.2999
22.772	64.2839
22.79	64.2591
22.808	64.2266
22.826	64.186
22.844	64.1364
22.862	64.0781
22.88	64.0129
22.898	63.9407
22.916	63.8614
22.934	63.7788
22.952	63.6935
22.97	63.605
22.988	63.5185
23.006	63.4342
23.024	63.352
23.042	63.2769
23.06	63.2093
23.078	63.1488
23.096	63.0994
23.114	63.0613
23.132	63.034
23.15	63.0193
23.168	63.0176
23.186	63.028
23.204	63.0499
23.222	63.0841
23.24	63.1292
23.258	63.1823
23.276	63.2445
23.294	63.3143
23.312	63.3875
23.33	63.465
23.348	63.5457
23.366	63.6248
23.384	63.7029
23.402	63.7795
23.42	63.8503
23.438	63.9152
23.456	63.9744
23.474	64.0253
23.492	64.0671
23.51	64.1008
23.528	64.1253
23.546	64.1402
23.564	64.146
23.582	64.1438
23.6	64.1336
23.618	64.1153
23.636	64.0909
23.654	64.0612
23.672	64.0252
23.69	63.9861
23.708	63.9458
23.726	63.9025
23.744	63.8594
23.762	63.819
23.78	63.7793
23.798	63.743
23.816	63.7131
23.834	63.688
23.852	63.669
23.87	63.6587
23.888	63.6563
23.906	63.6622
23.924	63.6785
23.942	63.7052
23.96	63.7421
23.978	63.7899
23.996	63.8493
24.014	63.9198
24.032	64.0011
24.05	64.0935
24.068	64.197
24.086	64.3104
24.104	64.4325
24.122	64.5647
24.14	64.7047
24.158	64.8496
24.176	65.0011
24.194	65.1576
24.212	65.3149
24.23	65.473
24.248	65.6326
24.266	65.7892
24.284	65.9403
24.302	66.0885
24.32	66.2302
24.338	66.362
24.356	66.4861
24.374	66.6008
24.392	66.7031
24.41	66.7931
24.428	66.8714
24.446	66.9369
24.464	66.9885
24.482	67.0269
24.5	67.0532
24.518	67.0681
24.536	67.0702
24.554	67.0617
24.572	67.0457
24.59	67.0204
24.608	66.9869
24.626	66.9495
24.644	66.9099
24.662	66.8657
24.68	66.8206
24.698	66.778
24.716	66.7352
24.734	66.6945
24.752	66.6602
24.77	66.6331
24.788	66.6117
24.806	66.5974
24.824	66.5916
24.842	66.5946
24.86	66.6039
24.878	66.6173
24.896	66.6368
24.914	66.6609
24.932	66.6848
24.95	66.7064
24.968	66.7287
24.986	66.7475
25.004	66.758
25.022	66.763
25.04	66.7612
25.058	66.748
25.076	66.7215
25.094	66.6841
25.112	66.6336
25.13	66.5676
25.148	66.4863
25.166	66.3905
25.184	66.2804
25.202	66.1553
25.22	66.0147
25.238	65.8618
25.256	65.6997
25.274	65.5262
25.292	65.3426
25.31	65.1534
25.328	64.9608
25.346	64.7619
25.364	64.5599
25.382	64.3584
25.4	64.1558
25.418	63.9522
25.436	63.7522
25.454	63.5589
25.472	63.3684
25.49	63.1843
25.508	63.0118
25.526	62.8527
25.544	62.7046
25.562	62.5678
25.58	62.4428
25.598	62.331
25.616	62.2304
25.634	62.1387
25.652	62.0541
25.67	61.9778
25.688	61.9096
25.706	61.8489
25.724	61.7958
25.742	61.7506
25.76	61.7122
25.778	61.6788
25.796	61.6435
25.814	61.6149
25.832	61.6065
25.85	61.6257
25.868	61.6594
25.886	61.7217
25.904	61.8305
25.922	62.0006
25.94	62.2229
25.958	62.4778
25.976	62.7457
25.994	63.0414
26.012	63.3608
26.03	63.6747
26.048	63.9582
26.066	64.2313
26.084	64.4857
26.102	64.7001
26.12	64.8602
26.138	64.9797
26.156	65.0538
26.174	65.0745
26.192	65.0224
26.21	64.8945
26.228	64.7396
26.246	64.6081
26.264	64.4907
26.282	64.3689
26.3	64.2927
26.318	64.3112
26.336	64.4151
26.354	64.5912
26.372	64.8541
26.39	65.2181
26.408	65.6856
26.426	66.2458
26.444	66.8875
26.462	67.6107
26.48	68.4784
26.498	69.4134
26.516	70.3061
26.534	71.0772
26.552	71.8148
26.57	72.4741
26.588	72.98
26.606	73.2723
26.624	73.3815
26.642	73.336
26.66	73.1591
26.678	72.8483
26.696	72.3604
26.714	71.7701
26.732	71.1614
26.75	70.5347
26.768	69.769
26.786	69.0612
26.804	68.6293
26.822	68.5801
26.84	68.7485
26.858	69.2262
26.876	70.125
26.894	71.5366
26.912	73.4192
26.93	75.6874
26.948	78.2569
26.966	81.2778
26.984	85.1015
27.002	88.9616
27.02	92.0197
27.028	92.8159