File: Bakgrunnsmateriale/MATLAB/FTIR/ftir_data/subAa/Mapping_121/BZ1503107-1_t23.asc
PE IR       SPECTRUM    SPECTRUM    ASCII       PEDS        1.60
  -1
BZ2559~1.ASC
17/04/07
15:09:50.00
17/04/07
15:10:17.00
tln
$BZ1503107-1_t0023$<tbV0>[13.0,-7.8,8.0,0.0,27,1,0]
27.028
64

2002,4.07
MIRTGS : RIGHTBACK : INTERNAL 2
MIR : ON : INTERNAL 2
OPTKBR

0.200000
8
8.000000
FILLER
RATIO
SPECTRUM
UNLOCKED 256

DOUBLE
64
COMBINED
1
0
0

0.002000
RATIO

1
0
TRUE
51149
0
LEFT NOT FITTED RIGHT NOT FITTED 0
NONE
NONE
15600
12
4.427000
51148
TRUE
1 0 8 72 0 0 0 0

15798

#HDR
-1
-1
#GR
µM
%T
2.38419e-05
0.0
2.000000
0.002000
12515
8
83.0084
54.1496
#DATA
2.000000	 64.8986
2.018000	 64.3804
2.036000	 64.7704
2.054000	 64.3841
2.072000	 65.0528
2.090000	 64.7789
2.108000	 65.0839
2.126000	 65.674
2.144000	 64.9259
2.162000	 64.7876
2.180000	 64.7793
2.198000	 64.5103
2.216000	 64.7407
2.234000	 64.4195
2.252000	 63.7199
2.270000	 65.8064
2.288000	 64.6836
2.306000	 64.6289
2.324000	 64.829
2.342000	 64.8251
2.360000	 64.8622
2.378000	 65.0738
2.396000	 65.4948
2.414000	 65.099
2.432000	 65.2821
2.450000	 65.0646
2.468000	 65.1919
2.486000	 65.0401
2.504000	 65.1716
2.522000	 65.0833
2.540000	 65.1189
2.558000	 65.0419
2.576000	 65.0406
2.594000	 65.0134
2.612000	 65.212
2.630000	 65.4993
2.648000	 65.1457
2.666000	 65.036
2.684000	 64.9715
2.702000	 65.3736
2.720000	 65.2242
2.738000	 65.4877
2.756000	 65.2276
2.774000	 65.3567
2.792000	 65.209
2.810000	 64.9525
2.828000	 65.1014
2.846000	 65.2737
2.864000	 65.138
2.882000	 65.19
2.900000	 65.1917
2.918000	 65.3181
2.936000	 65.3053
2.954000	 65.2069
2.972000	 65.0931
2.990000	 65.1865
3.008000	 65.1132
3.026000	 65.0275
3.044000	 65.2535
3.062000	 65.14
3.080000	 65.1913
3.098000	 65.2421
3.116000	 65.2109
3.134000	 65.0768
3.152000	 65.2554
3.170000	 65.0379
3.188000	 65.0057
3.206000	 65.0183
3.224000	 65.1944
3.242000	 64.9746
3.260000	 65.1492
3.278000	 65.1579
3.296000	 65.0899
3.314000	 65.0043
3.332000	 65.0943
3.350000	 65.2261
3.368000	 65.0636
3.386000	 65.0165
3.404000	 64.9213
3.422000	 64.9006
3.440000	 64.9162
3.458000	 65.0331
3.476000	 64.8618
3.494000	 65.118
3.512000	 65.1372
3.530000	 65.0508
3.548000	 64.9584
3.566000	 65.1619
3.584000	 65.1889
3.602000	 65.0842
3.620000	 65.1791
3.638000	 65.2087
3.656000	 64.9802
3.674000	 65.1419
3.692000	 65.062
3.710000	 65.0895
3.728000	 65.0376
3.746000	 64.9318
3.764000	 65.0918
3.782000	 64.9486
3.800000	 65.0515
3.818000	 64.9261
3.836000	 64.8103
3.854000	 65.1144
3.872000	 64.9298
3.890000	 64.9373
3.908000	 65.0649
3.926000	 64.8339
3.944000	 65.0395
3.962000	 65.117
3.980000	 65.0285
3.998000	 64.9772
4.016000	 64.9285
4.034000	 64.891
4.052000	 64.875
4.070000	 64.7285
4.088000	 64.8812
4.106000	 65.0027
4.124000	 64.8764
4.141999	 65.0102
4.160000	 64.896
4.178000	 64.9942
4.196000	 65.0385
4.214000	 64.9193
4.232000	 64.9547
4.250000	 65.0892
4.268000	 65.0554
4.286000	 65.0489
4.304000	 64.9406
4.322000	 64.8976
4.340000	 65.0056
4.358000	 64.9149
4.375999	 64.9941
4.394000	 64.9546
4.412000	 64.9068
4.430000	 64.9247
4.448000	 64.9761
4.466000	 64.8232
4.484000	 64.8943
4.502000	 64.9459
4.520000	 64.8219
4.538000	 64.9025
4.556000	 64.9432
4.574000	 64.9427
4.592000	 64.8207
4.609999	 64.7963
4.628000	 64.827
4.646000	 64.7791
4.664000	 64.742
4.682000	 64.7167
4.700000	 64.8386
4.718000	 64.9342
4.736000	 64.9326
4.754000	 64.8628
4.772000	 64.8431
4.790000	 64.9401
4.808000	 64.7673
4.826000	 65.0393
4.843999	 64.8339
4.862000	 64.806
4.880000	 64.8422
4.898000	 64.8427
4.916000	 64.852
4.934000	 64.8083
4.952000	 64.8626
4.970000	 64.8012
4.988000	 64.8456
5.006000	 64.8997
5.024000	 64.7832
5.042000	 64.7827
5.060000	 64.6853
5.077999	 64.7503
5.096000	 64.7674
5.114000	 64.7217
5.132000	 64.7846
5.150000	 64.784
5.168000	 64.763
5.186000	 64.7363
5.204000	 64.7288
5.222000	 64.7221
5.240000	 64.746
5.258000	 64.758
5.276000	 64.8145
5.294000	 64.7871
5.312000	 64.7111
5.330000	 64.6553
5.348000	 64.7316
5.366000	 64.6745
5.384000	 64.5938
5.402000	 64.731
5.420000	 64.6756
5.438000	 64.6763
5.456000	 64.7272
5.474000	 64.6991
5.492000	 64.7477
5.510000	 64.7415
5.528000	 64.5973
5.546000	 64.5894
5.564000	 64.6346
5.582000	 64.6572
5.600000	 64.6509
5.618000	 64.5703
5.636000	 64.6161
5.654000	 64.5809
5.672000	 64.5352
5.690000	 64.5127
5.708000	 64.4906
5.726000	 64.4365
5.744000	 64.3876
5.762000	 64.2816
5.780000	 64.3128
5.798000	 64.4188
5.816000	 64.4399
5.834000	 64.4422
5.852000	 64.534
5.870000	 64.6845
5.888000	 64.69
5.906000	 64.6685
5.923999	 64.665
5.942000	 64.5561
5.960000	 64.5032
5.978000	 64.5727
5.996000	 64.6339
6.014000	 64.5768
6.032000	 64.5347
6.050000	 64.5163
6.068000	 64.4797
6.086000	 64.4536
6.104000	 64.5684
6.122000	 64.6207
6.140000	 64.5342
6.158000	 64.4385
6.176000	 64.4046
6.194000	 64.4252
6.212000	 64.4364
6.230000	 64.4046
6.248000	 64.3862
6.266000	 64.4168
6.284000	 64.4783
6.302000	 64.5066
6.320000	 64.4766
6.338000	 64.4103
6.356000	 64.3978
6.374000	 64.4661
6.392000	 64.5188
6.410000	 64.4822
6.428000	 64.4684
6.446000	 64.4712
6.464000	 64.4453
6.482000	 64.4345
6.500000	 64.422
6.518000	 64.43
6.536000	 64.475
6.554000	 64.4469
6.572000	 64.4282
6.590000	 64.5004
6.608000	 64.5303
6.626000	 64.513
6.644000	 64.5466
6.662000	 64.5832
6.680000	 64.5988
6.698000	 64.6078
6.716000	 64.5006
6.734000	 64.4185
6.752000	 64.4881
6.770000	 64.5289
6.788000	 64.4291
6.806000	 64.3214
6.824000	 64.2979
6.842000	 64.3764
6.860000	 64.5446
6.878000	 64.6222
6.896000	 64.5464
6.914000	 64.4961
6.932000	 64.5057
6.950000	 64.5223
6.968000	 64.5016
6.986000	 64.4414
7.004000	 64.427
7.022000	 64.4386
7.040000	 64.4176
7.058000	 64.3952
7.076000	 64.3638
7.094000	 64.3151
7.112000	 64.2947
7.130000	 64.3027
7.148000	 64.3173
7.166000	 64.3457
7.184000	 64.3695
7.202000	 64.3563
7.220000	 64.3335
7.238000	 64.3429
7.256000	 64.3729
7.274000	 64.4032
7.292000	 64.4074
7.310000	 64.3574
7.328000	 64.2866
7.346000	 64.2568
7.364000	 64.2659
7.382000	 64.2632
7.400000	 64.2274
7.418000	 64.1948
7.436000	 64.2216
7.454000	 64.3295
7.472000	 64.4461
7.490000	 64.4534
7.508000	 64.3545
7.526000	 64.2671
7.544000	 64.2403
7.562000	 64.231
7.580000	 64.225
7.598000	 64.2499
7.616000	 64.3012
7.634000	 64.3281
7.652000	 64.2958
7.670000	 64.2374
7.688000	 64.2108
7.706000	 64.2193
7.724000	 64.2208
7.742000	 64.1929
7.760000	 64.1467
7.778000	 64.1016
7.796000	 64.0817
7.814000	 64.1063
7.832000	 64.1528
7.850000	 64.169
7.868000	 64.1373
7.886000	 64.087
7.904000	 64.054
7.922000	 64.0518
7.940000	 64.0722
7.958000	 64.1054
7.976000	 64.1561
7.994000	 64.2178
8.012000	 64.2509
8.030000	 64.2318
8.048000	 64.1895
8.065999	 64.1635
8.084000	 64.1634
8.102000	 64.1821
8.120000	 64.2087
8.138000	 64.2236
8.155999	 64.2158
8.173999	 64.1935
8.192000	 64.1725
8.210000	 64.1709
8.228000	 64.1948
8.246000	 64.2192
8.263999	 64.208
8.282000	 64.1624
8.300000	 64.1216
8.318000	 64.1113
8.336000	 64.1253
8.353999	 64.1494
8.372000	 64.177
8.390000	 64.2066
8.408000	 64.2286
8.426000	 64.2264
8.443999	 64.1947
8.462000	 64.1505
8.480000	 64.1189
8.498000	 64.1093
8.516000	 64.105
8.533999	 64.0853
8.552000	 64.0512
8.570000	 64.0253
8.588000	 64.0227
8.606000	 64.0297
8.624000	 64.0233
8.641999	 64.005
8.660000	 63.9982
8.678000	 64.0175
8.696000	 64.0566
8.714000	 64.1025
8.731999	 64.1444
8.750000	 64.1654
8.768000	 64.1465
8.786000	 64.0939
8.804000	 64.0382
8.821999	 64.0038
8.840000	 63.9911
8.858000	 63.9862
8.876000	 63.9795
8.894000	 63.9773
8.911999	 63.9931
8.930000	 64.0216
8.948000	 64.0348
8.966000	 64.0145
8.984000	 63.9828
9.001999	 63.9885
9.020000	 64.0613
9.038000	 64.178
9.056000	 64.2696
9.074000	 64.2757
9.092000	 64.1921
9.109999	 64.0671
9.128000	 63.9602
9.146000	 63.9079
9.164000	 63.9148
9.182000	 63.9584
9.199999	 64.0032
9.218000	 64.0268
9.236000	 64.0347
9.254000	 64.0526
9.272000	 64.0959
9.289999	 64.1513
9.308000	 64.192
9.326000	 64.2039
9.344000	 64.1928
9.362000	 64.1699
9.379999	 64.1397
9.398000	 64.1043
9.416000	 64.07
9.434000	 64.0496
9.452000	 64.0531
9.469999	 64.0768
9.488000	 64.1013
9.506000	 64.1007
9.524000	 64.0607
9.542000	 63.9925
9.560000	 63.9302
9.577999	 63.908
9.596000	 63.9355
9.614000	 63.9924
9.632000	 64.0471
9.650000	 64.0783
9.667999	 64.0844
9.686000	 64.0769
9.704000	 64.0696
9.722000	 64.0707
9.740000	 64.0816
9.757999	 64.0981
9.776000	 64.1134
9.794000	 64.1229
9.812000	 64.1275
9.830000	 64.1296
9.847999	 64.1266
9.866000	 64.1111
9.884000	 64.0784
9.902000	 64.0355
9.920000	 64.0016
9.937999	 63.9972
9.956000	 64.0301
9.974000	 64.0908
9.992000	 64.1598
10.01	64.2187
10.028	64.256
10.046	64.2667
10.064	64.249
10.082	64.2045
10.1	64.139
10.118	64.0636
10.136	63.9933
10.154	63.9416
10.172	63.9158
10.19	63.9144
10.208	63.9296
10.226	63.9534
10.244	63.9808
10.262	64.011
10.28	64.043
10.298	64.0723
10.316	64.0901
10.334	64.0897
10.352	64.0734
10.37	64.0526
10.388	64.0419
10.406	64.0509
10.424	64.0811
10.442	64.127
10.46	64.1809
10.478	64.2344
10.496	64.28
10.514	64.3099
10.532	64.3171
10.55	64.2974
10.568	64.2516
10.586	64.1878
10.604	64.1188
10.622	64.0607
10.64	64.0283
10.658	64.0308
10.676	64.0679
10.694	64.1287
10.712	64.194
10.73	64.2458
10.748	64.2727
10.766	64.2753
10.784	64.2638
10.802	64.2547
10.82	64.2616
10.838	64.2904
10.856	64.3357
10.874	64.3819
10.892	64.4104
10.91	64.4056
10.928	64.364
10.946	64.2936
10.964	64.2111
10.982	64.1363
11	64.0812
11.018	64.0495
11.036	64.036
11.054	64.032
11.072	64.0304
11.09	64.0287
11.108	64.0282
11.126	64.0315
11.144	64.0396
11.162	64.0505
11.18	64.0601
11.198	64.0643
11.216	64.0623
11.234	64.0577
11.252	64.0595
11.27	64.0775
11.288	64.1199
11.306	64.1881
11.324	64.2735
11.342	64.3588
11.36	64.4233
11.378	64.4482
11.396	64.4252
11.414	64.3599
11.432	64.2693
11.45	64.1761
11.468	64.1021
11.486	64.0596
11.504	64.0497
11.522	64.0635
11.54	64.0879
11.558	64.1107
11.576	64.1257
11.594	64.1339
11.612	64.1403
11.63	64.1508
11.648	64.1673
11.666	64.1864
11.684	64.1991
11.702	64.1954
11.72	64.1685
11.738	64.1189
11.756	64.0556
11.774	63.9929
11.792	63.9472
11.81	63.9296
11.828	63.9433
11.846	63.9832
11.864	64.039
11.882	64.0999
11.9	64.157
11.918	64.2062
11.936	64.2468
11.954	64.2802
11.972	64.3071
11.99	64.3259
12.008	64.3339
12.026	64.3294
12.044	64.3136
12.062	64.2913
12.08	64.2698
12.098	64.2567
12.116	64.2561
12.134	64.2664
12.152	64.2807
12.17	64.2901
12.188	64.2873
12.206	64.2694
12.224	64.2387
12.242	64.2014
12.26	64.164
12.278	64.131
12.296	64.1033
12.314	64.078
12.332	64.0506
12.35	64.0178
12.368	63.9792
12.386	63.9385
12.404	63.9035
12.422	63.8842
12.44	63.8894
12.458	63.9246
12.476	63.9895
12.494	64.0774
12.512	64.1757
12.53	64.2688
12.548	64.3417
12.566	64.3834
12.584	64.3883
12.602	64.3584
12.62	64.3017
12.638	64.231
12.656	64.1599
12.674	64.0999
12.692	64.0579
12.71	64.0351
12.728	64.0279
12.746	64.0294
12.764	64.0333
12.782	64.0363
12.8	64.0387
12.818	64.0442
12.836	64.057
12.854	64.0799
12.872	64.112
12.89	64.1488
12.908	64.1828
12.926	64.2061
12.944	64.2131
12.962	64.2019
12.98	64.1747
12.998	64.1371
13.016	64.0961
13.034	64.0589
13.052	64.0299
13.07	64.0106
13.088	64.0003
13.106	63.9958
13.124	63.9939
13.142	63.9905
13.16	63.9821
13.178	63.9652
13.196	63.9373
13.214	63.8971
13.232	63.8445
13.25	63.7825
13.268	63.7164
13.286	63.6535
13.304	63.6022
13.322	63.5703
13.34	63.5633
13.358	63.5836
13.376	63.629
13.394	63.6934
13.412	63.7679
13.43	63.8423
13.448	63.9069
13.466	63.9541
13.484	63.9792
13.502	63.9809
13.52	63.9608
13.538	63.9227
13.556	63.8719
13.574	63.8138
13.592	63.7537
13.61	63.6965
13.628	63.6463
13.646	63.6058
13.664	63.5767
13.682	63.5603
13.7	63.5577
13.718	63.5694
13.736	63.5959
13.754	63.6372
13.772	63.6922
13.79	63.7586
13.808	63.8321
13.826	63.907
13.844	63.9762
13.862	64.0321
13.88	64.0682
13.898	64.0795
13.916	64.0641
13.934	64.0233
13.952	63.9622
13.97	63.888
13.988	63.8093
14.006	63.7348
14.024	63.672
14.042	63.6259
14.06	63.599
14.078	63.5916
14.096	63.6025
14.114	63.6301
14.132	63.6724
14.15	63.7272
14.168	63.7919
14.186	63.8635
14.204	63.938
14.222	64.0102
14.24	64.0743
14.258	64.124
14.276	64.1543
14.294	64.1618
14.312	64.1456
14.33	64.1074
14.348	64.0511
14.366	63.9832
14.384	63.9102
14.402	63.8379
14.42	63.7695
14.438	63.7062
14.456	63.6467
14.474	63.5883
14.492	63.5272
14.51	63.4606
14.528	63.3878
14.546	63.3103
14.564	63.2318
14.582	63.1572
14.6	63.0928
14.618	63.0444
14.636	63.0169
14.654	63.0123
14.672	63.0301
14.69	63.0674
14.708	63.1197
14.726	63.1806
14.744	63.243
14.762	63.3006
14.78	63.349
14.798	63.3855
14.816	63.4093
14.834	63.4217
14.852	63.4256
14.87	63.4245
14.888	63.4218
14.906	63.4203
14.924	63.4225
14.942	63.429
14.96	63.44
14.978	63.4549
14.996	63.4737
15.014	63.4964
15.032	63.524
15.05	63.5583
15.068	63.6019
15.086	63.6572
15.104	63.7268
15.122	63.8127
15.14	63.9142
15.158	64.0286
15.176	64.1519
15.194	64.2779
15.212	64.3985
15.23	64.5064
15.248	64.5952
15.266	64.6596
15.284	64.6964
15.302	64.706
15.32	64.691
15.338	64.6554
15.356	64.6052
15.374	64.5475
15.392	64.4875
15.41	64.4298
15.428	64.379
15.446	64.337
15.464	64.304
15.482	64.279
15.5	64.2599
15.518	64.244
15.536	64.2287
15.554	64.2121
15.572	64.1923
15.59	64.1685
15.608	64.1412
15.626	64.1111
15.644	64.0799
15.662	64.0501
15.68	64.0238
15.698	64.0033
15.716	63.9913
15.734	63.9899
15.752	64.0002
15.77	64.0232
15.788	64.0595
15.806	64.1086
15.824	64.1698
15.842	64.242
15.86	64.3222
15.878	64.4075
15.896	64.4952
15.914	64.58
15.932	64.6574
15.95	64.7232
15.968	64.7721
15.986	64.7991
16.004	64.801
16.022	64.7748
16.04	64.7184
16.058	64.6321
16.076	64.5167
16.094	64.3756
16.112	64.2142
16.13	64.0378
16.148	63.8536
16.166	63.6715
16.184	63.4982
16.202	63.3414
16.22	63.2095
16.238	63.1067
16.256	63.0369
16.274	63.0018
16.292	62.9996
16.31	63.0287
16.328	63.0828
16.346	63.1552
16.364	63.2402
16.382	63.3276
16.4	63.4105
16.418	63.4835
16.436	63.5395
16.454	63.5763
16.472	63.5924
16.49	63.5883
16.508	63.5673
16.526	63.5321
16.544	63.4893
16.562	63.4437
16.58	63.3991
16.598	63.3613
16.616	63.3314
16.634	63.3107
16.652	63.2987
16.67	63.2931
16.688	63.2917
16.706	63.2898
16.724	63.285
16.742	63.274
16.76	63.2548
16.778	63.2272
16.796	63.191
16.814	63.1487
16.832	63.1018
16.85	63.0542
16.868	63.0087
16.886	62.9673
16.904	62.9334
16.922	62.9069
16.94	62.8884
16.958	62.8764
16.976	62.8698
16.994	62.8659
17.012	62.8626
17.03	62.8581
17.048	62.8497
17.066	62.8374
17.084	62.8204
17.102	62.8007
17.12	62.7791
17.138	62.759
17.156	62.7428
17.174	62.7328
17.192	62.7324
17.21	62.7424
17.228	62.7646
17.246	62.7986
17.264	62.8447
17.282	62.9011
17.3	62.9667
17.318	63.039
17.336	63.1157
17.354	63.195
17.372	63.2742
17.39	63.3526
17.408	63.4285
17.426	63.5014
17.444	63.5708
17.462	63.6365
17.48	63.6985
17.498	63.7568
17.516	63.8116
17.534	63.8626
17.552	63.9098
17.57	63.9529
17.588	63.9912
17.606	64.0243
17.624	64.0518
17.642	64.0729
17.66	64.0874
17.678	64.0952
17.696	64.0967
17.714	64.0923
17.732	64.0826
17.75	64.0686
17.768	64.0516
17.786	64.0321
17.804	64.0123
17.822	63.9926
17.84	63.9746
17.858	63.9588
17.876	63.9463
17.894	63.9375
17.912	63.9325
17.93	63.9317
17.948	63.9349
17.966	63.9415
17.984	63.9511
18.002	63.9628
18.02	63.9754
18.038	63.9882
18.056	63.9995
18.074	64.0086
18.092	64.0139
18.11	64.0151
18.128	64.0107
18.146	64.0006
18.164	63.9842
18.182	63.9615
18.2	63.9323
18.218	63.897
18.236	63.8556
18.254	63.8091
18.272	63.7574
18.29	63.7018
18.308	63.6424
18.326	63.5807
18.344	63.5173
18.362	63.4539
18.38	63.3915
18.398	63.3322
18.416	63.2771
18.434	63.2281
18.452	63.1866
18.47	63.1539
18.488	63.1311
18.506	63.119
18.524	63.1179
18.542	63.1279
18.56	63.1475
18.578	63.1768
18.596	63.2129
18.614	63.2555
18.632	63.3007
18.65	63.3483
18.668	63.3942
18.686	63.4383
18.704	63.4772
18.722	63.5108
18.74	63.5371
18.758	63.5564
18.776	63.5682
18.794	63.5731
18.812	63.5717
18.83	63.5651
18.848	63.5548
18.866	63.5417
18.884	63.5277
18.902	63.5133
18.92	63.5002
18.938	63.4884
18.956	63.479
18.974	63.4716
18.992	63.4665
19.01	63.4631
19.028	63.461
19.046	63.4595
19.064	63.4579
19.082	63.4558
19.1	63.4524
19.118	63.4478
19.136	63.4417
19.154	63.4345
19.172	63.4263
19.19	63.4176
19.208	63.4096
19.226	63.4025
19.244	63.3977
19.262	63.3953
19.28	63.3968
19.298	63.402
19.316	63.4117
19.334	63.426
19.352	63.4447
19.37	63.4679
19.388	63.4947
19.406	63.5252
19.424	63.5578
19.442	63.5926
19.46	63.6278
19.478	63.6631
19.496	63.697
19.514	63.729
19.532	63.7583
19.55	63.7843
19.568	63.8068
19.586	63.8253
19.604	63.8402
19.622	63.8515
19.64	63.8594
19.658	63.8647
19.676	63.8675
19.694	63.8691
19.712	63.8693
19.73	63.8694
19.748	63.8696
19.766	63.8705
19.784	63.8727
19.802	63.8762
19.82	63.8813
19.838	63.888
19.856	63.896
19.874	63.9053
19.892	63.9154
19.91	63.9264
19.928	63.9375
19.946	63.949
19.964	63.9603
19.982	63.9712
20	63.9815
20.018	63.991
20.036	63.9997
20.054	64.0074
20.072	64.0141
20.09	64.0198
20.108	64.0243
20.126	64.0276
20.144	64.0297
20.162	64.0304
20.18	64.0295
20.198	64.0269
20.216	64.0223
20.234	64.0157
20.252	64.0067
20.27	63.9953
20.288	63.9815
20.306	63.965
20.324	63.9462
20.342	63.9251
20.36	63.9022
20.378	63.8781
20.396	63.8529
20.414	63.8283
20.432	63.8038
20.45	63.7813
20.468	63.7614
20.486	63.7445
20.504	63.7324
20.522	63.7245
20.54	63.7225
20.558	63.7262
20.576	63.7358
20.594	63.7516
20.612	63.773
20.63	63.7995
20.648	63.8312
20.666	63.8657
20.684	63.9036
20.702	63.9426
20.72	63.9815
20.738	64.0199
20.756	64.0547
20.774	64.0865
20.792	64.1129
20.81	64.1333
20.828	64.1472
20.846	64.153
20.864	64.1512
20.882	64.1411
20.9	64.1225
20.918	64.0962
20.936	64.0622
20.954	64.0209
20.972	63.974
20.99	63.9211
21.008	63.8642
21.026	63.804
21.044	63.741
21.062	63.6774
21.08	63.6125
21.098	63.5485
21.116	63.4858
21.134	63.4246
21.152	63.3664
21.17	63.3109
21.188	63.259
21.206	63.2109
21.224	63.1667
21.242	63.1267
21.26	63.0909
21.278	63.0594
21.296	63.0321
21.314	63.009
21.332	62.9901
21.35	62.9752
21.368	62.9641
21.386	62.9567
21.404	62.953
21.422	62.9524
21.44	62.9553
21.458	62.9608
21.476	62.9689
21.494	62.9793
21.512	62.9912
21.53	63.005
21.548	63.0197
21.566	63.0347
21.584	63.0502
21.602	63.0652
21.62	63.0799
21.638	63.0937
21.656	63.1059
21.674	63.1167
21.692	63.1258
21.71	63.1331
21.728	63.1386
21.746	63.1424
21.764	63.1445
21.782	63.1453
21.8	63.1454
21.818	63.1446
21.836	63.1439
21.854	63.1431
21.872	63.1427
21.89	63.1439
21.908	63.1463
21.926	63.1509
21.944	63.1584
21.962	63.1684
21.98	63.182
21.998	63.1994
22.016	63.2204
22.034	63.2455
22.052	63.2746
22.07	63.3074
22.088	63.344
22.106	63.3842
22.124	63.4274
22.142	63.4734
22.16	63.522
22.178	63.5721
22.196	63.624
22.214	63.6769
22.232	63.7296
22.25	63.7829
22.268	63.8355
22.286	63.8867
22.304	63.9369
22.322	63.9849
22.34	64.0306
22.358	64.0741
22.376	64.1143
22.394	64.1516
22.412	64.1856
22.43	64.2162
22.448	64.2434
22.466	64.267
22.484	64.2868
22.502	64.3029
22.52	64.3151
22.538	64.3232
22.556	64.3275
22.574	64.3279
22.592	64.3243
22.61	64.317
22.628	64.3062
22.646	64.2917
22.664	64.274
22.682	64.2537
22.7	64.2303
22.718	64.2046
22.736	64.1774
22.754	64.148
22.772	64.1178
22.79	64.0876
22.808	64.057
22.826	64.027
22.844	63.9986
22.862	63.9711
22.88	63.9461
22.898	63.9242
22.916	63.9051
22.934	63.8892
22.952	63.8771
22.97	63.8685
22.988	63.8628
23.006	63.8606
23.024	63.8615
23.042	63.8635
23.06	63.8671
23.078	63.8719
23.096	63.8755
23.114	63.8783
23.132	63.8799
23.15	63.8773
23.168	63.8711
23.186	63.8607
23.204	63.8434
23.222	63.8193
23.24	63.7885
23.258	63.7492
23.276	63.7013
23.294	63.6451
23.312	63.5802
23.33	63.5061
23.348	63.4236
23.366	63.3344
23.384	63.2376
23.402	63.1343
23.42	63.0279
23.438	62.9177
23.456	62.8044
23.474	62.6927
23.492	62.5826
23.51	62.4739
23.528	62.3713
23.546	62.2758
23.564	62.1863
23.582	62.1069
23.6	62.039
23.618	61.9813
23.636	61.9359
23.654	61.9042
23.672	61.8851
23.69	61.8791
23.708	61.8867
23.726	61.9078
23.744	61.9412
23.762	61.9861
23.78	62.0436
23.798	62.1114
23.816	62.1869
23.834	62.2722
23.852	62.3647
23.87	62.461
23.888	62.5625
23.906	62.668
23.924	62.7737
23.942	62.8799
23.96	62.9867
23.978	63.091
23.996	63.1915
24.014	63.2894
24.032	63.3835
24.05	63.4728
24.068	63.5577
24.086	63.6385
24.104	63.7151
24.122	63.7874
24.14	63.8556
24.158	63.92
24.176	63.9807
24.194	64.0375
24.212	64.09
24.23	64.1384
24.248	64.1826
24.266	64.2222
24.284	64.2573
24.302	64.2883
24.32	64.3137
24.338	64.3322
24.356	64.3452
24.374	64.3511
24.392	64.3474
24.41	64.335
24.428	64.3136
24.446	64.2801
24.464	64.2338
24.482	64.1762
24.5	64.1041
24.518	64.0149
24.536	63.9101
24.554	63.7891
24.572	63.6507
24.59	63.4941
24.608	63.3204
24.626	63.1317
24.644	62.9278
24.662	62.7074
24.68	62.4758
24.698	62.2376
24.716	61.9881
24.734	61.7323
24.752	61.4784
24.77	61.225
24.788	60.971
24.806	60.7262
24.824	60.4969
24.842	60.2762
24.86	60.0716
24.878	59.8926
24.896	59.7364
24.914	59.603
24.932	59.4991
24.95	59.4286
24.968	59.3878
24.986	59.3786
25.004	59.4038
25.022	59.4646
25.04	59.5583
25.058	59.6812
25.076	59.8334
25.094	60.0177
25.112	60.2253
25.13	60.448
25.148	60.6932
25.166	60.9552
25.184	61.2211
25.202	61.4863
25.22	61.7592
25.238	62.027
25.256	62.2763
25.274	62.514
25.292	62.7379
25.31	62.9361
25.328	63.1015
25.346	63.242
25.364	63.3517
25.382	63.4235
25.4	63.4568
25.418	63.4543
25.436	63.4165
25.454	63.3427
25.472	63.2298
25.49	63.0843
25.508	62.9138
25.526	62.716
25.544	62.4878
25.562	62.2451
25.58	62.0027
25.598	61.7474
25.616	61.4873
25.634	61.2428
25.652	61.025
25.67	60.8171
25.688	60.6366
25.706	60.5044
25.724	60.4204
25.742	60.3766
25.76	60.3879
25.778	60.4683
25.796	60.6112
25.814	60.8163
25.832	61.0897
25.85	61.437
25.868	61.8574
25.886	62.3443
25.904	62.8907
25.922	63.5004
25.94	64.1774
25.958	64.9016
25.976	65.6532
25.994	66.4471
26.012	67.2791
26.03	68.1193
26.048	68.943
26.066	69.7751
26.084	70.601
26.102	71.3901
26.12	72.1241
26.138	72.8285
26.156	73.4833
26.174	74.0623
26.192	74.5562
26.21	74.9824
26.228	75.3272
26.246	75.5754
26.264	75.7247
26.282	75.7827
26.3	75.7473
26.318	75.6161
26.336	75.3853
26.354	75.0595
26.372	74.6468
26.39	74.1542
26.408	73.5697
26.426	72.9025
26.444	72.1712
26.462	71.3906
26.48	70.5415
26.498	69.6371
26.516	68.7008
26.534	67.7481
26.552	66.7556
26.57	65.7413
26.588	64.7315
26.606	63.7417
26.624	62.7477
26.642	61.7676
26.66	60.8255
26.678	59.9337
26.696	59.0713
26.714	58.2539
26.732	57.5008
26.75	56.8205
26.768	56.1959
26.786	55.6407
26.804	55.1708
26.822	54.795
26.84	54.5021
26.858	54.2947
26.876	54.1766
26.894	54.1527
26.912	54.2229
26.93	54.3782
26.948	54.6091
26.966	54.9426
26.984	55.433
27.002	55.9558
27.02	56.3749
27.028	56.4813