File: Bakgrunnsmateriale/MATLAB/FTIR/ftir_data/subAa/Mapping_121/BZ1503107-1_t15.asc
PE IR       SPECTRUM    SPECTRUM    ASCII       PEDS        1.60
  -1
BZ2D5B~1.ASC
17/04/07
14:25:45.00
17/04/07
14:26:11.00
tln
$BZ1503107-1_t0015$<tbV0>[5.2,-10.4,8.0,0.0,27,1,0]
27.028
64

2002,4.07
MIRTGS : RIGHTBACK : INTERNAL 2
MIR : ON : INTERNAL 2
OPTKBR

0.200000
8
8.000000
FILLER
RATIO
SPECTRUM
UNLOCKED 256

DOUBLE
64
COMBINED
1
0
0

0.002000
RATIO

1
0
TRUE
51149
0
LEFT NOT FITTED RIGHT NOT FITTED 0
NONE
NONE
15600
12
4.427000
51148
TRUE
1 0 8 72 0 0 0 0

15798

#HDR
-1
-1
#GR
µM
%T
2.38419e-05
0.0
2.000000
0.002000
12515
8
88.5317
57.811
#DATA
2.000000	 64.6437
2.018000	 63.3265
2.036000	 64.5878
2.054000	 65.0166
2.072000	 64.9709
2.090000	 65.5946
2.108000	 64.967
2.126000	 64.3248
2.144000	 64.7938
2.162000	 64.7448
2.180000	 64.6927
2.198000	 63.7688
2.216000	 63.5332
2.234000	 67.4887
2.252000	 74.9385
2.270000	 64.4138
2.288000	 64.2245
2.306000	 64.43
2.324000	 64.7641
2.342000	 64.6298
2.360000	 65.0667
2.378000	 65.0729
2.396000	 65.5585
2.414000	 64.968
2.432000	 65.2623
2.450000	 65.2294
2.468000	 65.4886
2.486000	 65.3203
2.504000	 64.9562
2.522000	 65.2938
2.540000	 65.2588
2.558000	 65.0585
2.576000	 65.357
2.594000	 65.0551
2.612000	 65.2744
2.630000	 65.3705
2.648000	 65.1406
2.666000	 65.5923
2.684000	 65.2149
2.702000	 65.2904
2.720000	 65.5502
2.738000	 65.2681
2.756000	 65.3645
2.774000	 65.3295
2.792000	 65.3291
2.810000	 65.1323
2.828000	 65.2166
2.846000	 65.1236
2.864000	 65.0381
2.882000	 64.906
2.900000	 65.1471
2.918000	 65.1839
2.936000	 65.1306
2.954000	 65.1424
2.972000	 65.1421
2.990000	 65.324
3.008000	 65.4231
3.026000	 65.1905
3.044000	 65.1539
3.062000	 65.2425
3.080000	 65.1685
3.098000	 65.095
3.116000	 65.3412
3.134000	 65.2865
3.152000	 65.3274
3.170000	 65.2755
3.188000	 65.1094
3.206000	 65.0702
3.224000	 65.0891
3.242000	 65.1185
3.260000	 65.0293
3.278000	 65.1673
3.296000	 65.258
3.314000	 65.1845
3.332000	 65.2906
3.350000	 65.0593
3.368000	 64.9926
3.386000	 65.1333
3.404000	 65.0525
3.422000	 64.9617
3.440000	 65.0427
3.458000	 65.0785
3.476000	 65.0194
3.494000	 65.0458
3.512000	 65.076
3.530000	 65.1329
3.548000	 65.1175
3.566000	 65.1601
3.584000	 65.1797
3.602000	 65.1849
3.620000	 65.0931
3.638000	 65.1418
3.656000	 65.0839
3.674000	 65.1311
3.692000	 65.0781
3.710000	 65.1747
3.728000	 65.0966
3.746000	 64.9933
3.764000	 65.0465
3.782000	 64.9596
3.800000	 64.9643
3.818000	 65.1642
3.836000	 64.9987
3.854000	 65.1129
3.872000	 65.0947
3.890000	 65.0622
3.908000	 65.1918
3.926000	 65.1525
3.944000	 65.0656
3.962000	 65.1357
3.980000	 65.0718
3.998000	 64.9285
4.016000	 65.2153
4.034000	 65.0852
4.052000	 65.1073
4.070000	 65.0119
4.088000	 65.0175
4.106000	 65.0215
4.124000	 65.0801
4.141999	 65.0263
4.160000	 65.0827
4.178000	 65.1303
4.196000	 65.0342
4.214000	 65.0712
4.232000	 65.0748
4.250000	 65.0543
4.268000	 65.0571
4.286000	 65.0863
4.304000	 65.0352
4.322000	 64.9231
4.340000	 64.8912
4.358000	 64.9689
4.375999	 65.0034
4.394000	 64.9049
4.412000	 64.9608
4.430000	 65.0656
4.448000	 65.0574
4.466000	 64.9941
4.484000	 64.9033
4.502000	 64.9486
4.520000	 64.961
4.538000	 64.8858
4.556000	 65.0429
4.574000	 64.9285
4.592000	 64.9089
4.609999	 64.9682
4.628000	 64.8841
4.646000	 64.6576
4.664000	 64.8738
4.682000	 64.9661
4.700000	 64.9438
4.718000	 65.0385
4.736000	 65.0061
4.754000	 64.9696
4.772000	 64.8824
4.790000	 64.9563
4.808000	 64.9679
4.826000	 64.9246
4.843999	 64.8578
4.862000	 64.8441
4.880000	 64.9857
4.898000	 64.9961
4.916000	 64.9013
4.934000	 64.9227
4.952000	 64.9371
4.970000	 64.9357
4.988000	 64.8805
5.006000	 64.8887
5.024000	 64.9012
5.042000	 64.9271
5.060000	 64.8754
5.077999	 64.9318
5.096000	 65.0117
5.114000	 64.929
5.132000	 64.875
5.150000	 64.8715
5.168000	 64.8234
5.186000	 64.8314
5.204000	 64.8908
5.222000	 64.8603
5.240000	 64.8628
5.258000	 64.7427
5.276000	 64.8711
5.294000	 64.9892
5.312000	 64.8786
5.330000	 64.8305
5.348000	 64.8074
5.366000	 64.8891
5.384000	 64.9849
5.402000	 64.9621
5.420000	 64.9002
5.438000	 64.8804
5.456000	 64.8871
5.474000	 64.8271
5.492000	 64.7606
5.510000	 64.7898
5.528000	 64.8108
5.546000	 64.8213
5.564000	 64.9515
5.582000	 64.9311
5.600000	 64.7505
5.618000	 64.678
5.636000	 64.783
5.654000	 64.8361
5.672000	 64.7695
5.690000	 64.7143
5.708000	 64.6761
5.726000	 64.6418
5.744000	 64.5761
5.762000	 64.5911
5.780000	 64.5122
5.798000	 64.5279
5.816000	 64.6864
5.834000	 64.7468
5.852000	 64.6712
5.870000	 64.7638
5.888000	 64.8416
5.906000	 64.6914
5.923999	 64.7095
5.942000	 64.7316
5.960000	 64.6751
5.978000	 64.6939
5.996000	 64.7523
6.014000	 64.7887
6.032000	 64.8287
6.050000	 64.8332
6.068000	 64.7054
6.086000	 64.6604
6.104000	 64.7461
6.122000	 64.7913
6.140000	 64.823
6.158000	 64.852
6.176000	 64.8252
6.194000	 64.6982
6.212000	 64.6249
6.230000	 64.6835
6.248000	 64.6647
6.266000	 64.6246
6.284000	 64.6579
6.302000	 64.6469
6.320000	 64.7088
6.338000	 64.8279
6.356000	 64.758
6.374000	 64.6272
6.392000	 64.6319
6.410000	 64.7441
6.428000	 64.7266
6.446000	 64.6204
6.464000	 64.6371
6.482000	 64.7027
6.500000	 64.7202
6.518000	 64.6835
6.536000	 64.6629
6.554000	 64.6952
6.572000	 64.7005
6.590000	 64.693
6.608000	 64.7433
6.626000	 64.815
6.644000	 64.7969
6.662000	 64.7867
6.680000	 64.9037
6.698000	 64.8433
6.716000	 64.6363
6.734000	 64.5785
6.752000	 64.5988
6.770000	 64.6288
6.788000	 64.6584
6.806000	 64.6722
6.824000	 64.6524
6.842000	 64.6382
6.860000	 64.6269
6.878000	 64.5274
6.896000	 64.4607
6.914000	 64.5006
6.932000	 64.5303
6.950000	 64.5787
6.968000	 64.6161
6.986000	 64.5309
7.004000	 64.4184
7.022000	 64.4148
7.040000	 64.4754
7.058000	 64.4909
7.076000	 64.4471
7.094000	 64.419
7.112000	 64.466
7.130000	 64.5525
7.148000	 64.5997
7.166000	 64.5889
7.184000	 64.5572
7.202000	 64.525
7.220000	 64.4903
7.238000	 64.4631
7.256000	 64.4394
7.274000	 64.4085
7.292000	 64.426
7.310000	 64.517
7.328000	 64.5826
7.346000	 64.5702
7.364000	 64.5478
7.382000	 64.5517
7.400000	 64.5599
7.418000	 64.5618
7.436000	 64.5555
7.454000	 64.5305
7.472000	 64.4834
7.490000	 64.4287
7.508000	 64.3921
7.526000	 64.3877
7.544000	 64.4018
7.562000	 64.415
7.580000	 64.4198
7.598000	 64.4215
7.616000	 64.4258
7.634000	 64.4061
7.652000	 64.3422
7.670000	 64.2853
7.688000	 64.2952
7.706000	 64.3447
7.724000	 64.3764
7.742000	 64.3871
7.760000	 64.3899
7.778000	 64.3678
7.796000	 64.3119
7.814000	 64.2594
7.832000	 64.2516
7.850000	 64.2787
7.868000	 64.2952
7.886000	 64.2855
7.904000	 64.2845
7.922000	 64.3173
7.940000	 64.3514
7.958000	 64.3459
7.976000	 64.3142
7.994000	 64.2933
8.012000	 64.2872
8.030000	 64.2842
8.048000	 64.2928
8.065999	 64.3178
8.084000	 64.3333
8.102000	 64.3113
8.120000	 64.2694
8.138000	 64.2545
8.155999	 64.2811
8.173999	 64.3189
8.192000	 64.3382
8.210000	 64.3378
8.228000	 64.3283
8.246000	 64.3162
8.263999	 64.3083
8.282000	 64.311
8.300000	 64.3279
8.318000	 64.362
8.336000	 64.4074
8.353999	 64.4418
8.372000	 64.4421
8.390000	 64.4064
8.408000	 64.3498
8.426000	 64.2885
8.443999	 64.2345
8.462000	 64.1989
8.480000	 64.189
8.498000	 64.2073
8.516000	 64.2425
8.533999	 64.2651
8.552000	 64.2522
8.570000	 64.2165
8.588000	 64.1976
8.606000	 64.2211
8.624000	 64.2693
8.641999	 64.302
8.660000	 64.2992
8.678000	 64.2731
8.696000	 64.2426
8.714000	 64.2138
8.731999	 64.1872
8.750000	 64.1672
8.768000	 64.1595
8.786000	 64.1685
8.804000	 64.1937
8.821999	 64.2268
8.840000	 64.2536
8.858000	 64.2625
8.876000	 64.2543
8.894000	 64.2465
8.911999	 64.2615
8.930000	 64.3018
8.948000	 64.3505
8.966000	 64.3904
8.984000	 64.406
9.001999	 64.3774
9.020000	 64.2987
9.038000	 64.2007
9.056000	 64.1362
9.074000	 64.1376
9.092000	 64.1987
9.109999	 64.2933
9.128000	 64.3972
9.146000	 64.4866
9.164000	 64.5319
9.182000	 64.5175
9.199999	 64.4631
9.218000	 64.4096
9.236000	 64.379
9.254000	 64.3546
9.272000	 64.3077
9.289999	 64.2377
9.308000	 64.1728
9.326000	 64.1366
9.344000	 64.1253
9.362000	 64.1178
9.379999	 64.1012
9.398000	 64.0829
9.416000	 64.0819
9.434000	 64.1099
9.452000	 64.1603
9.469999	 64.2123
9.488000	 64.2436
9.506000	 64.2419
9.524000	 64.209
9.542000	 64.1567
9.560000	 64.1005
9.577999	 64.0571
9.596000	 64.042
9.614000	 64.0623
9.632000	 64.1105
9.650000	 64.1676
9.667999	 64.2137
9.686000	 64.2373
9.704000	 64.2373
9.722000	 64.2203
9.740000	 64.1958
9.757999	 64.1734
9.776000	 64.1599
9.794000	 64.1591
9.812000	 64.171
9.830000	 64.1911
9.847999	 64.2109
9.866000	 64.2182
9.884000	 64.202
9.902000	 64.1599
9.920000	 64.1032
9.937999	 64.0541
9.956000	 64.0346
9.974000	 64.0544
9.992000	 64.1091
10.01	64.1832
10.028	64.2579
10.046	64.3167
10.064	64.3495
10.082	64.3541
10.1	64.3368
10.118	64.3126
10.136	64.2991
10.154	64.3085
10.172	64.3407
10.19	64.3825
10.208	64.414
10.226	64.4195
10.244	64.3943
10.262	64.3472
10.28	64.2944
10.298	64.2512
10.316	64.2264
10.334	64.2211
10.352	64.2326
10.37	64.2548
10.388	64.2789
10.406	64.2942
10.424	64.2917
10.442	64.2705
10.46	64.2378
10.478	64.2074
10.496	64.1927
10.514	64.2009
10.532	64.2301
10.55	64.2705
10.568	64.309
10.586	64.3339
10.604	64.3401
10.622	64.3293
10.64	64.309
10.658	64.2876
10.676	64.2705
10.694	64.2574
10.712	64.2448
10.73	64.231
10.748	64.2179
10.766	64.2101
10.784	64.2106
10.802	64.2191
10.82	64.2335
10.838	64.2512
10.856	64.2705
10.874	64.2886
10.892	64.301
10.91	64.301
10.928	64.2823
10.946	64.2439
10.964	64.1924
10.982	64.1411
11	64.1049
11.018	64.0946
11.036	64.1117
11.054	64.1487
11.072	64.1932
11.09	64.2315
11.108	64.2555
11.126	64.2634
11.144	64.259
11.162	64.2492
11.18	64.2389
11.198	64.2288
11.216	64.215
11.234	64.1913
11.252	64.1529
11.27	64.1001
11.288	64.0398
11.306	63.9833
11.324	63.9437
11.342	63.9298
11.36	63.9437
11.378	63.9798
11.396	64.0277
11.414	64.076
11.432	64.1159
11.45	64.1439
11.468	64.1602
11.486	64.1679
11.504	64.1698
11.522	64.1674
11.54	64.1615
11.558	64.1532
11.576	64.1449
11.594	64.1404
11.612	64.1436
11.63	64.1576
11.648	64.1831
11.666	64.2182
11.684	64.2593
11.702	64.3028
11.72	64.3459
11.738	64.3865
11.756	64.4235
11.774	64.455
11.792	64.4775
11.81	64.4865
11.828	64.4777
11.846	64.4491
11.864	64.4027
11.882	64.344
11.9	64.2805
11.918	64.2194
11.936	64.1651
11.954	64.1183
11.972	64.0765
11.99	64.036
12.008	63.9943
12.026	63.9516
12.044	63.9111
12.062	63.8782
12.08	63.8585
12.098	63.8555
12.116	63.8702
12.134	63.9003
12.152	63.9408
12.17	63.9866
12.188	64.0326
12.206	64.0754
12.224	64.1134
12.242	64.1461
12.26	64.174
12.278	64.1973
12.296	64.2154
12.314	64.2271
12.332	64.2303
12.35	64.2225
12.368	64.2015
12.386	64.1668
12.404	64.1203
12.422	64.0669
12.44	64.0139
12.458	63.9697
12.476	63.9418
12.494	63.9343
12.512	63.947
12.53	63.9754
12.548	64.0116
12.566	64.0475
12.584	64.0764
12.602	64.0951
12.62	64.1047
12.638	64.11
12.656	64.1176
12.674	64.1332
12.692	64.1602
12.71	64.1982
12.728	64.2438
12.746	64.2913
12.764	64.334
12.782	64.3662
12.8	64.3844
12.818	64.3874
12.836	64.3763
12.854	64.3539
12.872	64.3234
12.89	64.2875
12.908	64.2484
12.926	64.2075
12.944	64.1666
12.962	64.1276
12.98	64.0934
12.998	64.0677
13.016	64.0537
13.034	64.0532
13.052	64.0657
13.07	64.0884
13.088	64.1162
13.106	64.144
13.124	64.1669
13.142	64.1825
13.16	64.1906
13.178	64.1938
13.196	64.196
13.214	64.2012
13.232	64.2117
13.25	64.2273
13.268	64.2451
13.286	64.2603
13.304	64.2675
13.322	64.2622
13.34	64.2424
13.358	64.2086
13.376	64.1648
13.394	64.1165
13.412	64.0703
13.43	64.0321
13.448	64.0059
13.466	63.9932
13.484	63.993
13.502	64.0023
13.52	64.0167
13.538	64.0317
13.556	64.0438
13.574	64.051
13.592	64.0532
13.61	64.0519
13.628	64.0498
13.646	64.0502
13.664	64.0561
13.682	64.0695
13.7	64.0912
13.718	64.1204
13.736	64.1548
13.754	64.1917
13.772	64.2274
13.79	64.2591
13.808	64.2846
13.826	64.3024
13.844	64.3122
13.862	64.3142
13.88	64.3091
13.898	64.2976
13.916	64.2808
13.934	64.2593
13.952	64.2341
13.97	64.2061
13.988	64.1763
14.006	64.1461
14.024	64.1166
14.042	64.0891
14.06	64.0648
14.078	64.0447
14.096	64.0293
14.114	64.019
14.132	64.0138
14.15	64.0136
14.168	64.0181
14.186	64.027
14.204	64.0393
14.222	64.0539
14.24	64.0689
14.258	64.0823
14.276	64.0918
14.294	64.0953
14.312	64.0915
14.33	64.0801
14.348	64.0622
14.366	64.0397
14.384	64.0158
14.402	63.994
14.42	63.9776
14.438	63.9688
14.456	63.9688
14.474	63.9775
14.492	63.993
14.51	64.0126
14.528	64.0328
14.546	64.0507
14.564	64.0639
14.582	64.071
14.6	64.0717
14.618	64.0668
14.636	64.0577
14.654	64.0463
14.672	64.0341
14.69	64.0225
14.708	64.0123
14.726	64.0041
14.744	63.9978
14.762	63.9935
14.78	63.9907
14.798	63.989
14.816	63.9876
14.834	63.985
14.852	63.9799
14.87	63.9707
14.888	63.9563
14.906	63.9361
14.924	63.9102
14.942	63.8796
14.96	63.8466
14.978	63.8141
14.996	63.7854
15.014	63.7635
15.032	63.7514
15.05	63.7504
15.068	63.7605
15.086	63.7805
15.104	63.8079
15.122	63.8385
15.14	63.8679
15.158	63.8921
15.176	63.908
15.194	63.9132
15.212	63.9072
15.23	63.8915
15.248	63.8685
15.266	63.8414
15.284	63.8149
15.302	63.7931
15.32	63.779
15.338	63.7752
15.356	63.7831
15.374	63.8024
15.392	63.832
15.41	63.8698
15.428	63.913
15.446	63.9579
15.464	64.0018
15.482	64.0423
15.5	64.0772
15.518	64.1051
15.536	64.1254
15.554	64.1379
15.572	64.1427
15.59	64.14
15.608	64.1301
15.626	64.1128
15.644	64.0882
15.662	64.0558
15.68	64.016
15.698	63.9691
15.716	63.9163
15.734	63.8599
15.752	63.8024
15.77	63.7465
15.788	63.6964
15.806	63.655
15.824	63.6246
15.842	63.6073
15.86	63.604
15.878	63.6139
15.896	63.636
15.914	63.6678
15.932	63.7061
15.95	63.7485
15.968	63.792
15.986	63.8339
16.004	63.8732
16.022	63.9091
16.04	63.9416
16.058	63.9721
16.076	64.0015
16.094	64.0319
16.112	64.0647
16.13	64.1008
16.148	64.141
16.166	64.1844
16.184	64.2298
16.202	64.2757
16.22	64.3186
16.238	64.356
16.256	64.3852
16.274	64.4025
16.292	64.4063
16.31	64.3952
16.328	64.3688
16.346	64.3283
16.364	64.2749
16.382	64.2122
16.4	64.1441
16.418	64.0737
16.436	64.0068
16.454	63.9475
16.472	63.8986
16.49	63.8645
16.508	63.8462
16.526	63.8448
16.544	63.86
16.562	63.8898
16.58	63.9327
16.598	63.9848
16.616	64.0432
16.634	64.1053
16.652	64.1668
16.67	64.2259
16.688	64.2801
16.706	64.3275
16.724	64.3673
16.742	64.3986
16.76	64.4212
16.778	64.435
16.796	64.4401
16.814	64.4369
16.832	64.4254
16.85	64.4061
16.868	64.3792
16.886	64.3453
16.904	64.305
16.922	64.2589
16.94	64.2077
16.958	64.1529
16.976	64.0953
16.994	64.0368
17.012	63.9791
17.03	63.9233
17.048	63.8721
17.066	63.8264
17.084	63.7881
17.102	63.7584
17.12	63.7376
17.138	63.7266
17.156	63.7248
17.174	63.7321
17.192	63.7468
17.21	63.7678
17.228	63.7931
17.246	63.8201
17.264	63.8473
17.282	63.8707
17.3	63.8891
17.318	63.8995
17.336	63.9005
17.354	63.8909
17.372	63.8697
17.39	63.8372
17.408	63.7938
17.426	63.7413
17.444	63.6807
17.462	63.616
17.48	63.5485
17.498	63.4826
17.516	63.4209
17.534	63.3659
17.552	63.321
17.57	63.287
17.588	63.2663
17.606	63.2592
17.624	63.2663
17.642	63.2867
17.66	63.3202
17.678	63.364
17.696	63.4171
17.714	63.4762
17.732	63.5394
17.75	63.6045
17.768	63.6686
17.786	63.7304
17.804	63.787
17.822	63.8378
17.84	63.8809
17.858	63.9161
17.876	63.9423
17.894	63.96
17.912	63.9692
17.93	63.971
17.948	63.9659
17.966	63.9559
17.984	63.9418
18.002	63.9255
18.02	63.9088
18.038	63.8931
18.056	63.8811
18.074	63.8735
18.092	63.8728
18.11	63.8791
18.128	63.8935
18.146	63.9159
18.164	63.9465
18.182	63.9843
18.2	64.0288
18.218	64.0784
18.236	64.1324
18.254	64.1883
18.272	64.2455
18.29	64.3015
18.308	64.3561
18.326	64.4066
18.344	64.4528
18.362	64.4928
18.38	64.5261
18.398	64.551
18.416	64.5672
18.434	64.5737
18.452	64.5697
18.47	64.5546
18.488	64.528
18.506	64.4898
18.524	64.4399
18.542	64.3781
18.56	64.3057
18.578	64.2227
18.596	64.131
18.614	64.0308
18.632	63.9251
18.65	63.8142
18.668	63.7019
18.686	63.5885
18.704	63.4776
18.722	63.3699
18.74	63.2692
18.758	63.1763
18.776	63.0949
18.794	63.0257
18.812	62.972
18.83	62.9341
18.848	62.9142
18.866	62.9122
18.884	62.9295
18.902	62.9654
18.92	63.0202
18.938	63.0925
18.956	63.1814
18.974	63.2849
18.992	63.4008
19.01	63.5269
19.028	63.6601
19.046	63.7983
19.064	63.9377
19.082	64.0767
19.1	64.2115
19.118	64.3412
19.136	64.4622
19.154	64.5744
19.172	64.6748
19.19	64.7637
19.208	64.8394
19.226	64.9024
19.244	64.9525
19.262	64.99
19.28	65.0158
19.298	65.0302
19.316	65.0356
19.334	65.0321
19.352	65.0221
19.37	65.0055
19.388	64.9853
19.406	64.9615
19.424	64.9355
19.442	64.9073
19.46	64.8783
19.478	64.8486
19.496	64.8179
19.514	64.7861
19.532	64.7527
19.55	64.7178
19.568	64.6803
19.586	64.6394
19.604	64.5946
19.622	64.5449
19.64	64.4901
19.658	64.429
19.676	64.3618
19.694	64.2885
19.712	64.2091
19.73	64.1244
19.748	64.0343
19.766	63.9403
19.784	63.8424
19.802	63.7423
19.82	63.6408
19.838	63.539
19.856	63.4388
19.874	63.3404
19.892	63.2466
19.91	63.1571
19.928	63.0745
19.946	62.9987
19.964	62.9319
19.982	62.8744
20	62.8273
20.018	62.7916
20.036	62.7674
20.054	62.7561
20.072	62.7574
20.09	62.772
20.108	62.7997
20.126	62.8401
20.144	62.8935
20.162	62.9581
20.18	63.0337
20.198	63.1185
20.216	63.2102
20.234	63.3084
20.252	63.408
20.27	63.51
20.288	63.6079
20.306	63.7018
20.324	63.7871
20.342	63.8608
20.36	63.9222
20.378	63.966
20.396	63.9933
20.414	64.0008
20.432	63.9885
20.45	63.9563
20.468	63.9033
20.486	63.8314
20.504	63.7429
20.522	63.6376
20.54	63.5223
20.558	63.3955
20.576	63.2646
20.594	63.1322
20.612	63.0008
20.63	62.8782
20.648	62.7627
20.666	62.6628
20.684	62.5782
20.702	62.5126
20.72	62.4695
20.738	62.4477
20.756	62.4497
20.774	62.4754
20.792	62.523
20.81	62.5934
20.828	62.6833
20.846	62.7895
20.864	62.9124
20.882	63.0439
20.9	63.1857
20.918	63.3312
20.936	63.4761
20.954	63.6205
20.972	63.756
20.99	63.8844
21.008	64.0005
21.026	64.1017
21.044	64.1886
21.062	64.2575
21.08	64.3092
21.098	64.3439
21.116	64.361
21.134	64.3621
21.152	64.3496
21.17	64.3228
21.188	64.2871
21.206	64.2425
21.224	64.1917
21.242	64.1401
21.26	64.0858
21.278	64.0353
21.296	63.9895
21.314	63.9495
21.332	63.92
21.35	63.8994
21.368	63.8906
21.386	63.8947
21.404	63.9108
21.422	63.9388
21.44	63.9793
21.458	64.0297
21.476	64.0899
21.494	64.1591
21.512	64.2323
21.53	64.3112
21.548	64.3911
21.566	64.4689
21.584	64.5454
21.602	64.6138
21.62	64.6749
21.638	64.7261
21.656	64.7626
21.674	64.7863
21.692	64.7939
21.71	64.7841
21.728	64.7577
21.746	64.7138
21.764	64.6519
21.782	64.5742
21.8	64.4817
21.818	64.374
21.836	64.2566
21.854	64.1284
21.872	63.9923
21.89	63.8542
21.908	63.7117
21.926	63.5704
21.944	63.4338
21.962	63.3004
21.98	63.1763
21.998	63.0614
22.016	62.9566
22.034	62.8655
22.052	62.7872
22.07	62.7224
22.088	62.6719
22.106	62.6353
22.124	62.6113
22.142	62.6002
22.16	62.6011
22.178	62.6105
22.196	62.6298
22.214	62.6561
22.232	62.686
22.25	62.7213
22.268	62.7578
22.286	62.7934
22.304	62.8293
22.322	62.8616
22.34	62.8901
22.358	62.9146
22.376	62.9327
22.394	62.9447
22.412	62.9503
22.43	62.9486
22.448	62.9395
22.466	62.9241
22.484	62.9026
22.502	62.8747
22.52	62.8429
22.538	62.8077
22.556	62.7691
22.574	62.7307
22.592	62.6924
22.61	62.6549
22.628	62.6221
22.646	62.5933
22.664	62.5694
22.682	62.5537
22.7	62.5451
22.718	62.5446
22.736	62.5536
22.754	62.5717
22.772	62.599
22.79	62.6359
22.808	62.6825
22.826	62.7376
22.844	62.8007
22.862	62.8724
22.88	62.9499
22.898	63.0324
22.916	63.1206
22.934	63.2109
22.952	63.3027
22.97	63.3964
22.988	63.4884
23.006	63.5782
23.024	63.6663
23.042	63.7498
23.06	63.8284
23.078	63.9025
23.096	63.9704
23.114	64.0318
23.132	64.0872
23.15	64.1363
23.168	64.1788
23.186	64.2153
23.204	64.2473
23.222	64.2742
23.24	64.2969
23.258	64.3171
23.276	64.3346
23.294	64.3497
23.312	64.3642
23.33	64.378
23.348	64.3911
23.366	64.4043
23.384	64.4177
23.402	64.4312
23.42	64.4449
23.438	64.4595
23.456	64.4744
23.474	64.4882
23.492	64.5011
23.51	64.5131
23.528	64.5221
23.546	64.5281
23.564	64.5313
23.582	64.5289
23.6	64.5201
23.618	64.5057
23.636	64.4832
23.654	64.4515
23.672	64.4117
23.69	64.3619
23.708	64.3009
23.726	64.2295
23.744	64.1475
23.762	64.0546
23.78	63.9506
23.798	63.8366
23.816	63.7137
23.834	63.5805
23.852	63.4391
23.87	63.2923
23.888	63.1378
23.906	62.978
23.924	62.8185
23.942	62.6578
23.96	62.4966
23.978	62.3419
23.996	62.1953
24.014	62.0543
24.032	61.9265
24.05	61.8163
24.068	61.7196
24.086	61.642
24.104	61.5892
24.122	61.558
24.14	61.5505
24.158	61.5706
24.176	61.6181
24.194	61.692
24.212	61.7923
24.23	61.9204
24.248	62.0752
24.266	62.2525
24.284	62.4507
24.302	62.6726
24.32	62.9113
24.338	63.1604
24.356	63.4258
24.374	63.7008
24.392	63.9752
24.41	64.2518
24.428	64.5297
24.446	64.7993
24.464	65.057
24.482	65.3073
24.5	65.5431
24.518	65.7578
24.536	65.9551
24.554	66.1335
24.572	66.2901
24.59	66.424
24.608	66.5369
24.626	66.6303
24.644	66.7038
24.662	66.7562
24.68	66.7933
24.698	66.8202
24.716	66.8316
24.734	66.8332
24.752	66.8341
24.77	66.8335
24.788	66.8298
24.806	66.832
24.824	66.8461
24.842	66.8663
24.86	66.898
24.878	66.9482
24.896	67.0162
24.914	67.1006
24.932	67.2034
24.95	67.3263
24.968	67.469
24.986	67.6286
25.004	67.8026
25.022	67.9954
25.04	68.2027
25.058	68.4159
25.076	68.6326
25.094	68.8582
25.112	69.0827
25.13	69.2962
25.148	69.5064
25.166	69.7083
25.184	69.8893
25.202	70.0443
25.22	70.1813
25.238	70.2903
25.256	70.3604
25.274	70.3962
25.292	70.3971
25.31	70.356
25.328	70.2682
25.346	70.1377
25.364	69.9636
25.382	69.7445
25.4	69.4776
25.418	69.1658
25.436	68.8151
25.454	68.429
25.472	67.9997
25.49	67.5378
25.508	67.0569
25.526	66.558
25.544	66.035
25.562	65.5009
25.58	64.9675
25.598	64.4273
25.616	63.8834
25.634	63.3468
25.652	62.8227
25.67	62.3011
25.688	61.7945
25.706	61.318
25.724	60.8711
25.742	60.4482
25.76	60.0611
25.778	59.7205
25.796	59.414
25.814	59.1496
25.832	58.9459
25.85	58.8146
25.868	58.7406
25.886	58.7355
25.904	58.8147
25.922	58.9963
25.94	59.2727
25.958	59.6115
25.976	59.981
25.994	60.4032
26.012	60.8728
26.03	61.3457
26.048	61.7838
26.066	62.2161
26.084	62.6317
26.102	63.0013
26.12	63.3047
26.138	63.5609
26.156	63.7634
26.174	63.9015
26.192	63.95
26.21	63.9057
26.228	63.8301
26.246	63.786
26.264	63.7631
26.282	63.7378
26.3	63.7704
26.318	63.9203
26.336	64.1795
26.354	64.5295
26.372	64.9825
26.39	65.5506
26.408	66.245
26.426	67.0471
26.444	67.9316
26.462	68.889
26.48	70.0065
26.498	71.1846
26.516	72.2784
26.534	73.1844
26.552	74.0223
26.57	74.7275
26.588	75.1941
26.606	75.3403
26.624	75.2169
26.642	74.8488
26.66	74.2512
26.678	73.4142
26.696	72.2966
26.714	70.9819
26.732	69.563
26.75	68.0358
26.768	66.2606
26.786	64.4732
26.804	62.9342
26.822	61.7691
26.84	60.7779
26.858	60.0794
26.876	59.8173
26.894	60.1013
26.912	60.8689
26.93	62.0386
26.948	63.5332
26.966	65.4657
26.984	68.1229
27.002	70.8918
27.02	73.1011
27.028	73.6676