File: Bakgrunnsmateriale/MATLAB/FTIR/ftir_data/subAa/Mapping_121/BZ1503107-1_t47.asc
PE IR       SPECTRUM    SPECTRUM    ASCII       PEDS        1.60
  -1
BZ256D~1.ASC
17/04/07
17:08:17.00
17/04/07
17:08:43.00
tln
$BZ1503107-1_t0047$<tbV0>[7.8,-2.6,8.0,0.0,27,1,0]
27.028
64

2002,4.07
MIRTGS : RIGHTBACK : INTERNAL 2
MIR : ON : INTERNAL 2
OPTKBR

0.200000
8
8.000000
FILLER
RATIO
SPECTRUM
UNLOCKED 256

DOUBLE
64
COMBINED
1
0
0

0.002000
RATIO

1
0
TRUE
51149
0
LEFT NOT FITTED RIGHT NOT FITTED 0
NONE
NONE
15600
12
4.427000
51148
TRUE
1 0 8 72 0 0 0 0

15798

#HDR
-1
-1
#GR
µM
%T
2.38419e-05
0.0
2.000000
0.002000
12515
8
70.1957
43.1186
#DATA
2.000000	 65.954
2.018000	 64.8687
2.036000	 65.2803
2.054000	 64.5643
2.072000	 65.1892
2.090000	 65.029
2.108000	 65.0165
2.126000	 65.0115
2.144000	 65.0491
2.162000	 64.989
2.180000	 65.1369
2.198000	 65.5151
2.216000	 65.3514
2.234000	 64.6114
2.252000	 66.371
2.270000	 66.0703
2.288000	 64.5465
2.306000	 65.0106
2.324000	 64.9579
2.342000	 64.9803
2.360000	 64.9732
2.378000	 65.0021
2.396000	 65.0586
2.414000	 64.8323
2.432000	 65.2364
2.450000	 64.8849
2.468000	 64.9731
2.486000	 65.1168
2.504000	 65.0968
2.522000	 64.9486
2.540000	 64.9643
2.558000	 64.9136
2.576000	 64.908
2.594000	 65.1242
2.612000	 65.062
2.630000	 65.1046
2.648000	 65.1162
2.666000	 64.9784
2.684000	 65.2046
2.702000	 65.082
2.720000	 65.1413
2.738000	 65.0676
2.756000	 65.0877
2.774000	 65.0073
2.792000	 64.9974
2.810000	 65.0332
2.828000	 65.1281
2.846000	 65.1137
2.864000	 65.1561
2.882000	 65.2236
2.900000	 65.2349
2.918000	 64.9733
2.936000	 65.1186
2.954000	 64.9356
2.972000	 64.9653
2.990000	 65.1046
3.008000	 65.0653
3.026000	 65.0024
3.044000	 65.2247
3.062000	 65.0051
3.080000	 64.9625
3.098000	 65.0137
3.116000	 65.1058
3.134000	 65.1699
3.152000	 65.0047
3.170000	 64.9783
3.188000	 64.9386
3.206000	 65.0558
3.224000	 65.1662
3.242000	 64.98
3.260000	 65.0308
3.278000	 65.0169
3.296000	 64.9806
3.314000	 65.0201
3.332000	 65.0589
3.350000	 65.0228
3.368000	 64.9652
3.386000	 64.936
3.404000	 64.8669
3.422000	 64.9064
3.440000	 65.0905
3.458000	 64.9555
3.476000	 64.8958
3.494000	 64.8595
3.512000	 65.0451
3.530000	 65.0017
3.548000	 64.944
3.566000	 64.9898
3.584000	 65.102
3.602000	 64.9229
3.620000	 64.8221
3.638000	 64.9598
3.656000	 64.8754
3.674000	 64.8669
3.692000	 64.9236
3.710000	 64.9639
3.728000	 64.9424
3.746000	 64.9873
3.764000	 64.936
3.782000	 64.8815
3.800000	 64.898
3.818000	 64.8668
3.836000	 64.9363
3.854000	 64.9584
3.872000	 64.944
3.890000	 64.8408
3.908000	 64.7816
3.926000	 64.8941
3.944000	 64.8288
3.962000	 64.8154
3.980000	 64.8505
3.998000	 64.8595
4.016000	 64.8926
4.034000	 64.894
4.052000	 64.7762
4.070000	 64.8271
4.088000	 64.8869
4.106000	 65.019
4.124000	 64.9015
4.141999	 64.8119
4.160000	 64.8458
4.178000	 64.7917
4.196000	 64.7667
4.214000	 64.8206
4.232000	 64.7952
4.250000	 64.7622
4.268000	 64.8819
4.286000	 64.8779
4.304000	 64.9004
4.322000	 64.8999
4.340000	 64.8259
4.358000	 64.8524
4.375999	 64.739
4.394000	 64.7931
4.412000	 64.8207
4.430000	 64.9563
4.448000	 64.728
4.466000	 64.7573
4.484000	 64.7717
4.502000	 64.7822
4.520000	 64.7819
4.538000	 64.838
4.556000	 64.7751
4.574000	 64.6319
4.592000	 64.5859
4.609999	 64.6445
4.628000	 64.8185
4.646000	 64.7469
4.664000	 64.7352
4.682000	 64.7484
4.700000	 64.7435
4.718000	 64.7248
4.736000	 64.7655
4.754000	 64.758
4.772000	 64.7612
4.790000	 64.7216
4.808000	 64.7332
4.826000	 64.7263
4.843999	 64.7448
4.862000	 64.6947
4.880000	 64.7208
4.898000	 64.6177
4.916000	 64.685
4.934000	 64.6591
4.952000	 64.7332
4.970000	 64.7169
4.988000	 64.6747
5.006000	 64.713
5.024000	 64.7506
5.042000	 64.7584
5.060000	 64.7632
5.077999	 64.6576
5.096000	 64.6303
5.114000	 64.5408
5.132000	 64.6291
5.150000	 64.5676
5.168000	 64.5968
5.186000	 64.621
5.204000	 64.5798
5.222000	 64.5924
5.240000	 64.6049
5.258000	 64.6227
5.276000	 64.585
5.294000	 64.5658
5.312000	 64.586
5.330000	 64.5785
5.348000	 64.568
5.366000	 64.597
5.384000	 64.5609
5.402000	 64.5819
5.420000	 64.5582
5.438000	 64.6049
5.456000	 64.5733
5.474000	 64.5229
5.492000	 64.5358
5.510000	 64.5307
5.528000	 64.5271
5.546000	 64.5714
5.564000	 64.5792
5.582000	 64.564
5.600000	 64.5718
5.618000	 64.5741
5.636000	 64.5354
5.654000	 64.459
5.672000	 64.4168
5.690000	 64.457
5.708000	 64.5753
5.726000	 64.5051
5.744000	 64.423
5.762000	 64.3987
5.780000	 64.349
5.798000	 64.3443
5.816000	 64.3428
5.834000	 64.3824
5.852000	 64.401
5.870000	 64.3583
5.888000	 64.3903
5.906000	 64.3764
5.923999	 64.4052
5.942000	 64.4363
5.960000	 64.4371
5.978000	 64.4476
5.996000	 64.4186
6.014000	 64.4117
6.032000	 64.3842
6.050000	 64.3064
6.068000	 64.3518
6.086000	 64.5345
6.104000	 64.5063
6.122000	 64.3712
6.140000	 64.3411
6.158000	 64.2681
6.176000	 64.1561
6.194000	 64.2361
6.212000	 64.331
6.230000	 64.3342
6.248000	 64.317
6.266000	 64.2969
6.284000	 64.2798
6.302000	 64.2937
6.320000	 64.2921
6.338000	 64.2248
6.356000	 64.2387
6.374000	 64.2763
6.392000	 64.2894
6.410000	 64.3205
6.428000	 64.3182
6.446000	 64.2838
6.464000	 64.2694
6.482000	 64.2705
6.500000	 64.2186
6.518000	 64.2104
6.536000	 64.2572
6.554000	 64.2388
6.572000	 64.2207
6.590000	 64.2502
6.608000	 64.2718
6.626000	 64.2574
6.644000	 64.2564
6.662000	 64.315
6.680000	 64.3488
6.698000	 64.3075
6.716000	 64.2554
6.734000	 64.2488
6.752000	 64.2662
6.770000	 64.2538
6.788000	 64.222
6.806000	 64.2132
6.824000	 64.2033
6.842000	 64.1537
6.860000	 64.1353
6.878000	 64.1929
6.896000	 64.1965
6.914000	 64.1368
6.932000	 64.1349
6.950000	 64.1411
6.968000	 64.1075
6.986000	 64.1129
7.004000	 64.1756
7.022000	 64.2359
7.040000	 64.2392
7.058000	 64.1813
7.076000	 64.1658
7.094000	 64.246
7.112000	 64.2934
7.130000	 64.2418
7.148000	 64.1936
7.166000	 64.2039
7.184000	 64.2091
7.202000	 64.1528
7.220000	 64.0841
7.238000	 64.0853
7.256000	 64.1328
7.274000	 64.1748
7.292000	 64.205
7.310000	 64.2113
7.328000	 64.2025
7.346000	 64.193
7.364000	 64.1521
7.382000	 64.0778
7.400000	 64.0169
7.418000	 64.0004
7.436000	 64.0293
7.454000	 64.067
7.472000	 64.0637
7.490000	 64.0241
7.508000	 63.9817
7.526000	 63.949
7.544000	 63.9405
7.562000	 63.9795
7.580000	 64.0603
7.598000	 64.133
7.616000	 64.1479
7.634000	 64.1188
7.652000	 64.0965
7.670000	 64.1038
7.688000	 64.1362
7.706000	 64.1759
7.724000	 64.1894
7.742000	 64.1616
7.760000	 64.1165
7.778000	 64.0806
7.796000	 64.063
7.814000	 64.066
7.832000	 64.0752
7.850000	 64.0678
7.868000	 64.0555
7.886000	 64.0791
7.904000	 64.1459
7.922000	 64.2008
7.940000	 64.1887
7.958000	 64.1268
7.976000	 64.0747
7.994000	 64.0596
8.012000	 64.0653
8.030000	 64.0701
8.048000	 64.0637
8.065999	 64.0471
8.084000	 64.032
8.102000	 64.0243
8.120000	 64.0121
8.138000	 63.9845
8.155999	 63.9538
8.173999	 63.945
8.192000	 63.9604
8.210000	 63.9782
8.228000	 63.9904
8.246000	 64.0164
8.263999	 64.0693
8.282000	 64.1276
8.300000	 64.1548
8.318000	 64.1334
8.336000	 64.0692
8.353999	 63.9881
8.372000	 63.9281
8.390000	 63.9128
8.408000	 63.935
8.426000	 63.9735
8.443999	 64.0189
8.462000	 64.07
8.480000	 64.1196
8.498000	 64.1571
8.516000	 64.1699
8.533999	 64.1426
8.552000	 64.0725
8.570000	 63.9823
8.588000	 63.9073
8.606000	 63.8765
8.624000	 63.8955
8.641999	 63.9384
8.660000	 63.9725
8.678000	 63.9843
8.696000	 63.9735
8.714000	 63.9442
8.731999	 63.9075
8.750000	 63.8748
8.768000	 63.8504
8.786000	 63.8374
8.804000	 63.8348
8.821999	 63.8317
8.840000	 63.816
8.858000	 63.794
8.876000	 63.7895
8.894000	 63.818
8.911999	 63.8638
8.930000	 63.8905
8.948000	 63.878
8.966000	 63.8454
8.984000	 63.8276
9.001999	 63.8364
9.020000	 63.8524
9.038000	 63.853
9.056000	 63.8383
9.074000	 63.8269
9.092000	 63.8309
9.109999	 63.8424
9.128000	 63.8437
9.146000	 63.8283
9.164000	 63.808
9.182000	 63.7981
9.199999	 63.8037
9.218000	 63.8184
9.236000	 63.8338
9.254000	 63.8462
9.272000	 63.8539
9.289999	 63.8533
9.308000	 63.8429
9.326000	 63.8274
9.344000	 63.8153
9.362000	 63.8135
9.379999	 63.8223
9.398000	 63.8359
9.416000	 63.8439
9.434000	 63.8377
9.452000	 63.8182
9.469999	 63.7981
9.488000	 63.7904
9.506000	 63.7939
9.524000	 63.7918
9.542000	 63.7688
9.560000	 63.731
9.577999	 63.702
9.596000	 63.7008
9.614000	 63.7238
9.632000	 63.7523
9.650000	 63.7703
9.667999	 63.7788
9.686000	 63.7921
9.704000	 63.8223
9.722000	 63.867
9.740000	 63.9093
9.757999	 63.9315
9.776000	 63.9277
9.794000	 63.9057
9.812000	 63.8789
9.830000	 63.858
9.847999	 63.8487
9.866000	 63.8539
9.884000	 63.875
9.902000	 63.9085
9.920000	 63.9428
9.937999	 63.9607
9.956000	 63.9493
9.974000	 63.9087
9.992000	 63.8533
10.01	63.8042
10.028	63.7798
10.046	63.787
10.064	63.8206
10.082	63.8678
10.1	63.9155
10.118	63.9555
10.136	63.986
10.154	64.0085
10.172	64.0231
10.19	64.0276
10.208	64.0192
10.226	63.9992
10.244	63.9724
10.262	63.9436
10.28	63.9131
10.298	63.8785
10.316	63.8396
10.334	63.8023
10.352	63.7765
10.37	63.7698
10.388	63.7801
10.406	63.7969
10.424	63.808
10.442	63.8073
10.46	63.7968
10.478	63.782
10.496	63.766
10.514	63.7482
10.532	63.7272
10.55	63.7042
10.568	63.6842
10.586	63.6744
10.604	63.6791
10.622	63.6978
10.64	63.7243
10.658	63.7511
10.676	63.7717
10.694	63.7839
10.712	63.7886
10.73	63.7876
10.748	63.7824
10.766	63.774
10.784	63.765
10.802	63.7616
10.82	63.7732
10.838	63.8082
10.856	63.8667
10.874	63.9369
10.892	63.9996
10.91	64.0356
10.928	64.0378
10.946	64.0134
10.964	63.9795
10.982	63.9545
11	63.9474
11.018	63.9546
11.036	63.9639
11.054	63.9613
11.072	63.9405
11.09	63.9034
11.108	63.8579
11.126	63.8129
11.144	63.7737
11.162	63.7422
11.18	63.7188
11.198	63.7055
11.216	63.7067
11.234	63.7265
11.252	63.7653
11.27	63.8161
11.288	63.8648
11.306	63.8955
11.324	63.8968
11.342	63.8679
11.36	63.8192
11.378	63.768
11.396	63.73
11.414	63.7139
11.432	63.7184
11.45	63.735
11.468	63.752
11.486	63.7622
11.504	63.764
11.522	63.7624
11.54	63.765
11.558	63.7782
11.576	63.8044
11.594	63.8408
11.612	63.8809
11.63	63.9159
11.648	63.9386
11.666	63.9449
11.684	63.9355
11.702	63.9152
11.72	63.8917
11.738	63.8729
11.756	63.8637
11.774	63.8653
11.792	63.8747
11.81	63.8862
11.828	63.8939
11.846	63.8922
11.864	63.8782
11.882	63.8519
11.9	63.8169
11.918	63.7789
11.936	63.7447
11.954	63.7206
11.972	63.7116
11.99	63.72
12.008	63.7455
12.026	63.7851
12.044	63.8337
12.062	63.8845
12.08	63.9302
12.098	63.9647
12.116	63.9839
12.134	63.9871
12.152	63.9766
12.17	63.9564
12.188	63.9303
12.206	63.901
12.224	63.8696
12.242	63.836
12.26	63.8001
12.278	63.7626
12.296	63.7255
12.314	63.692
12.332	63.6652
12.35	63.6469
12.368	63.6377
12.386	63.6368
12.404	63.6426
12.422	63.6535
12.44	63.6687
12.458	63.6876
12.476	63.7095
12.494	63.7325
12.512	63.7539
12.53	63.7699
12.548	63.777
12.566	63.7724
12.584	63.755
12.602	63.7257
12.62	63.6869
12.638	63.6428
12.656	63.5988
12.674	63.5604
12.692	63.533
12.71	63.5205
12.728	63.5252
12.746	63.5473
12.764	63.5842
12.782	63.6307
12.8	63.6802
12.818	63.7257
12.836	63.7617
12.854	63.7847
12.872	63.7947
12.89	63.7943
12.908	63.7876
12.926	63.7791
12.944	63.7724
12.962	63.7685
12.98	63.7663
12.998	63.7625
13.016	63.7528
13.034	63.7331
13.052	63.7003
13.07	63.6543
13.088	63.5973
13.106	63.535
13.124	63.4743
13.142	63.4234
13.16	63.3893
13.178	63.3769
13.196	63.388
13.214	63.421
13.232	63.4708
13.25	63.53
13.268	63.5906
13.286	63.6452
13.304	63.6887
13.322	63.7185
13.34	63.7346
13.358	63.7392
13.376	63.7359
13.394	63.7283
13.412	63.7193
13.43	63.7104
13.448	63.7019
13.466	63.6931
13.484	63.6829
13.502	63.6696
13.52	63.652
13.538	63.629
13.556	63.6003
13.574	63.5663
13.592	63.5282
13.61	63.4881
13.628	63.449
13.646	63.4146
13.664	63.3892
13.682	63.3768
13.7	63.3798
13.718	63.3988
13.736	63.4318
13.754	63.4742
13.772	63.5196
13.79	63.561
13.808	63.5926
13.826	63.6099
13.844	63.6119
13.862	63.6004
13.88	63.58
13.898	63.5569
13.916	63.5373
13.934	63.5267
13.952	63.5281
13.97	63.5419
13.988	63.5656
14.006	63.5945
14.024	63.6225
14.042	63.6437
14.06	63.6532
14.078	63.6478
14.096	63.6269
14.114	63.5916
14.132	63.5455
14.15	63.4933
14.168	63.4407
14.186	63.3931
14.204	63.3556
14.222	63.3312
14.24	63.321
14.258	63.3242
14.276	63.3378
14.294	63.3584
14.312	63.3821
14.33	63.4058
14.348	63.4276
14.366	63.4468
14.384	63.4648
14.402	63.4839
14.42	63.5065
14.438	63.5342
14.456	63.5673
14.474	63.6042
14.492	63.6417
14.51	63.675
14.528	63.6992
14.546	63.7105
14.564	63.7071
14.582	63.6894
14.6	63.6603
14.618	63.6247
14.636	63.5889
14.654	63.5585
14.672	63.5375
14.69	63.5277
14.708	63.529
14.726	63.5388
14.744	63.5528
14.762	63.5665
14.78	63.5763
14.798	63.5794
14.816	63.5747
14.834	63.5622
14.852	63.5437
14.87	63.521
14.888	63.4956
14.906	63.4685
14.924	63.4399
14.942	63.4087
14.96	63.3733
14.978	63.3327
14.996	63.286
15.014	63.2338
15.032	63.1779
15.05	63.1219
15.068	63.07
15.086	63.0265
15.104	62.9951
15.122	62.9787
15.14	62.9777
15.158	62.9914
15.176	63.0175
15.194	63.0526
15.212	63.0923
15.23	63.1331
15.248	63.1725
15.266	63.2089
15.284	63.2424
15.302	63.2747
15.32	63.3072
15.338	63.3413
15.356	63.3779
15.374	63.4164
15.392	63.4549
15.41	63.4911
15.428	63.5214
15.446	63.5416
15.464	63.5491
15.482	63.5421
15.5	63.5198
15.518	63.4846
15.536	63.4402
15.554	63.391
15.572	63.3424
15.59	63.3004
15.608	63.2689
15.626	63.2504
15.644	63.2463
15.662	63.2548
15.68	63.2722
15.698	63.2942
15.716	63.3144
15.734	63.3264
15.752	63.3261
15.77	63.31
15.788	63.2765
15.806	63.2281
15.824	63.1683
15.842	63.1028
15.86	63.0411
15.878	62.9913
15.896	62.9612
15.914	62.9609
15.932	62.9956
15.95	63.0681
15.968	63.1793
15.986	63.3242
16.004	63.4958
16.022	63.6856
16.04	63.8783
16.058	64.0614
16.076	64.2238
16.094	64.3513
16.112	64.4355
16.13	64.4718
16.148	64.4565
16.166	64.3924
16.184	64.2844
16.202	64.1384
16.22	63.9671
16.238	63.7794
16.256	63.5849
16.274	63.3963
16.292	63.2205
16.31	63.0636
16.328	62.9318
16.346	62.8272
16.364	62.7513
16.382	62.7037
16.4	62.6823
16.418	62.6853
16.436	62.7084
16.454	62.7475
16.472	62.7994
16.49	62.8577
16.508	62.918
16.526	62.9764
16.544	63.0263
16.562	63.0642
16.58	63.0871
16.598	63.0921
16.616	63.0797
16.634	63.0499
16.652	63.0068
16.67	62.9541
16.688	62.8956
16.706	62.8387
16.724	62.7864
16.742	62.7435
16.76	62.713
16.778	62.6953
16.796	62.6907
16.814	62.6962
16.832	62.7099
16.85	62.7268
16.868	62.743
16.886	62.7553
16.904	62.7597
16.922	62.7556
16.94	62.7418
16.958	62.7212
16.976	62.6954
16.994	62.6691
17.012	62.6471
17.03	62.6326
17.048	62.6316
17.066	62.6454
17.084	62.6771
17.102	62.7258
17.12	62.7913
17.138	62.8694
17.156	62.9558
17.174	63.0463
17.192	63.1326
17.21	63.2118
17.228	63.277
17.246	63.3251
17.264	63.3532
17.282	63.3599
17.3	63.3458
17.318	63.3121
17.336	63.2629
17.354	63.2003
17.372	63.1317
17.39	63.0599
17.408	62.9913
17.426	62.93
17.444	62.8793
17.462	62.8426
17.48	62.8201
17.498	62.8129
17.516	62.8186
17.534	62.8363
17.552	62.861
17.57	62.8912
17.588	62.9211
17.606	62.9489
17.624	62.9707
17.642	62.9854
17.66	62.9917
17.678	62.99
17.696	62.9811
17.714	62.968
17.732	62.9529
17.75	62.9386
17.768	62.9293
17.786	62.9267
17.804	62.9345
17.822	62.953
17.84	62.9842
17.858	63.0269
17.876	63.0811
17.894	63.1436
17.912	63.2135
17.93	63.286
17.948	63.3602
17.966	63.4309
17.984	63.4968
18.002	63.5544
18.02	63.6025
18.038	63.6394
18.056	63.6648
18.074	63.6784
18.092	63.6812
18.11	63.6737
18.128	63.6581
18.146	63.6349
18.164	63.6066
18.182	63.574
18.2	63.5387
18.218	63.5021
18.236	63.465
18.254	63.4287
18.272	63.3935
18.29	63.3606
18.308	63.3301
18.326	63.3025
18.344	63.2779
18.362	63.2566
18.38	63.2384
18.398	63.2232
18.416	63.2109
18.434	63.201
18.452	63.1933
18.47	63.1874
18.488	63.1828
18.506	63.1791
18.524	63.176
18.542	63.1733
18.56	63.1705
18.578	63.1675
18.596	63.1644
18.614	63.1613
18.632	63.1585
18.65	63.1561
18.668	63.1552
18.686	63.1556
18.704	63.1583
18.722	63.1633
18.74	63.1717
18.758	63.1836
18.776	63.2
18.794	63.2209
18.812	63.247
18.83	63.2782
18.848	63.3146
18.866	63.3558
18.884	63.4012
18.902	63.4501
18.92	63.5012
18.938	63.5534
18.956	63.6049
18.974	63.6545
18.992	63.7
19.01	63.7405
19.028	63.774
19.046	63.7999
19.064	63.8167
19.082	63.8246
19.1	63.8227
19.118	63.8118
19.136	63.7922
19.154	63.7648
19.172	63.7311
19.19	63.6919
19.208	63.6497
19.226	63.6049
19.244	63.5606
19.262	63.5168
19.28	63.4762
19.298	63.4387
19.316	63.4062
19.334	63.3786
19.352	63.3564
19.37	63.3396
19.388	63.3279
19.406	63.3213
19.424	63.3183
19.442	63.319
19.46	63.3218
19.478	63.3264
19.496	63.3313
19.514	63.336
19.532	63.3394
19.55	63.3408
19.568	63.3397
19.586	63.3354
19.604	63.3277
19.622	63.3158
19.64	63.3
19.658	63.28
19.676	63.2559
19.694	63.2281
19.712	63.1964
19.73	63.162
19.748	63.125
19.766	63.0867
19.784	63.0474
19.802	63.0086
19.82	62.9712
19.838	62.9362
19.856	62.9056
19.874	62.8793
19.892	62.8594
19.91	62.8457
19.928	62.8396
19.946	62.8409
19.964	62.8496
19.982	62.8661
20	62.889
20.018	62.9184
20.036	62.953
20.054	62.9912
20.072	63.0329
20.09	63.0751
20.108	63.1183
20.126	63.1594
20.144	63.1986
20.162	63.234
20.18	63.2648
20.198	63.2907
20.216	63.3105
20.234	63.3245
20.252	63.3325
20.27	63.3345
20.288	63.3312
20.306	63.3224
20.324	63.3093
20.342	63.2926
20.36	63.2725
20.378	63.2508
20.396	63.227
20.414	63.2031
20.432	63.1788
20.45	63.1554
20.468	63.1335
20.486	63.113
20.504	63.095
20.522	63.0792
20.54	63.0659
20.558	63.0553
20.576	63.047
20.594	63.041
20.612	63.0372
20.63	63.0353
20.648	63.0354
20.666	63.037
20.684	63.0403
20.702	63.0451
20.72	63.051
20.738	63.0582
20.756	63.067
20.774	63.0771
20.792	63.089
20.81	63.1024
20.828	63.1179
20.846	63.136
20.864	63.1565
20.882	63.1804
20.9	63.2075
20.918	63.2384
20.936	63.2736
20.954	63.3131
20.972	63.3571
20.99	63.4058
21.008	63.4588
21.026	63.5163
21.044	63.5779
21.062	63.6429
21.08	63.7116
21.098	63.7823
21.116	63.8551
21.134	63.929
21.152	64.0023
21.17	64.0754
21.188	64.1462
21.206	64.2144
21.224	64.2794
21.242	64.3392
21.26	64.3945
21.278	64.4439
21.296	64.4869
21.314	64.5236
21.332	64.5531
21.35	64.5757
21.368	64.5915
21.386	64.6003
21.404	64.6025
21.422	64.5988
21.44	64.589
21.458	64.5741
21.476	64.5545
21.494	64.5304
21.512	64.5032
21.53	64.4726
21.548	64.4399
21.566	64.4061
21.584	64.371
21.602	64.3367
21.62	64.3028
21.638	64.2703
21.656	64.2408
21.674	64.2136
21.692	64.1903
21.71	64.1712
21.728	64.1563
21.746	64.147
21.764	64.143
21.782	64.1445
21.8	64.1519
21.818	64.165
21.836	64.1835
21.854	64.2078
21.872	64.2371
21.89	64.2705
21.908	64.3084
21.926	64.3494
21.944	64.3926
21.962	64.4383
21.98	64.484
21.998	64.5298
22.016	64.5751
22.034	64.6174
22.052	64.6578
22.07	64.6945
22.088	64.726
22.106	64.753
22.124	64.7737
22.142	64.7877
22.16	64.7951
22.178	64.7949
22.196	64.7871
22.214	64.7719
22.232	64.7493
22.25	64.7191
22.268	64.6822
22.286	64.639
22.304	64.5894
22.322	64.5352
22.34	64.4765
22.358	64.4136
22.376	64.3489
22.394	64.2816
22.412	64.2129
22.43	64.1446
22.448	64.0759
22.466	64.0084
22.484	63.9431
22.502	63.8794
22.52	63.8187
22.538	63.7614
22.556	63.7072
22.574	63.6563
22.592	63.6092
22.61	63.5653
22.628	63.5241
22.646	63.4859
22.664	63.45
22.682	63.4156
22.7	63.3829
22.718	63.3513
22.736	63.3196
22.754	63.2886
22.772	63.2571
22.79	63.224
22.808	63.19
22.826	63.1543
22.844	63.1162
22.862	63.0761
22.88	63.0341
22.898	62.99
22.916	62.9439
22.934	62.8967
22.952	62.8486
22.97	62.7996
22.988	62.7508
23.006	62.7024
23.024	62.6544
23.042	62.6082
23.06	62.564
23.078	62.5218
23.096	62.4824
23.114	62.4458
23.132	62.412
23.15	62.3818
23.168	62.3552
23.186	62.3319
23.204	62.3119
23.222	62.2952
23.24	62.2817
23.258	62.2713
23.276	62.2639
23.294	62.2597
23.312	62.2584
23.33	62.2599
23.348	62.2643
23.366	62.2721
23.384	62.2831
23.402	62.2974
23.42	62.3157
23.438	62.3378
23.456	62.3639
23.474	62.3947
23.492	62.4303
23.51	62.4706
23.528	62.5162
23.546	62.5677
23.564	62.6247
23.582	62.6867
23.6	62.7541
23.618	62.8267
23.636	62.9029
23.654	62.9823
23.672	63.0655
23.69	63.1497
23.708	63.2329
23.726	63.3172
23.744	63.3989
23.762	63.4749
23.78	63.5476
23.798	63.6138
23.816	63.6701
23.834	63.7182
23.852	63.7565
23.87	63.7819
23.888	63.7951
23.906	63.7959
23.924	63.7827
23.942	63.7549
23.96	63.7133
23.978	63.6578
23.996	63.5879
24.014	63.5037
24.032	63.4077
24.05	63.3011
24.068	63.1822
24.086	63.0548
24.104	62.9218
24.122	62.7812
24.14	62.6354
24.158	62.4879
24.176	62.3376
24.194	62.1851
24.212	62.0334
24.23	61.8829
24.248	61.7328
24.266	61.5844
24.284	61.4386
24.302	61.2947
24.32	61.1528
24.338	61.0131
24.356	60.8755
24.374	60.7399
24.392	60.6061
24.41	60.4739
24.428	60.3434
24.446	60.2149
24.464	60.0882
24.482	59.9631
24.5	59.8405
24.518	59.7211
24.536	59.6038
24.554	59.4901
24.572	59.3817
24.59	59.2776
24.608	59.1785
24.626	59.0872
24.644	59.005
24.662	58.9302
24.68	58.8652
24.698	58.8125
24.716	58.771
24.734	58.7408
24.752	58.7226
24.77	58.7172
24.788	58.7238
24.806	58.7414
24.824	58.7693
24.842	58.8088
24.86	58.8575
24.878	58.913
24.896	58.9773
24.914	59.0489
24.932	59.1231
24.95	59.1983
24.968	59.2776
24.986	59.3556
25.004	59.4266
25.022	59.4939
25.04	59.5557
25.058	59.6064
25.076	59.6434
25.094	59.6701
25.112	59.6828
25.13	59.6773
25.148	59.6551
25.166	59.6164
25.184	59.5596
25.202	59.4836
25.22	59.389
25.238	59.277
25.256	59.1482
25.274	59.0003
25.292	58.8356
25.31	58.6597
25.328	58.4744
25.346	58.2752
25.364	58.0697
25.382	57.8662
25.4	57.6608
25.418	57.454
25.436	57.2565
25.454	57.076
25.472	56.904
25.49	56.7475
25.508	56.6167
25.526	56.513
25.544	56.4313
25.562	56.38
25.58	56.3671
25.598	56.3888
25.616	56.4452
25.634	56.5408
25.652	56.6787
25.67	56.857
25.688	57.0743
25.706	57.3299
25.724	57.626
25.742	57.962
25.76	58.3311
25.778	58.7274
25.796	59.1583
25.814	59.6182
25.832	60.0955
25.85	60.5838
25.868	61.0941
25.886	61.6143
25.904	62.1294
25.922	62.6378
25.94	63.1477
25.958	63.6452
25.976	64.1164
25.994	64.5674
26.012	64.9989
26.03	65.3986
26.048	65.756
26.066	66.0797
26.084	66.3663
26.102	66.6071
26.12	66.7964
26.138	66.9404
26.156	67.0363
26.174	67.0798
26.192	67.0683
26.21	67.0041
26.228	66.8892
26.246	66.7256
26.264	66.5115
26.282	66.247
26.3	65.9376
26.318	65.5889
26.336	65.1964
26.354	64.7615
26.372	64.2928
26.39	63.7981
26.408	63.2708
26.426	62.7136
26.444	62.1351
26.462	61.5423
26.48	60.9272
26.498	60.2946
26.516	59.6534
26.534	59.01
26.552	58.3572
26.57	57.6989
26.588	57.0412
26.606	56.388
26.624	55.7346
26.642	55.0834
26.66	54.4379
26.678	53.8001
26.696	53.1677
26.714	52.5415
26.732	51.9227
26.75	51.3117
26.768	50.7071
26.786	50.1106
26.804	49.5237
26.822	48.9473
26.84	48.3801
26.858	47.8227
26.876	47.276
26.894	46.7402
26.912	46.2146
26.93	45.6998
26.948	45.1962
26.966	44.6849
26.984	44.1371
27.002	43.6249
27.02	43.2265
27.028	43.1186