File: Bakgrunnsmateriale/MATLAB/FTIR/ftir_data/subAa/Mapping_121/BZ1503107-1_t24.asc
PE IR       SPECTRUM    SPECTRUM    ASCII       PEDS        1.60
  -1
BZ2959~1.ASC
17/04/07
15:14:28.00
17/04/07
15:14:54.00
tln
$BZ1503107-1_t0024$<tbV0>[10.4,-7.8,8.0,0.0,27,1,0]
27.028
64

2002,4.07
MIRTGS : RIGHTBACK : INTERNAL 2
MIR : ON : INTERNAL 2
OPTKBR

0.200000
8
8.000000
FILLER
RATIO
SPECTRUM
UNLOCKED 256

DOUBLE
64
COMBINED
1
0
0

0.002000
RATIO

1
0
TRUE
51149
0
LEFT NOT FITTED RIGHT NOT FITTED 0
NONE
NONE
15600
12
4.427000
51148
TRUE
1 0 8 72 0 0 0 0

15798

#HDR
-1
-1
#GR
µM
%T
2.38419e-05
0.0
2.000000
0.002000
12515
8
89.7631
39.9932
#DATA
2.000000	 65.632
2.018000	 64.4235
2.036000	 64.5015
2.054000	 64.722
2.072000	 64.9606
2.090000	 65.2203
2.108000	 65.2799
2.126000	 65.3626
2.144000	 65.2413
2.162000	 64.7459
2.180000	 64.4982
2.198000	 64.5497
2.216000	 64.7494
2.234000	 64.4073
2.252000	 64.1654
2.270000	 66.9024
2.288000	 63.9799
2.306000	 64.4887
2.324000	 64.8012
2.342000	 64.8702
2.360000	 65.0099
2.378000	 64.789
2.396000	 64.7218
2.414000	 65.4051
2.432000	 65.2313
2.450000	 65.0988
2.468000	 65.1851
2.486000	 65.1917
2.504000	 65.3577
2.522000	 65.0479
2.540000	 65.062
2.558000	 65.2431
2.576000	 64.9838
2.594000	 65.0505
2.612000	 65.1528
2.630000	 65.2129
2.648000	 65.2356
2.666000	 65.1938
2.684000	 65.1141
2.702000	 65.0573
2.720000	 65.2097
2.738000	 65.3333
2.756000	 65.1355
2.774000	 65.1806
2.792000	 65.0498
2.810000	 65.0769
2.828000	 65.0476
2.846000	 65.1993
2.864000	 65.1277
2.882000	 65.2041
2.900000	 65.1634
2.918000	 65.0699
2.936000	 65.1276
2.954000	 65.0914
2.972000	 65.0843
2.990000	 65.2511
3.008000	 65.2206
3.026000	 65.1914
3.044000	 65.0407
3.062000	 65.2282
3.080000	 65.1708
3.098000	 65.0355
3.116000	 64.898
3.134000	 65.2087
3.152000	 65.15
3.170000	 65.1237
3.188000	 65.0027
3.206000	 64.957
3.224000	 65.1454
3.242000	 65.0375
3.260000	 65.1306
3.278000	 65.0779
3.296000	 64.9944
3.314000	 64.9797
3.332000	 65.1525
3.350000	 65.2163
3.368000	 64.9378
3.386000	 64.9176
3.404000	 64.9915
3.422000	 65.0534
3.440000	 65.1055
3.458000	 65.0406
3.476000	 64.9172
3.494000	 65.1536
3.512000	 64.9308
3.530000	 64.933
3.548000	 65.0232
3.566000	 65.0468
3.584000	 65.1819
3.602000	 65.1636
3.620000	 65.0879
3.638000	 65.276
3.656000	 65.0394
3.674000	 65.1009
3.692000	 64.9654
3.710000	 65.0935
3.728000	 64.9632
3.746000	 64.9555
3.764000	 65.0784
3.782000	 65.0483
3.800000	 65.0899
3.818000	 64.9486
3.836000	 65.0384
3.854000	 64.9874
3.872000	 64.9337
3.890000	 64.852
3.908000	 64.9597
3.926000	 64.8654
3.944000	 64.9824
3.962000	 65.019
3.980000	 65.016
3.998000	 65.0189
4.016000	 64.903
4.034000	 65.0445
4.052000	 64.9109
4.070000	 64.8158
4.088000	 65.0595
4.106000	 65.0602
4.124000	 65.0222
4.141999	 64.9469
4.160000	 64.8067
4.178000	 65.0824
4.196000	 64.9594
4.214000	 64.9443
4.232000	 64.917
4.250000	 64.9504
4.268000	 64.9838
4.286000	 64.8776
4.304000	 64.8607
4.322000	 64.9216
4.340000	 65.0014
4.358000	 64.8897
4.375999	 64.9909
4.394000	 64.93
4.412000	 64.871
4.430000	 64.9255
4.448000	 64.8649
4.466000	 64.8828
4.484000	 64.8648
4.502000	 64.7951
4.520000	 64.7798
4.538000	 64.9503
4.556000	 65.0646
4.574000	 64.8989
4.592000	 64.8452
4.609999	 64.847
4.628000	 64.9144
4.646000	 64.8814
4.664000	 64.816
4.682000	 64.8338
4.700000	 64.8639
4.718000	 64.8974
4.736000	 64.9517
4.754000	 64.8274
4.772000	 64.8633
4.790000	 64.8453
4.808000	 64.7612
4.826000	 64.8658
4.843999	 64.7937
4.862000	 64.8007
4.880000	 64.8095
4.898000	 64.8089
4.916000	 64.7963
4.934000	 64.8103
4.952000	 64.8884
4.970000	 64.9064
4.988000	 64.8548
5.006000	 64.8337
5.024000	 64.7122
5.042000	 64.8039
5.060000	 64.8322
5.077999	 64.8409
5.096000	 64.7592
5.114000	 64.6839
5.132000	 64.789
5.150000	 64.7321
5.168000	 64.7596
5.186000	 64.7509
5.204000	 64.7417
5.222000	 64.7086
5.240000	 64.7547
5.258000	 64.6916
5.276000	 64.7339
5.294000	 64.8479
5.312000	 64.7815
5.330000	 64.6851
5.348000	 64.6949
5.366000	 64.6531
5.384000	 64.6504
5.402000	 64.7359
5.420000	 64.693
5.438000	 64.7272
5.456000	 64.6336
5.474000	 64.6542
5.492000	 64.672
5.510000	 64.6688
5.528000	 64.6866
5.546000	 64.7324
5.564000	 64.6995
5.582000	 64.6899
5.600000	 64.606
5.618000	 64.5761
5.636000	 64.6138
5.654000	 64.6974
5.672000	 64.7008
5.690000	 64.5685
5.708000	 64.462
5.726000	 64.4625
5.744000	 64.4434
5.762000	 64.453
5.780000	 64.5076
5.798000	 64.4619
5.816000	 64.4805
5.834000	 64.5403
5.852000	 64.5869
5.870000	 64.6455
5.888000	 64.5859
5.906000	 64.5473
5.923999	 64.5688
5.942000	 64.5266
5.960000	 64.5643
5.978000	 64.6285
5.996000	 64.6666
6.014000	 64.6475
6.032000	 64.5669
6.050000	 64.5297
6.068000	 64.6162
6.086000	 64.5739
6.104000	 64.4189
6.122000	 64.3884
6.140000	 64.4929
6.158000	 64.5299
6.176000	 64.5354
6.194000	 64.548
6.212000	 64.5438
6.230000	 64.5427
6.248000	 64.4889
6.266000	 64.4951
6.284000	 64.4319
6.302000	 64.3325
6.320000	 64.4083
6.338000	 64.5033
6.356000	 64.5137
6.374000	 64.5363
6.392000	 64.567
6.410000	 64.5318
6.428000	 64.4527
6.446000	 64.4041
6.464000	 64.4224
6.482000	 64.4347
6.500000	 64.4517
6.518000	 64.4606
6.536000	 64.4797
6.554000	 64.5347
6.572000	 64.5763
6.590000	 64.6154
6.608000	 64.6543
6.626000	 64.6233
6.644000	 64.5465
6.662000	 64.5491
6.680000	 64.6166
6.698000	 64.6426
6.716000	 64.5557
6.734000	 64.446
6.752000	 64.4684
6.770000	 64.5327
6.788000	 64.4853
6.806000	 64.4019
6.824000	 64.3794
6.842000	 64.4475
6.860000	 64.5859
6.878000	 64.6594
6.896000	 64.5523
6.914000	 64.4013
6.932000	 64.4075
6.950000	 64.5191
6.968000	 64.5527
6.986000	 64.4957
7.004000	 64.4699
7.022000	 64.4682
7.040000	 64.4114
7.058000	 64.329
7.076000	 64.2907
7.094000	 64.3108
7.112000	 64.3394
7.130000	 64.322
7.148000	 64.2776
7.166000	 64.2671
7.184000	 64.3014
7.202000	 64.3346
7.220000	 64.3338
7.238000	 64.3168
7.256000	 64.3167
7.274000	 64.3392
7.292000	 64.3503
7.310000	 64.3266
7.328000	 64.2899
7.346000	 64.2802
7.364000	 64.3069
7.382000	 64.3205
7.400000	 64.2804
7.418000	 64.2397
7.436000	 64.2617
7.454000	 64.3259
7.472000	 64.3743
7.490000	 64.3734
7.508000	 64.3447
7.526000	 64.3423
7.544000	 64.3504
7.562000	 64.3089
7.580000	 64.2549
7.598000	 64.2673
7.616000	 64.3169
7.634000	 64.3397
7.652000	 64.3507
7.670000	 64.3787
7.688000	 64.4082
7.706000	 64.4267
7.724000	 64.435
7.742000	 64.4179
7.760000	 64.3584
7.778000	 64.2829
7.796000	 64.2507
7.814000	 64.2801
7.832000	 64.3175
7.850000	 64.3116
7.868000	 64.2814
7.886000	 64.2731
7.904000	 64.2882
7.922000	 64.2914
7.940000	 64.2718
7.958000	 64.2607
7.976000	 64.2816
7.994000	 64.3136
8.012000	 64.3305
8.030000	 64.3417
8.048000	 64.3569
8.065999	 64.359
8.084000	 64.3427
8.102000	 64.3304
8.120000	 64.3274
8.138000	 64.3112
8.155999	 64.274
8.173999	 64.2315
8.192000	 64.1925
8.210000	 64.1576
8.228000	 64.1349
8.246000	 64.1304
8.263999	 64.1396
8.282000	 64.1604
8.300000	 64.1941
8.318000	 64.2282
8.336000	 64.2461
8.353999	 64.2486
8.372000	 64.2442
8.390000	 64.23
8.408000	 64.1998
8.426000	 64.1698
8.443999	 64.1721
8.462000	 64.2151
8.480000	 64.2635
8.498000	 64.2701
8.516000	 64.2208
8.533999	 64.1412
8.552000	 64.0746
8.570000	 64.0614
8.588000	 64.117
8.606000	 64.2089
8.624000	 64.2707
8.641999	 64.2585
8.660000	 64.1881
8.678000	 64.1158
8.696000	 64.089
8.714000	 64.1152
8.731999	 64.1628
8.750000	 64.184
8.768000	 64.1551
8.786000	 64.1003
8.804000	 64.0573
8.821999	 64.031
8.840000	 64.0068
8.858000	 63.9922
8.876000	 64.0136
8.894000	 64.0771
8.911999	 64.1543
8.930000	 64.207
8.948000	 64.2234
8.966000	 64.2205
8.984000	 64.2135
9.001999	 64.1988
9.020000	 64.1733
9.038000	 64.1505
9.056000	 64.1401
9.074000	 64.134
9.092000	 64.1227
9.109999	 64.1171
9.128000	 64.1397
9.146000	 64.1951
9.164000	 64.2565
9.182000	 64.2833
9.199999	 64.2546
9.218000	 64.1876
9.236000	 64.1288
9.254000	 64.1218
9.272000	 64.1728
9.289999	 64.2426
9.308000	 64.28
9.326000	 64.2645
9.344000	 64.2185
9.362000	 64.1813
9.379999	 64.1755
9.398000	 64.195
9.416000	 64.2186
9.434000	 64.2296
9.452000	 64.225
9.469999	 64.212
9.488000	 64.1993
9.506000	 64.1831
9.524000	 64.1459
9.542000	 64.074
9.560000	 63.9797
9.577999	 63.9014
9.596000	 63.8753
9.614000	 63.909
9.632000	 63.9791
9.650000	 64.0512
9.667999	 64.1021
9.686000	 64.1247
9.704000	 64.1234
9.722000	 64.1093
9.740000	 64.101
9.757999	 64.1178
9.776000	 64.1667
9.794000	 64.2322
9.812000	 64.2818
9.830000	 64.2862
9.847999	 64.238
9.866000	 64.153
9.884000	 64.0577
9.902000	 63.9753
9.920000	 63.9202
9.937999	 63.8997
9.956000	 63.9152
9.974000	 63.9605
9.992000	 64.0234
10.01	64.088
10.028	64.1414
10.046	64.1782
10.064	64.199
10.082	64.2062
10.1	64.201
10.118	64.1853
10.136	64.1647
10.154	64.1484
10.172	64.1447
10.19	64.1553
10.208	64.175
10.226	64.196
10.244	64.2144
10.262	64.2322
10.28	64.2529
10.298	64.2753
10.316	64.2915
10.334	64.2932
10.352	64.2788
10.37	64.2551
10.388	64.2322
10.406	64.216
10.424	64.2064
10.442	64.2011
10.46	64.2007
10.478	64.2089
10.496	64.2293
10.514	64.2592
10.532	64.2882
10.55	64.3035
10.568	64.2969
10.586	64.2709
10.604	64.2374
10.622	64.2112
10.64	64.2015
10.658	64.2077
10.676	64.219
10.694	64.2232
10.712	64.2121
10.73	64.1872
10.748	64.1581
10.766	64.1372
10.784	64.1325
10.802	64.1444
10.82	64.1655
10.838	64.1841
10.856	64.1911
10.874	64.182
10.892	64.1592
10.91	64.129
10.928	64.0981
10.946	64.071
10.964	64.0494
10.982	64.0346
11	64.0289
11.018	64.0363
11.036	64.0602
11.054	64.1006
11.072	64.1529
11.09	64.2088
11.108	64.2603
11.126	64.3002
11.144	64.3239
11.162	64.329
11.18	64.316
11.198	64.2898
11.216	64.2586
11.234	64.2323
11.252	64.2206
11.27	64.2277
11.288	64.2512
11.306	64.283
11.324	64.3127
11.342	64.3312
11.36	64.3342
11.378	64.3232
11.396	64.303
11.414	64.2805
11.432	64.2628
11.45	64.2551
11.468	64.2594
11.486	64.2725
11.504	64.2861
11.522	64.2891
11.54	64.2728
11.558	64.2345
11.576	64.1803
11.594	64.124
11.612	64.0826
11.63	64.0693
11.648	64.0871
11.666	64.1275
11.684	64.1728
11.702	64.2042
11.72	64.2076
11.738	64.18
11.756	64.1289
11.774	64.0696
11.792	64.0198
11.81	63.9923
11.828	63.9923
11.846	64.0164
11.864	64.0547
11.882	64.096
11.9	64.1295
11.918	64.1487
11.936	64.1517
11.954	64.1407
11.972	64.1206
11.99	64.0974
12.008	64.0773
12.026	64.0657
12.044	64.0661
12.062	64.0788
12.08	64.1004
12.098	64.1249
12.116	64.1446
12.134	64.1525
12.152	64.1442
12.17	64.1196
12.188	64.0827
12.206	64.04
12.224	63.999
12.242	63.9654
12.26	63.9427
12.278	63.9321
12.296	63.9323
12.314	63.9408
12.332	63.9543
12.35	63.969
12.368	63.9808
12.386	63.986
12.404	63.9819
12.422	63.968
12.44	63.9465
12.458	63.9218
12.476	63.8999
12.494	63.8866
12.512	63.8853
12.53	63.8961
12.548	63.9154
12.566	63.9378
12.584	63.9573
12.602	63.9699
12.62	63.9744
12.638	63.9727
12.656	63.9693
12.674	63.9692
12.692	63.9765
12.71	63.9939
12.728	64.0224
12.746	64.0611
12.764	64.1079
12.782	64.1592
12.8	64.2109
12.818	64.2582
12.836	64.2962
12.854	64.3205
12.872	64.328
12.89	64.3177
12.908	64.2908
12.926	64.2513
12.944	64.205
12.962	64.1581
12.98	64.1162
12.998	64.0831
13.016	64.0601
13.034	64.0464
13.052	64.0393
13.07	64.0353
13.088	64.0307
13.106	64.0225
13.124	64.0087
13.142	63.9889
13.16	63.964
13.178	63.9369
13.196	63.9112
13.214	63.8906
13.232	63.8784
13.25	63.8765
13.268	63.885
13.286	63.9021
13.304	63.9247
13.322	63.9488
13.34	63.9701
13.358	63.9856
13.376	63.9936
13.394	63.9939
13.412	63.9874
13.43	63.9761
13.448	63.9618
13.466	63.946
13.484	63.9296
13.502	63.9127
13.52	63.8951
13.538	63.8769
13.556	63.8586
13.574	63.8411
13.592	63.8257
13.61	63.8142
13.628	63.8084
13.646	63.8098
13.664	63.8196
13.682	63.838
13.7	63.8649
13.718	63.8994
13.736	63.9404
13.754	63.986
13.772	64.0344
13.79	64.0828
13.808	64.1284
13.826	64.1684
13.844	64.2
13.862	64.2203
13.88	64.2272
13.898	64.2195
13.916	64.1976
13.934	64.1634
13.952	64.1199
13.97	64.0718
13.988	64.024
14.006	63.9818
14.024	63.95
14.042	63.9318
14.06	63.9288
14.078	63.9403
14.096	63.9639
14.114	63.9952
14.132	64.0293
14.15	64.0606
14.168	64.0841
14.186	64.0956
14.204	64.0924
14.222	64.0741
14.24	64.0422
14.258	64.0013
14.276	63.9564
14.294	63.914
14.312	63.8811
14.33	63.8644
14.348	63.8693
14.366	63.8993
14.384	63.955
14.402	64.0339
14.42	64.1308
14.438	64.2381
14.456	64.3469
14.474	64.4476
14.492	64.5312
14.51	64.5904
14.528	64.6212
14.546	64.6233
14.564	64.5988
14.582	64.553
14.6	64.493
14.618	64.4269
14.636	64.3635
14.654	64.3084
14.672	64.2655
14.69	64.2361
14.708	64.2184
14.726	64.209
14.744	64.2013
14.762	64.1892
14.78	64.1671
14.798	64.1311
14.816	64.0787
14.834	64.01
14.852	63.9273
14.87	63.8354
14.888	63.74
14.906	63.6473
14.924	63.5635
14.942	63.4938
14.96	63.4412
14.978	63.4072
14.996	63.3918
15.014	63.394
15.032	63.4118
15.05	63.4433
15.068	63.4866
15.086	63.5405
15.104	63.6043
15.122	63.6779
15.14	63.7606
15.158	63.8508
15.176	63.946
15.194	64.042
15.212	64.1328
15.23	64.2123
15.248	64.2751
15.266	64.3167
15.284	64.3339
15.302	64.3269
15.32	64.2991
15.338	64.2553
15.356	64.2029
15.374	64.1518
15.392	64.1089
15.41	64.0798
15.428	64.0688
15.446	64.075
15.464	64.0939
15.482	64.1193
15.5	64.1426
15.518	64.1522
15.536	64.141
15.554	64.1038
15.572	64.0376
15.59	63.9468
15.608	63.8394
15.626	63.7254
15.644	63.6197
15.662	63.5397
15.68	63.4982
15.698	63.5059
15.716	63.5718
15.734	63.6959
15.752	63.8734
15.77	64.0968
15.788	64.3489
15.806	64.6118
15.824	64.8695
15.842	65.1026
15.86	65.2931
15.878	65.432
15.896	65.5117
15.914	65.5297
15.932	65.4907
15.95	65.4005
15.968	65.2682
15.986	65.1079
16.004	64.9291
16.022	64.7419
16.04	64.5576
16.058	64.3813
16.076	64.2171
16.094	64.0685
16.112	63.936
16.13	63.8199
16.148	63.7202
16.166	63.6377
16.184	63.5732
16.202	63.5279
16.22	63.5047
16.238	63.5052
16.256	63.5309
16.274	63.5837
16.292	63.6624
16.31	63.766
16.328	63.8907
16.346	64.0314
16.364	64.1837
16.382	64.3396
16.4	64.4931
16.418	64.6395
16.436	64.772
16.454	64.8877
16.472	64.9841
16.49	65.059
16.508	65.1118
16.526	65.1424
16.544	65.1511
16.562	65.1386
16.58	65.1056
16.598	65.0535
16.616	64.9833
16.634	64.8962
16.652	64.7948
16.67	64.6811
16.688	64.557
16.706	64.4281
16.724	64.2975
16.742	64.1695
16.76	64.0501
16.778	63.9418
16.796	63.8493
16.814	63.7748
16.832	63.7197
16.85	63.6849
16.868	63.6691
16.886	63.6715
16.904	63.6889
16.922	63.7192
16.94	63.7593
16.958	63.8055
16.976	63.8565
16.994	63.9094
17.012	63.963
17.03	64.0165
17.048	64.0687
17.066	64.1195
17.084	64.1686
17.102	64.2152
17.12	64.2593
17.138	64.3001
17.156	64.3373
17.174	64.3702
17.192	64.3987
17.21	64.4229
17.228	64.4426
17.246	64.4588
17.264	64.4722
17.282	64.4846
17.3	64.4965
17.318	64.5096
17.336	64.5242
17.354	64.5407
17.372	64.5583
17.39	64.5764
17.408	64.5931
17.426	64.6056
17.444	64.6125
17.462	64.6094
17.48	64.5952
17.498	64.5668
17.516	64.5239
17.534	64.4654
17.552	64.3935
17.57	64.3089
17.588	64.2161
17.606	64.1177
17.624	64.0181
17.642	63.9225
17.66	63.8332
17.678	63.7561
17.696	63.6921
17.714	63.6448
17.732	63.6138
17.75	63.5996
17.768	63.6001
17.786	63.6148
17.804	63.6396
17.822	63.6734
17.84	63.7122
17.858	63.7548
17.876	63.7986
17.894	63.8426
17.912	63.8859
17.93	63.9285
17.948	63.9703
17.966	64.0121
17.984	64.054
18.002	64.0968
18.02	64.1399
18.038	64.1837
18.056	64.2262
18.074	64.267
18.092	64.3031
18.11	64.3341
18.128	64.3563
18.146	64.3691
18.164	64.3698
18.182	64.3578
18.2	64.3317
18.218	64.2918
18.236	64.2377
18.254	64.171
18.272	64.0918
18.29	64.0033
18.308	63.9059
18.326	63.8037
18.344	63.6974
18.362	63.5911
18.38	63.4859
18.398	63.3854
18.416	63.291
18.434	63.2052
18.452	63.1297
18.47	63.0658
18.488	63.0148
18.506	62.9773
18.524	62.9535
18.542	62.9439
18.56	62.9473
18.578	62.9636
18.596	62.9913
18.614	63.03
18.632	63.0769
18.65	63.1318
18.668	63.1919
18.686	63.257
18.704	63.324
18.722	63.3929
18.74	63.4615
18.758	63.5296
18.776	63.5954
18.794	63.6588
18.812	63.7187
18.83	63.7751
18.848	63.8273
18.866	63.8752
18.884	63.9182
18.902	63.9561
18.92	63.9883
18.938	64.0144
18.956	64.0336
18.974	64.0454
18.992	64.0489
19.01	64.0441
19.028	64.0303
19.046	64.0078
19.064	63.9765
19.082	63.9373
19.1	63.8909
19.118	63.8386
19.136	63.782
19.154	63.7223
19.172	63.6624
19.19	63.6029
19.208	63.5473
19.226	63.4956
19.244	63.4509
19.262	63.4129
19.28	63.3837
19.298	63.363
19.316	63.3512
19.334	63.3482
19.352	63.3529
19.37	63.3652
19.388	63.3831
19.406	63.4066
19.424	63.4332
19.442	63.4628
19.46	63.4926
19.478	63.5225
19.496	63.5505
19.514	63.5762
19.532	63.5987
19.55	63.6174
19.568	63.6326
19.586	63.644
19.604	63.6522
19.622	63.6576
19.64	63.6606
19.658	63.6625
19.676	63.6633
19.694	63.665
19.712	63.6672
19.73	63.6716
19.748	63.6781
19.766	63.6873
19.784	63.6996
19.802	63.7146
19.82	63.7325
19.838	63.7525
19.856	63.7741
19.874	63.797
19.892	63.8196
19.91	63.8421
19.928	63.8628
19.946	63.882
19.964	63.8982
19.982	63.9113
20	63.9208
20.018	63.9263
20.036	63.9278
20.054	63.9249
20.072	63.9179
20.09	63.9068
20.108	63.8916
20.126	63.8727
20.144	63.85
20.162	63.8237
20.18	63.7942
20.198	63.7613
20.216	63.7251
20.234	63.6856
20.252	63.643
20.27	63.5973
20.288	63.5489
20.306	63.4976
20.324	63.4444
20.342	63.3896
20.36	63.3339
20.378	63.2786
20.396	63.2235
20.414	63.1714
20.432	63.1218
20.45	63.0775
20.468	63.0392
20.486	63.008
20.504	62.9865
20.522	62.9741
20.54	62.9734
20.558	62.9843
20.576	63.0073
20.594	63.0434
20.612	63.0916
20.63	63.1512
20.648	63.2224
20.666	63.3021
20.684	63.3908
20.702	63.4853
20.72	63.5836
20.738	63.685
20.756	63.7846
20.774	63.8835
20.792	63.9767
20.81	64.0636
20.828	64.1427
20.846	64.2107
20.864	64.2684
20.882	64.3137
20.9	64.3465
20.918	64.3669
20.936	64.3747
20.954	64.3704
20.972	64.3559
20.99	64.3305
21.008	64.2972
21.026	64.2566
21.044	64.2097
21.062	64.1597
21.08	64.1058
21.098	64.0511
21.116	63.9962
21.134	63.9417
21.152	63.8899
21.17	63.8401
21.188	63.7936
21.206	63.751
21.224	63.712
21.242	63.6774
21.26	63.6468
21.278	63.6205
21.296	63.5984
21.314	63.5804
21.332	63.5667
21.35	63.5571
21.368	63.552
21.386	63.5513
21.404	63.5552
21.422	63.5644
21.44	63.5785
21.458	63.5984
21.476	63.6242
21.494	63.6559
21.512	63.694
21.53	63.7386
21.548	63.789
21.566	63.8452
21.584	63.9071
21.602	63.9726
21.62	64.0422
21.638	64.1144
21.656	64.1869
21.674	64.2606
21.692	64.3319
21.71	64.4002
21.728	64.4648
21.746	64.5218
21.764	64.5723
21.782	64.6138
21.8	64.6442
21.818	64.6645
21.836	64.6725
21.854	64.6679
21.872	64.6512
21.89	64.6221
21.908	64.5803
21.926	64.5277
21.944	64.465
21.962	64.392
21.98	64.3126
21.998	64.2263
22.016	64.1347
22.034	64.042
22.052	63.9465
22.07	63.8518
22.088	63.7606
22.106	63.6716
22.124	63.5888
22.142	63.5131
22.16	63.4443
22.178	63.3849
22.196	63.3347
22.214	63.2939
22.232	63.263
22.25	63.242
22.268	63.23
22.286	63.2266
22.304	63.232
22.322	63.244
22.34	63.2628
22.358	63.2876
22.376	63.3154
22.394	63.3472
22.412	63.3813
22.43	63.415
22.448	63.4496
22.466	63.4829
22.484	63.5131
22.502	63.5412
22.52	63.5656
22.538	63.5857
22.556	63.6018
22.574	63.6133
22.592	63.6198
22.61	63.6218
22.628	63.6201
22.646	63.6139
22.664	63.6044
22.682	63.5933
22.7	63.5796
22.718	63.5651
22.736	63.5522
22.754	63.5395
22.772	63.5296
22.79	63.5248
22.808	63.5237
22.826	63.5289
22.844	63.5422
22.862	63.5626
22.88	63.5918
22.898	63.631
22.916	63.6793
22.934	63.7372
22.952	63.8049
22.97	63.8821
22.988	63.9674
23.006	64.0613
23.024	64.1631
23.042	64.2696
23.06	64.3812
23.078	64.4971
23.096	64.6133
23.114	64.7304
23.132	64.8476
23.15	64.9597
23.168	65.0677
23.186	65.1706
23.204	65.2638
23.222	65.348
23.24	65.4225
23.258	65.4836
23.276	65.5314
23.294	65.5661
23.312	65.5854
23.33	65.5894
23.348	65.5784
23.366	65.5521
23.384	65.5099
23.402	65.4527
23.42	65.3822
23.438	65.2979
23.456	65.2004
23.474	65.0927
23.492	64.9747
23.51	64.8464
23.528	64.7114
23.546	64.57
23.564	64.4217
23.582	64.2707
23.6	64.1178
23.618	63.9619
23.636	63.8075
23.654	63.6566
23.672	63.5075
23.69	63.3631
23.708	63.2258
23.726	63.0939
23.744	62.9688
23.762	62.8517
23.78	62.7419
23.798	62.6399
23.816	62.5466
23.834	62.4615
23.852	62.3848
23.87	62.3171
23.888	62.259
23.906	62.2094
23.924	62.1668
23.942	62.1316
23.96	62.1036
23.978	62.0797
23.996	62.0594
24.014	62.0436
24.032	62.0296
24.05	62.0154
24.068	62.0026
24.086	61.9897
24.104	61.975
24.122	61.9591
24.14	61.9421
24.158	61.9242
24.176	61.9044
24.194	61.8838
24.212	61.8645
24.23	61.846
24.248	61.8282
24.266	61.8142
24.284	61.8055
24.302	61.8004
24.32	61.8016
24.338	61.8115
24.356	61.8283
24.374	61.8536
24.392	61.8901
24.41	61.9381
24.428	61.9968
24.446	62.0663
24.464	62.1479
24.482	62.2414
24.5	62.3433
24.518	62.4508
24.536	62.5675
24.554	62.6886
24.572	62.8075
24.59	62.9267
24.608	63.0452
24.626	63.156
24.644	63.2564
24.662	63.3501
24.68	63.4315
24.698	63.4951
24.716	63.5448
24.734	63.5779
24.752	63.5892
24.77	63.5776
24.788	63.5451
24.806	63.4911
24.824	63.4145
24.842	63.3144
24.86	63.1945
24.878	63.0592
24.896	62.9045
24.914	62.7332
24.932	62.5543
24.95	62.3716
24.968	62.1792
24.986	61.9862
25.004	61.8019
25.022	61.6198
25.04	61.4441
25.058	61.2865
25.076	61.1517
25.094	61.0325
25.112	60.9384
25.13	60.8789
25.148	60.8484
25.166	60.8492
25.184	60.8899
25.202	60.9745
25.22	61.0981
25.238	61.2642
25.256	61.4766
25.274	61.7339
25.292	62.0358
25.31	62.3841
25.328	62.7804
25.346	63.2235
25.364	63.7127
25.382	64.2469
25.4	64.8276
25.418	65.4537
25.436	66.1216
25.454	66.8295
25.472	67.581
25.49	68.371
25.508	69.1932
25.526	70.0479
25.544	70.938
25.562	71.854
25.58	72.7876
25.598	73.7465
25.616	74.7258
25.634	75.7126
25.652	76.7005
25.67	77.7006
25.688	78.6999
25.706	79.6826
25.724	80.6514
25.742	81.6115
25.76	82.5446
25.778	83.4344
25.796	84.2937
25.814	85.1167
25.832	85.8861
25.85	86.5913
25.868	87.2467
25.886	87.8405
25.904	88.3571
25.922	88.7932
25.94	89.1578
25.958	89.4415
25.976	89.6347
25.994	89.7401
26.012	89.7599
26.03	89.6897
26.048	89.5253
26.066	89.2663
26.084	88.917
26.102	88.482
26.12	87.963
26.138	87.355
26.156	86.6658
26.174	85.9046
26.192	85.0721
26.21	84.1612
26.228	83.1865
26.246	82.1629
26.264	81.0878
26.282	79.9559
26.3	78.7829
26.318	77.5837
26.336	76.35
26.354	75.0822
26.372	73.7954
26.39	72.5034
26.408	71.1961
26.426	69.8762
26.444	68.556
26.462	67.245
26.48	65.9336
26.498	64.6263
26.516	63.3332
26.534	62.0611
26.552	60.8019
26.57	59.5601
26.588	58.3426
26.606	57.1538
26.624	55.9875
26.642	54.8476
26.66	53.7398
26.678	52.6667
26.696	51.6234
26.714	50.6135
26.732	49.6419
26.75	48.7104
26.768	47.8142
26.786	46.9576
26.804	46.1458
26.822	45.381
26.84	44.6587
26.858	43.9818
26.876	43.3536
26.894	42.7761
26.912	42.2471
26.93	41.7661
26.948	41.333
26.966	40.9427
26.984	40.588
27.002	40.2868
27.02	40.0584
27.028	39.9932