File: Bakgrunnsmateriale/MATLAB/FTIR/ftir_data/subAa/Mapping_121/BZ1503107-1_t55.asc
PE IR       SPECTRUM    SPECTRUM    ASCII       PEDS        1.60
  -1
BZ2D53~1.ASC
17/04/07
17:45:15.00
17/04/07
17:45:41.00
tln
$BZ1503107-1_t0055$<tbV0>[-13.0,-2.6,8.0,0.0,27,1,0]
27.028
64

2002,4.07
MIRTGS : RIGHTBACK : INTERNAL 2
MIR : ON : INTERNAL 2
OPTKBR

0.200000
8
8.000000
FILLER
RATIO
SPECTRUM
UNLOCKED 256

DOUBLE
64
COMBINED
1
0
0

0.002000
RATIO

1
0
TRUE
51149
0
LEFT NOT FITTED RIGHT NOT FITTED 0
NONE
NONE
15600
12
4.427000
51148
TRUE
1 0 8 72 0 0 0 0

15798

#HDR
-1
-1
#GR
µM
%T
2.38419e-05
0.0
2.000000
0.002000
12515
8
77.0812
51.7392
#DATA
2.000000	 66.8718
2.018000	 64.168
2.036000	 64.9223
2.054000	 65.0259
2.072000	 64.622
2.090000	 64.6263
2.108000	 64.827
2.126000	 65.1013
2.144000	 64.7548
2.162000	 64.9855
2.180000	 64.7168
2.198000	 65.3779
2.216000	 64.8999
2.234000	 65.0021
2.252000	 53.9318
2.270000	 65.3983
2.288000	 65.0241
2.306000	 65.0678
2.324000	 65.0188
2.342000	 65.0068
2.360000	 65.0985
2.378000	 65.2388
2.396000	 64.838
2.414000	 64.9043
2.432000	 65.065
2.450000	 64.979
2.468000	 65.0096
2.486000	 65.1363
2.504000	 65.0614
2.522000	 65.1657
2.540000	 65.1259
2.558000	 65.22
2.576000	 65.0289
2.594000	 64.9941
2.612000	 65.3147
2.630000	 65.0431
2.648000	 65.0904
2.666000	 65.0729
2.684000	 64.9497
2.702000	 65.0403
2.720000	 65.2453
2.738000	 65.113
2.756000	 65.1432
2.774000	 65.2152
2.792000	 65.0368
2.810000	 65.1482
2.828000	 65.3351
2.846000	 65.3583
2.864000	 65.234
2.882000	 65.0863
2.900000	 65.1492
2.918000	 65.1017
2.936000	 65.0226
2.954000	 65.1053
2.972000	 65.0572
2.990000	 65.037
3.008000	 65.1521
3.026000	 65.1179
3.044000	 65.0808
3.062000	 64.9444
3.080000	 65.0137
3.098000	 65.0404
3.116000	 65.1045
3.134000	 65.2385
3.152000	 65.1886
3.170000	 65.0622
3.188000	 64.9393
3.206000	 65.0341
3.224000	 65.1452
3.242000	 64.818
3.260000	 64.996
3.278000	 64.9721
3.296000	 65.0412
3.314000	 65.0971
3.332000	 65.0185
3.350000	 64.9596
3.368000	 64.7354
3.386000	 64.7159
3.404000	 64.6748
3.422000	 64.8169
3.440000	 64.9182
3.458000	 64.9882
3.476000	 64.9232
3.494000	 64.9652
3.512000	 64.9526
3.530000	 64.8837
3.548000	 64.9186
3.566000	 64.9904
3.584000	 64.9592
3.602000	 65.0663
3.620000	 64.941
3.638000	 65.0126
3.656000	 64.9805
3.674000	 64.928
3.692000	 65.0537
3.710000	 64.9704
3.728000	 64.9986
3.746000	 64.9704
3.764000	 64.872
3.782000	 64.9021
3.800000	 64.9807
3.818000	 64.9474
3.836000	 64.8828
3.854000	 65.0116
3.872000	 64.9597
3.890000	 64.9031
3.908000	 64.7634
3.926000	 64.9522
3.944000	 64.8598
3.962000	 64.8814
3.980000	 64.936
3.998000	 65.018
4.016000	 64.9743
4.034000	 64.9228
4.052000	 64.7933
4.070000	 64.8818
4.088000	 64.9603
4.106000	 64.9543
4.124000	 64.8833
4.141999	 64.9064
4.160000	 64.7598
4.178000	 64.8999
4.196000	 64.8563
4.214000	 64.8149
4.232000	 64.8225
4.250000	 64.7279
4.268000	 64.7549
4.286000	 64.8519
4.304000	 64.8258
4.322000	 64.8475
4.340000	 64.7502
4.358000	 64.8094
4.375999	 64.7451
4.394000	 64.6643
4.412000	 64.7431
4.430000	 64.8746
4.448000	 64.7769
4.466000	 64.8353
4.484000	 64.7242
4.502000	 64.7504
4.520000	 64.8194
4.538000	 64.7913
4.556000	 64.8075
4.574000	 64.7138
4.592000	 64.7231
4.609999	 64.7345
4.628000	 64.7852
4.646000	 64.7057
4.664000	 64.716
4.682000	 64.697
4.700000	 64.7055
4.718000	 64.7146
4.736000	 64.6993
4.754000	 64.6407
4.772000	 64.6682
4.790000	 64.5877
4.808000	 64.7036
4.826000	 64.6585
4.843999	 64.7004
4.862000	 64.7514
4.880000	 64.7087
4.898000	 64.6613
4.916000	 64.6265
4.934000	 64.6489
4.952000	 64.7091
4.970000	 64.7295
4.988000	 64.6842
5.006000	 64.609
5.024000	 64.6672
5.042000	 64.7422
5.060000	 64.6712
5.077999	 64.6237
5.096000	 64.481
5.114000	 64.4959
5.132000	 64.6123
5.150000	 64.6155
5.168000	 64.62
5.186000	 64.6042
5.204000	 64.573
5.222000	 64.5821
5.240000	 64.6807
5.258000	 64.6156
5.276000	 64.569
5.294000	 64.6297
5.312000	 64.5758
5.330000	 64.6111
5.348000	 64.5872
5.366000	 64.5905
5.384000	 64.6125
5.402000	 64.6174
5.420000	 64.5736
5.438000	 64.5133
5.456000	 64.4333
5.474000	 64.4136
5.492000	 64.4335
5.510000	 64.4937
5.528000	 64.5401
5.546000	 64.5074
5.564000	 64.4975
5.582000	 64.571
5.600000	 64.5403
5.618000	 64.5101
5.636000	 64.4706
5.654000	 64.4416
5.672000	 64.4307
5.690000	 64.3608
5.708000	 64.2291
5.726000	 64.0647
5.744000	 63.9053
5.762000	 63.7737
5.780000	 63.7499
5.798000	 63.9602
5.816000	 64.1103
5.834000	 64.1994
5.852000	 64.2729
5.870000	 64.3133
5.888000	 64.3242
5.906000	 64.3666
5.923999	 64.3444
5.942000	 64.2995
5.960000	 64.3155
5.978000	 64.2964
5.996000	 64.3109
6.014000	 64.3535
6.032000	 64.3434
6.050000	 64.371
6.068000	 64.4385
6.086000	 64.352
6.104000	 64.2532
6.122000	 64.3339
6.140000	 64.3692
6.158000	 64.3031
6.176000	 64.2993
6.194000	 64.3433
6.212000	 64.2975
6.230000	 64.2842
6.248000	 64.3711
6.266000	 64.3868
6.284000	 64.3426
6.302000	 64.3243
6.320000	 64.3638
6.338000	 64.3689
6.356000	 64.3277
6.374000	 64.3154
6.392000	 64.2666
6.410000	 64.2711
6.428000	 64.3429
6.446000	 64.3573
6.464000	 64.2791
6.482000	 64.2298
6.500000	 64.2884
6.518000	 64.2632
6.536000	 64.1774
6.554000	 64.1943
6.572000	 64.267
6.590000	 64.3222
6.608000	 64.3505
6.626000	 64.3479
6.644000	 64.3457
6.662000	 64.3408
6.680000	 64.3171
6.698000	 64.2769
6.716000	 64.2188
6.734000	 64.2161
6.752000	 64.2543
6.770000	 64.2416
6.788000	 64.1668
6.806000	 64.1235
6.824000	 64.1795
6.842000	 64.2554
6.860000	 64.238
6.878000	 64.1378
6.896000	 64.0603
6.914000	 64.0989
6.932000	 64.1891
6.950000	 64.1948
6.968000	 64.1473
6.986000	 64.1591
7.004000	 64.2221
7.022000	 64.2714
7.040000	 64.2497
7.058000	 64.1309
7.076000	 64.0313
7.094000	 64.0775
7.112000	 64.1922
7.130000	 64.2456
7.148000	 64.2453
7.166000	 64.2451
7.184000	 64.2272
7.202000	 64.1665
7.220000	 64.1028
7.238000	 64.0563
7.256000	 64.0056
7.274000	 63.986
7.292000	 64.0367
7.310000	 64.106
7.328000	 64.1293
7.346000	 64.1078
7.364000	 64.0724
7.382000	 64.046
7.400000	 64.0425
7.418000	 64.0576
7.436000	 64.0727
7.454000	 64.0823
7.472000	 64.0903
7.490000	 64.0925
7.508000	 64.0963
7.526000	 64.1275
7.544000	 64.1844
7.562000	 64.2191
7.580000	 64.1988
7.598000	 64.1429
7.616000	 64.0772
7.634000	 64.0199
7.652000	 64.0045
7.670000	 64.0493
7.688000	 64.112
7.706000	 64.1249
7.724000	 64.0789
7.742000	 64.0336
7.760000	 64.0359
7.778000	 64.0645
7.796000	 64.0713
7.814000	 64.0386
7.832000	 63.98
7.850000	 63.9253
7.868000	 63.9138
7.886000	 63.96
7.904000	 64.0185
7.922000	 64.0252
7.940000	 63.9761
7.958000	 63.9216
7.976000	 63.8961
7.994000	 63.885
8.012000	 63.865
8.030000	 63.8442
8.048000	 63.8369
8.065999	 63.8273
8.084000	 63.7979
8.102000	 63.7665
8.120000	 63.761
8.138000	 63.7787
8.155999	 63.8038
8.173999	 63.842
8.192000	 63.8979
8.210000	 63.9397
8.228000	 63.932
8.246000	 63.8868
8.263999	 63.848
8.282000	 63.8434
8.300000	 63.8649
8.318000	 63.8824
8.336000	 63.8675
8.353999	 63.8203
8.372000	 63.7744
8.390000	 63.7648
8.408000	 63.7934
8.426000	 63.8327
8.443999	 63.8545
8.462000	 63.8476
8.480000	 63.8202
8.498000	 63.7889
8.516000	 63.7585
8.533999	 63.7178
8.552000	 63.6641
8.570000	 63.6145
8.588000	 63.5823
8.606000	 63.5656
8.624000	 63.5696
8.641999	 63.6147
8.660000	 63.7023
8.678000	 63.7908
8.696000	 63.8323
8.714000	 63.8215
8.731999	 63.7917
8.750000	 63.776
8.768000	 63.7838
8.786000	 63.8051
8.804000	 63.823
8.821999	 63.8249
8.840000	 63.8093
8.858000	 63.7888
8.876000	 63.7802
8.894000	 63.7942
8.911999	 63.831
8.930000	 63.8813
8.948000	 63.9272
8.966000	 63.9501
8.984000	 63.9458
9.001999	 63.9302
9.020000	 63.9223
9.038000	 63.9259
9.056000	 63.932
9.074000	 63.9365
9.092000	 63.9465
9.109999	 63.9637
9.128000	 63.9733
9.146000	 63.9569
9.164000	 63.9139
9.182000	 63.8633
9.199999	 63.828
9.218000	 63.8202
9.236000	 63.8357
9.254000	 63.8552
9.272000	 63.8599
9.289999	 63.8485
9.308000	 63.8382
9.326000	 63.846
9.344000	 63.8674
9.362000	 63.8807
9.379999	 63.8727
9.398000	 63.8546
9.416000	 63.8472
9.434000	 63.8553
9.452000	 63.8624
9.469999	 63.8481
9.488000	 63.8087
9.506000	 63.76
9.524000	 63.7218
9.542000	 63.7037
9.560000	 63.7023
9.577999	 63.7105
9.596000	 63.7257
9.614000	 63.7483
9.632000	 63.7752
9.650000	 63.7977
9.667999	 63.8073
9.686000	 63.8053
9.704000	 63.8049
9.722000	 63.8196
9.740000	 63.851
9.757999	 63.8843
9.776000	 63.8973
9.794000	 63.8768
9.812000	 63.8277
9.830000	 63.7681
9.847999	 63.7176
9.866000	 63.6876
9.884000	 63.6807
9.902000	 63.6936
9.920000	 63.7215
9.937999	 63.762
9.956000	 63.8159
9.974000	 63.8834
9.992000	 63.9603
10.01	64.0335
10.028	64.0848
10.046	64.0997
10.064	64.0777
10.082	64.0348
10.1	63.9967
10.118	63.9872
10.136	64.0156
10.154	64.0751
10.172	64.1456
10.19	64.2018
10.208	64.224
10.226	64.2045
10.244	64.1488
10.262	64.0723
10.28	63.9911
10.298	63.9174
10.316	63.8574
10.334	63.8143
10.352	63.7912
10.37	63.7903
10.388	63.8088
10.406	63.8382
10.424	63.8668
10.442	63.8861
10.46	63.8937
10.478	63.8914
10.496	63.8816
10.514	63.8653
10.532	63.8426
10.55	63.8149
10.568	63.7858
10.586	63.7602
10.604	63.7419
10.622	63.7334
10.64	63.7358
10.658	63.7505
10.676	63.7769
10.694	63.8104
10.712	63.8418
10.73	63.8603
10.748	63.859
10.766	63.8405
10.784	63.8156
10.802	63.7985
10.82	63.7985
10.838	63.8144
10.856	63.8366
10.874	63.8527
10.892	63.8562
10.91	63.8498
10.928	63.8431
10.946	63.8468
10.964	63.8658
10.982	63.8987
11	63.9404
11.018	63.9858
11.036	64.0309
11.054	64.0713
11.072	64.1005
11.09	64.1094
11.108	64.0908
11.126	64.0426
11.144	63.9703
11.162	63.8881
11.18	63.8124
11.198	63.759
11.216	63.737
11.234	63.7467
11.252	63.7808
11.27	63.8276
11.288	63.8733
11.306	63.9071
11.324	63.9233
11.342	63.9227
11.36	63.9112
11.378	63.898
11.396	63.8902
11.414	63.8914
11.432	63.9009
11.45	63.9148
11.468	63.9277
11.486	63.9366
11.504	63.9406
11.522	63.9414
11.54	63.9417
11.558	63.9443
11.576	63.9511
11.594	63.9628
11.612	63.9799
11.63	64.0023
11.648	64.0289
11.666	64.0575
11.684	64.0844
11.702	64.1049
11.72	64.1143
11.738	64.1093
11.756	64.0891
11.774	64.0555
11.792	64.0118
11.81	63.9621
11.828	63.9105
11.846	63.8616
11.864	63.8202
11.882	63.7905
11.9	63.7764
11.918	63.78
11.936	63.8002
11.954	63.8337
11.972	63.8752
11.99	63.9184
12.008	63.9591
12.026	63.9949
12.044	64.0252
12.062	64.05
12.08	64.0688
12.098	64.0802
12.116	64.0835
12.134	64.0795
12.152	64.0715
12.17	64.0638
12.188	64.0602
12.206	64.0623
12.224	64.0683
12.242	64.0736
12.26	64.0726
12.278	64.0605
12.296	64.035
12.314	63.9969
12.332	63.9502
12.35	63.9006
12.368	63.8543
12.386	63.8166
12.404	63.7904
12.422	63.7764
12.44	63.773
12.458	63.777
12.476	63.7848
12.494	63.7924
12.512	63.7972
12.53	63.7984
12.548	63.7971
12.566	63.795
12.584	63.7945
12.602	63.7968
12.62	63.8016
12.638	63.8075
12.656	63.8126
12.674	63.8157
12.692	63.8161
12.71	63.8148
12.728	63.8131
12.746	63.8125
12.764	63.8136
12.782	63.8161
12.8	63.8191
12.818	63.8208
12.836	63.8195
12.854	63.8142
12.872	63.8053
12.89	63.7938
12.908	63.7811
12.926	63.7688
12.944	63.7579
12.962	63.7486
12.98	63.7403
12.998	63.7318
13.016	63.7212
13.034	63.7067
13.052	63.687
13.07	63.6615
13.088	63.6308
13.106	63.596
13.124	63.5594
13.142	63.5234
13.16	63.4902
13.178	63.4614
13.196	63.4375
13.214	63.4186
13.232	63.404
13.25	63.3939
13.268	63.3886
13.286	63.39
13.304	63.4006
13.322	63.4229
13.34	63.4582
13.358	63.506
13.376	63.5626
13.394	63.6221
13.412	63.6766
13.43	63.7182
13.448	63.7408
13.466	63.7414
13.484	63.7215
13.502	63.6861
13.52	63.643
13.538	63.601
13.556	63.5677
13.574	63.548
13.592	63.5434
13.61	63.5519
13.628	63.5694
13.646	63.5905
13.664	63.6107
13.682	63.6271
13.7	63.6391
13.718	63.6473
13.736	63.6537
13.754	63.6595
13.772	63.6654
13.79	63.6706
13.808	63.6731
13.826	63.6707
13.844	63.6616
13.862	63.6453
13.88	63.6229
13.898	63.5974
13.916	63.5727
13.934	63.5529
13.952	63.5416
13.97	63.5401
13.988	63.5475
14.006	63.5607
14.024	63.575
14.042	63.5849
14.06	63.5855
14.078	63.5737
14.096	63.5484
14.114	63.5115
14.132	63.4667
14.15	63.4192
14.168	63.3745
14.186	63.3374
14.204	63.311
14.222	63.2963
14.24	63.2919
14.258	63.2947
14.276	63.3008
14.294	63.3064
14.312	63.309
14.33	63.3078
14.348	63.304
14.366	63.3002
14.384	63.3002
14.402	63.3074
14.42	63.3237
14.438	63.3492
14.456	63.3818
14.474	63.4172
14.492	63.4498
14.51	63.473
14.528	63.482
14.546	63.4743
14.564	63.4503
14.582	63.413
14.6	63.3679
14.618	63.3222
14.636	63.2836
14.654	63.2575
14.672	63.2471
14.69	63.2527
14.708	63.2718
14.726	63.3003
14.744	63.3316
14.762	63.3601
14.78	63.3813
14.798	63.3921
14.816	63.3913
14.834	63.3795
14.852	63.3589
14.87	63.3324
14.888	63.3028
14.906	63.2725
14.924	63.2434
14.942	63.2168
14.96	63.1935
14.978	63.1744
14.996	63.1606
15.014	63.1535
15.032	63.1553
15.05	63.1681
15.068	63.1935
15.086	63.2323
15.104	63.2842
15.122	63.3469
15.14	63.4164
15.158	63.4883
15.176	63.5578
15.194	63.6194
15.212	63.6682
15.23	63.7015
15.248	63.7177
15.266	63.7166
15.284	63.7005
15.302	63.673
15.32	63.6377
15.338	63.5984
15.356	63.5588
15.374	63.5221
15.392	63.4898
15.41	63.4627
15.428	63.4408
15.446	63.4226
15.464	63.4065
15.482	63.3911
15.5	63.3752
15.518	63.3589
15.536	63.3431
15.554	63.3291
15.572	63.3184
15.59	63.3131
15.608	63.314
15.626	63.3219
15.644	63.3363
15.662	63.355
15.68	63.3752
15.698	63.3936
15.716	63.4052
15.734	63.406
15.752	63.3933
15.77	63.365
15.788	63.3203
15.806	63.2614
15.824	63.1911
15.842	63.1137
15.86	63.0369
15.878	62.9668
15.896	62.9098
15.914	62.8739
15.932	62.8641
15.95	62.8837
15.968	62.935
15.986	63.0166
16.004	63.1248
16.022	63.2546
16.04	63.3967
16.058	63.5418
16.076	63.6814
16.094	63.8036
16.112	63.8989
16.13	63.961
16.148	63.9828
16.166	63.9613
16.184	63.8965
16.202	63.7891
16.22	63.6455
16.238	63.4724
16.256	63.2768
16.274	63.0721
16.292	62.8675
16.31	62.6716
16.328	62.4969
16.346	62.3503
16.364	62.2376
16.382	62.1646
16.4	62.1315
16.418	62.1384
16.436	62.1819
16.454	62.2561
16.472	62.3566
16.49	62.474
16.508	62.6013
16.526	62.7329
16.544	62.8601
16.562	62.9788
16.58	63.0858
16.598	63.1785
16.616	63.2577
16.634	63.3238
16.652	63.3803
16.67	63.4292
16.688	63.4729
16.706	63.5142
16.724	63.5534
16.742	63.5909
16.76	63.6247
16.778	63.6535
16.796	63.6738
16.814	63.6825
16.832	63.6778
16.85	63.657
16.868	63.6202
16.886	63.5674
16.904	63.5025
16.922	63.4292
16.94	63.3525
16.958	63.2815
16.976	63.2202
16.994	63.1778
17.012	63.1587
17.03	63.1669
17.048	63.206
17.066	63.2751
17.084	63.374
17.102	63.4972
17.12	63.6419
17.138	63.7991
17.156	63.9622
17.174	64.1248
17.192	64.2765
17.21	64.414
17.228	64.5294
17.246	64.6197
17.264	64.6818
17.282	64.7134
17.3	64.7147
17.318	64.6861
17.336	64.6302
17.354	64.5484
17.372	64.4464
17.39	64.3267
17.408	64.1948
17.426	64.056
17.444	63.914
17.462	63.7757
17.48	63.6433
17.498	63.5235
17.516	63.4182
17.534	63.3302
17.552	63.2614
17.57	63.212
17.588	63.1811
17.606	63.1668
17.624	63.1669
17.642	63.1769
17.66	63.1948
17.678	63.2133
17.696	63.2308
17.714	63.2416
17.732	63.2441
17.75	63.2352
17.768	63.2151
17.786	63.1833
17.804	63.1418
17.822	63.0918
17.84	63.0381
17.858	62.9836
17.876	62.932
17.894	62.8887
17.912	62.8557
17.93	62.838
17.948	62.836
17.966	62.8527
17.984	62.8874
18.002	62.9401
18.02	63.0085
18.038	63.0914
18.056	63.1847
18.074	63.2869
18.092	63.3928
18.11	63.5014
18.128	63.6079
18.146	63.7115
18.164	63.8085
18.182	63.8982
18.2	63.9788
18.218	64.0499
18.236	64.1111
18.254	64.1628
18.272	64.2049
18.29	64.2388
18.308	64.2646
18.326	64.2834
18.344	64.2956
18.362	64.3023
18.38	64.3036
18.398	64.2998
18.416	64.2912
18.434	64.2785
18.452	64.2613
18.47	64.2396
18.488	64.2133
18.506	64.1825
18.524	64.1466
18.542	64.1053
18.56	64.0588
18.578	64.0069
18.596	63.9499
18.614	63.8878
18.632	63.8211
18.65	63.7498
18.668	63.6757
18.686	63.5989
18.704	63.5216
18.722	63.4444
18.74	63.3705
18.758	63.3008
18.776	63.2393
18.794	63.1867
18.812	63.147
18.83	63.1208
18.848	63.1112
18.866	63.1177
18.884	63.1421
18.902	63.1828
18.92	63.2395
18.938	63.3096
18.956	63.3904
18.974	63.4786
18.992	63.5699
19.01	63.6609
19.028	63.7462
19.046	63.8234
19.064	63.8872
19.082	63.9367
19.1	63.9678
19.118	63.981
19.136	63.9746
19.154	63.9503
19.172	63.9093
19.19	63.8536
19.208	63.7871
19.226	63.7111
19.244	63.6317
19.262	63.5492
19.28	63.4697
19.298	63.3929
19.316	63.3234
19.334	63.2606
19.352	63.2064
19.37	63.1605
19.388	63.122
19.406	63.0912
19.424	63.0652
19.442	63.0441
19.46	63.0253
19.478	63.0086
19.496	62.9922
19.514	62.9753
19.532	62.9579
19.55	62.9397
19.568	62.9212
19.586	62.9028
19.604	62.8848
19.622	62.8684
19.64	62.8535
19.658	62.8412
19.676	62.8315
19.694	62.8239
19.712	62.8184
19.73	62.8138
19.748	62.8104
19.766	62.8059
19.784	62.8003
19.802	62.7921
19.82	62.7805
19.838	62.7653
19.856	62.7456
19.874	62.7217
19.892	62.694
19.91	62.6624
19.928	62.6287
19.946	62.5927
19.964	62.557
19.982	62.5215
20	62.4886
20.018	62.4594
20.036	62.4344
20.054	62.4153
20.072	62.4017
20.09	62.3944
20.108	62.3933
20.126	62.3975
20.144	62.4074
20.162	62.4213
20.18	62.4388
20.198	62.4593
20.216	62.4813
20.234	62.5052
20.252	62.5297
20.27	62.5549
20.288	62.5809
20.306	62.6075
20.324	62.6355
20.342	62.6652
20.36	62.6969
20.378	62.732
20.396	62.7702
20.414	62.8127
20.432	62.8595
20.45	62.9104
20.468	62.9659
20.486	63.0252
20.504	63.0872
20.522	63.1521
20.54	63.2172
20.558	63.2831
20.576	63.3467
20.594	63.4069
20.612	63.463
20.63	63.5125
20.648	63.5557
20.666	63.5901
20.684	63.6155
20.702	63.6312
20.72	63.6362
20.738	63.6311
20.756	63.6154
20.774	63.5892
20.792	63.5536
20.81	63.5085
20.828	63.4552
20.846	63.3952
20.864	63.3283
20.882	63.2576
20.9	63.1824
20.918	63.1056
20.936	63.0288
20.954	62.9521
20.972	62.8795
20.99	62.8098
21.008	62.7465
21.026	62.6908
21.044	62.6429
21.062	62.6061
21.08	62.5795
21.098	62.5653
21.116	62.564
21.134	62.5755
21.152	62.6008
21.17	62.6396
21.188	62.6909
21.206	62.755
21.224	62.8305
21.242	62.9152
21.26	63.01
21.278	63.1101
21.296	63.2155
21.314	63.3241
21.332	63.4312
21.35	63.5384
21.368	63.6402
21.386	63.7358
21.404	63.8244
21.422	63.902
21.44	63.9696
21.458	64.0254
21.476	64.0681
21.494	64.0986
21.512	64.1168
21.53	64.1222
21.548	64.1168
21.566	64.1017
21.584	64.0765
21.602	64.0453
21.62	64.0071
21.638	63.9645
21.656	63.9206
21.674	63.8744
21.692	63.8292
21.71	63.7858
21.728	63.7443
21.746	63.7068
21.764	63.673
21.782	63.643
21.8	63.6172
21.818	63.5953
21.836	63.5764
21.854	63.5607
21.872	63.5476
21.89	63.5353
21.908	63.5245
21.926	63.514
21.944	63.5029
21.962	63.4915
21.98	63.4791
21.998	63.4654
22.016	63.4509
22.034	63.4359
22.052	63.4198
22.07	63.4042
22.088	63.3897
22.106	63.3758
22.124	63.3649
22.142	63.3571
22.16	63.3526
22.178	63.3534
22.196	63.3591
22.214	63.37
22.232	63.3869
22.25	63.4098
22.268	63.4378
22.286	63.471
22.304	63.5093
22.322	63.5504
22.34	63.5946
22.358	63.6411
22.376	63.6864
22.394	63.7316
22.412	63.7748
22.43	63.8126
22.448	63.8465
22.466	63.8739
22.484	63.8923
22.502	63.9032
22.52	63.9043
22.538	63.8945
22.556	63.8746
22.574	63.844
22.592	63.8021
22.61	63.7496
22.628	63.6882
22.646	63.6169
22.664	63.5374
22.682	63.4526
22.7	63.3606
22.718	63.2648
22.736	63.1687
22.754	63.0703
22.772	62.9733
22.79	62.8811
22.808	62.7915
22.826	62.7088
22.844	62.6354
22.862	62.5696
22.88	62.5154
22.898	62.4746
22.916	62.446
22.934	62.4323
22.952	62.4345
22.97	62.4519
22.988	62.4852
23.006	62.535
23.024	62.6007
23.042	62.6807
23.06	62.7757
23.078	62.8848
23.096	63.0044
23.114	63.1355
23.132	63.2767
23.15	63.4231
23.168	63.5756
23.186	63.7328
23.204	63.8893
23.222	64.0461
23.24	64.2019
23.258	64.3511
23.276	64.4948
23.294	64.6319
23.312	64.7572
23.33	64.8711
23.348	64.9735
23.366	65.0608
23.384	65.1329
23.402	65.1904
23.42	65.232
23.438	65.2573
23.456	65.267
23.474	65.2624
23.492	65.2428
23.51	65.2088
23.528	65.1638
23.546	65.1079
23.564	65.0409
23.582	64.9667
23.6	64.8865
23.618	64.7991
23.636	64.7082
23.654	64.6155
23.672	64.5194
23.69	64.4229
23.708	64.328
23.726	64.2331
23.744	64.1404
23.762	64.0519
23.78	63.9665
23.798	63.8848
23.816	63.808
23.834	63.7359
23.852	63.6682
23.87	63.605
23.888	63.5462
23.906	63.492
23.924	63.4423
23.942	63.3971
23.96	63.3565
23.978	63.3207
23.996	63.2897
24.014	63.2635
24.032	63.2426
24.05	63.2275
24.068	63.2179
24.086	63.214
24.104	63.2163
24.122	63.2247
24.14	63.2389
24.158	63.2581
24.176	63.2832
24.194	63.3133
24.212	63.346
24.23	63.3822
24.248	63.4217
24.266	63.4602
24.284	63.4956
24.302	63.5307
24.32	63.5608
24.338	63.5819
24.356	63.5972
24.374	63.6035
24.392	63.5953
24.41	63.5731
24.428	63.5376
24.446	63.486
24.464	63.4166
24.482	63.3309
24.5	63.2292
24.518	63.1112
24.536	62.975
24.554	62.8249
24.572	62.6663
24.59	62.4956
24.608	62.3152
24.626	62.1346
24.644	61.9563
24.662	61.7752
24.68	61.6024
24.698	61.4479
24.716	61.3037
24.734	61.1765
24.752	61.0784
24.77	61.0099
24.788	60.9675
24.806	60.9597
24.824	60.9922
24.842	61.0605
24.86	61.1668
24.878	61.3143
24.896	61.5056
24.914	61.7368
24.932	62.0025
24.95	62.3016
24.968	62.6389
24.986	63.0024
25.004	63.3797
25.022	63.7811
25.04	64.199
25.058	64.614
25.076	65.0195
25.094	65.4276
25.112	65.819
25.13	66.1746
25.148	66.506
25.166	66.8075
25.184	67.0611
25.202	67.2581
25.22	67.4097
25.238	67.5056
25.256	67.5347
25.274	67.4994
25.292	67.4019
25.31	67.2395
25.328	67.0093
25.346	66.7111
25.364	66.3515
25.382	65.9372
25.4	65.4622
25.418	64.9296
25.436	64.3543
25.454	63.7467
25.472	63.0929
25.49	62.4073
25.508	61.7096
25.526	61.0006
25.544	60.2714
25.562	59.5431
25.58	58.8356
25.598	58.1358
25.616	57.4491
25.634	56.7943
25.652	56.1823
25.67	55.6001
25.688	55.0576
25.706	54.5675
25.724	54.1316
25.742	53.7441
25.76	53.4099
25.778	53.1337
25.796	52.9165
25.814	52.7542
25.832	52.6423
25.85	52.579
25.868	52.5703
25.886	52.6069
25.904	52.6781
25.922	52.7836
25.94	52.9296
25.958	53.1021
25.976	53.2871
25.994	53.4909
26.012	53.7136
26.03	53.9428
26.048	54.1676
26.066	54.3962
26.084	54.6256
26.102	54.8476
26.12	55.0564
26.138	55.2569
26.156	55.4482
26.174	55.6281
26.192	55.7941
26.21	55.9469
26.228	56.0908
26.246	56.2305
26.264	56.3643
26.282	56.4909
26.3	56.6166
26.318	56.748
26.336	56.8823
26.354	57.0191
26.372	57.1626
26.39	57.3173
26.408	57.4825
26.426	57.6565
26.444	57.8383
26.462	58.0277
26.48	58.2294
26.498	58.4377
26.516	58.6451
26.534	58.847
26.552	59.0532
26.57	59.2544
26.588	59.4382
26.606	59.5976
26.624	59.7456
26.642	59.871
26.66	59.9594
26.678	60.0035
26.696	60.0154
26.714	59.9866
26.732	59.9066
26.75	59.7691
26.768	59.5816
26.786	59.3423
26.804	59.0484
26.822	58.6964
26.84	58.2861
26.858	57.8244
26.876	57.3182
26.894	56.7677
26.912	56.1638
26.93	55.5214
26.948	54.8574
26.966	54.1466
26.984	53.3261
27.002	52.53
27.02	51.9051
27.028	51.7392