File: Bakgrunnsmateriale/MATLAB/FTIR/ftir_data/subAa/Mapping_121/BZ1503107-1_t68.asc
PE IR       SPECTRUM    SPECTRUM    ASCII       PEDS        1.60
  -1
BZ2961~1.ASC
17/04/07
18:52:40.00
17/04/07
18:53:06.00
tln
$BZ1503107-1_t0068$<tbV0>[10.4,2.6,8.0,0.0,27,1,0]
27.028
64

2002,4.07
MIRTGS : RIGHTBACK : INTERNAL 2
MIR : ON : INTERNAL 2
OPTKBR

0.200000
8
8.000000
FILLER
RATIO
SPECTRUM
UNLOCKED 256

DOUBLE
64
COMBINED
1
0
0

0.002000
RATIO

1
0
TRUE
51149
0
LEFT NOT FITTED RIGHT NOT FITTED 0
NONE
NONE
15600
12
4.427000
51148
TRUE
1 0 8 72 0 0 0 0

15798

#HDR
-1
-1
#GR
µM
%T
2.38419e-05
0.0
2.000000
0.002000
12515
8
79.9162
51.4777
#DATA
2.000000	 65.2046
2.018000	 64.6275
2.036000	 64.9597
2.054000	 64.7268
2.072000	 64.5689
2.090000	 64.688
2.108000	 65.0719
2.126000	 65.0206
2.144000	 64.9158
2.162000	 65.1094
2.180000	 64.8608
2.198000	 64.5435
2.216000	 65.3052
2.234000	 64.3057
2.252000	 64.5778
2.270000	 72.9291
2.288000	 64.6633
2.306000	 65.1513
2.324000	 64.8599
2.342000	 64.8101
2.360000	 64.8964
2.378000	 64.7807
2.396000	 65.3303
2.414000	 64.5202
2.432000	 65.3017
2.450000	 64.9669
2.468000	 65.2285
2.486000	 65.0635
2.504000	 64.9869
2.522000	 65.0776
2.540000	 64.946
2.558000	 65.108
2.576000	 65.1275
2.594000	 65.1804
2.612000	 64.8852
2.630000	 64.9139
2.648000	 65.0485
2.666000	 65.1607
2.684000	 65.1882
2.702000	 65.2871
2.720000	 65.2127
2.738000	 65.151
2.756000	 65.1712
2.774000	 65.16
2.792000	 65.103
2.810000	 65.0857
2.828000	 65.2042
2.846000	 65.0824
2.864000	 65.0245
2.882000	 65.1235
2.900000	 65.1806
2.918000	 64.8962
2.936000	 65.0015
2.954000	 65.064
2.972000	 65.106
2.990000	 65.1636
3.008000	 65.0476
3.026000	 65.0905
3.044000	 65.0525
3.062000	 64.8785
3.080000	 65.0857
3.098000	 65.0344
3.116000	 65.1637
3.134000	 65.0486
3.152000	 64.9784
3.170000	 65.0083
3.188000	 65.0226
3.206000	 65.1138
3.224000	 64.8858
3.242000	 64.9175
3.260000	 65.037
3.278000	 64.7981
3.296000	 64.9059
3.314000	 64.9595
3.332000	 65.0688
3.350000	 64.9478
3.368000	 64.9239
3.386000	 64.8496
3.404000	 64.8614
3.422000	 64.856
3.440000	 64.8059
3.458000	 64.8606
3.476000	 64.8972
3.494000	 64.7895
3.512000	 64.7902
3.530000	 64.8469
3.548000	 64.8947
3.566000	 64.9573
3.584000	 64.9353
3.602000	 65.0312
3.620000	 64.9899
3.638000	 64.8751
3.656000	 65.0328
3.674000	 64.915
3.692000	 65.0269
3.710000	 64.9086
3.728000	 65.0699
3.746000	 64.881
3.764000	 64.9213
3.782000	 64.8896
3.800000	 64.833
3.818000	 64.8664
3.836000	 64.8404
3.854000	 64.8071
3.872000	 64.7947
3.890000	 64.7262
3.908000	 64.7916
3.926000	 64.8468
3.944000	 64.7687
3.962000	 64.8394
3.980000	 64.8041
3.998000	 64.815
4.016000	 64.8077
4.034000	 64.8737
4.052000	 64.8155
4.070000	 64.7669
4.088000	 64.7996
4.106000	 64.7416
4.124000	 64.7349
4.141999	 64.8536
4.160000	 64.9058
4.178000	 64.7078
4.196000	 64.6875
4.214000	 64.7591
4.232000	 64.6883
4.250000	 64.7791
4.268000	 64.7348
4.286000	 64.8198
4.304000	 64.7068
4.322000	 64.7682
4.340000	 64.6926
4.358000	 64.6265
4.375999	 64.6589
4.394000	 64.7229
4.412000	 64.7128
4.430000	 64.7517
4.448000	 64.6119
4.466000	 64.5221
4.484000	 64.6372
4.502000	 64.6236
4.520000	 64.6297
4.538000	 64.5847
4.556000	 64.5798
4.574000	 64.6686
4.592000	 64.6173
4.609999	 64.5651
4.628000	 64.5648
4.646000	 64.536
4.664000	 64.5743
4.682000	 64.5852
4.700000	 64.5705
4.718000	 64.5081
4.736000	 64.5354
4.754000	 64.5097
4.772000	 64.4968
4.790000	 64.5569
4.808000	 64.5631
4.826000	 64.4994
4.843999	 64.5699
4.862000	 64.4682
4.880000	 64.4224
4.898000	 64.4133
4.916000	 64.4933
4.934000	 64.4507
4.952000	 64.5018
4.970000	 64.5358
4.988000	 64.4978
5.006000	 64.4184
5.024000	 64.4093
5.042000	 64.5038
5.060000	 64.4972
5.077999	 64.5227
5.096000	 64.5198
5.114000	 64.5405
5.132000	 64.4563
5.150000	 64.3641
5.168000	 64.4024
5.186000	 64.4514
5.204000	 64.4277
5.222000	 64.5205
5.240000	 64.5306
5.258000	 64.4459
5.276000	 64.3701
5.294000	 64.4286
5.312000	 64.4589
5.330000	 64.4678
5.348000	 64.3342
5.366000	 64.3128
5.384000	 64.3717
5.402000	 64.3832
5.420000	 64.3171
5.438000	 64.2437
5.456000	 64.2338
5.474000	 64.3538
5.492000	 64.3304
5.510000	 64.4632
5.528000	 64.4793
5.546000	 64.4071
5.564000	 64.3781
5.582000	 64.4254
5.600000	 64.3433
5.618000	 64.3387
5.636000	 64.3452
5.654000	 64.3749
5.672000	 64.4087
5.690000	 64.3402
5.708000	 64.2295
5.726000	 64.1045
5.744000	 64.0529
5.762000	 64.0272
5.780000	 64.1154
5.798000	 64.1139
5.816000	 64.1094
5.834000	 64.2131
5.852000	 64.2467
5.870000	 64.2253
5.888000	 64.2575
5.906000	 64.2455
5.923999	 64.2567
5.942000	 64.2542
5.960000	 64.2505
5.978000	 64.1517
5.996000	 64.0484
6.014000	 64.0565
6.032000	 64.1027
6.050000	 64.0683
6.068000	 64.0589
6.086000	 64.0956
6.104000	 64.0788
6.122000	 64.0731
6.140000	 64.159
6.158000	 64.2492
6.176000	 64.2433
6.194000	 64.1778
6.212000	 64.1018
6.230000	 64.0697
6.248000	 64.0965
6.266000	 64.0616
6.284000	 64.0205
6.302000	 64.0918
6.320000	 64.1053
6.338000	 64.0431
6.356000	 64.0459
6.374000	 64.0357
6.392000	 64.0239
6.410000	 64.0583
6.428000	 63.9978
6.446000	 63.8896
6.464000	 63.9176
6.482000	 64.0691
6.500000	 64.1103
6.518000	 64.0305
6.536000	 63.9955
6.554000	 64.0404
6.572000	 64.1124
6.590000	 64.1062
6.608000	 64.0593
6.626000	 64.0328
6.644000	 63.9823
6.662000	 63.8758
6.680000	 63.8383
6.698000	 63.9531
6.716000	 64.0162
6.734000	 64.0034
6.752000	 63.9934
6.770000	 63.9601
6.788000	 63.9184
6.806000	 63.8746
6.824000	 63.8249
6.842000	 63.8442
6.860000	 63.9631
6.878000	 64.0831
6.896000	 64.0928
6.914000	 64.0059
6.932000	 63.9315
6.950000	 63.9313
6.968000	 64.002
6.986000	 64.0766
7.004000	 64.1001
7.022000	 64.1044
7.040000	 64.1038
7.058000	 64.056
7.076000	 63.9502
7.094000	 63.8604
7.112000	 63.8567
7.130000	 63.8951
7.148000	 63.9252
7.166000	 63.961
7.184000	 63.9768
7.202000	 63.9382
7.220000	 63.8711
7.238000	 63.8125
7.256000	 63.7982
7.274000	 63.859
7.292000	 63.9303
7.310000	 63.9134
7.328000	 63.8389
7.346000	 63.7919
7.364000	 63.7832
7.382000	 63.801
7.400000	 63.8395
7.418000	 63.8827
7.436000	 63.9225
7.454000	 63.9563
7.472000	 63.9848
7.490000	 64.0036
7.508000	 63.9879
7.526000	 63.944
7.544000	 63.9232
7.562000	 63.9433
7.580000	 63.9623
7.598000	 63.9488
7.616000	 63.9131
7.634000	 63.8691
7.652000	 63.8372
7.670000	 63.8514
7.688000	 63.901
7.706000	 63.9187
7.724000	 63.8684
7.742000	 63.7782
7.760000	 63.6862
7.778000	 63.623
7.796000	 63.6132
7.814000	 63.6365
7.832000	 63.6454
7.850000	 63.6385
7.868000	 63.6452
7.886000	 63.6613
7.904000	 63.6729
7.922000	 63.7
7.940000	 63.7584
7.958000	 63.8213
7.976000	 63.855
7.994000	 63.8641
8.012000	 63.8754
8.030000	 63.8914
8.048000	 63.8861
8.065999	 63.8525
8.084000	 63.8179
8.102000	 63.7991
8.120000	 63.7829
8.138000	 63.7638
8.155999	 63.7513
8.173999	 63.7424
8.192000	 63.7272
8.210000	 63.7155
8.228000	 63.7176
8.246000	 63.7128
8.263999	 63.6736
8.282000	 63.6092
8.300000	 63.5676
8.318000	 63.5896
8.336000	 63.6601
8.353999	 63.7083
8.372000	 63.6777
8.390000	 63.5992
8.408000	 63.5536
8.426000	 63.5711
8.443999	 63.6027
8.462000	 63.5989
8.480000	 63.5708
8.498000	 63.5588
8.516000	 63.576
8.533999	 63.5999
8.552000	 63.5976
8.570000	 63.5562
8.588000	 63.5007
8.606000	 63.4774
8.624000	 63.5048
8.641999	 63.5524
8.660000	 63.582
8.678000	 63.5951
8.696000	 63.6183
8.714000	 63.6567
8.731999	 63.6892
8.750000	 63.6974
8.768000	 63.6809
8.786000	 63.6474
8.804000	 63.6036
8.821999	 63.5627
8.840000	 63.5472
8.858000	 63.5697
8.876000	 63.6178
8.894000	 63.6631
8.911999	 63.6846
8.930000	 63.6809
8.948000	 63.6593
8.966000	 63.626
8.984000	 63.593
9.001999	 63.5795
9.020000	 63.5925
9.038000	 63.612
9.056000	 63.6058
9.074000	 63.5641
9.092000	 63.5057
9.109999	 63.4516
9.128000	 63.4048
9.146000	 63.3652
9.164000	 63.3476
9.182000	 63.3702
9.199999	 63.4278
9.218000	 63.493
9.236000	 63.5451
9.254000	 63.5896
9.272000	 63.6423
9.289999	 63.7008
9.308000	 63.7435
9.326000	 63.7519
9.344000	 63.7255
9.362000	 63.6748
9.379999	 63.6105
9.398000	 63.5427
9.416000	 63.4855
9.434000	 63.4538
9.452000	 63.4519
9.469999	 63.4689
9.488000	 63.4862
9.506000	 63.4908
9.524000	 63.4806
9.542000	 63.4622
9.560000	 63.4458
9.577999	 63.4394
9.596000	 63.4443
9.614000	 63.4547
9.632000	 63.4641
9.650000	 63.47
9.667999	 63.476
9.686000	 63.4845
9.704000	 63.4905
9.722000	 63.4866
9.740000	 63.4738
9.757999	 63.4653
9.776000	 63.476
9.794000	 63.5058
9.812000	 63.5344
9.830000	 63.5361
9.847999	 63.5037
9.866000	 63.46
9.884000	 63.4435
9.902000	 63.4785
9.920000	 63.5538
9.937999	 63.628
9.956000	 63.6594
9.974000	 63.6342
9.992000	 63.573
10.01	63.5139
10.028	63.4873
10.046	63.4999
10.064	63.5382
10.082	63.5812
10.1	63.6125
10.118	63.6265
10.136	63.627
10.154	63.6224
10.172	63.62
10.19	63.6197
10.208	63.6138
10.226	63.5935
10.244	63.5559
10.262	63.5098
10.28	63.4708
10.298	63.4529
10.316	63.4613
10.334	63.4894
10.352	63.5265
10.37	63.5641
10.388	63.6011
10.406	63.6397
10.424	63.6788
10.442	63.7096
10.46	63.7185
10.478	63.6941
10.496	63.6382
10.514	63.5667
10.532	63.506
10.55	63.4777
10.568	63.4898
10.586	63.5321
10.604	63.584
10.622	63.6239
10.64	63.641
10.658	63.6362
10.676	63.6201
10.694	63.6047
10.712	63.5999
10.73	63.6103
10.748	63.6358
10.766	63.6717
10.784	63.7107
10.802	63.7436
10.82	63.7642
10.838	63.7719
10.856	63.7718
10.874	63.7722
10.892	63.7774
10.91	63.7828
10.928	63.7773
10.946	63.7488
10.964	63.6934
10.982	63.619
11	63.5421
11.018	63.4799
11.036	63.4413
11.054	63.4254
11.072	63.4245
11.09	63.4313
11.108	63.4437
11.126	63.4641
11.144	63.4943
11.162	63.5305
11.18	63.5642
11.198	63.5852
11.216	63.5873
11.234	63.5716
11.252	63.5452
11.27	63.5179
11.288	63.4986
11.306	63.4915
11.324	63.4968
11.342	63.5121
11.36	63.5341
11.378	63.5601
11.396	63.5885
11.414	63.6182
11.432	63.6477
11.45	63.6752
11.468	63.6968
11.486	63.7074
11.504	63.7022
11.522	63.6797
11.54	63.6431
11.558	63.6018
11.576	63.5675
11.594	63.5495
11.612	63.5511
11.63	63.5678
11.648	63.5902
11.666	63.607
11.684	63.6106
11.702	63.5994
11.72	63.5771
11.738	63.5487
11.756	63.5173
11.774	63.4837
11.792	63.4474
11.81	63.4104
11.828	63.378
11.846	63.3581
11.864	63.3579
11.882	63.3797
11.9	63.4196
11.918	63.4671
11.936	63.5088
11.954	63.5331
11.972	63.5327
11.99	63.5086
12.008	63.468
12.026	63.4223
12.044	63.3839
12.062	63.363
12.08	63.3649
12.098	63.3897
12.116	63.4327
12.134	63.4863
12.152	63.5418
12.17	63.5926
12.188	63.6347
12.206	63.6674
12.224	63.692
12.242	63.71
12.26	63.7221
12.278	63.7278
12.296	63.7264
12.314	63.7185
12.332	63.7066
12.35	63.6951
12.368	63.6889
12.386	63.6918
12.404	63.7045
12.422	63.7238
12.44	63.743
12.458	63.7544
12.476	63.752
12.494	63.7334
12.512	63.7008
12.53	63.6602
12.548	63.6189
12.566	63.5836
12.584	63.5585
12.602	63.5443
12.62	63.5388
12.638	63.5379
12.656	63.538
12.674	63.5368
12.692	63.5342
12.71	63.5323
12.728	63.5343
12.746	63.5431
12.764	63.5601
12.782	63.5839
12.8	63.6106
12.818	63.6341
12.836	63.6476
12.854	63.645
12.872	63.6227
12.89	63.5804
12.908	63.5218
12.926	63.4538
12.944	63.3854
12.962	63.3252
12.98	63.2804
12.998	63.2547
13.016	63.2485
13.034	63.2589
13.052	63.2811
13.07	63.3099
13.088	63.3407
13.106	63.3706
13.124	63.3984
13.142	63.4249
13.16	63.4518
13.178	63.4815
13.196	63.5153
13.214	63.5534
13.232	63.5939
13.25	63.6334
13.268	63.6673
13.286	63.6908
13.304	63.7005
13.322	63.6943
13.34	63.6728
13.358	63.6392
13.376	63.5983
13.394	63.5561
13.412	63.5182
13.43	63.4888
13.448	63.4696
13.466	63.4601
13.484	63.4573
13.502	63.4572
13.52	63.4551
13.538	63.4468
13.556	63.4298
13.574	63.4027
13.592	63.3661
13.61	63.3217
13.628	63.2723
13.646	63.2217
13.664	63.1737
13.682	63.1317
13.7	63.0981
13.718	63.074
13.736	63.059
13.754	63.0512
13.772	63.048
13.79	63.0464
13.808	63.0444
13.826	63.041
13.844	63.0369
13.862	63.0339
13.88	63.0345
13.898	63.0408
13.916	63.0537
13.934	63.0721
13.952	63.0925
13.97	63.1097
13.988	63.1176
14.006	63.1105
14.024	63.0847
14.042	63.0395
14.06	62.978
14.078	62.9063
14.096	62.8326
14.114	62.7653
14.132	62.7125
14.15	62.6799
14.168	62.6705
14.186	62.6841
14.204	62.7178
14.222	62.7666
14.24	62.8247
14.258	62.8874
14.276	62.9504
14.294	63.0109
14.312	63.0681
14.33	63.1217
14.348	63.1726
14.366	63.2216
14.384	63.268
14.402	63.3099
14.42	63.3443
14.438	63.3678
14.456	63.3774
14.474	63.3709
14.492	63.3473
14.51	63.3082
14.528	63.2584
14.546	63.204
14.564	63.1517
14.582	63.1085
14.6	63.0804
14.618	63.072
14.636	63.0853
14.654	63.1188
14.672	63.169
14.69	63.2299
14.708	63.294
14.726	63.3522
14.744	63.3946
14.762	63.4124
14.78	63.399
14.798	63.3501
14.816	63.2644
14.834	63.1442
14.852	62.9957
14.87	62.829
14.888	62.6562
14.906	62.4908
14.924	62.3471
14.942	62.2389
14.96	62.1764
14.978	62.1661
14.996	62.2112
15.014	62.3106
15.032	62.4579
15.05	62.6426
15.068	62.8532
15.086	63.0774
15.104	63.3023
15.122	63.5147
15.14	63.7055
15.158	63.8684
15.176	63.9998
15.194	64.0982
15.212	64.165
15.23	64.2035
15.248	64.2171
15.266	64.2096
15.284	64.1861
15.302	64.1498
15.32	64.1033
15.338	64.049
15.356	63.9878
15.374	63.9218
15.392	63.8518
15.41	63.7788
15.428	63.7043
15.446	63.6291
15.464	63.5543
15.482	63.4809
15.5	63.4093
15.518	63.3394
15.536	63.2704
15.554	63.2013
15.572	63.1309
15.59	63.058
15.608	62.9814
15.626	62.9005
15.644	62.815
15.662	62.7264
15.68	62.6361
15.698	62.5461
15.716	62.4588
15.734	62.3766
15.752	62.3012
15.77	62.234
15.788	62.1759
15.806	62.1265
15.824	62.0851
15.842	62.0503
15.86	62.0195
15.878	61.9916
15.896	61.9652
15.914	61.9402
15.932	61.9169
15.95	61.8962
15.968	61.8798
15.986	61.8701
16.004	61.8694
16.022	61.8799
16.04	61.9037
16.058	61.9415
16.076	61.9936
16.094	62.0593
16.112	62.1367
16.13	62.2239
16.148	62.3181
16.166	62.4157
16.184	62.5139
16.202	62.6096
16.22	62.6996
16.238	62.7821
16.256	62.8557
16.274	62.9196
16.292	62.9741
16.31	63.0193
16.328	63.057
16.346	63.0894
16.364	63.1183
16.382	63.1467
16.4	63.1768
16.418	63.21
16.436	63.2486
16.454	63.2931
16.472	63.3437
16.49	63.3993
16.508	63.4571
16.526	63.5149
16.544	63.5681
16.562	63.6129
16.58	63.6466
16.598	63.6642
16.616	63.6643
16.634	63.6448
16.652	63.6057
16.67	63.5486
16.688	63.475
16.706	63.3896
16.724	63.2955
16.742	63.197
16.76	63.0997
16.778	63.0061
16.796	62.9206
16.814	62.8459
16.832	62.7834
16.85	62.7349
16.868	62.6999
16.886	62.6787
16.904	62.6694
16.922	62.6709
16.94	62.6817
16.958	62.6993
16.976	62.7224
16.994	62.7481
17.012	62.7749
17.03	62.8016
17.048	62.8262
17.066	62.8483
17.084	62.8674
17.102	62.883
17.12	62.8948
17.138	62.9038
17.156	62.911
17.174	62.9172
17.192	62.9247
17.21	62.9343
17.228	62.9483
17.246	62.9676
17.264	62.9934
17.282	63.0266
17.3	63.067
17.318	63.1145
17.336	63.1677
17.354	63.2257
17.372	63.2857
17.39	63.3465
17.408	63.405
17.426	63.4592
17.444	63.5076
17.462	63.5476
17.48	63.5788
17.498	63.5996
17.516	63.6105
17.534	63.611
17.552	63.6025
17.57	63.5853
17.588	63.5615
17.606	63.5322
17.624	63.4991
17.642	63.4643
17.66	63.4286
17.678	63.3945
17.696	63.3626
17.714	63.3343
17.732	63.3097
17.75	63.2895
17.768	63.2731
17.786	63.2602
17.804	63.2498
17.822	63.2416
17.84	63.234
17.858	63.226
17.876	63.2164
17.894	63.204
17.912	63.1883
17.93	63.1681
17.948	63.1433
17.966	63.1137
17.984	63.0796
18.002	63.0416
18.02	63.0007
18.038	62.9577
18.056	62.9146
18.074	62.8718
18.092	62.8319
18.11	62.7951
18.128	62.7638
18.146	62.738
18.164	62.7191
18.182	62.7071
18.2	62.7023
18.218	62.704
18.236	62.7122
18.254	62.7253
18.272	62.743
18.29	62.7631
18.308	62.7853
18.326	62.8072
18.344	62.8285
18.362	62.8467
18.38	62.8616
18.398	62.8717
18.416	62.8765
18.434	62.8749
18.452	62.8672
18.47	62.8529
18.488	62.8332
18.506	62.8081
18.524	62.7797
18.542	62.7481
18.56	62.7163
18.578	62.6843
18.596	62.6553
18.614	62.6294
18.632	62.6088
18.65	62.5937
18.668	62.5855
18.686	62.5841
18.704	62.5896
18.722	62.6019
18.74	62.6202
18.758	62.6442
18.776	62.6726
18.794	62.7051
18.812	62.7401
18.83	62.7774
18.848	62.8158
18.866	62.8549
18.884	62.8935
18.902	62.9314
18.92	62.9676
18.938	63.0017
18.956	63.0329
18.974	63.0609
18.992	63.0851
19.01	63.1053
19.028	63.121
19.046	63.1323
19.064	63.1389
19.082	63.1412
19.1	63.1397
19.118	63.135
19.136	63.1279
19.154	63.1193
19.172	63.1106
19.19	63.1025
19.208	63.0967
19.226	63.0933
19.244	63.0944
19.262	63.0996
19.28	63.11
19.298	63.1252
19.316	63.1447
19.334	63.1684
19.352	63.1942
19.37	63.2221
19.388	63.249
19.406	63.275
19.424	63.2969
19.442	63.3146
19.46	63.3259
19.478	63.3304
19.496	63.3276
19.514	63.3168
19.532	63.2991
19.55	63.2744
19.568	63.2443
19.586	63.2098
19.604	63.1721
19.622	63.1336
19.64	63.0945
19.658	63.0579
19.676	63.0234
19.694	62.9931
19.712	62.9669
19.73	62.9457
19.748	62.9296
19.766	62.9182
19.784	62.9116
19.802	62.9089
19.82	62.9098
19.838	62.9138
19.856	62.9199
19.874	62.9283
19.892	62.938
19.91	62.949
19.928	62.9612
19.946	62.9744
19.964	62.9889
19.982	63.0045
20	63.0215
20.018	63.04
20.036	63.0598
20.054	63.0811
20.072	63.1036
20.09	63.1269
20.108	63.1511
20.126	63.1749
20.144	63.1984
20.162	63.2204
20.18	63.2403
20.198	63.2576
20.216	63.2711
20.234	63.281
20.252	63.2864
20.27	63.2873
20.288	63.2841
20.306	63.2765
20.324	63.2653
20.342	63.251
20.36	63.2341
20.378	63.2165
20.396	63.1978
20.414	63.1806
20.432	63.1646
20.45	63.1512
20.468	63.1413
20.486	63.1349
20.504	63.1327
20.522	63.1346
20.54	63.1403
20.558	63.1499
20.576	63.1623
20.594	63.177
20.612	63.1933
20.63	63.2094
20.648	63.2257
20.666	63.2396
20.684	63.2514
20.702	63.2599
20.72	63.2641
20.738	63.2643
20.756	63.2595
20.774	63.25
20.792	63.2361
20.81	63.2178
20.828	63.1957
20.846	63.1709
20.864	63.1431
20.882	63.1143
20.9	63.0842
20.918	63.0541
20.936	63.025
20.954	62.9968
20.972	62.9709
20.99	62.9471
21.008	62.9259
21.026	62.9078
21.044	62.8923
21.062	62.8794
21.08	62.8692
21.098	62.8611
21.116	62.8551
21.134	62.8508
21.152	62.8478
21.17	62.8462
21.188	62.8455
21.206	62.8456
21.224	62.8465
21.242	62.848
21.26	62.85
21.278	62.8527
21.296	62.8559
21.314	62.8597
21.332	62.8638
21.35	62.8685
21.368	62.8733
21.386	62.8783
21.404	62.8832
21.422	62.8871
21.44	62.8905
21.458	62.8921
21.476	62.8914
21.494	62.8883
21.512	62.881
21.53	62.8699
21.548	62.8541
21.566	62.8325
21.584	62.8055
21.602	62.7722
21.62	62.7325
21.638	62.6867
21.656	62.6347
21.674	62.5766
21.692	62.5137
21.71	62.446
21.728	62.3741
21.746	62.3003
21.764	62.2237
21.782	62.1467
21.8	62.0709
21.818	61.9956
21.836	61.924
21.854	61.856
21.872	61.7923
21.89	61.7352
21.908	61.6842
21.926	61.6399
21.944	61.603
21.962	61.5731
21.98	61.5503
21.998	61.5348
22.016	61.5262
22.034	61.5235
22.052	61.5272
22.07	61.5362
22.088	61.5498
22.106	61.5683
22.124	61.5901
22.142	61.615
22.16	61.643
22.178	61.6732
22.196	61.7056
22.214	61.7402
22.232	61.777
22.25	61.8159
22.268	61.8572
22.286	61.9012
22.304	61.9477
22.322	61.9972
22.34	62.0498
22.358	62.1054
22.376	62.1641
22.394	62.2262
22.412	62.2911
22.43	62.3585
22.448	62.4289
22.466	62.5008
22.484	62.5732
22.502	62.6468
22.52	62.7189
22.538	62.7886
22.556	62.8563
22.574	62.9186
22.592	62.9757
22.61	63.0271
22.628	63.0698
22.646	63.1042
22.664	63.1298
22.682	63.1443
22.7	63.1484
22.718	63.1417
22.736	63.1233
22.754	63.0934
22.772	63.0527
22.79	63.0017
22.808	62.9399
22.826	62.8695
22.844	62.7917
22.862	62.7055
22.88	62.6144
22.898	62.5194
22.916	62.4196
22.934	62.3192
22.952	62.2191
22.97	62.1185
22.988	62.0215
23.006	61.9285
23.024	61.839
23.042	61.7568
23.06	61.6819
23.078	61.6142
23.096	61.556
23.114	61.5072
23.132	61.4677
23.15	61.4393
23.168	61.4219
23.186	61.4153
23.204	61.4199
23.222	61.4355
23.24	61.4621
23.258	61.4996
23.276	61.5482
23.294	61.6077
23.312	61.6776
23.33	61.7582
23.348	61.8493
23.366	61.9502
23.384	62.0614
23.402	62.1824
23.42	62.3119
23.438	62.4501
23.456	62.5967
23.474	62.75
23.492	62.9102
23.51	63.0772
23.528	63.2486
23.546	63.4241
23.564	63.6042
23.582	63.7858
23.6	63.9685
23.618	64.1529
23.636	64.3356
23.654	64.5148
23.672	64.692
23.69	64.8646
23.708	65.0307
23.726	65.1916
23.744	65.3459
23.762	65.4919
23.78	65.6305
23.798	65.7613
23.816	65.8841
23.834	65.9985
23.852	66.1053
23.87	66.2053
23.888	66.2979
23.906	66.3838
23.924	66.4644
23.942	66.5395
23.96	66.6093
23.978	66.6751
23.996	66.7375
24.014	66.796
24.032	66.8514
24.05	66.9042
24.068	66.9542
24.086	67.0012
24.104	67.0453
24.122	67.0865
24.14	67.1247
24.158	67.16
24.176	67.1923
24.194	67.2218
24.212	67.2482
24.23	67.2715
24.248	67.2917
24.266	67.3094
24.284	67.3245
24.302	67.337
24.32	67.3473
24.338	67.356
24.356	67.3624
24.374	67.3673
24.392	67.3721
24.41	67.3765
24.428	67.3804
24.446	67.385
24.464	67.3905
24.482	67.3965
24.5	67.4038
24.518	67.4133
24.536	67.4247
24.554	67.4377
24.572	67.4522
24.59	67.4686
24.608	67.4864
24.626	67.5046
24.644	67.523
24.662	67.5424
24.68	67.5604
24.698	67.5751
24.716	67.5877
24.734	67.5974
24.752	67.6019
24.77	67.6017
24.788	67.5972
24.806	67.5854
24.824	67.5646
24.842	67.5368
24.86	67.4999
24.878	67.451
24.896	67.3913
24.914	67.3206
24.932	67.2365
24.95	67.1376
24.968	67.0252
24.986	66.8987
25.004	66.7575
25.022	66.6015
25.04	66.4312
25.058	66.2469
25.076	66.0485
25.094	65.8357
25.112	65.6101
25.13	65.3733
25.148	65.1237
25.166	64.8628
25.184	64.5934
25.202	64.3168
25.22	64.031
25.238	63.7391
25.256	63.4442
25.274	63.1433
25.292	62.8386
25.31	62.5358
25.328	62.2373
25.346	61.9385
25.364	61.646
25.382	61.3676
25.4	61.1009
25.418	60.8454
25.436	60.6074
25.454	60.3922
25.472	60.1954
25.49	60.0191
25.508	59.867
25.526	59.7403
25.544	59.637
25.562	59.5577
25.58	59.5031
25.598	59.4744
25.616	59.4696
25.634	59.4858
25.652	59.5223
25.67	59.5829
25.688	59.6607
25.706	59.7475
25.724	59.8454
25.742	59.9567
25.76	60.0705
25.778	60.1771
25.796	60.2838
25.814	60.3873
25.832	60.4776
25.85	60.5481
25.868	60.6063
25.886	60.6471
25.904	60.664
25.922	60.6548
25.94	60.6233
25.958	60.5671
25.976	60.4836
25.994	60.3711
26.012	60.2321
26.03	60.0696
26.048	59.8857
26.066	59.6761
26.084	59.445
26.102	59.1995
26.12	58.9431
26.138	58.6683
26.156	58.3838
26.174	58.0999
26.192	57.819
26.21	57.5338
26.228	57.2542
26.246	56.9909
26.264	56.7421
26.282	56.5037
26.3	56.2859
26.318	56.0984
26.336	55.9382
26.354	55.8035
26.372	55.699
26.39	55.6294
26.408	55.592
26.426	55.5866
26.444	55.6156
26.462	55.6808
26.48	55.7804
26.498	55.9147
26.516	56.0854
26.534	56.2935
26.552	56.5389
26.57	56.8201
26.588	57.1361
26.606	57.4865
26.624	57.8733
26.642	58.2933
26.66	58.7426
26.678	59.22
26.696	59.7301
26.714	60.2666
26.732	60.8228
26.75	61.3954
26.768	61.9903
26.786	62.6024
26.804	63.2257
26.822	63.8596
26.84	64.5114
26.858	65.17
26.876	65.8231
26.894	66.4674
26.912	67.1157
26.93	67.753
26.948	68.3625
26.966	68.9517
26.984	69.5578
27.002	70.1131
27.02	70.5428
27.028	70.6604