File: Bakgrunnsmateriale/MATLAB/FTIR/ftir_data/subAa/Mapping_121/BZ1503107-1_t69.asc
PE IR       SPECTRUM    SPECTRUM    ASCII       PEDS        1.60
  -1
BZ2D61~1.ASC
17/04/07
18:57:17.00
17/04/07
18:57:43.00
tln
$BZ1503107-1_t0069$<tbV0>[7.8,2.6,8.0,0.0,27,1,0]
27.028
64

2002,4.07
MIRTGS : RIGHTBACK : INTERNAL 2
MIR : ON : INTERNAL 2
OPTKBR

0.200000
8
8.000000
FILLER
RATIO
SPECTRUM
UNLOCKED 256

DOUBLE
64
COMBINED
1
0
0

0.002000
RATIO

1
0
TRUE
51149
0
LEFT NOT FITTED RIGHT NOT FITTED 0
NONE
NONE
15600
12
4.427000
51148
TRUE
1 0 8 72 0 0 0 0

15798

#HDR
-1
-1
#GR
µM
%T
2.38419e-05
0.0
2.000000
0.002000
12515
8
66.3639
47.737
#DATA
2.000000	 65.3958
2.018000	 64.9542
2.036000	 65.0539
2.054000	 65.1695
2.072000	 64.9783
2.090000	 64.3315
2.108000	 64.8509
2.126000	 64.7326
2.144000	 65.0091
2.162000	 65.2136
2.180000	 65.2456
2.198000	 64.8825
2.216000	 65.7086
2.234000	 65.7917
2.252000	 64.6552
2.270000	 64.5338
2.288000	 65.5039
2.306000	 65.6718
2.324000	 65.0984
2.342000	 65.4582
2.360000	 65.0036
2.378000	 65.1304
2.396000	 65.1769
2.414000	 64.5905
2.432000	 65.1786
2.450000	 64.8226
2.468000	 65.1693
2.486000	 64.874
2.504000	 64.8939
2.522000	 65.0308
2.540000	 64.8858
2.558000	 64.9595
2.576000	 64.9307
2.594000	 65.1246
2.612000	 65.0544
2.630000	 65.2375
2.648000	 65.2208
2.666000	 65.1674
2.684000	 65.0331
2.702000	 65.0921
2.720000	 65.265
2.738000	 65.0578
2.756000	 65.0486
2.774000	 65.1633
2.792000	 65.05
2.810000	 64.9588
2.828000	 65.1264
2.846000	 65.2753
2.864000	 64.9827
2.882000	 65.0213
2.900000	 65.1463
2.918000	 65.1132
2.936000	 64.8527
2.954000	 65.0504
2.972000	 65.1157
2.990000	 65.0191
3.008000	 64.9734
3.026000	 65.1456
3.044000	 64.8657
3.062000	 64.9053
3.080000	 64.9634
3.098000	 65.0657
3.116000	 64.9258
3.134000	 65.1493
3.152000	 64.914
3.170000	 65.0107
3.188000	 65.0317
3.206000	 65.0063
3.224000	 65.0464
3.242000	 64.8612
3.260000	 65.0106
3.278000	 65.051
3.296000	 64.7451
3.314000	 64.8407
3.332000	 65.0138
3.350000	 64.9084
3.368000	 64.721
3.386000	 64.7712
3.404000	 64.8443
3.422000	 64.7718
3.440000	 64.8637
3.458000	 64.8246
3.476000	 64.79
3.494000	 64.8177
3.512000	 64.7686
3.530000	 64.7618
3.548000	 64.899
3.566000	 64.9237
3.584000	 64.872
3.602000	 64.9176
3.620000	 64.9791
3.638000	 64.9069
3.656000	 65.0428
3.674000	 64.9263
3.692000	 64.8972
3.710000	 64.8356
3.728000	 64.8501
3.746000	 64.9008
3.764000	 64.7394
3.782000	 64.8554
3.800000	 64.8683
3.818000	 64.8783
3.836000	 64.7964
3.854000	 64.6819
3.872000	 64.7731
3.890000	 64.9043
3.908000	 64.763
3.926000	 64.7107
3.944000	 64.8132
3.962000	 64.8385
3.980000	 64.7249
3.998000	 64.7958
4.016000	 64.7616
4.034000	 64.8209
4.052000	 64.7613
4.070000	 64.8717
4.088000	 64.728
4.106000	 64.7891
4.124000	 64.8002
4.141999	 64.729
4.160000	 64.724
4.178000	 64.5869
4.196000	 64.7157
4.214000	 64.7251
4.232000	 64.6134
4.250000	 64.5627
4.268000	 64.7045
4.286000	 64.7264
4.304000	 64.7032
4.322000	 64.6939
4.340000	 64.7335
4.358000	 64.599
4.375999	 64.6291
4.394000	 64.6804
4.412000	 64.7297
4.430000	 64.7466
4.448000	 64.5686
4.466000	 64.5242
4.484000	 64.68
4.502000	 64.6558
4.520000	 64.6103
4.538000	 64.6291
4.556000	 64.5757
4.574000	 64.6116
4.592000	 64.6045
4.609999	 64.5596
4.628000	 64.6065
4.646000	 64.6464
4.664000	 64.5838
4.682000	 64.6426
4.700000	 64.6515
4.718000	 64.5299
4.736000	 64.5268
4.754000	 64.5357
4.772000	 64.5874
4.790000	 64.4995
4.808000	 64.4769
4.826000	 64.473
4.843999	 64.4646
4.862000	 64.5214
4.880000	 64.4463
4.898000	 64.4714
4.916000	 64.4976
4.934000	 64.4955
4.952000	 64.5391
4.970000	 64.4689
4.988000	 64.4622
5.006000	 64.4122
5.024000	 64.3624
5.042000	 64.4004
5.060000	 64.4549
5.077999	 64.389
5.096000	 64.4279
5.114000	 64.457
5.132000	 64.4381
5.150000	 64.428
5.168000	 64.4448
5.186000	 64.4116
5.204000	 64.3778
5.222000	 64.3882
5.240000	 64.4425
5.258000	 64.3184
5.276000	 64.24
5.294000	 64.3498
5.312000	 64.3665
5.330000	 64.4606
5.348000	 64.3614
5.366000	 64.3481
5.384000	 64.3732
5.402000	 64.3918
5.420000	 64.4043
5.438000	 64.2778
5.456000	 64.2222
5.474000	 64.2274
5.492000	 64.2679
5.510000	 64.3166
5.528000	 64.2189
5.546000	 64.1981
5.564000	 64.2834
5.582000	 64.2932
5.600000	 64.2558
5.618000	 64.295
5.636000	 64.3416
5.654000	 64.3296
5.672000	 64.3609
5.690000	 64.3137
5.708000	 64.0931
5.726000	 64.1172
5.744000	 64.2186
5.762000	 64.1388
5.780000	 64.1008
5.798000	 64.1494
5.816000	 64.1774
5.834000	 64.1867
5.852000	 64.1175
5.870000	 64.0716
5.888000	 64.0802
5.906000	 64.0661
5.923999	 64.0863
5.942000	 64.1151
5.960000	 64.1941
5.978000	 64.1211
5.996000	 64.0496
6.014000	 64.0679
6.032000	 64.0758
6.050000	 64.1344
6.068000	 64.2115
6.086000	 64.169
6.104000	 64.0484
6.122000	 64.0748
6.140000	 64.1823
6.158000	 64.1924
6.176000	 64.1812
6.194000	 64.1172
6.212000	 64.017
6.230000	 63.9995
6.248000	 64.0265
6.266000	 64.031
6.284000	 63.9948
6.302000	 63.9997
6.320000	 63.9885
6.338000	 63.9503
6.356000	 63.9439
6.374000	 63.9394
6.392000	 63.8943
6.410000	 63.8685
6.428000	 63.9128
6.446000	 63.9721
6.464000	 64.0032
6.482000	 64.0405
6.500000	 64.0903
6.518000	 64.046
6.536000	 63.9541
6.554000	 63.9098
6.572000	 63.9524
6.590000	 64.0066
6.608000	 64.0281
6.626000	 64.0329
6.644000	 64.0129
6.662000	 63.9511
6.680000	 63.8639
6.698000	 63.865
6.716000	 63.9255
6.734000	 63.9318
6.752000	 63.8794
6.770000	 63.84
6.788000	 63.8628
6.806000	 63.8845
6.824000	 63.8555
6.842000	 63.8439
6.860000	 63.8716
6.878000	 63.9099
6.896000	 63.9417
6.914000	 63.9311
6.932000	 63.9349
6.950000	 63.9984
6.968000	 64.0629
6.986000	 64.0817
7.004000	 64.0776
7.022000	 64.0835
7.040000	 64.0473
7.058000	 63.9497
7.076000	 63.8632
7.094000	 63.8092
7.112000	 63.8016
7.130000	 63.8574
7.148000	 63.9173
7.166000	 63.9557
7.184000	 63.9849
7.202000	 63.956
7.220000	 63.8695
7.238000	 63.8177
7.256000	 63.8354
7.274000	 63.8844
7.292000	 63.9143
7.310000	 63.8876
7.328000	 63.8352
7.346000	 63.8003
7.364000	 63.7601
7.382000	 63.7233
7.400000	 63.7621
7.418000	 63.8715
7.436000	 63.931
7.454000	 63.8932
7.472000	 63.8619
7.490000	 63.8929
7.508000	 63.921
7.526000	 63.9265
7.544000	 63.9299
7.562000	 63.8898
7.580000	 63.783
7.598000	 63.6837
7.616000	 63.6659
7.634000	 63.7142
7.652000	 63.765
7.670000	 63.7885
7.688000	 63.7979
7.706000	 63.8058
7.724000	 63.8143
7.742000	 63.8214
7.760000	 63.8145
7.778000	 63.7887
7.796000	 63.7597
7.814000	 63.7251
7.832000	 63.6741
7.850000	 63.6443
7.868000	 63.6766
7.886000	 63.726
7.904000	 63.7248
7.922000	 63.6914
7.940000	 63.6861
7.958000	 63.718
7.976000	 63.7446
7.994000	 63.7393
8.012000	 63.7211
8.030000	 63.7173
8.048000	 63.716
8.065999	 63.681
8.084000	 63.6079
8.102000	 63.5434
8.120000	 63.5486
8.138000	 63.6403
8.155999	 63.7568
8.173999	 63.8052
8.192000	 63.755
8.210000	 63.6612
8.228000	 63.5978
8.246000	 63.5926
8.263999	 63.6288
8.282000	 63.673
8.300000	 63.7033
8.318000	 63.7238
8.336000	 63.7489
8.353999	 63.7677
8.372000	 63.7435
8.390000	 63.6631
8.408000	 63.5677
8.426000	 63.5155
8.443999	 63.5162
8.462000	 63.5275
8.480000	 63.5144
8.498000	 63.4899
8.516000	 63.4865
8.533999	 63.5086
8.552000	 63.5341
8.570000	 63.5533
8.588000	 63.5792
8.606000	 63.6176
8.624000	 63.6517
8.641999	 63.6646
8.660000	 63.6594
8.678000	 63.6485
8.696000	 63.6359
8.714000	 63.6229
8.731999	 63.6196
8.750000	 63.6352
8.768000	 63.6624
8.786000	 63.6811
8.804000	 63.676
8.821999	 63.6468
8.840000	 63.6091
8.858000	 63.5862
8.876000	 63.5925
8.894000	 63.6228
8.911999	 63.6577
8.930000	 63.6857
8.948000	 63.7114
8.966000	 63.7427
8.984000	 63.7766
9.001999	 63.8023
9.020000	 63.812
9.038000	 63.8057
9.056000	 63.7868
9.074000	 63.757
9.092000	 63.7149
9.109999	 63.6602
9.128000	 63.5982
9.146000	 63.5437
9.164000	 63.5144
9.182000	 63.5175
9.199999	 63.5435
9.218000	 63.5756
9.236000	 63.6007
9.254000	 63.6117
9.272000	 63.6056
9.289999	 63.5869
9.308000	 63.5708
9.326000	 63.5753
9.344000	 63.6028
9.362000	 63.6341
9.379999	 63.6466
9.398000	 63.6385
9.416000	 63.6318
9.434000	 63.6508
9.452000	 63.6999
9.469999	 63.7614
9.488000	 63.8125
9.506000	 63.8397
9.524000	 63.8425
9.542000	 63.8254
9.560000	 63.7942
9.577999	 63.7534
9.596000	 63.7063
9.614000	 63.6553
9.632000	 63.6056
9.650000	 63.5668
9.667999	 63.5494
9.686000	 63.5535
9.704000	 63.563
9.722000	 63.5559
9.740000	 63.5231
9.757999	 63.478
9.776000	 63.4453
9.794000	 63.4401
9.812000	 63.4553
9.830000	 63.4713
9.847999	 63.4771
9.866000	 63.4816
9.884000	 63.505
9.902000	 63.5607
9.920000	 63.6411
9.937999	 63.7214
9.956000	 63.7748
9.974000	 63.7877
9.992000	 63.7629
10.01	63.714
10.028	63.6551
10.046	63.5953
10.064	63.5401
10.082	63.4956
10.1	63.473
10.118	63.4851
10.136	63.5384
10.154	63.6242
10.172	63.7172
10.19	63.7842
10.208	63.8004
10.226	63.7629
10.244	63.6913
10.262	63.6181
10.28	63.5689
10.298	63.5533
10.316	63.5636
10.334	63.5835
10.352	63.5989
10.37	63.6023
10.388	63.5925
10.406	63.5708
10.424	63.5384
10.442	63.4974
10.46	63.4531
10.478	63.4154
10.496	63.3958
10.514	63.4028
10.532	63.4366
10.55	63.4885
10.568	63.5444
10.586	63.589
10.604	63.6116
10.622	63.609
10.64	63.5841
10.658	63.5444
10.676	63.5002
10.694	63.4621
10.712	63.44
10.73	63.4392
10.748	63.4591
10.766	63.4914
10.784	63.5231
10.802	63.5408
10.82	63.5378
10.838	63.5175
10.856	63.4923
10.874	63.4788
10.892	63.488
10.91	63.521
10.928	63.5675
10.946	63.612
10.964	63.6418
10.982	63.6519
11	63.6471
11.018	63.6366
11.036	63.6277
11.054	63.6226
11.072	63.6193
11.09	63.6144
11.108	63.6079
11.126	63.6028
11.144	63.6026
11.162	63.6081
11.18	63.6176
11.198	63.6283
11.216	63.6388
11.234	63.6507
11.252	63.6667
11.27	63.6865
11.288	63.705
11.306	63.7135
11.324	63.7043
11.342	63.6764
11.36	63.6379
11.378	63.6045
11.396	63.5913
11.414	63.6064
11.432	63.6458
11.45	63.6957
11.468	63.7356
11.486	63.7489
11.504	63.7281
11.522	63.6767
11.54	63.6065
11.558	63.5329
11.576	63.4706
11.594	63.4283
11.612	63.4098
11.63	63.4127
11.648	63.432
11.666	63.4606
11.684	63.4924
11.702	63.5229
11.72	63.5489
11.738	63.5671
11.756	63.5744
11.774	63.5679
11.792	63.5462
11.81	63.5119
11.828	63.4708
11.846	63.4317
11.864	63.4038
11.882	63.3931
11.9	63.4014
11.918	63.4252
11.936	63.4573
11.954	63.4896
11.972	63.5156
11.99	63.5328
12.008	63.5425
12.026	63.5487
12.044	63.5565
12.062	63.5692
12.08	63.587
12.098	63.6072
12.116	63.6245
12.134	63.6334
12.152	63.6296
12.17	63.6115
12.188	63.5807
12.206	63.5417
12.224	63.5004
12.242	63.4631
12.26	63.4347
12.278	63.4181
12.296	63.4135
12.314	63.4186
12.332	63.43
12.35	63.4435
12.368	63.4556
12.386	63.4636
12.404	63.4666
12.422	63.4646
12.44	63.4581
12.458	63.4486
12.476	63.4379
12.494	63.4278
12.512	63.4201
12.53	63.4156
12.548	63.4144
12.566	63.4157
12.584	63.4181
12.602	63.4201
12.62	63.4206
12.638	63.4189
12.656	63.4154
12.674	63.411
12.692	63.407
12.71	63.4048
12.728	63.4056
12.746	63.4106
12.764	63.4207
12.782	63.4364
12.8	63.4573
12.818	63.482
12.836	63.5075
12.854	63.5292
12.872	63.5418
12.89	63.5407
12.908	63.5233
12.926	63.4898
12.944	63.4437
12.962	63.391
12.98	63.339
12.998	63.2941
13.016	63.2611
13.034	63.2421
13.052	63.2361
13.07	63.2402
13.088	63.2501
13.106	63.2621
13.124	63.273
13.142	63.2811
13.16	63.286
13.178	63.2884
13.196	63.2892
13.214	63.2892
13.232	63.2891
13.25	63.2888
13.268	63.2879
13.286	63.2851
13.304	63.2784
13.322	63.2656
13.34	63.2452
13.358	63.2165
13.376	63.1808
13.394	63.1414
13.412	63.1027
13.43	63.0698
13.448	63.0467
13.466	63.0358
13.484	63.0372
13.502	63.0484
13.52	63.0651
13.538	63.0817
13.556	63.0931
13.574	63.0947
13.592	63.084
13.61	63.0608
13.628	63.0267
13.646	62.9856
13.664	62.9424
13.682	62.9019
13.7	62.8685
13.718	62.8456
13.736	62.8351
13.754	62.8368
13.772	62.8484
13.79	62.8666
13.808	62.8878
13.826	62.9082
13.844	62.926
13.862	62.9412
13.88	62.9561
13.898	62.9748
13.916	63.0022
13.934	63.0418
13.952	63.0947
13.97	63.1591
13.988	63.2301
14.006	63.3
14.024	63.3599
14.042	63.4018
14.06	63.42
14.078	63.4127
14.096	63.3819
14.114	63.3326
14.132	63.272
14.15	63.2075
14.168	63.1455
14.186	63.0894
14.204	63.0401
14.222	62.9953
14.24	62.9509
14.258	62.9025
14.276	62.8472
14.294	62.7841
14.312	62.7152
14.33	62.6445
14.348	62.5785
14.366	62.5236
14.384	62.4874
14.402	62.4754
14.42	62.4911
14.438	62.5355
14.456	62.6068
14.474	62.7001
14.492	62.8082
14.51	62.922
14.528	63.0316
14.546	63.1284
14.564	63.2056
14.582	63.2584
14.6	63.2849
14.618	63.2856
14.636	63.2636
14.654	63.224
14.672	63.1724
14.69	63.1145
14.708	63.0562
14.726	63.003
14.744	62.9599
14.762	62.931
14.78	62.9188
14.798	62.9245
14.816	62.9478
14.834	62.9863
14.852	63.0356
14.87	63.0901
14.888	63.1433
14.906	63.1889
14.924	63.2214
14.942	63.236
14.96	63.2316
14.978	63.2099
14.996	63.175
15.014	63.1332
15.032	63.0931
15.05	63.0629
15.068	63.049
15.086	63.0555
15.104	63.0842
15.122	63.133
15.14	63.1964
15.158	63.2673
15.176	63.338
15.194	63.4
15.212	63.4456
15.23	63.4713
15.248	63.4761
15.266	63.4612
15.284	63.4309
15.302	63.3912
15.32	63.3473
15.338	63.3045
15.356	63.2667
15.374	63.2357
15.392	63.2109
15.41	63.1903
15.428	63.1709
15.446	63.1477
15.464	63.1179
15.482	63.0793
15.5	63.0306
15.518	62.9721
15.536	62.9058
15.554	62.8343
15.572	62.7609
15.59	62.6906
15.608	62.6271
15.626	62.5738
15.644	62.5346
15.662	62.5122
15.68	62.5077
15.698	62.5217
15.716	62.5536
15.734	62.6011
15.752	62.6613
15.77	62.7306
15.788	62.803
15.806	62.8728
15.824	62.9348
15.842	62.9829
15.86	63.0118
15.878	63.019
15.896	63.0025
15.914	62.9626
15.932	62.9023
15.95	62.8251
15.968	62.7365
15.986	62.6444
16.004	62.5546
16.022	62.4735
16.04	62.4078
16.058	62.3609
16.076	62.3353
16.094	62.3323
16.112	62.3507
16.13	62.3887
16.148	62.4435
16.166	62.5104
16.184	62.5862
16.202	62.667
16.22	62.7484
16.238	62.8279
16.256	62.9032
16.274	62.972
16.292	63.0335
16.31	63.087
16.328	63.1326
16.346	63.1711
16.364	63.2029
16.382	63.23
16.4	63.2537
16.418	63.2752
16.436	63.2966
16.454	63.3193
16.472	63.3443
16.49	63.3723
16.508	63.4026
16.526	63.4344
16.544	63.4656
16.562	63.4938
16.58	63.5169
16.598	63.5317
16.616	63.5364
16.634	63.5294
16.652	63.5098
16.67	63.478
16.688	63.4345
16.706	63.3819
16.724	63.322
16.742	63.2576
16.76	63.1919
16.778	63.1266
16.796	63.0644
16.814	63.0063
16.832	62.9529
16.85	62.9043
16.868	62.86
16.886	62.8196
16.904	62.7822
16.922	62.7474
16.94	62.7146
16.958	62.6842
16.976	62.6564
16.994	62.6321
17.012	62.6126
17.03	62.5987
17.048	62.5923
17.066	62.594
17.084	62.6049
17.102	62.6245
17.12	62.6528
17.138	62.6886
17.156	62.731
17.174	62.7789
17.192	62.8302
17.21	62.8843
17.228	62.9391
17.246	62.9937
17.264	63.0474
17.282	63.0991
17.3	63.1484
17.318	63.1947
17.336	63.2373
17.354	63.2759
17.372	63.3094
17.39	63.3372
17.408	63.3583
17.426	63.3719
17.444	63.3773
17.462	63.374
17.48	63.362
17.498	63.3415
17.516	63.3137
17.534	63.2791
17.552	63.2407
17.57	63.1994
17.588	63.1589
17.606	63.1206
17.624	63.0874
17.642	63.0612
17.66	63.043
17.678	63.0343
17.696	63.035
17.714	63.0447
17.732	63.062
17.75	63.0859
17.768	63.1131
17.786	63.1426
17.804	63.1706
17.822	63.1963
17.84	63.2166
17.858	63.2312
17.876	63.2385
17.894	63.2389
17.912	63.2321
17.93	63.2197
17.948	63.202
17.966	63.1815
17.984	63.1587
18.002	63.136
18.02	63.1142
18.038	63.0947
18.056	63.0781
18.074	63.0649
18.092	63.0551
18.11	63.0489
18.128	63.0456
18.146	63.0451
18.164	63.0467
18.182	63.05
18.2	63.0545
18.218	63.0601
18.236	63.0666
18.254	63.0741
18.272	63.0827
18.29	63.0924
18.308	63.1034
18.326	63.1157
18.344	63.1293
18.362	63.1442
18.38	63.1603
18.398	63.1771
18.416	63.1943
18.434	63.2116
18.452	63.2282
18.47	63.2437
18.488	63.2572
18.506	63.2686
18.524	63.2768
18.542	63.2817
18.56	63.2829
18.578	63.2803
18.596	63.2737
18.614	63.2631
18.632	63.2487
18.65	63.2307
18.668	63.2092
18.686	63.1845
18.704	63.1572
18.722	63.1273
18.74	63.0954
18.758	63.0617
18.776	63.0267
18.794	62.9905
18.812	62.9537
18.83	62.9165
18.848	62.8796
18.866	62.8432
18.884	62.8081
18.902	62.7746
18.92	62.7436
18.938	62.7155
18.956	62.6911
18.974	62.6707
18.992	62.6551
19.01	62.6441
19.028	62.6383
19.046	62.6372
19.064	62.6409
19.082	62.6487
19.1	62.6598
19.118	62.6734
19.136	62.6884
19.154	62.704
19.172	62.7185
19.19	62.7314
19.208	62.7411
19.226	62.7474
19.244	62.7488
19.262	62.7457
19.28	62.7374
19.298	62.7242
19.316	62.7069
19.334	62.6857
19.352	62.6625
19.37	62.6374
19.388	62.6131
19.406	62.5894
19.424	62.5691
19.442	62.5521
19.46	62.5402
19.478	62.5339
19.496	62.5335
19.514	62.5397
19.532	62.5515
19.55	62.5692
19.568	62.5915
19.586	62.6175
19.604	62.6465
19.622	62.6764
19.64	62.7072
19.658	62.7363
19.676	62.7641
19.694	62.7886
19.712	62.8098
19.73	62.827
19.748	62.84
19.766	62.8493
19.784	62.8546
19.802	62.8569
19.82	62.8568
19.838	62.8549
19.856	62.8523
19.874	62.8494
19.892	62.848
19.91	62.8479
19.928	62.8507
19.946	62.8564
19.964	62.8658
19.982	62.8791
20	62.8961
20.018	62.9172
20.036	62.9416
20.054	62.9686
20.072	62.998
20.09	63.028
20.108	63.0587
20.126	63.0876
20.144	63.115
20.162	63.1387
20.18	63.158
20.198	63.1723
20.216	63.1802
20.234	63.1819
20.252	63.1765
20.27	63.1641
20.288	63.145
20.306	63.1191
20.324	63.0874
20.342	63.0504
20.36	63.0086
20.378	62.9638
20.396	62.9156
20.414	62.8664
20.432	62.816
20.45	62.7657
20.468	62.7164
20.486	62.6683
20.504	62.6225
20.522	62.579
20.54	62.5385
20.558	62.5012
20.576	62.4671
20.594	62.4367
20.612	62.4097
20.63	62.3866
20.648	62.3671
20.666	62.3512
20.684	62.3389
20.702	62.3299
20.72	62.3241
20.738	62.3215
20.756	62.3212
20.774	62.3236
20.792	62.3278
20.81	62.3337
20.828	62.3408
20.846	62.3482
20.864	62.3561
20.882	62.3627
20.9	62.3685
20.918	62.3723
20.936	62.3732
20.954	62.3713
20.972	62.3652
20.99	62.3552
21.008	62.3407
21.026	62.3212
21.044	62.297
21.062	62.2682
21.08	62.2344
21.098	62.197
21.116	62.1556
21.134	62.1111
21.152	62.065
21.17	62.0168
21.188	61.9685
21.206	61.9203
21.224	61.8728
21.242	61.8276
21.26	61.7842
21.278	61.744
21.296	61.7073
21.314	61.6741
21.332	61.6451
21.35	61.6202
21.368	61.5994
21.386	61.5828
21.404	61.5701
21.422	61.5609
21.44	61.5555
21.458	61.5528
21.476	61.5528
21.494	61.5552
21.512	61.559
21.53	61.5645
21.548	61.5708
21.566	61.5774
21.584	61.5844
21.602	61.5911
21.62	61.5974
21.638	61.6031
21.656	61.6074
21.674	61.6105
21.692	61.6122
21.71	61.6123
21.728	61.611
21.746	61.6082
21.764	61.6037
21.782	61.5981
21.8	61.5917
21.818	61.5844
21.836	61.5774
21.854	61.5704
21.872	61.5641
21.89	61.5598
21.908	61.5568
21.926	61.5565
21.944	61.5594
21.962	61.5654
21.98	61.5753
21.998	61.5894
22.016	61.6076
22.034	61.6302
22.052	61.6573
22.07	61.6884
22.088	61.7234
22.106	61.7623
22.124	61.8036
22.142	61.8473
22.16	61.8929
22.178	61.9387
22.196	61.9852
22.214	62.0312
22.232	62.0753
22.25	62.1181
22.268	62.1586
22.286	62.1962
22.304	62.2312
22.322	62.2634
22.34	62.2925
22.358	62.319
22.376	62.3439
22.394	62.3667
22.412	62.3885
22.43	62.4109
22.448	62.433
22.466	62.4566
22.484	62.483
22.502	62.5116
22.52	62.5437
22.538	62.5804
22.556	62.6209
22.574	62.6656
22.592	62.7151
22.61	62.7687
22.628	62.8249
22.646	62.8847
22.664	62.9465
22.682	63.0074
22.7	63.0689
22.718	63.1284
22.736	63.1823
22.754	63.2327
22.772	63.2763
22.79	63.3103
22.808	63.3364
22.826	63.352
22.844	63.3554
22.862	63.3475
22.88	63.3279
22.898	63.2957
22.916	63.2513
22.934	63.1966
22.952	63.1313
22.97	63.0557
22.988	62.9737
23.006	62.8851
23.024	62.7903
23.042	62.6944
23.06	62.5972
23.078	62.499
23.096	62.4053
23.114	62.3157
23.132	62.2306
23.15	62.154
23.168	62.0861
23.186	62.0265
23.204	61.9772
23.222	61.9384
23.24	61.9095
23.258	61.8903
23.276	61.8815
23.294	61.8821
23.312	61.8904
23.33	61.9068
23.348	61.9307
23.366	61.9595
23.384	61.9935
23.402	62.0323
23.42	62.0732
23.438	62.1161
23.456	62.1612
23.474	62.2068
23.492	62.2525
23.51	62.2986
23.528	62.3452
23.546	62.392
23.564	62.4391
23.582	62.4871
23.6	62.5362
23.618	62.5861
23.636	62.6374
23.654	62.6903
23.672	62.7446
23.69	62.8002
23.708	62.8574
23.726	62.9162
23.744	62.9758
23.762	63.0357
23.78	63.0969
23.798	63.1575
23.816	63.2157
23.834	63.273
23.852	63.3275
23.87	63.3764
23.888	63.4207
23.906	63.4597
23.924	63.4905
23.942	63.5131
23.96	63.5279
23.978	63.5333
23.996	63.5283
24.014	63.5137
24.032	63.49
24.05	63.457
24.068	63.4143
24.086	63.3641
24.104	63.3083
24.122	63.2447
24.14	63.1765
24.158	63.108
24.176	63.0371
24.194	62.9655
24.212	62.898
24.23	62.835
24.248	62.7754
24.266	62.7229
24.284	62.6801
24.302	62.645
24.32	62.6188
24.338	62.6027
24.356	62.597
24.374	62.6003
24.392	62.6115
24.41	62.632
24.428	62.6607
24.446	62.6934
24.464	62.7293
24.482	62.7704
24.5	62.8113
24.518	62.8475
24.536	62.8829
24.554	62.9136
24.572	62.9339
24.59	62.945
24.608	62.9471
24.626	62.9358
24.644	62.9089
24.662	62.8686
24.68	62.8136
24.698	62.7422
24.716	62.6538
24.734	62.5506
24.752	62.435
24.77	62.3062
24.788	62.1642
24.806	62.0135
24.824	61.857
24.842	61.6913
24.86	61.5206
24.878	61.3501
24.896	61.1782
24.914	61.0051
24.932	60.8348
24.95	60.6695
24.968	60.5069
24.986	60.3492
25.004	60.1991
25.022	60.057
25.04	59.9214
25.058	59.7913
25.076	59.6673
25.094	59.5506
25.112	59.4363
25.13	59.3201
25.148	59.2052
25.166	59.0896
25.184	58.9673
25.202	58.8358
25.22	58.6986
25.238	58.5518
25.256	58.3911
25.274	58.2179
25.292	58.0325
25.31	57.833
25.328	57.618
25.346	57.3879
25.364	57.1444
25.382	56.8891
25.4	56.6193
25.418	56.3367
25.436	56.0474
25.454	55.7554
25.472	55.4546
25.49	55.1518
25.508	54.8558
25.526	54.567
25.544	54.2812
25.562	54.0083
25.58	53.7576
25.598	53.5232
25.616	53.3073
25.634	53.1179
25.652	52.9603
25.67	52.8296
25.688	52.7276
25.706	52.6572
25.724	52.6207
25.742	52.6159
25.76	52.6396
25.778	52.6891
25.796	52.7695
25.814	52.8761
25.832	52.9998
25.85	53.1357
25.868	53.2925
25.886	53.4603
25.904	53.6264
25.922	53.7896
25.94	53.9569
25.958	54.1161
25.976	54.2548
25.994	54.3775
26.012	54.4855
26.03	54.5699
26.048	54.623
26.066	54.6502
26.084	54.6503
26.102	54.6182
26.12	54.5501
26.138	54.4475
26.156	54.3132
26.174	54.1497
26.192	53.9557
26.21	53.7286
26.228	53.4771
26.246	53.2102
26.264	52.9239
26.282	52.6157
26.3	52.3002
26.318	51.9916
26.336	51.682
26.354	51.3715
26.372	51.0741
26.39	50.8023
26.408	50.5453
26.426	50.3069
26.444	50.1006
26.462	49.937
26.48	49.8057
26.498	49.7111
26.516	49.6632
26.534	49.6693
26.552	49.7221
26.57	49.824
26.588	49.9801
26.606	50.1947
26.624	50.4659
26.642	50.7906
26.66	51.1657
26.678	51.5903
26.696	52.0682
26.714	52.5937
26.732	53.1607
26.75	53.7677
26.768	54.4215
26.786	55.1125
26.804	55.8299
26.822	56.5686
26.84	57.3369
26.858	58.129
26.876	58.938
26.894	59.7597
26.912	60.5983
26.93	61.4535
26.948	62.3242
26.966	63.2539
26.984	64.3081
27.002	65.3217
27.02	66.1156
27.028	66.3275