File: Bakgrunnsmateriale/MATLAB/FTIR/ftir_data/subAa/Mapping_121/BZ1503107-1_t91.asc
PE IR       SPECTRUM    SPECTRUM    ASCII       PEDS        1.60
  -1
BZ3D4B~1.ASC
17/04/07
20:46:00.00
17/04/07
20:46:26.00
tln
$BZ1503107-1_t0091$<tbV0>[7.8,7.8,8.0,0.0,27,1,0]
27.028
64

2002,4.07
MIRTGS : RIGHTBACK : INTERNAL 2
MIR : ON : INTERNAL 2
OPTKBR

0.200000
8
8.000000
FILLER
RATIO
SPECTRUM
UNLOCKED 256

DOUBLE
64
COMBINED
1
0
0

0.002000
RATIO

1
0
TRUE
51149
0
LEFT NOT FITTED RIGHT NOT FITTED 0
NONE
NONE
15600
12
4.427000
51148
TRUE
1 0 8 72 0 0 0 0

15798

#HDR
-1
-1
#GR
µM
%T
2.38419e-05
0.0
2.000000
0.002000
12515
8
80.4322
51.448
#DATA
2.000000	 64.25
2.018000	 65.7055
2.036000	 64.6196
2.054000	 65.0831
2.072000	 65.0464
2.090000	 64.8587
2.108000	 65.1645
2.126000	 65.2425
2.144000	 65.4067
2.162000	 64.9536
2.180000	 65.0238
2.198000	 64.6041
2.216000	 64.5593
2.234000	 63.7309
2.252000	 80.4322
2.270000	 64.8039
2.288000	 64.3499
2.306000	 64.6979
2.324000	 65.1118
2.342000	 64.6236
2.360000	 64.8435
2.378000	 65.1334
2.396000	 65.23
2.414000	 64.8249
2.432000	 65.0646
2.450000	 65.2113
2.468000	 65.0357
2.486000	 65.1769
2.504000	 65.0688
2.522000	 64.885
2.540000	 65.1047
2.558000	 64.8292
2.576000	 65.1233
2.594000	 65.0523
2.612000	 65.0165
2.630000	 64.9072
2.648000	 65.1492
2.666000	 65.0573
2.684000	 65.1822
2.702000	 65.303
2.720000	 65.2094
2.738000	 65.0257
2.756000	 65.0482
2.774000	 65.1555
2.792000	 65.162
2.810000	 65.1562
2.828000	 65.0471
2.846000	 65.0121
2.864000	 65.0486
2.882000	 65.1399
2.900000	 64.863
2.918000	 64.9745
2.936000	 64.9235
2.954000	 64.9695
2.972000	 64.8873
2.990000	 64.835
3.008000	 64.9041
3.026000	 65.0374
3.044000	 64.9044
3.062000	 64.9792
3.080000	 64.9749
3.098000	 64.9256
3.116000	 64.9799
3.134000	 64.899
3.152000	 64.9962
3.170000	 64.8664
3.188000	 65.017
3.206000	 64.8148
3.224000	 64.9402
3.242000	 64.8842
3.260000	 64.8255
3.278000	 64.964
3.296000	 64.8574
3.314000	 64.8703
3.332000	 64.8469
3.350000	 64.8026
3.368000	 64.7148
3.386000	 64.6833
3.404000	 64.7648
3.422000	 64.8342
3.440000	 64.8449
3.458000	 64.8157
3.476000	 64.6328
3.494000	 64.7949
3.512000	 64.7148
3.530000	 64.7392
3.548000	 64.7634
3.566000	 64.7763
3.584000	 64.7596
3.602000	 64.8517
3.620000	 64.8724
3.638000	 64.7768
3.656000	 64.7771
3.674000	 64.8867
3.692000	 64.757
3.710000	 64.8038
3.728000	 64.7261
3.746000	 64.7769
3.764000	 64.7985
3.782000	 64.882
3.800000	 64.6791
3.818000	 64.6356
3.836000	 64.6787
3.854000	 64.7474
3.872000	 64.6101
3.890000	 64.7684
3.908000	 64.7136
3.926000	 64.7051
3.944000	 64.7283
3.962000	 64.5784
3.980000	 64.7149
3.998000	 64.6834
4.016000	 64.7747
4.034000	 64.5146
4.052000	 64.7569
4.070000	 64.7908
4.088000	 64.6218
4.106000	 64.603
4.124000	 64.7255
4.141999	 64.6286
4.160000	 64.6295
4.178000	 64.6325
4.196000	 64.7026
4.214000	 64.5164
4.232000	 64.598
4.250000	 64.5629
4.268000	 64.5892
4.286000	 64.6347
4.304000	 64.6499
4.322000	 64.5292
4.340000	 64.557
4.358000	 64.5802
4.375999	 64.4622
4.394000	 64.53
4.412000	 64.6212
4.430000	 64.5053
4.448000	 64.5656
4.466000	 64.5234
4.484000	 64.5389
4.502000	 64.435
4.520000	 64.4675
4.538000	 64.3818
4.556000	 64.4499
4.574000	 64.4662
4.592000	 64.3949
4.609999	 64.3652
4.628000	 64.3779
4.646000	 64.4655
4.664000	 64.4059
4.682000	 64.4313
4.700000	 64.401
4.718000	 64.3989
4.736000	 64.3497
4.754000	 64.3909
4.772000	 64.3555
4.790000	 64.2927
4.808000	 64.2772
4.826000	 64.1764
4.843999	 64.3333
4.862000	 64.4892
4.880000	 64.3985
4.898000	 64.3732
4.916000	 64.4112
4.934000	 64.2925
4.952000	 64.2691
4.970000	 64.3244
4.988000	 64.3227
5.006000	 64.3484
5.024000	 64.3793
5.042000	 64.2765
5.060000	 64.2638
5.077999	 64.3298
5.096000	 64.2798
5.114000	 64.2831
5.132000	 64.3085
5.150000	 64.2259
5.168000	 64.2891
5.186000	 64.2386
5.204000	 64.1597
5.222000	 64.1045
5.240000	 64.1864
5.258000	 64.244
5.276000	 64.2786
5.294000	 64.244
5.312000	 64.1854
5.330000	 64.2054
5.348000	 64.1975
5.366000	 64.147
5.384000	 64.1651
5.402000	 64.2207
5.420000	 64.1047
5.438000	 64.1595
5.456000	 64.2056
5.474000	 64.1394
5.492000	 64.1495
5.510000	 64.1882
5.528000	 64.2117
5.546000	 64.1813
5.564000	 64.1357
5.582000	 64.1302
5.600000	 64.0353
5.618000	 63.9864
5.636000	 64.0644
5.654000	 64.1372
5.672000	 64.1267
5.690000	 64.1003
5.708000	 63.9276
5.726000	 63.8871
5.744000	 63.8294
5.762000	 63.774
5.780000	 63.7779
5.798000	 63.8746
5.816000	 63.8902
5.834000	 63.8378
5.852000	 63.8559
5.870000	 63.8631
5.888000	 63.8508
5.906000	 63.9235
5.923999	 63.9714
5.942000	 63.9565
5.960000	 63.8924
5.978000	 63.8002
5.996000	 63.8393
6.014000	 63.967
6.032000	 64.0482
6.050000	 64.009
6.068000	 64.0201
6.086000	 64.0475
6.104000	 63.999
6.122000	 63.9193
6.140000	 63.8287
6.158000	 63.8749
6.176000	 63.9736
6.194000	 63.9389
6.212000	 63.8905
6.230000	 63.8851
6.248000	 63.831
6.266000	 63.8084
6.284000	 63.8075
6.302000	 63.8314
6.320000	 63.8357
6.338000	 63.7803
6.356000	 63.8119
6.374000	 63.8346
6.392000	 63.7971
6.410000	 63.8039
6.428000	 63.8115
6.446000	 63.7528
6.464000	 63.7169
6.482000	 63.7236
6.500000	 63.7555
6.518000	 63.7766
6.536000	 63.7586
6.554000	 63.7871
6.572000	 63.7974
6.590000	 63.7058
6.608000	 63.642
6.626000	 63.6685
6.644000	 63.724
6.662000	 63.7814
6.680000	 63.8335
6.698000	 63.8562
6.716000	 63.8318
6.734000	 63.7717
6.752000	 63.7454
6.770000	 63.7719
6.788000	 63.7805
6.806000	 63.7655
6.824000	 63.7252
6.842000	 63.6476
6.860000	 63.6144
6.878000	 63.6446
6.896000	 63.6796
6.914000	 63.6815
6.932000	 63.6341
6.950000	 63.6203
6.968000	 63.6785
6.986000	 63.7005
7.004000	 63.6742
7.022000	 63.6751
7.040000	 63.6495
7.058000	 63.57
7.076000	 63.561
7.094000	 63.6387
7.112000	 63.7042
7.130000	 63.7334
7.148000	 63.7074
7.166000	 63.634
7.184000	 63.6086
7.202000	 63.6445
7.220000	 63.6488
7.238000	 63.5931
7.256000	 63.5483
7.274000	 63.5656
7.292000	 63.6232
7.310000	 63.6685
7.328000	 63.6658
7.346000	 63.6043
7.364000	 63.5055
7.382000	 63.4363
7.400000	 63.461
7.418000	 63.5478
7.436000	 63.5912
7.454000	 63.5556
7.472000	 63.5052
7.490000	 63.4917
7.508000	 63.4978
7.526000	 63.4871
7.544000	 63.471
7.562000	 63.4952
7.580000	 63.556
7.598000	 63.5928
7.616000	 63.5776
7.634000	 63.5379
7.652000	 63.4943
7.670000	 63.4553
7.688000	 63.4443
7.706000	 63.4715
7.724000	 63.5044
7.742000	 63.4873
7.760000	 63.4095
7.778000	 63.3433
7.796000	 63.3564
7.814000	 63.4121
7.832000	 63.4305
7.850000	 63.3995
7.868000	 63.3584
7.886000	 63.3348
7.904000	 63.3314
7.922000	 63.3364
7.940000	 63.3369
7.958000	 63.3367
7.976000	 63.348
7.994000	 63.3629
8.012000	 63.362
8.030000	 63.3527
8.048000	 63.3543
8.065999	 63.3555
8.084000	 63.3302
8.102000	 63.2888
8.120000	 63.2757
8.138000	 63.314
8.155999	 63.3793
8.173999	 63.4236
8.192000	 63.4231
8.210000	 63.4033
8.228000	 63.4075
8.246000	 63.4429
8.263999	 63.4719
8.282000	 63.4549
8.300000	 63.3956
8.318000	 63.3327
8.336000	 63.2968
8.353999	 63.2844
8.372000	 63.2784
8.390000	 63.2736
8.408000	 63.2731
8.426000	 63.2705
8.443999	 63.2536
8.462000	 63.2216
8.480000	 63.1869
8.498000	 63.1592
8.516000	 63.1348
8.533999	 63.1106
8.552000	 63.0968
8.570000	 63.104
8.588000	 63.1252
8.606000	 63.1481
8.624000	 63.1723
8.641999	 63.2005
8.660000	 63.2213
8.678000	 63.221
8.696000	 63.2058
8.714000	 63.1993
8.731999	 63.2189
8.750000	 63.2619
8.768000	 63.3081
8.786000	 63.3274
8.804000	 63.2988
8.821999	 63.2331
8.840000	 63.1713
8.858000	 63.1538
8.876000	 63.1879
8.894000	 63.2442
8.911999	 63.2834
8.930000	 63.2877
8.948000	 63.2686
8.966000	 63.2504
8.984000	 63.2472
9.001999	 63.2539
9.020000	 63.2604
9.038000	 63.2662
9.056000	 63.2806
9.074000	 63.3067
9.092000	 63.333
9.109999	 63.3372
9.128000	 63.3034
9.146000	 63.2379
9.164000	 63.1651
9.182000	 63.1086
9.199999	 63.0742
9.218000	 63.0532
9.236000	 63.0375
9.254000	 63.0285
9.272000	 63.0316
9.289999	 63.0458
9.308000	 63.0632
9.326000	 63.0777
9.344000	 63.0893
9.362000	 63.1023
9.379999	 63.1195
9.398000	 63.1381
9.416000	 63.1519
9.434000	 63.1563
9.452000	 63.1536
9.469999	 63.1509
9.488000	 63.1532
9.506000	 63.1581
9.524000	 63.1594
9.542000	 63.1553
9.560000	 63.1531
9.577999	 63.1621
9.596000	 63.1812
9.614000	 63.1961
9.632000	 63.1905
9.650000	 63.1604
9.667999	 63.1194
9.686000	 63.0903
9.704000	 63.0895
9.722000	 63.1141
9.740000	 63.1442
9.757999	 63.1558
9.776000	 63.1366
9.794000	 63.0914
9.812000	 63.0369
9.830000	 62.9898
9.847999	 62.9588
9.866000	 62.9439
9.884000	 62.9402
9.902000	 62.943
9.920000	 62.9498
9.937999	 62.9599
9.956000	 62.9735
9.974000	 62.9907
9.992000	 63.0114
10.01	63.0344
10.028	63.0582
10.046	63.0799
10.064	63.0976
10.082	63.1119
10.1	63.1285
10.118	63.1562
10.136	63.2
10.154	63.2558
10.172	63.3102
10.19	63.3469
10.208	63.3578
10.226	63.3453
10.244	63.3189
10.262	63.2853
10.28	63.2435
10.298	63.1894
10.316	63.1247
10.334	63.0608
10.352	63.0125
10.37	62.9888
10.388	62.9871
10.406	62.9959
10.424	63.0025
10.442	63.0024
10.46	63.0006
10.478	63.0071
10.496	63.0278
10.514	63.0606
10.532	63.095
10.55	63.1215
10.568	63.1364
10.586	63.1451
10.604	63.1564
10.622	63.175
10.64	63.1944
10.658	63.2017
10.676	63.1876
10.694	63.1565
10.712	63.1275
10.73	63.1224
10.748	63.1526
10.766	63.209
10.784	63.2669
10.802	63.2971
10.82	63.2827
10.838	63.2253
10.856	63.1413
10.874	63.0542
10.892	62.9835
10.91	62.9434
10.928	62.9394
10.946	62.9699
10.964	63.0257
10.982	63.09
11	63.1439
11.018	63.1708
11.036	63.1636
11.054	63.1274
11.072	63.0767
11.09	63.0297
11.108	62.9993
11.126	62.9909
11.144	63.0024
11.162	63.0273
11.18	63.0586
11.198	63.0895
11.216	63.1141
11.234	63.127
11.252	63.1243
11.27	63.1038
11.288	63.0655
11.306	63.0138
11.324	62.9585
11.342	62.9127
11.36	62.8888
11.378	62.8952
11.396	62.9311
11.414	62.9863
11.432	63.0451
11.45	63.0931
11.468	63.1212
11.486	63.1296
11.504	63.1256
11.522	63.1186
11.54	63.1141
11.558	63.1121
11.576	63.1088
11.594	63.1005
11.612	63.0872
11.63	63.0735
11.648	63.0656
11.666	63.0675
11.684	63.0774
11.702	63.0885
11.72	63.0906
11.738	63.0755
11.756	63.0413
11.774	62.9926
11.792	62.9399
11.81	62.8939
11.828	62.8625
11.846	62.8485
11.864	62.8489
11.882	62.858
11.9	62.8695
11.918	62.8788
11.936	62.8841
11.954	62.8854
11.972	62.8837
11.99	62.8798
12.008	62.874
12.026	62.8664
12.044	62.8573
12.062	62.8475
12.08	62.8386
12.098	62.8326
12.116	62.831
12.134	62.8348
12.152	62.8443
12.17	62.8597
12.188	62.8815
12.206	62.91
12.224	62.9447
12.242	62.9837
12.26	63.0241
12.278	63.0613
12.296	63.0909
12.314	63.1091
12.332	63.1142
12.35	63.1061
12.368	63.0859
12.386	63.0562
12.404	63.02
12.422	62.9807
12.44	62.9424
12.458	62.909
12.476	62.8846
12.494	62.8717
12.512	62.8713
12.53	62.8819
12.548	62.8994
12.566	62.9184
12.584	62.9334
12.602	62.9408
12.62	62.939
12.638	62.9289
12.656	62.9131
12.674	62.8946
12.692	62.8755
12.71	62.8572
12.728	62.8404
12.746	62.8253
12.764	62.8126
12.782	62.8034
12.8	62.799
12.818	62.801
12.836	62.8097
12.854	62.8248
12.872	62.8443
12.89	62.8657
12.908	62.8854
12.926	62.9006
12.944	62.909
12.962	62.9092
12.98	62.901
12.998	62.8847
13.016	62.8617
13.034	62.8338
13.052	62.803
13.07	62.7718
13.088	62.7425
13.106	62.7174
13.124	62.6982
13.142	62.6863
13.16	62.6821
13.178	62.6861
13.196	62.6978
13.214	62.7165
13.232	62.7415
13.25	62.7713
13.268	62.8043
13.286	62.8381
13.304	62.8701
13.322	62.8973
13.34	62.9173
13.358	62.9285
13.376	62.9307
13.394	62.9254
13.412	62.9151
13.43	62.9036
13.448	62.8946
13.466	62.8908
13.484	62.894
13.502	62.9045
13.52	62.9212
13.538	62.9424
13.556	62.9658
13.574	62.9897
13.592	63.013
13.61	63.0348
13.628	63.0548
13.646	63.0723
13.664	63.0863
13.682	63.0954
13.7	63.0983
13.718	63.0938
13.736	63.082
13.754	63.064
13.772	63.0422
13.79	63.0201
13.808	63.0011
13.826	62.9879
13.844	62.9818
13.862	62.9823
13.88	62.9868
13.898	62.9913
13.916	62.9912
13.934	62.982
13.952	62.9607
13.97	62.9256
13.988	62.8774
14.006	62.8181
14.024	62.7513
14.042	62.6811
14.06	62.6111
14.078	62.5448
14.096	62.4848
14.114	62.4328
14.132	62.3899
14.15	62.3563
14.168	62.3316
14.186	62.3147
14.204	62.3041
14.222	62.298
14.24	62.2946
14.258	62.2925
14.276	62.2907
14.294	62.2887
14.312	62.2866
14.33	62.2847
14.348	62.2838
14.366	62.2847
14.384	62.2885
14.402	62.2961
14.42	62.3078
14.438	62.3241
14.456	62.3447
14.474	62.3685
14.492	62.394
14.51	62.4187
14.528	62.4402
14.546	62.4559
14.564	62.4641
14.582	62.4637
14.6	62.4548
14.618	62.4386
14.636	62.4175
14.654	62.3942
14.672	62.372
14.69	62.3536
14.708	62.3416
14.726	62.3376
14.744	62.3426
14.762	62.3561
14.78	62.3771
14.798	62.4041
14.816	62.4353
14.834	62.4687
14.852	62.5023
14.87	62.5349
14.888	62.5658
14.906	62.5946
14.924	62.6214
14.942	62.6466
14.96	62.6705
14.978	62.6932
14.996	62.7146
15.014	62.7342
15.032	62.7511
15.05	62.7639
15.068	62.7717
15.086	62.7732
15.104	62.7678
15.122	62.7552
15.14	62.7363
15.158	62.7121
15.176	62.6843
15.194	62.6549
15.212	62.6259
15.23	62.5988
15.248	62.5743
15.266	62.5527
15.284	62.5333
15.302	62.5145
15.32	62.4947
15.338	62.4725
15.356	62.4464
15.374	62.4156
15.392	62.3803
15.41	62.3415
15.428	62.3007
15.446	62.2605
15.464	62.223
15.482	62.1904
15.5	62.1647
15.518	62.1471
15.536	62.1379
15.554	62.1371
15.572	62.1438
15.59	62.1562
15.608	62.1727
15.626	62.1919
15.644	62.2121
15.662	62.232
15.68	62.2508
15.698	62.268
15.716	62.2831
15.734	62.2959
15.752	62.306
15.77	62.3132
15.788	62.3173
15.806	62.3178
15.824	62.3148
15.842	62.308
15.86	62.2976
15.878	62.2837
15.896	62.2665
15.914	62.2466
15.932	62.2245
15.95	62.2007
15.968	62.1761
15.986	62.1516
16.004	62.1279
16.022	62.1055
16.04	62.0853
16.058	62.0678
16.076	62.0533
16.094	62.0418
16.112	62.0333
16.13	62.0276
16.148	62.024
16.166	62.0221
16.184	62.0219
16.202	62.023
16.22	62.026
16.238	62.0315
16.256	62.0399
16.274	62.0524
16.292	62.0699
16.31	62.0932
16.328	62.1229
16.346	62.1589
16.364	62.2007
16.382	62.2471
16.4	62.2956
16.418	62.3447
16.436	62.3908
16.454	62.4315
16.472	62.4649
16.49	62.4886
16.508	62.5019
16.526	62.5047
16.544	62.4979
16.562	62.4839
16.58	62.4643
16.598	62.4429
16.616	62.422
16.634	62.4038
16.652	62.3909
16.67	62.3838
16.688	62.3832
16.706	62.3884
16.724	62.3983
16.742	62.4112
16.76	62.4244
16.778	62.4367
16.796	62.445
16.814	62.4479
16.832	62.4443
16.85	62.4327
16.868	62.4128
16.886	62.3844
16.904	62.3478
16.922	62.3037
16.94	62.2528
16.958	62.1969
16.976	62.1368
16.994	62.0745
17.012	62.0117
17.03	61.9498
17.048	61.8914
17.066	61.8379
17.084	61.7916
17.102	61.7548
17.12	61.7286
17.138	61.7154
17.156	61.7161
17.174	61.7317
17.192	61.7625
17.21	61.8083
17.228	61.8683
17.246	61.9406
17.264	62.0242
17.282	62.1158
17.3	62.2139
17.318	62.3151
17.336	62.4166
17.354	62.5166
17.372	62.6117
17.39	62.7011
17.408	62.7826
17.426	62.8556
17.444	62.9195
17.462	62.9734
17.48	63.0173
17.498	63.0511
17.516	63.0745
17.534	63.0874
17.552	63.0895
17.57	63.0808
17.588	63.0604
17.606	63.0284
17.624	62.9845
17.642	62.9287
17.66	62.8612
17.678	62.7833
17.696	62.6959
17.714	62.6015
17.732	62.5021
17.75	62.4
17.768	62.2994
17.786	62.2018
17.804	62.1126
17.822	62.0327
17.84	61.9668
17.858	61.9158
17.876	61.8821
17.894	61.8662
17.912	61.8687
17.93	61.8882
17.948	61.924
17.966	61.973
17.984	62.0334
18.002	62.1013
18.02	62.1733
18.038	62.2466
18.056	62.3166
18.074	62.3819
18.092	62.4376
18.11	62.4832
18.128	62.5151
18.146	62.5333
18.164	62.5362
18.182	62.5244
18.2	62.4977
18.218	62.4578
18.236	62.4054
18.254	62.3433
18.272	62.2721
18.29	62.1954
18.308	62.1137
18.326	62.0303
18.344	61.9457
18.362	61.8627
18.38	61.7819
18.398	61.7052
18.416	61.6332
18.434	61.5672
18.452	61.5078
18.47	61.4558
18.488	61.412
18.506	61.3769
18.524	61.3515
18.542	61.3359
18.56	61.3314
18.578	61.3381
18.596	61.3564
18.614	61.3861
18.632	61.4265
18.65	61.4773
18.668	61.5358
18.686	61.6016
18.704	61.6701
18.722	61.7407
18.74	61.8082
18.758	61.8716
18.776	61.9257
18.794	61.9699
18.812	62.0004
18.83	62.017
18.848	62.0173
18.866	62.0027
18.884	61.9739
18.902	61.9335
18.92	61.8847
18.938	61.831
18.956	61.7778
18.974	61.7284
18.992	61.6891
19.01	61.6618
19.028	61.652
19.046	61.6599
19.064	61.6885
19.082	61.7359
19.1	61.8018
19.118	61.8831
19.136	61.9756
19.154	62.076
19.172	62.1766
19.19	62.2751
19.208	62.3622
19.226	62.4374
19.244	62.4925
19.262	62.5283
19.28	62.5408
19.298	62.5311
19.316	62.5001
19.334	62.4485
19.352	62.3833
19.37	62.3042
19.388	62.2219
19.406	62.1359
19.424	62.0578
19.442	61.9876
19.46	61.9346
19.478	61.9001
19.496	61.888
19.514	61.9003
19.532	61.9365
19.55	61.9985
19.568	62.0817
19.586	62.1838
19.604	62.3011
19.622	62.4269
19.64	62.5594
19.658	62.6863
19.676	62.8085
19.694	62.913
19.712	63.0011
19.73	63.0622
19.748	63.0961
19.766	63.098
19.784	63.066
19.802	63.0007
19.82	62.9007
19.838	62.7689
19.856	62.6076
19.874	62.4187
19.892	62.2102
19.91	61.9816
19.928	61.7448
19.946	61.4983
19.964	61.2545
19.982	61.0139
20	60.785
20.018	60.5723
20.036	60.3789
20.054	60.2126
20.072	60.0726
20.09	59.9665
20.108	59.893
20.126	59.856
20.144	59.8558
20.162	59.8919
20.18	59.9653
20.198	60.0734
20.216	60.2146
20.234	60.3878
20.252	60.5867
20.27	60.8127
20.288	61.056
20.306	61.3173
20.324	61.5887
20.342	61.8655
20.36	62.1456
20.378	62.4188
20.396	62.6869
20.414	62.9393
20.432	63.1769
20.45	63.3931
20.468	63.5849
20.486	63.7515
20.504	63.8879
20.522	63.9954
20.54	64.072
20.558	64.1175
20.576	64.1334
20.594	64.1192
20.612	64.0771
20.63	64.0108
20.648	63.9195
20.666	63.8097
20.684	63.6805
20.702	63.5373
20.72	63.3836
20.738	63.2197
20.756	63.0525
20.774	62.8803
20.792	62.7096
20.81	62.5411
20.828	62.3768
20.846	62.2205
20.864	62.0712
20.882	61.9329
20.9	61.8054
20.918	61.6899
20.936	61.5875
20.954	61.498
20.972	61.4222
20.99	61.3601
21.008	61.311
21.026	61.2751
21.044	61.2517
21.062	61.2394
21.08	61.2388
21.098	61.2471
21.116	61.2643
21.134	61.289
21.152	61.3185
21.17	61.3536
21.188	61.3906
21.206	61.4292
21.224	61.4681
21.242	61.504
21.26	61.538
21.278	61.5672
21.296	61.5909
21.314	61.609
21.332	61.6199
21.35	61.624
21.368	61.6209
21.386	61.6099
21.404	61.5918
21.422	61.5672
21.44	61.5356
21.458	61.4988
21.476	61.4573
21.494	61.4114
21.512	61.3638
21.53	61.3137
21.548	61.2634
21.566	61.2145
21.584	61.1666
21.602	61.1224
21.62	61.0819
21.638	61.0457
21.656	61.0152
21.674	60.99
21.692	60.9704
21.71	60.9567
21.728	60.9486
21.746	60.9458
21.764	60.9487
21.782	60.956
21.8	60.9669
21.818	60.9817
21.836	60.9983
21.854	61.0167
21.872	61.0362
21.89	61.0546
21.908	61.0727
21.926	61.0888
21.944	61.1017
21.962	61.1119
21.98	61.118
21.998	61.1199
22.016	61.1178
22.034	61.1113
22.052	61.1003
22.07	61.0856
22.088	61.0676
22.106	61.046
22.124	61.0221
22.142	60.9959
22.16	60.9679
22.178	60.9397
22.196	60.911
22.214	60.8827
22.232	60.8564
22.25	60.8314
22.268	60.809
22.286	60.7901
22.304	60.7744
22.322	60.7627
22.34	60.7552
22.358	60.7519
22.376	60.7533
22.394	60.7592
22.412	60.7697
22.43	60.7845
22.448	60.8038
22.466	60.8272
22.484	60.8544
22.502	60.8856
22.52	60.9201
22.538	60.9577
22.556	60.9984
22.574	61.0417
22.592	61.0875
22.61	61.1358
22.628	61.186
22.646	61.2382
22.664	61.2921
22.682	61.3471
22.7	61.4036
22.718	61.4609
22.736	61.518
22.754	61.5757
22.772	61.6326
22.79	61.6878
22.808	61.7419
22.826	61.7932
22.844	61.8406
22.862	61.885
22.88	61.9239
22.898	61.9561
22.916	61.9826
22.934	62.0011
22.952	62.0109
22.97	62.0127
22.988	62.0049
23.006	61.9869
23.024	61.9594
23.042	61.9228
23.06	61.8767
23.078	61.8218
23.096	61.7602
23.114	61.6909
23.132	61.6153
23.15	61.5379
23.168	61.4574
23.186	61.3754
23.204	61.2979
23.222	61.2233
23.24	61.1534
23.258	61.0945
23.276	61.0455
23.294	61.0075
23.312	60.9866
23.33	60.9825
23.348	60.9949
23.366	61.0274
23.384	61.0805
23.402	61.1531
23.42	61.2451
23.438	61.3579
23.456	61.4899
23.474	61.6366
23.492	61.799
23.51	61.9763
23.528	62.1611
23.546	62.3532
23.564	62.5533
23.582	62.7515
23.6	62.9454
23.618	63.1379
23.636	63.3189
23.654	63.4831
23.672	63.6353
23.69	63.7681
23.708	63.8763
23.726	63.9634
23.744	64.0268
23.762	64.0637
23.78	64.0746
23.798	64.0614
23.816	64.0256
23.834	63.9645
23.852	63.8827
23.87	63.7862
23.888	63.6715
23.906	63.5423
23.924	63.4074
23.942	63.2656
23.96	63.117
23.978	62.9708
23.996	62.8294
24.014	62.6896
24.032	62.5589
24.05	62.4417
24.068	62.3345
24.086	62.2408
24.104	62.1647
24.122	62.1048
24.14	62.0607
24.158	62.0325
24.176	62.0215
24.194	62.026
24.212	62.0425
24.23	62.0714
24.248	62.1131
24.266	62.1632
24.284	62.2198
24.302	62.2851
24.32	62.3554
24.338	62.4273
24.356	62.5028
24.374	62.5804
24.392	62.6574
24.41	62.7339
24.428	62.8103
24.446	62.8857
24.464	62.9596
24.482	63.0324
24.5	63.104
24.518	63.1746
24.536	63.2436
24.554	63.3119
24.572	63.3802
24.59	63.4479
24.608	63.5154
24.626	63.5843
24.644	63.6553
24.662	63.7279
24.68	63.802
24.698	63.8778
24.716	63.9556
24.734	64.0347
24.752	64.1147
24.77	64.1966
24.788	64.2799
24.806	64.361
24.824	64.4378
24.842	64.5136
24.86	64.5838
24.878	64.6426
24.896	64.6934
24.914	64.7345
24.932	64.7587
24.95	64.7624
24.968	64.7502
24.986	64.7169
25.004	64.6573
25.022	64.5741
25.04	64.4664
25.058	64.3296
25.076	64.1616
25.094	63.965
25.112	63.7381
25.13	63.4789
25.148	63.187
25.166	62.8641
25.184	62.5123
25.202	62.1313
25.22	61.7192
25.238	61.2824
25.256	60.8273
25.274	60.349
25.292	59.8505
25.31	59.3411
25.328	58.8252
25.346	58.2957
25.364	57.7619
25.382	57.2343
25.4	56.7094
25.418	56.1866
25.436	55.6765
25.454	55.1865
25.472	54.7091
25.49	54.2498
25.508	53.8172
25.526	53.4111
25.544	53.0274
25.562	52.6768
25.58	52.3691
25.598	52.0965
25.616	51.8629
25.634	51.6794
25.652	51.5523
25.67	51.4726
25.688	51.4484
25.706	51.4898
25.724	51.5972
25.742	51.7664
25.76	52.0026
25.778	52.3109
25.796	52.6909
25.814	53.1398
25.832	53.6554
25.85	54.2377
25.868	54.8918
25.886	55.6075
25.904	56.3734
25.922	57.1918
25.94	58.0691
25.958	58.9837
25.976	59.9142
25.994	60.8744
26.012	61.8615
26.03	62.8475
26.048	63.8089
26.066	64.769
26.084	65.7145
26.102	66.6171
26.12	67.4599
26.138	68.2656
26.156	69.0174
26.174	69.6926
26.192	70.2831
26.21	70.8037
26.228	71.2434
26.246	71.5903
26.264	71.8414
26.282	72.0031
26.3	72.0762
26.318	72.0612
26.336	71.9531
26.354	71.756
26.372	71.4802
26.39	71.1348
26.408	70.706
26.426	70.2034
26.444	69.648
26.462	69.0564
26.48	68.4088
26.498	67.7175
26.516	67.0056
26.534	66.2882
26.552	65.5413
26.57	64.7837
26.588	64.0428
26.606	63.334
26.624	62.6312
26.642	61.9552
26.66	61.3334
26.678	60.7794
26.696	60.2687
26.714	59.8205
26.732	59.458
26.75	59.1919
26.768	59.0019
26.786	58.9032
26.804	58.9141
26.822	59.0442
26.84	59.2807
26.858	59.627
26.876	60.0881
26.894	60.6688
26.912	61.368
26.93	62.1778
26.948	63.0904
26.966	64.1727
26.984	65.5358
27.002	66.9084
27.02	67.9952
27.028	68.2785