File: Bakgrunnsmateriale/MATLAB/FTIR/ftir_data/subAa/Mapping_121/BZ1503107-1_t26.asc
PE IR       SPECTRUM    SPECTRUM    ASCII       PEDS        1.60
  -1
BZ2169~1.ASC
17/04/07
15:23:42.00
17/04/07
15:24:08.00
tln
$BZ1503107-1_t0026$<tbV0>[5.2,-7.8,8.0,0.0,27,1,0]
27.028
64

2002,4.07
MIRTGS : RIGHTBACK : INTERNAL 2
MIR : ON : INTERNAL 2
OPTKBR

0.200000
8
8.000000
FILLER
RATIO
SPECTRUM
UNLOCKED 256

DOUBLE
64
COMBINED
1
0
0

0.002000
RATIO

1
0
TRUE
51149
0
LEFT NOT FITTED RIGHT NOT FITTED 0
NONE
NONE
15600
12
4.427000
51148
TRUE
1 0 8 72 0 0 0 0

15798

#HDR
-1
-1
#GR
µM
%T
2.38419e-05
0.0
2.000000
0.002000
12515
8
83.4431
41.9637
#DATA
2.000000	 66.1422
2.018000	 64.637
2.036000	 65.2085
2.054000	 64.712
2.072000	 65.0046
2.090000	 64.6029
2.108000	 64.7541
2.126000	 65.6165
2.144000	 64.7113
2.162000	 64.9267
2.180000	 64.8461
2.198000	 65.044
2.216000	 66.1447
2.234000	 65.4039
2.252000	 65.1716
2.270000	 66.8286
2.288000	 65.0864
2.306000	 65.3082
2.324000	 65.3785
2.342000	 65.2496
2.360000	 65.1434
2.378000	 65.3099
2.396000	 64.9589
2.414000	 65.0977
2.432000	 65.2037
2.450000	 64.7009
2.468000	 64.8729
2.486000	 64.9579
2.504000	 65.5435
2.522000	 65.1182
2.540000	 64.9847
2.558000	 65.447
2.576000	 65.0544
2.594000	 65.2669
2.612000	 65.2175
2.630000	 65.0789
2.648000	 65.0201
2.666000	 65.0522
2.684000	 65.3012
2.702000	 65.1273
2.720000	 65.1555
2.738000	 65.2395
2.756000	 65.2207
2.774000	 65.3391
2.792000	 65.0748
2.810000	 64.9928
2.828000	 65.112
2.846000	 65.1542
2.864000	 65.1077
2.882000	 65.1541
2.900000	 65.0966
2.918000	 65.2648
2.936000	 65.1961
2.954000	 65.3431
2.972000	 65.0765
2.990000	 65.2906
3.008000	 65.2522
3.026000	 65.0105
3.044000	 64.9751
3.062000	 65.0251
3.080000	 65.0929
3.098000	 65.0807
3.116000	 65.0828
3.134000	 64.9431
3.152000	 65.0128
3.170000	 65.3348
3.188000	 64.9577
3.206000	 65.0528
3.224000	 65.2325
3.242000	 65.0922
3.260000	 65.1418
3.278000	 65.1818
3.296000	 65.0221
3.314000	 65.1986
3.332000	 65.1319
3.350000	 65.0441
3.368000	 64.9423
3.386000	 65.098
3.404000	 64.9489
3.422000	 64.9687
3.440000	 65.1556
3.458000	 65.0597
3.476000	 65.0049
3.494000	 65.1023
3.512000	 64.839
3.530000	 65.0625
3.548000	 65.0617
3.566000	 65.0167
3.584000	 65.1084
3.602000	 65.0485
3.620000	 65.0658
3.638000	 65.0198
3.656000	 64.9482
3.674000	 65.0663
3.692000	 64.9155
3.710000	 65.0959
3.728000	 65.0699
3.746000	 64.9709
3.764000	 65.079
3.782000	 65.0509
3.800000	 64.9822
3.818000	 64.9797
3.836000	 65.0008
3.854000	 65.0216
3.872000	 64.9654
3.890000	 64.9921
3.908000	 65.1288
3.926000	 65.0913
3.944000	 65.0768
3.962000	 64.879
3.980000	 65.1298
3.998000	 65.1762
4.016000	 64.9494
4.034000	 64.9019
4.052000	 64.8215
4.070000	 64.8465
4.088000	 64.9846
4.106000	 64.9022
4.124000	 64.8529
4.141999	 65.0724
4.160000	 64.844
4.178000	 64.9984
4.196000	 64.9504
4.214000	 64.7795
4.232000	 64.8931
4.250000	 64.9678
4.268000	 64.912
4.286000	 64.9136
4.304000	 64.9226
4.322000	 64.9781
4.340000	 64.8596
4.358000	 64.849
4.375999	 64.8658
4.394000	 64.8698
4.412000	 64.8777
4.430000	 64.8679
4.448000	 64.9537
4.466000	 64.9104
4.484000	 64.9447
4.502000	 64.8894
4.520000	 64.919
4.538000	 64.9732
4.556000	 65.0177
4.574000	 64.8744
4.592000	 64.9284
4.609999	 65.005
4.628000	 64.9572
4.646000	 64.8896
4.664000	 64.9806
4.682000	 64.899
4.700000	 64.8843
4.718000	 64.9003
4.736000	 64.8622
4.754000	 64.7773
4.772000	 64.8211
4.790000	 64.818
4.808000	 64.832
4.826000	 64.9356
4.843999	 64.7479
4.862000	 64.7058
4.880000	 64.8218
4.898000	 64.7066
4.916000	 64.7365
4.934000	 64.8107
4.952000	 64.8493
4.970000	 64.8378
4.988000	 64.8641
5.006000	 64.8468
5.024000	 64.7353
5.042000	 64.8089
5.060000	 64.8197
5.077999	 64.8167
5.096000	 64.7394
5.114000	 64.7776
5.132000	 64.8242
5.150000	 64.838
5.168000	 64.7225
5.186000	 64.7382
5.204000	 64.8406
5.222000	 64.7713
5.240000	 64.7746
5.258000	 64.7093
5.276000	 64.7392
5.294000	 64.7703
5.312000	 64.7
5.330000	 64.7287
5.348000	 64.8069
5.366000	 64.81
5.384000	 64.743
5.402000	 64.7948
5.420000	 64.7314
5.438000	 64.7698
5.456000	 64.7453
5.474000	 64.7406
5.492000	 64.6836
5.510000	 64.666
5.528000	 64.6902
5.546000	 64.7394
5.564000	 64.7708
5.582000	 64.7903
5.600000	 64.7513
5.618000	 64.6828
5.636000	 64.597
5.654000	 64.5628
5.672000	 64.5368
5.690000	 64.5077
5.708000	 64.5418
5.726000	 64.4631
5.744000	 64.2787
5.762000	 64.1745
5.780000	 64.2508
5.798000	 64.4338
5.816000	 64.4003
5.834000	 64.3623
5.852000	 64.4799
5.870000	 64.6142
5.888000	 64.6997
5.906000	 64.6772
5.923999	 64.7518
5.942000	 64.7559
5.960000	 64.6588
5.978000	 64.6309
5.996000	 64.6426
6.014000	 64.624
6.032000	 64.5426
6.050000	 64.4183
6.068000	 64.3426
6.086000	 64.3657
6.104000	 64.5279
6.122000	 64.586
6.140000	 64.5146
6.158000	 64.4434
6.176000	 64.3926
6.194000	 64.4117
6.212000	 64.4934
6.230000	 64.5866
6.248000	 64.5761
6.266000	 64.5008
6.284000	 64.4083
6.302000	 64.3686
6.320000	 64.4203
6.338000	 64.5028
6.356000	 64.5781
6.374000	 64.6179
6.392000	 64.6654
6.410000	 64.6803
6.428000	 64.5682
6.446000	 64.4694
6.464000	 64.46
6.482000	 64.4353
6.500000	 64.4293
6.518000	 64.4485
6.536000	 64.4304
6.554000	 64.4099
6.572000	 64.4629
6.590000	 64.5326
6.608000	 64.5197
6.626000	 64.5198
6.644000	 64.5315
6.662000	 64.4924
6.680000	 64.4714
6.698000	 64.4651
6.716000	 64.4041
6.734000	 64.3961
6.752000	 64.5049
6.770000	 64.5782
6.788000	 64.5173
6.806000	 64.4122
6.824000	 64.3468
6.842000	 64.3238
6.860000	 64.3283
6.878000	 64.3542
6.896000	 64.4255
6.914000	 64.4912
6.932000	 64.4439
6.950000	 64.3329
6.968000	 64.2854
6.986000	 64.2744
7.004000	 64.2402
7.022000	 64.2517
7.040000	 64.3347
7.058000	 64.411
7.076000	 64.4339
7.094000	 64.4428
7.112000	 64.4405
7.130000	 64.3708
7.148000	 64.2965
7.166000	 64.2887
7.184000	 64.2801
7.202000	 64.2603
7.220000	 64.2654
7.238000	 64.2611
7.256000	 64.2567
7.274000	 64.2952
7.292000	 64.3171
7.310000	 64.2763
7.328000	 64.2535
7.346000	 64.2983
7.364000	 64.3417
7.382000	 64.3153
7.400000	 64.2318
7.418000	 64.1777
7.436000	 64.2258
7.454000	 64.3298
7.472000	 64.3754
7.490000	 64.3375
7.508000	 64.3016
7.526000	 64.3361
7.544000	 64.4074
7.562000	 64.4483
7.580000	 64.4484
7.598000	 64.4218
7.616000	 64.3647
7.634000	 64.2996
7.652000	 64.264
7.670000	 64.2502
7.688000	 64.2288
7.706000	 64.2043
7.724000	 64.2078
7.742000	 64.2548
7.760000	 64.3111
7.778000	 64.3204
7.796000	 64.2799
7.814000	 64.2365
7.832000	 64.2135
7.850000	 64.1971
7.868000	 64.1778
7.886000	 64.1502
7.904000	 64.1029
7.922000	 64.0553
7.940000	 64.0612
7.958000	 64.1345
7.976000	 64.2117
7.994000	 64.2266
8.012000	 64.1901
8.030000	 64.1567
8.048000	 64.1502
8.065999	 64.1582
8.084000	 64.1699
8.102000	 64.1814
8.120000	 64.1712
8.138000	 64.113
8.155999	 64.0216
8.173999	 63.9596
8.192000	 63.9791
8.210000	 64.071
8.228000	 64.1719
8.246000	 64.2202
8.263999	 64.2041
8.282000	 64.1639
8.300000	 64.139
8.318000	 64.1294
8.336000	 64.1217
8.353999	 64.1218
8.372000	 64.139
8.390000	 64.1617
8.408000	 64.1693
8.426000	 64.1586
8.443999	 64.1468
8.462000	 64.1476
8.480000	 64.1547
8.498000	 64.1503
8.516000	 64.1267
8.533999	 64.0953
8.552000	 64.0693
8.570000	 64.0497
8.588000	 64.0326
8.606000	 64.0247
8.624000	 64.0364
8.641999	 64.0631
8.660000	 64.0847
8.678000	 64.0854
8.696000	 64.0683
8.714000	 64.0502
8.731999	 64.0451
8.750000	 64.0506
8.768000	 64.0526
8.786000	 64.0409
8.804000	 64.014
8.821999	 63.9729
8.840000	 63.9238
8.858000	 63.8826
8.876000	 63.8693
8.894000	 63.9002
8.911999	 63.9752
8.930000	 64.0673
8.948000	 64.1374
8.966000	 64.1726
8.984000	 64.1967
9.001999	 64.2361
9.020000	 64.2842
9.038000	 64.3078
9.056000	 64.2799
9.074000	 64.2054
9.092000	 64.1125
9.109999	 64.026
9.128000	 63.9576
9.146000	 63.9167
9.164000	 63.9142
9.182000	 63.9479
9.199999	 63.9941
9.218000	 64.0262
9.236000	 64.0361
9.254000	 64.0364
9.272000	 64.0425
9.289999	 64.0587
9.308000	 64.0807
9.326000	 64.1034
9.344000	 64.1232
9.362000	 64.1359
9.379999	 64.138
9.398000	 64.1317
9.416000	 64.1259
9.434000	 64.1318
9.452000	 64.1572
9.469999	 64.2022
9.488000	 64.2574
9.506000	 64.3038
9.524000	 64.319
9.542000	 64.2927
9.560000	 64.2365
9.577999	 64.1761
9.596000	 64.1313
9.614000	 64.1045
9.632000	 64.0871
9.650000	 64.0717
9.667999	 64.0573
9.686000	 64.0465
9.704000	 64.0421
9.722000	 64.0481
9.740000	 64.0708
9.757999	 64.1137
9.776000	 64.1683
9.794000	 64.2153
9.812000	 64.234
9.830000	 64.2152
9.847999	 64.1662
9.866000	 64.1037
9.884000	 64.0446
9.902000	 64.0011
9.920000	 63.9794
9.937999	 63.9852
9.956000	 64.0244
9.974000	 64.0998
9.992000	 64.2056
10.01	64.3229
10.028	64.4208
10.046	64.4678
10.064	64.4495
10.082	64.3773
10.1	64.2859
10.118	64.217
10.136	64.1969
10.154	64.2266
10.172	64.2833
10.19	64.3341
10.208	64.3561
10.226	64.3454
10.244	64.316
10.262	64.2888
10.28	64.2764
10.298	64.2774
10.316	64.2783
10.334	64.2651
10.352	64.2328
10.37	64.1883
10.388	64.1455
10.406	64.1161
10.424	64.1067
10.442	64.1184
10.46	64.1494
10.478	64.1961
10.496	64.2522
10.514	64.3086
10.532	64.3522
10.55	64.3717
10.568	64.362
10.586	64.3289
10.604	64.2879
10.622	64.2594
10.64	64.2585
10.658	64.2885
10.676	64.338
10.694	64.3881
10.712	64.4199
10.73	64.424
10.748	64.4021
10.766	64.3634
10.784	64.3176
10.802	64.2706
10.82	64.2237
10.838	64.1767
10.856	64.1318
10.874	64.0931
10.892	64.0647
10.91	64.0485
10.928	64.0423
10.946	64.0413
10.964	64.0411
10.982	64.0403
11	64.0401
11.018	64.0422
11.036	64.0464
11.054	64.0501
11.072	64.0501
11.09	64.0463
11.108	64.0427
11.126	64.0458
11.144	64.0599
11.162	64.0838
11.18	64.1107
11.198	64.1317
11.216	64.1415
11.234	64.1419
11.252	64.1423
11.27	64.1537
11.288	64.1832
11.306	64.2292
11.324	64.2805
11.342	64.3213
11.36	64.3386
11.378	64.3276
11.396	64.2943
11.414	64.2531
11.432	64.2205
11.45	64.2076
11.468	64.2172
11.486	64.2433
11.504	64.2743
11.522	64.2976
11.54	64.306
11.558	64.2985
11.576	64.2821
11.594	64.2675
11.612	64.2664
11.63	64.2853
11.648	64.3232
11.666	64.3708
11.684	64.4133
11.702	64.4364
11.72	64.4305
11.738	64.3947
11.756	64.3365
11.774	64.2687
11.792	64.2052
11.81	64.1554
11.828	64.1231
11.846	64.1073
11.864	64.104
11.882	64.1098
11.9	64.1222
11.918	64.1396
11.936	64.1602
11.954	64.1806
11.972	64.197
11.99	64.206
12.008	64.2074
12.026	64.2051
12.044	64.2057
12.062	64.2148
12.08	64.2335
12.098	64.2574
12.116	64.2772
12.134	64.2825
12.152	64.2658
12.17	64.2253
12.188	64.1647
12.206	64.0923
12.224	64.0175
12.242	63.9475
12.26	63.8868
12.278	63.8374
12.296	63.7998
12.314	63.775
12.332	63.7643
12.35	63.7689
12.368	63.7884
12.386	63.8198
12.404	63.8578
12.422	63.8962
12.44	63.929
12.458	63.9529
12.476	63.9673
12.494	63.9746
12.512	63.9793
12.53	63.987
12.548	64.0029
12.566	64.0306
12.584	64.0715
12.602	64.1239
12.62	64.1836
12.638	64.2444
12.656	64.2987
12.674	64.3394
12.692	64.3611
12.71	64.3612
12.728	64.3407
12.746	64.3043
12.764	64.259
12.782	64.2126
12.8	64.1723
12.818	64.1427
12.836	64.1249
12.854	64.1165
12.872	64.1128
12.89	64.1079
12.908	64.0961
12.926	64.0739
12.944	64.0404
12.962	63.998
12.98	63.9517
12.998	63.9077
13.016	63.8719
13.034	63.8476
13.052	63.835
13.07	63.8309
13.088	63.8293
13.106	63.8222
13.124	63.8022
13.142	63.7639
13.16	63.7054
13.178	63.6293
13.196	63.5419
13.214	63.4531
13.232	63.3738
13.25	63.315
13.268	63.2848
13.286	63.2877
13.304	63.3227
13.322	63.3846
13.34	63.4645
13.358	63.5515
13.376	63.6345
13.394	63.7044
13.412	63.7556
13.43	63.7875
13.448	63.8041
13.466	63.8125
13.484	63.8213
13.502	63.8387
13.52	63.8704
13.538	63.9182
13.556	63.9802
13.574	64.0512
13.592	64.1242
13.61	64.1916
13.628	64.2465
13.646	64.2841
13.664	64.3018
13.682	64.3
13.7	64.2819
13.718	64.2527
13.736	64.219
13.754	64.1885
13.772	64.1679
13.79	64.1629
13.808	64.1759
13.826	64.2067
13.844	64.2511
13.862	64.3018
13.88	64.3491
13.898	64.3825
13.916	64.393
13.934	64.3747
13.952	64.3257
13.97	64.2484
13.988	64.1482
14.006	64.0327
14.024	63.9098
14.042	63.7858
14.06	63.6656
14.078	63.5517
14.096	63.4462
14.114	63.3509
14.132	63.2689
14.15	63.2041
14.168	63.1608
14.186	63.1432
14.204	63.1534
14.222	63.1909
14.24	63.251
14.258	63.3261
14.276	63.4058
14.294	63.4791
14.312	63.5362
14.33	63.5705
14.348	63.5791
14.366	63.5638
14.384	63.5301
14.402	63.4856
14.42	63.4374
14.438	63.3914
14.456	63.351
14.474	63.3174
14.492	63.2895
14.51	63.2651
14.528	63.2421
14.546	63.2202
14.564	63.201
14.582	63.1882
14.6	63.1864
14.618	63.201
14.636	63.2369
14.654	63.2964
14.672	63.3789
14.69	63.4811
14.708	63.5971
14.726	63.7188
14.744	63.8361
14.762	63.9405
14.78	64.0248
14.798	64.0841
14.816	64.1158
14.834	64.1198
14.852	64.0993
14.87	64.0591
14.888	64.0047
14.906	63.942
14.924	63.8766
14.942	63.8147
14.96	63.7597
14.978	63.7142
14.996	63.679
15.014	63.6537
15.032	63.6371
15.05	63.6265
15.068	63.6188
15.086	63.6109
15.104	63.5998
15.122	63.5828
15.14	63.5581
15.158	63.5247
15.176	63.4822
15.194	63.4305
15.212	63.3711
15.23	63.3057
15.248	63.2365
15.266	63.1658
15.284	63.0964
15.302	63.0306
15.32	62.9698
15.338	62.9156
15.356	62.8693
15.374	62.8309
15.392	62.8002
15.41	62.7773
15.428	62.762
15.446	62.7551
15.464	62.7565
15.482	62.7666
15.5	62.7862
15.518	62.816
15.536	62.8571
15.554	62.9101
15.572	62.9749
15.59	63.0516
15.608	63.1394
15.626	63.2374
15.644	63.3444
15.662	63.4583
15.68	63.5775
15.698	63.7002
15.716	63.824
15.734	63.9462
15.752	64.0646
15.77	64.1767
15.788	64.2784
15.806	64.3662
15.824	64.4368
15.842	64.4868
15.86	64.5131
15.878	64.5147
15.896	64.4907
15.914	64.4413
15.932	64.3698
15.95	64.2793
15.968	64.1743
15.986	64.0609
16.004	63.9432
16.022	63.8253
16.04	63.7119
16.058	63.6048
16.076	63.5055
16.094	63.4144
16.112	63.3309
16.13	63.2544
16.148	63.1839
16.166	63.1191
16.184	63.0603
16.202	63.008
16.22	62.9643
16.238	62.9304
16.256	62.9078
16.274	62.8978
16.292	62.8999
16.31	62.9136
16.328	62.9362
16.346	62.9641
16.364	62.994
16.382	63.0209
16.4	63.0416
16.418	63.0538
16.436	63.056
16.454	63.0497
16.472	63.0363
16.49	63.0209
16.508	63.0091
16.526	63.0051
16.544	63.0165
16.562	63.047
16.58	63.0996
16.598	63.1765
16.616	63.2756
16.634	63.3957
16.652	63.5302
16.67	63.6735
16.688	63.8198
16.706	63.9593
16.724	64.0877
16.742	64.1981
16.76	64.2862
16.778	64.3503
16.796	64.3887
16.814	64.403
16.832	64.3944
16.85	64.367
16.868	64.3246
16.886	64.2702
16.904	64.2098
16.922	64.1458
16.94	64.0818
16.958	64.0209
16.976	63.9645
16.994	63.9153
17.012	63.8742
17.03	63.8419
17.048	63.8196
17.066	63.8075
17.084	63.806
17.102	63.815
17.12	63.8347
17.138	63.8646
17.156	63.9042
17.174	63.9529
17.192	64.0092
17.21	64.0722
17.228	64.1397
17.246	64.2099
17.264	64.2817
17.282	64.3524
17.3	64.4212
17.318	64.4861
17.336	64.5457
17.354	64.5993
17.372	64.6457
17.39	64.685
17.408	64.7165
17.426	64.7404
17.444	64.7566
17.462	64.7651
17.48	64.7658
17.498	64.759
17.516	64.7446
17.534	64.7226
17.552	64.6932
17.57	64.6564
17.588	64.6128
17.606	64.5632
17.624	64.5084
17.642	64.4504
17.66	64.3898
17.678	64.3294
17.696	64.27
17.714	64.2142
17.732	64.1628
17.75	64.1175
17.768	64.0793
17.786	64.0486
17.804	64.0255
17.822	64.0097
17.84	64.0004
17.858	63.9966
17.876	63.9973
17.894	64.0009
17.912	64.0068
17.93	64.0134
17.948	64.0204
17.966	64.0267
17.984	64.0321
18.002	64.0357
18.02	64.0374
18.038	64.0367
18.056	64.0331
18.074	64.0266
18.092	64.0163
18.11	64.0022
18.128	63.9834
18.146	63.9599
18.164	63.9309
18.182	63.8964
18.2	63.856
18.218	63.81
18.236	63.7585
18.254	63.7026
18.272	63.6425
18.29	63.5801
18.308	63.5158
18.326	63.4522
18.344	63.3897
18.362	63.3309
18.38	63.2763
18.398	63.228
18.416	63.1865
18.434	63.153
18.452	63.1274
18.47	63.1104
18.488	63.1007
18.506	63.0981
18.524	63.1008
18.542	63.1083
18.56	63.118
18.578	63.1294
18.596	63.1401
18.614	63.1498
18.632	63.1563
18.65	63.1597
18.668	63.1591
18.686	63.1548
18.704	63.1473
18.722	63.137
18.74	63.1259
18.758	63.1146
18.776	63.1051
18.794	63.0983
18.812	63.0965
18.83	63.0999
18.848	63.1104
18.866	63.1277
18.884	63.1526
18.902	63.1842
18.92	63.222
18.938	63.2647
18.956	63.3106
18.974	63.3581
18.992	63.4049
19.01	63.4494
19.028	63.4892
19.046	63.5235
19.064	63.5499
19.082	63.5686
19.1	63.5781
19.118	63.5792
19.136	63.572
19.154	63.5575
19.172	63.5372
19.19	63.5122
19.208	63.4852
19.226	63.457
19.244	63.431
19.262	63.4074
19.28	63.3897
19.298	63.3777
19.316	63.3739
19.334	63.3782
19.352	63.3916
19.37	63.4139
19.388	63.445
19.406	63.4847
19.424	63.5316
19.442	63.5856
19.46	63.6445
19.478	63.7081
19.496	63.7742
19.514	63.8422
19.532	63.9104
19.55	63.978
19.568	64.0441
19.586	64.1074
19.604	64.1678
19.622	64.2241
19.64	64.2764
19.658	64.3238
19.676	64.3666
19.694	64.4042
19.712	64.4367
19.73	64.4642
19.748	64.4865
19.766	64.5038
19.784	64.5163
19.802	64.524
19.82	64.5272
19.838	64.5259
19.856	64.5204
19.874	64.5109
19.892	64.4976
19.91	64.4805
19.928	64.4603
19.946	64.4368
19.964	64.4107
19.982	64.3821
20	64.3516
20.018	64.3195
20.036	64.2864
20.054	64.2532
20.072	64.22
20.09	64.1882
20.108	64.1577
20.126	64.1302
20.144	64.1056
20.162	64.0851
20.18	64.0691
20.198	64.0579
20.216	64.0522
20.234	64.0517
20.252	64.0567
20.27	64.0672
20.288	64.0823
20.306	64.102
20.324	64.1253
20.342	64.1515
20.36	64.1803
20.378	64.2099
20.396	64.2408
20.414	64.2711
20.432	64.3012
20.45	64.3299
20.468	64.3569
20.486	64.3821
20.504	64.405
20.522	64.4257
20.54	64.4446
20.558	64.4615
20.576	64.477
20.594	64.4913
20.612	64.5045
20.63	64.5174
20.648	64.5299
20.666	64.5423
20.684	64.5546
20.702	64.5666
20.72	64.5783
20.738	64.5894
20.756	64.599
20.774	64.6072
20.792	64.6128
20.81	64.6158
20.828	64.6154
20.846	64.6107
20.864	64.6018
20.882	64.5881
20.9	64.5696
20.918	64.5463
20.936	64.5181
20.954	64.4853
20.972	64.4488
20.99	64.4084
21.008	64.3654
21.026	64.3201
21.044	64.2731
21.062	64.226
21.08	64.1785
21.098	64.1319
21.116	64.0868
21.134	64.0432
21.152	64.0021
21.17	63.9632
21.188	63.9277
21.206	63.8954
21.224	63.8669
21.242	63.8429
21.26	63.8231
21.278	63.8084
21.296	63.7991
21.314	63.7952
21.332	63.7974
21.35	63.8054
21.368	63.8193
21.386	63.8394
21.404	63.8652
21.422	63.896
21.44	63.9321
21.458	63.9718
21.476	64.0146
21.494	64.0603
21.512	64.1059
21.53	64.1527
21.548	64.1976
21.566	64.2389
21.584	64.277
21.602	64.3086
21.62	64.334
21.638	64.3522
21.656	64.3612
21.674	64.3617
21.692	64.3535
21.71	64.3361
21.728	64.3102
21.746	64.2774
21.764	64.2366
21.782	64.1909
21.8	64.1419
21.818	64.089
21.836	64.037
21.854	63.9855
21.872	63.9362
21.89	63.8934
21.908	63.8556
21.926	63.8256
21.944	63.8058
21.962	63.795
21.98	63.7951
21.998	63.8066
22.016	63.8289
22.034	63.8615
22.052	63.9051
22.07	63.9573
22.088	64.0168
22.106	64.0841
22.124	64.1553
22.142	64.23
22.16	64.3076
22.178	64.3829
22.196	64.4573
22.214	64.5283
22.232	64.5922
22.25	64.6508
22.268	64.7006
22.286	64.7394
22.304	64.7684
22.322	64.7849
22.34	64.7883
22.358	64.7789
22.376	64.7552
22.394	64.7172
22.412	64.6654
22.43	64.5998
22.448	64.52
22.466	64.4278
22.484	64.324
22.502	64.2079
22.52	64.0831
22.538	63.9503
22.556	63.8092
22.574	63.665
22.592	63.5174
22.61	63.3675
22.628	63.2214
22.646	63.0773
22.664	62.938
22.682	62.8093
22.7	62.6889
22.718	62.5802
22.736	62.4879
22.754	62.4098
22.772	62.349
22.79	62.3087
22.808	62.2872
22.826	62.2862
22.844	62.3073
22.862	62.3497
22.88	62.4121
22.898	62.4948
22.916	62.5977
22.934	62.7167
22.952	62.8516
22.97	63.0024
22.988	63.1631
23.006	63.3337
23.024	63.5139
23.042	63.6965
23.06	63.882
23.078	64.0696
23.096	64.2518
23.114	64.429
23.132	64.6007
23.15	64.7604
23.168	64.9084
23.186	65.0446
23.204	65.1651
23.222	65.27
23.24	65.3594
23.258	65.4318
23.276	65.487
23.294	65.5254
23.312	65.5468
23.33	65.5507
23.348	65.5381
23.366	65.5106
23.384	65.4674
23.402	65.4096
23.42	65.3407
23.438	65.2603
23.456	65.1689
23.474	65.0706
23.492	64.9654
23.51	64.8533
23.528	64.7381
23.546	64.6204
23.564	64.4996
23.582	64.3794
23.6	64.261
23.618	64.143
23.636	64.0292
23.654	63.9211
23.672	63.8173
23.69	63.7203
23.708	63.632
23.726	63.5508
23.744	63.4787
23.762	63.4173
23.78	63.3658
23.798	63.3244
23.816	63.2937
23.834	63.2738
23.852	63.2639
23.87	63.2631
23.888	63.2725
23.906	63.2907
23.924	63.3152
23.942	63.3467
23.96	63.3848
23.978	63.4263
23.996	63.4706
24.014	63.5186
24.032	63.5669
24.05	63.6134
24.068	63.6598
24.086	63.7042
24.104	63.7445
24.122	63.7817
24.14	63.8152
24.158	63.844
24.176	63.8674
24.194	63.8866
24.212	63.903
24.23	63.9158
24.248	63.9252
24.266	63.9347
24.284	63.9459
24.302	63.9562
24.32	63.9708
24.338	63.9942
24.356	64.0231
24.374	64.0606
24.392	64.1121
24.41	64.176
24.428	64.2526
24.446	64.347
24.464	64.4613
24.482	64.5932
24.5	64.7445
24.518	64.9171
24.536	65.11
24.554	65.3232
24.572	65.5568
24.59	65.8118
24.608	66.087
24.626	66.3804
24.644	66.6913
24.662	67.0209
24.68	67.3662
24.698	67.7251
24.716	68.0997
24.734	68.4875
24.752	68.8842
24.77	69.2899
24.788	69.7054
24.806	70.1272
24.824	70.5527
24.842	70.984
24.86	71.4196
24.878	71.8576
24.896	72.2985
24.914	72.7423
24.932	73.1873
24.95	73.6328
24.968	74.0796
24.986	74.527
25.004	74.974
25.022	75.4222
25.04	75.8702
25.058	76.3151
25.076	76.7565
25.094	77.1965
25.112	77.63
25.13	78.0523
25.148	78.4673
25.166	78.8723
25.184	79.2602
25.202	79.6281
25.22	79.9806
25.238	80.3118
25.256	80.6155
25.274	80.8957
25.292	81.1507
25.31	81.3732
25.328	81.5595
25.346	81.7147
25.364	81.8339
25.382	81.9115
25.4	81.9478
25.418	81.9445
25.436	81.9002
25.454	81.8131
25.472	81.6825
25.49	81.5119
25.508	81.3051
25.526	81.0604
25.544	80.7762
25.562	80.463
25.58	80.1301
25.598	79.7682
25.616	79.3838
25.634	78.9923
25.652	78.602
25.67	78.2004
25.688	77.8008
25.706	77.4193
25.724	77.0551
25.742	76.7024
25.76	76.3747
25.778	76.0848
25.796	75.8246
25.814	75.5964
25.832	75.4102
25.85	75.2729
25.868	75.1783
25.886	75.1281
25.904	75.126
25.922	75.174
25.94	75.2703
25.958	75.412
25.976	75.5965
25.994	75.8284
26.012	76.1048
26.03	76.4162
26.048	76.7549
26.066	77.1306
26.084	77.536
26.102	77.9577
26.12	78.3883
26.138	78.8406
26.156	79.3019
26.174	79.7563
26.192	80.2001
26.21	80.6446
26.228	81.075
26.246	81.4755
26.264	81.8479
26.282	82.1985
26.3	82.5144
26.318	82.7831
26.336	83.0091
26.354	83.1944
26.372	83.3316
26.39	83.4135
26.408	83.4429
26.426	83.4214
26.444	83.3477
26.462	83.2206
26.48	83.039
26.498	82.8057
26.516	82.5244
26.534	82.1965
26.552	81.8159
26.57	81.3902
26.588	80.9295
26.606	80.4392
26.624	79.9097
26.642	79.3495
26.66	78.7697
26.678	78.1741
26.696	77.5503
26.714	76.9131
26.732	76.2795
26.75	75.6567
26.768	75.0293
26.786	74.4112
26.804	73.8187
26.822	73.2558
26.84	72.7056
26.858	72.1886
26.876	71.7273
26.894	71.3288
26.912	70.9705
26.93	70.6763
26.948	70.4736
26.966	70.4002
26.984	70.4687
27.002	70.6024
27.02	70.7199
27.028	70.744