File: Bakgrunnsmateriale/MATLAB/FTIR/ftir_data/subAa/Mapping_121/BZ1503107-1_t01_cm-1.asc
PE IR       SPECTRUM    SPECTRUM    ASCII       PEDS        1.60
  -1
BZ1503~3.ASC
17/04/07
13:20:30.00
17/04/07
13:20:30.00
tln
$BZ1503107-1_t0001$<tbV0>[13.0,-13.0,8.0,0.0,27,1,0]
370
64

2002,4.07
MIRTGS : RIGHTBACK : INTERNAL 2
MIR : ON : INTERNAL 2
OPTKBR

0.200000
8
8.000000
FILLER
RATIO
SPECTRUM
UNLOCKED 256

DOUBLE
64
COMBINED
1
0
0

1.000000
RATIO

1
0
TRUE
51149
0
LEFT NOT FITTED RIGHT NOT FITTED 0
NONE
NONE
15600
12
4.427000
51148
TRUE
1 0 8 72 0 0 0 0

15798

#HDR
-1
-1
#GR
CM-1
%T
2.38419e-05
0.0
5000
-1.000000
4631
8
109.6
41.8679
#DATA
5000	65.3366
4996	65.0575
4992	64.6793
4988	64.514
4984	64.5979
4980	64.6426
4976	64.6084
4972	64.5125
4968	64.3287
4964	64.6353
4960	65.2702
4956	65.3157
4952	65.0338
4948	65.0764
4944	65.1698
4940	64.993
4936	64.8546
4932	64.8508
4928	65.0269
4924	65.3363
4920	65.3629
4916	65.1634
4912	65.1679
4908	65.2402
4904	65.0283
4900	64.7907
4896	64.7213
4892	64.627
4888	64.5375
4884	64.9851
4880	65.4634
4876	64.9751
4872	64.1431
4868	64.1007
4864	65.0387
4860	65.4648
4856	64.2826
4852	62.9964
4848	63.1984
4844	64.4125
4840	65.5128
4836	65.6832
4832	64.4256
4828	63.362
4824	63.7036
4820	63.9442
4816	64.3229
4812	65.3362
4808	65.4245
4804	65.4711
4800	66.0623
4796	65.3625
4792	64.2516
4788	64.2427
4784	64.7929
4780	65.256
4776	65.3901
4772	65.0875
4768	64.4922
4764	64.3713
4760	64.9213
4756	65.0291
4752	64.5939
4748	64.4251
4744	64.6391
4740	64.9877
4736	65.109
4732	64.996
4728	64.6293
4724	64.1892
4720	63.9786
4716	64.0758
4712	64.2423
4708	64.2926
4704	64.6158
4700	64.7902
4696	64.4834
4692	64.2968
4688	64.4194
4684	64.6235
4680	64.8527
4676	65.153
4672	65.2852
4668	65.1324
4664	64.9813
4660	64.9359
4656	64.8214
4652	64.7479
4648	64.9414
4644	65.1356
4640	65.1326
4636	65.0611
4632	64.9333
4628	64.7474
4624	64.5972
4620	64.5782
4616	64.6528
4612	64.6902
4608	64.7764
4604	65.0754
4600	65.3401
4596	65.3706
4592	65.3624
4588	65.5092
4584	65.6537
4580	65.6372
4576	65.5998
4572	65.4383
4568	65.241
4564	65.1448
4560	65.0114
4556	64.8896
4552	64.7901
4548	64.7799
4544	64.897
4540	64.9835
4536	65.0983
4532	65.1032
4528	64.9582
4524	64.904
4520	64.9369
4516	65.1078
4512	65.5102
4508	65.7207
4504	65.6779
4500	65.6461
4496	65.8447
4492	66.9203
4488	67.7379
4484	68.8276
4480	69.607
4476	66.2711
4472	62.5103
4468	59.7927
4464	52.5913
4460	49.7694
4456	58.9083
4452	66.0052
4448	65.466
4444	65.0408
4440	65.7604
4436	65.5036
4432	64.8381
4428	64.8864
4424	65.3414
4420	65.6015
4416	65.7976
4412	65.9333
4408	65.9009
4404	65.7455
4400	65.4545
4396	65.2767
4392	65.2709
4388	65.254
4384	65.1605
4380	65.0741
4376	65.0345
4372	64.9905
4368	65.0701
4364	65.0777
4360	65.0255
4356	65.2845
4352	65.4576
4348	65.3331
4344	65.3696
4340	65.3693
4336	65.2429
4332	65.1618
4328	64.9877
4324	64.9003
4320	64.9733
4316	65.1804
4312	65.3794
4308	65.329
4304	65.2992
4300	65.2771
4296	65.0169
4292	64.9646
4288	65.2083
4284	65.2416
4280	65.0591
4276	64.9421
4272	64.943
4268	64.9772
4264	65.0306
4260	65.0517
4256	64.9595
4252	64.9193
4248	65.0322
4244	65.1311
4240	65.1338
4236	65.1923
4232	65.2667
4228	65.1329
4224	64.9743
4220	64.996
4216	64.9779
4212	64.9519
4208	65.1281
4204	65.2747
4200	65.1531
4196	64.9161
4192	64.8659
4188	65.0654
4184	65.1557
4180	65.0087
4176	64.9096
4172	64.8401
4168	64.7509
4164	64.8548
4160	65.0415
4156	65.0424
4152	64.8537
4148	64.727
4144	64.9223
4140	65.115
4136	64.9303
4132	64.7298
4128	64.8121
4124	64.9349
4120	64.9854
4116	65.0932
4112	65.1432
4108	65.076
4104	65.1808
4100	65.3459
4096	65.2661
4092	65.2094
4088	65.3153
4084	65.3591
4080	65.3535
4076	65.3636
4072	65.2694
4068	65.0812
4064	65.0944
4060	65.1849
4056	65.0735
4052	64.9583
4048	64.8597
4044	64.8336
4040	65.034
4036	65.1643
4032	65.0312
4028	64.8775
4024	64.899
4020	65.0137
4016	65.0962
4012	65.1303
4008	65.1112
4004	65.0642
4000	64.9768
3996	64.9055
3992	65.0142
3988	65.1758
3984	65.1535
3980	65.1073
3976	65.2442
3972	65.3703
3968	65.321
3964	65.2148
3960	65.0978
3956	64.9745
3952	65.0402
3948	65.3415
3944	65.5681
3940	65.5393
3936	65.4127
3932	65.3023
3928	65.1638
3924	65.0346
3920	65.0463
3916	65.1269
3912	65.1501
3908	65.0896
3904	65.0145
3900	65.0974
3896	65.1967
3892	65.1516
3888	65.0867
3884	65.0584
3880	65.0788
3876	65.0992
3872	65.0616
3868	65.0341
3864	65.0453
3860	65.1149
3856	65.1925
3852	65.1939
3848	65.1539
3844	65.1057
3840	65.1127
3836	65.1979
3832	65.2929
3828	65.3152
3824	65.1771
3820	65.0284
3816	65.0486
3812	65.1629
3808	65.2389
3804	65.2802
3800	65.2665
3796	65.1712
3792	65.1188
3788	65.1307
3784	65.0874
3780	64.9835
3776	64.975
3772	65.0513
3768	65.0506
3764	65.028
3760	65.0941
3756	65.1908
3752	65.2855
3748	65.4039
3744	65.4445
3740	65.379
3736	65.2924
3732	65.1886
3728	65.113
3724	65.1206
3720	65.1728
3716	65.1954
3712	65.155
3708	65.0901
3704	65.0913
3700	65.1717
3696	65.2065
3692	65.1281
3688	65.1016
3684	65.2079
3680	65.3559
3676	65.525
3672	65.5644
3668	65.3533
3664	65.1289
3660	65.1
3656	65.153
3652	65.1951
3648	65.2392
3644	65.1954
3640	65.0956
3636	65.1151
3632	65.2574
3628	65.3662
3624	65.3239
3620	65.2267
3616	65.2348
3612	65.2555
3608	65.1866
3604	65.1403
3600	65.1475
3596	65.1445
3592	65.1443
3588	65.1668
3584	65.2166
3580	65.232
3576	65.2285
3572	65.198
3568	65.0515
3564	64.9515
3560	65.0001
3556	65.0866
3552	65.0763
3548	65.0048
3544	64.9982
3540	65.01
3536	65.047
3532	65.0706
3528	65.0423
3524	65.0517
3520	65.0577
3516	65.0626
3512	65.1344
3508	65.2089
3504	65.2414
3500	65.1667
3496	65.0365
3492	65.0177
3488	65.0759
3484	65.1208
3480	65.1145
3476	65.0693
3472	65.0058
3468	64.9786
3464	65.0327
3460	65.0655
3456	65.0644
3452	65.0798
3448	65.0621
3444	65.0901
3440	65.2022
3436	65.2934
3432	65.328
3428	65.2854
3424	65.2168
3420	65.1944
3416	65.195
3412	65.1553
3408	65.0686
3404	64.9968
3400	64.9707
3396	65.0072
3392	65.0815
3388	65.1322
3384	65.1309
3380	65.1234
3376	65.1647
3372	65.1946
3368	65.1345
3364	65.0071
3360	64.9059
3356	64.8973
3352	64.915
3348	64.8958
3344	64.9088
3340	65.0168
3336	65.1979
3332	65.3204
3328	65.268
3324	65.186
3320	65.2506
3316	65.276
3312	65.1405
3308	65.0358
3304	65.0617
3300	65.1613
3296	65.1658
3292	65.0527
3288	65.0103
3284	65.0339
3280	65.0359
3276	65.0284
3272	65.0439
3268	65.0416
3264	64.9864
3260	64.9561
3256	65.019
3252	65.0939
3248	65.0948
3244	65.0534
3240	64.993
3236	65.0162
3232	65.0904
3228	65.0773
3224	65.0525
3220	65.1024
3216	65.1483
3212	65.1419
3208	65.1381
3204	65.1077
3200	65.0428
3196	65.0344
3192	65.0569
3188	65.038
3184	65.042
3180	65.0413
3176	65.0285
3172	65.1057
3168	65.1625
3164	65.1321
3160	65.1148
3156	65.1194
3152	65.114
3148	65.0844
3144	65.0635
3140	65.0998
3136	65.1497
3132	65.176
3128	65.2155
3124	65.2884
3120	65.303
3116	65.2043
3112	65.128
3108	65.183
3104	65.268
3100	65.245
3096	65.1999
3092	65.26
3088	65.281
3084	65.2057
3080	65.133
3076	65.1006
3072	65.1555
3068	65.2166
3064	65.2108
3060	65.1671
3056	65.1022
3052	65.0835
3048	65.1155
3044	65.1741
3040	65.2788
3036	65.3171
3032	65.2068
3028	65.0935
3024	65.072
3020	65.119
3016	65.1721
3012	65.1428
3008	65.0821
3004	65.0711
3000	65.0868
2996	65.1074
2992	65.1526
2988	65.1969
2984	65.2277
2980	65.2267
2976	65.166
2972	65.1523
2968	65.1475
2964	65.0239
2960	64.9641
2956	65.0632
2952	65.1343
2948	65.079
2944	65.0026
2940	64.9942
2936	64.9368
2932	64.8551
2928	64.8623
2924	64.8621
2920	64.8575
2916	64.8798
2912	64.8938
2908	64.934
2904	64.9528
2900	64.9587
2896	65.0033
2892	65.0474
2888	65.057
2884	65.0085
2880	64.9667
2876	64.9908
2872	65.0454
2868	65.0612
2864	64.9832
2860	64.9378
2856	64.9829
2852	65.0014
2848	64.9957
2844	64.9981
2840	65.0358
2836	65.101
2832	65.1163
2828	65.0912
2824	65.0572
2820	65.0507
2816	65.0837
2812	65.079
2808	65.0569
2804	65.1328
2800	65.2101
2796	65.1441
2792	65.0312
2788	65.0099
2784	65.0975
2780	65.1557
2776	65.1074
2772	65.0432
2768	65.0295
2764	65.0575
2760	65.0721
2756	65.038
2752	65.045
2748	65.122
2744	65.1246
2740	65.0837
2736	65.1098
2732	65.1258
2728	65.0842
2724	65.0544
2720	65.0618
2716	65.0847
2712	65.082
2708	65.0503
2704	65.0585
2700	65.1165
2696	65.125
2692	65.0713
2688	65.0723
2684	65.1158
2680	65.1419
2676	65.1124
2672	64.9909
2668	64.8858
2664	64.8967
2660	64.9989
2656	65.1237
2652	65.1669
2648	65.1265
2644	65.1048
2640	65.1219
2636	65.1339
2632	65.1021
2628	65.0843
2624	65.1209
2620	65.0754
2616	64.9726
2612	64.9871
2608	65.0434
2604	65.0056
2600	64.9802
2596	65.0714
2592	65.1682
2588	65.1878
2584	65.1191
2580	65.0123
2576	65.0266
2572	65.0864
2568	65.0835
2564	65.121
2560	65.1329
2556	65.0628
2552	65.027
2548	65.031
2544	65.0379
2540	65.061
2536	65.0694
2532	65.0546
2528	65.0834
2524	65.1315
2520	65.1101
2516	65.0644
2512	65.0604
2508	65.0352
2504	65.0058
2500	65.0277
2496	65.0442
2492	65.0487
2488	65.0633
2484	65.0491
2480	65.0161
2476	65.0363
2472	65.0644
2468	65.01
2464	64.9548
2460	64.987
2456	65.0262
2452	65.0046
2448	64.991
2444	65.0141
2440	65.0091
2436	64.9703
2432	64.9456
2428	64.9572
2424	64.9782
2420	65.0025
2416	65.0977
2412	65.1581
2408	65.0647
2404	64.9755
2400	65.0226
2396	65.1163
2392	65.1108
2388	65.0402
2384	65.0034
2380	65.0358
2376	65.0573
2372	65.0096
2368	64.9991
2364	65.0432
2360	65.0717
2356	65.0774
2352	65.0925
2348	65.0887
2344	65.0271
2340	64.9446
2336	64.8928
2332	64.8911
2328	64.8868
2324	64.8362
2320	64.8187
2316	64.8876
2312	64.972
2308	64.9882
2304	64.9445
2300	64.9198
2296	64.9293
2292	64.9391
2288	64.9251
2284	64.9014
2280	64.9138
2276	64.9179
2272	64.9072
2268	64.9512
2264	65.0196
2260	65.0609
2256	65.0368
2252	64.976
2248	64.9524
2244	64.9328
2240	64.9011
2236	64.8795
2232	64.8616
2228	64.8714
2224	64.8893
2220	64.8823
2216	64.8684
2212	64.8677
2208	64.9111
2204	64.9392
2200	64.9254
2196	64.9271
2192	64.9301
2188	64.9321
2184	64.9032
2180	64.8513
2176	64.9027
2172	65.034
2168	65.0945
2164	65.0249
2160	64.8244
2156	64.6609
2152	64.665
2148	64.7415
2144	64.8224
2140	64.9011
2136	64.977
2132	64.9772
2128	64.8989
2124	64.887
2120	64.9444
2116	64.9429
2112	64.9126
2108	64.8763
2104	64.8215
2100	64.8351
2096	64.8878
2092	64.9184
2088	64.9355
2084	64.9595
2080	65.0159
2076	64.9964
2072	64.8742
2068	64.8244
2064	64.8552
2060	64.8899
2056	64.9133
2052	64.8993
2048	64.8746
2044	64.8329
2040	64.7933
2036	64.8289
2032	64.8996
2028	64.9428
2024	64.9523
2020	64.9173
2016	64.8926
2012	64.9349
2008	64.9605
2004	64.9134
2000	64.8422
1996	64.8022
1992	64.8212
1988	64.8762
1984	64.9063
1980	64.8949
1976	64.88
1972	64.886
1968	64.909
1964	64.9251
1960	64.9313
1956	64.9415
1952	64.9255
1948	64.8648
1944	64.8475
1940	64.8615
1936	64.8262
1932	64.8041
1928	64.8187
1924	64.8146
1920	64.8072
1916	64.8404
1912	64.8472
1908	64.8151
1904	64.8588
1900	64.927
1896	64.9172
1892	64.8985
1888	64.8835
1884	64.8204
1880	64.7922
1876	64.8485
1872	64.9126
1868	64.9318
1864	64.9103
1860	64.8902
1856	64.8724
1852	64.8442
1848	64.8461
1844	64.8535
1840	64.8372
1836	64.8089
1832	64.7655
1828	64.7322
1824	64.7684
1820	64.865
1816	64.948
1812	64.9451
1808	64.8886
1804	64.839
1800	64.783
1796	64.7357
1792	64.733
1788	64.7513
1784	64.7502
1780	64.7545
1776	64.7954
1772	64.8374
1768	64.8089
1764	64.7486
1760	64.7448
1756	64.7363
1752	64.6638
1748	64.5752
1744	64.5493
1740	64.6016
1736	64.6415
1732	64.6085
1728	64.5581
1724	64.5639
1720	64.6007
1716	64.6352
1712	64.7058
1708	64.7574
1704	64.7435
1700	64.7028
1696	64.6212
1692	64.5535
1688	64.5388
1684	64.5582
1680	64.6328
1676	64.6826
1672	64.6993
1668	64.749
1664	64.7569
1660	64.7085
1656	64.718
1652	64.768
1648	64.7609
1644	64.68
1640	64.5475
1636	64.5101
1632	64.6264
1628	64.7085
1624	64.6873
1620	64.6643
1616	64.6242
1612	64.565
1608	64.6002
1604	64.67
1600	64.662
1596	64.6142
1592	64.6001
1588	64.6138
1584	64.665
1580	64.7666
1576	64.7858
1572	64.6788
1568	64.601
1564	64.6219
1560	64.6843
1556	64.7198
1552	64.6815
1548	64.6147
1544	64.6253
1540	64.6631
1536	64.6185
1532	64.5719
1528	64.6335
1524	64.6983
1520	64.6392
1516	64.5681
1512	64.5847
1508	64.6445
1504	64.706
1500	64.7512
1496	64.7485
1492	64.6868
1488	64.6743
1484	64.673
1480	64.6668
1476	64.7096
1472	64.7078
1468	64.6546
1464	64.5945
1460	64.5212
1456	64.4656
1452	64.481
1448	64.5458
1444	64.6086
1440	64.6736
1436	64.7229
1432	64.7139
1428	64.647
1424	64.552
1420	64.4797
1416	64.4794
1412	64.4835
1408	64.4565
1404	64.4687
1400	64.5309
1396	64.5719
1392	64.5519
1388	64.5265
1384	64.5183
1380	64.5345
1376	64.5697
1372	64.577
1368	64.5684
1364	64.5306
1360	64.4679
1356	64.4682
1352	64.5111
1348	64.5452
1344	64.5975
1340	64.64
1336	64.6291
1332	64.5624
1328	64.4743
1324	64.4311
1320	64.4141
1316	64.3611
1312	64.3208
1308	64.3519
1304	64.4
1300	64.4102
1296	64.4284
1292	64.4892
1288	64.5041
1284	64.4428
1280	64.3816
1276	64.3503
1272	64.3491
1268	64.3339
1264	64.2647
1260	64.2267
1256	64.2921
1252	64.3638
1248	64.3219
1244	64.2287
1240	64.1863
1236	64.2247
1232	64.2966
1228	64.3465
1224	64.3833
1220	64.3436
1216	64.2792
1212	64.2861
1208	64.3301
1204	64.3725
1200	64.4053
1196	64.396
1192	64.3131
1188	64.2213
1184	64.1553
1180	64.1175
1176	64.1408
1172	64.1875
1168	64.2529
1164	64.3237
1160	64.3256
1156	64.3001
1152	64.2479
1148	64.1443
1144	64.132
1140	64.2846
1136	64.3823
1132	64.3897
1128	64.4162
1124	64.3609
1120	64.2955
1116	64.2938
1112	64.2002
1108	64.0936
1104	64.1779
1100	64.3153
1096	64.4091
1092	64.5129
1088	64.4882
1084	64.4262
1080	64.3871
1076	64.2436
1072	64.1749
1068	64.239
1064	64.2494
1060	64.1857
1056	64.1583
1052	64.1938
1048	64.2186
1044	64.1755
1040	64.1893
1036	64.2784
1032	64.3136
1028	64.3169
1024	64.2484
1020	64.1438
1016	64.1458
1012	64.2225
1008	64.2913
1004	64.3454
1000	64.3376
996	 64.2519
992	 64.2252
988	 64.271
984	 64.2698
980	 64.2256
976	 64.2011
972	 64.2096
968	 64.2524
964	 64.2915
960	 64.2899
956	 64.2667
952	 64.2998
948	 64.3884
944	 64.3382
940	 64.1866
936	 64.1911
932	 64.3143
928	 64.3823
924	 64.3825
920	 64.4055
916	 64.4539
912	 64.386
908	 64.2006
904	 64.0976
900	 64.1737
896	 64.2835
892	 64.3033
888	 64.327
884	 64.3749
880	 64.3404
876	 64.3009
872	 64.2815
868	 64.2124
864	 64.1327
860	 64.1051
856	 64.1825
852	 64.344
848	 64.5122
844	 64.5364
840	 64.3981
836	 64.2721
832	 64.1827
828	 64.1208
824	 64.1284
820	 64.1178
816	 64.1075
812	 64.154
808	 64.1895
804	 64.1675
800	 64.1676
796	 64.2396
792	 64.2424
788	 64.1694
784	 64.1414
780	 64.1983
776	 64.348
772	 64.4348
768	 64.2781
764	 64.1127
760	 64.1042
756	 64.1128
752	 64.0726
748	 63.99
744	 63.9797
740	 64.0338
736	 64.0773
732	 64.1231
728	 64.1309
724	 64.1191
720	 64.0933
716	 64.0571
712	 64.1124
708	 64.2278
704	 64.3008
700	 64.2602
696	 64.1065
692	 64.0768
688	 64.2708
684	 64.3462
680	 64.151
676	 64.0996
672	 64.2664
668	 64.2289
664	 64.137
660	 64.2606
656	 64.2953
652	 64.2057
648	 64.2478
644	 64.3537
640	 64.3322
636	 64.2146
632	 64.1686
628	 64.1614
624	 63.9919
620	 63.8643
616	 63.9766
612	 63.9576
608	 63.796
604	 63.8151
600	 63.7863
596	 63.5623
592	 63.5324
588	 63.8303
584	 64.1206
580	 64.3138
576	 64.3419
572	 64.1952
568	 64.2176
564	 64.3964
560	 64.4768
556	 64.3803
552	 64.0429
548	 63.8833
544	 64.168
540	 64.4333
536	 64.302
532	 64.1395
528	 64.2437
524	 64.4051
520	 64.5154
516	 64.6452
512	 64.698
508	 64.6715
504	 64.5401
500	 64.3385
496	 64.1753
492	 64.3471
488	 64.6669
484	 64.5913
480	 64.4844
476	 64.5274
472	 64.3912
468	 64.2049
464	 64.1448
460	 64.1256
456	 63.6216
452	 63.0675
448	 63.5117
444	 64.0339
440	 64.0683
436	 63.961
432	 63.2512
428	 63.21
424	 63.925
420	 63.9267
416	 64.4943
412	 66.1711
408	 68.3642
404	 69.0937
400	 65.0261
396	 62.1787
392	 67.3865
388	 67.6041
384	 57.631
380	 42.8971
376	 55.7326
372	 82.8581
370	 109.6