File: Bakgrunnsmateriale/MATLAB/FTIR/ftir_data/subAa/Mapping_121/BZ1503107-1_t104.asc
PE IR       SPECTRUM    SPECTRUM    ASCII       PEDS        1.60
  -1
BZD6B2~1.ASC
17/04/07
21:46:41.00
17/04/07
21:47:07.00
tln
$BZ1503107-1_t0104$<tbV0>[2.6,10.4,8.0,0.0,27,1,0]
27.028
64

2002,4.07
MIRTGS : RIGHTBACK : INTERNAL 2
MIR : ON : INTERNAL 2
OPTKBR

0.200000
8
8.000000
FILLER
RATIO
SPECTRUM
UNLOCKED 256

DOUBLE
64
COMBINED
1
0
0

0.002000
RATIO

1
0
TRUE
51149
0
LEFT NOT FITTED RIGHT NOT FITTED 0
NONE
NONE
15600
12
4.427000
51148
TRUE
1 0 8 72 0 0 0 0

15798

#HDR
-1
-1
#GR
µM
%T
2.38419e-05
0.0
2.000000
0.002000
12515
8
83.6483
39.257
#DATA
2.000000	 62.9284
2.018000	 64.9956
2.036000	 65.0162
2.054000	 64.8504
2.072000	 64.577
2.090000	 65.2015
2.108000	 65.0142
2.126000	 64.7894
2.144000	 65.1732
2.162000	 65.4863
2.180000	 64.8984
2.198000	 64.9288
2.216000	 65.222
2.234000	 64.6124
2.252000	 74.9087
2.270000	 66.5514
2.288000	 65.2497
2.306000	 65.0485
2.324000	 65.0684
2.342000	 65.2279
2.360000	 65.0875
2.378000	 65.1888
2.396000	 65.1959
2.414000	 64.9727
2.432000	 65.0385
2.450000	 64.9395
2.468000	 64.9294
2.486000	 65.106
2.504000	 65.1328
2.522000	 65.0222
2.540000	 65.0142
2.558000	 65.1861
2.576000	 65.0189
2.594000	 65.0753
2.612000	 65.0904
2.630000	 64.8307
2.648000	 65.2412
2.666000	 65.1897
2.684000	 65.0869
2.702000	 64.9813
2.720000	 64.8491
2.738000	 64.9205
2.756000	 65.01
2.774000	 65.1037
2.792000	 64.9469
2.810000	 65.0959
2.828000	 64.9931
2.846000	 64.8579
2.864000	 65.1224
2.882000	 65.0155
2.900000	 64.7767
2.918000	 64.8809
2.936000	 65.1804
2.954000	 65.0097
2.972000	 64.8978
2.990000	 65.1995
3.008000	 64.7624
3.026000	 64.9377
3.044000	 64.8771
3.062000	 64.9311
3.080000	 65.0377
3.098000	 64.8524
3.116000	 64.7907
3.134000	 64.9602
3.152000	 64.8969
3.170000	 64.8192
3.188000	 64.9484
3.206000	 64.7967
3.224000	 64.6937
3.242000	 64.9423
3.260000	 64.7237
3.278000	 64.9477
3.296000	 64.8695
3.314000	 64.8325
3.332000	 64.8624
3.350000	 64.748
3.368000	 64.5319
3.386000	 64.6892
3.404000	 64.8132
3.422000	 64.813
3.440000	 64.713
3.458000	 64.685
3.476000	 64.654
3.494000	 64.7244
3.512000	 64.6291
3.530000	 64.7835
3.548000	 64.7333
3.566000	 64.6481
3.584000	 64.7528
3.602000	 64.8217
3.620000	 64.8986
3.638000	 64.6531
3.656000	 64.7411
3.674000	 64.7185
3.692000	 64.6685
3.710000	 64.6909
3.728000	 64.6134
3.746000	 64.6463
3.764000	 64.5818
3.782000	 64.798
3.800000	 64.7032
3.818000	 64.6577
3.836000	 64.604
3.854000	 64.7355
3.872000	 64.6794
3.890000	 64.5728
3.908000	 64.5804
3.926000	 64.6061
3.944000	 64.5861
3.962000	 64.5582
3.980000	 64.573
3.998000	 64.5304
4.016000	 64.5938
4.034000	 64.5322
4.052000	 64.5702
4.070000	 64.6667
4.088000	 64.5403
4.106000	 64.4545
4.124000	 64.6004
4.141999	 64.4202
4.160000	 64.3657
4.178000	 64.389
4.196000	 64.4757
4.214000	 64.539
4.232000	 64.5058
4.250000	 64.3989
4.268000	 64.4344
4.286000	 64.4388
4.304000	 64.5242
4.322000	 64.4184
4.340000	 64.3546
4.358000	 64.3737
4.375999	 64.3181
4.394000	 64.4197
4.412000	 64.4969
4.430000	 64.2856
4.448000	 64.4759
4.466000	 64.376
4.484000	 64.3922
4.502000	 64.3425
4.520000	 64.3242
4.538000	 64.3279
4.556000	 64.285
4.574000	 64.2488
4.592000	 64.2233
4.609999	 64.2375
4.628000	 64.277
4.646000	 64.2281
4.664000	 64.2104
4.682000	 64.2418
4.700000	 64.2665
4.718000	 64.1472
4.736000	 64.224
4.754000	 64.3321
4.772000	 64.2438
4.790000	 64.2774
4.808000	 64.2785
4.826000	 64.1864
4.843999	 64.2228
4.862000	 64.3781
4.880000	 64.2589
4.898000	 64.0849
4.916000	 64.0913
4.934000	 64.1264
4.952000	 64.1381
4.970000	 64.0871
4.988000	 63.9988
5.006000	 64.0292
5.024000	 64.0945
5.042000	 64.1527
5.060000	 64.1869
5.077999	 64.1449
5.096000	 64.1458
5.114000	 64.1215
5.132000	 64.0748
5.150000	 64.0436
5.168000	 64.114
5.186000	 64.0431
5.204000	 64.0441
5.222000	 64.0718
5.240000	 64.0913
5.258000	 64.1229
5.276000	 64.1279
5.294000	 64.1128
5.312000	 64.0654
5.330000	 63.9949
5.348000	 64.0111
5.366000	 64.0389
5.384000	 64.0582
5.402000	 63.9934
5.420000	 63.8894
5.438000	 64.036
5.456000	 64.0966
5.474000	 63.957
5.492000	 63.9288
5.510000	 64.0399
5.528000	 64.0359
5.546000	 64.0345
5.564000	 63.8939
5.582000	 63.8542
5.600000	 63.9003
5.618000	 63.9297
5.636000	 63.8564
5.654000	 63.8487
5.672000	 63.8835
5.690000	 63.752
5.708000	 63.5581
5.726000	 63.5553
5.744000	 63.461
5.762000	 63.3502
5.780000	 63.432
5.798000	 63.5789
5.816000	 63.6482
5.834000	 63.7186
5.852000	 63.7436
5.870000	 63.6602
5.888000	 63.5456
5.906000	 63.5729
5.923999	 63.6194
5.942000	 63.6479
5.960000	 63.6106
5.978000	 63.5862
5.996000	 63.6493
6.014000	 63.6925
6.032000	 63.6477
6.050000	 63.6288
6.068000	 63.721
6.086000	 63.7368
6.104000	 63.7015
6.122000	 63.6435
6.140000	 63.608
6.158000	 63.6435
6.176000	 63.725
6.194000	 63.7011
6.212000	 63.6608
6.230000	 63.6972
6.248000	 63.689
6.266000	 63.6825
6.284000	 63.6596
6.302000	 63.5948
6.320000	 63.5663
6.338000	 63.5768
6.356000	 63.635
6.374000	 63.695
6.392000	 63.6281
6.410000	 63.5344
6.428000	 63.5463
6.446000	 63.5654
6.464000	 63.6074
6.482000	 63.6439
6.500000	 63.6059
6.518000	 63.5302
6.536000	 63.5015
6.554000	 63.5338
6.572000	 63.5423
6.590000	 63.4832
6.608000	 63.4398
6.626000	 63.4884
6.644000	 63.5263
6.662000	 63.477
6.680000	 63.4322
6.698000	 63.4661
6.716000	 63.503
6.734000	 63.4511
6.752000	 63.3957
6.770000	 63.447
6.788000	 63.5228
6.806000	 63.5283
6.824000	 63.4909
6.842000	 63.4542
6.860000	 63.4718
6.878000	 63.5178
6.896000	 63.5029
6.914000	 63.4329
6.932000	 63.3659
6.950000	 63.3453
6.968000	 63.3635
6.986000	 63.3708
7.004000	 63.3434
7.022000	 63.3119
7.040000	 63.3193
7.058000	 63.3597
7.076000	 63.3976
7.094000	 63.4202
7.112000	 63.456
7.130000	 63.4863
7.148000	 63.4241
7.166000	 63.3019
7.184000	 63.2544
7.202000	 63.2892
7.220000	 63.3245
7.238000	 63.3313
7.256000	 63.3146
7.274000	 63.294
7.292000	 63.3188
7.310000	 63.391
7.328000	 63.4419
7.346000	 63.4277
7.364000	 63.3702
7.382000	 63.3228
7.400000	 63.3292
7.418000	 63.3644
7.436000	 63.3596
7.454000	 63.304
7.472000	 63.2548
7.490000	 63.2611
7.508000	 63.3103
7.526000	 63.3357
7.544000	 63.3033
7.562000	 63.2759
7.580000	 63.3088
7.598000	 63.3488
7.616000	 63.3323
7.634000	 63.2793
7.652000	 63.228
7.670000	 63.1979
7.688000	 63.2076
7.706000	 63.2384
7.724000	 63.2414
7.742000	 63.2073
7.760000	 63.1603
7.778000	 63.1175
7.796000	 63.0986
7.814000	 63.1156
7.832000	 63.1433
7.850000	 63.138
7.868000	 63.0861
7.886000	 63.0226
7.904000	 62.9972
7.922000	 63.0161
7.940000	 63.0467
7.958000	 63.0813
7.976000	 63.1296
7.994000	 63.1657
8.012000	 63.1503
8.030000	 63.0916
8.048000	 63.0287
8.065999	 62.9824
8.084000	 62.9571
8.102000	 62.9603
8.120000	 62.9925
8.138000	 63.0359
8.155999	 63.0654
8.173999	 63.0627
8.192000	 63.0356
8.210000	 63.0225
8.228000	 63.0496
8.246000	 63.0871
8.263999	 63.0889
8.282000	 63.0626
8.300000	 63.0539
8.318000	 63.072
8.336000	 63.0823
8.353999	 63.0658
8.372000	 63.0376
8.390000	 63.0119
8.408000	 62.9856
8.426000	 62.9581
8.443999	 62.933
8.462000	 62.9078
8.480000	 62.8771
8.498000	 62.8443
8.516000	 62.8162
8.533999	 62.7931
8.552000	 62.7703
8.570000	 62.7541
8.588000	 62.7601
8.606000	 62.7893
8.624000	 62.8229
8.641999	 62.848
8.660000	 62.8667
8.678000	 62.8862
8.696000	 62.9145
8.714000	 62.9546
8.731999	 63.0003
8.750000	 63.0483
8.768000	 63.098
8.786000	 63.1305
8.804000	 63.1131
8.821999	 63.0407
8.840000	 62.9568
8.858000	 62.9192
8.876000	 62.942
8.894000	 62.9832
8.911999	 62.9855
8.930000	 62.9231
8.948000	 62.8206
8.966000	 62.7397
8.984000	 62.7284
9.001999	 62.7797
9.020000	 62.8483
9.038000	 62.8958
9.056000	 62.9101
9.074000	 62.8953
9.092000	 62.8603
9.109999	 62.814
9.128000	 62.7645
9.146000	 62.7232
9.164000	 62.7042
9.182000	 62.7163
9.199999	 62.754
9.218000	 62.799
9.236000	 62.833
9.254000	 62.8514
9.272000	 62.8657
9.289999	 62.8883
9.308000	 62.9164
9.326000	 62.9314
9.344000	 62.9164
9.362000	 62.8745
9.379999	 62.8243
9.398000	 62.7834
9.416000	 62.7531
9.434000	 62.7237
9.452000	 62.6895
9.469999	 62.6573
9.488000	 62.6373
9.506000	 62.6306
9.524000	 62.6257
9.542000	 62.6118
9.560000	 62.5923
9.577999	 62.5839
9.596000	 62.6005
9.614000	 62.6405
9.632000	 62.687
9.650000	 62.7193
9.667999	 62.7273
9.686000	 62.716
9.704000	 62.7022
9.722000	 62.701
9.740000	 62.7167
9.757999	 62.7413
9.776000	 62.7621
9.794000	 62.7685
9.812000	 62.7573
9.830000	 62.7335
9.847999	 62.7083
9.866000	 62.6936
9.884000	 62.6959
9.902000	 62.7131
9.920000	 62.7357
9.937999	 62.7517
9.956000	 62.7542
9.974000	 62.7428
9.992000	 62.7219
10.01	62.6967
10.028	62.672
10.046	62.6522
10.064	62.6421
10.082	62.647
10.1	62.6709
10.118	62.7141
10.136	62.7713
10.154	62.8327
10.172	62.8868
10.19	62.924
10.208	62.9409
10.226	62.9406
10.244	62.9296
10.262	62.9144
10.28	62.8977
10.298	62.8799
10.316	62.8606
10.334	62.8412
10.352	62.8241
10.37	62.8117
10.388	62.8043
10.406	62.7998
10.424	62.7949
10.442	62.7854
10.46	62.7678
10.478	62.7397
10.496	62.7009
10.514	62.6556
10.532	62.6117
10.55	62.5789
10.568	62.5643
10.586	62.5706
10.604	62.5944
10.622	62.6282
10.64	62.6621
10.658	62.6881
10.676	62.7031
10.694	62.71
10.712	62.7158
10.73	62.728
10.748	62.7494
10.766	62.7756
10.784	62.7969
10.802	62.8039
10.82	62.7928
10.838	62.7687
10.856	62.741
10.874	62.7195
10.892	62.7089
10.91	62.7093
10.928	62.7177
10.946	62.7292
10.964	62.7383
10.982	62.7392
11	62.7265
11.018	62.6962
11.036	62.6487
11.054	62.5899
11.072	62.5291
11.09	62.4771
11.108	62.4415
11.126	62.4265
11.144	62.4324
11.162	62.4568
11.18	62.4954
11.198	62.542
11.216	62.5888
11.234	62.628
11.252	62.6529
11.27	62.6607
11.288	62.6521
11.306	62.6308
11.324	62.6028
11.342	62.574
11.36	62.5493
11.378	62.5323
11.396	62.5251
11.414	62.5291
11.432	62.5445
11.45	62.57
11.468	62.6031
11.486	62.6402
11.504	62.6773
11.522	62.71
11.54	62.7342
11.558	62.7465
11.576	62.7451
11.594	62.7298
11.612	62.7028
11.63	62.668
11.648	62.631
11.666	62.5978
11.684	62.5749
11.702	62.5679
11.72	62.5806
11.738	62.6131
11.756	62.6606
11.774	62.7142
11.792	62.7609
11.81	62.7878
11.828	62.7861
11.846	62.7539
11.864	62.6981
11.882	62.6316
11.9	62.5697
11.918	62.5244
11.936	62.5008
11.954	62.4965
11.972	62.5029
11.99	62.5099
12.008	62.5101
12.026	62.5013
12.044	62.4863
12.062	62.4721
12.08	62.4665
12.098	62.4751
12.116	62.4993
12.134	62.5365
12.152	62.5804
12.17	62.6236
12.188	62.6591
12.206	62.6821
12.224	62.691
12.242	62.6873
12.26	62.6749
12.278	62.6596
12.296	62.6478
12.314	62.6446
12.332	62.6516
12.35	62.6671
12.368	62.685
12.386	62.6974
12.404	62.697
12.422	62.6794
12.44	62.6455
12.458	62.6003
12.476	62.5518
12.494	62.5081
12.512	62.4755
12.53	62.457
12.548	62.4528
12.566	62.4608
12.584	62.478
12.602	62.5016
12.62	62.5289
12.638	62.5577
12.656	62.5855
12.674	62.6096
12.692	62.6264
12.71	62.6333
12.728	62.6284
12.746	62.6121
12.764	62.5865
12.782	62.5549
12.8	62.5215
12.818	62.4902
12.836	62.4636
12.854	62.4424
12.872	62.4264
12.89	62.4139
12.908	62.403
12.926	62.3912
12.944	62.3769
12.962	62.3594
12.98	62.3391
12.998	62.3177
13.016	62.298
13.034	62.2829
13.052	62.2755
13.07	62.278
13.088	62.2909
13.106	62.3132
13.124	62.3416
13.142	62.3717
13.16	62.3989
13.178	62.4196
13.196	62.4318
13.214	62.436
13.232	62.4348
13.25	62.4329
13.268	62.4346
13.286	62.4437
13.304	62.4623
13.322	62.4897
13.34	62.5227
13.358	62.556
13.376	62.5835
13.394	62.5994
13.412	62.5998
13.43	62.5835
13.448	62.5526
13.466	62.5117
13.484	62.4671
13.502	62.4251
13.52	62.3911
13.538	62.3681
13.556	62.357
13.574	62.3562
13.592	62.3623
13.61	62.3716
13.628	62.3801
13.646	62.3847
13.664	62.3836
13.682	62.3756
13.7	62.3609
13.718	62.3401
13.736	62.3146
13.754	62.2861
13.772	62.2558
13.79	62.2257
13.808	62.1973
13.826	62.172
13.844	62.1505
13.862	62.133
13.88	62.1193
13.898	62.1085
13.916	62.1
13.934	62.0935
13.952	62.0892
13.97	62.0883
13.988	62.0924
14.006	62.1032
14.024	62.1221
14.042	62.1488
14.06	62.1819
14.078	62.2183
14.096	62.2537
14.114	62.284
14.132	62.3053
14.15	62.3152
14.168	62.3124
14.186	62.2977
14.204	62.2733
14.222	62.2425
14.24	62.2089
14.258	62.1752
14.276	62.1433
14.294	62.1142
14.312	62.0873
14.33	62.0621
14.348	62.0377
14.366	62.014
14.384	61.9919
14.402	61.9738
14.42	61.9627
14.438	61.9618
14.456	61.9739
14.474	62.0001
14.492	62.0399
14.51	62.0901
14.528	62.1453
14.546	62.1993
14.564	62.2455
14.582	62.2784
14.6	62.294
14.618	62.2906
14.636	62.2698
14.654	62.2356
14.672	62.1936
14.69	62.1501
14.708	62.1114
14.726	62.0829
14.744	62.0681
14.762	62.0682
14.78	62.0821
14.798	62.1068
14.816	62.1387
14.834	62.1728
14.852	62.2044
14.87	62.23
14.888	62.2472
14.906	62.2547
14.924	62.2528
14.942	62.2428
14.96	62.2272
14.978	62.2083
14.996	62.1885
15.014	62.1697
15.032	62.1538
15.05	62.1408
15.068	62.13
15.086	62.1202
15.104	62.1094
15.122	62.0958
15.14	62.078
15.158	62.0557
15.176	62.0291
15.194	61.9996
15.212	61.9697
15.23	61.9423
15.248	61.9199
15.266	61.9053
15.284	61.9002
15.302	61.9049
15.32	61.9186
15.338	61.9402
15.356	61.9674
15.374	61.9973
15.392	62.0278
15.41	62.0566
15.428	62.0822
15.446	62.1035
15.464	62.1206
15.482	62.1336
15.5	62.1432
15.518	62.1508
15.536	62.1574
15.554	62.1637
15.572	62.1703
15.59	62.1777
15.608	62.1864
15.626	62.197
15.644	62.2103
15.662	62.2273
15.68	62.2488
15.698	62.2754
15.716	62.3077
15.734	62.3451
15.752	62.3865
15.77	62.4306
15.788	62.4742
15.806	62.5142
15.824	62.5476
15.842	62.5707
15.86	62.58
15.878	62.5736
15.896	62.5501
15.914	62.5089
15.932	62.4516
15.95	62.3804
15.968	62.2983
15.986	62.2114
16.004	62.1237
16.022	62.04
16.04	61.9666
16.058	61.906
16.076	61.8603
16.094	61.8304
16.112	61.8137
16.13	61.8076
16.148	61.8076
16.166	61.8075
16.184	61.803
16.202	61.7894
16.22	61.763
16.238	61.7231
16.256	61.669
16.274	61.6041
16.292	61.5328
16.31	61.459
16.328	61.3908
16.346	61.333
16.364	61.2899
16.382	61.2658
16.4	61.2607
16.418	61.2744
16.436	61.3036
16.454	61.3434
16.472	61.3899
16.49	61.4358
16.508	61.4763
16.526	61.5078
16.544	61.526
16.562	61.531
16.58	61.5221
16.598	61.501
16.616	61.4698
16.634	61.4306
16.652	61.3867
16.67	61.34
16.688	61.2929
16.706	61.2476
16.724	61.2053
16.742	61.1673
16.76	61.1357
16.778	61.1114
16.796	61.0959
16.814	61.0907
16.832	61.0966
16.85	61.1143
16.868	61.1431
16.886	61.183
16.904	61.2309
16.922	61.2844
16.94	61.3401
16.958	61.3922
16.976	61.4382
16.994	61.4715
17.012	61.4895
17.03	61.4901
17.048	61.4722
17.066	61.4375
17.084	61.388
17.102	61.3301
17.12	61.2668
17.138	61.2072
17.156	61.1569
17.174	61.1218
17.192	61.1091
17.21	61.1206
17.228	61.1601
17.246	61.2262
17.264	61.3189
17.282	61.4329
17.3	61.5652
17.318	61.7094
17.336	61.8592
17.354	62.0107
17.372	62.1561
17.39	62.2935
17.408	62.4174
17.426	62.5266
17.444	62.6195
17.462	62.6956
17.48	62.755
17.498	62.7987
17.516	62.8273
17.534	62.8417
17.552	62.8435
17.57	62.8333
17.588	62.812
17.606	62.7799
17.624	62.7381
17.642	62.6863
17.66	62.6245
17.678	62.5548
17.696	62.4777
17.714	62.3942
17.732	62.3054
17.75	62.213
17.768	62.1178
17.786	62.0203
17.804	61.9217
17.822	61.822
17.84	61.7211
17.858	61.6186
17.876	61.5142
17.894	61.4071
17.912	61.2968
17.93	61.1826
17.948	61.0644
17.966	60.9431
17.984	60.8195
18.002	60.6956
18.02	60.5741
18.038	60.4568
18.056	60.3482
18.074	60.2496
18.092	60.1657
18.11	60.097
18.128	60.0468
18.146	60.0148
18.164	60.0015
18.182	60.0054
18.2	60.0255
18.218	60.0582
18.236	60.1019
18.254	60.1523
18.272	60.2082
18.29	60.2648
18.308	60.3215
18.326	60.3756
18.344	60.427
18.362	60.4753
18.38	60.5214
18.398	60.5671
18.416	60.6138
18.434	60.6635
18.452	60.7183
18.47	60.7798
18.488	60.8493
18.506	60.9277
18.524	61.0144
18.542	61.1096
18.56	61.2105
18.578	61.317
18.596	61.4235
18.614	61.5298
18.632	61.6298
18.65	61.7231
18.668	61.8034
18.686	61.8705
18.704	61.9202
18.722	61.9526
18.74	61.9654
18.758	61.9591
18.776	61.9339
18.794	61.891
18.812	61.8324
18.83	61.7599
18.848	61.677
18.866	61.5859
18.884	61.4909
18.902	61.3943
18.92	61.3004
18.938	61.2111
18.956	61.1307
18.974	61.0603
18.992	61.0033
19.01	60.9599
19.028	60.9318
19.046	60.918
19.064	60.9184
19.082	60.9314
19.1	60.9549
19.118	60.9873
19.136	61.0251
19.154	61.0666
19.172	61.1072
19.19	61.146
19.208	61.1783
19.226	61.2042
19.244	61.2201
19.262	61.2267
19.28	61.2231
19.298	61.2097
19.316	61.1884
19.334	61.1594
19.352	61.1267
19.37	61.0903
19.388	61.0553
19.406	61.0214
19.424	60.9929
19.442	60.97
19.46	60.9551
19.478	60.9489
19.496	60.951
19.514	60.962
19.532	60.9795
19.55	61.0032
19.568	61.0303
19.586	61.058
19.604	61.0849
19.622	61.1068
19.64	61.1235
19.658	61.1302
19.676	61.1276
19.694	61.1127
19.712	61.0856
19.73	61.0462
19.748	60.994
19.766	60.9313
19.784	60.8579
19.802	60.7767
19.82	60.6892
19.838	60.5971
19.856	60.5037
19.874	60.4093
19.892	60.3182
19.91	60.2299
19.928	60.1484
19.946	60.0732
19.964	60.007
19.982	59.9501
20	59.9034
20.018	59.8675
20.036	59.8429
20.054	59.8304
20.072	59.83
20.09	59.8427
20.108	59.8681
20.126	59.9075
20.144	59.9607
20.162	60.0282
20.18	60.1102
20.198	60.2064
20.216	60.3165
20.234	60.4401
20.252	60.5751
20.27	60.7218
20.288	60.8759
20.306	61.038
20.324	61.2032
20.342	61.3694
20.36	61.5347
20.378	61.6925
20.396	61.8441
20.414	61.9814
20.432	62.1054
20.45	62.2112
20.468	62.2964
20.486	62.3608
20.504	62.4013
20.522	62.4188
20.54	62.4133
20.558	62.3843
20.576	62.3353
20.594	62.2667
20.612	62.1812
20.63	62.0843
20.648	61.9749
20.666	61.8618
20.684	61.744
20.702	61.6278
20.72	61.5177
20.738	61.4135
20.756	61.3226
20.774	61.2433
20.792	61.18
20.81	61.1342
20.828	61.1052
20.846	61.0943
20.864	61.1009
20.882	61.1228
20.9	61.1609
20.918	61.2111
20.936	61.271
20.954	61.3401
20.972	61.4118
20.99	61.4877
21.008	61.5615
21.026	61.6311
21.044	61.6957
21.062	61.7494
21.08	61.7938
21.098	61.8254
21.116	61.8428
21.134	61.8467
21.152	61.8358
21.17	61.8103
21.188	61.7723
21.206	61.7213
21.224	61.6595
21.242	61.5904
21.26	61.5126
21.278	61.4324
21.296	61.3499
21.314	61.2674
21.332	61.1905
21.35	61.1174
21.368	61.0535
21.386	61.0001
21.404	60.9574
21.422	60.9289
21.44	60.9138
21.458	60.9132
21.476	60.9281
21.494	60.9575
21.512	61.0001
21.53	61.0567
21.548	61.1246
21.566	61.2021
21.584	61.2895
21.602	61.3815
21.62	61.4791
21.638	61.5792
21.656	61.6775
21.674	61.7757
21.692	61.8687
21.71	61.9554
21.728	62.0356
21.746	62.1054
21.764	62.1657
21.782	62.2151
21.8	62.2519
21.818	62.2771
21.836	62.2898
21.854	62.2898
21.872	62.2778
21.89	62.2546
21.908	62.2197
21.926	62.1749
21.944	62.121
21.962	62.0577
21.98	61.988
21.998	61.9116
22.016	61.8296
22.034	61.7451
22.052	61.6569
22.07	61.5674
22.088	61.4786
22.106	61.3895
22.124	61.3028
22.142	61.2188
22.16	61.1378
22.178	61.0618
22.196	60.9904
22.214	60.9246
22.232	60.866
22.25	60.8139
22.268	60.7693
22.286	60.7328
22.304	60.7042
22.322	60.6839
22.34	60.6723
22.358	60.6691
22.376	60.6737
22.394	60.6866
22.412	60.7067
22.43	60.7329
22.448	60.7659
22.466	60.8041
22.484	60.8467
22.502	60.8941
22.52	60.9449
22.538	60.9986
22.556	61.0555
22.574	61.1139
22.592	61.1738
22.61	61.235
22.628	61.2962
22.646	61.3576
22.664	61.419
22.682	61.4799
22.7	61.5403
22.718	61.6002
22.736	61.6595
22.754	61.7182
22.772	61.7763
22.79	61.8341
22.808	61.8915
22.826	61.9485
22.844	62.0051
22.862	62.0614
22.88	62.1166
22.898	62.1708
22.916	62.2238
22.934	62.2745
22.952	62.3226
22.97	62.3682
22.988	62.4095
23.006	62.4464
23.024	62.479
23.042	62.5057
23.06	62.5264
23.078	62.5413
23.096	62.5489
23.114	62.549
23.132	62.5421
23.15	62.5284
23.168	62.5075
23.186	62.48
23.204	62.4476
23.222	62.4091
23.24	62.366
23.258	62.3218
23.276	62.2752
23.294	62.2279
23.312	62.1852
23.33	62.1459
23.348	62.1113
23.366	62.087
23.384	62.0724
23.402	62.068
23.42	62.0784
23.438	62.104
23.456	62.144
23.474	62.2007
23.492	62.2749
23.51	62.3655
23.528	62.472
23.546	62.5956
23.564	62.7353
23.582	62.8864
23.6	63.0483
23.618	63.2221
23.636	63.4003
23.654	63.5799
23.672	63.7644
23.69	63.944
23.708	64.1126
23.726	64.2759
23.744	64.4247
23.762	64.5509
23.78	64.6603
23.798	64.7465
23.816	64.8017
23.834	64.8293
23.852	64.8272
23.87	64.7908
23.888	64.7202
23.906	64.6166
23.924	64.4801
23.942	64.3088
23.96	64.1048
23.978	63.8731
23.996	63.6138
24.014	63.3257
24.032	63.0181
24.05	62.6958
24.068	62.3531
24.086	62.0008
24.104	61.6487
24.122	61.2892
24.14	60.9308
24.158	60.5857
24.176	60.2492
24.194	59.9241
24.212	59.6218
24.23	59.3438
24.248	59.0868
24.266	58.8587
24.284	58.6638
24.302	58.4985
24.32	58.3653
24.338	58.267
24.356	58.2029
24.374	58.172
24.392	58.1737
24.41	58.2096
24.428	58.2779
24.446	58.374
24.464	58.497
24.482	58.6491
24.5	58.8235
24.518	59.0151
24.536	59.229
24.554	59.4589
24.572	59.6961
24.59	59.9437
24.608	60.2005
24.626	60.4575
24.644	60.7116
24.662	60.9674
24.68	61.217
24.698	61.453
24.716	61.6809
24.734	61.8963
24.752	62.0912
24.77	62.2656
24.788	62.4216
24.806	62.5528
24.824	62.655
24.842	62.7318
24.86	62.7807
24.878	62.7981
24.896	62.7843
24.914	62.7403
24.932	62.6651
24.95	62.558
24.968	62.4191
24.986	62.2501
25.004	62.0523
25.022	61.8234
25.04	61.5658
25.058	61.2844
25.076	60.9802
25.094	60.6501
25.112	60.3011
25.13	59.94
25.148	59.5615
25.166	59.1692
25.184	58.7729
25.202	58.3759
25.22	57.9719
25.238	57.5707
25.256	57.1825
25.274	56.8018
25.292	56.4306
25.31	56.0789
25.328	55.752
25.346	55.4432
25.364	55.1587
25.382	54.9057
25.4	54.6828
25.418	54.4887
25.436	54.3278
25.454	54.2036
25.472	54.1139
25.49	54.0585
25.508	54.0381
25.526	54.0541
25.544	54.1058
25.562	54.1898
25.58	54.3029
25.598	54.4492
25.616	54.6252
25.634	54.8241
25.652	55.0426
25.67	55.2869
25.688	55.5488
25.706	55.8182
25.724	56.0964
25.742	56.3869
25.76	56.6784
25.778	56.9611
25.796	57.2423
25.814	57.5187
25.832	57.7804
25.85	58.0206
25.868	58.2472
25.886	58.4547
25.904	58.6356
25.922	58.7878
25.94	58.9153
25.958	59.0156
25.976	59.0856
25.994	59.1248
26.012	59.135
26.03	59.1174
26.048	59.0727
26.066	58.9988
26.084	58.8982
26.102	58.7747
26.12	58.6304
26.138	58.4614
26.156	58.272
26.174	58.0675
26.192	57.8489
26.21	57.6125
26.228	57.3639
26.246	57.109
26.264	56.8474
26.282	56.5768
26.3	56.3015
26.318	56.0258
26.336	55.7472
26.354	55.4659
26.372	55.1859
26.39	54.911
26.408	54.6398
26.426	54.3717
26.444	54.1071
26.462	53.8468
26.48	53.5909
26.498	53.3387
26.516	53.0892
26.534	52.8421
26.552	52.5998
26.57	52.3592
26.588	52.1164
26.606	51.8697
26.624	51.6236
26.642	51.3733
26.66	51.1126
26.678	50.8381
26.696	50.5552
26.714	50.2602
26.732	49.9482
26.75	49.6173
26.768	49.2717
26.786	48.908
26.804	48.5221
26.822	48.1103
26.84	47.674
26.858	47.2172
26.876	46.7443
26.894	46.2546
26.912	45.742
26.93	45.2174
26.948	44.693
26.966	44.1535
26.984	43.5577
27.002	42.9915
27.02	42.5493
27.028	42.4306