File: Bakgrunnsmateriale/MATLAB/FTIR/ftir_data/subAa/Mapping_121/BZ1503107-1_t107.asc
PE IR       SPECTRUM    SPECTRUM    ASCII       PEDS        1.60
  -1
BZE6BE~1.ASC
17/04/07
22:00:32.00
17/04/07
22:00:59.00
tln
$BZ1503107-1_t0107$<tbV0>[-5.2,10.4,8.0,0.0,27,1,0]
27.028
64

2002,4.07
MIRTGS : RIGHTBACK : INTERNAL 2
MIR : ON : INTERNAL 2
OPTKBR

0.200000
8
8.000000
FILLER
RATIO
SPECTRUM
UNLOCKED 256

DOUBLE
64
COMBINED
1
0
0

0.002000
RATIO

1
0
TRUE
51149
0
LEFT NOT FITTED RIGHT NOT FITTED 0
NONE
NONE
15600
12
4.427000
51148
TRUE
1 0 8 72 0 0 0 0

15798

#HDR
-1
-1
#GR
µM
%T
2.38419e-05
0.0
2.000000
0.002000
12515
8
85.3234
40.8908
#DATA
2.000000	 64.1626
2.018000	 64.1674
2.036000	 63.9369
2.054000	 63.9305
2.072000	 64.1692
2.090000	 64.3506
2.108000	 64.3147
2.126000	 63.7662
2.144000	 64.4072
2.162000	 64.3886
2.180000	 64.4041
2.198000	 63.9412
2.216000	 63.829
2.234000	 63.7256
2.252000	 83.0698
2.270000	 64.2981
2.288000	 64.2985
2.306000	 64.4138
2.324000	 64.2953
2.342000	 64.4089
2.360000	 64.3125
2.378000	 64.276
2.396000	 64.5592
2.414000	 64.2316
2.432000	 64.6309
2.450000	 64.4907
2.468000	 64.015
2.486000	 64.5446
2.504000	 64.362
2.522000	 64.5281
2.540000	 64.4539
2.558000	 64.0928
2.576000	 64.2444
2.594000	 64.4535
2.612000	 64.4922
2.630000	 64.2528
2.648000	 64.4677
2.666000	 64.2898
2.684000	 64.3191
2.702000	 64.4319
2.720000	 64.2681
2.738000	 64.3518
2.756000	 64.4417
2.774000	 64.4677
2.792000	 64.5919
2.810000	 64.3291
2.828000	 64.4267
2.846000	 64.4219
2.864000	 64.406
2.882000	 64.506
2.900000	 64.3273
2.918000	 64.2056
2.936000	 64.2821
2.954000	 64.4044
2.972000	 64.3314
2.990000	 64.3737
3.008000	 64.2845
3.026000	 64.3742
3.044000	 64.3557
3.062000	 64.1964
3.080000	 64.323
3.098000	 64.3496
3.116000	 64.2587
3.134000	 64.5691
3.152000	 64.3789
3.170000	 64.3289
3.188000	 64.3812
3.206000	 64.3641
3.224000	 64.2954
3.242000	 64.3199
3.260000	 64.1998
3.278000	 64.4448
3.296000	 64.4182
3.314000	 64.3475
3.332000	 64.3121
3.350000	 64.2059
3.368000	 63.9973
3.386000	 63.8354
3.404000	 64.023
3.422000	 64.1281
3.440000	 64.1349
3.458000	 64.1667
3.476000	 64.1467
3.494000	 63.9979
3.512000	 64.1599
3.530000	 64.1539
3.548000	 64.2719
3.566000	 64.0848
3.584000	 64.2863
3.602000	 64.2808
3.620000	 64.1973
3.638000	 64.1749
3.656000	 64.1151
3.674000	 64.2341
3.692000	 64.1924
3.710000	 64.2656
3.728000	 64.2076
3.746000	 64.1
3.764000	 64.2047
3.782000	 64.2946
3.800000	 64.129
3.818000	 64.1022
3.836000	 64.1546
3.854000	 64.1472
3.872000	 64.1504
3.890000	 64.1394
3.908000	 64.0298
3.926000	 64.1467
3.944000	 64.0567
3.962000	 64.1135
3.980000	 64.2246
3.998000	 64.0693
4.016000	 64.1569
4.034000	 64.037
4.052000	 64.2085
4.070000	 64.2044
4.088000	 64.1373
4.106000	 64.0452
4.124000	 64.1651
4.141999	 64.0971
4.160000	 64.0192
4.178000	 64.0679
4.196000	 64.0386
4.214000	 63.9314
4.232000	 64.0375
4.250000	 64.085
4.268000	 64.0442
4.286000	 64.0364
4.304000	 64.1272
4.322000	 64.1182
4.340000	 64.0981
4.358000	 64.022
4.375999	 64.0711
4.394000	 64.0691
4.412000	 64.0606
4.430000	 64.134
4.448000	 64.0007
4.466000	 63.9247
4.484000	 64.0622
4.502000	 64.0252
4.520000	 63.9544
4.538000	 63.839
4.556000	 63.8131
4.574000	 63.8629
4.592000	 63.8755
4.609999	 63.8849
4.628000	 63.8865
4.646000	 63.9471
4.664000	 63.9444
4.682000	 63.8779
4.700000	 63.8584
4.718000	 63.8106
4.736000	 63.8104
4.754000	 63.8495
4.772000	 63.8991
4.790000	 63.8704
4.808000	 63.8121
4.826000	 63.8094
4.843999	 63.7627
4.862000	 63.8913
4.880000	 63.845
4.898000	 63.734
4.916000	 63.8241
4.934000	 63.8154
4.952000	 63.7302
4.970000	 63.7497
4.988000	 63.6978
5.006000	 63.7577
5.024000	 63.8002
5.042000	 63.7348
5.060000	 63.8199
5.077999	 63.7782
5.096000	 63.7085
5.114000	 63.6924
5.132000	 63.7244
5.150000	 63.6709
5.168000	 63.6569
5.186000	 63.6587
5.204000	 63.6295
5.222000	 63.6285
5.240000	 63.6199
5.258000	 63.6556
5.276000	 63.7035
5.294000	 63.6573
5.312000	 63.6401
5.330000	 63.6441
5.348000	 63.5947
5.366000	 63.6452
5.384000	 63.7233
5.402000	 63.7334
5.420000	 63.6164
5.438000	 63.637
5.456000	 63.6622
5.474000	 63.6249
5.492000	 63.5979
5.510000	 63.6095
5.528000	 63.6036
5.546000	 63.5609
5.564000	 63.5468
5.582000	 63.5957
5.600000	 63.5149
5.618000	 63.4848
5.636000	 63.4843
5.654000	 63.4848
5.672000	 63.4397
5.690000	 63.2955
5.708000	 63.104
5.726000	 62.9229
5.744000	 62.6343
5.762000	 62.3845
5.780000	 62.4619
5.798000	 62.8008
5.816000	 63.0926
5.834000	 63.234
5.852000	 63.245
5.870000	 63.2452
5.888000	 63.2292
5.906000	 63.3438
5.923999	 63.3318
5.942000	 63.2579
5.960000	 63.2968
5.978000	 63.3741
5.996000	 63.3619
6.014000	 63.3217
6.032000	 63.3475
6.050000	 63.4098
6.068000	 63.4081
6.086000	 63.3597
6.104000	 63.2901
6.122000	 63.2951
6.140000	 63.3598
6.158000	 63.3577
6.176000	 63.3727
6.194000	 63.3031
6.212000	 63.2669
6.230000	 63.3005
6.248000	 63.3388
6.266000	 63.3445
6.284000	 63.3142
6.302000	 63.3107
6.320000	 63.2769
6.338000	 63.2197
6.356000	 63.2428
6.374000	 63.3237
6.392000	 63.3254
6.410000	 63.2529
6.428000	 63.2003
6.446000	 63.1415
6.464000	 63.1316
6.482000	 63.1803
6.500000	 63.196
6.518000	 63.1693
6.536000	 63.1957
6.554000	 63.2621
6.572000	 63.2652
6.590000	 63.2377
6.608000	 63.2282
6.626000	 63.1964
6.644000	 63.1373
6.662000	 63.1121
6.680000	 63.2032
6.698000	 63.3399
6.716000	 63.3334
6.734000	 63.2054
6.752000	 63.1002
6.770000	 63.1035
6.788000	 63.1418
6.806000	 63.0969
6.824000	 63.0236
6.842000	 62.9857
6.860000	 62.9417
6.878000	 62.9381
6.896000	 63.0006
6.914000	 63.0353
6.932000	 63.0446
6.950000	 63.0811
6.968000	 63.126
6.986000	 63.1369
7.004000	 63.1069
7.022000	 63.0692
7.040000	 63.0621
7.058000	 63.0964
7.076000	 63.1471
7.094000	 63.1738
7.112000	 63.1759
7.130000	 63.1535
7.148000	 63.0548
7.166000	 62.9289
7.184000	 62.9056
7.202000	 62.9349
7.220000	 62.9127
7.238000	 62.8893
7.256000	 62.8787
7.274000	 62.8278
7.292000	 62.7929
7.310000	 62.8313
7.328000	 62.8983
7.346000	 62.9625
7.364000	 63.0218
7.382000	 63.0562
7.400000	 63.0621
7.418000	 63.0438
7.436000	 62.9913
7.454000	 62.9147
7.472000	 62.8631
7.490000	 62.8915
7.508000	 62.9816
7.526000	 63.0313
7.544000	 63.0057
7.562000	 62.9987
7.580000	 63.052
7.598000	 63.0781
7.616000	 63.021
7.634000	 62.9343
7.652000	 62.8847
7.670000	 62.8755
7.688000	 62.8666
7.706000	 62.8349
7.724000	 62.7979
7.742000	 62.7728
7.760000	 62.7594
7.778000	 62.7626
7.796000	 62.7749
7.814000	 62.7629
7.832000	 62.7113
7.850000	 62.6503
7.868000	 62.6138
7.886000	 62.6076
7.904000	 62.6247
7.922000	 62.6513
7.940000	 62.6654
7.958000	 62.655
7.976000	 62.6308
7.994000	 62.6079
8.012000	 62.5896
8.030000	 62.5661
8.048000	 62.5243
8.065999	 62.4698
8.084000	 62.4365
8.102000	 62.4539
8.120000	 62.5071
8.138000	 62.56
8.155999	 62.6029
8.173999	 62.6505
8.192000	 62.701
8.210000	 62.7359
8.228000	 62.7521
8.246000	 62.7562
8.263999	 62.7395
8.282000	 62.6959
8.300000	 62.6506
8.318000	 62.6396
8.336000	 62.6701
8.353999	 62.7181
8.372000	 62.7541
8.390000	 62.7569
8.408000	 62.7134
8.426000	 62.6298
8.443999	 62.538
8.462000	 62.4712
8.480000	 62.4295
8.498000	 62.3851
8.516000	 62.3213
8.533999	 62.2508
8.552000	 62.1946
8.570000	 62.158
8.588000	 62.1375
8.606000	 62.143
8.624000	 62.1955
8.641999	 62.2971
8.660000	 62.4151
8.678000	 62.5077
8.696000	 62.5608
8.714000	 62.5876
8.731999	 62.5952
8.750000	 62.5747
8.768000	 62.5318
8.786000	 62.5027
8.804000	 62.5173
8.821999	 62.5594
8.840000	 62.5867
8.858000	 62.5805
8.876000	 62.5576
8.894000	 62.5472
8.911999	 62.5607
8.930000	 62.5807
8.948000	 62.5801
8.966000	 62.5525
8.984000	 62.5096
9.001999	 62.4612
9.020000	 62.4199
9.038000	 62.412
9.056000	 62.4589
9.074000	 62.5485
9.092000	 62.6382
9.109999	 62.6848
9.128000	 62.6733
9.146000	 62.6202
9.164000	 62.5571
9.182000	 62.5081
9.199999	 62.4781
9.218000	 62.4549
9.236000	 62.4235
9.254000	 62.3834
9.272000	 62.3527
9.289999	 62.3555
9.308000	 62.4032
9.326000	 62.4886
9.344000	 62.595
9.362000	 62.7024
9.379999	 62.7865
9.398000	 62.8178
9.416000	 62.7779
9.434000	 62.6773
9.452000	 62.5563
9.469999	 62.4636
9.488000	 62.4273
9.506000	 62.4418
9.524000	 62.4781
9.542000	 62.5079
9.560000	 62.5197
9.577999	 62.5162
9.596000	 62.5031
9.614000	 62.4832
9.632000	 62.4599
9.650000	 62.4417
9.667999	 62.4386
9.686000	 62.4565
9.704000	 62.4928
9.722000	 62.5366
9.740000	 62.5739
9.757999	 62.5929
9.776000	 62.5875
9.794000	 62.5578
9.812000	 62.5092
9.830000	 62.452
9.847999	 62.4015
9.866000	 62.3726
9.884000	 62.3728
9.902000	 62.3967
9.920000	 62.4271
9.937999	 62.446
9.956000	 62.447
9.974000	 62.4398
9.992000	 62.4429
10.01	62.4695
10.028	62.5175
10.046	62.5709
10.064	62.612
10.082	62.6337
10.1	62.643
10.118	62.6543
10.136	62.6776
10.154	62.7122
10.172	62.7483
10.19	62.7744
10.208	62.785
10.226	62.7815
10.244	62.7681
10.262	62.7469
10.28	62.7167
10.298	62.6753
10.316	62.6245
10.334	62.5728
10.352	62.5318
10.37	62.51
10.388	62.507
10.406	62.5126
10.424	62.5131
10.442	62.4989
10.46	62.4692
10.478	62.4301
10.496	62.3907
10.514	62.3587
10.532	62.3393
10.55	62.3371
10.568	62.3564
10.586	62.3992
10.604	62.4608
10.622	62.5279
10.64	62.5817
10.658	62.6073
10.676	62.6006
10.694	62.5724
10.712	62.5434
10.73	62.5315
10.748	62.5442
10.766	62.5737
10.784	62.6043
10.802	62.6214
10.82	62.6211
10.838	62.6104
10.856	62.5998
10.874	62.5961
10.892	62.5976
10.91	62.5964
10.928	62.5858
10.946	62.5648
10.964	62.5394
10.982	62.5183
11	62.5082
11.018	62.51
11.036	62.5193
11.054	62.529
11.072	62.5334
11.09	62.5286
11.108	62.5133
11.126	62.4886
11.144	62.4579
11.162	62.4275
11.18	62.4046
11.198	62.3957
11.216	62.4043
11.234	62.4292
11.252	62.4646
11.27	62.5009
11.288	62.5265
11.306	62.5321
11.324	62.5141
11.342	62.4769
11.36	62.4317
11.378	62.394
11.396	62.3763
11.414	62.3851
11.432	62.4175
11.45	62.4637
11.468	62.5117
11.486	62.5537
11.504	62.5882
11.522	62.6187
11.54	62.6487
11.558	62.6785
11.576	62.7028
11.594	62.7138
11.612	62.7051
11.63	62.6753
11.648	62.629
11.666	62.5757
11.684	62.5257
11.702	62.4863
11.72	62.4601
11.738	62.4452
11.756	62.437
11.774	62.431
11.792	62.4246
11.81	62.4174
11.828	62.4104
11.846	62.4051
11.864	62.4024
11.882	62.4026
11.9	62.4047
11.918	62.4075
11.936	62.4095
11.954	62.4101
11.972	62.4083
11.99	62.4033
12.008	62.3931
12.026	62.3761
12.044	62.3511
12.062	62.3198
12.08	62.2871
12.098	62.26
12.116	62.2456
12.134	62.2472
12.152	62.2635
12.17	62.2889
12.188	62.3149
12.206	62.3343
12.224	62.3435
12.242	62.3442
12.26	62.3417
12.278	62.3429
12.296	62.3529
12.314	62.3727
12.332	62.3984
12.35	62.423
12.368	62.4383
12.386	62.4385
12.404	62.4225
12.422	62.394
12.44	62.3606
12.458	62.331
12.476	62.3127
12.494	62.31
12.512	62.3234
12.53	62.3494
12.548	62.3829
12.566	62.4184
12.584	62.451
12.602	62.4772
12.62	62.495
12.638	62.5033
12.656	62.5016
12.674	62.4899
12.692	62.4692
12.71	62.4417
12.728	62.4102
12.746	62.3786
12.764	62.3498
12.782	62.3255
12.8	62.3052
12.818	62.2869
12.836	62.2682
12.854	62.2474
12.872	62.2247
12.89	62.2028
12.908	62.1863
12.926	62.1802
12.944	62.1884
12.962	62.2115
12.98	62.2467
12.998	62.2883
13.016	62.3289
13.034	62.3622
13.052	62.3841
13.07	62.3938
13.088	62.3937
13.106	62.3882
13.124	62.3818
13.142	62.3776
13.16	62.3772
13.178	62.3803
13.196	62.3855
13.214	62.3912
13.232	62.3964
13.25	62.4009
13.268	62.4057
13.286	62.4118
13.304	62.4198
13.322	62.4295
13.34	62.4395
13.358	62.4474
13.376	62.4508
13.394	62.4479
13.412	62.438
13.43	62.4222
13.448	62.4029
13.466	62.3833
13.484	62.3666
13.502	62.3559
13.52	62.3529
13.538	62.3577
13.556	62.3686
13.574	62.3828
13.592	62.3965
13.61	62.4057
13.628	62.4071
13.646	62.3989
13.664	62.3813
13.682	62.3561
13.7	62.3266
13.718	62.2966
13.736	62.2698
13.754	62.2491
13.772	62.2361
13.79	62.231
13.808	62.2328
13.826	62.2395
13.844	62.2487
13.862	62.2578
13.88	62.2644
13.898	62.2664
13.916	62.2625
13.934	62.2517
13.952	62.2335
13.97	62.2078
13.988	62.1752
14.006	62.1367
14.024	62.0931
14.042	62.0461
14.06	61.9972
14.078	61.9479
14.096	61.9
14.114	61.8544
14.132	61.8122
14.15	61.7741
14.168	61.7406
14.186	61.7121
14.204	61.6887
14.222	61.6707
14.24	61.6577
14.258	61.6497
14.276	61.6459
14.294	61.646
14.312	61.649
14.33	61.6541
14.348	61.6606
14.366	61.668
14.384	61.6767
14.402	61.6872
14.42	61.7009
14.438	61.7197
14.456	61.7452
14.474	61.7786
14.492	61.8203
14.51	61.8692
14.528	61.9229
14.546	61.9781
14.564	62.0307
14.582	62.0764
14.6	62.1112
14.618	62.1315
14.636	62.1352
14.654	62.1219
14.672	62.093
14.69	62.0513
14.708	62.0012
14.726	61.948
14.744	61.8981
14.762	61.8578
14.78	61.832
14.798	61.824
14.816	61.8352
14.834	61.8648
14.852	61.9089
14.87	61.9622
14.888	62.0188
14.906	62.0726
14.924	62.1184
14.942	62.152
14.96	62.1725
14.978	62.181
14.996	62.1805
15.014	62.1751
15.032	62.1704
15.05	62.1707
15.068	62.1788
15.086	62.1956
15.104	62.22
15.122	62.2482
15.14	62.2747
15.158	62.2942
15.176	62.3016
15.194	62.2922
15.212	62.2639
15.23	62.2175
15.248	62.1559
15.266	62.0836
15.284	62.0079
15.302	61.9363
15.32	61.8754
15.338	61.831
15.356	61.8079
15.374	61.808
15.392	61.8304
15.41	61.8725
15.428	61.9299
15.446	61.9953
15.464	62.0622
15.482	62.1249
15.5	62.1776
15.518	62.2157
15.536	62.2377
15.554	62.2435
15.572	62.2343
15.59	62.2137
15.608	62.1856
15.626	62.1535
15.644	62.1213
15.662	62.0919
15.68	62.0665
15.698	62.0455
15.716	62.0282
15.734	62.0127
15.752	61.997
15.77	61.9794
15.788	61.9578
15.806	61.9319
15.824	61.9018
15.842	61.8684
15.86	61.8343
15.878	61.8018
15.896	61.773
15.914	61.751
15.932	61.7369
15.95	61.7313
15.968	61.7341
15.986	61.7437
16.004	61.7584
16.022	61.7761
16.04	61.7937
16.058	61.8096
16.076	61.8222
16.094	61.8304
16.112	61.8346
16.13	61.8353
16.148	61.8334
16.166	61.8309
16.184	61.8292
16.202	61.83
16.22	61.8347
16.238	61.8434
16.256	61.8562
16.274	61.8715
16.292	61.8877
16.31	61.9031
16.328	61.9148
16.346	61.9208
16.364	61.9197
16.382	61.9101
16.4	61.8923
16.418	61.8665
16.436	61.8348
16.454	61.8001
16.472	61.7645
16.49	61.7321
16.508	61.7053
16.526	61.686
16.544	61.6766
16.562	61.6775
16.58	61.6892
16.598	61.7105
16.616	61.7396
16.634	61.7751
16.652	61.8141
16.67	61.8549
16.688	61.8955
16.706	61.9334
16.724	61.9671
16.742	61.9949
16.76	62.0151
16.778	62.0268
16.796	62.0283
16.814	62.0185
16.832	61.9968
16.85	61.962
16.868	61.9137
16.886	61.8513
16.904	61.7754
16.922	61.6872
16.94	61.5878
16.958	61.4816
16.976	61.3705
16.994	61.26
17.012	61.1549
17.03	61.0586
17.048	60.9779
17.066	60.9152
17.084	60.8747
17.102	60.8583
17.12	60.8667
17.138	60.8999
17.156	60.9555
17.174	61.032
17.192	61.1237
17.21	61.2284
17.228	61.3402
17.246	61.4553
17.264	61.5706
17.282	61.6818
17.3	61.7883
17.318	61.8881
17.336	61.9821
17.354	62.0703
17.372	62.1555
17.39	62.2386
17.408	62.3223
17.426	62.408
17.444	62.4971
17.462	62.5892
17.48	62.6837
17.498	62.7785
17.516	62.8696
17.534	62.9542
17.552	63.0254
17.57	63.081
17.588	63.1133
17.606	63.1208
17.624	63.0994
17.642	63.0489
17.66	62.9687
17.678	62.8626
17.696	62.7328
17.714	62.5864
17.732	62.4295
17.75	62.2685
17.768	62.1136
17.786	61.9683
17.804	61.8435
17.822	61.7406
17.84	61.6667
17.858	61.6216
17.876	61.6077
17.894	61.6218
17.912	61.6637
17.93	61.7266
17.948	61.8091
17.966	61.9027
17.984	62.0052
18.002	62.1094
18.02	62.2125
18.038	62.3108
18.056	62.4015
18.074	62.4835
18.092	62.5562
18.11	62.6195
18.128	62.6749
18.146	62.723
18.164	62.7658
18.182	62.8039
18.2	62.8386
18.218	62.8704
18.236	62.9
18.254	62.9264
18.272	62.9497
18.29	62.9678
18.308	62.9805
18.326	62.9844
18.344	62.9794
18.362	62.9633
18.38	62.9357
18.398	62.8954
18.416	62.843
18.434	62.7784
18.452	62.7033
18.47	62.6182
18.488	62.5263
18.506	62.4284
18.524	62.3286
18.542	62.2277
18.56	62.1299
18.578	62.0357
18.596	61.9489
18.614	61.8697
18.632	61.8009
18.65	61.7424
18.668	61.6954
18.686	61.6595
18.704	61.6344
18.722	61.6197
18.74	61.6135
18.758	61.6152
18.776	61.6221
18.794	61.6336
18.812	61.6469
18.83	61.6614
18.848	61.6743
18.866	61.6856
18.884	61.6939
18.902	61.6996
18.92	61.7023
18.938	61.703
18.956	61.7028
18.974	61.7029
18.992	61.7052
19.01	61.7104
19.028	61.7207
19.046	61.7358
19.064	61.7572
19.082	61.784
19.1	61.8158
19.118	61.8513
19.136	61.8885
19.154	61.9259
19.172	61.96
19.19	61.9897
19.208	62.0109
19.226	62.0233
19.244	62.0235
19.262	62.0119
19.28	61.9868
19.298	61.9488
19.316	61.8991
19.334	61.8378
19.352	61.7691
19.37	61.6928
19.388	61.6147
19.406	61.5343
19.424	61.4579
19.442	61.3855
19.46	61.3221
19.478	61.2684
19.496	61.2268
19.514	61.1983
19.532	61.1832
19.55	61.1826
19.568	61.1944
19.586	61.2179
19.604	61.251
19.622	61.2903
19.64	61.3349
19.658	61.3787
19.676	61.4219
19.694	61.4577
19.712	61.487
19.73	61.5042
19.748	61.5093
19.766	61.5
19.784	61.4752
19.802	61.4358
19.82	61.3813
19.838	61.3136
19.856	61.2344
19.874	61.145
19.892	61.0508
19.91	60.9513
19.928	60.854
19.946	60.758
19.964	60.6703
19.982	60.5913
20	60.5249
20.018	60.4734
20.036	60.4376
20.054	60.4207
20.072	60.4221
20.09	60.4432
20.108	60.4837
20.126	60.5425
20.144	60.62
20.162	60.7129
20.18	60.8208
20.198	60.941
20.216	61.0697
20.234	61.2069
20.252	61.3459
20.27	61.4878
20.288	61.6257
20.306	61.7594
20.324	61.8848
20.342	61.9988
20.36	62.101
20.378	62.1866
20.396	62.2565
20.414	62.3081
20.432	62.3412
20.45	62.3562
20.468	62.3524
20.486	62.3314
20.504	62.295
20.522	62.2432
20.54	62.1808
20.558	62.1069
20.576	62.0267
20.594	61.9417
20.612	61.8539
20.63	61.7689
20.648	61.6855
20.666	61.6096
20.684	61.5408
20.702	61.4819
20.72	61.4357
20.738	61.4014
20.756	61.3807
20.774	61.3734
20.792	61.3789
20.81	61.398
20.828	61.4284
20.846	61.4676
20.864	61.5162
20.882	61.5685
20.9	61.6259
20.918	61.6832
20.936	61.7373
20.954	61.7882
20.972	61.8292
20.99	61.8619
21.008	61.8817
21.026	61.8868
21.044	61.8773
21.062	61.8504
21.08	61.8064
21.098	61.7461
21.116	61.6684
21.134	61.5753
21.152	61.4694
21.17	61.3497
21.188	61.222
21.206	61.0862
21.224	60.9451
21.242	60.8045
21.26	60.6624
21.278	60.5259
21.296	60.3955
21.314	60.273
21.332	60.1636
21.35	60.0656
21.368	59.9827
21.386	59.9159
21.404	59.8648
21.422	59.8309
21.44	59.8138
21.458	59.8126
21.476	59.8273
21.494	59.8571
21.512	59.8992
21.53	59.9546
21.548	60.0202
21.566	60.0941
21.584	60.1767
21.602	60.2638
21.62	60.356
21.638	60.4512
21.656	60.5463
21.674	60.6424
21.692	60.7364
21.71	60.8275
21.728	60.9157
21.746	60.9987
21.764	61.077
21.782	61.1495
21.8	61.2153
21.818	61.2747
21.836	61.3263
21.854	61.3703
21.872	61.4063
21.89	61.4332
21.908	61.4515
21.926	61.4603
21.944	61.459
21.962	61.448
21.98	61.4266
21.998	61.3946
22.016	61.3524
22.034	61.3003
22.052	61.2379
22.07	61.1667
22.088	61.0872
22.106	60.9992
22.124	60.9055
22.142	60.8059
22.16	60.7014
22.178	60.5961
22.196	60.4884
22.214	60.3817
22.232	60.28
22.25	60.1812
22.268	60.09
22.286	60.0087
22.304	59.9361
22.322	59.8763
22.34	59.8301
22.358	59.797
22.376	59.7793
22.394	59.7772
22.412	59.79
22.43	59.8177
22.448	59.8608
22.466	59.9172
22.484	59.9856
22.502	60.0668
22.52	60.1568
22.538	60.2545
22.556	60.3604
22.574	60.4691
22.592	60.5807
22.61	60.6944
22.628	60.8052
22.646	60.914
22.664	61.0194
22.682	61.1181
22.7	61.2109
22.718	61.2969
22.736	61.3743
22.754	61.4435
22.772	61.5047
22.79	61.5574
22.808	61.6016
22.826	61.6383
22.844	61.6677
22.862	61.6895
22.88	61.7051
22.898	61.7149
22.916	61.7187
22.934	61.7174
22.952	61.7113
22.97	61.7004
22.988	61.6848
23.006	61.665
23.024	61.6406
23.042	61.6116
23.06	61.578
23.078	61.5399
23.096	61.4967
23.114	61.4484
23.132	61.3952
23.15	61.3375
23.168	61.2747
23.186	61.2075
23.204	61.1372
23.222	61.0628
23.24	60.9855
23.258	60.9081
23.276	60.8296
23.294	60.7512
23.312	60.6771
23.33	60.606
23.348	60.5392
23.366	60.4817
23.384	60.4327
23.402	60.3928
23.42	60.3665
23.438	60.3536
23.456	60.3541
23.474	60.3712
23.492	60.4056
23.51	60.4564
23.528	60.5246
23.546	60.611
23.564	60.7149
23.582	60.8345
23.6	60.9703
23.618	61.1222
23.636	61.2863
23.654	61.4611
23.672	61.6486
23.69	61.8428
23.708	62.0406
23.726	62.2451
23.744	62.4504
23.762	62.6515
23.78	62.8524
23.798	63.0479
23.816	63.232
23.834	63.408
23.852	63.5729
23.87	63.7211
23.888	63.8541
23.906	63.9713
23.924	64.0685
23.942	64.1455
23.96	64.2032
23.978	64.2399
23.996	64.2548
24.014	64.2486
24.032	64.2219
24.05	64.1745
24.068	64.1061
24.086	64.0189
24.104	63.9147
24.122	63.7915
24.14	63.6523
24.158	63.5012
24.176	63.336
24.194	63.1587
24.212	62.9744
24.23	62.7832
24.248	62.5843
24.266	62.3833
24.284	62.1832
24.302	61.9808
24.32	61.7808
24.338	61.5879
24.356	61.3988
24.374	61.2163
24.392	61.0451
24.41	60.8844
24.428	60.734
24.446	60.5972
24.464	60.4752
24.482	60.3665
24.5	60.2728
24.518	60.1958
24.536	60.1348
24.554	60.0894
24.572	60.0596
24.59	60.0463
24.608	60.0485
24.626	60.0635
24.644	60.0906
24.662	60.1312
24.68	60.1818
24.698	60.2394
24.716	60.3066
24.734	60.3808
24.752	60.4577
24.77	60.5372
24.788	60.6205
24.806	60.704
24.824	60.7853
24.842	60.8667
24.86	60.9462
24.878	61.0214
24.896	61.0925
24.914	61.16
24.932	61.2233
24.95	61.2819
24.968	61.3357
24.986	61.3861
25.004	61.4344
25.022	61.4798
25.04	61.5228
25.058	61.5652
25.076	61.6079
25.094	61.6499
25.112	61.692
25.13	61.7348
25.148	61.7786
25.166	61.8228
25.184	61.8671
25.202	61.9114
25.22	61.9564
25.238	62.0004
25.256	62.0424
25.274	62.0838
25.292	62.1235
25.31	62.1582
25.328	62.1865
25.346	62.211
25.364	62.2281
25.382	62.2337
25.4	62.229
25.418	62.2145
25.436	62.1864
25.454	62.142
25.472	62.0837
25.49	62.0102
25.508	61.9195
25.526	61.8107
25.544	61.6848
25.562	61.5424
25.58	61.3841
25.598	61.2079
25.616	61.0159
25.634	60.8115
25.652	60.5963
25.67	60.3677
25.688	60.1287
25.706	59.883
25.724	59.6301
25.742	59.3688
25.76	59.103
25.778	58.8364
25.796	58.566
25.814	58.2934
25.832	58.0226
25.85	57.7561
25.868	57.4904
25.886	57.2288
25.904	56.9758
25.922	56.7319
25.94	56.4945
25.958	56.2678
25.976	56.0555
25.994	55.8556
26.012	55.6682
26.03	55.4972
26.048	55.3461
26.066	55.2121
26.084	55.0961
26.102	55.0013
26.12	54.9292
26.138	54.8774
26.156	54.8476
26.174	54.8426
26.192	54.8633
26.21	54.9082
26.228	54.9777
26.246	55.0725
26.264	55.1927
26.282	55.3378
26.3	55.5077
26.318	55.7022
26.336	55.9217
26.354	56.1657
26.372	56.4334
26.39	56.7237
26.408	57.0381
26.426	57.3755
26.444	57.7336
26.462	58.1108
26.48	58.5102
26.498	58.929
26.516	59.3628
26.534	59.8089
26.552	60.2718
26.57	60.7478
26.588	61.2312
26.606	61.7197
26.624	62.2194
26.642	62.7238
26.66	63.2247
26.678	63.7179
26.696	64.2102
26.714	64.6967
26.732	65.1713
26.75	65.6316
26.768	66.083
26.786	66.5207
26.804	66.9389
26.822	67.3337
26.84	67.7081
26.858	68.064
26.876	68.4026
26.894	68.7228
26.912	69.0206
26.93	69.3047
26.948	69.5839
26.966	69.8757
26.984	70.1916
27.002	70.4882
27.02	70.7193
27.028	70.7817