File: Bakgrunnsmateriale/MATLAB/FTIR/ftir_data/subAa/Mapping_121/BZ1503107-1_t40.asc
PE IR       SPECTRUM    SPECTRUM    ASCII       PEDS        1.60
  -1
BZ294D~1.ASC
17/04/07
16:29:00.00
17/04/07
16:29:26.00
tln
$BZ1503107-1_t0040$<tbV0>[-2.6,-5.2,8.0,0.0,27,1,0]
27.028
64

2002,4.07
MIRTGS : RIGHTBACK : INTERNAL 2
MIR : ON : INTERNAL 2
OPTKBR

0.200000
8
8.000000
FILLER
RATIO
SPECTRUM
UNLOCKED 256

DOUBLE
64
COMBINED
1
0
0

0.002000
RATIO

1
0
TRUE
51149
0
LEFT NOT FITTED RIGHT NOT FITTED 0
NONE
NONE
15600
12
4.427000
51148
TRUE
1 0 8 72 0 0 0 0

15798

#HDR
-1
-1
#GR
µM
%T
2.38419e-05
0.0
2.000000
0.002000
12515
8
76.0443
46.1894
#DATA
2.000000	 65.4353
2.018000	 64.5945
2.036000	 64.2447
2.054000	 64.9534
2.072000	 65.1799
2.090000	 65.245
2.108000	 65.1067
2.126000	 65.5103
2.144000	 64.9401
2.162000	 65.1278
2.180000	 64.6084
2.198000	 64.9492
2.216000	 64.5494
2.234000	 64.2092
2.252000	 64.9662
2.270000	 69.7798
2.288000	 65.1884
2.306000	 64.725
2.324000	 64.8095
2.342000	 64.9178
2.360000	 65.0244
2.378000	 65.0084
2.396000	 65.0524
2.414000	 65.1839
2.432000	 65.4086
2.450000	 65.2609
2.468000	 64.973
2.486000	 65.1724
2.504000	 65.4187
2.522000	 65.0518
2.540000	 65.1294
2.558000	 65.1498
2.576000	 64.9573
2.594000	 65.1722
2.612000	 65.3398
2.630000	 65.3211
2.648000	 65.2569
2.666000	 65.1555
2.684000	 65.2817
2.702000	 65.5009
2.720000	 65.3582
2.738000	 65.2106
2.756000	 65.1624
2.774000	 65.2458
2.792000	 65.1641
2.810000	 65.2565
2.828000	 64.9913
2.846000	 65.215
2.864000	 65.1217
2.882000	 65.2346
2.900000	 65.1383
2.918000	 65.1707
2.936000	 65.2661
2.954000	 65.2224
2.972000	 65.161
2.990000	 65.1307
3.008000	 65.1695
3.026000	 65.1028
3.044000	 65.0255
3.062000	 65.3287
3.080000	 65.2258
3.098000	 65.06
3.116000	 65.1061
3.134000	 64.8909
3.152000	 65.1915
3.170000	 65.1906
3.188000	 65.0776
3.206000	 65.0048
3.224000	 65.2726
3.242000	 65.0428
3.260000	 65.0892
3.278000	 65.2145
3.296000	 64.9555
3.314000	 64.9699
3.332000	 65.2589
3.350000	 65.1667
3.368000	 65.0451
3.386000	 65.0521
3.404000	 64.9592
3.422000	 65.1365
3.440000	 65.1408
3.458000	 65.0755
3.476000	 65.058
3.494000	 65.0436
3.512000	 64.8617
3.530000	 65.0645
3.548000	 64.9208
3.566000	 65.1111
3.584000	 65.1381
3.602000	 65.0681
3.620000	 65.2118
3.638000	 65.1755
3.656000	 65.0786
3.674000	 65.2105
3.692000	 65.1012
3.710000	 65.0719
3.728000	 65.0292
3.746000	 65.0205
3.764000	 65.1248
3.782000	 65.0574
3.800000	 65.054
3.818000	 65.0508
3.836000	 64.9007
3.854000	 64.904
3.872000	 64.9627
3.890000	 64.9017
3.908000	 64.9153
3.926000	 64.9413
3.944000	 65.0018
3.962000	 65.003
3.980000	 64.9236
3.998000	 64.9326
4.016000	 64.8786
4.034000	 64.9192
4.052000	 64.8738
4.070000	 64.8345
4.088000	 64.8768
4.106000	 65.0025
4.124000	 64.8047
4.141999	 65.1136
4.160000	 64.9758
4.178000	 64.905
4.196000	 64.9791
4.214000	 64.8997
4.232000	 64.8643
4.250000	 64.9498
4.268000	 64.9667
4.286000	 64.9848
4.304000	 64.9263
4.322000	 64.9266
4.340000	 64.8242
4.358000	 64.8665
4.375999	 64.9819
4.394000	 64.9366
4.412000	 64.8492
4.430000	 64.9285
4.448000	 64.8564
4.466000	 64.8387
4.484000	 64.9818
4.502000	 64.8029
4.520000	 64.8453
4.538000	 64.893
4.556000	 64.9473
4.574000	 64.8406
4.592000	 64.8327
4.609999	 64.6813
4.628000	 64.6927
4.646000	 64.7289
4.664000	 64.6954
4.682000	 64.7124
4.700000	 64.7513
4.718000	 64.8241
4.736000	 64.792
4.754000	 64.7389
4.772000	 64.7103
4.790000	 64.6718
4.808000	 64.6601
4.826000	 64.7202
4.843999	 64.7745
4.862000	 64.7853
4.880000	 64.7767
4.898000	 64.7912
4.916000	 64.6885
4.934000	 64.7591
4.952000	 64.8405
4.970000	 64.8339
4.988000	 64.8027
5.006000	 64.727
5.024000	 64.6044
5.042000	 64.7112
5.060000	 64.6869
5.077999	 64.7989
5.096000	 64.8027
5.114000	 64.7697
5.132000	 64.7542
5.150000	 64.6907
5.168000	 64.7732
5.186000	 64.7148
5.204000	 64.7429
5.222000	 64.7434
5.240000	 64.6912
5.258000	 64.6207
5.276000	 64.6999
5.294000	 64.7335
5.312000	 64.696
5.330000	 64.6825
5.348000	 64.6136
5.366000	 64.6159
5.384000	 64.6778
5.402000	 64.6768
5.420000	 64.6507
5.438000	 64.6741
5.456000	 64.6869
5.474000	 64.7364
5.492000	 64.708
5.510000	 64.7001
5.528000	 64.6348
5.546000	 64.6459
5.564000	 64.6452
5.582000	 64.6306
5.600000	 64.6008
5.618000	 64.5863
5.636000	 64.6017
5.654000	 64.5563
5.672000	 64.4897
5.690000	 64.4416
5.708000	 64.4289
5.726000	 64.3957
5.744000	 64.3256
5.762000	 64.2061
5.780000	 64.1644
5.798000	 64.2643
5.816000	 64.3458
5.834000	 64.4268
5.852000	 64.4463
5.870000	 64.4808
5.888000	 64.5013
5.906000	 64.5315
5.923999	 64.5683
5.942000	 64.5342
5.960000	 64.5377
5.978000	 64.5133
5.996000	 64.4367
6.014000	 64.4492
6.032000	 64.5359
6.050000	 64.5831
6.068000	 64.4839
6.086000	 64.4331
6.104000	 64.4857
6.122000	 64.4838
6.140000	 64.3906
6.158000	 64.3145
6.176000	 64.242
6.194000	 64.2132
6.212000	 64.33
6.230000	 64.4664
6.248000	 64.4348
6.266000	 64.3893
6.284000	 64.3638
6.302000	 64.3503
6.320000	 64.3175
6.338000	 64.1535
6.356000	 64.1683
6.374000	 64.33
6.392000	 64.3789
6.410000	 64.3255
6.428000	 64.2931
6.446000	 64.2724
6.464000	 64.2641
6.482000	 64.2995
6.500000	 64.3055
6.518000	 64.3519
6.536000	 64.4292
6.554000	 64.3929
6.572000	 64.3734
6.590000	 64.4643
6.608000	 64.4537
6.626000	 64.3531
6.644000	 64.3585
6.662000	 64.4099
6.680000	 64.4043
6.698000	 64.4149
6.716000	 64.441
6.734000	 64.4521
6.752000	 64.4214
6.770000	 64.3075
6.788000	 64.194
6.806000	 64.1896
6.824000	 64.2867
6.842000	 64.3841
6.860000	 64.3806
6.878000	 64.3415
6.896000	 64.3644
6.914000	 64.3627
6.932000	 64.3288
6.950000	 64.3237
6.968000	 64.2946
6.986000	 64.2678
7.004000	 64.3347
7.022000	 64.4373
7.040000	 64.4653
7.058000	 64.3979
7.076000	 64.2691
7.094000	 64.173
7.112000	 64.2017
7.130000	 64.2878
7.148000	 64.2943
7.166000	 64.2138
7.184000	 64.1342
7.202000	 64.1201
7.220000	 64.1635
7.238000	 64.2006
7.256000	 64.2195
7.274000	 64.2715
7.292000	 64.3293
7.310000	 64.3071
7.328000	 64.2228
7.346000	 64.1813
7.364000	 64.2048
7.382000	 64.2091
7.400000	 64.149
7.418000	 64.0835
7.436000	 64.0791
7.454000	 64.142
7.472000	 64.2227
7.490000	 64.2677
7.508000	 64.2846
7.526000	 64.2943
7.544000	 64.2716
7.562000	 64.2149
7.580000	 64.1632
7.598000	 64.1251
7.616000	 64.1045
7.634000	 64.1266
7.652000	 64.1725
7.670000	 64.1842
7.688000	 64.1542
7.706000	 64.1221
7.724000	 64.114
7.742000	 64.1285
7.760000	 64.137
7.778000	 64.1018
7.796000	 64.0334
7.814000	 63.9904
7.832000	 63.9953
7.850000	 64.0144
7.868000	 64.0241
7.886000	 64.0371
7.904000	 64.0658
7.922000	 64.102
7.940000	 64.1241
7.958000	 64.1169
7.976000	 64.0952
7.994000	 64.0791
8.012000	 64.0585
8.030000	 64.0255
8.048000	 64.0093
8.065999	 64.0379
8.084000	 64.0988
8.102000	 64.1509
8.120000	 64.1533
8.138000	 64.0966
8.155999	 64.0298
8.173999	 64.019
8.192000	 64.0733
8.210000	 64.146
8.228000	 64.1923
8.246000	 64.1959
8.263999	 64.158
8.282000	 64.0987
8.300000	 64.0505
8.318000	 64.0288
8.336000	 64.0286
8.353999	 64.0363
8.372000	 64.0369
8.390000	 64.0214
8.408000	 64.0009
8.426000	 64.0048
8.443999	 64.0497
8.462000	 64.1104
8.480000	 64.1356
8.498000	 64.0993
8.516000	 64.0281
8.533999	 63.9737
8.552000	 63.9636
8.570000	 63.9885
8.588000	 64.0256
8.606000	 64.0593
8.624000	 64.0834
8.641999	 64.0932
8.660000	 64.0837
8.678000	 64.0605
8.696000	 64.0438
8.714000	 64.0473
8.731999	 64.0589
8.750000	 64.0533
8.768000	 64.0282
8.786000	 64.0078
8.804000	 63.9996
8.821999	 63.9745
8.840000	 63.912
8.858000	 63.8382
8.876000	 63.7972
8.894000	 63.8107
8.911999	 63.8729
8.930000	 63.9614
8.948000	 64.0449
8.966000	 64.0915
8.984000	 64.0855
9.001999	 64.0382
9.020000	 63.9813
9.038000	 63.9449
9.056000	 63.9352
9.074000	 63.9378
9.092000	 63.9379
9.109999	 63.9331
9.128000	 63.9306
9.146000	 63.9383
9.164000	 63.9557
9.182000	 63.971
9.199999	 63.9697
9.218000	 63.952
9.236000	 63.9335
9.254000	 63.9296
9.272000	 63.9374
9.289999	 63.9395
9.308000	 63.9244
9.326000	 63.8996
9.344000	 63.8823
9.362000	 63.8806
9.379999	 63.8872
9.398000	 63.8902
9.416000	 63.8875
9.434000	 63.8878
9.452000	 63.9016
9.469999	 63.9296
9.488000	 63.9597
9.506000	 63.9719
9.524000	 63.949
9.542000	 63.8898
9.560000	 63.8149
9.577999	 63.7563
9.596000	 63.7363
9.614000	 63.7522
9.632000	 63.7818
9.650000	 63.8028
9.667999	 63.8119
9.686000	 63.8256
9.704000	 63.8629
9.722000	 63.925
9.740000	 63.9898
9.757999	 64.0255
9.776000	 64.0118
9.794000	 63.9538
9.812000	 63.8783
9.830000	 63.8158
9.847999	 63.7836
9.866000	 63.7809
9.884000	 63.7945
9.902000	 63.8123
9.920000	 63.8302
9.937999	 63.8521
9.956000	 63.8844
9.974000	 63.9277
9.992000	 63.975
10.01	64.016
10.028	64.0429
10.046	64.054
10.064	64.0524
10.082	64.0422
10.1	64.0261
10.118	64.0073
10.136	63.9902
10.154	63.9787
10.172	63.9733
10.19	63.9682
10.208	63.9566
10.226	63.9379
10.244	63.9189
10.262	63.9082
10.28	63.9068
10.298	63.9062
10.316	63.8954
10.334	63.8734
10.352	63.8531
10.37	63.8542
10.388	63.8875
10.406	63.9448
10.424	64.0024
10.442	64.0343
10.46	64.0255
10.478	63.976
10.496	63.9002
10.514	63.8189
10.532	63.7542
10.55	63.7212
10.568	63.7252
10.586	63.7599
10.604	63.8117
10.622	63.864
10.64	63.9058
10.658	63.9332
10.676	63.9488
10.694	63.9583
10.712	63.9673
10.73	63.9805
10.748	64.0018
10.766	64.0325
10.784	64.07
10.802	64.1079
10.82	64.1395
10.838	64.16
10.856	64.1677
10.874	64.1631
10.892	64.1467
10.91	64.1174
10.928	64.074
10.946	64.0178
10.964	63.9544
10.982	63.8931
11	63.8436
11.018	63.8128
11.036	63.8017
11.054	63.8064
11.072	63.8212
11.09	63.8401
11.108	63.8594
11.126	63.877
11.144	63.8918
11.162	63.9025
11.18	63.9074
11.198	63.905
11.216	63.8945
11.234	63.8772
11.252	63.8569
11.27	63.8397
11.288	63.8334
11.306	63.8447
11.324	63.8772
11.342	63.9287
11.36	63.9916
11.378	64.0542
11.396	64.1061
11.414	64.1406
11.432	64.1571
11.45	64.1599
11.468	64.1549
11.486	64.1454
11.504	64.131
11.522	64.1085
11.54	64.0754
11.558	64.0332
11.576	63.9886
11.594	63.9515
11.612	63.9313
11.63	63.9325
11.648	63.9524
11.666	63.9817
11.684	64.008
11.702	64.0204
11.72	64.0125
11.738	63.9835
11.756	63.9379
11.774	63.8828
11.792	63.8275
11.81	63.7809
11.828	63.7507
11.846	63.7423
11.864	63.7576
11.882	63.7933
11.9	63.841
11.918	63.8886
11.936	63.9239
11.954	63.9377
11.972	63.9277
11.99	63.8993
12.008	63.8637
12.026	63.8339
12.044	63.8211
12.062	63.8292
12.08	63.8543
12.098	63.8865
12.116	63.914
12.134	63.9273
12.152	63.9222
12.17	63.9002
12.188	63.8664
12.206	63.8277
12.224	63.7894
12.242	63.7548
12.26	63.7259
12.278	63.7036
12.296	63.6889
12.314	63.6824
12.332	63.6857
12.35	63.7003
12.368	63.7272
12.386	63.7664
12.404	63.8166
12.422	63.8746
12.44	63.9359
12.458	63.9945
12.476	64.0449
12.494	64.0816
12.512	64.101
12.53	64.1014
12.548	64.0836
12.566	64.0513
12.584	64.0106
12.602	63.9698
12.62	63.9375
12.638	63.9209
12.656	63.9242
12.674	63.9477
12.692	63.9878
12.71	64.0378
12.728	64.0892
12.746	64.1341
12.764	64.1662
12.782	64.1823
12.8	64.1818
12.818	64.1663
12.836	64.1377
12.854	64.0983
12.872	64.0497
12.89	63.9936
12.908	63.9326
12.926	63.8702
12.944	63.8108
12.962	63.759
12.98	63.7178
12.998	63.6883
13.016	63.6693
13.034	63.6583
13.052	63.6522
13.07	63.6479
13.088	63.6435
13.106	63.6386
13.124	63.6333
13.142	63.6288
13.16	63.6257
13.178	63.6244
13.196	63.6246
13.214	63.6255
13.232	63.6261
13.25	63.6253
13.268	63.6229
13.286	63.6195
13.304	63.6165
13.322	63.6165
13.34	63.6224
13.358	63.6375
13.376	63.6645
13.394	63.7054
13.412	63.7599
13.43	63.8252
13.448	63.8958
13.466	63.9641
13.484	64.0215
13.502	64.0598
13.52	64.0735
13.538	64.0609
13.556	64.0244
13.574	63.9696
13.592	63.9051
13.61	63.8407
13.628	63.7855
13.646	63.7467
13.664	63.7285
13.682	63.7315
13.7	63.7532
13.718	63.7887
13.736	63.8315
13.754	63.8748
13.772	63.9124
13.79	63.9403
13.808	63.9565
13.826	63.9608
13.844	63.9545
13.862	63.9398
13.88	63.9184
13.898	63.8918
13.916	63.8603
13.934	63.8232
13.952	63.7796
13.97	63.7286
13.988	63.671
14.006	63.6098
14.024	63.5506
14.042	63.5013
14.06	63.4703
14.078	63.4652
14.096	63.4909
14.114	63.5487
14.132	63.635
14.15	63.7417
14.168	63.8573
14.186	63.9681
14.204	64.061
14.222	64.1246
14.24	64.1516
14.258	64.1397
14.276	64.0913
14.294	64.0127
14.312	63.9134
14.33	63.8041
14.348	63.6959
14.366	63.5985
14.384	63.5195
14.402	63.4637
14.42	63.4328
14.438	63.4262
14.456	63.4407
14.474	63.4714
14.492	63.5123
14.51	63.5564
14.528	63.5974
14.546	63.6299
14.564	63.65
14.582	63.6561
14.6	63.6483
14.618	63.6292
14.636	63.6036
14.654	63.5772
14.672	63.5557
14.69	63.544
14.708	63.5452
14.726	63.5604
14.744	63.5873
14.762	63.6216
14.78	63.6578
14.798	63.6903
14.816	63.7145
14.834	63.7266
14.852	63.7257
14.87	63.7123
14.888	63.6879
14.906	63.6547
14.924	63.6145
14.942	63.5686
14.96	63.5172
14.978	63.4607
14.996	63.3992
15.014	63.3339
15.032	63.2672
15.05	63.203
15.068	63.1461
15.086	63.1013
15.104	63.0734
15.122	63.0666
15.14	63.0821
15.158	63.1189
15.176	63.1742
15.194	63.2427
15.212	63.3166
15.23	63.3889
15.248	63.4535
15.266	63.5051
15.284	63.5404
15.302	63.5596
15.32	63.5644
15.338	63.5576
15.356	63.5437
15.374	63.5274
15.392	63.5119
15.41	63.4998
15.428	63.4933
15.446	63.4924
15.464	63.4967
15.482	63.5049
15.5	63.5152
15.518	63.5257
15.536	63.5345
15.554	63.5402
15.572	63.5412
15.59	63.5364
15.608	63.5251
15.626	63.5068
15.644	63.481
15.662	63.4478
15.68	63.4073
15.698	63.3596
15.716	63.3052
15.734	63.2454
15.752	63.1817
15.77	63.1162
15.788	63.0523
15.806	62.9937
15.824	62.9438
15.842	62.9072
15.86	62.8885
15.878	62.8905
15.896	62.9153
15.914	62.964
15.932	63.0348
15.95	63.1251
15.968	63.2306
15.986	63.3434
16.004	63.457
16.022	63.5639
16.04	63.6542
16.058	63.7219
16.076	63.7621
16.094	63.7698
16.112	63.7448
16.13	63.6883
16.148	63.6031
16.166	63.4964
16.184	63.374
16.202	63.243
16.22	63.113
16.238	62.9897
16.256	62.8789
16.274	62.7861
16.292	62.7127
16.31	62.6601
16.328	62.6273
16.346	62.612
16.364	62.6123
16.382	62.6241
16.4	62.6445
16.418	62.6716
16.436	62.7028
16.454	62.7378
16.472	62.7763
16.49	62.8192
16.508	62.8677
16.526	62.9229
16.544	62.9868
16.562	63.0596
16.58	63.142
16.598	63.2334
16.616	63.3323
16.634	63.4374
16.652	63.5451
16.67	63.6527
16.688	63.7572
16.706	63.8544
16.724	63.9423
16.742	64.0178
16.76	64.0791
16.778	64.1252
16.796	64.155
16.814	64.1693
16.832	64.1686
16.85	64.1541
16.868	64.1278
16.886	64.091
16.904	64.0462
16.922	63.9949
16.94	63.939
16.958	63.8806
16.976	63.8206
16.994	63.7613
17.012	63.704
17.03	63.6499
17.048	63.6009
17.066	63.5579
17.084	63.5224
17.102	63.4962
17.12	63.4802
17.138	63.4761
17.156	63.4839
17.174	63.5042
17.192	63.5364
17.21	63.5799
17.228	63.6332
17.246	63.6938
17.264	63.7604
17.282	63.8282
17.3	63.8953
17.318	63.9574
17.336	64.0107
17.354	64.053
17.372	64.0799
17.39	64.0904
17.408	64.082
17.426	64.0545
17.444	64.0074
17.462	63.9422
17.48	63.86
17.498	63.7639
17.516	63.657
17.534	63.5422
17.552	63.4248
17.57	63.3067
17.588	63.1937
17.606	63.088
17.624	62.9934
17.642	62.9128
17.66	62.8476
17.678	62.7997
17.696	62.7692
17.714	62.7562
17.732	62.7594
17.75	62.778
17.768	62.809
17.786	62.8519
17.804	62.9022
17.822	62.959
17.84	63.0192
17.858	63.0816
17.876	63.1443
17.894	63.2064
17.912	63.2674
17.93	63.3272
17.948	63.3859
17.966	63.444
17.984	63.5015
18.002	63.5586
18.02	63.6151
18.038	63.671
18.056	63.725
18.074	63.7769
18.092	63.8249
18.11	63.8685
18.128	63.9056
18.146	63.9359
18.164	63.9578
18.182	63.9714
18.2	63.9759
18.218	63.9721
18.236	63.9598
18.254	63.9406
18.272	63.9147
18.29	63.8844
18.308	63.85
18.326	63.8139
18.344	63.7764
18.362	63.7396
18.38	63.704
18.398	63.6709
18.416	63.6406
18.434	63.614
18.452	63.591
18.47	63.572
18.488	63.5564
18.506	63.5442
18.524	63.5345
18.542	63.5271
18.56	63.521
18.578	63.5162
18.596	63.5118
18.614	63.5077
18.632	63.503
18.65	63.4977
18.668	63.4915
18.686	63.4847
18.704	63.4773
18.722	63.4695
18.74	63.4622
18.758	63.4556
18.776	63.4504
18.794	63.4469
18.812	63.4462
18.83	63.4483
18.848	63.4541
18.866	63.4635
18.884	63.4771
18.902	63.4947
18.92	63.5164
18.938	63.5418
18.956	63.5705
18.974	63.6019
18.992	63.6352
19.01	63.6693
19.028	63.7032
19.046	63.7359
19.064	63.7662
19.082	63.7932
19.1	63.8155
19.118	63.8327
19.136	63.8435
19.154	63.8478
19.172	63.8451
19.19	63.8356
19.208	63.8195
19.226	63.7972
19.244	63.7697
19.262	63.7374
19.28	63.7021
19.298	63.6639
19.316	63.625
19.334	63.5854
19.352	63.5473
19.37	63.5107
19.388	63.477
19.406	63.4463
19.424	63.4198
19.442	63.3973
19.46	63.3797
19.478	63.367
19.496	63.3596
19.514	63.3574
19.532	63.3608
19.55	63.3698
19.568	63.3845
19.586	63.4049
19.604	63.4308
19.622	63.4622
19.64	63.4988
19.658	63.5401
19.676	63.586
19.694	63.6351
19.712	63.6874
19.73	63.7412
19.748	63.7964
19.766	63.8513
19.784	63.9055
19.802	63.9577
19.82	64.007
19.838	64.0529
19.856	64.0943
19.874	64.1311
19.892	64.1621
19.91	64.1877
19.928	64.2071
19.946	64.2205
19.964	64.2278
19.982	64.2291
20	64.2248
20.018	64.2151
20.036	64.2004
20.054	64.1815
20.072	64.1583
20.09	64.132
20.108	64.1025
20.126	64.0711
20.144	64.0377
20.162	64.0034
20.18	63.9685
20.198	63.9335
20.216	63.899
20.234	63.8651
20.252	63.8325
20.27	63.8012
20.288	63.7715
20.306	63.7436
20.324	63.7177
20.342	63.6939
20.36	63.6721
20.378	63.6526
20.396	63.6351
20.414	63.6197
20.432	63.6063
20.45	63.5947
20.468	63.5849
20.486	63.5766
20.504	63.5693
20.522	63.5633
20.54	63.5576
20.558	63.5526
20.576	63.5474
20.594	63.5418
20.612	63.5354
20.63	63.5274
20.648	63.5178
20.666	63.5057
20.684	63.491
20.702	63.4733
20.72	63.4519
20.738	63.4272
20.756	63.3988
20.774	63.3667
20.792	63.3313
20.81	63.2921
20.828	63.25
20.846	63.2057
20.864	63.1591
20.882	63.1122
20.9	63.0644
20.918	63.0177
20.936	62.973
20.954	62.9305
20.972	62.8924
20.99	62.8583
21.008	62.8297
21.026	62.8073
21.044	62.7912
21.062	62.7822
21.08	62.7804
21.098	62.7853
21.116	62.7975
21.134	62.8161
21.152	62.8402
21.17	62.8702
21.188	62.904
21.206	62.9418
21.224	62.9825
21.242	63.0244
21.26	63.0681
21.278	63.1116
21.296	63.1546
21.314	63.197
21.332	63.2375
21.35	63.2764
21.368	63.3135
21.386	63.3484
21.404	63.3816
21.422	63.4131
21.44	63.4429
21.458	63.4717
21.476	63.4997
21.494	63.527
21.512	63.554
21.53	63.5809
21.548	63.6075
21.566	63.6339
21.584	63.6601
21.602	63.6848
21.62	63.7083
21.638	63.7298
21.656	63.7481
21.674	63.7637
21.692	63.7744
21.71	63.7799
21.728	63.7799
21.746	63.7723
21.764	63.7577
21.782	63.7351
21.8	63.7033
21.818	63.6629
21.836	63.6137
21.854	63.5551
21.872	63.4881
21.89	63.4135
21.908	63.3306
21.926	63.2417
21.944	63.1478
21.962	63.0485
21.98	62.9474
21.998	62.8442
22.016	62.7402
22.034	62.6388
22.052	62.5387
22.07	62.4426
22.088	62.3526
22.106	62.2677
22.124	62.1902
22.142	62.1208
22.16	62.0592
22.178	62.0068
22.196	61.9636
22.214	61.9294
22.232	61.9046
22.25	61.889
22.268	61.882
22.286	61.8833
22.304	61.893
22.322	61.9095
22.34	61.9327
22.358	61.9624
22.376	61.9965
22.394	62.0357
22.412	62.0789
22.43	62.1246
22.448	62.1736
22.466	62.2242
22.484	62.2753
22.502	62.3276
22.52	62.3793
22.538	62.4299
22.556	62.4795
22.574	62.5266
22.592	62.5709
22.61	62.6124
22.628	62.6497
22.646	62.683
22.664	62.7122
22.682	62.7367
22.7	62.7566
22.718	62.7721
22.736	62.7835
22.754	62.7906
22.772	62.7942
22.79	62.7948
22.808	62.792
22.826	62.7872
22.844	62.781
22.862	62.7729
22.88	62.7652
22.898	62.7587
22.916	62.7528
22.934	62.7496
22.952	62.7497
22.97	62.7527
22.988	62.7595
23.006	62.7707
23.024	62.7858
23.042	62.8045
23.06	62.8271
23.078	62.8532
23.096	62.8818
23.114	62.9133
23.132	62.9471
23.15	62.9812
23.168	63.0164
23.186	63.0517
23.204	63.0843
23.222	63.1146
23.24	63.1423
23.258	63.165
23.276	63.1828
23.294	63.1958
23.312	63.2032
23.33	63.2047
23.348	63.2008
23.366	63.1925
23.384	63.1791
23.402	63.1613
23.42	63.1412
23.438	63.1181
23.456	63.0926
23.474	63.068
23.492	63.0441
23.51	63.0209
23.528	63.0021
23.546	62.9883
23.564	62.9786
23.582	62.976
23.6	62.9818
23.618	62.9947
23.636	63.016
23.654	63.0463
23.672	63.0853
23.69	63.1326
23.708	63.1884
23.726	63.253
23.744	63.3249
23.762	63.4034
23.78	63.4893
23.798	63.5809
23.816	63.6762
23.834	63.7766
23.852	63.8803
23.87	63.985
23.888	64.0918
23.906	64.1995
23.924	64.3049
23.942	64.4086
23.96	64.5103
23.978	64.6066
23.996	64.6961
24.014	64.7803
24.032	64.8569
24.05	64.9246
24.068	64.9845
24.086	65.0355
24.104	65.0765
24.122	65.1084
24.14	65.1302
24.158	65.14
24.176	65.139
24.194	65.1263
24.212	65.0997
24.23	65.0588
24.248	65.0043
24.266	64.9354
24.284	64.8518
24.302	64.7539
24.32	64.6414
24.338	64.5136
24.356	64.3706
24.374	64.2129
24.392	64.0409
24.41	63.8546
24.428	63.6539
24.446	63.4396
24.464	63.2117
24.482	62.97
24.5	62.7153
24.518	62.4484
24.536	62.1685
24.554	61.8766
24.572	61.5736
24.59	61.2586
24.608	60.9324
24.626	60.5978
24.644	60.2556
24.662	59.9045
24.68	59.5473
24.698	59.1868
24.716	58.8207
24.734	58.4511
24.752	58.0815
24.77	57.7118
24.788	57.3411
24.806	56.973
24.824	56.6096
24.842	56.2484
24.86	55.8924
24.878	55.5449
24.896	55.2052
24.914	54.8731
24.932	54.551
24.95	54.2402
24.968	53.9392
24.986	53.6491
25.004	53.3712
25.022	53.1056
25.04	52.8516
25.058	52.6081
25.076	52.3754
25.094	52.1543
25.112	51.9416
25.13	51.7339
25.148	51.5337
25.166	51.3394
25.184	51.1472
25.202	50.9553
25.22	50.7662
25.238	50.5772
25.256	50.3856
25.274	50.1923
25.292	49.9974
25.31	49.7991
25.328	49.5963
25.346	49.3899
25.364	49.1797
25.382	48.9653
25.4	48.7445
25.418	48.5191
25.436	48.2938
25.454	48.0716
25.472	47.8467
25.49	47.6262
25.508	47.4195
25.526	47.2253
25.544	47.0393
25.562	46.8764
25.58	46.7501
25.598	46.6492
25.616	46.5796
25.634	46.5584
25.652	46.5945
25.67	46.6741
25.688	46.8111
25.706	47.0223
25.724	47.3084
25.742	47.6621
25.76	48.0942
25.778	48.6145
25.796	49.2206
25.814	49.9095
25.832	50.6806
25.85	51.5362
25.868	52.4811
25.886	53.5027
25.904	54.5866
25.922	55.7361
25.94	56.9592
25.958	58.2281
25.976	59.5152
25.994	60.8393
26.012	62.1961
26.03	63.5479
26.048	64.8631
26.066	66.1724
26.084	67.4587
26.102	68.6855
26.12	69.8309
26.138	70.9252
26.156	71.9452
26.174	72.8602
26.192	73.6599
26.21	74.3644
26.228	74.9574
26.246	75.4209
26.264	75.7524
26.282	75.961
26.3	76.0431
26.318	75.9951
26.336	75.8117
26.354	75.4992
26.372	75.0688
26.39	74.53
26.408	73.8683
26.426	73.0942
26.444	72.2305
26.462	71.2952
26.48	70.2661
26.498	69.1579
26.516	67.997
26.534	66.8009
26.552	65.5429
26.57	64.2438
26.588	62.934
26.606	61.6309
26.624	60.3063
26.642	58.9822
26.66	57.6875
26.678	56.4361
26.696	55.2017
26.714	54.0062
26.732	52.8764
26.75	51.8239
26.768	50.8253
26.786	49.8997
26.804	49.0697
26.822	48.3451
26.84	47.7068
26.858	47.1685
26.876	46.746
26.894	46.4475
26.912	46.2603
26.93	46.1897
26.948	46.2428
26.966	46.4645
26.984	46.9099
27.002	47.4258
27.02	47.8465
27.028	47.9493