File: Bakgrunnsmateriale/MATLAB/FTIR/ftir_data/subAa/Mapping_121/BZ1503107-1_t44.asc
PE IR       SPECTRUM    SPECTRUM    ASCII       PEDS        1.60
  -1
BZ295D~1.ASC
17/04/07
16:47:28.00
17/04/07
16:47:54.00
tln
$BZ1503107-1_t0044$<tbV0>[-13.0,-5.2,8.0,0.0,27,1,0]
27.028
64

2002,4.07
MIRTGS : RIGHTBACK : INTERNAL 2
MIR : ON : INTERNAL 2
OPTKBR

0.200000
8
8.000000
FILLER
RATIO
SPECTRUM
UNLOCKED 256

DOUBLE
64
COMBINED
1
0
0

0.002000
RATIO

1
0
TRUE
51149
0
LEFT NOT FITTED RIGHT NOT FITTED 0
NONE
NONE
15600
12
4.427000
51148
TRUE
1 0 8 72 0 0 0 0

15798

#HDR
-1
-1
#GR
µM
%T
2.38419e-05
0.0
2.000000
0.002000
12515
8
70.8399
40.2895
#DATA
2.000000	 65.1152
2.018000	 64.0659
2.036000	 64.0165
2.054000	 64.6598
2.072000	 64.8876
2.090000	 64.6661
2.108000	 65.0921
2.126000	 65.2293
2.144000	 64.4478
2.162000	 64.5152
2.180000	 64.5848
2.198000	 64.4051
2.216000	 64.7732
2.234000	 64.268
2.252000	 66.05
2.270000	 66.2183
2.288000	 64.3497
2.306000	 64.5928
2.324000	 64.8495
2.342000	 64.6796
2.360000	 64.9109
2.378000	 65.0954
2.396000	 64.7812
2.414000	 65.0209
2.432000	 65.2354
2.450000	 64.7152
2.468000	 64.8382
2.486000	 64.8296
2.504000	 64.9037
2.522000	 64.9156
2.540000	 64.7922
2.558000	 64.8551
2.576000	 64.7964
2.594000	 64.99
2.612000	 65.1128
2.630000	 65.0979
2.648000	 65.1298
2.666000	 64.6701
2.684000	 64.7556
2.702000	 65.0607
2.720000	 64.9502
2.738000	 65.098
2.756000	 65.1189
2.774000	 64.9766
2.792000	 64.8979
2.810000	 64.9394
2.828000	 64.8116
2.846000	 64.9741
2.864000	 65.1084
2.882000	 64.857
2.900000	 64.9664
2.918000	 64.7592
2.936000	 65.1079
2.954000	 65.0682
2.972000	 65.0222
2.990000	 65.0111
3.008000	 65.0229
3.026000	 64.892
3.044000	 64.7643
3.062000	 65.024
3.080000	 65.0954
3.098000	 64.9208
3.116000	 64.9794
3.134000	 64.8285
3.152000	 65.0415
3.170000	 64.9362
3.188000	 64.8154
3.206000	 65.0156
3.224000	 64.9096
3.242000	 64.9459
3.260000	 64.9126
3.278000	 64.9502
3.296000	 64.8606
3.314000	 64.8723
3.332000	 64.9719
3.350000	 64.8342
3.368000	 64.5728
3.386000	 64.8595
3.404000	 64.7641
3.422000	 64.7631
3.440000	 64.7265
3.458000	 64.7431
3.476000	 64.773
3.494000	 64.9349
3.512000	 64.8734
3.530000	 64.7913
3.548000	 64.8657
3.566000	 64.97
3.584000	 64.968
3.602000	 64.9983
3.620000	 64.9243
3.638000	 64.9671
3.656000	 64.8675
3.674000	 64.9883
3.692000	 64.8886
3.710000	 64.9556
3.728000	 65.0133
3.746000	 64.8769
3.764000	 64.9223
3.782000	 64.9285
3.800000	 64.8685
3.818000	 64.8466
3.836000	 64.8147
3.854000	 64.7722
3.872000	 64.8076
3.890000	 64.858
3.908000	 64.9171
3.926000	 64.7026
3.944000	 64.8784
3.962000	 64.8003
3.980000	 64.8024
3.998000	 64.8917
4.016000	 64.8356
4.034000	 64.8621
4.052000	 64.8055
4.070000	 64.7994
4.088000	 64.8216
4.106000	 64.8298
4.124000	 64.7682
4.141999	 64.7467
4.160000	 64.7128
4.178000	 64.8843
4.196000	 64.8075
4.214000	 64.7181
4.232000	 64.7282
4.250000	 64.8771
4.268000	 64.9047
4.286000	 64.8667
4.304000	 64.8406
4.322000	 64.786
4.340000	 64.832
4.358000	 64.7125
4.375999	 64.7992
4.394000	 64.8537
4.412000	 64.7733
4.430000	 64.7495
4.448000	 64.7891
4.466000	 64.6669
4.484000	 64.7628
4.502000	 64.7299
4.520000	 64.6789
4.538000	 64.7178
4.556000	 64.85
4.574000	 64.8053
4.592000	 64.8912
4.609999	 64.7417
4.628000	 64.6898
4.646000	 64.719
4.664000	 64.6323
4.682000	 64.7073
4.700000	 64.6075
4.718000	 64.6173
4.736000	 64.5032
4.754000	 64.5467
4.772000	 64.6997
4.790000	 64.7094
4.808000	 64.5604
4.826000	 64.5736
4.843999	 64.5899
4.862000	 64.5884
4.880000	 64.6814
4.898000	 64.6468
4.916000	 64.6203
4.934000	 64.7174
4.952000	 64.7306
4.970000	 64.6978
4.988000	 64.7669
5.006000	 64.7108
5.024000	 64.6359
5.042000	 64.651
5.060000	 64.6371
5.077999	 64.676
5.096000	 64.737
5.114000	 64.7267
5.132000	 64.6821
5.150000	 64.6189
5.168000	 64.6219
5.186000	 64.6263
5.204000	 64.6634
5.222000	 64.5929
5.240000	 64.6652
5.258000	 64.6366
5.276000	 64.5063
5.294000	 64.5493
5.312000	 64.594
5.330000	 64.5094
5.348000	 64.6373
5.366000	 64.6209
5.384000	 64.5532
5.402000	 64.6521
5.420000	 64.6602
5.438000	 64.6237
5.456000	 64.5213
5.474000	 64.5353
5.492000	 64.5198
5.510000	 64.5398
5.528000	 64.5238
5.546000	 64.6104
5.564000	 64.5596
5.582000	 64.4772
5.600000	 64.4588
5.618000	 64.4357
5.636000	 64.5075
5.654000	 64.5141
5.672000	 64.3848
5.690000	 64.2801
5.708000	 64.3353
5.726000	 64.312
5.744000	 64.0761
5.762000	 64.0193
5.780000	 64.0389
5.798000	 64.0992
5.816000	 64.1956
5.834000	 64.2252
5.852000	 64.236
5.870000	 64.3186
5.888000	 64.3408
5.906000	 64.4008
5.923999	 64.4257
5.942000	 64.3532
5.960000	 64.3625
5.978000	 64.4079
5.996000	 64.375
6.014000	 64.3393
6.032000	 64.3586
6.050000	 64.3769
6.068000	 64.37
6.086000	 64.3095
6.104000	 64.3243
6.122000	 64.332
6.140000	 64.2501
6.158000	 64.1927
6.176000	 64.2051
6.194000	 64.2507
6.212000	 64.3399
6.230000	 64.3683
6.248000	 64.3169
6.266000	 64.316
6.284000	 64.3441
6.302000	 64.3075
6.320000	 64.2496
6.338000	 64.218
6.356000	 64.2664
6.374000	 64.3585
6.392000	 64.3959
6.410000	 64.4212
6.428000	 64.3877
6.446000	 64.2095
6.464000	 64.0491
6.482000	 64.0672
6.500000	 64.158
6.518000	 64.2365
6.536000	 64.3279
6.554000	 64.3889
6.572000	 64.4143
6.590000	 64.4449
6.608000	 64.4194
6.626000	 64.3596
6.644000	 64.3644
6.662000	 64.4125
6.680000	 64.4355
6.698000	 64.4236
6.716000	 64.3893
6.734000	 64.3425
6.752000	 64.3005
6.770000	 64.2822
6.788000	 64.265
6.806000	 64.2221
6.824000	 64.193
6.842000	 64.2185
6.860000	 64.2569
6.878000	 64.2459
6.896000	 64.1676
6.914000	 64.0913
6.932000	 64.1485
6.950000	 64.3027
6.968000	 64.3533
6.986000	 64.2832
7.004000	 64.2408
7.022000	 64.2389
7.040000	 64.2323
7.058000	 64.2382
7.076000	 64.2167
7.094000	 64.1424
7.112000	 64.0903
7.130000	 64.1018
7.148000	 64.1513
7.166000	 64.1923
7.184000	 64.1921
7.202000	 64.1853
7.220000	 64.1887
7.238000	 64.1442
7.256000	 64.0732
7.274000	 64.0794
7.292000	 64.1445
7.310000	 64.1733
7.328000	 64.1627
7.346000	 64.1411
7.364000	 64.1164
7.382000	 64.1158
7.400000	 64.1298
7.418000	 64.1187
7.436000	 64.0921
7.454000	 64.1065
7.472000	 64.1795
7.490000	 64.2362
7.508000	 64.216
7.526000	 64.1824
7.544000	 64.1931
7.562000	 64.1983
7.580000	 64.1717
7.598000	 64.152
7.616000	 64.1345
7.634000	 64.1055
7.652000	 64.1028
7.670000	 64.1264
7.688000	 64.1196
7.706000	 64.0753
7.724000	 64.0514
7.742000	 64.0801
7.760000	 64.1207
7.778000	 64.1095
7.796000	 64.0511
7.814000	 64.0158
7.832000	 64.0242
7.850000	 64.0203
7.868000	 63.9903
7.886000	 63.9874
7.904000	 64.0239
7.922000	 64.0516
7.940000	 64.0589
7.958000	 64.0827
7.976000	 64.1197
7.994000	 64.1188
8.012000	 64.0672
8.030000	 64.0087
8.048000	 63.9757
8.065999	 63.9559
8.084000	 63.9279
8.102000	 63.8982
8.120000	 63.8893
8.138000	 63.9082
8.155999	 63.9432
8.173999	 63.9817
8.192000	 64.0177
8.210000	 64.0386
8.228000	 64.0292
8.246000	 63.9913
8.263999	 63.9491
8.282000	 63.9297
8.300000	 63.9321
8.318000	 63.9296
8.336000	 63.9091
8.353999	 63.8832
8.372000	 63.8607
8.390000	 63.8374
8.408000	 63.8179
8.426000	 63.8211
8.443999	 63.8532
8.462000	 63.8941
8.480000	 63.9194
8.498000	 63.9196
8.516000	 63.8993
8.533999	 63.867
8.552000	 63.8319
8.570000	 63.8134
8.588000	 63.8331
8.606000	 63.8807
8.624000	 63.9135
8.641999	 63.9056
8.660000	 63.8697
8.678000	 63.8345
8.696000	 63.8229
8.714000	 63.8386
8.731999	 63.8587
8.750000	 63.8484
8.768000	 63.7973
8.786000	 63.7343
8.804000	 63.6953
8.821999	 63.6832
8.840000	 63.6769
8.858000	 63.6715
8.876000	 63.6893
8.894000	 63.7484
8.911999	 63.8342
8.930000	 63.9111
8.948000	 63.9562
8.966000	 63.9745
8.984000	 63.984
9.001999	 63.9963
9.020000	 64.0163
9.038000	 64.0446
9.056000	 64.0711
9.074000	 64.0766
9.092000	 64.0504
9.109999	 63.9967
9.128000	 63.927
9.146000	 63.8531
9.164000	 63.791
9.182000	 63.7606
9.199999	 63.7718
9.218000	 63.8125
9.236000	 63.853
9.254000	 63.8685
9.272000	 63.8575
9.289999	 63.8401
9.308000	 63.8412
9.326000	 63.8724
9.344000	 63.9254
9.362000	 63.9778
9.379999	 64.0064
9.398000	 64.0015
9.416000	 63.972
9.434000	 63.9394
9.452000	 63.9216
9.469999	 63.9213
9.488000	 63.9268
9.506000	 63.9245
9.524000	 63.9092
9.542000	 63.8859
9.560000	 63.8629
9.577999	 63.8466
9.596000	 63.8413
9.614000	 63.8523
9.632000	 63.8831
9.650000	 63.9299
9.667999	 63.9789
9.686000	 64.0122
9.704000	 64.0186
9.722000	 63.9991
9.740000	 63.965
9.757999	 63.9317
9.776000	 63.9124
9.794000	 63.9157
9.812000	 63.943
9.830000	 63.9888
9.847999	 64.0416
9.866000	 64.0863
9.884000	 64.1089
9.902000	 64.0993
9.920000	 64.055
9.937999	 63.9842
9.956000	 63.9055
9.974000	 63.8419
9.992000	 63.8115
10.01	63.8191
10.028	63.8542
10.046	63.8976
10.064	63.9314
10.082	63.9463
10.1	63.9446
10.118	63.938
10.136	63.9398
10.154	63.9571
10.172	63.9872
10.19	64.0175
10.208	64.0347
10.226	64.0341
10.244	64.0224
10.262	64.0134
10.28	64.0172
10.298	64.0336
10.316	64.0532
10.334	64.0657
10.352	64.0686
10.37	64.068
10.388	64.0721
10.406	64.0844
10.424	64.1016
10.442	64.1175
10.46	64.1273
10.478	64.1284
10.496	64.1201
10.514	64.1025
10.532	64.076
10.55	64.0419
10.568	64.0027
10.586	63.9623
10.604	63.9251
10.622	63.8974
10.64	63.8856
10.658	63.895
10.676	63.9265
10.694	63.9742
10.712	64.026
10.73	64.0691
10.748	64.0951
10.766	64.1031
10.784	64.0976
10.802	64.0858
10.82	64.0721
10.838	64.0586
10.856	64.0451
10.874	64.0317
10.892	64.0198
10.91	64.0105
10.928	64.0029
10.946	63.9937
10.964	63.9787
10.982	63.9567
11	63.931
11.018	63.9094
11.036	63.8999
11.054	63.9069
11.072	63.928
11.09	63.957
11.108	63.9878
11.126	64.0161
11.144	64.0409
11.162	64.0621
11.18	64.0778
11.198	64.084
11.216	64.0761
11.234	64.0525
11.252	64.017
11.27	63.9786
11.288	63.9493
11.306	63.9386
11.324	63.9496
11.342	63.9767
11.36	64.0078
11.378	64.0275
11.396	64.025
11.414	63.9975
11.432	63.9527
11.45	63.9057
11.468	63.8737
11.486	63.8672
11.504	63.8867
11.522	63.9218
11.54	63.9574
11.558	63.9787
11.576	63.9784
11.594	63.9588
11.612	63.9298
11.63	63.9043
11.648	63.8925
11.666	63.898
11.684	63.9181
11.702	63.9457
11.72	63.9735
11.738	63.9974
11.756	64.0175
11.774	64.037
11.792	64.0607
11.81	64.0918
11.828	64.1302
11.846	64.1723
11.864	64.2125
11.882	64.2444
11.9	64.2618
11.918	64.2604
11.936	64.2388
11.954	64.1985
11.972	64.1437
11.99	64.0808
12.008	64.0172
12.026	63.9603
12.044	63.9159
12.062	63.8871
12.08	63.8736
12.098	63.8722
12.116	63.878
12.134	63.8856
12.152	63.8904
12.17	63.8908
12.188	63.8876
12.206	63.8843
12.224	63.8856
12.242	63.896
12.26	63.9184
12.278	63.9524
12.296	63.9947
12.314	64.0395
12.332	64.0792
12.35	64.1069
12.368	64.1177
12.386	64.1103
12.404	64.0873
12.422	64.0549
12.44	64.0214
12.458	63.9943
12.476	63.9785
12.494	63.9752
12.512	63.9815
12.53	63.9917
12.548	63.9994
12.566	63.9999
12.584	63.9907
12.602	63.9724
12.62	63.9476
12.638	63.9198
12.656	63.892
12.674	63.866
12.692	63.8416
12.71	63.8181
12.728	63.7944
12.746	63.7704
12.764	63.7473
12.782	63.7281
12.8	63.7165
12.818	63.7151
12.836	63.7255
12.854	63.7468
12.872	63.7761
12.89	63.8092
12.908	63.8418
12.926	63.8704
12.944	63.8928
12.962	63.9081
12.98	63.9165
12.998	63.9184
13.016	63.9143
13.034	63.9046
13.052	63.8899
13.07	63.8712
13.088	63.8508
13.106	63.8312
13.124	63.8157
13.142	63.8066
13.16	63.805
13.178	63.8099
13.196	63.8184
13.214	63.827
13.232	63.8326
13.25	63.833
13.268	63.8285
13.286	63.8205
13.304	63.8114
13.322	63.8031
13.34	63.7969
13.358	63.7926
13.376	63.7885
13.394	63.782
13.412	63.771
13.43	63.754
13.448	63.7314
13.466	63.7047
13.484	63.6765
13.502	63.6499
13.52	63.6281
13.538	63.6131
13.556	63.6058
13.574	63.6064
13.592	63.6142
13.61	63.6273
13.628	63.6433
13.646	63.659
13.664	63.6717
13.682	63.6785
13.7	63.6785
13.718	63.6723
13.736	63.6633
13.754	63.6572
13.772	63.6609
13.79	63.681
13.808	63.7218
13.826	63.7842
13.844	63.8648
13.862	63.9559
13.88	64.0467
13.898	64.1254
13.916	64.181
13.934	64.2059
13.952	64.1973
13.97	64.1573
13.988	64.0925
14.006	64.0121
14.024	63.9262
14.042	63.8433
14.06	63.7691
14.078	63.7057
14.096	63.6523
14.114	63.6057
14.132	63.5628
14.15	63.5208
14.168	63.4791
14.186	63.4398
14.204	63.4061
14.222	63.3834
14.24	63.3764
14.258	63.389
14.276	63.4228
14.294	63.4766
14.312	63.5473
14.33	63.629
14.348	63.7149
14.366	63.7975
14.384	63.8695
14.402	63.9255
14.42	63.9618
14.438	63.9766
14.456	63.9703
14.474	63.9452
14.492	63.9057
14.51	63.858
14.528	63.8085
14.546	63.7638
14.564	63.729
14.582	63.7077
14.6	63.7017
14.618	63.7101
14.636	63.7288
14.654	63.7513
14.672	63.77
14.69	63.7779
14.708	63.7688
14.726	63.7386
14.744	63.6869
14.762	63.6173
14.78	63.5365
14.798	63.4533
14.816	63.3777
14.834	63.3196
14.852	63.2874
14.87	63.2846
14.888	63.3111
14.906	63.3632
14.924	63.4336
14.942	63.5109
14.96	63.5835
14.978	63.6412
14.996	63.6762
15.014	63.6829
15.032	63.6598
15.05	63.611
15.068	63.5432
15.086	63.4652
15.104	63.3873
15.122	63.3211
15.14	63.2753
15.158	63.2559
15.176	63.2665
15.194	63.3079
15.212	63.3765
15.23	63.4659
15.248	63.5679
15.266	63.6731
15.284	63.7707
15.302	63.8521
15.32	63.911
15.338	63.9429
15.356	63.9457
15.374	63.9212
15.392	63.8735
15.41	63.8077
15.428	63.7301
15.446	63.6481
15.464	63.5669
15.482	63.4907
15.5	63.4224
15.518	63.3631
15.536	63.3122
15.554	63.2685
15.572	63.2305
15.59	63.1961
15.608	63.1645
15.626	63.1351
15.644	63.108
15.662	63.0845
15.68	63.0654
15.698	63.0521
15.716	63.0459
15.734	63.0471
15.752	63.0556
15.77	63.0708
15.788	63.0919
15.806	63.1186
15.824	63.151
15.842	63.1894
15.86	63.2358
15.878	63.292
15.896	63.36
15.914	63.4424
15.932	63.5402
15.95	63.6536
15.968	63.7816
15.986	63.9203
16.004	64.0651
16.022	64.2107
16.04	64.3483
16.058	64.471
16.076	64.5727
16.094	64.6468
16.112	64.69
16.13	64.7015
16.148	64.6816
16.166	64.6349
16.184	64.5659
16.202	64.4808
16.22	64.3885
16.238	64.2951
16.256	64.207
16.274	64.1305
16.292	64.0677
16.31	64.0206
16.328	63.9888
16.346	63.9701
16.364	63.9629
16.382	63.9627
16.4	63.9664
16.418	63.9716
16.436	63.9749
16.454	63.9755
16.472	63.9728
16.49	63.9671
16.508	63.9597
16.526	63.9516
16.544	63.9449
16.562	63.9409
16.58	63.9405
16.598	63.9444
16.616	63.9521
16.634	63.9633
16.652	63.9763
16.67	63.9898
16.688	64.0021
16.706	64.0111
16.724	64.0157
16.742	64.0145
16.76	64.0066
16.778	63.9916
16.796	63.9692
16.814	63.94
16.832	63.9044
16.85	63.8638
16.868	63.8192
16.886	63.7714
16.904	63.7225
16.922	63.6733
16.94	63.6255
16.958	63.581
16.976	63.5408
16.994	63.5068
17.012	63.4803
17.03	63.4622
17.048	63.4539
17.066	63.4556
17.084	63.4678
17.102	63.4901
17.12	63.5222
17.138	63.5628
17.156	63.6099
17.174	63.6622
17.192	63.7164
17.21	63.7714
17.228	63.8242
17.246	63.8734
17.264	63.918
17.282	63.9572
17.3	63.991
17.318	64.0199
17.336	64.045
17.354	64.0669
17.372	64.0876
17.39	64.1075
17.408	64.1278
17.426	64.1486
17.444	64.1702
17.462	64.1912
17.48	64.2111
17.498	64.2281
17.516	64.2409
17.534	64.248
17.552	64.2481
17.57	64.2406
17.588	64.2251
17.606	64.2022
17.624	64.1728
17.642	64.1394
17.66	64.1029
17.678	64.0673
17.696	64.0335
17.714	64.0053
17.732	63.9839
17.75	63.9711
17.768	63.968
17.786	63.9751
17.804	63.9918
17.822	64.0177
17.84	64.0511
17.858	64.0911
17.876	64.136
17.894	64.1842
17.912	64.2346
17.93	64.2857
17.948	64.3372
17.966	64.3874
17.984	64.436
18.002	64.4817
18.02	64.5235
18.038	64.5607
18.056	64.5913
18.074	64.6151
18.092	64.6301
18.11	64.6361
18.128	64.6319
18.146	64.6177
18.164	64.5932
18.182	64.5594
18.2	64.5167
18.218	64.4671
18.236	64.4115
18.254	64.3528
18.272	64.2916
18.29	64.2309
18.308	64.1712
18.326	64.1148
18.344	64.0618
18.362	64.0137
18.38	63.9703
18.398	63.9318
18.416	63.8978
18.434	63.868
18.452	63.8413
18.47	63.8173
18.488	63.7944
18.506	63.7722
18.524	63.7493
18.542	63.7253
18.56	63.6989
18.578	63.67
18.596	63.6383
18.614	63.6039
18.632	63.5671
18.65	63.5281
18.668	63.4886
18.686	63.4488
18.704	63.4106
18.722	63.3745
18.74	63.3427
18.758	63.3158
18.776	63.2957
18.794	63.2827
18.812	63.2784
18.83	63.2827
18.848	63.2963
18.866	63.3189
18.884	63.3505
18.902	63.3901
18.92	63.4371
18.938	63.4902
18.956	63.5478
18.974	63.6084
18.992	63.67
19.01	63.7311
19.028	63.7893
19.046	63.8434
19.064	63.8912
19.082	63.9318
19.1	63.9633
19.118	63.9856
19.136	63.9973
19.154	63.999
19.172	63.9904
19.19	63.9722
19.208	63.9456
19.226	63.9114
19.244	63.872
19.262	63.828
19.28	63.7829
19.298	63.7368
19.316	63.6935
19.334	63.6527
19.352	63.6177
19.37	63.5883
19.388	63.5666
19.406	63.5528
19.424	63.5474
19.442	63.5506
19.46	63.5616
19.478	63.5806
19.496	63.6057
19.514	63.6367
19.532	63.6721
19.55	63.711
19.568	63.7522
19.586	63.7943
19.604	63.8368
19.622	63.8779
19.64	63.9177
19.658	63.9545
19.676	63.9885
19.694	64.0185
19.712	64.0447
19.73	64.0666
19.748	64.0841
19.766	64.0974
19.784	64.1064
19.802	64.1113
19.82	64.1122
19.838	64.1092
19.856	64.1025
19.874	64.0921
19.892	64.0781
19.91	64.0607
19.928	64.04
19.946	64.0161
19.964	63.9892
19.982	63.9593
20	63.9269
20.018	63.8921
20.036	63.8554
20.054	63.8175
20.072	63.7786
20.09	63.7401
20.108	63.702
20.126	63.666
20.144	63.632
20.162	63.6015
20.18	63.5751
20.198	63.5533
20.216	63.5371
20.234	63.5266
20.252	63.5227
20.27	63.5254
20.288	63.5344
20.306	63.55
20.324	63.5715
20.342	63.5987
20.36	63.6313
20.378	63.6686
20.396	63.7105
20.414	63.7562
20.432	63.8058
20.45	63.8587
20.468	63.9148
20.486	63.9738
20.504	64.0354
20.522	64.0997
20.54	64.1664
20.558	64.2356
20.576	64.3065
20.594	64.379
20.612	64.4528
20.63	64.5269
20.648	64.6017
20.666	64.6747
20.684	64.7465
20.702	64.8146
20.72	64.878
20.738	64.9361
20.756	64.9855
20.774	65.027
20.792	65.0575
20.81	65.0766
20.828	65.0836
20.846	65.0764
20.864	65.0558
20.882	65.021
20.9	64.9717
20.918	64.9092
20.936	64.8337
20.954	64.7459
20.972	64.6491
20.99	64.5424
21.008	64.43
21.026	64.313
21.044	64.1925
21.062	64.0737
21.08	63.9551
21.098	63.8413
21.116	63.7332
21.134	63.6316
21.152	63.5395
21.17	63.456
21.188	63.3829
21.206	63.3206
21.224	63.2687
21.242	63.2271
21.26	63.196
21.278	63.1733
21.296	63.1591
21.314	63.1521
21.332	63.1495
21.35	63.1523
21.368	63.1569
21.386	63.1625
21.404	63.1685
21.422	63.1716
21.44	63.173
21.458	63.1701
21.476	63.1617
21.494	63.1484
21.512	63.1289
21.53	63.1033
21.548	63.0719
21.566	63.0343
21.584	62.9909
21.602	62.9438
21.62	62.8923
21.638	62.8382
21.656	62.7835
21.674	62.7273
21.692	62.6731
21.71	62.6217
21.728	62.5733
21.746	62.5314
21.764	62.495
21.782	62.4659
21.8	62.4462
21.818	62.435
21.836	62.4335
21.854	62.4422
21.872	62.4606
21.89	62.489
21.908	62.5275
21.926	62.5749
21.944	62.6308
21.962	62.6954
21.98	62.7664
21.998	62.8441
22.016	62.9275
22.034	63.014
22.052	63.1047
22.07	63.1974
22.088	63.2903
22.106	63.3842
22.124	63.4767
22.142	63.5673
22.16	63.6559
22.178	63.7401
22.196	63.8205
22.214	63.8962
22.232	63.9657
22.25	64.0297
22.268	64.0867
22.286	64.1359
22.304	64.1778
22.322	64.2105
22.34	64.2341
22.358	64.2484
22.376	64.252
22.394	64.245
22.412	64.2273
22.43	64.198
22.448	64.1574
22.466	64.1053
22.484	64.0414
22.502	63.9657
22.52	63.8791
22.538	63.7812
22.556	63.6724
22.574	63.5552
22.592	63.4291
22.61	63.2951
22.628	63.1575
22.646	63.0148
22.664	62.8695
22.682	62.7265
22.7	62.5833
22.718	62.4437
22.736	62.3123
22.754	62.1864
22.772	62.0703
22.79	61.9678
22.808	61.8767
22.826	61.8005
22.844	61.7416
22.862	61.6985
22.88	61.6728
22.898	61.6657
22.916	61.6764
22.934	61.7037
22.952	61.7483
22.97	61.8094
22.988	61.8833
23.006	61.9701
23.024	62.0693
23.042	62.175
23.06	62.2876
23.078	62.4064
23.096	62.5248
23.114	62.6433
23.132	62.7613
23.15	62.8728
23.168	62.9785
23.186	63.0777
23.204	63.1658
23.222	63.2429
23.24	63.3092
23.258	63.3626
23.276	63.4027
23.294	63.4304
23.312	63.4458
23.33	63.4482
23.348	63.4388
23.366	63.4203
23.384	63.3918
23.402	63.3543
23.42	63.312
23.438	63.2642
23.456	63.2114
23.474	63.1582
23.492	63.1047
23.51	63.0506
23.528	62.9997
23.546	62.953
23.564	62.9094
23.582	62.8715
23.6	62.8404
23.618	62.8151
23.636	62.7963
23.654	62.7845
23.672	62.7794
23.69	62.7807
23.708	62.7882
23.726	62.8022
23.744	62.822
23.762	62.8471
23.78	62.8779
23.798	62.9139
23.816	62.9543
23.834	62.9994
23.852	63.0489
23.87	63.1026
23.888	63.16
23.906	63.2217
23.924	63.288
23.942	63.3585
23.96	63.4336
23.978	63.5144
23.996	63.6013
24.014	63.6937
24.032	63.7927
24.05	63.8991
24.068	64.0123
24.086	64.1327
24.104	64.2603
24.122	64.3952
24.14	64.5373
24.158	64.687
24.176	64.8447
24.194	65.0096
24.212	65.1809
24.23	65.359
24.248	65.5438
24.266	65.7322
24.284	65.9231
24.302	66.1187
24.32	66.3142
24.338	66.5054
24.356	66.6957
24.374	66.8818
24.392	67.0579
24.41	67.2261
24.428	67.3856
24.446	67.5304
24.464	67.6585
24.482	67.7728
24.5	67.8684
24.518	67.9412
24.536	67.9941
24.554	68.0252
24.572	68.0313
24.59	68.0127
24.608	67.97
24.626	67.9028
24.644	67.81
24.662	67.6919
24.68	67.5511
24.698	67.3899
24.716	67.2049
24.734	67.0004
24.752	66.783
24.77	66.5513
24.788	66.3047
24.806	66.0517
24.824	65.7974
24.842	65.5358
24.86	65.2743
24.878	65.022
24.896	64.7759
24.914	64.5365
24.932	64.3113
24.95	64.1043
24.968	63.9109
24.986	63.7356
25.004	63.5838
25.022	63.4546
25.04	63.3467
25.058	63.2604
25.076	63.1971
25.094	63.157
25.112	63.1354
25.13	63.1278
25.148	63.1385
25.166	63.1641
25.184	63.1964
25.202	63.2327
25.22	63.2779
25.238	63.3245
25.256	63.3645
25.274	63.4021
25.292	63.4359
25.31	63.4584
25.328	63.4654
25.346	63.4617
25.364	63.4435
25.382	63.4061
25.4	63.3491
25.418	63.2743
25.436	63.1814
25.454	63.0696
25.472	62.9379
25.49	62.789
25.508	62.6262
25.526	62.4486
25.544	62.2551
25.562	62.0514
25.58	61.8429
25.598	61.6257
25.616	61.4018
25.634	61.1769
25.652	60.9554
25.67	60.7342
25.688	60.5132
25.706	60.2932
25.724	60.0761
25.742	59.8612
25.76	59.6433
25.778	59.4179
25.796	59.1901
25.814	58.9565
25.832	58.7095
25.85	58.4448
25.868	58.1688
25.886	57.8756
25.904	57.5574
25.922	57.2131
25.94	56.8471
25.958	56.4531
25.976	56.0249
25.994	55.5628
26.012	55.0692
26.03	54.5431
26.048	53.9834
26.066	53.3872
26.084	52.7592
26.102	52.1057
26.12	51.4291
26.138	50.7211
26.156	49.9934
26.174	49.2597
26.192	48.5224
26.21	47.771
26.228	47.0221
26.246	46.2931
26.264	45.5802
26.282	44.877
26.3	44.2025
26.318	43.5753
26.336	42.986
26.354	42.4338
26.372	41.9346
26.39	41.5033
26.408	41.1304
26.426	40.8169
26.444	40.5725
26.462	40.4057
26.48	40.3126
26.498	40.2908
26.516	40.3399
26.534	40.4605
26.552	40.6565
26.57	40.921
26.588	41.2455
26.606	41.6268
26.624	42.0767
26.642	42.5802
26.66	43.1194
26.678	43.6855
26.696	44.2946
26.714	44.9327
26.732	45.5824
26.75	46.2365
26.768	46.91
26.786	47.5896
26.804	48.2597
26.822	48.9115
26.84	49.5554
26.858	50.1888
26.876	50.808
26.894	51.4087
26.912	51.991
26.93	52.5617
26.948	53.1282
26.966	53.7197
26.984	54.3681
27.002	54.9811
27.02	55.4593
27.028	55.588