File: Bakgrunnsmateriale/MATLAB/FTIR/ftir_data/subAa/Mapping_121/BZ1503107-1_t74.asc
PE IR       SPECTRUM    SPECTRUM    ASCII       PEDS        1.60
  -1
BZ295F~1.ASC
17/04/07
19:20:23.00
17/04/07
19:20:49.00
tln
$BZ1503107-1_t0074$<tbV0>[-5.2,2.6,8.0,0.0,27,1,0]
27.028
64

2002,4.07
MIRTGS : RIGHTBACK : INTERNAL 2
MIR : ON : INTERNAL 2
OPTKBR

0.200000
8
8.000000
FILLER
RATIO
SPECTRUM
UNLOCKED 256

DOUBLE
64
COMBINED
1
0
0

0.002000
RATIO

1
0
TRUE
51149
0
LEFT NOT FITTED RIGHT NOT FITTED 0
NONE
NONE
15600
12
4.427000
51148
TRUE
1 0 8 72 0 0 0 0

15798

#HDR
-1
-1
#GR
µM
%T
2.38419e-05
0.0
2.000000
0.002000
12515
8
136.645
54.6658
#DATA
2.000000	 65.3928
2.018000	 64.9503
2.036000	 65.0914
2.054000	 64.7061
2.072000	 64.4135
2.090000	 64.5611
2.108000	 64.9681
2.126000	 64.2112
2.144000	 64.7567
2.162000	 64.8984
2.180000	 65.1755
2.198000	 64.6965
2.216000	 65.5145
2.234000	 65.1521
2.252000	 64.5812
2.270000	 61.8884
2.288000	 65.2887
2.306000	 64.6992
2.324000	 65.3833
2.342000	 65.0089
2.360000	 65.3695
2.378000	 64.8367
2.396000	 64.7489
2.414000	 64.7749
2.432000	 64.711
2.450000	 64.8408
2.468000	 64.8989
2.486000	 64.9883
2.504000	 64.7756
2.522000	 65.0044
2.540000	 65.0335
2.558000	 65.276
2.576000	 64.8355
2.594000	 65.2395
2.612000	 65.1455
2.630000	 65.0249
2.648000	 65.0166
2.666000	 64.9523
2.684000	 64.7556
2.702000	 64.9437
2.720000	 65.0054
2.738000	 65.115
2.756000	 65.0457
2.774000	 64.8505
2.792000	 64.8676
2.810000	 64.8546
2.828000	 65.0474
2.846000	 65.1979
2.864000	 64.9472
2.882000	 65.1145
2.900000	 64.9574
2.918000	 64.9209
2.936000	 64.7992
2.954000	 64.9021
2.972000	 64.9286
2.990000	 64.9225
3.008000	 65.1522
3.026000	 65.159
3.044000	 64.752
3.062000	 64.7418
3.080000	 65.6779
3.098000	 65.5055
3.116000	 64.5559
3.134000	 65.0329
3.152000	 64.7463
3.170000	 64.965
3.188000	 64.8483
3.206000	 64.9721
3.224000	 65.0844
3.242000	 64.8931
3.260000	 64.8853
3.278000	 65.0766
3.296000	 64.9012
3.314000	 64.7802
3.332000	 64.7751
3.350000	 65.0261
3.368000	 64.9928
3.386000	 64.4341
3.404000	 64.7283
3.422000	 64.8119
3.440000	 64.6179
3.458000	 64.8152
3.476000	 64.8374
3.494000	 64.7953
3.512000	 64.9652
3.530000	 64.7372
3.548000	 64.7041
3.566000	 64.7991
3.584000	 64.803
3.602000	 64.923
3.620000	 64.8818
3.638000	 64.9153
3.656000	 64.8327
3.674000	 64.7497
3.692000	 64.8918
3.710000	 64.7238
3.728000	 64.9188
3.746000	 64.8024
3.764000	 64.9109
3.782000	 64.5903
3.800000	 64.652
3.818000	 64.8118
3.836000	 64.7351
3.854000	 64.5601
3.872000	 64.5963
3.890000	 64.5211
3.908000	 64.7142
3.926000	 64.7162
3.944000	 64.5746
3.962000	 64.654
3.980000	 64.7999
3.998000	 64.7667
4.016000	 64.5894
4.034000	 64.7262
4.052000	 64.6401
4.070000	 64.5732
4.088000	 64.5996
4.106000	 64.546
4.124000	 64.5805
4.141999	 64.8323
4.160000	 64.839
4.178000	 64.6128
4.196000	 64.5841
4.214000	 64.5212
4.232000	 64.4998
4.250000	 64.4913
4.268000	 64.5471
4.286000	 64.6546
4.304000	 64.3076
4.322000	 64.6064
4.340000	 64.5674
4.358000	 64.4729
4.375999	 64.4691
4.394000	 64.4606
4.412000	 64.5321
4.430000	 64.6571
4.448000	 64.6254
4.466000	 64.5216
4.484000	 64.6927
4.502000	 64.5726
4.520000	 64.4201
4.538000	 64.4314
4.556000	 64.5849
4.574000	 64.5479
4.592000	 64.7789
4.609999	 65.4687
4.628000	 66.0716
4.646000	 65.1993
4.664000	 64.6569
4.682000	 64.6922
4.700000	 64.4857
4.718000	 64.2762
4.736000	 64.4903
4.754000	 64.4357
4.772000	 64.4604
4.790000	 64.3477
4.808000	 64.3263
4.826000	 64.3022
4.843999	 64.4036
4.862000	 64.4698
4.880000	 64.3806
4.898000	 64.4024
4.916000	 64.6517
4.934000	 64.3774
4.952000	 64.4027
4.970000	 64.4758
4.988000	 64.4315
5.006000	 64.2855
5.024000	 64.3499
5.042000	 64.4106
5.060000	 64.3835
5.077999	 64.3523
5.096000	 64.3454
5.114000	 64.4636
5.132000	 64.4393
5.150000	 64.4058
5.168000	 64.4277
5.186000	 64.3765
5.204000	 64.2746
5.222000	 64.2806
5.240000	 64.3879
5.258000	 64.3754
5.276000	 64.2448
5.294000	 64.277
5.312000	 64.2799
5.330000	 64.3166
5.348000	 64.3411
5.366000	 64.379
5.384000	 64.3296
5.402000	 64.3928
5.420000	 64.2523
5.438000	 64.057
5.456000	 64.1095
5.474000	 64.236
5.492000	 64.1011
5.510000	 64.224
5.528000	 64.2234
5.546000	 64.1742
5.564000	 64.2148
5.582000	 64.2385
5.600000	 64.1678
5.618000	 64.167
5.636000	 64.1493
5.654000	 64.2154
5.672000	 64.2253
5.690000	 64.1269
5.708000	 63.9103
5.726000	 63.8249
5.744000	 63.8118
5.762000	 63.8244
5.780000	 63.852
5.798000	 63.8967
5.816000	 63.941
5.834000	 63.9501
5.852000	 63.8872
5.870000	 63.9306
5.888000	 64.0179
5.906000	 63.9814
5.923999	 63.9786
5.942000	 64.0332
5.960000	 64.0474
5.978000	 63.967
5.996000	 63.87
6.014000	 63.8404
6.032000	 63.9576
6.050000	 64.0108
6.068000	 63.9564
6.086000	 63.8648
6.104000	 63.8102
6.122000	 63.8625
6.140000	 64.013
6.158000	 64.1352
6.176000	 64.23
6.194000	 64.2391
6.212000	 64.2177
6.230000	 64.1477
6.248000	 64.0529
6.266000	 64.0281
6.284000	 63.9493
6.302000	 64.0242
6.320000	 64.106
6.338000	 64.0005
6.356000	 63.9529
6.374000	 63.919
6.392000	 63.8056
6.410000	 63.7767
6.428000	 63.9196
6.446000	 64.0353
6.464000	 64.033
6.482000	 63.9888
6.500000	 64.0111
6.518000	 64.0083
6.536000	 63.9406
6.554000	 63.9013
6.572000	 63.8783
6.590000	 63.8426
6.608000	 63.8464
6.626000	 63.9268
6.644000	 63.9975
6.662000	 63.9417
6.680000	 63.7204
6.698000	 63.5552
6.716000	 63.7126
6.734000	 63.9046
6.752000	 63.8721
6.770000	 63.7348
6.788000	 63.6341
6.806000	 63.6209
6.824000	 63.6563
6.842000	 63.7096
6.860000	 63.785
6.878000	 63.7827
6.896000	 63.6555
6.914000	 63.5729
6.932000	 63.6494
6.950000	 63.8036
6.968000	 63.8987
6.986000	 63.9213
7.004000	 63.9395
7.022000	 63.9049
7.040000	 63.7895
7.058000	 63.6782
7.076000	 63.5921
7.094000	 63.5665
7.112000	 63.6551
7.130000	 63.7302
7.148000	 63.7001
7.166000	 63.6591
7.184000	 63.6483
7.202000	 63.6809
7.220000	 63.7669
7.238000	 63.772
7.256000	 63.6591
7.274000	 63.6217
7.292000	 63.718
7.310000	 63.7822
7.328000	 63.7401
7.346000	 63.6595
7.364000	 63.5901
7.382000	 63.5625
7.400000	 63.5841
7.418000	 63.5859
7.436000	 63.5514
7.454000	 63.5692
7.472000	 63.6738
7.490000	 63.7893
7.508000	 63.8483
7.526000	 63.8702
7.544000	 63.9062
7.562000	 63.9162
7.580000	 63.8238
7.598000	 63.6765
7.616000	 63.5734
7.634000	 63.5169
7.652000	 63.4799
7.670000	 63.4813
7.688000	 63.5051
7.706000	 63.4847
7.724000	 63.4139
7.742000	 63.3778
7.760000	 63.424
7.778000	 63.4979
7.796000	 63.5416
7.814000	 63.5564
7.832000	 63.5673
7.850000	 63.5882
7.868000	 63.6149
7.886000	 63.6303
7.904000	 63.6389
7.922000	 63.6586
7.940000	 63.6845
7.958000	 63.7128
7.976000	 63.744
7.994000	 63.7598
8.012000	 63.7421
8.030000	 63.7043
8.048000	 63.6802
8.065999	 63.6826
8.084000	 63.6835
8.102000	 63.6523
8.120000	 63.6266
8.138000	 63.6779
8.155999	 63.7812
8.173999	 63.8102
8.192000	 63.7076
8.210000	 63.5647
8.228000	 63.5027
8.246000	 63.5349
8.263999	 63.5932
8.282000	 63.6235
8.300000	 63.6195
8.318000	 63.5978
8.336000	 63.5816
8.353999	 63.5828
8.372000	 63.5839
8.390000	 63.5595
8.408000	 63.5173
8.426000	 63.4931
8.443999	 63.4907
8.462000	 63.4644
8.480000	 63.389
8.498000	 63.3213
8.516000	 63.3369
8.533999	 63.4139
8.552000	 63.4397
8.570000	 63.3603
8.588000	 63.2667
8.606000	 63.2756
8.624000	 63.3791
8.641999	 63.4704
8.660000	 63.4739
8.678000	 63.4051
8.696000	 63.3227
8.714000	 63.2606
8.731999	 63.2243
8.750000	 63.2276
8.768000	 63.2955
8.786000	 63.4254
8.804000	 63.5706
8.821999	 63.6731
8.840000	 63.6966
8.858000	 63.6467
8.876000	 63.5672
8.894000	 63.5192
8.911999	 63.5425
8.930000	 63.6301
8.948000	 63.7298
8.966000	 63.7734
8.984000	 63.7453
9.001999	 63.694
9.020000	 63.6933
9.038000	 63.7651
9.056000	 63.8583
9.074000	 63.9161
9.092000	 63.931
9.109999	 63.9241
9.128000	 63.9083
9.146000	 63.8898
9.164000	 63.8426
9.182000	 63.6071
9.199999	 62.9169
9.218000	 61.6551
9.236000	 60.1479
9.254000	 59.0947
9.272000	 59.0564
9.289999	 59.9798
9.308000	 61.2691
9.326000	 62.3086
9.344000	 62.8912
9.362000	 63.1788
9.379999	 63.3795
9.398000	 63.5386
9.416000	 63.5919
9.434000	 63.5192
9.452000	 63.3759
9.469999	 63.2361
9.488000	 63.1483
9.506000	 63.1281
9.524000	 63.164
9.542000	 63.2244
9.560000	 63.271
9.577999	 63.289
9.596000	 63.287
9.614000	 63.2924
9.632000	 63.3197
9.650000	 63.3557
9.667999	 63.3748
9.686000	 63.3611
9.704000	 63.3184
9.722000	 63.2681
9.740000	 63.2359
9.757999	 63.2426
9.776000	 63.3001
9.794000	 63.4096
9.812000	 63.5593
9.830000	 63.7218
9.847999	 63.8583
9.866000	 63.9333
9.884000	 63.9315
9.902000	 63.8661
9.920000	 63.772
9.937999	 63.6873
9.956000	 63.6304
9.974000	 63.5911
9.992000	 63.5397
10.01	63.4486
10.028	63.3188
10.046	63.1865
10.064	63.1049
10.082	63.1121
10.1	63.209
10.118	63.3555
10.136	63.4949
10.154	63.5842
10.172	63.6097
10.19	63.5851
10.208	63.5346
10.226	63.4744
10.244	63.4097
10.262	63.337
10.28	63.2576
10.298	63.1813
10.316	63.1239
10.334	63.0951
10.352	63.0913
10.37	63.0981
10.388	63.1029
10.406	63.1072
10.424	63.1277
10.442	63.1835
10.46	63.2785
10.478	63.3933
10.496	63.4929
10.514	63.5487
10.532	63.5525
10.55	63.5187
10.568	63.4723
10.586	63.434
10.604	63.4095
10.622	63.3953
10.64	63.3846
10.658	63.3753
10.676	63.3709
10.694	63.3758
10.712	63.3921
10.73	63.4168
10.748	63.4416
10.766	63.4537
10.784	63.4387
10.802	63.3847
10.82	63.2907
10.838	63.172
10.856	63.0578
10.874	62.9836
10.892	62.972
10.91	63.0239
10.928	63.1156
10.946	63.209
10.964	63.2728
10.982	63.2937
11	63.2808
11.018	63.2558
11.036	63.2354
11.054	63.2217
11.072	63.2038
11.09	63.1684
11.108	63.1143
11.126	63.0565
11.144	63.018
11.162	63.0182
11.18	63.0599
11.198	63.1266
11.216	63.1912
11.234	63.2291
11.252	63.2289
11.27	63.1972
11.288	63.1546
11.306	63.1234
11.324	63.1219
11.342	63.1569
11.36	63.2235
11.378	63.3089
11.396	63.3989
11.414	63.4808
11.432	63.5471
11.45	63.5956
11.468	63.6262
11.486	63.6379
11.504	63.628
11.522	63.5918
11.54	63.5279
11.558	63.4411
11.576	63.3456
11.594	63.2614
11.612	63.2102
11.63	63.2048
11.648	63.2436
11.666	63.3095
11.684	63.3756
11.702	63.4172
11.72	63.4192
11.738	63.3828
11.756	63.3225
11.774	63.2598
11.792	63.2131
11.81	63.1901
11.828	63.1862
11.846	63.1893
11.864	63.1852
11.882	63.1654
11.9	63.1294
11.918	63.0842
11.936	63.0418
11.954	63.0143
11.972	63.0119
11.99	63.0394
12.008	63.0967
12.026	63.1778
12.044	63.273
12.062	63.3684
12.08	63.4493
12.098	63.5037
12.116	63.5246
12.134	63.5132
12.152	63.4776
12.17	63.4294
12.188	63.3801
12.206	63.3375
12.224	63.304
12.242	63.277
12.26	63.2532
12.278	63.2295
12.296	63.2029
12.314	63.1717
12.332	63.1347
12.35	63.0915
12.368	63.043
12.386	62.9926
12.404	62.9459
12.422	62.9104
12.44	62.8937
12.458	62.9015
12.476	62.9353
12.494	62.9906
12.512	63.0569
12.53	63.1209
12.548	63.1694
12.566	63.1932
12.584	63.1905
12.602	63.1675
12.62	63.1364
12.638	63.1113
12.656	63.1041
12.674	63.1203
12.692	63.1586
12.71	63.2113
12.728	63.2681
12.746	63.3197
12.764	63.3612
12.782	63.3921
12.8	63.4167
12.818	63.4406
12.836	63.4672
12.854	63.4957
12.872	63.5211
12.89	63.5354
12.908	63.5306
12.926	63.5015
12.944	63.4482
12.962	63.3755
12.98	63.2918
12.998	63.2068
13.016	63.1289
13.034	63.0639
13.052	63.0138
13.07	62.9777
13.088	62.9527
13.106	62.936
13.124	62.9253
13.142	62.9204
13.16	62.9227
13.178	62.9355
13.196	62.9613
13.214	63.0023
13.232	63.0589
13.25	63.1287
13.268	63.2063
13.286	63.2837
13.304	63.3517
13.322	63.4011
13.34	63.4246
13.358	63.419
13.376	63.3861
13.394	63.3324
13.412	63.2688
13.43	63.2078
13.448	63.161
13.466	63.1372
13.484	63.14
13.502	63.1682
13.52	63.2162
13.538	63.2762
13.556	63.3395
13.574	63.3984
13.592	63.4472
13.61	63.483
13.628	63.5048
13.646	63.513
13.664	63.508
13.682	63.4892
13.7	63.4556
13.718	63.4069
13.736	63.3439
13.754	63.2688
13.772	63.1865
13.79	63.1045
13.808	63.0317
13.826	62.9763
13.844	62.9439
13.862	62.9367
13.88	62.9523
13.898	62.984
13.916	63.0221
13.934	63.0559
13.952	63.0765
13.97	63.0785
13.988	63.062
14.006	63.0318
14.024	62.9963
14.042	62.9673
14.06	62.9555
14.078	62.9679
14.096	63.0053
14.114	63.0629
14.132	63.1301
14.15	63.1922
14.168	63.2338
14.186	63.2396
14.204	63.1988
14.222	63.1062
14.24	62.9637
14.258	62.7794
14.276	62.5653
14.294	62.3359
14.312	62.1065
14.33	61.8914
14.348	61.7019
14.366	61.5459
14.384	61.4272
14.402	61.3456
14.42	61.2992
14.438	61.2852
14.456	61.3005
14.474	61.3433
14.492	61.4124
14.51	61.5087
14.528	61.6333
14.546	61.7873
14.564	61.9704
14.582	62.1805
14.6	62.4127
14.618	62.6592
14.636	62.9088
14.654	63.1486
14.672	63.3663
14.69	63.5503
14.708	63.6904
14.726	63.7799
14.744	63.814
14.762	63.7944
14.78	63.7246
14.798	63.61
14.816	63.4576
14.834	63.2742
14.852	63.0681
14.87	62.8465
14.888	62.6167
14.906	62.3866
14.924	62.1645
14.942	61.9608
14.96	61.7859
14.978	61.6497
14.996	61.5608
15.014	61.5266
15.032	61.5512
15.05	61.6336
15.068	61.7682
15.086	61.9459
15.104	62.1538
15.122	62.374
15.14	62.5893
15.158	62.7848
15.176	62.9476
15.194	63.0671
15.212	63.1383
15.23	63.1624
15.248	63.1438
15.266	63.0903
15.284	63.0141
15.302	62.9275
15.32	62.8416
15.338	62.767
15.356	62.7122
15.374	62.6835
15.392	62.6816
15.41	62.7052
15.428	62.7507
15.446	62.8092
15.464	62.8723
15.482	62.9316
15.5	62.9779
15.518	63.0021
15.536	63.0001
15.554	62.9695
15.572	62.9101
15.59	62.8264
15.608	62.7238
15.626	62.6084
15.644	62.4885
15.662	62.3733
15.68	62.2691
15.698	62.1809
15.716	62.1127
15.734	62.0654
15.752	62.0381
15.77	62.0293
15.788	62.0342
15.806	62.0486
15.824	62.0686
15.842	62.0892
15.86	62.1068
15.878	62.1201
15.896	62.1281
15.914	62.1324
15.932	62.1351
15.95	62.1382
15.968	62.1446
15.986	62.1579
16.004	62.1798
16.022	62.2121
16.04	62.2555
16.058	62.3088
16.076	62.3706
16.094	62.438
16.112	62.5074
16.13	62.576
16.148	62.6403
16.166	62.6969
16.184	62.7445
16.202	62.7815
16.22	62.8083
16.238	62.8257
16.256	62.8351
16.274	62.8397
16.292	62.8422
16.31	62.8449
16.328	62.8521
16.346	62.866
16.364	62.8885
16.382	62.9222
16.4	62.9678
16.418	63.026
16.436	63.0967
16.454	63.1787
16.472	63.271
16.49	63.3702
16.508	63.4719
16.526	63.5729
16.544	63.6668
16.562	63.7486
16.58	63.8146
16.598	63.8588
16.616	63.879
16.634	63.8731
16.652	63.8406
16.67	63.7833
16.688	63.7025
16.706	63.6037
16.724	63.4902
16.742	63.3664
16.76	63.2385
16.778	63.1094
16.796	62.9835
16.814	62.8636
16.832	62.751
16.85	62.6473
16.868	62.5527
16.886	62.4673
16.904	62.3909
16.922	62.3232
16.94	62.2641
16.958	62.2137
16.976	62.1724
16.994	62.1404
17.012	62.1184
17.03	62.1068
17.048	62.1057
17.066	62.1149
17.084	62.1341
17.102	62.1611
17.12	62.1948
17.138	62.2326
17.156	62.2727
17.174	62.3132
17.192	62.3516
17.21	62.3872
17.228	62.4184
17.246	62.445
17.264	62.4667
17.282	62.4843
17.3	62.4982
17.318	62.5092
17.336	62.518
17.354	62.5251
17.372	62.5313
17.39	62.5369
17.408	62.5421
17.426	62.5468
17.444	62.5512
17.462	62.5547
17.48	62.5573
17.498	62.5586
17.516	62.559
17.534	62.5586
17.552	62.558
17.57	62.5576
17.588	62.5591
17.606	62.5632
17.624	62.5715
17.642	62.5856
17.66	62.6064
17.678	62.6358
17.696	62.6742
17.714	62.7226
17.732	62.7803
17.75	62.8472
17.768	62.9209
17.786	63.0008
17.804	63.0832
17.822	63.1668
17.84	63.2472
17.858	63.3226
17.876	63.3898
17.894	63.4461
17.912	63.4901
17.93	63.5199
17.948	63.5355
17.966	63.5365
17.984	63.5237
18.002	63.4985
18.02	63.4629
18.038	63.4182
18.056	63.3679
18.074	63.3129
18.092	63.2566
18.11	63.1993
18.128	63.1435
18.146	63.0891
18.164	63.037
18.182	62.9867
18.2	62.9382
18.218	62.891
18.236	62.8447
18.254	62.7989
18.272	62.7535
18.29	62.7089
18.308	62.6652
18.326	62.6238
18.344	62.5848
18.362	62.5501
18.38	62.5201
18.398	62.4965
18.416	62.4793
18.434	62.4695
18.452	62.4665
18.47	62.4708
18.488	62.4809
18.506	62.4966
18.524	62.5157
18.542	62.5377
18.56	62.5599
18.578	62.582
18.596	62.6009
18.614	62.6166
18.632	62.6266
18.65	62.6311
18.668	62.6286
18.686	62.6194
18.704	62.603
18.722	62.58
18.74	62.5511
18.758	62.5169
18.776	62.4791
18.794	62.4385
18.812	62.3972
18.83	62.356
18.848	62.3169
18.866	62.2805
18.884	62.2487
18.902	62.2216
18.92	62.2006
18.938	62.1854
18.956	62.1767
18.974	62.174
18.992	62.177
19.01	62.185
19.028	62.1973
19.046	62.2132
19.064	62.2316
19.082	62.2519
19.1	62.2729
19.118	62.2942
19.136	62.3148
19.154	62.3346
19.172	62.3528
19.19	62.3696
19.208	62.3845
19.226	62.3977
19.244	62.4094
19.262	62.4196
19.28	62.4288
19.298	62.437
19.316	62.4445
19.334	62.4513
19.352	62.4573
19.37	62.4627
19.388	62.4672
19.406	62.4709
19.424	62.4733
19.442	62.4745
19.46	62.4744
19.478	62.4729
19.496	62.4699
19.514	62.4653
19.532	62.4596
19.55	62.4529
19.568	62.4454
19.586	62.4373
19.604	62.4289
19.622	62.4203
19.64	62.4117
19.658	62.403
19.676	62.3944
19.694	62.3855
19.712	62.3764
19.73	62.3668
19.748	62.3567
19.766	62.3459
19.784	62.3342
19.802	62.3217
19.82	62.3083
19.838	62.2943
19.856	62.2799
19.874	62.2653
19.892	62.2511
19.91	62.2372
19.928	62.2246
19.946	62.2132
19.964	62.2034
19.982	62.1956
20	62.1897
20.018	62.1858
20.036	62.1839
20.054	62.1836
20.072	62.185
20.09	62.1873
20.108	62.1907
20.126	62.1941
20.144	62.1977
20.162	62.2008
20.18	62.2029
20.198	62.204
20.216	62.2039
20.234	62.2025
20.252	62.1999
20.27	62.1961
20.288	62.1915
20.306	62.1861
20.324	62.1801
20.342	62.1738
20.36	62.1674
20.378	62.1614
20.396	62.1555
20.414	62.1504
20.432	62.146
20.45	62.1421
20.468	62.1387
20.486	62.1356
20.504	62.1324
20.522	62.1293
20.54	62.1258
20.558	62.1219
20.576	62.1177
20.594	62.1129
20.612	62.1077
20.63	62.1027
20.648	62.0975
20.666	62.0931
20.684	62.0893
20.702	62.0869
20.72	62.0862
20.738	62.0874
20.756	62.0912
20.774	62.0975
20.792	62.1066
20.81	62.1188
20.828	62.1338
20.846	62.1515
20.864	62.1718
20.882	62.1936
20.9	62.2172
20.918	62.2414
20.936	62.2655
20.954	62.2894
20.972	62.3113
20.99	62.3317
21.008	62.3492
21.026	62.3632
21.044	62.3737
21.062	62.3796
21.08	62.3811
21.098	62.3782
21.116	62.3705
21.134	62.3586
21.152	62.3429
21.17	62.3234
21.188	62.3011
21.206	62.2761
21.224	62.2488
21.242	62.2202
21.26	62.1898
21.278	62.1588
21.296	62.1274
21.314	62.0956
21.332	62.0639
21.35	62.0322
21.368	62.0003
21.386	61.9683
21.404	61.9358
21.422	61.902
21.44	61.8671
21.458	61.8299
21.476	61.79
21.494	61.7474
21.512	61.7006
21.53	61.6499
21.548	61.5948
21.566	61.5345
21.584	61.4693
21.602	61.3995
21.62	61.3247
21.638	61.2456
21.656	61.1628
21.674	61.076
21.692	60.9874
21.71	60.8972
21.728	60.8061
21.746	60.7171
21.764	60.6291
21.782	60.5448
21.8	60.4665
21.818	60.3931
21.836	60.3286
21.854	60.2729
21.872	60.2267
21.89	60.1927
21.908	60.1701
21.926	60.1596
21.944	60.162
21.962	60.1768
21.98	60.2031
21.998	60.2415
22.016	60.2906
22.034	60.3483
22.052	60.4157
22.07	60.4898
22.088	60.5684
22.106	60.6526
22.124	60.7375
22.142	60.8226
22.16	60.9075
22.178	60.9883
22.196	61.0656
22.214	61.1383
22.232	61.2036
22.25	61.2625
22.268	61.3149
22.286	61.3601
22.304	61.3985
22.322	61.432
22.34	61.4601
22.358	61.484
22.376	61.5077
22.394	61.5296
22.412	61.5524
22.43	61.5802
22.448	61.611
22.466	61.6481
22.484	61.6947
22.502	61.749
22.52	61.8133
22.538	61.889
22.556	61.9751
22.574	62.0714
22.592	62.1789
22.61	62.2961
22.628	62.4197
22.646	62.5515
22.664	62.6884
22.682	62.8253
22.7	62.9649
22.718	63.1026
22.736	63.2328
22.754	63.3586
22.772	63.4747
22.79	63.5762
22.808	63.666
22.826	63.7396
22.844	63.7938
22.862	63.8306
22.88	63.8482
22.898	63.8449
22.916	63.8219
22.934	63.7809
22.952	63.7216
22.97	63.6445
22.988	63.5542
23.006	63.4501
23.024	63.3332
23.042	63.211
23.06	63.0828
23.078	62.9496
23.096	62.8201
23.114	62.6932
23.132	62.5702
23.15	62.4596
23.168	62.3605
23.186	62.2737
23.204	62.206
23.222	62.157
23.24	62.1267
23.258	62.1193
23.276	62.1348
23.294	62.1726
23.312	62.2334
23.33	62.3183
23.348	62.4255
23.366	62.5527
23.384	62.7009
23.402	62.8686
23.42	63.0508
23.438	63.2486
23.456	63.4608
23.474	63.6804
23.492	63.9077
23.51	64.1426
23.528	64.3776
23.546	64.6116
23.564	64.8461
23.582	65.0737
23.6	65.2922
23.618	65.5041
23.636	65.7032
23.654	65.8865
23.672	66.0565
23.69	66.2099
23.708	66.3443
23.726	66.4612
23.744	66.56
23.762	66.6401
23.78	66.701
23.798	66.7447
23.816	66.7726
23.834	66.7831
23.852	66.7787
23.87	66.7629
23.888	66.7339
23.906	66.6936
23.924	66.6463
23.942	66.5918
23.96	66.5299
23.978	66.4646
23.996	66.3969
24.014	66.3256
24.032	66.2535
24.05	66.1829
24.068	66.1122
24.086	66.0424
24.104	65.9746
24.122	65.9088
24.14	65.8442
24.158	65.78
24.176	65.7175
24.194	65.6553
24.212	65.5904
24.23	65.523
24.248	65.4536
24.266	65.3787
24.284	65.2966
24.302	65.2093
24.32	65.1139
24.338	65.0077
24.356	64.8928
24.374	64.7672
24.392	64.6276
24.41	64.4742
24.428	64.3075
24.446	64.1263
24.464	63.9291
24.482	63.7164
24.5	63.4913
24.518	63.2557
24.536	63.0066
24.554	62.7485
24.572	62.4877
24.59	62.2225
24.608	61.9533
24.626	61.6855
24.644	61.4209
24.662	61.1563
24.68	60.898
24.698	60.6517
24.716	60.4121
24.734	60.1841
24.752	59.976
24.77	59.7877
24.788	59.6172
24.806	59.4709
24.824	59.3533
24.842	59.2609
24.86	59.1956
24.878	59.1601
24.896	59.1553
24.914	59.1793
24.932	59.2303
24.95	59.3083
24.968	59.4148
24.986	59.5449
25.004	59.694
25.022	59.867
25.04	60.0595
25.058	60.2616
25.076	60.4705
25.094	60.6928
25.112	60.9158
25.13	61.1271
25.148	61.3348
25.166	61.5344
25.184	61.7132
25.202	61.8655
25.22	61.9994
25.238	62.1059
25.256	62.1757
25.274	62.2113
25.292	62.2137
25.31	62.1795
25.328	62.1056
25.346	61.9932
25.364	61.8453
25.382	61.6648
25.4	61.4465
25.418	61.1939
25.436	60.9187
25.454	60.629
25.472	60.3128
25.49	59.9833
25.508	59.6581
25.526	59.3383
25.544	59.0157
25.562	58.7083
25.58	58.4328
25.598	58.1789
25.616	57.9502
25.634	57.7611
25.652	57.6216
25.67	57.5236
25.688	57.4684
25.706	57.4585
25.724	57.4976
25.742	57.5831
25.76	57.7079
25.778	57.8658
25.796	58.0639
25.814	58.2969
25.832	58.5535
25.85	58.8263
25.868	59.1241
25.886	59.4397
25.904	59.7638
25.922	60.0948
25.94	60.4381
25.958	60.7854
25.976	61.1283
25.994	61.4658
26.012	61.8017
26.03	62.1377
26.048	62.4746
26.066	62.8056
26.084	63.1385
26.102	63.485
26.12	63.85
26.138	64.2188
26.156	64.61
26.174	65.0459
26.192	65.5314
26.21	66.0503
26.228	66.6241
26.246	67.2757
26.264	68.0014
26.282	68.7921
26.3	69.669
26.318	70.6526
26.336	71.7354
26.354	72.9138
26.372	74.2002
26.39	75.6062
26.408	77.1301
26.426	78.7663
26.444	80.5116
26.462	82.3644
26.48	84.3315
26.498	86.4046
26.516	88.5711
26.534	90.8253
26.552	93.1884
26.57	95.6353
26.588	98.1332
26.606	100.667
26.624	103.277
26.642	105.92
26.66	108.541
26.678	111.118
26.696	113.7
26.714	116.241
26.732	118.685
26.75	121.006
26.768	123.257
26.786	125.392
26.804	127.359
26.822	129.132
26.84	130.75
26.858	132.195
26.876	133.441
26.894	134.471
26.912	135.298
26.93	135.932
26.948	136.385
26.966	136.628
26.984	136.606
27.002	136.448
27.02	136.299
27.028	136.274