File: Bakgrunnsmateriale/MATLAB/FTIR/ftir_data/subAa/Mapping_121/BZ1503107-1_t57.asc
PE IR       SPECTRUM    SPECTRUM    ASCII       PEDS        1.60
  -1
BZ2563~1.ASC
17/04/07
17:55:06.00
17/04/07
17:55:33.00
tln
$BZ1503107-1_t0057$<tbV0>[10.4,0.0,8.0,0.0,27,1,0]
27.028
64

2002,4.07
MIRTGS : RIGHTBACK : INTERNAL 2
MIR : ON : INTERNAL 2
OPTKBR

0.200000
8
8.000000
FILLER
RATIO
SPECTRUM
UNLOCKED 256

DOUBLE
64
COMBINED
1
0
0

0.002000
RATIO

1
0
TRUE
51149
0
LEFT NOT FITTED RIGHT NOT FITTED 0
NONE
NONE
15600
12
4.427000
51148
TRUE
1 0 8 72 0 0 0 0

15798

#HDR
-1
-1
#GR
µM
%T
2.38419e-05
0.0
2.000000
0.002000
12515
8
73.6957
37.7458
#DATA
2.000000	 64.6047
2.018000	 64.2907
2.036000	 65.1174
2.054000	 65.3549
2.072000	 65.1593
2.090000	 64.9375
2.108000	 64.8443
2.126000	 65.031
2.144000	 64.9035
2.162000	 65.4111
2.180000	 65.4168
2.198000	 65.6773
2.216000	 65.2474
2.234000	 65.0119
2.252000	 55.9644
2.270000	 64.9012
2.288000	 65.5845
2.306000	 65.1247
2.324000	 65.3546
2.342000	 64.877
2.360000	 65.1308
2.378000	 65.2527
2.396000	 64.7049
2.414000	 64.8027
2.432000	 65.086
2.450000	 64.9387
2.468000	 64.9738
2.486000	 65.1111
2.504000	 65.1475
2.522000	 65.0495
2.540000	 65.084
2.558000	 65.2172
2.576000	 65.2212
2.594000	 64.9823
2.612000	 65.0598
2.630000	 65.0296
2.648000	 65.1845
2.666000	 65.0712
2.684000	 65.1209
2.702000	 65.2714
2.720000	 65.2107
2.738000	 65.0639
2.756000	 65.3238
2.774000	 65.3711
2.792000	 65.0819
2.810000	 65.1619
2.828000	 65.282
2.846000	 65.2599
2.864000	 65.049
2.882000	 64.9888
2.900000	 65.1412
2.918000	 64.9351
2.936000	 64.9994
2.954000	 64.9717
2.972000	 65.0613
2.990000	 64.9135
3.008000	 64.978
3.026000	 65.2494
3.044000	 64.9956
3.062000	 64.9637
3.080000	 65.0879
3.098000	 65.0629
3.116000	 65.0934
3.134000	 65.2613
3.152000	 65.1063
3.170000	 65.01
3.188000	 65.1414
3.206000	 64.9958
3.224000	 65.1402
3.242000	 64.923
3.260000	 65.1145
3.278000	 64.9585
3.296000	 65.0279
3.314000	 64.92
3.332000	 65.2504
3.350000	 65.1019
3.368000	 64.7886
3.386000	 64.9869
3.404000	 64.8478
3.422000	 64.9259
3.440000	 64.9904
3.458000	 64.8702
3.476000	 64.8689
3.494000	 64.9849
3.512000	 64.9728
3.530000	 64.8591
3.548000	 64.8457
3.566000	 64.9345
3.584000	 64.9659
3.602000	 64.9455
3.620000	 64.9493
3.638000	 64.87
3.656000	 64.9248
3.674000	 64.9263
3.692000	 65.1021
3.710000	 64.944
3.728000	 64.8835
3.746000	 64.9767
3.764000	 64.9164
3.782000	 64.859
3.800000	 64.9507
3.818000	 64.9063
3.836000	 64.9665
3.854000	 64.9573
3.872000	 64.892
3.890000	 64.8291
3.908000	 64.8048
3.926000	 64.895
3.944000	 64.8699
3.962000	 64.8417
3.980000	 65.0535
3.998000	 64.8709
4.016000	 65.0518
4.034000	 64.9354
4.052000	 64.8383
4.070000	 64.8588
4.088000	 64.8032
4.106000	 64.9897
4.124000	 64.9239
4.141999	 64.8188
4.160000	 64.792
4.178000	 64.9521
4.196000	 64.7669
4.214000	 64.755
4.232000	 64.7021
4.250000	 64.7677
4.268000	 64.842
4.286000	 64.7236
4.304000	 64.8099
4.322000	 64.7028
4.340000	 64.7361
4.358000	 64.7453
4.375999	 64.7264
4.394000	 64.7459
4.412000	 64.8322
4.430000	 64.777
4.448000	 64.6749
4.466000	 64.6758
4.484000	 64.7981
4.502000	 64.7895
4.520000	 64.7805
4.538000	 64.8377
4.556000	 64.8123
4.574000	 64.7035
4.592000	 64.7617
4.609999	 64.6121
4.628000	 64.605
4.646000	 64.6321
4.664000	 64.6436
4.682000	 64.6762
4.700000	 64.6622
4.718000	 64.6425
4.736000	 64.6648
4.754000	 64.6882
4.772000	 64.7976
4.790000	 64.6426
4.808000	 64.5034
4.826000	 64.4503
4.843999	 64.6307
4.862000	 64.6228
4.880000	 64.638
4.898000	 64.6815
4.916000	 64.711
4.934000	 64.6664
4.952000	 64.7046
4.970000	 64.7202
4.988000	 64.6572
5.006000	 64.6455
5.024000	 64.6724
5.042000	 64.6785
5.060000	 64.6017
5.077999	 64.6312
5.096000	 64.5894
5.114000	 64.5252
5.132000	 64.5564
5.150000	 64.6463
5.168000	 64.6557
5.186000	 64.5413
5.204000	 64.5547
5.222000	 64.6074
5.240000	 64.6041
5.258000	 64.6252
5.276000	 64.5703
5.294000	 64.5183
5.312000	 64.5408
5.330000	 64.5317
5.348000	 64.5892
5.366000	 64.5903
5.384000	 64.5921
5.402000	 64.5974
5.420000	 64.5511
5.438000	 64.508
5.456000	 64.4381
5.474000	 64.4978
5.492000	 64.5217
5.510000	 64.4393
5.528000	 64.4454
5.546000	 64.4958
5.564000	 64.5041
5.582000	 64.5057
5.600000	 64.4722
5.618000	 64.4093
5.636000	 64.3636
5.654000	 64.3989
5.672000	 64.4588
5.690000	 64.3914
5.708000	 64.4029
5.726000	 64.2711
5.744000	 64.1408
5.762000	 64.1528
5.780000	 64.2013
5.798000	 64.2551
5.816000	 64.3251
5.834000	 64.374
5.852000	 64.3288
5.870000	 64.3095
5.888000	 64.3112
5.906000	 64.2718
5.923999	 64.2473
5.942000	 64.3446
5.960000	 64.3389
5.978000	 64.3467
5.996000	 64.3438
6.014000	 64.2923
6.032000	 64.2238
6.050000	 64.1987
6.068000	 64.294
6.086000	 64.3441
6.104000	 64.2444
6.122000	 64.2212
6.140000	 64.2199
6.158000	 64.1478
6.176000	 64.1027
6.194000	 64.1962
6.212000	 64.2503
6.230000	 64.259
6.248000	 64.2475
6.266000	 64.2077
6.284000	 64.2218
6.302000	 64.2386
6.320000	 64.2226
6.338000	 64.1264
6.356000	 64.1167
6.374000	 64.1823
6.392000	 64.1994
6.410000	 64.1867
6.428000	 64.1909
6.446000	 64.1891
6.464000	 64.1546
6.482000	 64.1322
6.500000	 64.1533
6.518000	 64.1854
6.536000	 64.1768
6.554000	 64.1634
6.572000	 64.1922
6.590000	 64.2437
6.608000	 64.2655
6.626000	 64.2776
6.644000	 64.2756
6.662000	 64.2
6.680000	 64.1114
6.698000	 64.1156
6.716000	 64.1406
6.734000	 64.1918
6.752000	 64.2823
6.770000	 64.2858
6.788000	 64.2167
6.806000	 64.1995
6.824000	 64.2286
6.842000	 64.249
6.860000	 64.2121
6.878000	 64.1577
6.896000	 64.1483
6.914000	 64.1391
6.932000	 64.1287
6.950000	 64.1293
6.968000	 64.1232
6.986000	 64.1031
7.004000	 64.0896
7.022000	 64.1432
7.040000	 64.2286
7.058000	 64.2238
7.076000	 64.1346
7.094000	 64.0744
7.112000	 64.0731
7.130000	 64.0773
7.148000	 64.0701
7.166000	 64.0837
7.184000	 64.1074
7.202000	 64.0957
7.220000	 64.0713
7.238000	 64.0827
7.256000	 64.1062
7.274000	 64.1136
7.292000	 64.1055
7.310000	 64.08
7.328000	 64.065
7.346000	 64.1027
7.364000	 64.1519
7.382000	 64.1187
7.400000	 64.0266
7.418000	 63.9959
7.436000	 64.026
7.454000	 64.0328
7.472000	 64.0256
7.490000	 64.0419
7.508000	 64.0589
7.526000	 64.0733
7.544000	 64.1034
7.562000	 64.1224
7.580000	 64.1056
7.598000	 64.0828
7.616000	 64.0793
7.634000	 64.0713
7.652000	 64.0433
7.670000	 64.0349
7.688000	 64.0733
7.706000	 64.1089
7.724000	 64.0914
7.742000	 64.0472
7.760000	 64.0267
7.778000	 64.0304
7.796000	 64.0297
7.814000	 64.0207
7.832000	 64.0226
7.850000	 64.0429
7.868000	 64.0661
7.886000	 64.0695
7.904000	 64.0407
7.922000	 63.9872
7.940000	 63.929
7.958000	 63.8815
7.976000	 63.8582
7.994000	 63.8637
8.012000	 63.8792
8.030000	 63.887
8.048000	 63.8871
8.065999	 63.8745
8.084000	 63.8428
8.102000	 63.8173
8.120000	 63.8362
8.138000	 63.8901
8.155999	 63.9257
8.173999	 63.9086
8.192000	 63.854
8.210000	 63.8025
8.228000	 63.7908
8.246000	 63.8291
8.263999	 63.8943
8.282000	 63.9522
8.300000	 63.9873
8.318000	 63.9983
8.336000	 63.9786
8.353999	 63.9298
8.372000	 63.8791
8.390000	 63.8578
8.408000	 63.8658
8.426000	 63.8811
8.443999	 63.893
8.462000	 63.905
8.480000	 63.9192
8.498000	 63.9379
8.516000	 63.9614
8.533999	 63.9749
8.552000	 63.9524
8.570000	 63.8885
8.588000	 63.8132
8.606000	 63.7643
8.624000	 63.7531
8.641999	 63.7626
8.660000	 63.7689
8.678000	 63.7583
8.696000	 63.7381
8.714000	 63.73
8.731999	 63.7499
8.750000	 63.794
8.768000	 63.8446
8.786000	 63.8864
8.804000	 63.9104
8.821999	 63.9086
8.840000	 63.8719
8.858000	 63.8058
8.876000	 63.7363
8.894000	 63.6938
8.911999	 63.6867
8.930000	 63.6983
8.948000	 63.7082
8.966000	 63.7149
8.984000	 63.7326
9.001999	 63.7718
9.020000	 63.8269
9.038000	 63.8816
9.056000	 63.9204
9.074000	 63.9378
9.092000	 63.9375
9.109999	 63.9213
9.128000	 63.8843
9.146000	 63.8243
9.164000	 63.7545
9.182000	 63.6989
9.199999	 63.6734
9.218000	 63.6774
9.236000	 63.703
9.254000	 63.7487
9.272000	 63.8113
9.289999	 63.872
9.308000	 63.9017
9.326000	 63.8855
9.344000	 63.8372
9.362000	 63.7874
9.379999	 63.759
9.398000	 63.7547
9.416000	 63.765
9.434000	 63.7787
9.452000	 63.7895
9.469999	 63.7983
9.488000	 63.8155
9.506000	 63.8535
9.524000	 63.912
9.542000	 63.9722
9.560000	 64.0065
9.577999	 63.9971
9.596000	 63.9473
9.614000	 63.8755
9.632000	 63.8016
9.650000	 63.7375
9.667999	 63.6891
9.686000	 63.6636
9.704000	 63.6691
9.722000	 63.709
9.740000	 63.7737
9.757999	 63.8403
9.776000	 63.8839
9.794000	 63.8912
9.812000	 63.869
9.830000	 63.8389
9.847999	 63.8224
9.866000	 63.8292
9.884000	 63.8547
9.902000	 63.8848
9.920000	 63.9045
9.937999	 63.9062
9.956000	 63.8924
9.974000	 63.8716
9.992000	 63.8529
10.01	63.8429
10.028	63.8467
10.046	63.8675
10.064	63.9057
10.082	63.9542
10.1	63.9989
10.118	64.0246
10.136	64.0247
10.154	64.0055
10.172	63.9796
10.19	63.9549
10.208	63.9293
10.226	63.8952
10.244	63.8491
10.262	63.7977
10.28	63.7529
10.298	63.7249
10.316	63.7152
10.334	63.7158
10.352	63.7142
10.37	63.6993
10.388	63.6673
10.406	63.6233
10.424	63.5798
10.442	63.5524
10.46	63.5511
10.478	63.575
10.496	63.6109
10.514	63.6408
10.532	63.6512
10.55	63.6391
10.568	63.6115
10.586	63.5809
10.604	63.5572
10.622	63.5452
10.64	63.5441
10.658	63.5519
10.676	63.5685
10.694	63.5957
10.712	63.6345
10.73	63.6813
10.748	63.7277
10.766	63.7633
10.784	63.7815
10.802	63.7832
10.82	63.7758
10.838	63.7701
10.856	63.7719
10.874	63.7795
10.892	63.7857
10.91	63.7831
10.928	63.7703
10.946	63.7526
10.964	63.7385
10.982	63.7355
11	63.7449
11.018	63.7622
11.036	63.7793
11.054	63.7872
11.072	63.781
11.09	63.7609
11.108	63.7324
11.126	63.7055
11.144	63.6911
11.162	63.6989
11.18	63.7334
11.198	63.7923
11.216	63.8665
11.234	63.9424
11.252	64.005
11.27	64.0433
11.288	64.0514
11.306	64.0306
11.324	63.9881
11.342	63.9336
11.36	63.8764
11.378	63.8228
11.396	63.7743
11.414	63.73
11.432	63.6882
11.45	63.6491
11.468	63.616
11.486	63.5933
11.504	63.5848
11.522	63.5913
11.54	63.6101
11.558	63.6354
11.576	63.6601
11.594	63.6786
11.612	63.6879
11.63	63.688
11.648	63.6815
11.666	63.6717
11.684	63.6608
11.702	63.6495
11.72	63.6378
11.738	63.6261
11.756	63.6164
11.774	63.612
11.792	63.6158
11.81	63.629
11.828	63.6494
11.846	63.6723
11.864	63.6919
11.882	63.7041
11.9	63.7075
11.918	63.7045
11.936	63.6995
11.954	63.6964
11.972	63.698
11.99	63.7051
12.008	63.7172
12.026	63.7345
12.044	63.7576
12.062	63.7876
12.08	63.8244
12.098	63.8655
12.116	63.9057
12.134	63.9383
12.152	63.9578
12.17	63.9611
12.188	63.9483
12.206	63.9231
12.224	63.891
12.242	63.8572
12.26	63.825
12.278	63.7954
12.296	63.7675
12.314	63.7397
12.332	63.7111
12.35	63.6826
12.368	63.6567
12.386	63.6358
12.404	63.6215
12.422	63.6135
12.44	63.6094
12.458	63.6062
12.476	63.6009
12.494	63.593
12.512	63.5845
12.53	63.5797
12.548	63.5835
12.566	63.5993
12.584	63.6273
12.602	63.6643
12.62	63.7037
12.638	63.7386
12.656	63.7638
12.674	63.7771
12.692	63.7801
12.71	63.7759
12.728	63.7678
12.746	63.7577
12.764	63.7453
12.782	63.729
12.8	63.7073
12.818	63.68
12.836	63.6497
12.854	63.6208
12.872	63.599
12.89	63.5893
12.908	63.5945
12.926	63.6142
12.944	63.6448
12.962	63.6808
12.98	63.7161
12.998	63.7453
13.016	63.7656
13.034	63.776
13.052	63.7777
13.07	63.7727
13.088	63.7636
13.106	63.7522
13.124	63.7399
13.142	63.7266
13.16	63.712
13.178	63.6943
13.196	63.6721
13.214	63.6442
13.232	63.6098
13.25	63.5694
13.268	63.5244
13.286	63.4776
13.304	63.432
13.322	63.3911
13.34	63.358
13.358	63.3353
13.376	63.324
13.394	63.3241
13.412	63.3342
13.43	63.3518
13.448	63.3737
13.466	63.3969
13.484	63.4188
13.502	63.4375
13.52	63.4523
13.538	63.4634
13.556	63.4714
13.574	63.4773
13.592	63.4823
13.61	63.4869
13.628	63.4917
13.646	63.4972
13.664	63.5037
13.682	63.5122
13.7	63.5232
13.718	63.5371
13.736	63.5536
13.754	63.5719
13.772	63.5898
13.79	63.6044
13.808	63.6125
13.826	63.6111
13.844	63.5984
13.862	63.5735
13.88	63.5375
13.898	63.493
13.916	63.4447
13.934	63.3977
13.952	63.3574
13.97	63.3285
13.988	63.3137
14.006	63.314
14.024	63.328
14.042	63.3518
14.06	63.3806
14.078	63.4088
14.096	63.4318
14.114	63.4459
14.132	63.4497
14.15	63.4435
14.168	63.4291
14.186	63.4096
14.204	63.3884
14.222	63.3688
14.24	63.3528
14.258	63.3417
14.276	63.3355
14.294	63.3338
14.312	63.3356
14.33	63.3405
14.348	63.3483
14.366	63.3592
14.384	63.3742
14.402	63.3945
14.42	63.4209
14.438	63.4532
14.456	63.4903
14.474	63.5296
14.492	63.5675
14.51	63.5996
14.528	63.6219
14.546	63.6318
14.564	63.6281
14.582	63.6117
14.6	63.5857
14.618	63.5546
14.636	63.5244
14.654	63.5
14.672	63.4855
14.69	63.483
14.708	63.493
14.726	63.5143
14.744	63.5437
14.762	63.5777
14.78	63.6125
14.798	63.6452
14.816	63.6737
14.834	63.6963
14.852	63.7127
14.87	63.7223
14.888	63.7246
14.906	63.7189
14.924	63.7038
14.942	63.678
14.96	63.64
14.978	63.5896
14.996	63.5274
15.014	63.4555
15.032	63.378
15.05	63.3008
15.068	63.2305
15.086	63.1737
15.104	63.1365
15.122	63.1237
15.14	63.1371
15.158	63.1759
15.176	63.2372
15.194	63.316
15.212	63.4044
15.23	63.4952
15.248	63.5819
15.266	63.6584
15.284	63.7203
15.302	63.7658
15.32	63.7942
15.338	63.8059
15.356	63.8021
15.374	63.7846
15.392	63.7551
15.41	63.7151
15.428	63.6661
15.446	63.6098
15.464	63.5482
15.482	63.4834
15.5	63.418
15.518	63.3566
15.536	63.3029
15.554	63.2598
15.572	63.2308
15.59	63.2171
15.608	63.2183
15.626	63.2329
15.644	63.2573
15.662	63.2854
15.68	63.3114
15.698	63.33
15.716	63.3345
15.734	63.3212
15.752	63.2886
15.77	63.2364
15.788	63.1673
15.806	63.0863
15.824	62.9986
15.842	62.911
15.86	62.8322
15.878	62.7679
15.896	62.7237
15.914	62.7052
15.932	62.7144
15.95	62.7522
15.968	62.8175
15.986	62.9065
16.004	63.0145
16.022	63.1361
16.04	63.2623
16.058	63.3859
16.076	63.5001
16.094	63.596
16.112	63.6676
16.13	63.7109
16.148	63.7218
16.166	63.6996
16.184	63.645
16.202	63.5596
16.22	63.4485
16.238	63.3169
16.256	63.1701
16.274	63.0172
16.292	62.8636
16.31	62.7148
16.328	62.5777
16.346	62.456
16.364	62.3527
16.382	62.2707
16.4	62.21
16.418	62.1709
16.436	62.1521
16.454	62.1516
16.472	62.1679
16.49	62.1979
16.508	62.2389
16.526	62.289
16.544	62.3442
16.562	62.4023
16.58	62.4611
16.598	62.5175
16.616	62.5702
16.634	62.6178
16.652	62.6589
16.67	62.6934
16.688	62.721
16.706	62.7425
16.724	62.7586
16.742	62.7704
16.76	62.7799
16.778	62.7879
16.796	62.7965
16.814	62.8074
16.832	62.8216
16.85	62.841
16.868	62.8659
16.886	62.8968
16.904	62.9339
16.922	62.9767
16.94	63.0249
16.958	63.0773
16.976	63.1335
16.994	63.192
17.012	63.252
17.03	63.3128
17.048	63.3732
17.066	63.4331
17.084	63.4919
17.102	63.5496
17.12	63.6062
17.138	63.6613
17.156	63.7147
17.174	63.7661
17.192	63.8145
17.21	63.8596
17.228	63.9002
17.246	63.9352
17.264	63.9639
17.282	63.9845
17.3	63.9967
17.318	63.9994
17.336	63.9926
17.354	63.9761
17.372	63.9508
17.39	63.9174
17.408	63.877
17.426	63.8314
17.444	63.7816
17.462	63.7295
17.48	63.6756
17.498	63.6215
17.516	63.5673
17.534	63.5134
17.552	63.4592
17.57	63.4046
17.588	63.3486
17.606	63.2909
17.624	63.2306
17.642	63.1682
17.66	63.1034
17.678	63.0376
17.696	62.9712
17.714	62.9067
17.732	62.846
17.75	62.7911
17.768	62.7451
17.786	62.7092
17.804	62.6864
17.822	62.6769
17.84	62.6822
17.858	62.7014
17.876	62.7341
17.894	62.7774
17.912	62.8307
17.93	62.8888
17.948	62.9508
17.966	63.0112
17.984	63.0688
18.002	63.1195
18.02	63.1619
18.038	63.1938
18.056	63.2145
18.074	63.2234
18.092	63.2211
18.11	63.2079
18.128	63.186
18.146	63.156
18.164	63.1205
18.182	63.0806
18.2	63.0382
18.218	62.995
18.236	62.9519
18.254	62.9103
18.272	62.8708
18.29	62.8345
18.308	62.8016
18.326	62.7728
18.344	62.7483
18.362	62.7289
18.38	62.7145
18.398	62.7058
18.416	62.7028
18.434	62.7058
18.452	62.7146
18.47	62.7296
18.488	62.7495
18.506	62.7739
18.524	62.8016
18.542	62.8322
18.56	62.8633
18.578	62.8947
18.596	62.9246
18.614	62.953
18.632	62.9785
18.65	63.0014
18.668	63.0219
18.686	63.0405
18.704	63.0588
18.722	63.0775
18.74	63.0989
18.758	63.1236
18.776	63.1537
18.794	63.1894
18.812	63.232
18.83	63.2811
18.848	63.3372
18.866	63.3988
18.884	63.4645
18.902	63.5324
18.92	63.5994
18.938	63.6637
18.956	63.7216
18.974	63.772
18.992	63.8116
19.01	63.8404
19.028	63.8563
19.046	63.8604
19.064	63.8526
19.082	63.8347
19.1	63.8084
19.118	63.7756
19.136	63.7395
19.154	63.7013
19.172	63.6649
19.19	63.6307
19.208	63.602
19.226	63.5784
19.244	63.5611
19.262	63.5496
19.28	63.5429
19.298	63.5408
19.316	63.5409
19.334	63.5434
19.352	63.5455
19.37	63.5474
19.388	63.5477
19.406	63.5465
19.424	63.5439
19.442	63.5397
19.46	63.5355
19.478	63.5314
19.496	63.5293
19.514	63.53
19.532	63.5342
19.55	63.5426
19.568	63.5553
19.586	63.5732
19.604	63.5954
19.622	63.6211
19.64	63.6501
19.658	63.6811
19.676	63.7142
19.694	63.747
19.712	63.7796
19.73	63.8119
19.748	63.8436
19.766	63.8764
19.784	63.91
19.802	63.9477
19.82	63.9905
19.838	64.0407
19.856	64.1021
19.874	64.1746
19.892	64.2628
19.91	64.3658
19.928	64.4856
19.946	64.6225
19.964	64.7733
19.982	64.9392
20	65.114
20.018	65.2961
20.036	65.4806
20.054	65.6595
20.072	65.8325
20.09	65.9868
20.108	66.1245
20.126	66.2336
20.144	66.3143
20.162	66.361
20.18	66.3704
20.198	66.3435
20.216	66.2781
20.234	66.1761
20.252	66.0422
20.27	65.875
20.288	65.6858
20.306	65.4735
20.324	65.248
20.342	65.0151
20.36	64.7775
20.378	64.5476
20.396	64.3232
20.414	64.1156
20.432	63.9243
20.45	63.7539
20.468	63.6076
20.486	63.4842
20.504	63.3851
20.522	63.3096
20.54	63.2538
20.558	63.2191
20.576	63.1992
20.594	63.1926
20.612	63.1968
20.63	63.2054
20.648	63.2197
20.666	63.2331
20.684	63.2458
20.702	63.2554
20.72	63.2592
20.738	63.2583
20.756	63.252
20.774	63.2401
20.792	63.2242
20.81	63.2037
20.828	63.1808
20.846	63.158
20.864	63.1348
20.882	63.115
20.9	63.0982
20.918	63.0865
20.936	63.0821
20.954	63.0844
20.972	63.0949
20.99	63.1135
21.008	63.14
21.026	63.1749
21.044	63.2174
21.062	63.2661
21.08	63.3217
21.098	63.3814
21.116	63.4451
21.134	63.5115
21.152	63.578
21.17	63.6454
21.188	63.7104
21.206	63.7728
21.224	63.8315
21.242	63.884
21.26	63.9313
21.278	63.9707
21.296	64.0021
21.314	64.0249
21.332	64.0377
21.35	64.041
21.368	64.0339
21.386	64.0163
21.404	63.9884
21.422	63.9505
21.44	63.9023
21.458	63.8454
21.476	63.7798
21.494	63.7062
21.512	63.627
21.53	63.5413
21.548	63.4519
21.566	63.3605
21.584	63.2666
21.602	63.1743
21.62	63.0827
21.638	62.9943
21.656	62.9121
21.674	62.8349
21.692	62.7659
21.71	62.706
21.728	62.6549
21.746	62.6145
21.764	62.5846
21.782	62.5649
21.8	62.5557
21.818	62.5567
21.836	62.5665
21.854	62.5857
21.872	62.6129
21.89	62.6457
21.908	62.6852
21.926	62.7283
21.944	62.773
21.962	62.8201
21.98	62.8656
21.998	62.9095
22.016	62.951
22.034	62.987
22.052	63.0184
22.07	63.0439
22.088	63.062
22.106	63.0734
22.124	63.0774
22.142	63.0734
22.16	63.0621
22.178	63.0441
22.196	63.019
22.214	62.9878
22.232	62.9518
22.25	62.9104
22.268	62.8655
22.286	62.8183
22.304	62.7682
22.322	62.7177
22.34	62.667
22.358	62.6162
22.376	62.5674
22.394	62.5203
22.412	62.4753
22.43	62.4336
22.448	62.3949
22.466	62.3594
22.484	62.3275
22.502	62.2992
22.52	62.2742
22.538	62.2526
22.556	62.2343
22.574	62.2188
22.592	62.2059
22.61	62.1957
22.628	62.1873
22.646	62.1809
22.664	62.1763
22.682	62.173
22.7	62.171
22.718	62.1705
22.736	62.1715
22.754	62.174
22.772	62.1781
22.79	62.184
22.808	62.1914
22.826	62.2013
22.844	62.2139
22.862	62.2289
22.88	62.2475
22.898	62.2701
22.916	62.2964
22.934	62.3276
22.952	62.3642
22.97	62.4059
22.988	62.4534
23.006	62.5071
23.024	62.5667
23.042	62.6323
23.06	62.7043
23.078	62.7822
23.096	62.8644
23.114	62.9516
23.132	63.043
23.15	63.1364
23.168	63.2324
23.186	63.3303
23.204	63.4276
23.222	63.5249
23.24	63.6215
23.258	63.7153
23.276	63.8066
23.294	63.895
23.312	63.9787
23.33	64.0576
23.348	64.132
23.366	64.2011
23.384	64.2643
23.402	64.3224
23.42	64.3761
23.438	64.4254
23.456	64.4703
23.474	64.5123
23.492	64.5513
23.51	64.5874
23.528	64.6216
23.546	64.6544
23.564	64.6854
23.582	64.7152
23.6	64.7442
23.618	64.772
23.636	64.7987
23.654	64.8244
23.672	64.8493
23.69	64.8721
23.708	64.8923
23.726	64.9106
23.744	64.9254
23.762	64.9351
23.78	64.9409
23.798	64.9415
23.816	64.9353
23.834	64.923
23.852	64.9043
23.87	64.8782
23.888	64.8444
23.906	64.8036
23.924	64.7569
23.942	64.7034
23.96	64.6439
23.978	64.5808
23.996	64.5146
24.014	64.4446
24.032	64.3737
24.05	64.3037
24.068	64.2331
24.086	64.164
24.104	64.0987
24.122	64.036
24.14	63.9767
24.158	63.9224
24.176	63.8729
24.194	63.828
24.212	63.7876
24.23	63.7526
24.248	63.7225
24.266	63.6948
24.284	63.6683
24.302	63.6445
24.32	63.6208
24.338	63.5944
24.356	63.5671
24.374	63.5376
24.392	63.5034
24.41	63.4641
24.428	63.4208
24.446	63.3732
24.464	63.321
24.482	63.2639
24.5	63.2044
24.518	63.144
24.536	63.0801
24.554	63.0166
24.572	62.9586
24.59	62.9037
24.608	62.8531
24.626	62.8135
24.644	62.7874
24.662	62.7709
24.68	62.7703
24.698	62.7914
24.716	62.8311
24.734	62.8906
24.752	62.973
24.77	63.0791
24.788	63.2075
24.806	63.3588
24.824	63.5335
24.842	63.7321
24.86	63.9524
24.878	64.1922
24.896	64.4534
24.914	64.7346
24.932	65.0307
24.95	65.34
24.968	65.6664
24.986	66.0025
25.004	66.341
25.022	66.6859
25.04	67.0352
25.058	67.3821
25.076	67.7234
25.094	68.063
25.112	68.3972
25.13	68.7223
25.148	69.0396
25.166	69.3492
25.184	69.6494
25.202	69.9389
25.22	70.2186
25.238	70.4889
25.256	70.7504
25.274	71.0029
25.292	71.2464
25.31	71.4814
25.328	71.7084
25.346	71.9273
25.364	72.1376
25.382	72.3388
25.4	72.5322
25.418	72.7171
25.436	72.8901
25.454	73.0493
25.472	73.1982
25.49	73.3328
25.508	73.4472
25.526	73.5416
25.544	73.6187
25.562	73.6717
25.58	73.6941
25.598	73.6906
25.616	73.6593
25.634	73.5936
25.652	73.4895
25.67	73.3514
25.688	73.1769
25.706	72.9631
25.724	72.7086
25.742	72.4152
25.76	72.0844
25.778	71.7173
25.796	71.3113
25.814	70.8691
25.832	70.3954
25.85	69.8924
25.868	69.355
25.886	68.7901
25.904	68.2058
25.922	67.602
25.94	66.9742
25.958	66.3333
25.976	65.6902
25.994	65.0388
26.012	64.3797
26.03	63.7253
26.048	63.0857
26.066	62.4507
26.084	61.8261
26.102	61.2245
26.12	60.6536
26.138	60.1036
26.156	59.581
26.174	59.0947
26.192	58.6473
26.21	58.2327
26.228	57.8567
26.246	57.5255
26.264	57.2412
26.282	57.0004
26.3	56.8012
26.318	56.6421
26.336	56.5273
26.354	56.454
26.372	56.414
26.39	56.4005
26.408	56.4241
26.426	56.4776
26.444	56.5451
26.462	56.6143
26.48	56.7022
26.498	56.797
26.516	56.8783
26.534	56.9319
26.552	56.9777
26.57	57.002
26.588	56.9837
26.606	56.9102
26.624	56.8003
26.642	56.6413
26.66	56.4163
26.678	56.1156
26.696	55.7517
26.714	55.3193
26.732	54.811
26.75	54.2213
26.768	53.5537
26.786	52.8122
26.804	52.0007
26.822	51.1178
26.84	50.1568
26.858	49.1319
26.876	48.0584
26.894	46.9402
26.912	45.7608
26.93	44.5411
26.948	43.3043
26.966	42.0054
26.984	40.542
27.002	39.1382
27.02	38.0393
27.028	37.7458