File: Bakgrunnsmateriale/MATLAB/FTIR/ftir_data/subAa/Mapping_121/BZ1503107-1_t62.asc
PE IR       SPECTRUM    SPECTRUM    ASCII       PEDS        1.60
  -1
BZ2151~1.ASC
17/04/07
18:18:13.00
17/04/07
18:18:39.00
tln
$BZ1503107-1_t0062$<tbV0>[-2.6,0.0,8.0,0.0,27,1,0]
27.028
64

2002,4.07
MIRTGS : RIGHTBACK : INTERNAL 2
MIR : ON : INTERNAL 2
OPTKBR

0.200000
8
8.000000
FILLER
RATIO
SPECTRUM
UNLOCKED 256

DOUBLE
64
COMBINED
1
0
0

0.002000
RATIO

1
0
TRUE
51149
0
LEFT NOT FITTED RIGHT NOT FITTED 0
NONE
NONE
15600
12
4.427000
51148
TRUE
1 0 8 72 0 0 0 0

15798

#HDR
-1
-1
#GR
µM
%T
2.38419e-05
0.0
2.000000
0.002000
12515
8
77.5
45.6467
#DATA
2.000000	 65.66
2.018000	 65.9069
2.036000	 65.1297
2.054000	 64.8424
2.072000	 64.7222
2.090000	 64.894
2.108000	 64.6978
2.126000	 64.5376
2.144000	 64.942
2.162000	 64.7532
2.180000	 64.6288
2.198000	 64.8884
2.216000	 64.8352
2.234000	 64.5026
2.252000	 70.6082
2.270000	 64.6398
2.288000	 64.7251
2.306000	 64.9175
2.324000	 65.3015
2.342000	 65.262
2.360000	 65.0349
2.378000	 65.0962
2.396000	 65.1815
2.414000	 64.778
2.432000	 65.074
2.450000	 64.9813
2.468000	 65.0967
2.486000	 64.9155
2.504000	 65.0992
2.522000	 64.8747
2.540000	 64.8641
2.558000	 65.0053
2.576000	 65.2011
2.594000	 65.0968
2.612000	 65.05
2.630000	 64.9847
2.648000	 65.1662
2.666000	 65.0542
2.684000	 64.9964
2.702000	 65.324
2.720000	 64.9968
2.738000	 65.167
2.756000	 65.2088
2.774000	 65.1652
2.792000	 64.929
2.810000	 65.1729
2.828000	 65.3147
2.846000	 65.1493
2.864000	 65.2189
2.882000	 64.9781
2.900000	 65.0803
2.918000	 64.974
2.936000	 64.9901
2.954000	 65.0789
2.972000	 65.1092
2.990000	 64.9756
3.008000	 65.2294
3.026000	 65.1153
3.044000	 64.9753
3.062000	 64.9819
3.080000	 65.0006
3.098000	 64.983
3.116000	 64.9502
3.134000	 65.0818
3.152000	 65.0121
3.170000	 64.9779
3.188000	 64.9351
3.206000	 64.9561
3.224000	 65.0415
3.242000	 64.8207
3.260000	 64.9625
3.278000	 64.9706
3.296000	 64.9371
3.314000	 64.9569
3.332000	 65.0273
3.350000	 64.9583
3.368000	 64.6904
3.386000	 64.944
3.404000	 64.769
3.422000	 65.0562
3.440000	 65.0474
3.458000	 64.9187
3.476000	 64.8136
3.494000	 65.0451
3.512000	 64.942
3.530000	 64.9915
3.548000	 64.9849
3.566000	 64.9943
3.584000	 64.8799
3.602000	 64.9228
3.620000	 64.8649
3.638000	 64.9025
3.656000	 64.7725
3.674000	 64.8705
3.692000	 64.9455
3.710000	 65.029
3.728000	 64.8661
3.746000	 64.9217
3.764000	 64.763
3.782000	 64.8365
3.800000	 64.9146
3.818000	 64.7242
3.836000	 64.7506
3.854000	 64.9526
3.872000	 64.9436
3.890000	 64.8603
3.908000	 64.6886
3.926000	 64.8633
3.944000	 64.7895
3.962000	 64.827
3.980000	 64.8299
3.998000	 64.8062
4.016000	 64.788
4.034000	 64.9087
4.052000	 64.6754
4.070000	 64.7943
4.088000	 64.8463
4.106000	 64.8465
4.124000	 64.9204
4.141999	 64.8742
4.160000	 64.8696
4.178000	 64.791
4.196000	 64.8008
4.214000	 64.7195
4.232000	 64.831
4.250000	 64.7193
4.268000	 64.6966
4.286000	 64.7188
4.304000	 64.7308
4.322000	 64.6649
4.340000	 64.8267
4.358000	 64.7451
4.375999	 64.706
4.394000	 64.6576
4.412000	 64.7127
4.430000	 64.7701
4.448000	 64.6547
4.466000	 64.6897
4.484000	 64.7421
4.502000	 64.6317
4.520000	 64.5892
4.538000	 64.6905
4.556000	 64.7314
4.574000	 64.6187
4.592000	 64.6652
4.609999	 64.5618
4.628000	 64.7072
4.646000	 64.7195
4.664000	 64.6783
4.682000	 64.6512
4.700000	 64.5891
4.718000	 64.6217
4.736000	 64.5753
4.754000	 64.5756
4.772000	 64.6181
4.790000	 64.5875
4.808000	 64.6331
4.826000	 64.5879
4.843999	 64.5805
4.862000	 64.5639
4.880000	 64.5242
4.898000	 64.5122
4.916000	 64.4439
4.934000	 64.5298
4.952000	 64.4908
4.970000	 64.5785
4.988000	 64.5888
5.006000	 64.5273
5.024000	 64.5945
5.042000	 64.5555
5.060000	 64.4702
5.077999	 64.5851
5.096000	 64.4687
5.114000	 64.3043
5.132000	 64.441
5.150000	 64.5537
5.168000	 64.6111
5.186000	 64.4671
5.204000	 64.4693
5.222000	 64.4685
5.240000	 64.5349
5.258000	 64.5141
5.276000	 64.4526
5.294000	 64.4084
5.312000	 64.4702
5.330000	 64.4755
5.348000	 64.3651
5.366000	 64.3663
5.384000	 64.4123
5.402000	 64.4083
5.420000	 64.3541
5.438000	 64.4246
5.456000	 64.4448
5.474000	 64.4233
5.492000	 64.4345
5.510000	 64.4358
5.528000	 64.4566
5.546000	 64.3571
5.564000	 64.2769
5.582000	 64.308
5.600000	 64.2618
5.618000	 64.2691
5.636000	 64.3184
5.654000	 64.3719
5.672000	 64.3324
5.690000	 64.2464
5.708000	 64.1891
5.726000	 64.1653
5.744000	 64.1264
5.762000	 64.0572
5.780000	 64.0614
5.798000	 64.0962
5.816000	 64.1235
5.834000	 64.2176
5.852000	 64.2282
5.870000	 64.1989
5.888000	 64.115
5.906000	 64.081
5.923999	 64.0251
5.942000	 64.046
5.960000	 64.1258
5.978000	 64.1627
5.996000	 64.2325
6.014000	 64.2925
6.032000	 64.2252
6.050000	 64.1884
6.068000	 64.2006
6.086000	 64.2355
6.104000	 64.1856
6.122000	 64.1589
6.140000	 64.2164
6.158000	 64.1919
6.176000	 64.0991
6.194000	 64.1033
6.212000	 64.1294
6.230000	 64.1715
6.248000	 64.1956
6.266000	 64.1229
6.284000	 64.1052
6.302000	 64.1481
6.320000	 64.0896
6.338000	 64.0197
6.356000	 64.0676
6.374000	 64.0987
6.392000	 64.0749
6.410000	 64.1175
6.428000	 64.2019
6.446000	 64.1561
6.464000	 64.062
6.482000	 64.0726
6.500000	 64.0948
6.518000	 64.0567
6.536000	 64.0614
6.554000	 64.0735
6.572000	 64.0405
6.590000	 64.0119
6.608000	 64.0069
6.626000	 64.0342
6.644000	 64.0825
6.662000	 64.1076
6.680000	 64.0929
6.698000	 64.125
6.716000	 64.1391
6.734000	 64.0917
6.752000	 64.0576
6.770000	 64.0255
6.788000	 64.007
6.806000	 63.9924
6.824000	 63.9554
6.842000	 63.9634
6.860000	 64.0015
6.878000	 63.9722
6.896000	 63.8931
6.914000	 63.8284
6.932000	 63.832
6.950000	 63.9313
6.968000	 64.0181
6.986000	 64.0075
7.004000	 63.999
7.022000	 64.0749
7.040000	 64.1346
7.058000	 64.0774
7.076000	 63.9756
7.094000	 63.9345
7.112000	 63.9357
7.130000	 63.922
7.148000	 63.9138
7.166000	 63.9455
7.184000	 63.9924
7.202000	 64.0237
7.220000	 64.0285
7.238000	 64.0062
7.256000	 63.9812
7.274000	 63.969
7.292000	 63.9357
7.310000	 63.8682
7.328000	 63.8334
7.346000	 63.8815
7.364000	 63.9628
7.382000	 63.9943
7.400000	 63.9486
7.418000	 63.879
7.436000	 63.8547
7.454000	 63.8728
7.472000	 63.8859
7.490000	 63.8836
7.508000	 63.8808
7.526000	 63.8839
7.544000	 63.8952
7.562000	 63.9004
7.580000	 63.8816
7.598000	 63.8482
7.616000	 63.8159
7.634000	 63.7857
7.652000	 63.7652
7.670000	 63.783
7.688000	 63.8612
7.706000	 63.9662
7.724000	 64.0176
7.742000	 63.9887
7.760000	 63.9414
7.778000	 63.9194
7.796000	 63.8928
7.814000	 63.8426
7.832000	 63.7966
7.850000	 63.7764
7.868000	 63.7903
7.886000	 63.8433
7.904000	 63.9014
7.922000	 63.914
7.940000	 63.8828
7.958000	 63.8405
7.976000	 63.7992
7.994000	 63.7668
8.012000	 63.7633
8.030000	 63.7918
8.048000	 63.8252
8.065999	 63.8375
8.084000	 63.8272
8.102000	 63.8104
8.120000	 63.801
8.138000	 63.804
8.155999	 63.8157
8.173999	 63.8255
8.192000	 63.818
8.210000	 63.7871
8.228000	 63.7519
8.246000	 63.74
8.263999	 63.7556
8.282000	 63.7828
8.300000	 63.8109
8.318000	 63.8305
8.336000	 63.8175
8.353999	 63.7555
8.372000	 63.6683
8.390000	 63.606
8.408000	 63.6032
8.426000	 63.6577
8.443999	 63.7384
8.462000	 63.8052
8.480000	 63.8327
8.498000	 63.8267
8.516000	 63.8169
8.533999	 63.8252
8.552000	 63.8384
8.570000	 63.82
8.588000	 63.7548
8.606000	 63.6729
8.624000	 63.6206
8.641999	 63.6129
8.660000	 63.6274
8.678000	 63.6392
8.696000	 63.6466
8.714000	 63.6603
8.731999	 63.6816
8.750000	 63.6973
8.768000	 63.6922
8.786000	 63.6632
8.804000	 63.6226
8.821999	 63.5889
8.840000	 63.5744
8.858000	 63.5805
8.876000	 63.6031
8.894000	 63.6367
8.911999	 63.6716
8.930000	 63.6924
8.948000	 63.6862
8.966000	 63.6567
8.984000	 63.6308
9.001999	 63.6393
9.020000	 63.6847
9.038000	 63.7357
9.056000	 63.7595
9.074000	 63.7569
9.092000	 63.7557
9.109999	 63.7701
9.128000	 63.7799
9.146000	 63.7582
9.164000	 63.7093
9.182000	 63.6669
9.199999	 63.6601
9.218000	 63.6913
9.236000	 63.7391
9.254000	 63.7748
9.272000	 63.7759
9.289999	 63.7365
9.308000	 63.6709
9.326000	 63.6092
9.344000	 63.5809
9.362000	 63.5974
9.379999	 63.6465
9.398000	 63.6998
9.416000	 63.7289
9.434000	 63.7176
9.452000	 63.6703
9.469999	 63.6126
9.488000	 63.5796
9.506000	 63.5937
9.524000	 63.6467
9.542000	 63.7055
9.560000	 63.7365
9.577999	 63.7267
9.596000	 63.6859
9.614000	 63.6329
9.632000	 63.5817
9.650000	 63.5386
9.667999	 63.5066
9.686000	 63.4932
9.704000	 63.5077
9.722000	 63.5529
9.740000	 63.6179
9.757999	 63.6791
9.776000	 63.7116
9.794000	 63.7032
9.812000	 63.6626
9.830000	 63.6143
9.847999	 63.5846
9.866000	 63.5879
9.884000	 63.6215
9.902000	 63.6672
9.920000	 63.702
9.937999	 63.7097
9.956000	 63.6902
9.974000	 63.659
9.992000	 63.6373
10.01	63.6393
10.028	63.6645
10.046	63.6981
10.064	63.7238
10.082	63.7329
10.1	63.7289
10.118	63.7221
10.136	63.7211
10.154	63.7283
10.172	63.7403
10.19	63.7511
10.208	63.7572
10.226	63.7585
10.244	63.7562
10.262	63.7512
10.28	63.7418
10.298	63.7256
10.316	63.7011
10.334	63.6692
10.352	63.6332
10.37	63.5962
10.388	63.5591
10.406	63.5211
10.424	63.4831
10.442	63.4502
10.46	63.4289
10.478	63.4235
10.496	63.4316
10.514	63.4468
10.532	63.4608
10.55	63.4668
10.568	63.4612
10.586	63.4434
10.604	63.4164
10.622	63.3861
10.64	63.3605
10.658	63.3483
10.676	63.3562
10.694	63.3856
10.712	63.4327
10.73	63.4889
10.748	63.5439
10.766	63.5874
10.784	63.6128
10.802	63.6189
10.82	63.6111
10.838	63.5998
10.856	63.5945
10.874	63.5997
10.892	63.6128
10.91	63.6264
10.928	63.6341
10.946	63.6337
10.964	63.6283
10.982	63.6242
11	63.6254
11.018	63.6317
11.036	63.638
11.054	63.6368
11.072	63.6232
11.09	63.5974
11.108	63.5636
11.126	63.5281
11.144	63.4948
11.162	63.4647
11.18	63.437
11.198	63.412
11.216	63.3935
11.234	63.3881
11.252	63.4016
11.27	63.4357
11.288	63.4851
11.306	63.5395
11.324	63.5867
11.342	63.6183
11.36	63.6317
11.378	63.63
11.396	63.6189
11.414	63.6041
11.432	63.5895
11.45	63.5775
11.468	63.571
11.486	63.5727
11.504	63.5855
11.522	63.6094
11.54	63.6403
11.558	63.6699
11.576	63.688
11.594	63.6868
11.612	63.6635
11.63	63.6215
11.648	63.568
11.666	63.5118
11.684	63.4603
11.702	63.4183
11.72	63.3879
11.738	63.3712
11.756	63.3701
11.774	63.3865
11.792	63.4202
11.81	63.4676
11.828	63.5207
11.846	63.5691
11.864	63.6031
11.882	63.6173
11.9	63.6121
11.918	63.5933
11.936	63.5705
11.954	63.5527
11.972	63.5458
11.99	63.5507
12.008	63.5627
12.026	63.5741
12.044	63.5761
12.062	63.5632
12.08	63.5346
12.098	63.4944
12.116	63.4505
12.134	63.4122
12.152	63.3869
12.17	63.3788
12.188	63.3881
12.206	63.4117
12.224	63.4443
12.242	63.481
12.26	63.5179
12.278	63.5523
12.296	63.5827
12.314	63.6078
12.332	63.6262
12.35	63.6361
12.368	63.6359
12.386	63.6244
12.404	63.6016
12.422	63.5687
12.44	63.5286
12.458	63.4847
12.476	63.4413
12.494	63.4023
12.512	63.3707
12.53	63.3482
12.548	63.3344
12.566	63.3273
12.584	63.3236
12.602	63.3196
12.62	63.3122
12.638	63.3
12.656	63.2843
12.674	63.2687
12.692	63.2577
12.71	63.2564
12.728	63.2682
12.746	63.2937
12.764	63.3303
12.782	63.3728
12.8	63.4145
12.818	63.4492
12.836	63.4726
12.854	63.484
12.872	63.4858
12.89	63.4827
12.908	63.4801
12.926	63.483
12.944	63.4941
12.962	63.5141
12.98	63.5407
12.998	63.5703
13.016	63.5988
13.034	63.6218
13.052	63.6357
13.07	63.6379
13.088	63.6267
13.106	63.6014
13.124	63.5626
13.142	63.5113
13.16	63.4501
13.178	63.3826
13.196	63.3136
13.214	63.2482
13.232	63.1912
13.25	63.1466
13.268	63.1169
13.286	63.1031
13.304	63.1045
13.322	63.1191
13.34	63.144
13.358	63.1759
13.376	63.2115
13.394	63.2475
13.412	63.2812
13.43	63.3106
13.448	63.3343
13.466	63.3515
13.484	63.3617
13.502	63.365
13.52	63.3616
13.538	63.3518
13.556	63.3361
13.574	63.3155
13.592	63.2913
13.61	63.2657
13.628	63.2412
13.646	63.2207
13.664	63.2072
13.682	63.2034
13.7	63.2106
13.718	63.2286
13.736	63.2552
13.754	63.2868
13.772	63.3191
13.79	63.3477
13.808	63.3689
13.826	63.3811
13.844	63.3839
13.862	63.3787
13.88	63.3676
13.898	63.353
13.916	63.3371
13.934	63.321
13.952	63.3051
13.97	63.2887
13.988	63.2705
14.006	63.2491
14.024	63.2238
14.042	63.1946
14.06	63.1625
14.078	63.129
14.096	63.0964
14.114	63.067
14.132	63.0431
14.15	63.0265
14.168	63.0185
14.186	63.0196
14.204	63.0293
14.222	63.0462
14.24	63.0676
14.258	63.0905
14.276	63.1115
14.294	63.1277
14.312	63.1371
14.33	63.1392
14.348	63.1351
14.366	63.1273
14.384	63.1196
14.402	63.1159
14.42	63.1194
14.438	63.1317
14.456	63.1525
14.474	63.1796
14.492	63.2094
14.51	63.2372
14.528	63.2588
14.546	63.2718
14.564	63.2759
14.582	63.2726
14.6	63.2658
14.618	63.2601
14.636	63.2608
14.654	63.2708
14.672	63.2911
14.69	63.32
14.708	63.3535
14.726	63.3857
14.744	63.4096
14.762	63.4198
14.78	63.413
14.798	63.3886
14.816	63.3485
14.834	63.2972
14.852	63.2417
14.87	63.1888
14.888	63.1442
14.906	63.112
14.924	63.0944
14.942	63.0905
14.96	63.0973
14.978	63.111
14.996	63.1277
15.014	63.1441
15.032	63.1578
15.05	63.1691
15.068	63.1793
15.086	63.191
15.104	63.2065
15.122	63.2282
15.14	63.2564
15.158	63.29
15.176	63.3266
15.194	63.3623
15.212	63.392
15.23	63.4118
15.248	63.4193
15.266	63.4128
15.284	63.3936
15.302	63.3656
15.32	63.3333
15.338	63.3014
15.356	63.2755
15.374	63.2601
15.392	63.2571
15.41	63.2673
15.428	63.2898
15.446	63.3212
15.464	63.3575
15.482	63.3947
15.5	63.4282
15.518	63.4546
15.536	63.4725
15.554	63.4809
15.572	63.4802
15.59	63.4718
15.608	63.457
15.626	63.4372
15.644	63.4136
15.662	63.387
15.68	63.3574
15.698	63.3245
15.716	63.2873
15.734	63.245
15.752	63.1976
15.77	63.1455
15.788	63.09
15.806	63.0333
15.824	62.978
15.842	62.9273
15.86	62.8857
15.878	62.8566
15.896	62.8436
15.914	62.8505
15.932	62.8796
15.95	62.932
15.968	63.008
15.986	63.1052
16.004	63.2197
16.022	63.3472
16.04	63.4793
16.058	63.6082
16.076	63.7265
16.094	63.824
16.112	63.8927
16.13	63.9275
16.148	63.9227
16.166	63.8769
16.184	63.792
16.202	63.6705
16.22	63.522
16.238	63.3552
16.256	63.1792
16.274	63.0096
16.292	62.8567
16.31	62.7299
16.328	62.6409
16.346	62.5941
16.364	62.5929
16.382	62.638
16.4	62.7253
16.418	62.8515
16.436	63.0068
16.454	63.1817
16.472	63.3685
16.49	63.5543
16.508	63.7312
16.526	63.8931
16.544	64.0317
16.562	64.1448
16.58	64.2302
16.598	64.2884
16.616	64.3225
16.634	64.3348
16.652	64.3326
16.67	64.3204
16.688	64.303
16.706	64.2874
16.724	64.2758
16.742	64.271
16.76	64.2744
16.778	64.2856
16.796	64.3025
16.814	64.3213
16.832	64.3395
16.85	64.3508
16.868	64.3521
16.886	64.3399
16.904	64.3111
16.922	64.266
16.94	64.2042
16.958	64.1299
16.976	64.0452
16.994	63.9569
17.012	63.8699
17.03	63.7881
17.048	63.7175
17.066	63.659
17.084	63.6147
17.102	63.5822
17.12	63.5602
17.138	63.5417
17.156	63.5208
17.174	63.4922
17.192	63.4458
17.21	63.3787
17.228	63.284
17.246	63.1614
17.264	63.0092
17.282	62.8326
17.3	62.6352
17.318	62.425
17.336	62.2128
17.354	62.0045
17.372	61.8161
17.39	61.6519
17.408	61.5243
17.426	61.4371
17.444	61.3946
17.462	61.3969
17.48	61.4428
17.498	61.5278
17.516	61.645
17.534	61.7896
17.552	61.9485
17.57	62.1179
17.588	62.2847
17.606	62.4452
17.624	62.5911
17.642	62.7191
17.66	62.827
17.678	62.9134
17.696	62.9791
17.714	63.0272
17.732	63.061
17.75	63.0834
17.768	63.1005
17.786	63.1144
17.804	63.1316
17.822	63.1529
17.84	63.1823
17.858	63.2194
17.876	63.2653
17.894	63.3178
17.912	63.3762
17.93	63.437
17.948	63.4994
17.966	63.5587
17.984	63.6138
18.002	63.6614
18.02	63.7005
18.038	63.7296
18.056	63.749
18.074	63.7584
18.092	63.7599
18.11	63.7539
18.128	63.7432
18.146	63.7285
18.164	63.7128
18.182	63.6965
18.2	63.6813
18.218	63.6669
18.236	63.6541
18.254	63.641
18.272	63.6275
18.29	63.6105
18.308	63.5898
18.326	63.5617
18.344	63.5258
18.362	63.4791
18.38	63.4216
18.398	63.352
18.416	63.2711
18.434	63.179
18.452	63.0787
18.47	62.9715
18.488	62.8621
18.506	62.7517
18.524	62.6471
18.542	62.5494
18.56	62.4649
18.578	62.3941
18.596	62.3428
18.614	62.3111
18.632	62.3025
18.65	62.3167
18.668	62.3548
18.686	62.416
18.704	62.4983
18.722	62.6006
18.74	62.7189
18.758	62.8518
18.776	62.9943
18.794	63.1446
18.812	63.2973
18.83	63.4506
18.848	63.5993
18.866	63.7418
18.884	63.8734
18.902	63.9928
18.92	64.0965
18.938	64.1835
18.956	64.2512
18.974	64.2995
18.992	64.3267
19.01	64.3333
19.028	64.3189
19.046	64.2846
19.064	64.231
19.082	64.1597
19.1	64.0727
19.118	63.9716
19.136	63.8594
19.154	63.7379
19.172	63.6112
19.19	63.4805
19.208	63.3505
19.226	63.222
19.244	63.0999
19.262	62.9843
19.28	62.8794
19.298	62.785
19.316	62.7038
19.334	62.6356
19.352	62.5813
19.37	62.5408
19.388	62.513
19.406	62.498
19.424	62.4936
19.442	62.4997
19.46	62.5134
19.478	62.5345
19.496	62.5604
19.514	62.5907
19.532	62.6234
19.55	62.6573
19.568	62.6918
19.586	62.7259
19.604	62.7594
19.622	62.7912
19.64	62.8215
19.658	62.8502
19.676	62.8772
19.694	62.9026
19.712	62.9264
19.73	62.9491
19.748	62.9707
19.766	62.9915
19.784	63.0116
19.802	63.0313
19.82	63.0506
19.838	63.0698
19.856	63.089
19.874	63.1082
19.892	63.1273
19.91	63.1465
19.928	63.1653
19.946	63.1839
19.964	63.2017
19.982	63.2186
20	63.2338
20.018	63.2471
20.036	63.2579
20.054	63.2653
20.072	63.2692
20.09	63.2684
20.108	63.2631
20.126	63.252
20.144	63.2353
20.162	63.2125
20.18	63.1833
20.198	63.1482
20.216	63.1072
20.234	63.0606
20.252	63.0096
20.27	62.954
20.288	62.8963
20.306	62.8362
20.324	62.7758
20.342	62.7165
20.36	62.6585
20.378	62.6044
20.396	62.5535
20.414	62.5078
20.432	62.4674
20.45	62.4328
20.468	62.4044
20.486	62.382
20.504	62.3656
20.522	62.3551
20.54	62.3494
20.558	62.3488
20.576	62.352
20.594	62.3585
20.612	62.3681
20.63	62.3795
20.648	62.3928
20.666	62.4069
20.684	62.422
20.702	62.4373
20.72	62.4525
20.738	62.4675
20.756	62.4822
20.774	62.4966
20.792	62.5103
20.81	62.5233
20.828	62.5356
20.846	62.5475
20.864	62.5589
20.882	62.5703
20.9	62.5814
20.918	62.5927
20.936	62.6047
20.954	62.6172
20.972	62.631
20.99	62.6458
21.008	62.6623
21.026	62.6807
21.044	62.7009
21.062	62.7235
21.08	62.7483
21.098	62.7753
21.116	62.8046
21.134	62.836
21.152	62.8691
21.17	62.9041
21.188	62.94
21.206	62.9769
21.224	63.0143
21.242	63.0515
21.26	63.0887
21.278	63.1248
21.296	63.1598
21.314	63.1933
21.332	63.2247
21.35	63.254
21.368	63.2812
21.386	63.3059
21.404	63.3283
21.422	63.3486
21.44	63.3667
21.458	63.3831
21.476	63.3981
21.494	63.4118
21.512	63.4248
21.53	63.4371
21.548	63.449
21.566	63.461
21.584	63.4727
21.602	63.4843
21.62	63.4958
21.638	63.507
21.656	63.5174
21.674	63.5274
21.692	63.536
21.71	63.5429
21.728	63.5482
21.746	63.5508
21.764	63.5511
21.782	63.5484
21.8	63.5422
21.818	63.5328
21.836	63.52
21.854	63.5038
21.872	63.4843
21.89	63.462
21.908	63.4365
21.926	63.409
21.944	63.3799
21.962	63.349
21.98	63.3179
21.998	63.2864
22.016	63.2551
22.034	63.2252
22.052	63.1962
22.07	63.1691
22.088	63.1446
22.106	63.1223
22.124	63.103
22.142	63.087
22.16	63.074
22.178	63.0643
22.196	63.058
22.214	63.0546
22.232	63.0541
22.25	63.0565
22.268	63.061
22.286	63.0672
22.304	63.0753
22.322	63.0839
22.34	63.0931
22.358	63.1025
22.376	63.1106
22.394	63.1178
22.412	63.1233
22.43	63.1258
22.448	63.1259
22.466	63.1225
22.484	63.1148
22.502	63.1032
22.52	63.0872
22.538	63.0663
22.556	63.0407
22.574	63.0107
22.592	62.9759
22.61	62.9367
22.628	62.8943
22.646	62.848
22.664	62.7988
22.682	62.7484
22.7	62.6959
22.718	62.6428
22.736	62.5911
22.754	62.5396
22.772	62.4902
22.79	62.4447
22.808	62.4021
22.826	62.364
22.844	62.3315
22.862	62.304
22.88	62.2826
22.898	62.2683
22.916	62.2604
22.934	62.2592
22.952	62.2649
22.97	62.2772
22.988	62.2949
23.006	62.3183
23.024	62.3469
23.042	62.3782
23.06	62.4125
23.078	62.4493
23.096	62.4853
23.114	62.521
23.132	62.5557
23.15	62.5861
23.168	62.6127
23.186	62.6351
23.204	62.6506
23.222	62.6594
23.24	62.6616
23.258	62.6559
23.276	62.6421
23.294	62.6205
23.312	62.5915
23.33	62.5544
23.348	62.51
23.366	62.46
23.384	62.4037
23.402	62.342
23.42	62.2778
23.438	62.2106
23.456	62.1409
23.474	62.0718
23.492	62.0037
23.51	61.936
23.528	61.8718
23.546	61.8115
23.564	61.7546
23.582	61.7027
23.6	61.6566
23.618	61.6157
23.636	61.5802
23.654	61.5506
23.672	61.5266
23.69	61.5075
23.708	61.4928
23.726	61.4831
23.744	61.4769
23.762	61.4732
23.78	61.4728
23.798	61.4746
23.816	61.477
23.834	61.4808
23.852	61.4855
23.87	61.49
23.888	61.4941
23.906	61.4983
23.924	61.503
23.942	61.5078
23.96	61.513
23.978	61.5204
23.996	61.5301
24.014	61.5416
24.032	61.5568
24.05	61.5768
24.068	61.6007
24.086	61.6293
24.104	61.6636
24.122	61.7033
24.14	61.7481
24.158	61.7978
24.176	61.8533
24.194	61.9134
24.212	61.9759
24.23	62.0415
24.248	62.1102
24.266	62.1775
24.284	62.2415
24.302	62.3048
24.32	62.3628
24.338	62.4109
24.356	62.4526
24.374	62.4848
24.392	62.5025
24.41	62.5063
24.428	62.4968
24.446	62.4712
24.464	62.4278
24.482	62.3678
24.5	62.2921
24.518	62.2009
24.536	62.0924
24.554	61.9702
24.572	61.8387
24.59	61.6954
24.608	61.5418
24.626	61.3852
24.644	61.2279
24.662	61.0658
24.68	60.907
24.698	60.7586
24.716	60.6154
24.734	60.4815
24.752	60.3643
24.77	60.2642
24.788	60.1791
24.806	60.1141
24.824	60.0728
24.842	60.0524
24.86	60.0543
24.878	60.0806
24.896	60.1324
24.914	60.2078
24.932	60.3045
24.95	60.4225
24.968	60.5639
24.986	60.7225
25.004	60.892
25.022	61.0769
25.04	61.2741
25.058	61.4751
25.076	61.6767
25.094	61.8839
25.112	62.0895
25.13	62.2862
25.148	62.4779
25.166	62.663
25.184	62.8351
25.202	62.9914
25.22	63.1354
25.238	63.2642
25.256	63.3745
25.274	63.4671
25.292	63.5425
25.31	63.5999
25.328	63.6385
25.346	63.6584
25.364	63.661
25.382	63.6472
25.4	63.6166
25.418	63.5694
25.436	63.5072
25.454	63.4311
25.472	63.3403
25.49	63.2353
25.508	63.1174
25.526	62.9867
25.544	62.843
25.562	62.6865
25.58	62.5178
25.598	62.3369
25.616	62.1437
25.634	61.9379
25.652	61.7192
25.67	61.4879
25.688	61.2441
25.706	60.988
25.724	60.7192
25.742	60.4378
25.76	60.1451
25.778	59.8424
25.796	59.5288
25.814	59.2048
25.832	58.8713
25.85	58.5289
25.868	58.1758
25.886	57.8146
25.904	57.4484
25.922	57.0769
25.94	56.6986
25.958	56.3177
25.976	55.9384
25.994	55.5572
26.012	55.1751
26.03	54.7994
26.048	54.4359
26.066	54.0764
26.084	53.727
26.102	53.3987
26.12	53.0978
26.138	52.8145
26.156	52.5572
26.174	52.3366
26.192	52.1555
26.21	52.006
26.228	51.8974
26.246	51.8395
26.264	51.8338
26.282	51.8753
26.3	51.9663
26.318	52.109
26.336	52.3066
26.354	52.5555
26.372	52.8492
26.39	53.182
26.408	53.565
26.426	53.9897
26.444	54.4391
26.462	54.9005
26.48	55.3935
26.498	55.9034
26.516	56.4051
26.534	56.8818
26.552	57.3584
26.57	57.8167
26.588	58.2297
26.606	58.5812
26.624	58.8953
26.642	59.1555
26.66	59.3394
26.678	59.4341
26.696	59.4571
26.714	59.3997
26.732	59.2501
26.75	59.0001
26.768	58.6564
26.786	58.2223
26.804	57.7003
26.822	57.0881
26.84	56.3799
26.858	55.5904
26.876	54.7354
26.894	53.8184
26.912	52.8223
26.93	51.7698
26.948	50.6865
26.966	49.5315
26.984	48.2053
27.002	46.9216
27.02	45.9145
27.028	45.6467