File: Bakgrunnsmateriale/MATLAB/FTIR/ftir_data/subAa/Mapping_121/BZ1503107-1_t58_cm-1.asc
PE IR       SPECTRUM    SPECTRUM    ASCII       PEDS        1.60
  -1
BZ60B3~1.ASC
17/04/07
17:59:44.00
17/04/07
17:59:44.00
tln
$BZ1503107-1_t0058$<tbV0>[7.8,0.0,8.0,0.0,27,1,0]
370
64

2002,4.07
MIRTGS : RIGHTBACK : INTERNAL 2
MIR : ON : INTERNAL 2
OPTKBR

0.200000
8
8.000000
FILLER
RATIO
SPECTRUM
UNLOCKED 256

DOUBLE
64
COMBINED
1
0
0

1.000000
RATIO

1
0
TRUE
51149
0
LEFT NOT FITTED RIGHT NOT FITTED 0
NONE
NONE
15600
12
4.427000
51148
TRUE
1 0 8 72 0 0 0 0

15798

#HDR
-1
-1
#GR
CM-1
%T
2.38419e-05
0.0
5000
-1.000000
4631
8
82.9054
49.0258
#DATA
5000	65.79
4996	66.5371
4992	66.5816
4988	66.4314
4984	65.9927
4980	65.3787
4976	65.8458
4972	66.1723
4968	65.4088
4964	64.4286
4960	63.7136
4956	63.9079
4952	64.1325
4948	63.7371
4944	64.5244
4940	66.0093
4936	66.8293
4932	67.4134
4928	67.1717
4924	66.2455
4920	65.8243
4916	65.7322
4912	65.4443
4908	64.8046
4904	64.5994
4900	65.1194
4896	65.1578
4892	64.5869
4888	64.143
4884	64.0757
4880	64.3316
4876	64.6786
4872	64.967
4868	65.0187
4864	64.6523
4860	64.2797
4856	64.4588
4852	64.9652
4848	65.2207
4844	65.1221
4840	64.9497
4836	64.8127
4832	64.8074
4828	64.7586
4824	64.534
4820	64.516
4816	64.7001
4812	64.9083
4808	64.9838
4804	64.7525
4800	64.6104
4796	64.7766
4792	64.7888
4788	64.5783
4784	64.5556
4780	64.7579
4776	64.9013
4772	65.0162
4768	65.1883
4764	65.1365
4760	64.9038
4756	64.7949
4752	64.8188
4748	64.8755
4744	64.8383
4740	64.7275
4736	64.7134
4732	64.8364
4728	64.9836
4724	64.9797
4720	64.9596
4716	64.9427
4712	64.7497
4708	64.5677
4704	64.4268
4700	64.379
4696	64.7394
4692	65.1791
4688	65.1706
4684	65.0132
4680	64.9878
4676	64.9609
4672	64.9439
4668	64.7955
4664	64.6004
4660	64.774
4656	65.0618
4652	65.0925
4648	65.0381
4644	65.0006
4640	65.0262
4636	65.0129
4632	64.9556
4628	65.0882
4624	65.1301
4620	65.0286
4616	65.0794
4612	65.1428
4608	65.1147
4604	65.0283
4600	64.9163
4596	64.8185
4592	64.7167
4588	64.6862
4584	64.7566
4580	64.9175
4576	65.1162
4572	65.1114
4568	64.8956
4564	64.7766
4560	64.9091
4556	65.2238
4552	65.5391
4548	65.5672
4544	65.2624
4540	64.9475
4536	64.8416
4532	64.9033
4528	64.9929
4524	65.1857
4520	65.4018
4516	65.3392
4512	65.2194
4508	65.2556
4504	65.1481
4500	64.9503
4496	64.8538
4492	64.6327
4488	64.5473
4484	64.8324
4480	64.961
4476	64.5649
4472	64.1778
4468	64.4776
4464	64.7115
4460	64.837
4456	64.9842
4452	65.561
4448	68.7576
4444	72.8758
4440	74.3438
4436	69.7244
4432	61.6381
4428	58.6689
4424	60.0621
4420	61.2901
4416	61.859
4412	63.3743
4408	64.6495
4404	64.777
4400	64.9306
4396	65.1661
4392	65.0004
4388	64.5801
4384	64.4374
4380	64.7339
4376	65.1313
4372	65.1872
4368	65.2264
4364	65.469
4360	65.5882
4356	65.4839
4352	65.3052
4348	65.2206
4344	65.1851
4340	65.0813
4336	65.1057
4332	65.2521
4328	65.2947
4324	65.2264
4320	65.1058
4316	64.9886
4312	64.9853
4308	65.0651
4304	65.1031
4300	65.1096
4296	65.0304
4292	64.9356
4288	64.9856
4284	65.088
4280	65.2392
4276	65.3986
4272	65.4333
4268	65.3542
4264	65.2431
4260	65.2199
4256	65.2692
4252	65.3921
4248	65.4857
4244	65.4193
4240	65.4166
4236	65.4939
4232	65.3759
4228	65.14
4224	65.0758
4220	65.0856
4216	65.0469
4212	65.0945
4208	65.0889
4204	65.0013
4200	65.0089
4196	65.0656
4192	65.0798
4188	65.0316
4184	65.0094
4180	65.0397
4176	65.1119
4172	65.1796
4168	65.217
4164	65.2462
4160	65.1645
4156	65.0107
4152	64.9522
4148	65.0026
4144	65.041
4140	64.9428
4136	64.823
4132	64.8157
4128	64.8451
4124	64.9612
4120	65.0647
4116	65.006
4112	65.0212
4108	65.0988
4104	65.1337
4100	65.2048
4096	65.2311
4092	65.1847
4088	65.1024
4084	64.9467
4080	64.759
4076	64.65
4072	64.6785
4068	64.7829
4064	64.9518
4060	65.1613
4056	65.2424
4052	65.179
4048	65.041
4044	64.8801
4040	64.8649
4036	64.9778
4032	65.037
4028	64.9991
4024	64.925
4020	64.9235
4016	64.9812
4012	64.9839
4008	65.0604
4004	65.2518
4000	65.2785
3996	65.1404
3992	65.0581
3988	65.0597
3984	65.1731
3980	65.3614
3976	65.4079
3972	65.2089
3968	64.9616
3964	64.9819
3960	65.1853
3956	65.2436
3952	65.1412
3948	65.2112
3944	65.4421
3940	65.3619
3936	65.0897
3932	65.0215
3928	65.0393
3924	65.0249
3920	65.1181
3916	65.2942
3912	65.4148
3908	65.4278
3904	65.3545
3900	65.2032
3896	65.1079
3892	65.2094
3888	65.2608
3884	65.2199
3880	65.3323
3876	65.4056
3872	65.2278
3868	65.065
3864	65.1146
3860	65.2094
3856	65.1987
3852	65.188
3848	65.1865
3844	65.0746
3840	64.9976
3836	65.0471
3832	65.0936
3828	65.104
3824	65.1046
3820	65.1243
3816	65.1859
3812	65.1536
3808	65.0514
3804	65.1205
3800	65.2231
3796	65.1412
3792	65.0236
3788	65.1073
3784	65.2792
3780	65.2185
3776	65.1027
3772	65.1186
3768	65.1727
3764	65.2344
3760	65.1976
3756	65.064
3752	64.9286
3748	64.9014
3744	65.0235
3740	65.1098
3736	65.0408
3732	64.9634
3728	64.9848
3724	65.0458
3720	65.1307
3716	65.2537
3712	65.3263
3708	65.3252
3704	65.2973
3700	65.2047
3696	65.1213
3692	65.0931
3688	65.1269
3684	65.2478
3680	65.3204
3676	65.2472
3672	65.0762
3668	64.9468
3664	64.9541
3660	65.0416
3656	65.1046
3652	65.0798
3648	65.0098
3644	65.0313
3640	65.124
3636	65.0974
3632	64.971
3628	64.9437
3624	65.0032
3620	65.0715
3616	65.1338
3612	65.1669
3608	65.2242
3604	65.2293
3600	65.1213
3596	65.0262
3592	64.9926
3588	65.0283
3584	65.0885
3580	65.1052
3576	65.1148
3572	65.1323
3568	65.1329
3564	65.1122
3560	65.0831
3556	65.0673
3552	65.0789
3548	65.0797
3544	65.0386
3540	65.0344
3536	65.0419
3532	65.0286
3528	65.1083
3524	65.1806
3520	65.1428
3516	65.1095
3512	65.1371
3508	65.2363
3504	65.2879
3500	65.2303
3496	65.2009
3492	65.2339
3488	65.2718
3484	65.2855
3480	65.2806
3476	65.2371
3472	65.1172
3468	64.9676
3464	64.8751
3460	64.9223
3456	65.0919
3452	65.1912
3448	65.161
3444	65.1138
3440	65.0916
3436	65.0739
3432	65.007
3428	64.9761
3424	65.0608
3420	65.0979
3416	65.0083
3412	64.9933
3408	65.1126
3404	65.1089
3400	64.9684
3396	64.9773
3392	65.0942
3388	65.1105
3384	65.0805
3380	65.0889
3376	65.169
3372	65.2519
3368	65.1794
3364	65.0624
3360	64.9981
3356	64.8851
3352	64.8721
3348	64.9549
3344	64.9325
3340	64.9522
3336	65.0639
3332	65.0806
3328	65.0309
3324	64.9931
3320	64.9647
3316	65.017
3312	65.099
3308	65.1332
3304	65.1481
3300	65.0836
3296	64.9364
3292	64.8546
3288	64.9174
3284	65.0572
3280	65.1388
3276	65.0574
3272	64.9178
3268	64.8997
3264	64.998
3260	65.1305
3256	65.1777
3252	65.086
3248	64.9979
3244	65.0387
3240	65.1464
3236	65.195
3232	65.1833
3228	65.1546
3224	65.0808
3220	65.0022
3216	65.0133
3212	65.0736
3208	65.1013
3204	65.0564
3200	64.9541
3196	64.9294
3192	65.0337
3188	65.1224
3184	65.1289
3180	65.1203
3176	65.0656
3172	65.0041
3168	65.004
3164	65.0205
3160	65.0161
3156	65.0203
3152	65.0721
3148	65.0646
3144	64.9886
3140	64.9445
3136	64.9151
3132	64.8544
3128	64.8941
3124	65.0484
3120	65.1066
3116	65.0951
3112	65.0596
3108	65.0168
3104	65.0702
3100	65.2047
3096	65.2228
3092	65.0445
3088	64.9322
3084	64.9688
3080	64.977
3076	64.9666
3072	65
3068	65.0192
3064	65.0611
3060	65.1422
3056	65.1192
3052	64.9799
3048	64.8421
3044	64.8092
3040	64.8861
3036	64.9754
3032	65.0549
3028	65.0973
3024	65.085
3020	65.0321
3016	64.986
3012	65.0449
3008	65.0972
3004	65.0553
3000	65.045
2996	65.0827
2992	65.0687
2988	65.0521
2984	65.0765
2980	65.0388
2976	64.9157
2972	64.7908
2968	64.8014
2964	64.8679
2960	64.827
2956	64.8261
2952	64.9238
2948	64.9874
2944	64.9806
2940	64.9642
2936	64.9381
2932	64.9294
2928	65.0018
2924	64.9863
2920	64.8913
2916	64.8823
2912	64.9297
2908	64.9647
2904	64.9542
2900	64.9374
2896	64.9714
2892	65.01
2888	65.0154
2884	65.0051
2880	64.9964
2876	64.9758
2872	64.9258
2868	64.8996
2864	64.9369
2860	64.9393
2856	64.9021
2852	64.9773
2848	65.0477
2844	64.9961
2840	64.9392
2836	64.9131
2832	64.93
2828	64.9665
2824	64.9685
2820	64.9363
2816	64.8766
2812	64.8653
2808	64.9376
2804	65.0088
2800	65.0289
2796	64.9753
2792	64.9092
2788	64.8861
2784	64.8721
2780	64.9036
2776	64.9676
2772	64.9562
2768	64.9164
2764	64.9409
2760	64.9653
2756	64.9582
2752	64.9331
2748	64.9257
2744	64.9351
2740	64.9006
2736	64.8956
2732	64.9169
2728	64.9042
2724	64.8816
2720	64.8711
2716	64.8897
2712	64.8849
2708	64.8719
2704	64.8916
2700	64.8933
2696	64.9124
2692	64.9642
2688	64.9697
2684	64.9492
2680	64.9112
2676	64.8688
2672	64.9101
2668	64.9524
2664	64.8854
2660	64.818
2656	64.8229
2652	64.8727
2648	64.9331
2644	64.9396
2640	64.9127
2636	64.876
2632	64.8321
2628	64.8059
2624	64.7714
2620	64.7724
2616	64.85
2612	64.903
2608	64.8721
2604	64.8212
2600	64.816
2596	64.8521
2592	64.8794
2588	64.8996
2584	64.8802
2580	64.8141
2576	64.7984
2572	64.8094
2568	64.7952
2564	64.8009
2560	64.835
2556	64.866
2552	64.855
2548	64.8087
2544	64.7846
2540	64.7715
2536	64.7377
2532	64.7474
2528	64.811
2524	64.8846
2520	64.979
2516	65.0572
2512	65.0654
2508	65.0007
2504	64.9162
2500	64.8998
2496	64.9208
2492	64.9403
2488	64.962
2484	64.9531
2480	64.9153
2476	64.8178
2472	64.7069
2468	64.7072
2464	64.7989
2460	64.8669
2456	64.8643
2452	64.8386
2448	64.832
2444	64.825
2440	64.8134
2436	64.8467
2432	64.8973
2428	64.9076
2424	64.9254
2420	64.926
2416	64.8562
2412	64.8128
2408	64.8178
2404	64.7741
2400	64.7273
2396	64.7775
2392	64.8379
2388	64.8522
2384	64.8767
2380	64.8973
2376	64.8893
2372	64.8458
2368	64.7852
2364	64.7593
2360	64.7605
2356	64.754
2352	64.7881
2348	64.8378
2344	64.7982
2340	64.7426
2336	64.7344
2332	64.7043
2328	64.6861
2324	64.7239
2320	64.7601
2316	64.7887
2312	64.8301
2308	64.8341
2304	64.8233
2300	64.8504
2296	64.8249
2292	64.7031
2288	64.6454
2284	64.7096
2280	64.7409
2276	64.7155
2272	64.6949
2268	64.7206
2264	64.7927
2260	64.8015
2256	64.7504
2252	64.7032
2248	64.6715
2244	64.6994
2240	64.7609
2236	64.7652
2232	64.7322
2228	64.7586
2224	64.8409
2220	64.8845
2216	64.8494
2212	64.7784
2208	64.7365
2204	64.724
2200	64.7046
2196	64.6741
2192	64.6461
2188	64.6234
2184	64.6316
2180	64.6953
2176	64.6952
2172	64.5956
2168	64.5806
2164	64.6468
2160	64.6729
2156	64.6653
2152	64.6881
2148	64.7284
2144	64.7616
2140	64.7672
2136	64.7183
2132	64.6858
2128	64.7656
2124	64.8387
2120	64.8065
2116	64.7774
2112	64.7414
2108	64.6685
2104	64.6438
2100	64.6695
2096	64.7095
2092	64.7088
2088	64.6343
2084	64.609
2080	64.6304
2076	64.5922
2072	64.5553
2068	64.5483
2064	64.5961
2060	64.6514
2056	64.6374
2052	64.6481
2048	64.6752
2044	64.6672
2040	64.669
2036	64.6589
2032	64.6005
2028	64.5154
2024	64.469
2020	64.5236
2016	64.6429
2012	64.7405
2008	64.7192
2004	64.6057
2000	64.5392
1996	64.5403
1992	64.5794
1988	64.6189
1984	64.5887
1980	64.5393
1976	64.56
1972	64.6259
1968	64.6726
1964	64.6595
1960	64.5962
1956	64.5176
1952	64.5073
1948	64.5565
1944	64.5595
1940	64.5304
1936	64.5224
1932	64.5278
1928	64.5367
1924	64.5861
1920	64.6329
1916	64.6145
1912	64.5985
1908	64.6222
1904	64.6276
1900	64.5647
1896	64.4793
1892	64.4478
1888	64.4743
1884	64.5092
1880	64.4995
1876	64.4663
1872	64.4842
1868	64.5283
1864	64.5121
1860	64.4708
1856	64.4749
1852	64.492
1848	64.467
1844	64.4285
1840	64.4315
1836	64.4611
1832	64.4565
1828	64.4213
1824	64.4354
1820	64.4682
1816	64.4604
1812	64.4687
1808	64.4607
1804	64.3832
1800	64.3257
1796	64.3564
1792	64.4022
1788	64.3976
1784	64.3927
1780	64.3703
1776	64.3291
1772	64.3661
1768	64.4236
1764	64.3768
1760	64.3023
1756	64.3412
1752	64.3987
1748	64.3268
1744	64.231
1740	64.2236
1736	64.2254
1732	64.2196
1728	64.2332
1724	64.2019
1720	64.1959
1716	64.2183
1712	64.1667
1708	64.1492
1704	64.1778
1700	64.1921
1696	64.2141
1692	64.1939
1688	64.1584
1684	64.1704
1680	64.2109
1676	64.2382
1672	64.2196
1668	64.1862
1664	64.1805
1660	64.2053
1656	64.253
1652	64.2923
1648	64.3367
1644	64.3518
1640	64.2586
1636	64.1616
1632	64.1809
1628	64.2392
1624	64.226
1620	64.1949
1616	64.2228
1612	64.2302
1608	64.1757
1604	64.1624
1600	64.1924
1596	64.1911
1592	64.1523
1588	64.1143
1584	64.1092
1580	64.0653
1576	64.03
1572	64.0843
1568	64.1258
1564	64.1325
1560	64.1341
1556	64.1418
1552	64.1465
1548	64.1289
1544	64.1192
1540	64.1169
1536	64.1262
1532	64.1463
1528	64.1486
1524	64.1464
1520	64.1572
1516	64.1567
1512	64.1488
1508	64.1529
1504	64.1862
1500	64.2061
1496	64.1979
1492	64.1981
1488	64.1753
1484	64.1513
1480	64.1588
1476	64.1637
1472	64.1579
1468	64.1536
1464	64.1172
1460	64.0876
1456	64.111
1452	64.0965
1448	64.0418
1444	64.031
1440	64.0303
1436	64.0302
1432	64.0535
1428	64.0742
1424	64.1083
1420	64.1351
1416	64.1126
1412	64.0964
1408	64.1038
1404	64.0717
1400	64.0165
1396	63.9778
1392	63.9693
1388	63.9906
1384	63.9919
1380	63.9709
1376	64.0088
1372	64.1228
1368	64.1334
1364	63.9917
1360	63.9234
1356	63.9541
1352	63.9332
1348	63.938
1344	64.0104
1340	64.0099
1336	63.9864
1332	64.0115
1328	64.009
1324	63.992
1320	63.9921
1316	63.9725
1312	63.9431
1308	63.9304
1304	63.9438
1300	64.0255
1296	64.0806
1292	63.9957
1288	63.9231
1284	63.9473
1280	63.9706
1276	63.9484
1272	63.8721
1268	63.8251
1264	63.8666
1260	63.8791
1256	63.8561
1252	63.8887
1248	63.9163
1244	63.8886
1240	63.8436
1236	63.8151
1232	63.8157
1228	63.8154
1224	63.8021
1220	63.8181
1216	63.8829
1212	63.9229
1208	63.8706
1204	63.846
1200	63.8551
1196	63.7876
1192	63.727
1188	63.7558
1184	63.8075
1180	63.8038
1176	63.7568
1172	63.7251
1168	63.6811
1164	63.6362
1160	63.6564
1156	63.7168
1152	63.7624
1148	63.7539
1144	63.6493
1140	63.5453
1136	63.5542
1132	63.6446
1128	63.7309
1124	63.7841
1120	63.7257
1116	63.6721
1112	63.7734
1108	63.8234
1104	63.8017
1100	63.84
1096	63.8421
1092	63.7552
1088	63.6706
1084	63.7093
1080	63.7692
1076	63.7062
1072	63.6192
1068	63.6106
1064	63.6632
1060	63.6736
1056	63.6306
1052	63.6451
1048	63.6908
1044	63.7414
1040	63.7854
1036	63.7511
1032	63.6827
1028	63.7102
1024	63.791
1020	63.7486
1016	63.6946
1012	63.7114
1008	63.6899
1004	63.6735
1000	63.7029
996	 63.7115
992	 63.7196
988	 63.768
984	 63.76
980	 63.6917
976	 63.6932
972	 63.7407
968	 63.6814
964	 63.5834
960	 63.5671
956	 63.5491
952	 63.5453
948	 63.5806
944	 63.6209
940	 63.6853
936	 63.706
932	 63.6381
928	 63.5891
924	 63.6253
920	 63.5931
916	 63.4967
912	 63.5477
908	 63.667
904	 63.673
900	 63.5704
896	 63.4908
892	 63.5039
888	 63.563
884	 63.6435
880	 63.6958
876	 63.688
872	 63.6536
868	 63.6251
864	 63.6353
860	 63.6481
856	 63.6078
852	 63.5857
848	 63.655
844	 63.7563
840	 63.7828
836	 63.783
832	 63.7928
828	 63.7331
824	 63.632
820	 63.5423
816	 63.4808
812	 63.4625
808	 63.4698
804	 63.439
800	 63.3898
796	 63.4264
792	 63.5244
788	 63.5825
784	 63.5646
780	 63.5158
776	 63.448
772	 63.3789
768	 63.3743
764	 63.3688
760	 63.2912
756	 63.1886
752	 63.1511
748	 63.2031
744	 63.2932
740	 63.3324
736	 63.2495
732	 63.0974
728	 63.0323
724	 63.1469
720	 63.2864
716	 63.324
712	 63.2817
708	 63.1408
704	 62.9976
700	 63.0331
696	 63.1722
692	 63.3275
688	 63.4694
684	 63.4438
680	 63.4397
676	 63.4268
672	 63.173
668	 63.0976
664	 63.3126
660	 63.4599
656	 63.4889
652	 63.4126
648	 63.2939
644	 63.1678
640	 63.1727
636	 63.2862
632	 63.1109
628	 63.0442
624	 63.5468
620	 63.9488
616	 63.5303
612	 62.7879
608	 62.6815
604	 62.9237
600	 62.9981
596	 63.1327
592	 63.2203
588	 63.1612
584	 63.2181
580	 63.1899
576	 62.9337
572	 63.1379
568	 63.6265
564	 63.6192
560	 63.5372
556	 63.4991
552	 63.4178
548	 63.2949
544	 62.5815
540	 61.8081
536	 61.7679
532	 61.9605
528	 62.2316
524	 62.8756
520	 63.2531
516	 62.9987
512	 63.0243
508	 63.8388
504	 64.3077
500	 63.2673
496	 62.4384
492	 62.7213
488	 62.6077
484	 62.6463
480	 62.6117
476	 62.2685
472	 62.7754
468	 63.1095
464	 63.0376
460	 63.1479
456	 63.18
452	 63.4283
448	 63.8601
444	 63.9164
440	 63.2085
436	 62.3803
432	 62.4999
428	 63.8709
424	 65.4665
420	 65.9902
416	 63.6134
412	 58.7484
408	 54.9024
404	 53.3255
400	 55.1596
396	 58.1979
392	 56.6677
388	 51.6406
384	 49.0258
380	 54.4315
376	 70.7155
372	 81.584
370	 82.9054