File: Bakgrunnsmateriale/MATLAB/FTIR/ftir_data/subAa/Mapping_121/BZ1503107-1_e126.asc
PE IR       SPECTRUM    SPECTRUM    ASCII       PEDS        1.60
  -1
BZE0AA~1.ASC
17/04/07
20:31:16.00
17/04/07
20:31:42.00
tln
$BZ1503107-1_e0126$<ebV0>[-23.3,12.1,10.0,0.0,27,1,0]
27.028
64

2002,4.07
MIRTGS : RIGHTBACK : INTERNAL 2
MIR : ON : INTERNAL 2
OPTKBR

0.200000
8
8.000000
FILLER
SINGLE
SPECTRUM
UNLOCKED 256

DOUBLE

COMBINED
1
0
0

0.002000
BACKG

1
0
TRUE
51149
0
LEFT NOT FITTED RIGHT NOT FITTED 0
NONE
NONE
15600
12
4.427000
51148
TRUE
1 0 8 72 0 0 0 0

15798

#HDR
-1
-1
#GR
µM
EGY
2.38419e-05
0.0
2.000000
0.002000
12515
8
2.464176
0.007677
#DATA
2.000000	 0.780081
2.018000	 0.791841
2.036000	 0.813213
2.054000	 0.833790
2.072000	 0.858785
2.090000	 0.883210
2.108000	 0.904479
2.126000	 0.915363
2.144000	 0.917252
2.162000	 0.930961
2.180000	 0.958676
2.198000	 0.989325
2.216000	 1.012819
2.234000	 1.024590
2.252000	 0.807501
2.270000	 1.043265
2.288000	 1.058449
2.306000	 1.090091
2.324000	 1.129626
2.342000	 1.163629
2.360000	 1.187726
2.378000	 1.200395
2.396000	 1.213380
2.414000	 1.237435
2.432000	 1.259665
2.450000	 1.298458
2.468000	 1.342759
2.486000	 1.378344
2.504000	 1.405614
2.522000	 1.420924
2.540000	 1.430393
2.558000	 1.441347
2.576000	 1.452215
2.594000	 1.456602
2.612000	 1.499804
2.630000	 1.524789
2.648000	 1.557469
2.666000	 1.557337
2.684000	 1.581597
2.702000	 1.585886
2.720000	 1.577916
2.738000	 1.580211
2.756000	 1.585987
2.774000	 1.600591
2.792000	 1.614462
2.810000	 1.629413
2.828000	 1.634614
2.846000	 1.641317
2.864000	 1.630871
2.882000	 1.617951
2.900000	 1.608222
2.918000	 1.596975
2.936000	 1.603441
2.954000	 1.617094
2.972000	 1.638281
2.990000	 1.667984
3.008000	 1.700198
3.026000	 1.726320
3.044000	 1.752294
3.062000	 1.774089
3.080000	 1.786811
3.098000	 1.797510
3.116000	 1.802149
3.134000	 1.803635
3.152000	 1.808126
3.170000	 1.821325
3.188000	 1.835093
3.206000	 1.858605
3.224000	 1.884864
3.242000	 1.920319
3.260000	 1.946520
3.278000	 1.969600
3.296000	 1.990324
3.314000	 1.973061
3.332000	 2.035292
3.350000	 2.040447
3.368000	 1.978981
3.386000	 1.934317
3.404000	 1.838597
3.422000	 1.788138
3.440000	 1.941613
3.458000	 1.999014
3.476000	 2.015539
3.494000	 1.918777
3.512000	 2.026163
3.530000	 2.114847
3.548000	 2.155922
3.566000	 2.186916
3.584000	 2.210485
3.602000	 2.234937
3.620000	 2.251892
3.638000	 2.264454
3.656000	 2.267967
3.674000	 2.264393
3.692000	 2.259672
3.710000	 2.253858
3.728000	 2.248645
3.746000	 2.238568
3.764000	 2.231237
3.782000	 2.224277
3.800000	 2.226986
3.818000	 2.231707
3.836000	 2.235576
3.854000	 2.238986
3.872000	 2.251240
3.890000	 2.270373
3.908000	 2.287924
3.926000	 2.301831
3.944000	 2.315288
3.962000	 2.326531
3.980000	 2.332272
3.998000	 2.337545
4.016000	 2.334620
4.034000	 2.333918
4.052000	 2.323404
4.070000	 2.311303
4.088000	 2.303734
4.106000	 2.292984
4.124000	 2.278780
4.141999	 2.271718
4.160000	 2.265836
4.178000	 2.258288
4.196000	 2.254129
4.214000	 2.246751
4.232000	 2.239539
4.250000	 2.259586
4.268000	 2.272644
4.286000	 2.283491
4.304000	 2.299482
4.322000	 2.321841
4.340000	 2.340302
4.358000	 2.352557
4.375999	 2.366543
4.394000	 2.374699
4.412000	 2.380904
4.430000	 2.385521
4.448000	 2.387199
4.466000	 2.389352
4.484000	 2.385646
4.502000	 2.382099
4.520000	 2.376948
4.538000	 2.371498
4.556000	 2.363976
4.574000	 2.356447
4.592000	 2.349509
4.609999	 2.344328
4.628000	 2.342021
4.646000	 2.341935
4.664000	 2.342293
4.682000	 2.340738
4.700000	 2.341556
4.718000	 2.342930
4.736000	 2.345453
4.754000	 2.346182
4.772000	 2.345426
4.790000	 2.347403
4.808000	 2.353046
4.826000	 2.366697
4.843999	 2.381258
4.862000	 2.393782
4.880000	 2.412558
4.898000	 2.429155
4.916000	 2.438049
4.934000	 2.448119
4.952000	 2.454064
4.970000	 2.459583
4.988000	 2.463812
5.006000	 2.463456
5.024000	 2.459743
5.042000	 2.458538
5.060000	 2.452531
5.077999	 2.445325
5.096000	 2.439377
5.114000	 2.432853
5.132000	 2.429653
5.150000	 2.424175
5.168000	 2.417721
5.186000	 2.413310
5.204000	 2.403992
5.222000	 2.395934
5.240000	 2.387447
5.258000	 2.380983
5.276000	 2.376008
5.294000	 2.375246
5.312000	 2.380512
5.330000	 2.382962
5.348000	 2.382639
5.366000	 2.388657
5.384000	 2.393510
5.402000	 2.398443
5.420000	 2.401933
5.438000	 2.408547
5.456000	 2.411917
5.474000	 2.416031
5.492000	 2.424083
5.510000	 2.430542
5.528000	 2.434646
5.546000	 2.435659
5.564000	 2.434370
5.582000	 2.432931
5.600000	 2.436712
5.618000	 2.433982
5.636000	 2.423246
5.654000	 2.418581
5.672000	 2.417081
5.690000	 2.409155
5.708000	 2.393721
5.726000	 2.375596
5.744000	 2.354264
5.762000	 2.332046
5.780000	 2.329207
5.798000	 2.328795
5.816000	 2.312128
5.834000	 2.305520
5.852000	 2.300835
5.870000	 2.277680
5.888000	 2.258749
5.906000	 2.262404
5.923999	 2.255975
5.942000	 2.244469
5.960000	 2.244616
5.978000	 2.234760
5.996000	 2.225067
6.014000	 2.215137
6.032000	 2.194172
6.050000	 2.169049
6.068000	 2.165061
6.086000	 2.165277
6.104000	 2.152433
6.122000	 2.140713
6.140000	 2.132514
6.158000	 2.110471
6.176000	 2.073531
6.194000	 2.026230
6.212000	 1.984083
6.230000	 1.974194
6.248000	 1.993685
6.266000	 2.012152
6.284000	 2.018260
6.302000	 2.015108
6.320000	 2.005883
6.338000	 1.992983
6.356000	 1.985319
6.374000	 1.979414
6.392000	 1.960338
6.410000	 1.935452
6.428000	 1.938573
6.446000	 1.959306
6.464000	 1.963186
6.482000	 1.965473
6.500000	 2.002828
6.518000	 2.061795
6.536000	 2.102546
6.554000	 2.116095
6.572000	 2.115751
6.590000	 2.111632
6.608000	 2.100930
6.626000	 2.077762
6.644000	 2.025163
6.662000	 1.899508
6.680000	 1.733717
6.698000	 1.673820
6.716000	 1.759717
6.734000	 1.880488
6.752000	 1.953159
6.770000	 1.975087
6.788000	 1.975064
6.806000	 1.969055
6.824000	 1.951292
6.842000	 1.909599
6.860000	 1.841892
6.878000	 1.779024
6.896000	 1.767694
6.914000	 1.807279
6.932000	 1.848414
6.950000	 1.864521
6.968000	 1.869061
6.986000	 1.872802
7.004000	 1.873464
7.022000	 1.868331
7.040000	 1.859154
7.058000	 1.848458
7.076000	 1.828595
7.094000	 1.789639
7.112000	 1.745002
7.130000	 1.725345
7.148000	 1.741181
7.166000	 1.772490
7.184000	 1.792741
7.202000	 1.792913
7.220000	 1.787533
7.238000	 1.792741
7.256000	 1.805130
7.274000	 1.814068
7.292000	 1.817938
7.310000	 1.819015
7.328000	 1.818935
7.346000	 1.819306
7.364000	 1.820047
7.382000	 1.819812
7.400000	 1.817795
7.418000	 1.815267
7.436000	 1.814475
7.454000	 1.817199
7.472000	 1.823981
7.490000	 1.832892
7.508000	 1.840726
7.526000	 1.846321
7.544000	 1.850408
7.562000	 1.853132
7.580000	 1.854444
7.598000	 1.855177
7.616000	 1.855845
7.634000	 1.856509
7.652000	 1.857193
7.670000	 1.857714
7.688000	 1.857958
7.706000	 1.858015
7.724000	 1.857934
7.742000	 1.857801
7.760000	 1.857828
7.778000	 1.857265
7.796000	 1.854574
7.814000	 1.848798
7.832000	 1.839048
7.850000	 1.823023
7.868000	 1.798194
7.886000	 1.765758
7.904000	 1.734455
7.922000	 1.718226
7.940000	 1.725716
7.958000	 1.752235
7.976000	 1.783687
7.994000	 1.808362
8.012000	 1.823388
8.030000	 1.831398
8.048000	 1.835292
8.065999	 1.836805
8.084000	 1.836614
8.102000	 1.834799
8.120000	 1.831125
8.138000	 1.825886
8.155999	 1.819375
8.173999	 1.811470
8.192000	 1.801639
8.210000	 1.789745
8.228000	 1.776582
8.246000	 1.764053
8.263999	 1.754383
8.282000	 1.748783
8.300000	 1.746451
8.318000	 1.745940
8.336000	 1.745983
8.353999	 1.745593
8.372000	 1.743927
8.390000	 1.740700
8.408000	 1.736208
8.426000	 1.730778
8.443999	 1.724492
8.462000	 1.717505
8.480000	 1.710183
8.498000	 1.702706
8.516000	 1.694854
8.533999	 1.686032
8.552000	 1.675867
8.570000	 1.664490
8.588000	 1.652303
8.606000	 1.640248
8.624000	 1.629603
8.641999	 1.621331
8.660000	 1.615738
8.678000	 1.612079
8.696000	 1.608975
8.714000	 1.605162
8.731999	 1.600382
8.750000	 1.594833
8.768000	 1.588701
8.786000	 1.581879
8.804000	 1.574281
8.821999	 1.565910
8.840000	 1.556694
8.858000	 1.546426
8.876000	 1.535105
8.894000	 1.522940
8.911999	 1.510590
8.930000	 1.498524
8.948000	 1.486957
8.966000	 1.475769
8.984000	 1.464889
9.001999	 1.454774
9.020000	 1.446132
9.038000	 1.439232
9.056000	 1.433982
9.074000	 1.429995
9.092000	 1.426917
9.109999	 1.424791
9.128000	 1.423874
9.146000	 1.424287
9.164000	 1.425903
9.182000	 1.428084
9.199999	 1.430189
9.218000	 1.431451
9.236000	 1.431570
9.254000	 1.430947
9.272000	 1.430272
9.289999	 1.430456
9.308000	 1.431719
9.326000	 1.433828
9.344000	 1.436099
9.362000	 1.437816
9.379999	 1.438413
9.398000	 1.437215
9.416000	 1.432335
9.434000	 1.421013
9.452000	 1.400494
9.469999	 1.371252
9.488000	 1.338867
9.506000	 1.312864
9.524000	 1.301668
9.542000	 1.307808
9.560000	 1.326545
9.577999	 1.349044
9.596000	 1.367674
9.614000	 1.379205
9.632000	 1.384208
9.650000	 1.384868
9.667999	 1.383094
9.686000	 1.379857
9.704000	 1.375746
9.722000	 1.371213
9.740000	 1.367004
9.757999	 1.363619
9.776000	 1.361602
9.794000	 1.361335
9.812000	 1.362876
9.830000	 1.366006
9.847999	 1.370259
9.866000	 1.375143
9.884000	 1.380265
9.902000	 1.385275
9.920000	 1.390035
9.937999	 1.394345
9.956000	 1.398016
9.974000	 1.400798
9.992000	 1.402463
10.01	1.403069
10.028	1.402632
10.046	1.401333
10.064	1.399335
10.082	1.396805
10.1	1.393850
10.118	1.390597
10.136	1.387221
10.154	1.383785
10.172	1.380358
10.19	1.376949
10.208	1.373526
10.226	1.370053
10.244	1.366372
10.262	1.362410
10.28	1.358017
10.298	1.353277
10.316	1.348168
10.334	1.342803
10.352	1.337183
10.37	1.331426
10.388	1.325495
10.406	1.319420
10.424	1.313246
10.442	1.307146
10.46	1.301226
10.478	1.295643
10.496	1.290438
10.514	1.285609
10.532	1.281202
10.55	1.277093
10.568	1.273197
10.586	1.269482
10.604	1.265900
10.622	1.262437
10.64	1.259142
10.658	1.255977
10.676	1.252944
10.694	1.249834
10.712	1.246530
10.73	1.242890
10.748	1.238992
10.766	1.235059
10.784	1.231250
10.802	1.227777
10.82	1.224571
10.838	1.221484
10.856	1.218228
10.874	1.214570
10.892	1.210274
10.91	1.205213
10.928	1.199450
10.946	1.193167
10.964	1.186717
10.982	1.180510
11	1.175040
11.018	1.170489
11.036	1.166983
11.054	1.164285
11.072	1.162148
11.09	1.160251
11.108	1.158390
11.126	1.156510
11.144	1.154511
11.162	1.152319
11.18	1.149573
11.198	1.145936
11.216	1.141015
11.234	1.134474
11.252	1.126156
11.27	1.116150
11.288	1.104715
11.306	1.092218
11.324	1.079294
11.342	1.066589
11.36	1.054811
11.378	1.044694
11.396	1.037024
11.414	1.032380
11.432	1.031051
11.45	1.033071
11.468	1.038040
11.486	1.045249
11.504	1.053735
11.522	1.062498
11.54	1.070805
11.558	1.077977
11.576	1.083839
11.594	1.088334
11.612	1.091489
11.63	1.093441
11.648	1.094397
11.666	1.094468
11.684	1.093797
11.702	1.092592
11.72	1.091011
11.738	1.089216
11.756	1.087319
11.774	1.085397
11.792	1.083425
11.81	1.081308
11.828	1.078956
11.846	1.076256
11.864	1.072936
11.882	1.068747
11.9	1.063246
11.918	1.056061
11.936	1.046624
11.954	1.034454
11.972	1.019181
11.99	1.000715
12.008	0.979202
12.026	0.955384
12.044	0.930430
12.062	0.905934
12.08	0.883774
12.098	0.865745
12.116	0.853387
12.134	0.847567
12.152	0.848370
12.17	0.855042
12.188	0.866255
12.206	0.880186
12.224	0.895003
12.242	0.909099
12.26	0.921401
12.278	0.931278
12.296	0.938490
12.314	0.943368
12.332	0.946280
12.35	0.947710
12.368	0.948131
12.386	0.947985
12.404	0.947637
12.422	0.947174
12.44	0.946770
12.458	0.946587
12.476	0.946594
12.494	0.946796
12.512	0.947340
12.53	0.948274
12.548	0.949555
12.566	0.951238
12.584	0.953340
12.602	0.955777
12.62	0.958438
12.638	0.961216
12.656	0.964033
12.674	0.966795
12.692	0.969321
12.71	0.971629
12.728	0.973708
12.746	0.975563
12.764	0.977081
12.782	0.978278
12.8	0.979132
12.818	0.979660
12.836	0.979872
12.854	0.979824
12.872	0.979546
12.89	0.979026
12.908	0.978342
12.926	0.977515
12.944	0.976601
12.962	0.975599
12.98	0.974562
12.998	0.973516
13.016	0.972494
13.034	0.971480
13.052	0.970512
13.07	0.969580
13.088	0.968628
13.106	0.967701
13.124	0.966752
13.142	0.965755
13.16	0.964735
13.178	0.963696
13.196	0.962646
13.214	0.961501
13.232	0.960307
13.25	0.959035
13.268	0.957657
13.286	0.956171
13.304	0.954602
13.322	0.952927
13.34	0.951179
13.358	0.949333
13.376	0.947420
13.394	0.945504
13.412	0.943576
13.43	0.941610
13.448	0.939637
13.466	0.937664
13.484	0.935662
13.502	0.933617
13.52	0.931534
13.538	0.929387
13.556	0.927140
13.574	0.924827
13.592	0.922428
13.61	0.919939
13.628	0.917360
13.646	0.914760
13.664	0.912082
13.682	0.909393
13.7	0.906691
13.718	0.903997
13.736	0.901332
13.754	0.898696
13.772	0.896109
13.79	0.893574
13.808	0.891048
13.826	0.888571
13.844	0.886056
13.862	0.883527
13.88	0.881006
13.898	0.878492
13.916	0.875987
13.934	0.873469
13.952	0.870944
13.97	0.868480
13.988	0.865992
14.006	0.863448
14.024	0.860917
14.042	0.858269
14.06	0.855564
14.078	0.852810
14.096	0.849973
14.114	0.847069
14.132	0.844105
14.15	0.841085
14.168	0.838021
14.186	0.834848
14.204	0.831631
14.222	0.828287
14.24	0.824824
14.258	0.821193
14.276	0.817378
14.294	0.813310
14.312	0.808928
14.33	0.804198
14.348	0.799010
14.366	0.793361
14.384	0.787229
14.402	0.780697
14.42	0.773832
14.438	0.766804
14.456	0.759819
14.474	0.753079
14.492	0.746896
14.51	0.741496
14.528	0.737059
14.546	0.733696
14.564	0.731451
14.582	0.730274
14.6	0.730020
14.618	0.730506
14.636	0.731503
14.654	0.732749
14.672	0.734007
14.69	0.735100
14.708	0.735903
14.726	0.736296
14.744	0.736203
14.762	0.735677
14.78	0.734745
14.798	0.733456
14.816	0.731883
14.834	0.730111
14.852	0.728192
14.87	0.726192
14.888	0.724168
14.906	0.722164
14.924	0.720218
14.942	0.718319
14.96	0.716502
14.978	0.714749
14.996	0.713045
15.014	0.711390
15.032	0.709754
15.05	0.708128
15.068	0.706476
15.086	0.704791
15.104	0.703117
15.122	0.701394
15.14	0.699671
15.158	0.697932
15.176	0.696153
15.194	0.694373
15.212	0.692518
15.23	0.690632
15.248	0.688695
15.266	0.686638
15.284	0.684520
15.302	0.682337
15.32	0.680080
15.338	0.677749
15.356	0.675403
15.374	0.673017
15.392	0.670617
15.41	0.668234
15.428	0.665904
15.446	0.663601
15.464	0.661358
15.482	0.659188
15.5	0.657077
15.518	0.655008
15.536	0.652997
15.554	0.651031
15.572	0.649043
15.59	0.647090
15.608	0.645153
15.626	0.643217
15.644	0.641289
15.662	0.639338
15.68	0.637379
15.698	0.635425
15.716	0.633443
15.734	0.631472
15.752	0.629520
15.77	0.627585
15.788	0.625676
15.806	0.623817
15.824	0.622007
15.842	0.620203
15.86	0.618449
15.878	0.616756
15.896	0.615130
15.914	0.613544
15.932	0.611981
15.95	0.610429
15.968	0.608878
15.986	0.607334
16.004	0.605785
16.022	0.604214
16.04	0.602586
16.058	0.600904
16.076	0.599166
16.094	0.597351
16.112	0.595442
16.13	0.593432
16.148	0.591327
16.166	0.589106
16.184	0.586760
16.202	0.584288
16.22	0.581641
16.238	0.578822
16.256	0.575834
16.274	0.572624
16.292	0.569218
16.31	0.565638
16.328	0.561867
16.346	0.557969
16.364	0.553992
16.382	0.550022
16.4	0.546117
16.418	0.542331
16.436	0.538787
16.454	0.535559
16.472	0.532701
16.49	0.530235
16.508	0.528190
16.526	0.526580
16.544	0.525387
16.562	0.524551
16.58	0.524027
16.598	0.523759
16.616	0.523673
16.634	0.523700
16.652	0.523736
16.67	0.523758
16.688	0.523739
16.706	0.523623
16.724	0.523399
16.742	0.523052
16.76	0.522593
16.778	0.522034
16.796	0.521402
16.814	0.520698
16.832	0.519929
16.85	0.519152
16.868	0.518352
16.886	0.517521
16.904	0.516690
16.922	0.515869
16.94	0.515073
16.958	0.514287
16.976	0.513514
16.994	0.512786
17.012	0.512092
17.03	0.511426
17.048	0.510778
17.066	0.510152
17.084	0.509560
17.102	0.508980
17.12	0.508409
17.138	0.507873
17.156	0.507352
17.174	0.506830
17.192	0.506300
17.21	0.505761
17.228	0.505202
17.246	0.504633
17.264	0.504058
17.282	0.503466
17.3	0.502859
17.318	0.502250
17.336	0.501622
17.354	0.500963
17.372	0.500308
17.39	0.499654
17.408	0.498979
17.426	0.498294
17.444	0.497604
17.462	0.496899
17.48	0.496178
17.498	0.495454
17.516	0.494719
17.534	0.493964
17.552	0.493211
17.57	0.492461
17.588	0.491690
17.606	0.490912
17.624	0.490148
17.642	0.489395
17.66	0.488655
17.678	0.487899
17.696	0.487127
17.714	0.486351
17.732	0.485569
17.75	0.484784
17.768	0.483980
17.786	0.483154
17.804	0.482299
17.822	0.481413
17.84	0.480501
17.858	0.479556
17.876	0.478573
17.894	0.477559
17.912	0.476516
17.93	0.475453
17.948	0.474371
17.966	0.473265
17.984	0.472144
18.002	0.471032
18.02	0.469919
18.038	0.468793
18.056	0.467681
18.074	0.466591
18.092	0.465500
18.11	0.464409
18.128	0.463362
18.146	0.462353
18.164	0.461374
18.182	0.460424
18.2	0.459501
18.218	0.458617
18.236	0.457777
18.254	0.456993
18.272	0.456272
18.29	0.455580
18.308	0.454912
18.326	0.454291
18.344	0.453712
18.362	0.453161
18.38	0.452634
18.398	0.452113
18.416	0.451594
18.434	0.451074
18.452	0.450529
18.47	0.449945
18.488	0.449304
18.506	0.448592
18.524	0.447818
18.542	0.446985
18.56	0.446058
18.578	0.445029
18.596	0.443911
18.614	0.442703
18.632	0.441428
18.65	0.440085
18.668	0.438693
18.686	0.437256
18.704	0.435795
18.722	0.434317
18.74	0.432868
18.758	0.431445
18.776	0.430065
18.794	0.428727
18.812	0.427433
18.83	0.426190
18.848	0.425020
18.866	0.423906
18.884	0.422827
18.902	0.421782
18.92	0.420769
18.938	0.419767
18.956	0.418744
18.974	0.417694
18.992	0.416591
19.01	0.415441
19.028	0.414239
19.046	0.412985
19.064	0.411672
19.082	0.410304
19.1	0.408870
19.118	0.407395
19.136	0.405923
19.154	0.404444
19.172	0.402954
19.19	0.401472
19.208	0.400046
19.226	0.398675
19.244	0.397388
19.262	0.396177
19.28	0.395028
19.298	0.393941
19.316	0.392912
19.334	0.391941
19.352	0.391025
19.37	0.390166
19.388	0.389300
19.406	0.388429
19.424	0.387527
19.442	0.386593
19.46	0.385619
19.478	0.384606
19.496	0.383539
19.514	0.382413
19.532	0.381228
19.55	0.379974
19.568	0.378669
19.586	0.377322
19.604	0.375945
19.622	0.374563
19.64	0.373178
19.658	0.371819
19.676	0.370484
19.694	0.369206
19.712	0.367982
19.73	0.366827
19.748	0.365746
19.766	0.364724
19.784	0.363754
19.802	0.362848
19.82	0.362017
19.838	0.361244
19.856	0.360522
19.874	0.359839
19.892	0.359151
19.91	0.358464
19.928	0.357747
19.946	0.357006
19.964	0.356207
19.982	0.355351
20	0.354409
20.018	0.353363
20.036	0.352209
20.054	0.350926
20.072	0.349520
20.09	0.347995
20.108	0.346352
20.126	0.344574
20.144	0.342652
20.162	0.340618
20.18	0.338478
20.198	0.336247
20.216	0.333949
20.234	0.331584
20.252	0.329183
20.27	0.326741
20.288	0.324301
20.306	0.321860
20.324	0.319449
20.342	0.317086
20.36	0.314775
20.378	0.312547
20.396	0.310394
20.414	0.308331
20.432	0.306354
20.45	0.304473
20.468	0.302698
20.486	0.301021
20.504	0.299448
20.522	0.297975
20.54	0.296578
20.558	0.295260
20.576	0.294002
20.594	0.292802
20.612	0.291646
20.63	0.290503
20.648	0.289378
20.666	0.288256
20.684	0.287141
20.702	0.286011
20.72	0.284847
20.738	0.283654
20.756	0.282419
20.774	0.281141
20.792	0.279828
20.81	0.278482
20.828	0.277100
20.846	0.275680
20.864	0.274223
20.882	0.272759
20.9	0.271287
20.918	0.269809
20.936	0.268319
20.954	0.266825
20.972	0.265363
20.99	0.263929
21.008	0.262529
21.026	0.261166
21.044	0.259844
21.062	0.258586
21.08	0.257389
21.098	0.256240
21.116	0.255131
21.134	0.254068
21.152	0.253050
21.17	0.252079
21.188	0.251141
21.206	0.250238
21.224	0.249361
21.242	0.248502
21.26	0.247663
21.278	0.246815
21.296	0.245949
21.314	0.245066
21.332	0.244152
21.35	0.243214
21.368	0.242230
21.386	0.241187
21.404	0.240095
21.422	0.238960
21.44	0.237785
21.458	0.236550
21.476	0.235241
21.494	0.233870
21.512	0.232458
21.53	0.231002
21.548	0.229505
21.566	0.227970
21.584	0.226398
21.602	0.224808
21.62	0.223202
21.638	0.221579
21.656	0.219939
21.674	0.218282
21.692	0.216624
21.71	0.214972
21.728	0.213323
21.746	0.211690
21.764	0.210072
21.782	0.208466
21.8	0.206872
21.818	0.205290
21.836	0.203728
21.854	0.202184
21.872	0.200662
21.89	0.199168
21.908	0.197700
21.926	0.196259
21.944	0.194839
21.962	0.193444
21.98	0.192090
21.998	0.190788
22.016	0.189524
22.034	0.188284
22.052	0.187066
22.07	0.185884
22.088	0.184748
22.106	0.183653
22.124	0.182598
22.142	0.181586
22.16	0.180613
22.178	0.179674
22.196	0.178769
22.214	0.177895
22.232	0.177042
22.25	0.176214
22.268	0.175403
22.286	0.174606
22.304	0.173823
22.322	0.173043
22.34	0.172264
22.358	0.171484
22.376	0.170693
22.394	0.169892
22.412	0.169076
22.43	0.168232
22.448	0.167363
22.466	0.166473
22.484	0.165566
22.502	0.164642
22.52	0.163691
22.538	0.162706
22.556	0.161693
22.574	0.160657
22.592	0.159597
22.61	0.158517
22.628	0.157425
22.646	0.156323
22.664	0.155207
22.682	0.154075
22.7	0.152922
22.718	0.151758
22.736	0.150589
22.754	0.149411
22.772	0.148232
22.79	0.147057
22.808	0.145886
22.826	0.144715
22.844	0.143541
22.862	0.142367
22.88	0.141192
22.898	0.140013
22.916	0.138831
22.934	0.137658
22.952	0.136500
22.97	0.135351
22.988	0.134213
23.006	0.133084
23.024	0.131965
23.042	0.130859
23.06	0.129768
23.078	0.128688
23.096	0.127619
23.114	0.126557
23.132	0.125506
23.15	0.124467
23.168	0.123442
23.186	0.122430
23.204	0.121426
23.222	0.120434
23.24	0.119450
23.258	0.118470
23.276	0.117498
23.294	0.116528
23.312	0.115548
23.33	0.114556
23.348	0.113555
23.366	0.112543
23.384	0.111519
23.402	0.110484
23.42	0.109435
23.438	0.108372
23.456	0.107295
23.474	0.106202
23.492	0.105095
23.51	0.103971
23.528	0.102825
23.546	0.101647
23.564	0.100444
23.582	0.099234
23.6	0.098022
23.618	0.096804
23.636	0.095586
23.654	0.094371
23.672	0.093157
23.69	0.091950
23.708	0.090752
23.726	0.089561
23.744	0.088385
23.762	0.087234
23.78	0.086102
23.798	0.084995
23.816	0.083922
23.834	0.082880
23.852	0.081868
23.87	0.080890
23.888	0.079943
23.906	0.079030
23.924	0.078150
23.942	0.077310
23.96	0.076503
23.978	0.075722
23.996	0.074962
24.014	0.074227
24.032	0.073515
24.05	0.072829
24.068	0.072171
24.086	0.071531
24.104	0.070904
24.122	0.070293
24.14	0.069695
24.158	0.069100
24.176	0.068510
24.194	0.067924
24.212	0.067340
24.23	0.066758
24.248	0.066177
24.266	0.065591
24.284	0.064993
24.302	0.064386
24.32	0.063771
24.338	0.063149
24.356	0.062523
24.374	0.061887
24.392	0.061232
24.41	0.060555
24.428	0.059862
24.446	0.059160
24.464	0.058453
24.482	0.057739
24.5	0.057018
24.518	0.056293
24.536	0.055562
24.554	0.054826
24.572	0.054087
24.59	0.053344
24.608	0.052598
24.626	0.051852
24.644	0.051108
24.662	0.050362
24.68	0.049622
24.698	0.048894
24.716	0.048175
24.734	0.047467
24.752	0.046772
24.77	0.046091
24.788	0.045425
24.806	0.044771
24.824	0.044130
24.842	0.043502
24.86	0.042887
24.878	0.042288
24.896	0.041706
24.914	0.041138
24.932	0.040583
24.95	0.040041
24.968	0.039511
24.986	0.038993
25.004	0.038488
25.022	0.037996
25.04	0.037517
25.058	0.037049
25.076	0.036597
25.094	0.036160
25.112	0.035730
25.13	0.035300
25.148	0.034869
25.166	0.034441
25.184	0.034017
25.202	0.033599
25.22	0.033184
25.238	0.032774
25.256	0.032371
25.274	0.031978
25.292	0.031590
25.31	0.031204
25.328	0.030817
25.346	0.030430
25.364	0.030043
25.382	0.029655
25.4	0.029263
25.418	0.028869
25.436	0.028477
25.454	0.028089
25.472	0.027703
25.49	0.027320
25.508	0.026940
25.526	0.026562
25.544	0.026188
25.562	0.025815
25.58	0.025439
25.598	0.025060
25.616	0.024679
25.634	0.024299
25.652	0.023920
25.67	0.023541
25.688	0.023163
25.706	0.022788
25.724	0.022416
25.742	0.022046
25.76	0.021678
25.778	0.021312
25.796	0.020947
25.814	0.020584
25.832	0.020227
25.85	0.019877
25.868	0.019532
25.886	0.019194
25.904	0.018861
25.922	0.018533
25.94	0.018210
25.958	0.017894
25.976	0.017585
25.994	0.017283
26.012	0.016987
26.03	0.016701
26.048	0.016427
26.066	0.016163
26.084	0.015909
26.102	0.015667
26.12	0.015439
26.138	0.015226
26.156	0.015023
26.174	0.014825
26.192	0.014629
26.21	0.014435
26.228	0.014248
26.246	0.014073
26.264	0.013912
26.282	0.013762
26.3	0.013618
26.318	0.013477
26.336	0.013336
26.354	0.013199
26.372	0.013065
26.39	0.012935
26.408	0.012810
26.426	0.012688
26.444	0.012567
26.462	0.012445
26.48	0.012325
26.498	0.012204
26.516	0.012081
26.534	0.011953
26.552	0.011821
26.57	0.011686
26.588	0.011550
26.606	0.011413
26.624	0.011275
26.642	0.011136
26.66	0.010995
26.678	0.010854
26.696	0.010712
26.714	0.010569
26.732	0.010421
26.75	0.010267
26.768	0.010108
26.786	0.009945
26.804	0.009779
26.822	0.009611
26.84	0.009439
26.858	0.009264
26.876	0.009090
26.894	0.008918
26.912	0.008745
26.93	0.008573
26.948	0.008402
26.966	0.008227
26.984	0.008036
27.002	0.007855
27.02	0.007714
27.028	0.007677