File: Bakgrunnsmateriale/MATLAB/FTIR/ftir_data/subAa/Mapping_121/BZ1503107-1_t05.asc
PE IR       SPECTRUM    SPECTRUM    ASCII       PEDS        1.60
  -1
BZ1D55~1.ASC
17/04/07
13:38:58.00
17/04/07
13:39:24.00
tln
$BZ1503107-1_t0005$<tbV0>[2.6,-13.0,8.0,0.0,27,1,0]
27.028
64

2002,4.07
MIRTGS : RIGHTBACK : INTERNAL 2
MIR : ON : INTERNAL 2
OPTKBR

0.200000
8
8.000000
FILLER
RATIO
SPECTRUM
UNLOCKED 256

DOUBLE
64
COMBINED
1
0
0

0.002000
RATIO

1
0
TRUE
51149
0
LEFT NOT FITTED RIGHT NOT FITTED 0
NONE
NONE
15600
12
4.427000
51148
TRUE
1 0 8 72 0 0 0 0

15798

#HDR
-1
-1
#GR
µM
%T
2.38419e-05
0.0
2.000000
0.002000
12515
8
85.746
58.9055
#DATA
2.000000	 65.2549
2.018000	 65.2074
2.036000	 64.2561
2.054000	 63.8388
2.072000	 65.0366
2.090000	 65.6837
2.108000	 65.0955
2.126000	 64.5169
2.144000	 64.5841
2.162000	 64.3765
2.180000	 64.5594
2.198000	 63.7442
2.216000	 63.7867
2.234000	 67.2564
2.252000	 66.6881
2.270000	 63.9384
2.288000	 64.3511
2.306000	 64.7852
2.324000	 65.3176
2.342000	 64.7491
2.360000	 64.9488
2.378000	 65.1262
2.396000	 64.7367
2.414000	 65.3048
2.432000	 65.2562
2.450000	 65.2913
2.468000	 65.1746
2.486000	 65.0243
2.504000	 65.2173
2.522000	 65.3215
2.540000	 65.0945
2.558000	 65.0897
2.576000	 64.9181
2.594000	 65.1643
2.612000	 65.2149
2.630000	 65.3643
2.648000	 65.028
2.666000	 65.2582
2.684000	 65.1284
2.702000	 65.2888
2.720000	 65.4213
2.738000	 65.3523
2.756000	 65.2891
2.774000	 65.1689
2.792000	 65.0491
2.810000	 65.0071
2.828000	 65.1175
2.846000	 65.0104
2.864000	 65.1659
2.882000	 64.8568
2.900000	 64.912
2.918000	 65.131
2.936000	 65.1554
2.954000	 65.0929
2.972000	 65.0071
2.990000	 65.0562
3.008000	 65.1129
3.026000	 65.0868
3.044000	 65.0693
3.062000	 65.1339
3.080000	 65.0765
3.098000	 65.1087
3.116000	 65.0348
3.134000	 65.1519
3.152000	 65.1682
3.170000	 65.1294
3.188000	 65.0601
3.206000	 65.1215
3.224000	 65.2206
3.242000	 65.1954
3.260000	 65.0123
3.278000	 65.0876
3.296000	 65.0157
3.314000	 65.1367
3.332000	 65.1343
3.350000	 65.0861
3.368000	 65.019
3.386000	 64.9797
3.404000	 65.1254
3.422000	 65.0089
3.440000	 65.0803
3.458000	 65.0605
3.476000	 64.9521
3.494000	 64.9665
3.512000	 65.1502
3.530000	 65.0531
3.548000	 65.1196
3.566000	 65.041
3.584000	 65.0507
3.602000	 65.0536
3.620000	 65.1072
3.638000	 65.1227
3.656000	 65.1114
3.674000	 65.139
3.692000	 65.0357
3.710000	 65.1233
3.728000	 65.1097
3.746000	 64.939
3.764000	 65.0681
3.782000	 65.0004
3.800000	 65.0222
3.818000	 65.0431
3.836000	 65.0265
3.854000	 65.0487
3.872000	 65.1105
3.890000	 65.0492
3.908000	 65.0885
3.926000	 65.0024
3.944000	 65.055
3.962000	 64.9236
3.980000	 65.1905
3.998000	 65.0658
4.016000	 65.1225
4.034000	 65.1133
4.052000	 65.0916
4.070000	 65.0714
4.088000	 65.1361
4.106000	 65.1465
4.124000	 64.917
4.141999	 65.0176
4.160000	 65.012
4.178000	 65.0405
4.196000	 65.0376
4.214000	 65.1246
4.232000	 65.0411
4.250000	 65.0748
4.268000	 65.049
4.286000	 64.9543
4.304000	 64.9726
4.322000	 65.0071
4.340000	 65.073
4.358000	 65.0114
4.375999	 64.881
4.394000	 64.9874
4.412000	 64.92
4.430000	 64.9006
4.448000	 64.8789
4.466000	 64.7687
4.484000	 64.8705
4.502000	 64.9177
4.520000	 64.869
4.538000	 64.9128
4.556000	 64.9581
4.574000	 64.926
4.592000	 64.9319
4.609999	 65.0246
4.628000	 64.9223
4.646000	 64.6656
4.664000	 64.8469
4.682000	 64.8605
4.700000	 64.8876
4.718000	 64.8935
4.736000	 64.8755
4.754000	 64.8223
4.772000	 64.8355
4.790000	 64.8722
4.808000	 64.9265
4.826000	 64.8326
4.843999	 64.9243
4.862000	 64.9698
4.880000	 65.0058
4.898000	 64.9315
4.916000	 64.9142
4.934000	 64.8889
4.952000	 64.9111
4.970000	 64.9304
4.988000	 64.9271
5.006000	 64.8662
5.024000	 64.8848
5.042000	 64.8519
5.060000	 64.7796
5.077999	 64.8189
5.096000	 64.8652
5.114000	 64.9029
5.132000	 64.912
5.150000	 64.8436
5.168000	 64.8393
5.186000	 64.8185
5.204000	 64.8051
5.222000	 64.8515
5.240000	 64.8081
5.258000	 64.9201
5.276000	 64.963
5.294000	 64.901
5.312000	 64.8171
5.330000	 64.8279
5.348000	 64.8724
5.366000	 64.8486
5.384000	 64.7794
5.402000	 64.8054
5.420000	 64.8107
5.438000	 64.8082
5.456000	 64.8058
5.474000	 64.77
5.492000	 64.8132
5.510000	 64.8468
5.528000	 64.7933
5.546000	 64.8179
5.564000	 64.8229
5.582000	 64.8123
5.600000	 64.7723
5.618000	 64.7401
5.636000	 64.8358
5.654000	 64.8718
5.672000	 64.8267
5.690000	 64.8524
5.708000	 64.8242
5.726000	 64.7188
5.744000	 64.6391
5.762000	 64.6015
5.780000	 64.5855
5.798000	 64.5856
5.816000	 64.7449
5.834000	 64.8551
5.852000	 64.8248
5.870000	 64.8254
5.888000	 64.8256
5.906000	 64.7016
5.923999	 64.6833
5.942000	 64.7197
5.960000	 64.7215
5.978000	 64.7258
5.996000	 64.6763
6.014000	 64.713
6.032000	 64.8114
6.050000	 64.8452
6.068000	 64.7696
6.086000	 64.7247
6.104000	 64.6873
6.122000	 64.7382
6.140000	 64.7695
6.158000	 64.7528
6.176000	 64.7436
6.194000	 64.6308
6.212000	 64.5971
6.230000	 64.7156
6.248000	 64.7083
6.266000	 64.6866
6.284000	 64.7527
6.302000	 64.783
6.320000	 64.7756
6.338000	 64.7126
6.356000	 64.6004
6.374000	 64.5708
6.392000	 64.664
6.410000	 64.7558
6.428000	 64.7509
6.446000	 64.7363
6.464000	 64.7381
6.482000	 64.7458
6.500000	 64.6761
6.518000	 64.5737
6.536000	 64.5618
6.554000	 64.5959
6.572000	 64.6604
6.590000	 64.7028
6.608000	 64.7161
6.626000	 64.7371
6.644000	 64.7649
6.662000	 64.7681
6.680000	 64.7043
6.698000	 64.6208
6.716000	 64.6401
6.734000	 64.7116
6.752000	 64.7278
6.770000	 64.7187
6.788000	 64.7081
6.806000	 64.6672
6.824000	 64.6246
6.842000	 64.6932
6.860000	 64.7907
6.878000	 64.6878
6.896000	 64.5144
6.914000	 64.4586
6.932000	 64.4585
6.950000	 64.5139
6.968000	 64.5936
6.986000	 64.6166
7.004000	 64.6387
7.022000	 64.7097
7.040000	 64.705
7.058000	 64.555
7.076000	 64.4246
7.094000	 64.4255
7.112000	 64.4619
7.130000	 64.4633
7.148000	 64.4644
7.166000	 64.4937
7.184000	 64.5244
7.202000	 64.5154
7.220000	 64.4756
7.238000	 64.4412
7.256000	 64.4161
7.274000	 64.3988
7.292000	 64.414
7.310000	 64.4742
7.328000	 64.5337
7.346000	 64.5469
7.364000	 64.5479
7.382000	 64.5647
7.400000	 64.5536
7.418000	 64.5081
7.436000	 64.4804
7.454000	 64.4717
7.472000	 64.4452
7.490000	 64.4168
7.508000	 64.4227
7.526000	 64.4448
7.544000	 64.4394
7.562000	 64.4
7.580000	 64.362
7.598000	 64.3623
7.616000	 64.3932
7.634000	 64.4006
7.652000	 64.3591
7.670000	 64.3069
7.688000	 64.2918
7.706000	 64.3257
7.724000	 64.3883
7.742000	 64.4465
7.760000	 64.4652
7.778000	 64.4331
7.796000	 64.39
7.814000	 64.3846
7.832000	 64.4097
7.850000	 64.4193
7.868000	 64.3961
7.886000	 64.3617
7.904000	 64.3425
7.922000	 64.3513
7.940000	 64.3794
7.958000	 64.4034
7.976000	 64.4043
7.994000	 64.3828
8.012000	 64.3535
8.030000	 64.3328
8.048000	 64.3318
8.065999	 64.3498
8.084000	 64.3674
8.102000	 64.3592
8.120000	 64.3262
8.138000	 64.3004
8.155999	 64.3015
8.173999	 64.316
8.192000	 64.3336
8.210000	 64.3716
8.228000	 64.4338
8.246000	 64.4759
8.263999	 64.4516
8.282000	 64.376
8.300000	 64.3149
8.318000	 64.3138
8.336000	 64.3619
8.353999	 64.4181
8.372000	 64.4512
8.390000	 64.4541
8.408000	 64.4345
8.426000	 64.3993
8.443999	 64.3473
8.462000	 64.2754
8.480000	 64.1957
8.498000	 64.1429
8.516000	 64.1484
8.533999	 64.2058
8.552000	 64.2709
8.570000	 64.3021
8.588000	 64.2999
8.606000	 64.297
8.624000	 64.3111
8.641999	 64.3204
8.660000	 64.2965
8.678000	 64.2441
8.696000	 64.1953
8.714000	 64.1747
8.731999	 64.1866
8.750000	 64.2247
8.768000	 64.28
8.786000	 64.3378
8.804000	 64.385
8.821999	 64.4172
8.840000	 64.4295
8.858000	 64.4101
8.876000	 64.3547
8.894000	 64.2833
8.911999	 64.2318
8.930000	 64.2239
8.948000	 64.2548
8.966000	 64.2988
8.984000	 64.3287
9.001999	 64.3295
9.020000	 64.3023
9.038000	 64.261
9.056000	 64.2254
9.074000	 64.2094
9.092000	 64.218
9.109999	 64.2537
9.128000	 64.3163
9.146000	 64.3892
9.164000	 64.4397
9.182000	 64.4461
9.199999	 64.4174
9.218000	 64.3786
9.236000	 64.341
9.254000	 64.2958
9.272000	 64.2376
9.289999	 64.1817
9.308000	 64.1511
9.326000	 64.1526
9.344000	 64.1754
9.362000	 64.2084
9.379999	 64.2477
9.398000	 64.2889
9.416000	 64.3222
9.434000	 64.3386
9.452000	 64.3394
9.469999	 64.3379
9.488000	 64.3463
9.506000	 64.3612
9.524000	 64.3633
9.542000	 64.3357
9.560000	 64.2827
9.577999	 64.2306
9.596000	 64.2086
9.614000	 64.2272
9.632000	 64.2739
9.650000	 64.3282
9.667999	 64.3754
9.686000	 64.4089
9.704000	 64.4215
9.722000	 64.4043
9.740000	 64.3554
9.757999	 64.2887
9.776000	 64.2301
9.794000	 64.201
9.812000	 64.2042
9.830000	 64.2257
9.847999	 64.2495
9.866000	 64.267
9.884000	 64.2768
9.902000	 64.2785
9.920000	 64.2695
9.937999	 64.2476
9.956000	 64.2141
9.974000	 64.1738
9.992000	 64.1346
10.01	64.1042
10.028	64.0888
10.046	64.0905
10.064	64.1047
10.082	64.1219
10.1	64.1327
10.118	64.1359
10.136	64.1407
10.154	64.1593
10.172	64.1963
10.19	64.241
10.208	64.2724
10.226	64.2721
10.244	64.2377
10.262	64.1865
10.28	64.1453
10.298	64.1356
10.316	64.1625
10.334	64.2119
10.352	64.2597
10.37	64.2842
10.388	64.2762
10.406	64.2419
10.424	64.1992
10.442	64.1699
10.46	64.171
10.478	64.2111
10.496	64.2847
10.514	64.3742
10.532	64.4536
10.55	64.4991
10.568	64.4987
10.586	64.4579
10.604	64.3973
10.622	64.3438
10.64	64.3168
10.658	64.3206
10.676	64.3439
10.694	64.3681
10.712	64.3759
10.73	64.3602
10.748	64.3245
10.766	64.2816
10.784	64.2477
10.802	64.2372
10.82	64.257
10.838	64.3045
10.856	64.3695
10.874	64.4365
10.892	64.4904
10.91	64.5197
10.928	64.5192
10.946	64.4901
10.964	64.4384
10.982	64.3729
11	64.3015
11.018	64.2323
11.036	64.1724
11.054	64.129
11.072	64.1079
11.09	64.1126
11.108	64.1408
11.126	64.1839
11.144	64.229
11.162	64.2614
11.18	64.2711
11.198	64.2557
11.216	64.2211
11.234	64.1794
11.252	64.1442
11.27	64.1251
11.288	64.1268
11.306	64.1478
11.324	64.1815
11.342	64.2196
11.36	64.2551
11.378	64.2831
11.396	64.3023
11.414	64.3136
11.432	64.3177
11.45	64.3145
11.468	64.3027
11.486	64.2816
11.504	64.2522
11.522	64.2187
11.54	64.1875
11.558	64.1649
11.576	64.1552
11.594	64.1593
11.612	64.1739
11.63	64.1944
11.648	64.2174
11.666	64.2417
11.684	64.2685
11.702	64.2995
11.72	64.3346
11.738	64.3708
11.756	64.4027
11.774	64.4234
11.792	64.4272
11.81	64.4121
11.828	64.3798
11.846	64.3351
11.864	64.2843
11.882	64.2322
11.9	64.1818
11.918	64.1339
11.936	64.0879
11.954	64.0436
11.972	64.0017
11.99	63.9647
12.008	63.9365
12.026	63.9213
12.044	63.9215
12.062	63.937
12.08	63.9644
12.098	63.9982
12.116	64.0326
12.134	64.0634
12.152	64.0888
12.17	64.1089
12.188	64.1245
12.206	64.1365
12.224	64.1446
12.242	64.1483
12.26	64.1475
12.278	64.1431
12.296	64.137
12.314	64.1318
12.332	64.1292
12.35	64.129
12.368	64.1288
12.386	64.125
12.404	64.1142
12.422	64.0946
12.44	64.0679
12.458	64.0377
12.476	64.009
12.494	63.9868
12.512	63.974
12.53	63.9716
12.548	63.9787
12.566	63.9935
12.584	64.0138
12.602	64.0382
12.62	64.0649
12.638	64.092
12.656	64.117
12.674	64.1366
12.692	64.1477
12.71	64.1481
12.728	64.1381
12.746	64.1207
12.764	64.101
12.782	64.0857
12.8	64.0806
12.818	64.0899
12.836	64.1151
12.854	64.1545
12.872	64.204
12.89	64.2581
12.908	64.3107
12.926	64.3564
12.944	64.3909
12.962	64.4117
12.98	64.4179
12.998	64.4099
13.016	64.3894
13.034	64.3586
13.052	64.3202
13.07	64.2772
13.088	64.2323
13.106	64.1885
13.124	64.1482
13.142	64.1141
13.16	64.0884
13.178	64.073
13.196	64.0693
13.214	64.0776
13.232	64.097
13.25	64.1249
13.268	64.1574
13.286	64.1894
13.304	64.2151
13.322	64.2296
13.34	64.2292
13.358	64.2119
13.376	64.1784
13.394	64.1312
13.412	64.0746
13.43	64.0136
13.448	63.9536
13.466	63.8987
13.484	63.8518
13.502	63.8142
13.52	63.7861
13.538	63.7669
13.556	63.7556
13.574	63.7523
13.592	63.7578
13.61	63.7732
13.628	63.8003
13.646	63.8397
13.664	63.8912
13.682	63.9524
13.7	64.02
13.718	64.089
13.736	64.1543
13.754	64.2114
13.772	64.2568
13.79	64.2893
13.808	64.3088
13.826	64.317
13.844	64.3161
13.862	64.3085
13.88	64.2959
13.898	64.2791
13.916	64.2578
13.934	64.2315
13.952	64.199
13.97	64.1598
13.988	64.1143
14.006	64.0637
14.024	64.0102
14.042	63.957
14.06	63.9076
14.078	63.8654
14.096	63.8331
14.114	63.8127
14.132	63.8048
14.15	63.8091
14.168	63.8241
14.186	63.8477
14.204	63.8766
14.222	63.9077
14.24	63.9378
14.258	63.9649
14.276	63.987
14.294	64.0035
14.312	64.0145
14.33	64.0209
14.348	64.0243
14.366	64.0264
14.384	64.0286
14.402	64.032
14.42	64.037
14.438	64.0434
14.456	64.0504
14.474	64.0569
14.492	64.0615
14.51	64.0633
14.528	64.0619
14.546	64.0577
14.564	64.0514
14.582	64.0445
14.6	64.0385
14.618	64.0352
14.636	64.0356
14.654	64.0402
14.672	64.0486
14.69	64.06
14.708	64.0726
14.726	64.0846
14.744	64.0935
14.762	64.0978
14.78	64.0959
14.798	64.0872
14.816	64.0714
14.834	64.0489
14.852	64.0208
14.87	63.9888
14.888	63.9554
14.906	63.9229
14.924	63.8945
14.942	63.8731
14.96	63.8611
14.978	63.8602
14.996	63.8712
15.014	63.8942
15.032	63.9276
15.05	63.969
15.068	64.0151
15.086	64.0625
15.104	64.1077
15.122	64.1469
15.14	64.1776
15.158	64.1982
15.176	64.208
15.194	64.207
15.212	64.1963
15.23	64.1776
15.248	64.1525
15.266	64.123
15.284	64.091
15.302	64.0581
15.32	64.0257
15.338	63.9952
15.356	63.9679
15.374	63.9451
15.392	63.9276
15.41	63.9162
15.428	63.911
15.446	63.9118
15.464	63.9177
15.482	63.9275
15.5	63.9396
15.518	63.9518
15.536	63.9624
15.554	63.9701
15.572	63.9736
15.59	63.9725
15.608	63.9673
15.626	63.9587
15.644	63.948
15.662	63.9372
15.68	63.9277
15.698	63.9207
15.716	63.9176
15.734	63.9187
15.752	63.9238
15.77	63.9326
15.788	63.9437
15.806	63.9562
15.824	63.969
15.842	63.9808
15.86	63.9902
15.878	63.9964
15.896	63.9985
15.914	63.9958
15.932	63.9876
15.95	63.9738
15.968	63.9541
15.986	63.929
16.004	63.8993
16.022	63.8662
16.04	63.8318
16.058	63.7986
16.076	63.7685
16.094	63.7447
16.112	63.7294
16.13	63.7241
16.148	63.7305
16.166	63.7485
16.184	63.7773
16.202	63.8155
16.22	63.8598
16.238	63.9075
16.256	63.9559
16.274	64.0006
16.292	64.0395
16.31	64.0704
16.328	64.0913
16.346	64.1026
16.364	64.1042
16.382	64.0975
16.4	64.0838
16.418	64.0644
16.436	64.0413
16.454	64.0153
16.472	63.9873
16.49	63.9578
16.508	63.9265
16.526	63.8935
16.544	63.8582
16.562	63.8203
16.58	63.7798
16.598	63.7368
16.616	63.6923
16.634	63.6468
16.652	63.602
16.67	63.5589
16.688	63.5188
16.706	63.4833
16.724	63.4529
16.742	63.4287
16.76	63.4105
16.778	63.3982
16.796	63.3916
16.814	63.3896
16.832	63.3919
16.85	63.3977
16.868	63.4068
16.886	63.4188
16.904	63.4344
16.922	63.4542
16.94	63.4787
16.958	63.5094
16.976	63.5471
16.994	63.593
17.012	63.6474
17.03	63.7107
17.048	63.7826
17.066	63.8618
17.084	63.9474
17.102	64.0363
17.12	64.1273
17.138	64.2162
17.156	64.3008
17.174	64.3788
17.192	64.4463
17.21	64.5022
17.228	64.5437
17.246	64.57
17.264	64.5802
17.282	64.5742
17.3	64.5522
17.318	64.5153
17.336	64.4652
17.354	64.4029
17.372	64.3317
17.39	64.2529
17.408	64.1696
17.426	64.0843
17.444	63.9989
17.462	63.9171
17.48	63.8398
17.498	63.7703
17.516	63.7098
17.534	63.66
17.552	63.6221
17.57	63.5966
17.588	63.5843
17.606	63.5847
17.624	63.5977
17.642	63.6219
17.66	63.657
17.678	63.7006
17.696	63.7519
17.714	63.8085
17.732	63.8693
17.75	63.9326
17.768	63.9965
17.786	64.0604
17.804	64.1223
17.822	64.1818
17.84	64.2373
17.858	64.288
17.876	64.3328
17.894	64.3704
17.912	64.4001
17.93	64.4205
17.948	64.4313
17.966	64.4315
17.984	64.4211
18.002	64.3998
18.02	64.3687
18.038	64.3281
18.056	64.2802
18.074	64.2256
18.092	64.1674
18.11	64.1062
18.128	64.0454
18.146	63.9857
18.164	63.9296
18.182	63.8775
18.2	63.8308
18.218	63.7897
18.236	63.7545
18.254	63.7246
18.272	63.7
18.29	63.6796
18.308	63.6631
18.326	63.6492
18.344	63.6377
18.362	63.6274
18.38	63.6183
18.398	63.6098
18.416	63.6019
18.434	63.5943
18.452	63.5874
18.47	63.5812
18.488	63.5763
18.506	63.5726
18.524	63.5711
18.542	63.5718
18.56	63.5751
18.578	63.581
18.596	63.5899
18.614	63.6018
18.632	63.6169
18.65	63.635
18.668	63.6564
18.686	63.6809
18.704	63.7084
18.722	63.7389
18.74	63.7723
18.758	63.8086
18.776	63.8476
18.794	63.8894
18.812	63.9336
18.83	63.98
18.848	64.028
18.866	64.0771
18.884	64.1267
18.902	64.1761
18.92	64.2243
18.938	64.2708
18.956	64.3144
18.974	64.3547
18.992	64.3905
19.01	64.4217
19.028	64.4476
19.046	64.4684
19.064	64.4837
19.082	64.494
19.1	64.5
19.118	64.5023
19.136	64.5019
19.154	64.4993
19.172	64.4961
19.19	64.4922
19.208	64.4888
19.226	64.4858
19.244	64.4838
19.262	64.4827
19.28	64.4819
19.298	64.4812
19.316	64.4792
19.334	64.476
19.352	64.469
19.37	64.4584
19.388	64.4423
19.406	64.4206
19.424	64.3922
19.442	64.3568
19.46	64.3142
19.478	64.264
19.496	64.2071
19.514	64.1435
19.532	64.0749
19.55	64.0018
19.568	63.9262
19.586	63.8496
19.604	63.7732
19.622	63.6997
19.64	63.6293
19.658	63.565
19.676	63.5065
19.694	63.4562
19.712	63.4138
19.73	63.3801
19.748	63.3551
19.766	63.3378
19.784	63.3284
19.802	63.3249
19.82	63.3265
19.838	63.3318
19.856	63.3383
19.874	63.3457
19.892	63.3512
19.91	63.3551
19.928	63.3555
19.946	63.3525
19.964	63.346
19.982	63.3356
20	63.3228
20.018	63.3077
20.036	63.2917
20.054	63.2764
20.072	63.2621
20.09	63.2516
20.108	63.2444
20.126	63.2429
20.144	63.2471
20.162	63.2575
20.18	63.2746
20.198	63.2978
20.216	63.3265
20.234	63.3605
20.252	63.3977
20.27	63.4384
20.288	63.48
20.306	63.5224
20.324	63.5641
20.342	63.6039
20.36	63.6418
20.378	63.6766
20.396	63.7084
20.414	63.7377
20.432	63.7643
20.45	63.7897
20.468	63.8141
20.486	63.8387
20.504	63.8658
20.522	63.895
20.54	63.9293
20.558	63.9687
20.576	64.0145
20.594	64.0679
20.612	64.1284
20.63	64.1968
20.648	64.2729
20.666	64.3546
20.684	64.4427
20.702	64.5345
20.72	64.6287
20.738	64.7246
20.756	64.8174
20.774	64.9081
20.792	64.9917
20.81	65.0677
20.828	65.134
20.846	65.1869
20.864	65.2272
20.882	65.2522
20.9	65.2616
20.918	65.2555
20.936	65.2329
20.954	65.1947
20.972	65.1426
20.99	65.0757
21.008	64.9977
21.026	64.9093
21.044	64.8119
21.062	64.7102
21.08	64.6029
21.098	64.4956
21.116	64.389
21.134	64.285
21.152	64.1884
21.17	64.0977
21.188	64.0173
21.206	63.9478
21.224	63.8896
21.242	63.845
21.26	63.8133
21.278	63.7953
21.296	63.7914
21.314	63.8008
21.332	63.8231
21.35	63.8585
21.368	63.9048
21.386	63.9619
21.404	64.0289
21.422	64.103
21.44	64.1853
21.458	64.2725
21.476	64.3639
21.494	64.4591
21.512	64.5548
21.53	64.6518
21.548	64.7481
21.566	64.842
21.584	64.934
21.602	65.0214
21.62	65.1045
21.638	65.1822
21.656	65.2528
21.674	65.3171
21.692	65.3728
21.71	65.4195
21.728	65.4572
21.746	65.4847
21.764	65.5024
21.782	65.5092
21.8	65.5041
21.818	65.4877
21.836	65.4591
21.854	65.4185
21.872	65.3657
21.89	65.2997
21.908	65.2209
21.926	65.1292
21.944	65.0247
21.962	64.9073
21.98	64.7777
21.998	64.6354
22.016	64.4813
22.034	64.3164
22.052	64.1402
22.07	63.9547
22.088	63.7614
22.106	63.5596
22.124	63.3534
22.142	63.1429
22.16	62.9291
22.178	62.7178
22.196	62.5069
22.214	62.3003
22.232	62.103
22.25	61.9123
22.268	61.7343
22.286	61.5721
22.304	61.4241
22.322	61.2963
22.34	61.1893
22.358	61.1032
22.376	61.0426
22.394	61.0067
22.412	60.9961
22.43	61.0125
22.448	61.0556
22.466	61.1243
22.484	61.2185
22.502	61.3386
22.52	61.4805
22.538	61.6436
22.556	61.8281
22.574	62.0275
22.592	62.2425
22.61	62.4715
22.628	62.7068
22.646	62.9507
22.664	63.1994
22.682	63.445
22.7	63.6908
22.718	63.9316
22.736	64.1606
22.754	64.3814
22.772	64.5884
22.79	64.7767
22.808	64.9491
22.826	65.1014
22.844	65.2304
22.862	65.3381
22.88	65.4226
22.898	65.4828
22.916	65.5195
22.934	65.5338
22.952	65.5253
22.97	65.4943
22.988	65.4441
23.006	65.3746
23.024	65.2861
23.042	65.1834
23.06	65.0658
23.078	64.9345
23.096	64.7955
23.114	64.6483
23.132	64.4937
23.15	64.3376
23.168	64.179
23.186	64.019
23.204	63.8632
23.222	63.7111
23.24	63.5631
23.258	63.423
23.276	63.2907
23.294	63.1661
23.312	63.051
23.33	62.9457
23.348	62.8498
23.366	62.7635
23.384	62.6871
23.402	62.6203
23.42	62.5627
23.438	62.5145
23.456	62.4754
23.474	62.4446
23.492	62.422
23.51	62.4077
23.528	62.4004
23.546	62.4
23.564	62.4067
23.582	62.4196
23.6	62.4383
23.618	62.4632
23.636	62.4936
23.654	62.529
23.672	62.5699
23.69	62.6154
23.708	62.6653
23.726	62.7199
23.744	62.7782
23.762	62.8394
23.78	62.9041
23.798	62.9715
23.816	63.0409
23.834	63.1127
23.852	63.1865
23.87	63.2615
23.888	63.3375
23.906	63.415
23.924	63.4945
23.942	63.5758
23.96	63.6591
23.978	63.7458
23.996	63.8358
24.014	63.9287
24.032	64.0271
24.05	64.1326
24.068	64.2437
24.086	64.362
24.104	64.4887
24.122	64.6236
24.14	64.7663
24.158	64.9167
24.176	65.0764
24.194	65.2432
24.212	65.4132
24.23	65.5876
24.248	65.7665
24.266	65.942
24.284	66.1111
24.302	66.2786
24.32	66.435
24.338	66.5716
24.356	66.6955
24.374	66.7997
24.392	66.8725
24.41	66.9165
24.428	66.9318
24.446	66.9094
24.464	66.8456
24.482	66.7446
24.5	66.6027
24.518	66.4161
24.536	66.1847
24.554	65.9125
24.572	65.6038
24.59	65.2539
24.608	64.8669
24.626	64.4548
24.644	64.0202
24.662	63.5563
24.68	63.0808
24.698	62.6092
24.716	62.1276
24.734	61.6492
24.752	61.1965
24.77	60.7685
24.788	60.3603
24.806	59.9924
24.824	59.6788
24.842	59.4071
24.86	59.1869
24.878	59.0309
24.896	58.9381
24.914	58.9055
24.932	58.9363
24.95	59.0339
24.968	59.1979
24.986	59.4213
25.004	59.6973
25.022	60.0339
25.04	60.4238
25.058	60.8508
25.076	61.3103
25.094	61.8122
25.112	62.3377
25.13	62.8682
25.148	63.416
25.166	63.974
25.184	64.5209
25.202	65.0483
25.22	65.5693
25.238	66.0672
25.256	66.5244
25.274	66.9472
25.292	67.3358
25.31	67.68
25.328	67.9731
25.346	68.22
25.364	68.4213
25.382	68.577
25.4	68.6841
25.418	68.7452
25.436	68.767
25.454	68.7538
25.472	68.6991
25.49	68.6105
25.508	68.4978
25.526	68.361
25.544	68.1956
25.562	68.0141
25.58	67.8279
25.598	67.629
25.616	67.4212
25.634	67.2166
25.652	67.0231
25.67	66.8335
25.688	66.6508
25.706	66.4792
25.724	66.3214
25.742	66.1748
25.76	66.0363
25.778	65.9028
25.796	65.7734
25.814	65.6504
25.832	65.5369
25.85	65.4339
25.868	65.3384
25.886	65.2543
25.904	65.1862
25.922	65.1379
25.94	65.1069
25.958	65.0884
25.976	65.0777
25.994	65.0781
26.012	65.0888
26.03	65.1029
26.048	65.115
26.066	65.13
26.084	65.1454
26.102	65.1552
26.12	65.155
26.138	65.1484
26.156	65.1348
26.174	65.1128
26.192	65.0787
26.21	65.0317
26.228	64.9816
26.246	64.9383
26.264	64.8985
26.282	64.8589
26.3	64.8328
26.318	64.8331
26.336	64.8533
26.354	64.893
26.372	64.9631
26.39	65.0739
26.408	65.2187
26.426	65.3984
26.444	65.6201
26.462	65.8913
26.48	66.218
26.498	66.5869
26.516	66.9821
26.534	67.3924
26.552	67.8318
26.57	68.2913
26.588	68.7572
26.606	69.2185
26.624	69.6814
26.642	70.1495
26.66	70.6258
26.678	71.111
26.696	71.6017
26.714	72.1021
26.732	72.6173
26.75	73.1427
26.768	73.6644
26.786	74.212
26.804	74.8178
26.822	75.5029
26.84	76.2491
26.858	77.0511
26.876	77.905
26.894	78.8241
26.912	79.8303
26.93	80.8669
26.948	81.8733
26.966	82.8435
26.984	83.8637
27.002	84.8108
27.02	85.5462
27.028	85.746