File: Bakgrunnsmateriale/MATLAB/FTIR/ftir_data/subAa/Mapping_121/BZ1503107-1_t114_cm-1.asc
PE IR       SPECTRUM    SPECTRUM    ASCII       PEDS        1.60
  -1
BZ4C7A~1.ASC
17/04/07
22:39:07.00
17/04/07
22:39:07.00
tln
$BZ1503107-1_t0114$<tbV0>[5.2,13.0,8.0,0.0,27,1,0]
370
64

2002,4.07
MIRTGS : RIGHTBACK : INTERNAL 2
MIR : ON : INTERNAL 2
OPTKBR

0.200000
8
8.000000
FILLER
RATIO
SPECTRUM
UNLOCKED 256

DOUBLE
64
COMBINED
1
0
0

1.000000
RATIO

1
0
TRUE
51149
0
LEFT NOT FITTED RIGHT NOT FITTED 0
NONE
NONE
15600
12
4.427000
51148
TRUE
1 0 8 72 0 0 0 0

15798

#HDR
-1
-1
#GR
CM-1
%T
2.38419e-05
0.0
5000
-1.000000
4631
8
80.7654
51.8996
#DATA
5000	65.7937
4996	65.0819
4992	64.5424
4988	65.3579
4984	65.8027
4980	64.9851
4976	64.2755
4972	64.2547
4968	64.5096
4964	64.9677
4960	65.6119
4956	65.801
4952	65.4645
4948	65.251
4944	64.9421
4940	64.7637
4936	65.0979
4932	65.4828
4928	65.4266
4924	65.1547
4920	65.1439
4916	65.1909
4912	65.2045
4908	65.2245
4904	65.2015
4900	65.0367
4896	64.8518
4892	64.7742
4888	64.7249
4884	64.7904
4880	64.7537
4876	64.5996
4872	64.6089
4868	64.6712
4864	64.7374
4860	64.8329
4856	64.7701
4852	64.6923
4848	64.5666
4844	64.4259
4840	64.6011
4836	64.8198
4832	64.8471
4828	64.7915
4824	64.6513
4820	64.3641
4816	64.1275
4812	64.181
4808	64.474
4804	64.8878
4800	65.2344
4796	65.3008
4792	65.1124
4788	64.8377
4784	64.6731
4780	64.6316
4776	64.5913
4772	64.484
4768	64.5329
4764	64.9026
4760	65.1232
4756	65.0078
4752	64.9103
4748	64.9439
4744	64.8158
4740	64.597
4736	64.6567
4732	64.8648
4728	65.0722
4724	65.211
4720	65.1877
4716	65.0719
4712	64.936
4708	64.8347
4704	64.7933
4700	64.8897
4696	64.9351
4692	64.7735
4688	64.6503
4684	64.6961
4680	64.6745
4676	64.6077
4672	64.8208
4668	65.0888
4664	65.1723
4660	65.1474
4656	65.0209
4652	64.8955
4648	64.9351
4644	65.0175
4640	64.9954
4636	64.9602
4632	64.9736
4628	65.0615
4624	65.167
4620	65.2498
4616	65.2642
4612	65.0156
4608	64.6183
4604	64.5384
4600	64.7532
4596	64.7976
4592	64.8092
4588	65.0477
4584	65.0379
4580	64.7703
4576	64.8423
4572	65.1211
4568	65.1901
4564	65.148
4560	65.0218
4556	64.8009
4552	64.779
4548	65.025
4544	65.2104
4540	65.0937
4536	64.9041
4532	64.8602
4528	64.8232
4524	64.7009
4520	64.5263
4516	64.4409
4512	64.5356
4508	64.552
4504	64.5731
4500	64.7939
4496	64.747
4492	64.5855
4488	64.6223
4484	64.6824
4480	64.6994
4476	64.6145
4472	64.8349
4468	65.2745
4464	65.5867
4460	66.1269
4456	66.3769
4452	65.8426
4448	65.1761
4444	63.8833
4440	60.5383
4436	54.5588
4432	52.3022
4428	62.1735
4424	76.811
4420	80.123
4416	72.2512
4412	66.8207
4408	66.1927
4404	65.6553
4400	65.1689
4396	64.7138
4392	64.3488
4388	64.7928
4384	65.5265
4380	65.614
4376	65.2694
4372	65.1142
4368	65.2336
4364	65.2332
4360	65.0869
4356	65.059
4352	65.154
4348	65.1286
4344	64.9958
4340	64.942
4336	64.8967
4332	64.7954
4328	64.7647
4324	64.9302
4320	65.0942
4316	64.9669
4312	64.672
4308	64.5196
4304	64.5111
4300	64.6102
4296	64.7466
4292	64.8062
4288	64.9465
4284	65.0459
4280	64.9136
4276	64.811
4272	64.8242
4268	64.8176
4264	64.754
4260	64.6592
4256	64.7115
4252	64.827
4248	64.7994
4244	64.7474
4240	64.7104
4236	64.7098
4232	64.806
4228	64.917
4224	64.9681
4220	65.0345
4216	65.1571
4212	65.1682
4208	65.0809
4204	65.0849
4200	65.1184
4196	65.0538
4192	64.9509
4188	64.9818
4184	65.1353
4180	65.1573
4176	65.0924
4172	65.1021
4168	65.0245
4164	64.8732
4160	64.8208
4156	64.871
4152	64.9363
4148	64.8885
4144	64.7731
4140	64.766
4136	64.8544
4132	64.916
4128	64.9262
4124	64.9583
4120	64.9709
4116	64.9019
4112	64.9255
4108	65.0924
4104	65.183
4100	65.1132
4096	65.0031
4092	65.0001
4088	65.0217
4084	64.9501
4080	65.0094
4076	65.1917
4072	65.1855
4068	65.0134
4064	64.9215
4060	65.0263
4056	65.173
4052	65.1676
4048	65.0834
4044	65.0323
4040	65.0558
4036	65.1015
4032	65.0582
4028	64.9445
4024	64.8662
4020	64.8522
4016	64.8775
4012	64.9212
4008	64.9819
4004	65.0516
4000	65.0524
3996	64.9725
3992	64.9405
3988	64.9873
3984	65.0096
3980	65.0174
3976	64.9971
3972	64.9749
3968	64.964
3964	64.8264
3960	64.7043
3956	64.7846
3952	64.9943
3948	65.1458
3944	65.0997
3940	64.9466
3936	64.8552
3932	64.8618
3928	64.8672
3924	64.8519
3920	64.873
3916	64.8961
3912	64.8999
3908	64.9626
3904	65.0948
3900	65.1229
3896	65.0028
3892	64.9768
3888	65.138
3884	65.2973
3880	65.2478
3876	65.0653
3872	64.9629
3868	64.9029
3864	64.8823
3860	64.9523
3856	64.9611
3852	64.9324
3848	65.0059
3844	65.0305
3840	64.9841
3836	65.0275
3832	65.1317
3828	65.1522
3824	65.0813
3820	65.0553
3816	64.9807
3812	64.8535
3808	64.9763
3804	65.235
3800	65.3401
3796	65.3367
3792	65.3021
3788	65.2111
3784	65.0133
3780	64.8823
3776	64.9857
3772	65.1125
3768	65.0789
3764	64.9392
3760	64.8042
3756	64.7636
3752	64.8148
3748	64.9142
3744	64.9227
3740	64.8352
3736	64.8492
3732	64.9321
3728	64.9811
3724	64.9992
3720	65.019
3716	65.075
3712	65.0412
3708	64.975
3704	65.0349
3700	65.0864
3696	65.0575
3692	65.0336
3688	65.0626
3684	65.0682
3680	64.9763
3676	64.9673
3672	65.0593
3668	65.0419
3664	65.0425
3660	65.1293
3656	65.1299
3652	65.039
3648	64.9648
3644	65.0058
3640	65.1205
3636	65.15
3632	65.1212
3628	65.1037
3624	65.0473
3620	65.0213
3616	65.0121
3612	65.0052
3608	65.116
3604	65.1805
3600	65.0832
3596	64.9845
3592	64.8766
3588	64.7547
3584	64.7906
3580	64.9612
3576	65.0642
3572	65.045
3568	65.0147
3564	65.0125
3560	64.9785
3556	64.9021
3552	64.8549
3548	64.8763
3544	64.9154
3540	64.9388
3536	64.8553
3532	64.7214
3528	64.757
3524	64.8942
3520	64.9418
3516	64.9464
3512	65.0066
3508	64.9894
3504	64.8929
3500	64.8675
3496	64.9341
3492	64.989
3488	64.9158
3484	64.8746
3480	64.9956
3476	65.1357
3472	65.1722
3468	65.0712
3464	64.9435
3460	64.8912
3456	64.8528
3452	64.8461
3448	64.9156
3444	64.9275
3440	64.86
3436	64.8758
3432	64.9884
3428	65.048
3424	64.9883
3420	64.9849
3416	65.1074
3412	65.0915
3408	64.918
3404	64.8526
3400	64.937
3396	65.0921
3392	65.1451
3388	64.9903
3384	64.8307
3380	64.7915
3376	64.8374
3372	64.8765
3368	64.8517
3364	64.8533
3360	64.9323
3356	65.0431
3352	65.0548
3348	64.9676
3344	64.9393
3340	64.9428
3336	64.8978
3332	64.8314
3328	64.769
3324	64.7543
3320	64.8086
3316	64.8581
3312	64.813
3308	64.7362
3304	64.751
3300	64.8223
3296	64.8673
3292	64.8888
3288	64.8316
3284	64.7568
3280	64.7973
3276	64.8025
3272	64.769
3268	64.8254
3264	64.8837
3260	64.9082
3256	64.92
3252	64.8674
3248	64.7752
3244	64.7211
3240	64.7157
3236	64.7682
3232	64.7844
3228	64.7268
3224	64.7493
3220	64.8356
3216	64.8858
3212	64.933
3208	64.9502
3204	64.8511
3200	64.7601
3196	64.8253
3192	64.9302
3188	64.9338
3184	64.8514
3180	64.7922
3176	64.8031
3172	64.8159
3168	64.7974
3164	64.762
3160	64.7842
3156	64.9001
3152	64.9614
3148	64.9177
3144	64.8928
3140	64.9163
3136	64.9379
3132	64.8816
3128	64.7308
3124	64.6769
3120	64.826
3116	64.9765
3112	64.9446
3108	64.7635
3104	64.676
3100	64.7944
3096	64.8804
3092	64.8067
3088	64.767
3084	64.8196
3080	64.8147
3076	64.7617
3072	64.769
3068	64.8397
3064	64.9156
3060	64.9193
3056	64.8441
3052	64.7887
3048	64.7899
3044	64.7925
3040	64.7748
3036	64.7915
3032	64.8571
3028	64.8809
3024	64.8098
3020	64.7139
3016	64.6677
3012	64.6791
3008	64.7273
3004	64.7667
3000	64.7817
2996	64.7995
2992	64.83
2988	64.7993
2984	64.6968
2980	64.6475
2976	64.6699
2972	64.7014
2968	64.6854
2964	64.6727
2960	64.7208
2956	64.6946
2952	64.5623
2948	64.4848
2944	64.5011
2940	64.5151
2936	64.523
2932	64.5096
2928	64.4392
2924	64.4185
2920	64.469
2916	64.4546
2912	64.3975
2908	64.4023
2904	64.4267
2900	64.4543
2896	64.5554
2892	64.7062
2888	64.7517
2884	64.6805
2880	64.6141
2876	64.5988
2872	64.5828
2868	64.5021
2864	64.4505
2860	64.5234
2856	64.6481
2852	64.694
2848	64.646
2844	64.6144
2840	64.6244
2836	64.6201
2832	64.5765
2828	64.5481
2824	64.5755
2820	64.5836
2816	64.5723
2812	64.6325
2808	64.6674
2804	64.5846
2800	64.5451
2796	64.6035
2792	64.6316
2788	64.6136
2784	64.6511
2780	64.7172
2776	64.6902
2772	64.6158
2768	64.6047
2764	64.6468
2760	64.6639
2756	64.6285
2752	64.5771
2748	64.539
2744	64.5777
2740	64.7013
2736	64.7627
2732	64.7294
2728	64.684
2724	64.6211
2720	64.5431
2716	64.5161
2712	64.5514
2708	64.5683
2704	64.5837
2700	64.585
2696	64.507
2692	64.4589
2688	64.501
2684	64.5479
2680	64.5801
2676	64.6079
2672	64.5674
2668	64.499
2664	64.5462
2660	64.6151
2656	64.5667
2652	64.5377
2648	64.5761
2644	64.573
2640	64.5494
2636	64.5519
2632	64.5347
2628	64.5375
2624	64.5727
2620	64.5752
2616	64.5621
2612	64.5472
2608	64.5225
2604	64.4966
2600	64.52
2596	64.5522
2592	64.4877
2588	64.377
2584	64.349
2580	64.4121
2576	64.4801
2572	64.4965
2568	64.4334
2564	64.3874
2560	64.4539
2556	64.4893
2552	64.4424
2548	64.4163
2544	64.4043
2540	64.4133
2536	64.4304
2532	64.4086
2528	64.3648
2524	64.4061
2520	64.5502
2516	64.5845
2512	64.4987
2508	64.448
2504	64.4422
2500	64.4563
2496	64.4823
2492	64.468
2488	64.4033
2484	64.3787
2480	64.3811
2476	64.397
2472	64.4454
2468	64.4517
2464	64.413
2460	64.4045
2456	64.4026
2452	64.3621
2448	64.3543
2444	64.3846
2440	64.3897
2436	64.364
2432	64.3434
2428	64.33
2424	64.3132
2420	64.3193
2416	64.2809
2412	64.2324
2408	64.2884
2404	64.4051
2400	64.4824
2396	64.4644
2392	64.4021
2388	64.3602
2384	64.3743
2380	64.4179
2376	64.4129
2372	64.3784
2368	64.3455
2364	64.3652
2360	64.428
2356	64.4146
2352	64.3731
2348	64.3529
2344	64.3159
2340	64.3046
2336	64.3413
2332	64.4017
2328	64.4088
2324	64.3192
2320	64.254
2316	64.2352
2312	64.2205
2308	64.2546
2304	64.2638
2300	64.2233
2296	64.2244
2292	64.2265
2288	64.2095
2284	64.2584
2280	64.2955
2276	64.262
2272	64.2581
2268	64.3082
2264	64.358
2260	64.3518
2256	64.3009
2252	64.2563
2248	64.21
2244	64.1829
2240	64.2081
2236	64.2421
2232	64.2624
2228	64.2667
2224	64.2593
2220	64.26
2216	64.2421
2212	64.2265
2208	64.2262
2204	64.2116
2200	64.2288
2196	64.2316
2192	64.1637
2188	64.1347
2184	64.2262
2180	64.3351
2176	64.3255
2172	64.2387
2168	64.1813
2164	64.1669
2160	64.1803
2156	64.2026
2152	64.1644
2148	64.0998
2144	64.1108
2140	64.1979
2136	64.2443
2132	64.1765
2128	64.15
2124	64.1976
2120	64.2092
2116	64.2295
2112	64.2286
2108	64.1375
2104	64.0761
2100	64.0902
2096	64.0814
2092	64.1017
2088	64.1917
2084	64.2343
2080	64.151
2076	64.0435
2072	64.0146
2068	64.0289
2064	64.0661
2060	64.1136
2056	64.113
2052	64.0405
2048	63.9584
2044	63.9417
2040	63.995
2036	64.0434
2032	64.0251
2028	63.9874
2024	63.9542
2020	63.9206
2016	63.9112
2012	63.9089
2008	63.9388
2004	63.9752
2000	63.9308
1996	63.896
1992	63.9039
1988	63.8715
1984	63.8375
1980	63.8322
1976	63.8501
1972	63.8746
1968	63.8781
1964	63.8715
1960	63.8506
1956	63.8691
1952	63.9415
1948	63.9777
1944	63.9703
1940	63.9766
1936	64.0127
1932	63.989
1928	63.9164
1924	63.925
1920	63.9472
1916	63.8984
1912	63.8528
1908	63.8796
1904	63.9035
1900	63.8547
1896	63.8209
1892	63.8433
1888	63.8733
1884	63.8675
1880	63.86
1876	63.8694
1872	63.8532
1868	63.8518
1864	63.8684
1860	63.8556
1856	63.8149
1852	63.7789
1848	63.7308
1844	63.6767
1840	63.7151
1836	63.8229
1832	63.8886
1828	63.866
1824	63.806
1820	63.7565
1816	63.717
1812	63.7474
1808	63.8286
1804	63.8469
1800	63.7908
1796	63.746
1792	63.7334
1788	63.7396
1784	63.7737
1780	63.7703
1776	63.6991
1772	63.6501
1768	63.6518
1764	63.6709
1760	63.7035
1756	63.6957
1752	63.6372
1748	63.5904
1744	63.5469
1740	63.4887
1736	63.4488
1732	63.434
1728	63.4359
1724	63.4811
1720	63.5254
1716	63.5334
1712	63.5827
1708	63.6272
1704	63.6049
1700	63.5905
1696	63.5994
1692	63.5983
1688	63.6265
1684	63.6468
1680	63.5914
1676	63.5683
1672	63.6056
1668	63.626
1664	63.6349
1660	63.6265
1656	63.5838
1652	63.5161
1648	63.4615
1644	63.4624
1640	63.4944
1636	63.5169
1632	63.5038
1628	63.4614
1624	63.4241
1620	63.4288
1616	63.453
1612	63.398
1608	63.3044
1604	63.3131
1600	63.3859
1596	63.4131
1592	63.4226
1588	63.4302
1584	63.4141
1580	63.4008
1576	63.3882
1572	63.3922
1568	63.4359
1564	63.4436
1560	63.3991
1556	63.387
1552	63.3572
1548	63.2857
1544	63.2969
1540	63.3585
1536	63.3352
1532	63.2633
1528	63.2495
1524	63.3108
1520	63.4076
1516	63.4618
1512	63.4473
1508	63.4679
1504	63.5228
1500	63.4948
1496	63.4214
1492	63.4089
1488	63.3744
1484	63.2951
1480	63.277
1476	63.3075
1472	63.3069
1468	63.2594
1464	63.233
1460	63.2066
1456	63.1735
1452	63.1908
1448	63.2037
1444	63.2069
1440	63.1928
1436	63.1594
1432	63.2033
1428	63.2242
1424	63.1193
1420	63.0885
1416	63.1767
1412	63.1939
1408	63.1608
1404	63.1559
1400	63.1121
1396	63.0614
1392	63.0718
1388	63.074
1384	63.0282
1380	62.9979
1376	62.99
1372	62.9674
1368	62.9786
1364	63.0502
1360	63.0903
1356	63.0815
1352	63.1209
1348	63.1665
1344	63.1254
1340	63.0646
1336	63.0756
1332	63.1484
1328	63.1775
1324	63.1063
1320	63.0045
1316	62.981
1312	62.9942
1308	62.9199
1304	62.8762
1300	62.9786
1296	63.0562
1292	62.9933
1288	62.9489
1284	62.9784
1280	62.9661
1276	62.9317
1272	62.9299
1268	62.9094
1264	62.8335
1260	62.7932
1256	62.7968
1252	62.7675
1248	62.7593
1244	62.7769
1240	62.7341
1236	62.7043
1232	62.769
1228	62.8108
1224	62.7908
1220	62.7959
1216	62.846
1212	62.8769
1208	62.8058
1204	62.7143
1200	62.7065
1196	62.723
1192	62.7259
1188	62.7331
1184	62.7323
1180	62.7313
1176	62.729
1172	62.6814
1168	62.6378
1164	62.6806
1160	62.7584
1156	62.7227
1152	62.5886
1148	62.5741
1144	62.6952
1140	62.7623
1136	62.7346
1132	62.7306
1128	62.762
1124	62.728
1120	62.6425
1116	62.6206
1112	62.6611
1108	62.6594
1104	62.6701
1100	62.7176
1096	62.6996
1092	62.6137
1088	62.5711
1084	62.6441
1080	62.6908
1076	62.6094
1072	62.5826
1068	62.6752
1064	62.7228
1060	62.7037
1056	62.7205
1052	62.7588
1048	62.7981
1044	62.8271
1040	62.7263
1036	62.5977
1032	62.6144
1028	62.624
1024	62.554
1020	62.4838
1016	62.4594
1012	62.5517
1008	62.6818
1004	62.7211
1000	62.6688
996	 62.5523
992	 62.4632
988	 62.494
984	 62.5776
980	 62.5977
976	 62.5622
972	 62.5718
968	 62.5996
964	 62.5308
960	 62.4333
956	 62.4474
952	 62.5034
948	 62.4904
944	 62.5068
940	 62.558
936	 62.5666
932	 62.6026
928	 62.6554
924	 62.6384
920	 62.6751
916	 62.7609
912	 62.6762
908	 62.5602
904	 62.5491
900	 62.4897
896	 62.3887
892	 62.4436
888	 62.6621
884	 62.7082
880	 62.5457
876	 62.4533
872	 62.4471
868	 62.486
864	 62.4766
860	 62.4259
856	 62.5425
852	 62.6676
848	 62.5194
844	 62.3156
840	 62.2651
836	 62.3199
832	 62.4885
828	 62.6023
824	 62.4982
820	 62.4503
816	 62.5564
812	 62.5416
808	 62.4101
804	 62.3209
800	 62.3188
796	 62.3995
792	 62.482
788	 62.4816
784	 62.3954
780	 62.2004
776	 61.9785
772	 61.9637
768	 62.1173
764	 62.2187
760	 62.2548
756	 62.2012
752	 62.1355
748	 62.2267
744	 62.2246
740	 62.0986
736	 62.1189
732	 62.159
728	 62.1684
724	 62.0964
720	 61.939
716	 61.9212
712	 61.9739
708	 61.8705
704	 61.6708
700	 61.6041
696	 61.7329
692	 62.0111
688	 62.1312
684	 61.9773
680	 62.0249
676	 62.1978
672	 62.263
668	 62.251
664	 61.9421
660	 61.4111
656	 61.0498
652	 61.2306
648	 61.6958
644	 61.8636
640	 61.829
636	 61.8704
632	 61.5769
628	 60.6219
624	 60.0971
620	 60.8906
616	 61.747
612	 61.5416
608	 60.9114
604	 60.8475
600	 61.3587
596	 61.5269
592	 61.2478
588	 61.253
584	 61.5592
580	 61.325
576	 60.597
572	 60.5279
568	 61.2666
564	 61.7587
560	 61.8082
556	 61.8489
552	 61.6994
548	 61.4604
544	 61.6008
540	 61.8784
536	 61.6609
532	 61.056
528	 60.6833
524	 60.4637
520	 60.2532
516	 60.3523
512	 60.8413
508	 61.1339
504	 60.9842
500	 60.9413
496	 61.1699
492	 61.3695
488	 61.2443
484	 60.9901
480	 60.9041
476	 60.8791
472	 60.7872
468	 60.603
464	 60.4156
460	 60.403
456	 60.3475
452	 60.5461
448	 60.7191
444	 60.1107
440	 59.7401
436	 60.3031
432	 61.2166
428	 61.128
424	 60.153
420	 60.1909
416	 60.3554
412	 59.302
408	 58.0195
404	 57.2611
400	 58.4574
396	 60.7685
392	 61.9221
388	 66.3128
384	 70.845
380	 71.9733
376	 74.0081
372	 69.636
370	 67.2799