File: Bakgrunnsmateriale/MATLAB/FTIR/ftir_data/subAa/Mapping_121/BZ1503107-1_t84_cm-1.asc
PE IR       SPECTRUM    SPECTRUM    ASCII       PEDS        1.60
  -1
BZ6C26~1.ASC
17/04/07
20:07:11.00
17/04/07
20:07:11.00
tln
$BZ1503107-1_t0084$<tbV0>[-2.6,5.2,8.0,0.0,27,1,0]
370
64

2002,4.07
MIRTGS : RIGHTBACK : INTERNAL 2
MIR : ON : INTERNAL 2
OPTKBR

0.200000
8
8.000000
FILLER
RATIO
SPECTRUM
UNLOCKED 256

DOUBLE
64
COMBINED
1
0
0

1.000000
RATIO

1
0
TRUE
51149
0
LEFT NOT FITTED RIGHT NOT FITTED 0
NONE
NONE
15600
12
4.427000
51148
TRUE
1 0 8 72 0 0 0 0

15798

#HDR
-1
-1
#GR
CM-1
%T
2.38419e-05
0.0
5000
-1.000000
4631
8
69.1699
40.0193
#DATA
5000	65.9016
4996	64.9268
4992	63.494
4988	63.4073
4984	63.2383
4980	62.6496
4976	62.8928
4972	63.8387
4968	64.6633
4964	64.8505
4960	64.6023
4956	64.9675
4952	65.8714
4948	65.7178
4944	64.6498
4940	64.3032
4936	64.8359
4932	65.4055
4928	65.5633
4924	65.4301
4920	65.3162
4916	65.1614
4912	64.9772
4908	64.858
4904	64.6358
4900	64.4824
4896	64.6999
4892	65.047
4888	65.2391
4884	65.3375
4880	65.2149
4876	64.8309
4872	64.4786
4868	64.341
4864	64.3111
4860	64.4163
4856	64.6038
4852	64.5682
4848	64.4409
4844	64.4475
4840	64.5262
4836	64.6057
4832	64.7053
4828	64.6276
4824	64.4599
4820	64.5012
4816	64.6306
4812	64.7279
4808	64.7432
4804	64.6421
4800	64.4707
4796	64.3939
4792	64.4337
4788	64.4916
4784	64.5451
4780	64.5681
4776	64.7273
4772	65.0445
4768	65.2119
4764	64.9699
4760	64.456
4756	64.2397
4752	64.4579
4748	64.7052
4744	64.8622
4740	64.9287
4736	64.7911
4732	64.6929
4728	64.9012
4724	65.1237
4720	65.1037
4716	64.916
4712	64.646
4708	64.5074
4704	64.7078
4700	64.9865
4696	64.8545
4692	64.5244
4688	64.6263
4684	64.905
4680	64.781
4676	64.5274
4672	64.5166
4668	64.6725
4664	64.7545
4660	64.759
4656	64.8096
4652	64.8516
4648	64.7562
4644	64.5812
4640	64.5398
4636	64.5738
4632	64.5991
4628	64.5982
4624	64.639
4620	64.8135
4616	65.0335
4612	65.224
4608	65.291
4604	65.1715
4600	65.0141
4596	65.0143
4592	65.0676
4588	64.9611
4584	64.8746
4580	64.9659
4576	64.9257
4572	64.6285
4568	64.4275
4564	64.5272
4560	64.7234
4556	64.889
4552	65.0635
4548	65.1123
4544	64.9983
4540	64.8757
4536	64.8579
4532	64.9177
4528	64.982
4524	65.039
4520	65.151
4516	65.0596
4512	64.8743
4508	64.9836
4504	65.0722
4500	65.0788
4496	65.244
4492	65.2573
4488	65.1945
4484	65.0865
4480	64.7222
4476	64.4082
4472	64.2318
4468	64.1709
4464	64.2627
4460	63.617
4456	62.3328
4452	61.8638
4448	61.6516
4444	64.9473
4440	65.6917
4436	56.4706
4432	54.6624
4428	64.3321
4424	67.1614
4420	66.4576
4416	68.3511
4412	69.055
4408	67.1691
4404	65.0268
4400	64.377
4396	64.8019
4392	64.7406
4388	64.4578
4384	64.6195
4380	64.9037
4376	64.8148
4372	64.9027
4368	65.378
4364	65.5113
4360	65.3026
4356	65.0748
4352	65.0414
4348	65.238
4344	65.2888
4340	65.1545
4336	64.9965
4332	64.9
4328	64.9241
4324	64.946
4320	64.9405
4316	64.9993
4312	65.0291
4308	65.0435
4304	65.0681
4300	64.9949
4296	64.9264
4292	64.9704
4288	65.0116
4284	64.9847
4280	65.0493
4276	65.264
4272	65.3618
4268	65.1572
4264	64.8826
4260	64.8997
4256	65.0816
4252	64.964
4248	64.7261
4244	64.7478
4240	64.8217
4236	64.7863
4232	64.7185
4228	64.7086
4224	64.8387
4220	64.9012
4216	64.7732
4212	64.6716
4208	64.7153
4204	64.8425
4200	64.9567
4196	64.9499
4192	64.8012
4188	64.6645
4184	64.5968
4180	64.6886
4176	64.8115
4172	64.7304
4168	64.744
4164	64.8282
4160	64.7944
4156	64.766
4152	64.7717
4148	64.8022
4144	64.7011
4140	64.524
4136	64.5547
4132	64.7945
4128	65.0018
4124	65.0189
4120	64.9636
4116	65.0628
4112	65.2762
4108	65.2725
4104	65.0247
4100	64.8896
4096	64.9496
4092	65.0123
4088	64.9926
4084	64.9497
4080	64.9435
4076	64.9084
4072	64.7974
4068	64.6775
4064	64.6764
4060	64.734
4056	64.76
4052	64.8931
4048	65.0729
4044	65.0995
4040	65.0092
4036	64.9193
4032	64.8361
4028	64.8402
4024	64.9634
4020	65.0256
4016	65.0127
4012	64.9846
4008	64.9666
4004	65.0224
4000	65.0338
3996	64.9562
3992	64.9432
3988	64.9467
3984	64.8735
3980	64.8861
3976	64.9742
3972	64.9318
3968	64.9064
3964	64.9721
3960	64.8388
3956	64.6339
3952	64.7649
3948	65.0845
3944	65.1732
3940	65.0399
3936	64.8749
3932	64.6976
3928	64.5861
3924	64.6417
3920	64.8458
3916	65.0439
3912	65.0503
3908	64.9203
3904	64.8822
3900	64.9671
3896	64.8905
3892	64.7832
3888	65.0048
3884	65.1483
3880	65.0148
3876	65.0764
3872	65.3648
3868	65.4585
3864	65.1838
3860	64.945
3856	65.0151
3852	64.974
3848	64.7627
3844	64.7751
3840	64.9294
3836	65.0298
3832	64.9875
3828	64.8574
3824	64.8549
3820	64.8907
3816	64.8851
3812	64.926
3808	65.0017
3804	65.0215
3800	64.9431
3796	64.933
3792	65.0193
3788	65.092
3784	65.134
3780	65.1299
3776	65.0698
3772	65.0073
3768	64.9086
3764	64.6985
3760	64.6392
3756	64.8542
3752	65.0163
3748	65.0237
3744	65.0739
3740	65.1039
3736	64.9909
3732	64.9651
3728	65.0661
3724	65.032
3720	64.9236
3716	64.8668
3712	64.8316
3708	64.9045
3704	65.0606
3700	65.1538
3696	65.1689
3692	65.124
3688	65.0119
3684	64.962
3680	65.0644
3676	65.2296
3672	65.3052
3668	65.1687
3664	64.9781
3660	64.9369
3656	65.0352
3652	65.0857
3648	64.9293
3644	64.8381
3640	64.9792
3636	65.0266
3632	64.9398
3628	64.9332
3624	65.0217
3620	65.0838
3616	65.0302
3612	64.9928
3608	65.0448
3604	65.0648
3600	64.9865
3596	64.9313
3592	64.9922
3588	65.0066
3584	64.8714
3580	64.7544
3576	64.7776
3572	64.8996
3568	65.0634
3564	65.1392
3560	65.0199
3556	64.896
3552	64.903
3548	64.9174
3544	64.924
3540	64.9485
3536	64.9864
3532	65.006
3528	64.9488
3524	64.9116
3520	65.0317
3516	65.1485
3512	65.0758
3508	64.971
3504	64.9674
3500	64.9503
3496	64.8888
3492	64.8656
3488	64.9257
3484	65.025
3480	65.0842
3476	65.0948
3472	65.058
3468	65.0295
3464	65.0122
3460	64.983
3456	64.9885
3452	65.0184
3448	65.0839
3444	65.1425
3440	65.1138
3436	65.0025
3432	64.9193
3428	64.9627
3424	65.0078
3420	64.9583
3416	64.9208
3412	64.9476
3408	64.9332
3404	64.88
3400	64.869
3396	64.8734
3392	64.8842
3388	64.8789
3384	64.8703
3380	64.9397
3376	64.9852
3372	64.9286
3368	64.9288
3364	64.9493
3360	64.94
3356	64.975
3352	64.9435
3348	64.8987
3344	64.9092
3340	64.89
3336	64.8876
3332	64.9364
3328	64.9899
3324	64.9954
3320	64.9411
3316	64.8869
3312	64.8877
3308	64.9102
3304	64.9474
3300	65.0053
3296	64.9871
3292	64.9279
3288	64.9172
3284	64.8658
3280	64.8041
3276	64.8162
3272	64.823
3268	64.8276
3264	64.8398
3260	64.8576
3256	64.9132
3252	64.9272
3248	64.9142
3244	64.9273
3240	64.9704
3236	65.0317
3232	64.9968
3228	64.8608
3224	64.7885
3220	64.8201
3216	64.8412
3212	64.8303
3208	64.8693
3204	64.9389
3200	64.969
3196	65.0171
3192	65.0371
3188	64.9511
3184	64.9137
3180	64.9702
3176	65.0101
3172	65.0142
3168	65.0005
3164	64.9804
3160	64.9724
3156	64.9613
3152	64.9479
3148	64.9977
3144	65.0522
3140	64.9943
3136	64.9018
3132	64.8435
3128	64.8294
3124	64.881
3120	64.9546
3116	64.9879
3112	64.9465
3108	64.9158
3104	64.938
3100	64.9314
3096	64.8666
3092	64.7816
3088	64.7708
3084	64.8378
3080	64.9196
3076	64.9959
3072	65.0259
3068	64.9955
3064	64.9172
3060	64.8231
3056	64.7542
3052	64.748
3048	64.8029
3044	64.8792
3040	64.8998
3036	64.7957
3032	64.7573
3028	64.8799
3024	64.9608
3020	64.955
3016	64.901
3012	64.811
3008	64.7326
3004	64.7338
3000	64.8212
2996	64.8825
2992	64.8763
2988	64.7929
2984	64.7069
2980	64.7869
2976	64.8641
2972	64.7509
2968	64.6825
2964	64.754
2960	64.7672
2956	64.7048
2952	64.6738
2948	64.7094
2944	64.7469
2940	64.7459
2936	64.8
2932	64.8598
2928	64.7945
2924	64.669
2920	64.6055
2916	64.6329
2912	64.6924
2908	64.7202
2904	64.7268
2900	64.705
2896	64.6811
2892	64.7052
2888	64.7425
2884	64.749
2880	64.7593
2876	64.7766
2872	64.7266
2868	64.6267
2864	64.6032
2860	64.6654
2856	64.7362
2852	64.7934
2848	64.8204
2844	64.827
2840	64.8239
2836	64.7995
2832	64.7824
2828	64.8081
2824	64.853
2820	64.8696
2816	64.9051
2812	64.9564
2808	64.9139
2804	64.8039
2800	64.7712
2796	64.8242
2792	64.8602
2788	64.8365
2784	64.8185
2780	64.8728
2776	64.8873
2772	64.8289
2768	64.8356
2764	64.8929
2760	64.8648
2756	64.8246
2752	64.8266
2748	64.7616
2744	64.6806
2740	64.6725
2736	64.6991
2732	64.7308
2728	64.7983
2724	64.8582
2720	64.8506
2716	64.83
2712	64.8096
2708	64.7693
2704	64.7101
2700	64.6569
2696	64.6783
2692	64.741
2688	64.7902
2684	64.8378
2680	64.8794
2676	64.8733
2672	64.8076
2668	64.6908
2664	64.5922
2660	64.6326
2656	64.7291
2652	64.7291
2648	64.6539
2644	64.6262
2640	64.6777
2636	64.6913
2632	64.6887
2628	64.7515
2624	64.7677
2620	64.7048
2616	64.6615
2612	64.6666
2608	64.6747
2604	64.669
2600	64.6863
2596	64.7327
2592	64.7898
2588	64.7451
2584	64.6384
2580	64.6296
2576	64.657
2572	64.6432
2568	64.6377
2564	64.6553
2560	64.6608
2556	64.6545
2552	64.6366
2548	64.6194
2544	64.6067
2540	64.588
2536	64.5809
2532	64.6002
2528	64.65
2524	64.7444
2520	64.8006
2516	64.7056
2512	64.5721
2508	64.5495
2504	64.6309
2500	64.7185
2496	64.7284
2492	64.6905
2488	64.6793
2484	64.7054
2480	64.6875
2476	64.6335
2472	64.6131
2468	64.5853
2464	64.5603
2460	64.6097
2456	64.6857
2452	64.6875
2448	64.6655
2444	64.6626
2440	64.6289
2436	64.6016
2432	64.6331
2428	64.6755
2424	64.6713
2420	64.6712
2416	64.7025
2412	64.6973
2408	64.6518
2404	64.5991
2400	64.5465
2396	64.5029
2392	64.4899
2388	64.5363
2384	64.5779
2380	64.56
2376	64.5508
2372	64.5627
2368	64.5295
2364	64.4542
2360	64.438
2356	64.4953
2352	64.5593
2348	64.5942
2344	64.5733
2340	64.5618
2336	64.6028
2332	64.6199
2328	64.5876
2324	64.5575
2320	64.5347
2316	64.4925
2312	64.4432
2308	64.4265
2304	64.4665
2300	64.5111
2296	64.5271
2292	64.539
2288	64.5355
2284	64.5213
2280	64.536
2276	64.5527
2272	64.5208
2268	64.4979
2264	64.5293
2260	64.5683
2256	64.5443
2252	64.4891
2248	64.4926
2244	64.5244
2240	64.5183
2236	64.4921
2232	64.5193
2228	64.5613
2224	64.5121
2220	64.4319
2216	64.4493
2212	64.5227
2208	64.5328
2204	64.4728
2200	64.431
2196	64.4352
2192	64.4482
2188	64.4461
2184	64.4149
2180	64.3876
2176	64.3831
2172	64.367
2168	64.3614
2164	64.4053
2160	64.4443
2156	64.4792
2152	64.5109
2148	64.4907
2144	64.4511
2140	64.3785
2136	64.316
2132	64.3205
2128	64.3038
2124	64.269
2120	64.2832
2116	64.3197
2112	64.3826
2108	64.4446
2104	64.4187
2100	64.3418
2096	64.3125
2092	64.3061
2088	64.2736
2084	64.2808
2080	64.3343
2076	64.3469
2072	64.2996
2068	64.2541
2064	64.2304
2060	64.2275
2056	64.2663
2052	64.2945
2048	64.2936
2044	64.2642
2040	64.2154
2036	64.2067
2032	64.2066
2028	64.2162
2024	64.2408
2020	64.2285
2016	64.2148
2012	64.2587
2008	64.3386
2004	64.3463
2000	64.2536
1996	64.1688
1992	64.1464
1988	64.1695
1984	64.2274
1980	64.288
1976	64.2818
1972	64.211
1968	64.1714
1964	64.1806
1960	64.1939
1956	64.2445
1952	64.261
1948	64.1697
1944	64.1232
1940	64.2096
1936	64.2805
1932	64.2434
1928	64.202
1924	64.2041
1920	64.2264
1916	64.2621
1912	64.2781
1908	64.2676
1904	64.2218
1900	64.1523
1896	64.168
1892	64.2343
1888	64.2263
1884	64.1727
1880	64.1607
1876	64.1795
1872	64.1559
1868	64.1351
1864	64.1791
1860	64.2061
1856	64.1797
1852	64.1689
1848	64.1554
1844	64.1004
1840	64.0746
1836	64.1367
1832	64.2087
1828	64.183
1824	64.0853
1820	64.0814
1816	64.1983
1812	64.2313
1808	64.1585
1804	64.1182
1800	64.1054
1796	64.0738
1792	64.0664
1788	64.1131
1784	64.1254
1780	64.0823
1776	64.0699
1772	64.0856
1768	64.0952
1764	64.1046
1760	64.0885
1756	63.9765
1752	63.7964
1748	63.7233
1744	63.7958
1740	63.8551
1736	63.8559
1732	63.8757
1728	63.8997
1724	63.8826
1720	63.8771
1716	63.9151
1712	63.9264
1708	63.8802
1704	63.8432
1700	63.8791
1696	63.9678
1692	64.0177
1688	63.9801
1684	63.9176
1680	63.8928
1676	63.8697
1672	63.8093
1668	63.7906
1664	63.8881
1660	63.9987
1656	63.9636
1652	63.8613
1648	63.8516
1644	63.8515
1640	63.7608
1636	63.7063
1632	63.7913
1628	63.869
1624	63.885
1620	63.9481
1616	63.9696
1612	63.8294
1608	63.6649
1604	63.6376
1600	63.7398
1596	63.8287
1592	63.8384
1588	63.8915
1584	63.9731
1580	63.9605
1576	63.8934
1572	63.8498
1568	63.8056
1564	63.7661
1560	63.8067
1556	63.8359
1552	63.7664
1548	63.7462
1544	63.8304
1540	63.8708
1536	63.7737
1532	63.6921
1528	63.7422
1524	63.8038
1520	63.7749
1516	63.7373
1512	63.7785
1508	63.8278
1504	63.808
1500	63.7489
1496	63.7111
1492	63.7357
1488	63.785
1484	63.7999
1480	63.7864
1476	63.7497
1472	63.6846
1468	63.6343
1464	63.6471
1460	63.7003
1456	63.7057
1452	63.6413
1448	63.6039
1444	63.6198
1440	63.6724
1436	63.7398
1432	63.7186
1428	63.6408
1424	63.5996
1420	63.5895
1416	63.6235
1412	63.6342
1408	63.5938
1404	63.5771
1400	63.5763
1396	63.6006
1392	63.6486
1388	63.667
1384	63.6289
1380	63.5351
1376	63.4526
1372	63.4842
1368	63.5801
1364	63.5905
1360	63.5533
1356	63.5637
1352	63.5831
1348	63.5595
1344	63.5129
1340	63.5533
1336	63.6674
1332	63.6854
1328	63.6373
1324	63.6341
1320	63.5847
1316	63.486
1312	63.5134
1308	63.6017
1304	63.5905
1300	63.4753
1296	63.3443
1292	63.3206
1288	63.3658
1284	63.374
1280	63.3474
1276	63.3282
1272	63.3624
1268	63.4003
1264	63.3514
1260	63.3175
1256	63.391
1252	63.4809
1248	63.4826
1244	63.4175
1240	63.3547
1236	63.3191
1232	63.3183
1228	63.3456
1224	63.3823
1220	63.3626
1216	63.3384
1212	63.4252
1208	63.5346
1204	63.5489
1200	63.5046
1196	63.4806
1192	63.4117
1188	63.321
1184	63.3237
1180	63.334
1176	63.3068
1172	63.2753
1168	63.2342
1164	63.2312
1160	63.2873
1156	63.3208
1152	63.3195
1148	63.3686
1144	63.4139
1140	63.3866
1136	63.3317
1132	63.2824
1128	63.2532
1124	63.2904
1120	63.3908
1116	63.4372
1112	63.3955
1108	63.3403
1104	63.3012
1100	63.2726
1096	63.2357
1092	63.1825
1088	63.1984
1084	63.2514
1080	63.231
1076	63.2529
1072	63.3397
1068	63.3326
1064	63.2762
1060	63.262
1056	63.2616
1052	63.2916
1048	63.3062
1044	63.2503
1040	63.1901
1036	63.1884
1032	63.2689
1028	63.2684
1024	63.0998
1020	62.9993
1016	62.9893
1012	62.982
1008	63.1218
1004	63.2894
1000	63.2184
996	 63.0553
992	 63.0188
988	 63.06
984	 63.19
980	 63.3478
976	 63.2875
972	 63.1135
968	 63.1349
964	 63.2664
960	 63.2927
956	 63.2453
952	 63.1952
948	 63.1783
944	 63.2024
940	 63.1842
936	 63.0975
932	 63.0727
928	 63.1273
924	 63.1554
920	 63.1919
916	 63.2775
912	 63.2634
908	 63.1451
904	 63.0918
900	 63.0707
896	 63.0913
892	 63.206
888	 63.3036
884	 63.2381
880	 63.0854
876	 63.1125
872	 63.2135
868	 63.1656
864	 63.0498
860	 63.0507
856	 63.1389
852	 63.0697
848	 62.9601
844	 62.9952
840	 63.056
836	 63.0381
832	 62.9986
828	 63.1271
824	 63.3579
820	 63.322
816	 63.0336
812	 62.9154
808	 63.0391
804	 63.1177
800	 63.061
796	 62.9837
792	 62.9957
788	 62.9795
784	 62.9292
780	 63.0513
776	 63.0522
772	 62.8185
768	 62.7454
764	 62.7826
760	 62.7908
756	 62.8469
752	 62.8763
748	 62.804
744	 62.6914
740	 62.6875
736	 62.8106
732	 62.8685
728	 62.7802
724	 62.7145
720	 62.7198
716	 62.6897
712	 62.6342
708	 62.503
704	 62.4342
700	 62.5801
696	 62.7463
692	 62.856
688	 62.8528
684	 62.8059
680	 62.9619
676	 62.9931
672	 62.6341
668	 62.2446
664	 62.2899
660	 62.6665
656	 62.5973
652	 62.1503
648	 62.0344
644	 62.021
640	 61.6871
636	 61.6064
632	 62.2444
628	 62.6391
624	 62.2621
620	 62.0857
616	 62.3411
612	 62.6231
608	 62.7153
604	 62.6603
600	 62.7113
596	 62.5486
592	 62.4736
588	 62.6497
584	 62.5654
580	 62.563
576	 62.8836
572	 63.2447
568	 63.3701
564	 62.7778
560	 61.7149
556	 61.7294
552	 62.7941
548	 62.9737
544	 62.3293
540	 62.5301
536	 62.9302
532	 62.3902
528	 62.1038
524	 62.4372
520	 62.4937
516	 62.4129
512	 62.6438
508	 62.8934
504	 62.5081
500	 61.9791
496	 62.2503
492	 62.5893
488	 62.5429
484	 62.7151
480	 62.8034
476	 62.4968
472	 62.1145
468	 62.0624
464	 62.2897
460	 62.3908
456	 62.2772
452	 62.2092
448	 62.6128
444	 62.9583
440	 62.8509
436	 62.8989
432	 62.5169
428	 61.7712
424	 61.5533
420	 60.8023
416	 60.1133
412	 61.0438
408	 61.2334
404	 59.477
400	 58.6063
396	 59.3218
392	 59.7195
388	 60.5618
384	 59.95
380	 48.7283
376	 40.0193
372	 46.6404
370	 48.146