File: Bakgrunnsmateriale/MATLAB/FTIR/ftir_data/subAa/Mapping_121/BZ1503107-1_t43_cm-1.asc
PE IR       SPECTRUM    SPECTRUM    ASCII       PEDS        1.60
  -1
BZ6B24~1.ASC
17/04/07
16:42:51.00
17/04/07
16:42:51.00
tln
$BZ1503107-1_t0043$<tbV0>[-10.4,-5.2,8.0,0.0,27,1,0]
370
64

2002,4.07
MIRTGS : RIGHTBACK : INTERNAL 2
MIR : ON : INTERNAL 2
OPTKBR

0.200000
8
8.000000
FILLER
RATIO
SPECTRUM
UNLOCKED 256

DOUBLE
64
COMBINED
1
0
0

1.000000
RATIO

1
0
TRUE
51149
0
LEFT NOT FITTED RIGHT NOT FITTED 0
NONE
NONE
15600
12
4.427000
51148
TRUE
1 0 8 72 0 0 0 0

15798

#HDR
-1
-1
#GR
CM-1
%T
2.38419e-05
0.0
5000
-1.000000
4631
8
85.6494
59.5953
#DATA
5000	65.2682
4996	64.7415
4992	64.661
4988	64.7758
4984	64.8313
4980	64.711
4976	64.606
4972	64.4878
4968	64.2604
4964	64.3484
4960	64.5834
4956	64.5894
4952	64.6798
4948	64.8129
4944	64.7861
4940	64.7452
4936	64.485
4932	64.3318
4928	64.7002
4924	64.9951
4920	65.0029
4916	64.8158
4912	64.5816
4908	64.674
4904	64.886
4900	64.8274
4896	64.5972
4892	64.6058
4888	64.8364
4884	65.0915
4880	65.1705
4876	64.9254
4872	64.7106
4868	64.7035
4864	64.6882
4860	64.6431
4856	64.8331
4852	65.058
4848	65.026
4844	65.0129
4840	64.9534
4836	64.8555
4832	65.0355
4828	65.3018
4824	65.3576
4820	65.1345
4816	64.9686
4812	65.1245
4808	65.2013
4804	65.0519
4800	64.9493
4796	65.002
4792	65.1331
4788	65.156
4784	65.0654
4780	65.0254
4776	65.1095
4772	65.2369
4768	65.3128
4764	65.3518
4760	65.4118
4756	65.5589
4752	65.5356
4748	65.2791
4744	65.2172
4740	65.3273
4736	65.3094
4732	65.2645
4728	65.3048
4724	65.3236
4720	65.402
4716	65.6173
4712	65.9904
4708	66.2497
4704	65.9336
4700	65.4122
4696	65.3815
4692	65.617
4688	65.5799
4684	65.3426
4680	65.1825
4676	65.1758
4672	65.1489
4668	65.0354
4664	65.0394
4660	65.0687
4656	65.0917
4652	65.2115
4648	65.2596
4644	65.1496
4640	64.9108
4636	64.7901
4632	64.7724
4628	64.706
4624	64.8783
4620	65.1842
4616	65.1476
4612	64.8522
4608	64.6182
4604	64.415
4600	64.3282
4596	64.4897
4592	64.6099
4588	64.4871
4584	64.3345
4580	64.3913
4576	64.472
4572	64.4257
4568	64.4886
4564	64.6299
4560	64.5361
4556	64.2602
4552	64.1144
4548	64.0487
4544	64.1284
4540	64.331
4536	64.3283
4532	64.2945
4528	64.2591
4524	63.9937
4520	63.9057
4516	64.2426
4512	64.4918
4508	64.3848
4504	64.1128
4500	63.9436
4496	64.0392
4492	64.17
4488	64.2304
4484	64.1953
4480	63.9054
4476	63.6459
4472	63.6489
4468	63.7207
4464	63.8567
4460	64.1083
4456	63.9076
4452	63.3723
4448	63.3896
4444	63.4867
4440	64.5825
4436	66.3429
4432	68.6097
4428	77.3604
4424	85.4221
4420	83.3709
4416	78.9566
4412	71.2451
4408	64.9426
4404	65.7056
4400	66.866
4396	64.946
4392	63.2465
4388	63.3003
4384	63.9215
4380	64.3155
4376	64.5558
4372	64.6457
4368	64.4947
4364	64.108
4360	63.9393
4356	64.196
4352	64.302
4348	63.9545
4344	63.7471
4340	63.9682
4336	64.1915
4332	64.08
4328	63.9353
4324	64.0825
4320	64.1048
4316	63.8899
4312	63.8714
4308	64.0552
4304	64.2202
4300	64.2663
4296	64.364
4292	64.5527
4288	64.5681
4284	64.4762
4280	64.3498
4276	64.2573
4272	64.3946
4268	64.5327
4264	64.5818
4260	64.5542
4256	64.3787
4252	64.2929
4248	64.3137
4244	64.481
4240	64.7253
4236	64.7654
4232	64.8422
4228	65.0547
4224	65.1636
4220	65.1764
4216	65.0992
4212	64.941
4208	64.9778
4204	65.1793
4200	65.2445
4196	65.2001
4192	65.1291
4188	65.0769
4184	65.1334
4180	65.2512
4176	65.3296
4172	65.297
4168	65.2802
4164	65.4057
4160	65.4555
4156	65.3845
4152	65.3831
4148	65.4043
4144	65.3904
4140	65.4011
4136	65.3791
4132	65.3599
4128	65.35
4124	65.2387
4120	65.1651
4116	65.26
4112	65.4053
4108	65.5176
4104	65.5053
4100	65.3658
4096	65.3215
4092	65.357
4088	65.3313
4084	65.2932
4080	65.3435
4076	65.3882
4072	65.3351
4068	65.3021
4064	65.3081
4060	65.252
4056	65.2034
4052	65.2705
4048	65.2986
4044	65.2005
4040	65.1742
4036	65.2384
4032	65.2205
4028	65.2434
4024	65.3549
4020	65.3319
4016	65.2038
4012	65.1778
4008	65.2248
4004	65.1921
4000	65.1635
3996	65.1875
3992	65.1917
3988	65.1492
3984	65.0125
3980	64.9727
3976	65.1485
3972	65.2397
3968	65.1317
3964	65.0016
3960	64.9463
3956	64.9328
3952	64.9503
3948	65.0142
3944	65.0522
3940	65.0692
3936	65.054
3932	65.0214
3928	65.0076
3924	64.9989
3920	65.1002
3916	65.1957
3912	65.142
3908	65.1231
3904	65.1935
3900	65.2055
3896	65.0864
3892	64.9329
3888	64.8404
3884	64.7869
3880	64.8371
3876	64.9793
3872	65.0411
3868	65.0055
3864	65.0379
3860	65.0993
3856	65.0367
3852	64.9726
3848	64.9878
3844	65.0248
3840	65.0923
3836	65.1654
3832	65.1783
3828	65.1512
3824	65.0741
3820	64.9653
3816	65.0037
3812	65.1027
3808	65.1399
3804	65.2632
3800	65.432
3796	65.4789
3792	65.4457
3788	65.3982
3784	65.3294
3780	65.3048
3776	65.2494
3772	65.1195
3768	65.1212
3764	65.2314
3760	65.2425
3756	65.2563
3752	65.2966
3748	65.2008
3744	65.1559
3740	65.184
3736	65.1133
3732	65.0814
3728	65.115
3724	65.1394
3720	65.2067
3716	65.2358
3712	65.2112
3708	65.2878
3704	65.3696
3700	65.3339
3696	65.2614
3692	65.2149
3688	65.2621
3684	65.3493
3680	65.3222
3676	65.2612
3672	65.3226
3668	65.4335
3664	65.4237
3660	65.3388
3656	65.3229
3652	65.3972
3648	65.4371
3644	65.3489
3640	65.218
3636	65.2026
3632	65.3462
3628	65.4443
3624	65.4246
3620	65.3517
3616	65.2864
3612	65.3089
3608	65.3361
3604	65.2897
3600	65.2278
3596	65.2594
3592	65.3884
3588	65.397
3584	65.2321
3580	65.1256
3576	65.0969
3572	65.103
3568	65.1684
3564	65.1957
3560	65.1745
3556	65.1926
3552	65.2435
3548	65.2587
3544	65.2377
3540	65.1765
3536	65.0645
3532	64.981
3528	64.9724
3524	65.03
3520	65.1449
3516	65.2064
3512	65.142
3508	65.0577
3504	65.0582
3500	65.1471
3496	65.1649
3492	65.0714
3488	65.0277
3484	65.0356
3480	65.0792
3476	65.1531
3472	65.1617
3468	65.1476
3464	65.1017
3460	65.0603
3456	65.1669
3452	65.2113
3448	65.0265
3444	64.8601
3440	64.8537
3436	64.886
3432	64.9287
3428	65.067
3424	65.2108
3420	65.1563
3416	65.0167
3412	65.0476
3408	65.1291
3404	65.1026
3400	65.0565
3396	65.1081
3392	65.2282
3388	65.309
3384	65.325
3380	65.2403
3376	65.1588
3372	65.1994
3368	65.1983
3364	65.149
3360	65.2341
3356	65.3024
3352	65.2436
3348	65.2115
3344	65.2055
3340	65.1805
3336	65.1715
3332	65.1888
3328	65.1831
3324	65.1695
3320	65.1873
3316	65.1757
3312	65.1593
3308	65.1715
3304	65.1258
3300	65.0925
3296	65.1329
3292	65.086
3288	65.0049
3284	65.0522
3280	65.1236
3276	65.1638
3272	65.1805
3268	65.1864
3264	65.1886
3260	65.098
3256	65.0369
3252	65.097
3248	65.1566
3244	65.2477
3240	65.3064
3236	65.2114
3232	65.142
3228	65.2206
3224	65.2924
3220	65.2221
3216	65.101
3212	65.0673
3208	65.0654
3204	65.0209
3200	65.0226
3196	65.0914
3192	65.1598
3188	65.2378
3184	65.2617
3180	65.1978
3176	65.1746
3172	65.1536
3168	65.0973
3164	65.0902
3160	65.1119
3156	65.1592
3152	65.1777
3148	65.0946
3144	65.0016
3140	64.9378
3136	64.8961
3132	64.9889
3128	65.1647
3124	65.2047
3120	65.1247
3116	65.054
3112	65.0537
3108	65.1367
3104	65.2156
3100	65.2678
3096	65.2835
3092	65.1846
3088	65.0729
3084	65.082
3080	65.161
3076	65.2045
3072	65.1595
3068	65.1053
3064	65.0769
3060	65.0363
3056	65.0742
3052	65.1731
3048	65.139
3044	64.9949
3040	64.9543
3036	65.0424
3032	65.092
3028	65.0531
3024	65.0345
3020	65.0572
3016	65.0928
3012	65.1355
3008	65.1517
3004	65.1821
3000	65.2059
2996	65.1515
2992	65.1062
2988	65.0887
2984	65.0431
2980	64.996
2976	64.9996
2972	65.0184
2968	64.9218
2964	64.7985
2960	64.8504
2956	64.9786
2952	65.0181
2948	65.0531
2944	65.0853
2940	65.006
2936	64.9306
2932	64.9511
2928	64.9798
2924	64.9859
2920	64.9972
2916	65.0234
2912	65.0606
2908	65.0916
2904	65.1378
2900	65.1626
2896	65.1109
2892	65.0933
2888	65.1502
2884	65.1727
2880	65.097
2876	65.0029
2872	65.0032
2868	65.0425
2864	65.0638
2860	65.0692
2856	65.052
2852	65.0061
2848	64.9773
2844	65.0359
2840	65.0633
2836	64.9947
2832	64.9855
2828	65.0735
2824	65.1008
2820	65.0381
2816	65.0387
2812	65.0875
2808	65.102
2804	65.1011
2800	65.1271
2796	65.2383
2792	65.3231
2788	65.2484
2784	65.1137
2780	65.0564
2776	65.0809
2772	65.1172
2768	65.1279
2764	65.1166
2760	65.0703
2756	65.0411
2752	65.0583
2748	65.083
2744	65.1215
2740	65.1306
2736	65.0726
2732	65.0626
2728	65.1309
2724	65.1776
2720	65.1953
2716	65.1534
2712	65.0564
2708	65.024
2704	65.0625
2700	65.114
2696	65.1405
2692	65.0843
2688	65.0043
2684	64.9904
2680	65.0056
2676	65.0201
2672	65.0147
2668	64.9888
2664	65.0009
2660	65.0614
2656	65.091
2652	65.0626
2648	65.0511
2644	65.066
2640	65.0581
2636	65.0197
2632	64.9601
2628	64.9504
2624	64.9866
2620	64.9503
2616	64.8673
2612	64.852
2608	64.8973
2604	64.9503
2600	65.0167
2596	65.0283
2592	64.9925
2588	65.0086
2584	65.0222
2580	64.9915
2576	64.9824
2572	64.9728
2568	64.9516
2564	64.9994
2560	65.0493
2556	65.0188
2552	64.9695
2548	64.9534
2544	65.0002
2540	65.0517
2536	65.016
2532	64.9851
2528	65.0153
2524	65.0066
2520	64.9914
2516	65.0304
2512	65.0554
2508	65.0326
2504	64.9911
2500	64.9639
2496	64.9257
2492	64.8853
2488	64.9322
2484	65.0091
2480	65.0271
2476	65.0165
2472	64.9765
2468	64.9242
2464	64.9223
2460	64.958
2456	64.9646
2452	64.9419
2448	64.9452
2444	65.0049
2440	65.0507
2436	65.0242
2432	65.0204
2428	65.0568
2424	65.0643
2420	65.0632
2416	65.0547
2412	65.0348
2408	65.0406
2404	65.0558
2400	65.0377
2396	65.0204
2392	65.0233
2388	64.9902
2384	64.9328
2380	64.923
2376	64.9926
2372	65.0446
2368	64.9904
2364	64.9597
2360	65.0127
2356	65.0219
2352	64.9802
2348	64.9752
2344	65.0034
2340	65.0291
2336	65.0501
2332	65.0591
2328	65.0537
2324	65.0477
2320	65.0425
2316	65.0388
2312	65.0035
2308	64.9485
2304	64.9618
2300	64.9773
2296	64.924
2292	64.8831
2288	64.9083
2284	64.9583
2280	64.9635
2276	64.9485
2272	64.944
2268	64.9124
2264	64.8957
2260	64.8949
2256	64.856
2252	64.8504
2248	64.8939
2244	64.9134
2240	64.92
2236	64.9601
2232	64.9683
2228	64.8943
2224	64.8448
2220	64.8571
2216	64.8494
2212	64.844
2208	64.896
2204	64.9422
2200	64.966
2196	64.9784
2192	64.9484
2188	64.9061
2184	64.8727
2180	64.8397
2176	64.8389
2172	64.8841
2168	64.9013
2164	64.8866
2160	64.8863
2156	64.868
2152	64.8267
2148	64.7803
2144	64.7417
2140	64.7236
2136	64.7611
2132	64.8158
2128	64.8032
2124	64.7647
2120	64.7638
2116	64.8085
2112	64.8253
2108	64.8103
2104	64.829
2100	64.8412
2096	64.8242
2092	64.8077
2088	64.7783
2084	64.7392
2080	64.7709
2076	64.8258
2072	64.7948
2068	64.7475
2064	64.7536
2060	64.7676
2056	64.7734
2052	64.7701
2048	64.7434
2044	64.7409
2040	64.8007
2036	64.8429
2032	64.8067
2028	64.7618
2024	64.7575
2020	64.7566
2016	64.7552
2012	64.7761
2008	64.8276
2004	64.8758
2000	64.8468
1996	64.7826
1992	64.7708
1988	64.7844
1984	64.7957
1980	64.8108
1976	64.7832
1972	64.739
1968	64.7475
1964	64.774
1960	64.7917
1956	64.7937
1952	64.7651
1948	64.7252
1944	64.7233
1940	64.7565
1936	64.7506
1932	64.707
1928	64.7383
1924	64.8183
1920	64.779
1916	64.6542
1912	64.5989
1908	64.6103
1904	64.6186
1900	64.6326
1896	64.6513
1892	64.6906
1888	64.733
1884	64.6868
1880	64.62
1876	64.6538
1872	64.7001
1868	64.6747
1864	64.6417
1860	64.6672
1856	64.7384
1852	64.7501
1848	64.6882
1844	64.6547
1840	64.6442
1836	64.6188
1832	64.5939
1828	64.5991
1824	64.6451
1820	64.6695
1816	64.6689
1812	64.6734
1808	64.6792
1804	64.7081
1800	64.7153
1796	64.6778
1792	64.6745
1788	64.6896
1784	64.6436
1780	64.5936
1776	64.5647
1772	64.5218
1768	64.5057
1764	64.5041
1760	64.4566
1756	64.3919
1752	64.3862
1748	64.4159
1744	64.4083
1740	64.3371
1736	64.2604
1732	64.2594
1728	64.2876
1724	64.2737
1720	64.3021
1716	64.3972
1712	64.4316
1708	64.4599
1704	64.5821
1700	64.6924
1696	64.6684
1692	64.5881
1688	64.5651
1684	64.52
1680	64.4626
1676	64.4862
1672	64.5271
1668	64.5152
1664	64.4988
1660	64.4967
1656	64.446
1652	64.3869
1648	64.3805
1644	64.3955
1640	64.4329
1636	64.4837
1632	64.5056
1628	64.4816
1624	64.4043
1620	64.3246
1616	64.2939
1612	64.3131
1608	64.371
1604	64.4433
1600	64.4794
1596	64.4607
1592	64.4124
1588	64.3659
1584	64.3304
1580	64.2978
1576	64.3026
1572	64.3581
1568	64.4404
1564	64.533
1560	64.537
1556	64.4436
1552	64.3882
1548	64.3915
1544	64.3766
1540	64.3268
1536	64.3341
1532	64.3646
1528	64.3096
1524	64.2538
1520	64.3197
1516	64.4149
1512	64.4226
1508	64.4274
1504	64.4589
1500	64.4284
1496	64.3565
1492	64.323
1488	64.2869
1484	64.2481
1480	64.3018
1476	64.3739
1472	64.3803
1468	64.3458
1464	64.2382
1460	64.1453
1456	64.2315
1452	64.3525
1448	64.3413
1444	64.3278
1440	64.3841
1436	64.4192
1432	64.3792
1428	64.3644
1424	64.3987
1420	64.3779
1416	64.3373
1412	64.3631
1408	64.4346
1404	64.4179
1400	64.287
1396	64.179
1392	64.1435
1388	64.1483
1384	64.1514
1380	64.2037
1376	64.3116
1372	64.317
1368	64.2252
1364	64.179
1360	64.2036
1356	64.2046
1352	64.1634
1348	64.1831
1344	64.2591
1340	64.3118
1336	64.3178
1332	64.301
1328	64.3025
1324	64.316
1320	64.2931
1316	64.2384
1312	64.191
1308	64.1921
1304	64.2085
1300	64.199
1296	64.204
1292	64.2369
1288	64.2633
1284	64.226
1280	64.168
1276	64.1644
1272	64.1761
1268	64.1895
1264	64.1825
1260	64.1737
1256	64.2363
1252	64.2426
1248	64.1599
1244	64.1411
1240	64.127
1236	64.0574
1232	64.0311
1228	64.0692
1224	64.1412
1220	64.2143
1216	64.2375
1212	64.2035
1208	64.1586
1204	64.1513
1200	64.1599
1196	64.1548
1192	64.1067
1188	63.9952
1184	63.9269
1180	63.967
1176	63.9806
1172	63.9717
1168	64.0188
1164	64.0517
1160	64.0365
1156	63.9831
1152	63.9294
1148	63.9308
1144	64.0227
1140	64.0562
1136	63.9902
1132	63.935
1128	63.9002
1124	63.9235
1120	64.0682
1116	64.1703
1112	64.1158
1108	64.0794
1104	64.0975
1100	63.9918
1096	63.8636
1092	63.8877
1088	63.9372
1084	63.9169
1080	63.9424
1076	64.0552
1072	64.1096
1068	64.0407
1064	63.9216
1060	63.874
1056	63.9599
1052	64.0828
1048	64.1254
1044	64.0782
1040	63.9858
1036	63.9603
1032	64.0534
1028	64.1338
1024	64.1318
1020	64.094
1016	64.1114
1012	64.1558
1008	64.125
1004	64.106
1000	64.1025
996	 64.0269
992	 63.9649
988	 63.9496
984	 64.037
980	 64.1915
976	 64.1476
972	 64.0008
968	 63.9349
964	 63.8939
960	 63.903
956	 63.938
952	 63.9736
948	 64.0238
944	 64.0169
940	 63.9595
936	 63.9193
932	 63.8839
928	 63.9248
924	 64.1264
920	 64.3126
916	 64.3205
912	 64.1867
908	 64.1036
904	 64.1218
900	 64.0633
896	 64.0515
892	 64.156
888	 64.1681
884	 64.1113
880	 64.11
876	 64.1235
872	 64.0708
868	 64.067
864	 64.1106
860	 64.1123
856	 64.1838
852	 64.211
848	 64.1162
844	 64.1146
840	 64.2055
836	 64.19
832	 63.9976
828	 63.8459
824	 63.9121
820	 63.9737
816	 63.8787
812	 63.7804
808	 63.8451
804	 64.0196
800	 64.0706
796	 64.0649
792	 64.0677
788	 64.0196
784	 64.084
780	 64.113
776	 63.9626
772	 63.8991
768	 63.9353
764	 63.974
760	 63.9979
756	 63.795
752	 63.5775
748	 63.8592
744	 64.1469
740	 63.9413
736	 63.677
732	 63.6158
728	 63.6984
724	 63.733
720	 63.7185
716	 63.6099
712	 63.3068
708	 63.2127
704	 63.6127
700	 64.1933
696	 64.3079
692	 64.0489
688	 64.0088
684	 64.0182
680	 63.7409
676	 63.4081
672	 63.3875
668	 63.736
664	 64.0664
660	 64.2014
656	 64.3149
652	 64.2159
648	 63.851
644	 63.8318
640	 64.1771
636	 64.039
632	 63.6661
628	 63.7522
624	 63.7636
620	 63.3333
616	 63.1316
612	 63.4575
608	 63.9195
604	 64.231
600	 64.3804
596	 64.4215
592	 64.2838
588	 64.1553
584	 64.0972
580	 64.0461
576	 64.2494
572	 64.3591
568	 63.8508
564	 63.4614
560	 63.6897
556	 63.8436
552	 63.917
548	 63.8741
544	 63.3636
540	 62.8423
536	 63.0268
532	 63.6253
528	 63.8118
524	 63.7146
520	 63.5789
516	 63.3786
512	 63.3296
508	 63.4582
504	 63.4358
500	 63.0963
496	 62.7635
492	 62.7375
488	 62.82
484	 63.1787
480	 63.6569
476	 63.4339
472	 63.2565
468	 63.3788
464	 63.0181
460	 62.8356
456	 63.0743
452	 62.9537
448	 62.4275
444	 62.0804
440	 62.3353
436	 62.8955
432	 62.8914
428	 62.1486
424	 62.0037
420	 62.1955
416	 61.549
412	 61.0533
408	 60.7772
404	 60.5085
400	 60.3938
396	 61.8659
392	 64.9712
388	 67.3642
384	 71.6676
380	 72.1122
376	 63.3597
372	 60.7146
370	 67.4391