File: Bakgrunnsmateriale/MATLAB/FTIR/ftir_data/subAa/Mapping_121/BZ1503107-1_t51_cm-1.asc
PE IR       SPECTRUM    SPECTRUM    ASCII       PEDS        1.60
  -1
BZ69A3~1.ASC
17/04/07
17:26:46.00
17/04/07
17:26:46.00
tln
$BZ1503107-1_t0051$<tbV0>[-2.6,-2.6,8.0,0.0,27,1,0]
370
64

2002,4.07
MIRTGS : RIGHTBACK : INTERNAL 2
MIR : ON : INTERNAL 2
OPTKBR

0.200000
8
8.000000
FILLER
RATIO
SPECTRUM
UNLOCKED 256

DOUBLE
64
COMBINED
1
0
0

1.000000
RATIO

1
0
TRUE
51149
0
LEFT NOT FITTED RIGHT NOT FITTED 0
NONE
NONE
15600
12
4.427000
51148
TRUE
1 0 8 72 0 0 0 0

15798

#HDR
-1
-1
#GR
CM-1
%T
2.38419e-05
0.0
5000
-1.000000
4631
8
70.283
39.9332
#DATA
5000	64.8716
4996	65.3076
4992	65.1474
4988	65.37
4984	66.1298
4980	66.885
4976	66.815
4972	65.8709
4968	65.2268
4964	65.552
4960	65.8212
4956	65.4326
4952	65.1172
4948	64.7444
4944	64.3605
4940	64.5
4936	64.6767
4932	64.8737
4928	65.1994
4924	65.1048
4920	64.8389
4916	64.9005
4912	64.9605
4908	64.7631
4904	64.6233
4900	64.64
4896	64.7492
4892	64.7604
4888	64.6012
4884	64.633
4880	64.8729
4876	64.9349
4872	64.8373
4868	64.7011
4864	64.5347
4860	64.565
4856	64.6657
4852	64.6004
4848	64.5396
4844	64.5756
4840	64.6205
4836	64.6823
4832	64.7235
4828	64.6492
4824	64.5539
4820	64.5091
4816	64.4594
4812	64.3925
4808	64.2619
4804	64.181
4800	64.3594
4796	64.6343
4792	64.6256
4788	64.4365
4784	64.5191
4780	64.8084
4776	65.0171
4772	65.1837
4768	65.3093
4764	65.1867
4760	64.9742
4756	64.8287
4752	64.5974
4748	64.4819
4744	64.7073
4740	65.0468
4736	65.1367
4732	64.9387
4728	64.6534
4724	64.3986
4720	64.2374
4716	64.2004
4712	64.2098
4708	64.1965
4704	64.1646
4700	64.24
4696	64.452
4692	64.6514
4688	64.7362
4684	64.8197
4680	65.0717
4676	65.1517
4672	64.8366
4668	64.4706
4664	64.298
4660	64.3826
4656	64.5632
4652	64.7413
4648	65.0946
4644	65.3825
4640	65.3883
4636	65.2403
4632	65.0894
4628	65.0978
4624	65.0975
4620	64.9554
4616	64.7247
4612	64.6331
4608	64.8052
4604	65.0241
4600	65.1591
4596	65.1556
4592	65.1099
4588	65.1412
4584	65.1625
4580	65.1932
4576	65.2824
4572	65.2585
4568	65.1843
4564	65.2142
4560	65.3382
4556	65.4577
4552	65.429
4548	65.3893
4544	65.5023
4540	65.5349
4536	65.518
4532	65.7191
4528	65.7744
4524	65.5403
4520	65.3689
4516	65.3938
4512	65.4384
4508	65.3348
4504	65.4503
4500	65.8561
4496	65.9457
4492	65.8335
4488	65.8574
4484	65.7761
4480	65.6317
4476	65.4606
4472	65.1865
4468	65.0404
4464	64.9157
4460	65.1352
4456	65.7407
4452	66.1018
4448	65.8693
4444	68.3356
4440	69.8941
4436	61.2337
4432	50.1303
4428	46.7751
4424	51.394
4420	59.5554
4416	63.7803
4412	65.45
4408	66.2077
4404	65.6088
4400	65.3071
4396	65.7337
4392	66.1859
4388	66.139
4384	65.915
4380	65.624
4376	65.5217
4372	65.6578
4368	65.8255
4364	65.9115
4360	66.0071
4356	65.9997
4352	65.6786
4348	65.3322
4344	65.1964
4340	65.3163
4336	65.6468
4332	65.822
4328	65.7305
4324	65.5962
4320	65.4929
4316	65.2388
4312	64.932
4308	64.8754
4304	65.0061
4300	65.2532
4296	65.4719
4292	65.5975
4288	65.6298
4284	65.4751
4280	65.3835
4276	65.4124
4272	65.317
4268	65.1891
4264	65.1779
4260	65.0667
4256	64.8927
4252	64.9396
4248	65.0877
4244	65.2443
4240	65.3768
4236	65.3104
4232	65.0702
4228	64.8023
4224	64.7467
4220	64.8695
4216	64.9189
4212	64.9064
4208	64.8631
4204	64.877
4200	64.9903
4196	65.0589
4192	65.047
4188	65.1089
4184	65.1133
4180	64.8554
4176	64.7591
4172	64.9076
4168	64.9169
4164	64.8986
4160	64.8875
4156	64.7414
4152	64.5997
4148	64.6668
4144	64.8258
4140	64.7934
4136	64.6016
4132	64.4873
4128	64.5999
4124	64.8998
4120	65.0748
4116	64.9565
4112	64.8827
4108	64.8574
4104	64.7668
4100	64.7979
4096	64.8305
4092	64.7532
4088	64.6999
4084	64.7018
4080	64.7384
4076	64.7751
4072	64.8614
4068	64.9838
4064	65.0401
4060	65.0563
4056	64.9355
4052	64.7558
4048	64.7217
4044	64.8091
4040	64.9539
4036	64.9754
4032	64.9412
4028	64.9901
4024	64.995
4020	65.014
4016	65.0761
4012	64.9874
4008	64.8299
4004	64.8731
4000	64.9582
3996	64.9609
3992	65.0645
3988	65.2151
3984	65.2884
3980	65.2899
3976	65.2691
3972	65.2089
3968	65.1257
3964	65.1684
3960	65.2083
3956	65.0907
3952	64.9739
3948	64.9815
3944	65.0888
3940	65.2115
3936	65.2905
3932	65.194
3928	64.9969
3924	65.028
3920	65.2442
3916	65.2778
3912	65.1452
3908	65.1188
3904	65.1223
3900	65.0763
3896	65.0168
3892	65.0525
3888	65.2885
3884	65.3974
3880	65.1821
3876	64.8062
3872	64.5535
3868	64.6754
3864	65.059
3860	65.2696
3856	65.1342
3852	65.0076
3848	64.9624
3844	64.8853
3840	64.9168
3836	65.019
3832	65.0866
3828	65.0176
3824	64.8911
3820	64.9965
3816	65.0972
3812	64.9466
3808	64.8473
3804	64.8918
3800	64.8732
3796	64.739
3792	64.7229
3788	64.9474
3784	65.1744
3780	65.1862
3776	65.0223
3772	64.8335
3768	64.7502
3764	64.7734
3760	64.8792
3756	65.0535
3752	65.1309
3748	65.1101
3744	65.1417
3740	65.1227
3736	65.0245
3732	64.9904
3728	64.984
3724	64.9795
3720	65.0218
3716	65.1006
3712	65.2075
3708	65.2317
3704	65.1458
3700	65.0782
3696	65.0562
3692	65.0681
3688	65.1491
3684	65.1916
3680	65.09
3676	64.955
3672	64.8542
3668	64.8595
3664	65.0441
3660	65.2047
3656	65.1456
3652	65.0548
3648	65.0832
3644	65.1144
3640	65.208
3636	65.293
3632	65.2064
3628	65.1001
3624	65.0265
3620	64.9561
3616	64.9776
3612	65.0674
3608	65.1407
3604	65.194
3600	65.1874
3596	65.1246
3592	65.0571
3588	65.0148
3584	65.0428
3580	65.0329
3576	64.967
3572	64.9903
3568	65.071
3564	65.1451
3560	65.1977
3556	65.2015
3552	65.1868
3548	65.1881
3544	65.2091
3540	65.2508
3536	65.2605
3532	65.1516
3528	65.0342
3524	65.0463
3520	65.1021
3516	65.1293
3512	65.1192
3508	65.0968
3504	65.1334
3500	65.2078
3496	65.2226
3492	65.1878
3488	65.1548
3484	65.1531
3480	65.2339
3476	65.2318
3472	65.0704
3468	64.9976
3464	65.0324
3460	65.0724
3456	65.1663
3452	65.2239
3448	65.1215
3444	64.938
3440	64.8003
3436	64.8302
3432	65.0063
3428	65.1392
3424	65.2015
3420	65.1861
3416	65.102
3412	65.1469
3408	65.2706
3404	65.2077
3400	65.0601
3396	65.0151
3392	64.9377
3388	64.8401
3384	64.9285
3380	65.1152
3376	65.2046
3372	65.2055
3368	65.1607
3364	65.1013
3360	65.0213
3356	64.9039
3352	64.8801
3348	64.9232
3344	64.9381
3340	64.9904
3336	65.0059
3332	65.0242
3328	65.1314
3324	65.139
3320	65.0009
3316	64.9221
3312	65.0215
3308	65.1227
3304	65.1052
3300	65.0672
3296	64.9915
3292	64.9074
3288	64.9399
3284	65.023
3280	65.0495
3276	65.0219
3272	64.9828
3268	64.9976
3264	65.0787
3260	65.1406
3256	65.1184
3252	65.037
3248	64.922
3244	64.8388
3240	64.8276
3236	64.8187
3232	64.8147
3228	64.9054
3224	65.0104
3220	65.0065
3216	64.9334
3212	64.8688
3208	64.8808
3204	64.9297
3200	64.9755
3196	65.0376
3192	65.0795
3188	65.1399
3184	65.1505
3180	65.0445
3176	65.0087
3172	65.0678
3168	65.0955
3164	65.1215
3160	65.1336
3156	65.0577
3152	64.9812
3148	64.9807
3144	65.0526
3140	65.1142
3136	65.0376
3132	64.9858
3128	65.0845
3124	65.1428
3120	65.1205
3116	65.1249
3112	65.0803
3108	64.953
3104	64.8746
3100	64.9028
3096	64.9669
3092	64.9582
3088	64.9203
3084	64.9753
3080	65.0476
3076	65.0163
3072	64.9668
3068	64.9765
3064	65.0088
3060	65.0108
3056	64.9527
3052	64.9287
3048	64.9502
3044	64.9714
3040	65.0214
3036	65.0913
3032	65.1182
3028	65.0215
3024	64.9266
3020	64.9725
3016	65.0486
3012	65.0696
3008	65.0921
3004	65.0747
3000	64.9604
2996	64.8745
2992	64.8663
2988	64.9158
2984	64.9538
2980	64.92
2976	64.8579
2972	64.7897
2968	64.7886
2964	64.8158
2960	64.8312
2956	64.9311
2952	65.0522
2948	65.0591
2944	64.9351
2940	64.7707
2936	64.7499
2932	64.9018
2928	64.9509
2924	64.8657
2920	64.9153
2916	65.0808
2912	65.1363
2908	65.0275
2904	64.9164
2900	64.8887
2896	64.847
2892	64.7892
2888	64.8691
2884	65.0062
2880	64.9817
2876	64.8809
2872	64.818
2868	64.7965
2864	64.8674
2860	64.9042
2856	64.8747
2852	64.9487
2848	65.0272
2844	64.9796
2840	64.8574
2836	64.7664
2832	64.7768
2828	64.827
2824	64.8682
2820	64.916
2816	64.9431
2812	64.9544
2808	64.9921
2804	65.012
2800	64.9847
2796	64.9355
2792	64.933
2788	65.0108
2784	65.0542
2780	65.0176
2776	64.9732
2772	64.9364
2768	64.8807
2764	64.8477
2760	64.8696
2756	64.869
2752	64.8381
2748	64.8525
2744	64.8977
2740	64.9011
2736	64.8778
2732	64.8702
2728	64.8771
2724	64.9267
2720	64.9782
2716	64.9713
2712	64.9935
2708	65.0823
2704	65.0779
2700	64.9691
2696	64.9285
2692	64.9654
2688	64.9934
2684	64.9914
2680	64.9539
2676	64.9139
2672	64.9131
2668	64.9118
2664	64.9111
2660	64.9434
2656	64.9568
2652	64.9487
2648	64.9678
2644	64.9845
2640	64.9688
2636	64.9208
2632	64.8758
2628	64.8999
2624	64.9665
2620	65.0117
2616	65.0014
2612	64.9459
2608	64.9049
2604	64.8938
2600	64.9272
2596	65.0097
2592	65.0747
2588	65.0532
2584	64.955
2580	64.8739
2576	64.8759
2572	64.8892
2568	64.794
2564	64.6528
2560	64.6456
2556	64.7547
2552	64.8426
2548	64.9159
2544	64.9476
2540	64.8689
2536	64.8107
2532	64.861
2528	64.8878
2524	64.8956
2520	64.9803
2516	65.0577
2512	65.0438
2508	64.9624
2504	64.8994
2500	64.9164
2496	64.9565
2492	64.9244
2488	64.8479
2484	64.8395
2480	64.8984
2476	64.9168
2472	64.8401
2468	64.7315
2464	64.7144
2460	64.803
2456	64.865
2452	64.8539
2448	64.8704
2444	64.8935
2440	64.8336
2436	64.789
2432	64.7869
2428	64.7704
2424	64.8103
2420	64.8394
2416	64.7922
2412	64.8299
2408	64.8765
2404	64.7565
2400	64.6741
2396	64.7455
2392	64.827
2388	64.8618
2384	64.8485
2380	64.8
2376	64.7776
2372	64.8156
2368	64.8319
2364	64.7933
2360	64.7681
2356	64.7663
2352	64.7836
2348	64.7953
2344	64.7784
2340	64.7807
2336	64.7707
2332	64.715
2328	64.7003
2324	64.7276
2320	64.7527
2316	64.7826
2312	64.7951
2308	64.7882
2304	64.8028
2300	64.8272
2296	64.7899
2292	64.7156
2288	64.6958
2284	64.7191
2280	64.7218
2276	64.7138
2272	64.7371
2268	64.8029
2264	64.8972
2260	64.9411
2256	64.8805
2252	64.7841
2248	64.7194
2244	64.7086
2240	64.7562
2236	64.818
2232	64.8425
2228	64.8156
2224	64.775
2220	64.7527
2216	64.7175
2212	64.6539
2208	64.6371
2204	64.7095
2200	64.7784
2196	64.7764
2192	64.7304
2188	64.6732
2184	64.6471
2180	64.7002
2176	64.7529
2172	64.6876
2168	64.5923
2164	64.5782
2160	64.5951
2156	64.5722
2152	64.5454
2148	64.5919
2144	64.6571
2140	64.6598
2136	64.6338
2132	64.6643
2128	64.7485
2124	64.7783
2120	64.7677
2116	64.7831
2112	64.7863
2108	64.756
2104	64.7475
2100	64.7934
2096	64.8103
2092	64.7435
2088	64.6408
2084	64.5926
2080	64.6318
2076	64.6455
2072	64.6118
2068	64.6544
2064	64.7743
2060	64.807
2056	64.7269
2052	64.6669
2048	64.6453
2044	64.6432
2040	64.6719
2036	64.7061
2032	64.7434
2028	64.7367
2024	64.649
2020	64.6155
2016	64.6667
2012	64.6723
2008	64.6117
2004	64.559
2000	64.5738
1996	64.6329
1992	64.6683
1988	64.6758
1984	64.6803
1980	64.6957
1976	64.6971
1972	64.6615
1968	64.6208
1964	64.5782
1960	64.536
1956	64.4867
1952	64.4806
1948	64.5494
1944	64.5951
1940	64.5863
1936	64.5352
1932	64.4751
1928	64.4632
1924	64.503
1920	64.5343
1916	64.5175
1912	64.531
1908	64.5909
1904	64.6061
1900	64.5266
1896	64.458
1892	64.4861
1888	64.5225
1884	64.5479
1880	64.5641
1876	64.5454
1872	64.5298
1868	64.5261
1864	64.5319
1860	64.5288
1856	64.5377
1852	64.585
1848	64.5913
1844	64.5627
1840	64.5532
1836	64.5404
1832	64.5147
1828	64.5187
1824	64.5557
1820	64.5436
1816	64.5066
1812	64.5381
1808	64.5851
1804	64.5561
1800	64.4901
1796	64.4974
1792	64.5397
1788	64.5146
1784	64.4649
1780	64.454
1776	64.4702
1772	64.4532
1768	64.4114
1764	64.3944
1760	64.4055
1756	64.4208
1752	64.3904
1748	64.3159
1744	64.2118
1740	64.1295
1736	64.132
1732	64.1875
1728	64.2261
1724	64.2246
1720	64.2562
1716	64.3193
1712	64.332
1708	64.3143
1704	64.2451
1700	64.1366
1696	64.1544
1692	64.2924
1688	64.3406
1684	64.2768
1680	64.3007
1676	64.403
1672	64.4024
1668	64.3411
1664	64.3137
1660	64.2894
1656	64.263
1652	64.2557
1648	64.2806
1644	64.2827
1640	64.2087
1636	64.1653
1632	64.2322
1628	64.3071
1624	64.2604
1620	64.1537
1616	64.1385
1612	64.1901
1608	64.2206
1604	64.2245
1600	64.2055
1596	64.1714
1592	64.1668
1588	64.2015
1584	64.2242
1580	64.1946
1576	64.1421
1572	64.1197
1568	64.147
1564	64.2186
1560	64.2709
1556	64.2729
1552	64.2227
1548	64.146
1544	64.1188
1540	64.0953
1536	64.0684
1532	64.1285
1528	64.2087
1524	64.2259
1520	64.2198
1516	64.1892
1512	64.1136
1508	64.0942
1504	64.1527
1500	64.1322
1496	64.0558
1492	64.0691
1488	64.1405
1484	64.1909
1480	64.1504
1476	64.0465
1472	64.0529
1468	64.1389
1464	64.1496
1460	64.1323
1456	64.0945
1452	63.9901
1448	63.9445
1444	64.0281
1440	64.0948
1436	64.0909
1432	64.0871
1428	64.09
1424	64.1366
1420	64.1832
1416	64.1205
1412	64.0351
1408	64.0262
1404	64.0525
1400	64.1005
1396	64.1469
1392	64.1411
1388	64.0822
1384	64.0362
1380	64.0607
1376	64.0889
1372	64.0926
1368	64.1121
1364	64.1313
1360	64.122
1356	64.079
1352	63.9907
1348	63.9256
1344	63.9661
1340	63.9754
1336	63.9218
1332	63.9572
1328	64.0524
1324	64.0985
1320	64.0651
1316	64.0063
1312	63.9962
1308	64.0182
1304	64.0568
1300	64.145
1296	64.1864
1292	64.1253
1288	64.0698
1284	64.0412
1280	64.0097
1276	64.0264
1272	64.0766
1268	64.0889
1264	64.0574
1260	63.9921
1256	63.9394
1252	63.9503
1248	63.9517
1244	63.9225
1240	63.8983
1236	63.8911
1232	63.9077
1228	63.9272
1224	63.9475
1220	63.9253
1216	63.8818
1212	63.8963
1208	63.9449
1204	63.986
1200	63.9668
1196	63.8696
1192	63.8014
1188	63.8247
1184	63.8878
1180	63.9078
1176	63.8703
1172	63.8043
1168	63.7263
1164	63.6652
1160	63.6394
1156	63.7006
1152	63.7709
1148	63.7332
1144	63.6745
1140	63.6779
1136	63.7262
1132	63.745
1128	63.7571
1124	63.8378
1120	63.869
1116	63.7954
1112	63.7495
1108	63.8361
1104	64.0001
1100	64.0668
1096	64.0211
1092	63.9103
1088	63.757
1084	63.6779
1080	63.6682
1076	63.6467
1072	63.6769
1068	63.7746
1064	63.8457
1060	63.8118
1056	63.6951
1052	63.6196
1048	63.6023
1044	63.6085
1040	63.6371
1036	63.6416
1032	63.6106
1028	63.6622
1024	63.7726
1020	63.6994
1016	63.5937
1012	63.746
1008	63.9653
1004	64.037
1000	64.0114
996	 63.9724
992	 63.9364
988	 63.9104
984	 63.9204
980	 63.8738
976	 63.7825
972	 63.7824
968	 63.7678
964	 63.7085
960	 63.6772
956	 63.5895
952	 63.5081
948	 63.5051
944	 63.5016
940	 63.5272
936	 63.6471
932	 63.7602
928	 63.7902
924	 63.7283
920	 63.656
916	 63.6733
912	 63.7131
908	 63.7448
904	 63.8431
900	 63.9514
896	 63.9388
892	 63.868
888	 63.8425
884	 63.8589
880	 63.8886
876	 63.8478
872	 63.7389
868	 63.6786
864	 63.6833
860	 63.7248
856	 63.7919
852	 63.8367
848	 63.8443
844	 63.8189
840	 63.7566
836	 63.7226
832	 63.675
828	 63.6456
824	 63.7338
820	 63.7248
816	 63.6141
812	 63.6038
808	 63.5911
804	 63.4908
800	 63.4562
796	 63.5077
792	 63.5519
788	 63.5921
784	 63.6823
780	 63.8219
776	 63.8801
772	 63.834
768	 63.7356
764	 63.6142
760	 63.5611
756	 63.5193
752	 63.3956
748	 63.4297
744	 63.6674
740	 63.6925
736	 63.5187
732	 63.4777
728	 63.5837
724	 63.6692
720	 63.6168
716	 63.4467
712	 63.182
708	 63.0382
704	 63.1051
700	 63.1273
696	 63.0269
692	 62.9429
688	 63.0084
684	 63.1581
680	 63.4564
676	 63.7247
672	 63.4999
668	 63.1085
664	 63.1396
660	 63.6053
656	 64.0796
652	 64.2609
648	 64.2915
644	 64.1326
640	 63.7814
636	 63.7374
632	 63.7577
628	 63.0634
624	 62.4499
620	 63.0065
616	 63.2803
612	 62.4468
608	 62.1594
604	 62.901
600	 63.6294
596	 63.7233
592	 63.4151
588	 63.1882
584	 63.3512
580	 63.4823
576	 63.017
572	 62.3894
568	 61.9456
564	 62.0243
560	 62.8328
556	 63.4747
552	 63.3731
548	 63.1588
544	 62.9782
540	 62.3714
536	 61.933
532	 62.2926
528	 63.2366
524	 64.1644
520	 64.1519
516	 63.514
512	 63.2554
508	 63.2943
504	 63.1785
500	 62.9803
496	 62.9652
492	 63.0884
488	 63.1761
484	 62.8557
480	 62.5285
476	 63.0049
472	 63.643
468	 63.6034
464	 63.1728
460	 62.6947
456	 62.3207
452	 62.3081
448	 62.5407
444	 62.7861
440	 63.0774
436	 63.5383
432	 63.9
428	 64.3944
424	 65.1047
420	 64.1203
416	 61.7479
412	 61.6335
408	 61.9721
404	 58.4071
400	 56.2004
396	 59.5252
392	 59.0388
388	 52.3445
384	 47.4959
380	 43.463
376	 39.9332
372	 45.4135
370	 52.6925