File: Bakgrunnsmateriale/MATLAB/FTIR/ftir_data/subAa/Mapping_121/BZ1503107-1_t28.asc
PE IR       SPECTRUM    SPECTRUM    ASCII       PEDS        1.60
  -1
BZ2969~1.ASC
17/04/07
15:32:57.00
17/04/07
15:33:23.00
tln
$BZ1503107-1_t0028$<tbV0>[0.0,-7.8,8.0,0.0,27,1,0]
27.028
64

2002,4.07
MIRTGS : RIGHTBACK : INTERNAL 2
MIR : ON : INTERNAL 2
OPTKBR

0.200000
8
8.000000
FILLER
RATIO
SPECTRUM
UNLOCKED 256

DOUBLE
64
COMBINED
1
0
0

0.002000
RATIO

1
0
TRUE
51149
0
LEFT NOT FITTED RIGHT NOT FITTED 0
NONE
NONE
15600
12
4.427000
51148
TRUE
1 0 8 72 0 0 0 0

15798

#HDR
-1
-1
#GR
µM
%T
2.38419e-05
0.0
2.000000
0.002000
12515
8
75.3229
54.908
#DATA
2.000000	 65.5046
2.018000	 64.3496
2.036000	 64.9363
2.054000	 65.036
2.072000	 64.6721
2.090000	 64.5405
2.108000	 65.0266
2.126000	 65.2464
2.144000	 64.971
2.162000	 64.5974
2.180000	 64.875
2.198000	 64.6214
2.216000	 65.6192
2.234000	 64.0637
2.252000	 65.4765
2.270000	 67.7629
2.288000	 64.7801
2.306000	 64.661
2.324000	 64.8944
2.342000	 64.7129
2.360000	 64.8659
2.378000	 65.0218
2.396000	 64.7814
2.414000	 65.351
2.432000	 65.2196
2.450000	 64.9924
2.468000	 64.7499
2.486000	 65.0881
2.504000	 65.1442
2.522000	 65.2364
2.540000	 65.0955
2.558000	 65.2562
2.576000	 64.8571
2.594000	 65.1056
2.612000	 65.158
2.630000	 65.2984
2.648000	 65.144
2.666000	 65.1689
2.684000	 65.1782
2.702000	 65.2865
2.720000	 65.0939
2.738000	 65.2232
2.756000	 65.0284
2.774000	 65.1977
2.792000	 64.9462
2.810000	 65.0419
2.828000	 65.0983
2.846000	 65.1544
2.864000	 65.0437
2.882000	 65.0181
2.900000	 65.1251
2.918000	 65.1119
2.936000	 65.1341
2.954000	 65.119
2.972000	 65.1423
2.990000	 65.1992
3.008000	 65.2316
3.026000	 65.1578
3.044000	 64.9046
3.062000	 65.1824
3.080000	 65.0931
3.098000	 65.119
3.116000	 65.1465
3.134000	 64.8861
3.152000	 64.9572
3.170000	 65.0817
3.188000	 64.81
3.206000	 64.9818
3.224000	 65.3224
3.242000	 64.861
3.260000	 65.0704
3.278000	 65.1103
3.296000	 65.0235
3.314000	 64.8635
3.332000	 65.2048
3.350000	 65.1777
3.368000	 64.973
3.386000	 65.0393
3.404000	 64.9167
3.422000	 64.9488
3.440000	 64.9757
3.458000	 65.0139
3.476000	 64.9638
3.494000	 64.9594
3.512000	 64.8765
3.530000	 64.9765
3.548000	 64.9436
3.566000	 65.0075
3.584000	 65.0658
3.602000	 65.0764
3.620000	 65.0837
3.638000	 65.0429
3.656000	 64.9609
3.674000	 65.0676
3.692000	 64.9438
3.710000	 65.1199
3.728000	 65.0383
3.746000	 64.9085
3.764000	 64.9994
3.782000	 64.9621
3.800000	 64.943
3.818000	 64.9569
3.836000	 64.8181
3.854000	 64.8901
3.872000	 64.9589
3.890000	 64.96
3.908000	 65.0081
3.926000	 64.942
3.944000	 64.965
3.962000	 64.9762
3.980000	 64.9458
3.998000	 65.0138
4.016000	 64.9971
4.034000	 64.9389
4.052000	 64.8415
4.070000	 64.8932
4.088000	 64.8384
4.106000	 64.9864
4.124000	 65.015
4.141999	 64.9854
4.160000	 64.9035
4.178000	 65.0705
4.196000	 64.9688
4.214000	 65.0138
4.232000	 64.9057
4.250000	 64.8847
4.268000	 64.8731
4.286000	 64.8518
4.304000	 64.8651
4.322000	 64.9403
4.340000	 64.9495
4.358000	 64.8921
4.375999	 64.916
4.394000	 64.8802
4.412000	 64.8045
4.430000	 64.8289
4.448000	 64.8198
4.466000	 64.8806
4.484000	 64.9016
4.502000	 64.9057
4.520000	 64.8392
4.538000	 64.8187
4.556000	 64.9321
4.574000	 64.9276
4.592000	 64.9077
4.609999	 64.7422
4.628000	 64.7132
4.646000	 64.7537
4.664000	 64.6184
4.682000	 64.7974
4.700000	 64.8012
4.718000	 64.7757
4.736000	 64.9235
4.754000	 64.8587
4.772000	 64.8202
4.790000	 64.7699
4.808000	 64.6265
4.826000	 64.6587
4.843999	 64.6818
4.862000	 64.7609
4.880000	 64.886
4.898000	 64.8195
4.916000	 64.8005
4.934000	 64.808
4.952000	 64.8152
4.970000	 64.775
4.988000	 64.9012
5.006000	 64.8528
5.024000	 64.7088
5.042000	 64.7237
5.060000	 64.7072
5.077999	 64.8749
5.096000	 64.7853
5.114000	 64.745
5.132000	 64.8951
5.150000	 64.8487
5.168000	 64.7355
5.186000	 64.6525
5.204000	 64.7192
5.222000	 64.636
5.240000	 64.6196
5.258000	 64.6524
5.276000	 64.6825
5.294000	 64.7298
5.312000	 64.7223
5.330000	 64.692
5.348000	 64.7373
5.366000	 64.6669
5.384000	 64.6873
5.402000	 64.7549
5.420000	 64.767
5.438000	 64.7716
5.456000	 64.6559
5.474000	 64.7206
5.492000	 64.7295
5.510000	 64.6863
5.528000	 64.6043
5.546000	 64.6675
5.564000	 64.7017
5.582000	 64.619
5.600000	 64.6107
5.618000	 64.6113
5.636000	 64.6248
5.654000	 64.6307
5.672000	 64.5783
5.690000	 64.4338
5.708000	 64.4144
5.726000	 64.4231
5.744000	 64.3645
5.762000	 64.2978
5.780000	 64.2344
5.798000	 64.3069
5.816000	 64.4325
5.834000	 64.4636
5.852000	 64.454
5.870000	 64.5591
5.888000	 64.6634
5.906000	 64.6695
5.923999	 64.6694
5.942000	 64.5864
5.960000	 64.5734
5.978000	 64.6245
5.996000	 64.5522
6.014000	 64.5263
6.032000	 64.4028
6.050000	 64.3055
6.068000	 64.419
6.086000	 64.5131
6.104000	 64.5463
6.122000	 64.5616
6.140000	 64.5103
6.158000	 64.3994
6.176000	 64.2943
6.194000	 64.2713
6.212000	 64.3999
6.230000	 64.5137
6.248000	 64.4747
6.266000	 64.4018
6.284000	 64.3746
6.302000	 64.3811
6.320000	 64.4444
6.338000	 64.5226
6.356000	 64.5436
6.374000	 64.5615
6.392000	 64.6528
6.410000	 64.6651
6.428000	 64.4985
6.446000	 64.3791
6.464000	 64.4098
6.482000	 64.4093
6.500000	 64.3883
6.518000	 64.4432
6.536000	 64.4823
6.554000	 64.3936
6.572000	 64.3181
6.590000	 64.3974
6.608000	 64.5127
6.626000	 64.5393
6.644000	 64.4796
6.662000	 64.4316
6.680000	 64.4398
6.698000	 64.5176
6.716000	 64.5626
6.734000	 64.485
6.752000	 64.4443
6.770000	 64.473
6.788000	 64.4243
6.806000	 64.3563
6.824000	 64.3813
6.842000	 64.404
6.860000	 64.3322
6.878000	 64.2424
6.896000	 64.2192
6.914000	 64.2676
6.932000	 64.3881
6.950000	 64.5062
6.968000	 64.5086
6.986000	 64.4362
7.004000	 64.3955
7.022000	 64.3916
7.040000	 64.389
7.058000	 64.354
7.076000	 64.294
7.094000	 64.2825
7.112000	 64.3112
7.130000	 64.2908
7.148000	 64.2498
7.166000	 64.2672
7.184000	 64.3064
7.202000	 64.33
7.220000	 64.3543
7.238000	 64.3556
7.256000	 64.3389
7.274000	 64.3585
7.292000	 64.3868
7.310000	 64.3479
7.328000	 64.2508
7.346000	 64.182
7.364000	 64.176
7.382000	 64.1743
7.400000	 64.1575
7.418000	 64.1784
7.436000	 64.2392
7.454000	 64.2972
7.472000	 64.3254
7.490000	 64.3026
7.508000	 64.2532
7.526000	 64.2388
7.544000	 64.2583
7.562000	 64.273
7.580000	 64.2815
7.598000	 64.2813
7.616000	 64.2621
7.634000	 64.2492
7.652000	 64.2542
7.670000	 64.2407
7.688000	 64.1982
7.706000	 64.1615
7.724000	 64.1519
7.742000	 64.1706
7.760000	 64.2047
7.778000	 64.2115
7.796000	 64.1625
7.814000	 64.1026
7.832000	 64.0927
7.850000	 64.1271
7.868000	 64.1645
7.886000	 64.1953
7.904000	 64.2286
7.922000	 64.2534
7.940000	 64.2532
7.958000	 64.2354
7.976000	 64.2157
7.994000	 64.1951
8.012000	 64.1734
8.030000	 64.159
8.048000	 64.1502
8.065999	 64.1366
8.084000	 64.1266
8.102000	 64.1396
8.120000	 64.1699
8.138000	 64.1937
8.155999	 64.2075
8.173999	 64.2288
8.192000	 64.2615
8.210000	 64.2846
8.228000	 64.2716
8.246000	 64.2192
8.263999	 64.159
8.282000	 64.1335
8.300000	 64.148
8.318000	 64.1596
8.336000	 64.1252
8.353999	 64.0534
8.372000	 63.9912
8.390000	 63.9679
8.408000	 63.9725
8.426000	 63.9869
8.443999	 64.0219
8.462000	 64.0883
8.480000	 64.1576
8.498000	 64.1834
8.516000	 64.1555
8.533999	 64.11
8.552000	 64.0938
8.570000	 64.1295
8.588000	 64.1998
8.606000	 64.2534
8.624000	 64.2463
8.641999	 64.1883
8.660000	 64.1303
8.678000	 64.1058
8.696000	 64.1051
8.714000	 64.1051
8.731999	 64.1007
8.750000	 64.0981
8.768000	 64.0958
8.786000	 64.0892
8.804000	 64.0724
8.821999	 64.0381
8.840000	 63.9932
8.858000	 63.9618
8.876000	 63.9597
8.894000	 63.982
8.911999	 64.0147
8.930000	 64.0446
8.948000	 64.0596
8.966000	 64.0556
8.984000	 64.0459
9.001999	 64.0542
9.020000	 64.0898
9.038000	 64.1319
9.056000	 64.1477
9.074000	 64.1296
9.092000	 64.1058
9.109999	 64.1049
9.128000	 64.1239
9.146000	 64.1381
9.164000	 64.1342
9.182000	 64.1178
9.199999	 64.0958
9.218000	 64.0707
9.236000	 64.0527
9.254000	 64.0637
9.272000	 64.1145
9.289999	 64.1838
9.308000	 64.2312
9.326000	 64.2343
9.344000	 64.2058
9.362000	 64.1729
9.379999	 64.1472
9.398000	 64.1224
9.416000	 64.0931
9.434000	 64.0683
9.452000	 64.0597
9.469999	 64.0653
9.488000	 64.071
9.506000	 64.0667
9.524000	 64.0585
9.542000	 64.0602
9.560000	 64.0764
9.577999	 64.0951
9.596000	 64.0982
9.614000	 64.0779
9.632000	 64.0436
9.650000	 64.0152
9.667999	 64.0092
9.686000	 64.0266
9.704000	 64.0539
9.722000	 64.0763
9.740000	 64.09
9.757999	 64.1031
9.776000	 64.1251
9.794000	 64.1576
9.812000	 64.1943
9.830000	 64.2266
9.847999	 64.2478
9.866000	 64.2527
9.884000	 64.2352
9.902000	 64.1924
9.920000	 64.1309
9.937999	 64.0698
9.956000	 64.0325
9.974000	 64.0324
9.992000	 64.0649
10.01	64.1114
10.028	64.1515
10.046	64.1738
10.064	64.177
10.082	64.1651
10.1	64.1444
10.118	64.1246
10.136	64.1188
10.154	64.1387
10.172	64.1851
10.19	64.2427
10.208	64.2875
10.226	64.3022
10.244	64.2876
10.262	64.2608
10.28	64.2408
10.298	64.2348
10.316	64.2349
10.334	64.2282
10.352	64.2092
10.37	64.1834
10.388	64.161
10.406	64.1461
10.424	64.1353
10.442	64.1222
10.46	64.1052
10.478	64.0895
10.496	64.0827
10.514	64.0879
10.532	64.1007
10.55	64.1124
10.568	64.1158
10.586	64.1105
10.604	64.1013
10.622	64.095
10.64	64.0954
10.658	64.1019
10.676	64.1088
10.694	64.109
10.712	64.0971
10.73	64.0725
10.748	64.0406
10.766	64.0125
10.784	64.0014
10.802	64.0184
10.82	64.0671
10.838	64.1409
10.856	64.2244
10.874	64.296
10.892	64.3375
10.91	64.338
10.928	64.3
10.946	64.2382
10.964	64.1737
10.982	64.1268
11	64.1082
11.018	64.1169
11.036	64.1418
11.054	64.1677
11.072	64.1833
11.09	64.1852
11.108	64.1779
11.126	64.1704
11.144	64.1703
11.162	64.1814
11.18	64.2021
11.198	64.2277
11.216	64.2526
11.234	64.2735
11.252	64.2886
11.27	64.2982
11.288	64.3029
11.306	64.3036
11.324	64.2996
11.342	64.2887
11.36	64.2688
11.378	64.2378
11.396	64.1962
11.414	64.1482
11.432	64.1017
11.45	64.0659
11.468	64.049
11.486	64.054
11.504	64.0767
11.522	64.1059
11.54	64.1282
11.558	64.1321
11.576	64.1142
11.594	64.0806
11.612	64.0459
11.63	64.0271
11.648	64.0361
11.666	64.075
11.684	64.1344
11.702	64.1971
11.72	64.2434
11.738	64.2586
11.756	64.2377
11.774	64.1858
11.792	64.1155
11.81	64.0419
11.828	63.9782
11.846	63.9338
11.864	63.913
11.882	63.9154
11.9	63.9359
11.918	63.9667
11.936	63.9986
11.954	64.0234
11.972	64.0353
11.99	64.0325
12.008	64.0175
12.026	63.9959
12.044	63.9744
12.062	63.9583
12.08	63.9495
12.098	63.9466
12.116	63.945
12.134	63.9389
12.152	63.9236
12.17	63.8971
12.188	63.8609
12.206	63.8196
12.224	63.7803
12.242	63.7511
12.26	63.7392
12.278	63.7491
12.296	63.7809
12.314	63.8302
12.332	63.8896
12.35	63.9503
12.368	64.0046
12.386	64.0464
12.404	64.0732
12.422	64.0855
12.44	64.0859
12.458	64.0787
12.476	64.069
12.494	64.0623
12.512	64.0627
12.53	64.0727
12.548	64.0921
12.566	64.1182
12.584	64.1456
12.602	64.1676
12.62	64.1785
12.638	64.1753
12.656	64.1594
12.674	64.136
12.692	64.1125
12.71	64.0956
12.728	64.0892
12.746	64.0928
12.764	64.1019
12.782	64.1101
12.8	64.1111
12.818	64.101
12.836	64.0794
12.854	64.0489
12.872	64.0133
12.89	63.9765
12.908	63.9407
12.926	63.9064
12.944	63.8727
12.962	63.8392
12.98	63.8065
12.998	63.7774
13.016	63.7561
13.034	63.7469
13.052	63.7525
13.07	63.7722
13.088	63.8022
13.106	63.8358
13.124	63.8651
13.142	63.8833
13.16	63.8864
13.178	63.8744
13.196	63.8513
13.214	63.8234
13.232	63.7976
13.25	63.7797
13.268	63.7731
13.286	63.7786
13.304	63.7947
13.322	63.8186
13.34	63.8469
13.358	63.8766
13.376	63.9054
13.394	63.9309
13.412	63.9515
13.43	63.9653
13.448	63.971
13.466	63.9679
13.484	63.9558
13.502	63.9352
13.52	63.9076
13.538	63.8752
13.556	63.8406
13.574	63.8062
13.592	63.7737
13.61	63.7445
13.628	63.7193
13.646	63.6992
13.664	63.6851
13.682	63.6785
13.7	63.6806
13.718	63.6922
13.736	63.7133
13.754	63.7423
13.772	63.7761
13.79	63.8108
13.808	63.8419
13.826	63.8645
13.844	63.8749
13.862	63.87
13.88	63.8488
13.898	63.8118
13.916	63.7619
13.934	63.7041
13.952	63.645
13.97	63.5922
13.988	63.5534
14.006	63.535
14.024	63.5409
14.042	63.5715
14.06	63.6235
14.078	63.6904
14.096	63.7637
14.114	63.8342
14.132	63.8936
14.15	63.9365
14.168	63.9605
14.186	63.9675
14.204	63.9623
14.222	63.9518
14.24	63.9436
14.258	63.9427
14.276	63.9514
14.294	63.9688
14.312	63.9903
14.33	64.0092
14.348	64.0181
14.366	64.0106
14.384	63.983
14.402	63.936
14.42	63.8743
14.438	63.8051
14.456	63.7375
14.474	63.681
14.492	63.6439
14.51	63.6316
14.528	63.645
14.546	63.6807
14.564	63.7324
14.582	63.7919
14.6	63.8504
14.618	63.8998
14.636	63.9344
14.654	63.9519
14.672	63.9522
14.69	63.9375
14.708	63.9111
14.726	63.8763
14.744	63.8368
14.762	63.7937
14.78	63.7476
14.798	63.6989
14.816	63.648
14.834	63.5964
14.852	63.5476
14.87	63.5059
14.888	63.4758
14.906	63.4617
14.924	63.4667
14.942	63.492
14.96	63.5344
14.978	63.5879
14.996	63.644
15.014	63.6931
15.032	63.7243
15.05	63.7299
15.068	63.7065
15.086	63.654
15.104	63.5766
15.122	63.4841
15.14	63.3884
15.158	63.3006
15.176	63.2305
15.194	63.1866
15.212	63.172
15.23	63.184
15.248	63.2167
15.266	63.2613
15.284	63.3054
15.302	63.3376
15.32	63.3497
15.338	63.3359
15.356	63.2938
15.374	63.226
15.392	63.1388
15.41	63.0399
15.428	62.9387
15.446	62.8473
15.464	62.7733
15.482	62.7229
15.5	62.7018
15.518	62.7121
15.536	62.7534
15.554	62.8244
15.572	62.9222
15.59	63.0417
15.608	63.1779
15.626	63.3254
15.644	63.4778
15.662	63.6278
15.68	63.7698
15.698	63.8986
15.716	64.0079
15.734	64.0944
15.752	64.1563
15.77	64.1929
15.788	64.2063
15.806	64.2004
15.824	64.1796
15.842	64.1502
15.86	64.1195
15.878	64.0925
15.896	64.0736
15.914	64.066
15.932	64.07
15.95	64.0846
15.968	64.1072
15.986	64.1326
16.004	64.1565
16.022	64.1742
16.04	64.1804
16.058	64.1725
16.076	64.1489
16.094	64.1087
16.112	64.0544
16.13	63.9881
16.148	63.9128
16.166	63.8341
16.184	63.7559
16.202	63.6821
16.22	63.6185
16.238	63.5679
16.256	63.5332
16.274	63.5173
16.292	63.5208
16.31	63.5443
16.328	63.5872
16.346	63.6474
16.364	63.7233
16.382	63.8111
16.4	63.9075
16.418	64.0096
16.436	64.1127
16.454	64.2131
16.472	64.3082
16.49	64.3948
16.508	64.472
16.526	64.539
16.544	64.5963
16.562	64.645
16.58	64.686
16.598	64.7212
16.616	64.7515
16.634	64.7779
16.652	64.8008
16.67	64.8198
16.688	64.8342
16.706	64.843
16.724	64.8454
16.742	64.84
16.76	64.8267
16.778	64.8055
16.796	64.7766
16.814	64.7416
16.832	64.7015
16.85	64.6588
16.868	64.6151
16.886	64.5721
16.904	64.5321
16.922	64.4959
16.94	64.4647
16.958	64.439
16.976	64.4188
16.994	64.404
17.012	64.3937
17.03	64.3876
17.048	64.384
17.066	64.3821
17.084	64.3807
17.102	64.3786
17.12	64.3753
17.138	64.3693
17.156	64.3603
17.174	64.3475
17.192	64.3304
17.21	64.3092
17.228	64.2836
17.246	64.2548
17.264	64.2232
17.282	64.1911
17.3	64.1596
17.318	64.1312
17.336	64.1077
17.354	64.0904
17.372	64.0814
17.39	64.0807
17.408	64.089
17.426	64.1045
17.444	64.1265
17.462	64.1512
17.48	64.1771
17.498	64.1995
17.516	64.216
17.534	64.2238
17.552	64.2199
17.57	64.2034
17.588	64.1732
17.606	64.1304
17.624	64.0757
17.642	64.0128
17.66	63.9429
17.678	63.8717
17.696	63.8007
17.714	63.7354
17.732	63.6777
17.75	63.6306
17.768	63.596
17.786	63.5749
17.804	63.5671
17.822	63.5723
17.84	63.5887
17.858	63.6147
17.876	63.6485
17.894	63.6871
17.912	63.7296
17.93	63.7732
17.948	63.8173
17.966	63.8603
17.984	63.902
18.002	63.942
18.02	63.9805
18.038	64.0175
18.056	64.0536
18.074	64.0887
18.092	64.1232
18.11	64.1572
18.128	64.1906
18.146	64.223
18.164	64.254
18.182	64.283
18.2	64.3093
18.218	64.3321
18.236	64.351
18.254	64.3651
18.272	64.3742
18.29	64.3779
18.308	64.3764
18.326	64.3699
18.344	64.3588
18.362	64.3438
18.38	64.3255
18.398	64.3047
18.416	64.2823
18.434	64.2593
18.452	64.2365
18.47	64.2146
18.488	64.1941
18.506	64.1753
18.524	64.1583
18.542	64.1431
18.56	64.1293
18.578	64.117
18.596	64.1051
18.614	64.0936
18.632	64.0813
18.65	64.0681
18.668	64.053
18.686	64.0361
18.704	64.0166
18.722	63.9949
18.74	63.9709
18.758	63.9451
18.776	63.9182
18.794	63.8905
18.812	63.8635
18.83	63.8374
18.848	63.8138
18.866	63.7928
18.884	63.7756
18.902	63.7621
18.92	63.753
18.938	63.7477
18.956	63.7461
18.974	63.7472
18.992	63.7501
19.01	63.7536
19.028	63.7562
19.046	63.7571
19.064	63.7547
19.082	63.7484
19.1	63.7368
19.118	63.7202
19.136	63.6981
19.154	63.6709
19.172	63.6391
19.19	63.6036
19.208	63.5661
19.226	63.5273
19.244	63.4899
19.262	63.4541
19.28	63.4234
19.298	63.3976
19.316	63.3799
19.334	63.3699
19.352	63.3699
19.37	63.3795
19.388	63.3996
19.406	63.43
19.424	63.47
19.442	63.5196
19.46	63.5767
19.478	63.6414
19.496	63.7109
19.514	63.7847
19.532	63.8607
19.55	63.9376
19.568	64.014
19.586	64.0879
19.604	64.1589
19.622	64.2248
19.64	64.2858
19.658	64.3396
19.676	64.3866
19.694	64.4254
19.712	64.456
19.73	64.4775
19.748	64.4899
19.766	64.4931
19.784	64.487
19.802	64.4718
19.82	64.4474
19.838	64.4141
19.856	64.3723
19.874	64.3223
19.892	64.2653
19.91	64.2011
19.928	64.132
19.946	64.0578
19.964	63.9813
19.982	63.9026
20	63.8245
20.018	63.748
20.036	63.6748
20.054	63.6077
20.072	63.5468
20.09	63.4958
20.108	63.4542
20.126	63.4247
20.144	63.4074
20.162	63.4031
20.18	63.4126
20.198	63.4349
20.216	63.4698
20.234	63.5167
20.252	63.5732
20.27	63.6398
20.288	63.712
20.306	63.7901
20.324	63.8709
20.342	63.9523
20.36	64.0336
20.378	64.1111
20.396	64.1853
20.414	64.2537
20.432	64.3161
20.45	64.3723
20.468	64.4215
20.486	64.4646
20.504	64.5022
20.522	64.5342
20.54	64.5632
20.558	64.5888
20.576	64.6127
20.594	64.6358
20.612	64.6583
20.63	64.6817
20.648	64.7058
20.666	64.73
20.684	64.7548
20.702	64.7785
20.72	64.8007
20.738	64.8206
20.756	64.8348
20.774	64.8442
20.792	64.8448
20.81	64.8365
20.828	64.8178
20.846	64.7859
20.864	64.7417
20.882	64.6839
20.9	64.6121
20.918	64.5275
20.936	64.43
20.954	64.3204
20.972	64.2023
20.99	64.0744
21.008	63.9416
21.026	63.805
21.044	63.666
21.062	63.5301
21.08	63.3958
21.098	63.268
21.116	63.1478
21.134	63.0358
21.152	62.9353
21.17	62.8453
21.188	62.767
21.206	62.7012
21.224	62.6469
21.242	62.6037
21.26	62.572
21.278	62.5495
21.296	62.5362
21.314	62.5312
21.332	62.5323
21.35	62.5401
21.368	62.5526
21.386	62.5692
21.404	62.5899
21.422	62.6135
21.44	62.6402
21.458	62.6698
21.476	62.702
21.494	62.737
21.512	62.7752
21.53	62.8165
21.548	62.8609
21.566	62.9088
21.584	62.9599
21.602	63.0139
21.62	63.0712
21.638	63.1307
21.656	63.1911
21.674	63.2532
21.692	63.3141
21.71	63.3737
21.728	63.4313
21.746	63.4839
21.764	63.5324
21.782	63.5746
21.8	63.6087
21.818	63.6354
21.836	63.6527
21.854	63.6601
21.872	63.6579
21.89	63.6452
21.908	63.6221
21.926	63.5897
21.944	63.5486
21.962	63.4986
21.98	63.4426
21.998	63.3801
22.016	63.3124
22.034	63.2433
22.052	63.1715
22.07	63.0994
22.088	63.0292
22.106	62.9599
22.124	62.8936
22.142	62.8311
22.16	62.7718
22.178	62.7164
22.196	62.6651
22.214	62.6172
22.232	62.5722
22.25	62.5307
22.268	62.4908
22.286	62.4519
22.304	62.4144
22.322	62.3761
22.34	62.3369
22.358	62.2967
22.376	62.2541
22.394	62.2093
22.412	62.1623
22.43	62.113
22.448	62.0613
22.466	62.0082
22.484	61.9541
22.502	61.8986
22.52	61.8437
22.538	61.7902
22.556	61.7375
22.574	61.6882
22.592	61.6423
22.61	61.6
22.628	61.5634
22.646	61.5323
22.664	61.5068
22.682	61.4882
22.7	61.4763
22.718	61.4709
22.736	61.472
22.754	61.4798
22.772	61.4935
22.79	61.5129
22.808	61.5384
22.826	61.5683
22.844	61.6019
22.862	61.6397
22.88	61.6795
22.898	61.7204
22.916	61.763
22.934	61.8044
22.952	61.8439
22.97	61.882
22.988	61.9157
23.006	61.9446
23.024	61.969
23.042	61.9864
23.06	61.9967
23.078	62
23.096	61.9948
23.114	61.9807
23.132	61.9582
23.15	61.9273
23.168	61.8877
23.186	61.8399
23.204	61.7845
23.222	61.7208
23.24	61.6498
23.258	61.5745
23.276	61.4936
23.294	61.4085
23.312	61.3234
23.33	61.2368
23.348	61.1504
23.366	61.0692
23.384	60.9925
23.402	60.9211
23.42	60.8601
23.438	60.8094
23.456	60.7689
23.474	60.7432
23.492	60.7326
23.51	60.7365
23.528	60.7576
23.546	60.797
23.564	60.8535
23.582	60.9271
23.6	61.0185
23.618	61.1273
23.636	61.2505
23.654	61.3875
23.672	61.5394
23.69	61.7008
23.708	61.8688
23.726	62.0465
23.744	62.2275
23.762	62.4065
23.78	62.5878
23.798	62.7657
23.816	62.9336
23.834	63.095
23.852	63.2468
23.87	63.3829
23.888	63.5051
23.906	63.6125
23.924	63.7008
23.942	63.7695
23.96	63.8198
23.978	63.8503
23.996	63.8599
24.014	63.8493
24.032	63.8209
24.05	63.7756
24.068	63.7114
24.086	63.6336
24.104	63.5466
24.122	63.4462
24.14	63.3379
24.158	63.2299
24.176	63.1185
24.194	63.0063
24.212	62.9021
24.23	62.8065
24.248	62.7175
24.266	62.6433
24.284	62.5886
24.302	62.5492
24.32	62.529
24.338	62.5323
24.356	62.5576
24.374	62.6045
24.392	62.6734
24.41	62.7664
24.428	62.881
24.446	63.0124
24.464	63.1601
24.482	63.3264
24.5	63.5028
24.518	63.6826
24.536	63.8725
24.554	64.0648
24.572	64.2483
24.59	64.4265
24.608	64.5985
24.626	64.7538
24.644	64.8879
24.662	65.0063
24.68	65.1021
24.698	65.1686
24.716	65.2092
24.734	65.2228
24.752	65.2065
24.77	65.1587
24.788	65.0812
24.806	64.9762
24.824	64.8445
24.842	64.6833
24.86	64.4984
24.878	64.2967
24.896	64.0742
24.914	63.8331
24.932	63.5828
24.95	63.3275
24.968	63.0609
24.986	62.7921
25.004	62.5307
25.022	62.2723
25.04	62.0184
25.058	61.7762
25.076	61.5494
25.094	61.3343
25.112	61.1325
25.13	60.9459
25.148	60.7748
25.166	60.6178
25.184	60.4738
25.202	60.3426
25.22	60.2252
25.238	60.119
25.256	60.0212
25.274	59.9334
25.292	59.8549
25.31	59.7826
25.328	59.7146
25.346	59.653
25.364	59.5961
25.382	59.5422
25.4	59.4902
25.418	59.4414
25.436	59.3974
25.454	59.3589
25.472	59.3234
25.49	59.2945
25.508	59.2768
25.526	59.27
25.544	59.2722
25.562	59.2889
25.58	59.3252
25.598	59.3779
25.616	59.4481
25.634	59.5404
25.652	59.6583
25.67	59.7992
25.688	59.963
25.706	60.1499
25.724	60.3619
25.742	60.5981
25.76	60.8538
25.778	61.125
25.796	61.4165
25.814	61.7248
25.832	62.0425
25.85	62.3654
25.868	62.7003
25.886	63.0401
25.904	63.3754
25.922	63.7055
25.94	64.0354
25.958	64.3562
25.976	64.659
25.994	64.9475
26.012	65.2222
26.03	65.4757
26.048	65.7013
26.066	65.9027
26.084	66.08
26.102	66.231
26.12	66.3538
26.138	66.4494
26.156	66.5189
26.174	66.5631
26.192	66.5817
26.21	66.5738
26.228	66.5424
26.246	66.4901
26.264	66.4164
26.282	66.3204
26.3	66.2054
26.318	66.0747
26.336	65.9275
26.354	65.7632
26.372	65.5835
26.39	65.3897
26.408	65.1806
26.426	64.957
26.444	64.7203
26.462	64.472
26.48	64.2111
26.498	63.938
26.516	63.6532
26.534	63.3568
26.552	63.0465
26.57	62.7256
26.588	62.3983
26.606	62.0666
26.624	61.726
26.642	61.381
26.66	61.037
26.678	60.6951
26.696	60.3476
26.714	60.0052
26.732	59.68
26.75	59.3757
26.768	59.0795
26.786	58.8063
26.804	58.5728
26.822	58.3844
26.84	58.2249
26.858	58.1114
26.876	58.063
26.894	58.0879
26.912	58.1687
26.93	58.3192
26.948	58.5553
26.966	58.9247
26.984	59.4728
27.002	60.0579
27.02	60.5272
27.028	60.6462