File: Bakgrunnsmateriale/MATLAB/FTIR/ftir_data/subAa/Mapping_121/BZ1503107-1_t96_cm-1.asc
PE IR       SPECTRUM    SPECTRUM    ASCII       PEDS        1.60
  -1
BZ6EA5~1.ASC
17/04/07
21:09:06.00
17/04/07
21:09:06.00
tln
$BZ1503107-1_t0096$<tbV0>[-5.2,7.8,8.0,0.0,27,1,0]
370
64

2002,4.07
MIRTGS : RIGHTBACK : INTERNAL 2
MIR : ON : INTERNAL 2
OPTKBR

0.200000
8
8.000000
FILLER
RATIO
SPECTRUM
UNLOCKED 256

DOUBLE
64
COMBINED
1
0
0

1.000000
RATIO

1
0
TRUE
51149
0
LEFT NOT FITTED RIGHT NOT FITTED 0
NONE
NONE
15600
12
4.427000
51148
TRUE
1 0 8 72 0 0 0 0

15798

#HDR
-1
-1
#GR
CM-1
%T
2.38419e-05
0.0
5000
-1.000000
4631
8
80.3418
42.7619
#DATA
5000	64.4557
4996	64.9771
4992	65.0148
4988	64.5009
4984	64.0643
4980	63.9604
4976	63.7631
4972	63.7846
4968	64.5787
4964	64.9595
4960	65.0805
4956	66.014
4952	66.8055
4948	66.5301
4944	65.1842
4940	64.0121
4936	64.4013
4932	65.5215
4928	66.2952
4924	66.5818
4920	65.9428
4916	65.0061
4912	65.2463
4908	65.9662
4904	65.3797
4900	64.4107
4896	64.3502
4892	64.5147
4888	64.4455
4884	64.6001
4880	64.917
4876	64.9437
4872	64.8753
4868	64.8557
4864	64.8036
4860	64.8975
4856	65.0113
4852	64.7549
4848	64.3996
4844	64.5352
4840	64.8904
4836	65.153
4832	65.1581
4828	64.7712
4824	64.6492
4820	65.0008
4816	65.2562
4812	65.115
4808	65.0051
4804	65.2065
4800	65.3432
4796	65.2031
4792	64.9395
4788	64.7553
4784	64.8285
4780	65.0712
4776	65.1835
4772	65.0832
4768	64.8474
4764	64.7008
4760	64.7303
4756	64.8538
4752	65.0656
4748	65.2542
4744	65.203
4740	64.9583
4736	64.7089
4732	64.5535
4728	64.6014
4724	64.7146
4720	64.7668
4716	64.9508
4712	65.1029
4708	65.0069
4704	64.8646
4700	64.749
4696	64.6524
4692	64.7269
4688	64.9142
4684	65.0439
4680	65.2474
4676	65.4765
4672	65.5113
4668	65.3118
4664	65.0573
4660	64.987
4656	65.0177
4652	65.1075
4648	65.2706
4644	65.2222
4640	65.0231
4636	65.0064
4632	65.0712
4628	65.0246
4624	65.0833
4620	65.2049
4616	64.9911
4612	64.7474
4608	64.8702
4604	65.0185
4600	64.9971
4596	64.9719
4592	64.9402
4588	64.9273
4584	64.9928
4580	64.881
4576	64.5179
4572	64.3596
4568	64.608
4564	64.8098
4560	64.7305
4556	64.7181
4552	64.8731
4548	64.7825
4544	64.5386
4540	64.5564
4536	64.7226
4532	64.8795
4528	64.9092
4524	64.7604
4520	64.6625
4516	64.674
4512	64.6226
4508	64.5372
4504	64.4723
4500	64.2662
4496	64.0457
4492	63.7035
4488	63.5276
4484	64.017
4480	64.542
4476	64.5317
4472	64.3068
4468	64.2144
4464	64.3656
4460	64.1151
4456	63.2197
4452	63.9076
4448	64.7214
4444	66.6784
4440	75.5864
4436	80.3418
4432	75.7366
4428	68.2604
4424	65.1735
4420	64.7116
4416	64.3399
4412	64.3142
4408	64.2871
4404	64.4605
4400	64.5568
4396	64.4695
4392	64.5764
4388	64.6946
4384	64.6019
4380	64.5442
4376	64.6073
4372	64.6941
4368	64.8392
4364	64.9415
4360	64.9329
4356	64.8062
4352	64.5923
4348	64.4682
4344	64.5719
4340	64.8059
4336	64.899
4332	64.8974
4328	64.9124
4324	64.8193
4320	64.5644
4316	64.3116
4312	64.3015
4308	64.4266
4304	64.4641
4300	64.596
4296	64.8604
4292	64.9898
4288	65.0352
4284	64.9832
4280	64.7407
4276	64.5832
4272	64.5896
4268	64.6173
4264	64.6698
4260	64.8424
4256	65.1691
4252	65.3971
4248	65.3578
4244	65.1256
4240	64.8426
4236	64.7038
4232	64.7325
4228	64.7415
4224	64.6479
4220	64.5407
4216	64.5322
4212	64.7246
4208	64.9361
4204	64.8689
4200	64.6673
4196	64.6397
4192	64.7376
4188	64.8018
4184	64.7867
4180	64.7498
4176	64.7896
4172	64.8615
4168	64.917
4164	64.9787
4160	65.0543
4156	65.1505
4152	65.2174
4148	65.0732
4144	64.8287
4140	64.7948
4136	64.91
4132	65.0201
4128	64.9902
4124	64.7555
4120	64.5733
4116	64.6423
4112	64.843
4108	64.9138
4104	64.8576
4100	64.944
4096	65.0314
4092	64.9802
4088	65.0122
4084	65.1129
4080	65.2222
4076	65.2608
4072	65.0918
4068	64.8742
4064	64.8312
4060	64.8496
4056	64.7899
4052	64.8178
4048	64.9222
4044	64.9865
4040	65.0659
4036	65.1354
4032	65.1448
4028	65.1138
4024	64.9452
4020	64.705
4016	64.6521
4012	64.6812
4008	64.6487
4004	64.7503
4000	65
3996	65.0877
3992	64.9746
3988	64.8521
3984	64.86
3980	64.9096
3976	64.865
3972	64.9726
3968	65.116
3964	65.091
3960	65.16
3956	65.2868
3952	65.2309
3948	64.901
3944	64.6503
3940	64.7284
3936	64.7856
3932	64.7949
3928	64.8845
3924	64.9336
3920	64.8648
3916	64.7379
3912	64.7487
3908	64.9527
3904	65.0852
3900	65.0641
3896	65.0177
3892	64.9498
3888	64.9157
3884	64.9176
3880	64.8998
3876	64.8777
3872	64.9438
3868	64.9763
3864	64.9512
3860	65.0412
3856	65.0928
3852	64.9894
3848	64.8488
3844	64.816
3840	64.9228
3836	65.01
3832	64.9468
3828	64.8541
3824	64.9125
3820	64.9522
3816	64.8607
3812	64.8907
3808	64.9784
3804	64.9573
3800	64.9155
3796	64.9177
3792	64.9457
3788	65.0062
3784	65.0848
3780	65.0545
3776	64.9787
3772	64.9916
3768	64.991
3764	64.9334
3760	64.9668
3756	65.0725
3752	65.0613
3748	64.9492
3744	64.9105
3740	64.9884
3736	65.0378
3732	64.9742
3728	64.9464
3724	65.0585
3720	65.174
3716	65.2096
3712	65.2288
3708	65.2214
3704	65.1687
3700	65.1122
3696	65.091
3692	65.0769
3688	65.1055
3684	65.1929
3680	65.1901
3676	65.185
3672	65.2226
3668	65.1566
3664	65.0347
3660	64.9734
3656	65.0346
3652	65.1095
3648	65.0699
3644	64.9801
3640	65.0117
3636	65.1291
3632	65.1389
3628	65.0289
3624	64.9516
3620	64.9676
3616	64.9996
3612	64.9778
3608	64.9047
3604	64.9216
3600	65.0267
3596	65.0814
3592	65.091
3588	65.065
3584	64.9711
3580	64.8437
3576	64.8026
3572	64.8805
3568	64.9998
3564	65.0394
3560	64.9874
3556	64.9767
3552	64.9616
3548	64.9202
3544	64.9417
3540	64.9806
3536	64.9723
3532	64.9336
3528	64.9386
3524	64.9649
3520	64.9047
3516	64.8078
3512	64.7987
3508	64.8847
3504	64.9964
3500	65.0686
3496	65.0418
3492	64.9932
3488	65.0356
3484	65.08
3480	65.1103
3476	65.1489
3472	65.1127
3468	65.0233
3464	64.9502
3460	64.9019
3456	64.849
3452	64.7986
3448	64.8177
3444	64.9116
3440	64.9902
3436	65.0284
3432	65.0204
3428	64.942
3424	64.8907
3420	64.9026
3416	64.9318
3412	64.9843
3408	65.0083
3404	64.9816
3400	64.9426
3396	64.8836
3392	64.8615
3388	64.8844
3384	64.8733
3380	64.8878
3376	64.9387
3372	64.9039
3368	64.8107
3364	64.7853
3360	64.768
3356	64.7328
3352	64.7801
3348	64.8614
3344	64.9192
3340	64.9689
3336	64.975
3332	64.9041
3328	64.7963
3324	64.7436
3320	64.7873
3316	64.8291
3312	64.776
3308	64.7436
3304	64.8366
3300	64.9509
3296	65.012
3292	65.0607
3288	65.0302
3284	64.9032
3280	64.8802
3276	64.9698
3272	64.9902
3268	64.9563
3264	64.9493
3260	64.9355
3256	64.9467
3252	64.9714
3248	64.9562
3244	64.9731
3240	64.9617
3236	64.8473
3232	64.7467
3228	64.7068
3224	64.6826
3220	64.6777
3216	64.6731
3212	64.6718
3208	64.7159
3204	64.7718
3200	64.7818
3196	64.8223
3192	64.9178
3188	64.9208
3184	64.8593
3180	64.8535
3176	64.8797
3172	64.8887
3168	64.8721
3164	64.842
3160	64.8368
3156	64.8394
3152	64.8223
3148	64.8464
3144	64.914
3140	64.9235
3136	64.858
3132	64.7666
3128	64.681
3124	64.6905
3120	64.7829
3116	64.8351
3112	64.8249
3108	64.7697
3104	64.7227
3100	64.7601
3096	64.8036
3092	64.8294
3088	64.8649
3084	64.8069
3080	64.6952
3076	64.6823
3072	64.731
3068	64.7508
3064	64.7973
3060	64.8832
3056	64.9036
3052	64.8625
3048	64.8756
3044	64.9228
3040	64.9345
3036	64.908
3032	64.8616
3028	64.8887
3024	64.9261
3020	64.8821
3016	64.8487
3012	64.8231
3008	64.8105
3004	64.8506
3000	64.8949
2996	64.8832
2992	64.77
2988	64.6284
2984	64.6224
2980	64.7062
2976	64.6734
2972	64.571
2968	64.5549
2964	64.6039
2960	64.6339
2956	64.6509
2952	64.6564
2948	64.6715
2944	64.7479
2940	64.7336
2936	64.6192
2932	64.5878
2928	64.636
2924	64.6784
2920	64.6976
2916	64.7086
2912	64.7304
2908	64.7496
2904	64.7194
2900	64.635
2896	64.5678
2892	64.5797
2888	64.602
2884	64.5395
2880	64.5026
2876	64.5682
2872	64.6391
2868	64.6721
2864	64.6575
2860	64.6331
2856	64.6621
2852	64.6718
2848	64.6496
2844	64.681
2840	64.6912
2836	64.6181
2832	64.5977
2828	64.6884
2824	64.7736
2820	64.7584
2816	64.706
2812	64.7049
2808	64.7192
2804	64.7438
2800	64.7623
2796	64.7334
2792	64.7148
2788	64.7347
2784	64.7616
2780	64.7696
2776	64.7656
2772	64.762
2768	64.7572
2764	64.7761
2760	64.7927
2756	64.733
2752	64.6728
2748	64.7008
2744	64.7238
2740	64.6976
2736	64.6914
2732	64.7345
2728	64.7645
2724	64.7298
2720	64.6779
2716	64.6458
2712	64.6253
2708	64.6218
2704	64.6568
2700	64.6827
2696	64.6635
2692	64.623
2688	64.5549
2684	64.5019
2680	64.5288
2676	64.579
2672	64.6073
2668	64.6519
2664	64.6717
2660	64.6993
2656	64.7613
2652	64.7986
2648	64.8204
2644	64.8022
2640	64.7102
2636	64.5934
2632	64.5687
2628	64.6082
2624	64.6324
2620	64.6523
2616	64.6614
2612	64.6742
2608	64.6565
2604	64.5928
2600	64.5836
2596	64.6146
2592	64.58
2588	64.5774
2584	64.6939
2580	64.7511
2576	64.7059
2572	64.6692
2568	64.6404
2564	64.6216
2560	64.6085
2556	64.5901
2552	64.6044
2548	64.6388
2544	64.6567
2540	64.6623
2536	64.6488
2532	64.6598
2528	64.6907
2524	64.6714
2520	64.641
2516	64.6664
2512	64.7181
2508	64.6734
2504	64.5584
2500	64.5859
2496	64.6817
2492	64.655
2488	64.641
2484	64.6315
2480	64.5233
2476	64.4719
2472	64.5223
2468	64.5674
2464	64.5967
2460	64.6241
2456	64.6317
2452	64.6143
2448	64.5777
2444	64.5195
2440	64.4584
2436	64.4664
2432	64.546
2428	64.6144
2424	64.6267
2420	64.592
2416	64.5181
2412	64.4227
2408	64.3809
2404	64.4131
2400	64.4418
2396	64.4723
2392	64.5031
2388	64.4788
2384	64.4702
2380	64.5001
2376	64.501
2372	64.515
2368	64.5609
2364	64.5841
2360	64.6116
2356	64.5975
2352	64.5098
2348	64.4773
2344	64.4647
2340	64.3854
2336	64.3655
2332	64.4741
2328	64.5725
2324	64.5459
2320	64.4818
2316	64.4889
2312	64.4957
2308	64.4257
2304	64.369
2300	64.4192
2296	64.484
2292	64.4568
2288	64.3825
2284	64.3419
2280	64.3557
2276	64.4107
2272	64.4812
2268	64.4933
2264	64.4685
2260	64.4547
2256	64.3901
2252	64.3369
2248	64.3657
2244	64.3908
2240	64.3875
2236	64.3798
2232	64.3919
2228	64.44
2224	64.4503
2220	64.4007
2216	64.366
2212	64.3575
2208	64.3023
2204	64.2409
2200	64.2862
2196	64.3635
2192	64.3764
2188	64.3558
2184	64.3136
2180	64.2591
2176	64.2102
2172	64.1947
2168	64.2461
2164	64.2992
2160	64.3026
2156	64.3095
2152	64.3172
2148	64.2945
2144	64.3259
2140	64.3855
2136	64.3486
2132	64.2608
2128	64.2176
2124	64.2255
2120	64.2584
2116	64.2916
2112	64.3039
2108	64.336
2104	64.3835
2100	64.3706
2096	64.3186
2092	64.2691
2088	64.2406
2084	64.241
2080	64.2494
2076	64.2396
2072	64.1902
2068	64.1769
2064	64.242
2060	64.2646
2056	64.2304
2052	64.228
2048	64.2041
2044	64.1362
2040	64.1445
2036	64.2317
2032	64.2702
2028	64.2221
2024	64.1683
2020	64.1776
2016	64.188
2012	64.1575
2008	64.1634
2004	64.189
2000	64.1886
1996	64.2229
1992	64.2736
1988	64.2542
1984	64.2067
1980	64.2026
1976	64.2111
1972	64.18
1968	64.1496
1964	64.1701
1960	64.187
1956	64.1586
1952	64.1073
1948	64.0629
1944	64.0489
1940	64.081
1936	64.1106
1932	64.0705
1928	64.021
1924	64.0271
1920	64.0522
1916	64.0453
1912	64.0354
1908	64.054
1904	64.0953
1900	64.1295
1896	64.1343
1892	64.1278
1888	64.1218
1884	64.0884
1880	64.0696
1876	64.0903
1872	64.1012
1868	64.1092
1864	64.0902
1860	64.0515
1856	64.0699
1852	64.0761
1848	64.0352
1844	64.0142
1840	64.044
1836	64.1177
1832	64.1376
1828	64.1001
1824	64.0856
1820	64.0594
1816	63.9979
1812	63.9788
1808	64.0003
1804	63.9883
1800	63.9726
1796	63.9969
1792	64.011
1788	63.9666
1784	63.911
1780	63.889
1776	63.9125
1772	63.9568
1768	63.9533
1764	63.9219
1760	63.8955
1756	63.824
1752	63.7564
1748	63.7523
1744	63.6891
1740	63.5376
1736	63.4346
1732	63.4557
1728	63.5902
1724	63.7345
1720	63.7609
1716	63.7284
1712	63.7522
1708	63.773
1704	63.7446
1700	63.7273
1696	63.7674
1692	63.7997
1688	63.7536
1684	63.7036
1680	63.6878
1676	63.6792
1672	63.7002
1668	63.7429
1664	63.8051
1660	63.8751
1656	63.8927
1652	63.8733
1648	63.8433
1644	63.7857
1640	63.6962
1636	63.613
1632	63.6249
1628	63.6963
1624	63.7573
1620	63.8066
1616	63.7759
1612	63.7217
1608	63.7566
1604	63.782
1600	63.7579
1596	63.7886
1592	63.8461
1588	63.8144
1584	63.7141
1580	63.6197
1576	63.5833
1572	63.6629
1568	63.7268
1564	63.6443
1560	63.5869
1556	63.6573
1552	63.7031
1548	63.6713
1544	63.6311
1540	63.6195
1536	63.6186
1532	63.6269
1528	63.6704
1524	63.6762
1520	63.6092
1516	63.602
1512	63.6551
1508	63.6437
1504	63.5952
1500	63.5833
1496	63.6079
1492	63.6169
1488	63.6051
1484	63.5626
1480	63.5191
1476	63.5723
1472	63.6634
1468	63.675
1464	63.5809
1460	63.4773
1456	63.4558
1452	63.4998
1448	63.5352
1444	63.4743
1440	63.4013
1436	63.4493
1432	63.5208
1428	63.507
1424	63.5053
1420	63.5469
1416	63.526
1412	63.5149
1408	63.5854
1404	63.6089
1400	63.47
1396	63.2795
1392	63.2445
1388	63.3193
1384	63.3566
1380	63.355
1376	63.3474
1372	63.3349
1368	63.3742
1364	63.4225
1360	63.4103
1356	63.3953
1352	63.4073
1348	63.4213
1344	63.3781
1340	63.2873
1336	63.2579
1332	63.3118
1328	63.3253
1324	63.3166
1320	63.3599
1316	63.4016
1312	63.4391
1308	63.4085
1304	63.2921
1300	63.2506
1296	63.3018
1292	63.2921
1288	63.1732
1284	63.102
1280	63.1511
1276	63.1782
1272	63.1471
1268	63.1215
1264	63.1287
1260	63.173
1256	63.1813
1252	63.1689
1248	63.1643
1244	63.1187
1240	63.0889
1236	63.1126
1232	63.1469
1228	63.1704
1224	63.1837
1220	63.1579
1216	63.131
1212	63.1877
1208	63.2061
1204	63.0945
1200	63.034
1196	63.1073
1192	63.1602
1188	63.1132
1184	63.0314
1180	63.0028
1176	63.0265
1172	63.031
1168	63.0141
1164	63.0123
1160	63.0586
1156	63.1059
1152	63.0455
1148	62.9987
1144	63.0562
1140	63.0829
1136	63.0459
1132	62.9699
1128	62.9246
1124	62.9292
1120	62.9356
1116	62.9535
1112	62.9761
1108	63.0043
1104	63.0616
1100	63.1123
1096	63.0838
1092	62.9646
1088	62.8659
1084	62.8438
1080	62.8992
1076	63.0248
1072	63.0341
1068	62.9184
1064	62.8658
1060	62.8732
1056	62.8942
1052	62.9398
1048	62.9806
1044	63.0248
1040	63.0574
1036	62.9791
1032	62.9022
1028	62.895
1024	62.8197
1020	62.7429
1016	62.7221
1012	62.7653
1008	62.8611
1004	62.8763
1000	62.8416
996	 62.7998
992	 62.8011
988	 62.9346
984	 63.0353
980	 62.9789
976	 62.9074
972	 62.9286
968	 62.9944
964	 63.0222
960	 63.0069
956	 63.0031
952	 62.9791
948	 62.8868
944	 62.8294
940	 62.9104
936	 62.9833
932	 63.0095
928	 63.0966
924	 63.1349
920	 63.0287
916	 62.8531
912	 62.8102
908	 62.9224
904	 62.9591
900	 62.8451
896	 62.6644
892	 62.6081
888	 62.7524
884	 62.8236
880	 62.7872
876	 62.8177
872	 62.7666
868	 62.7475
864	 62.8989
860	 62.8969
856	 62.7177
852	 62.6336
848	 62.7298
844	 62.874
840	 62.895
836	 62.8577
832	 62.8519
828	 62.8819
824	 62.9988
820	 63.1684
816	 63.1888
812	 63.0924
808	 62.9909
804	 62.7621
800	 62.5886
796	 62.6724
792	 62.8183
788	 62.9042
784	 62.8539
780	 62.6662
776	 62.5686
772	 62.6218
768	 62.6225
764	 62.6042
760	 62.668
756	 62.6301
752	 62.5035
748	 62.4867
744	 62.5536
740	 62.6137
736	 62.6809
732	 62.7419
728	 62.728
724	 62.6416
720	 62.6054
716	 62.5898
712	 62.5025
708	 62.4223
704	 62.3613
700	 62.4312
696	 62.6066
692	 62.6008
688	 62.4947
684	 62.3409
680	 62.1217
676	 62.0999
672	 62.3177
668	 62.4873
664	 62.4752
660	 62.3236
656	 62.1611
652	 62.1782
648	 62.2546
644	 62.282
640	 62.2958
636	 62.2068
632	 62.1173
628	 62.1821
624	 62.2962
620	 62.3304
616	 62.2162
612	 62.1461
608	 62.1828
604	 61.9364
600	 61.7315
596	 61.9336
592	 62.0622
588	 62.1416
584	 62.4882
580	 62.7976
576	 62.8939
572	 62.9887
568	 62.7406
564	 62.0744
560	 61.8883
556	 62.0575
552	 61.7907
548	 61.2539
544	 60.8578
540	 60.8886
536	 61.8703
532	 63.2433
528	 63.0905
524	 61.5414
520	 60.9612
516	 61.6704
512	 61.9648
508	 61.1084
504	 60.2609
500	 60.3371
496	 60.8124
492	 61.264
488	 61.311
484	 60.3016
480	 59.5617
476	 60.4464
472	 61.3879
468	 61.2753
464	 61.401
460	 61.8887
456	 61.2792
452	 59.9899
448	 59.5763
444	 60.3338
440	 61.1272
436	 61.1668
432	 60.6089
428	 59.9679
424	 61.1109
420	 64.1431
416	 64.9122
412	 62.3325
408	 59.4187
404	 58.7799
400	 62.5267
396	 65.9903
392	 62.1869
388	 51.0077
384	 42.7619
380	 48.6187
376	 58.144
372	 64.9637
370	 70.243