File: Bakgrunnsmateriale/MATLAB/FTIR/ftir_data/subAa/Mapping_121/BZ1503107-1_t66.asc
PE IR       SPECTRUM    SPECTRUM    ASCII       PEDS        1.60
  -1
BZ2161~1.ASC
17/04/07
18:36:41.00
17/04/07
18:37:07.00
tln
$BZ1503107-1_t0066$<tbV0>[-13.0,0.0,8.0,0.0,27,1,0]
27.028
64

2002,4.07
MIRTGS : RIGHTBACK : INTERNAL 2
MIR : ON : INTERNAL 2
OPTKBR

0.200000
8
8.000000
FILLER
RATIO
SPECTRUM
UNLOCKED 256

DOUBLE
64
COMBINED
1
0
0

0.002000
RATIO

1
0
TRUE
51149
0
LEFT NOT FITTED RIGHT NOT FITTED 0
NONE
NONE
15600
12
4.427000
51148
TRUE
1 0 8 72 0 0 0 0

15798

#HDR
-1
-1
#GR
µM
%T
2.38419e-05
0.0
2.000000
0.002000
12515
8
79.562
54.7749
#DATA
2.000000	 65.6723
2.018000	 65.0201
2.036000	 64.4167
2.054000	 64.9536
2.072000	 65.0242
2.090000	 65.1765
2.108000	 65.3535
2.126000	 65.2918
2.144000	 65.5725
2.162000	 65.3235
2.180000	 65.2821
2.198000	 65.1301
2.216000	 64.6458
2.234000	 64.6388
2.252000	 63.8906
2.270000	 65.2078
2.288000	 64.9068
2.306000	 64.8231
2.324000	 65.0065
2.342000	 65.1512
2.360000	 65.1434
2.378000	 65.3146
2.396000	 65.2567
2.414000	 65.1421
2.432000	 65.235
2.450000	 65.4299
2.468000	 65.2838
2.486000	 65.1948
2.504000	 65.4445
2.522000	 65.4095
2.540000	 65.1438
2.558000	 65.3959
2.576000	 65.1169
2.594000	 65.1456
2.612000	 65.2182
2.630000	 65.252
2.648000	 65.3032
2.666000	 65.2668
2.684000	 65.2962
2.702000	 65.2848
2.720000	 65.4553
2.738000	 65.4064
2.756000	 65.2741
2.774000	 65.302
2.792000	 65.1919
2.810000	 65.329
2.828000	 65.3945
2.846000	 65.3607
2.864000	 65.4257
2.882000	 65.1866
2.900000	 65.3245
2.918000	 65.036
2.936000	 65.0296
2.954000	 65.1479
2.972000	 65.2462
2.990000	 65.1351
3.008000	 65.3
3.026000	 65.2693
3.044000	 65.416
3.062000	 65.1619
3.080000	 65.1886
3.098000	 65.2741
3.116000	 65.2588
3.134000	 65.377
3.152000	 65.2219
3.170000	 65.1838
3.188000	 65.2472
3.206000	 65.0105
3.224000	 65.2121
3.242000	 64.9089
3.260000	 65.0915
3.278000	 65.0242
3.296000	 65.1561
3.314000	 65.0451
3.332000	 64.9061
3.350000	 64.9738
3.368000	 64.6712
3.386000	 64.644
3.404000	 64.7987
3.422000	 64.9275
3.440000	 64.957
3.458000	 64.978
3.476000	 64.8184
3.494000	 65.0898
3.512000	 65.1209
3.530000	 65.1045
3.548000	 65.1561
3.566000	 65.0672
3.584000	 65.1813
3.602000	 64.9791
3.620000	 65.0361
3.638000	 65.0889
3.656000	 65.1747
3.674000	 65.1497
3.692000	 65.1645
3.710000	 65.042
3.728000	 65.0587
3.746000	 65.0589
3.764000	 65.1791
3.782000	 65.0396
3.800000	 64.9616
3.818000	 64.905
3.836000	 64.8539
3.854000	 65.037
3.872000	 65.0217
3.890000	 65.044
3.908000	 64.9118
3.926000	 65.0119
3.944000	 64.8296
3.962000	 65.074
3.980000	 64.9379
3.998000	 64.8726
4.016000	 65.0584
4.034000	 64.9893
4.052000	 64.8737
4.070000	 64.8186
4.088000	 64.9049
4.106000	 64.9741
4.124000	 64.8653
4.141999	 64.8784
4.160000	 65.0072
4.178000	 64.9167
4.196000	 64.8692
4.214000	 64.8693
4.232000	 64.8837
4.250000	 64.8602
4.268000	 64.8367
4.286000	 64.7905
4.304000	 64.9353
4.322000	 64.7073
4.340000	 64.7664
4.358000	 64.9203
4.375999	 64.8815
4.394000	 64.8668
4.412000	 64.8625
4.430000	 64.8855
4.448000	 64.7673
4.466000	 64.728
4.484000	 64.8514
4.502000	 64.9056
4.520000	 64.7763
4.538000	 64.8186
4.556000	 64.8537
4.574000	 64.7614
4.592000	 64.6979
4.609999	 64.711
4.628000	 64.7097
4.646000	 64.7394
4.664000	 64.6959
4.682000	 64.6972
4.700000	 64.77
4.718000	 64.7649
4.736000	 64.7116
4.754000	 64.6526
4.772000	 64.7456
4.790000	 64.6078
4.808000	 64.5126
4.826000	 64.5798
4.843999	 64.661
4.862000	 64.7602
4.880000	 64.722
4.898000	 64.6914
4.916000	 64.7565
4.934000	 64.7054
4.952000	 64.7025
4.970000	 64.7131
4.988000	 64.6402
5.006000	 64.6859
5.024000	 64.7075
5.042000	 64.6876
5.060000	 64.6724
5.077999	 64.6999
5.096000	 64.4957
5.114000	 64.4791
5.132000	 64.6187
5.150000	 64.7463
5.168000	 64.8159
5.186000	 64.7248
5.204000	 64.5709
5.222000	 64.5658
5.240000	 64.6523
5.258000	 64.6684
5.276000	 64.6475
5.294000	 64.5554
5.312000	 64.5547
5.330000	 64.5804
5.348000	 64.6405
5.366000	 64.6342
5.384000	 64.6242
5.402000	 64.5964
5.420000	 64.5591
5.438000	 64.5867
5.456000	 64.5709
5.474000	 64.5045
5.492000	 64.5434
5.510000	 64.5041
5.528000	 64.4731
5.546000	 64.4725
5.564000	 64.4614
5.582000	 64.4955
5.600000	 64.5172
5.618000	 64.4971
5.636000	 64.393
5.654000	 64.3659
5.672000	 64.3323
5.690000	 64.3104
5.708000	 64.157
5.726000	 63.8921
5.744000	 63.6124
5.762000	 63.4438
5.780000	 63.5397
5.798000	 63.8588
5.816000	 64.0793
5.834000	 64.169
5.852000	 64.1558
5.870000	 64.1151
5.888000	 64.0729
5.906000	 64.1554
5.923999	 64.2871
5.942000	 64.3284
5.960000	 64.2578
5.978000	 64.2097
5.996000	 64.297
6.014000	 64.3567
6.032000	 64.2551
6.050000	 64.2121
6.068000	 64.2873
6.086000	 64.3149
6.104000	 64.212
6.122000	 64.1981
6.140000	 64.2876
6.158000	 64.2647
6.176000	 64.1708
6.194000	 64.1726
6.212000	 64.2089
6.230000	 64.1807
6.248000	 64.1887
6.266000	 64.1915
6.284000	 64.2185
6.302000	 64.2654
6.320000	 64.2129
6.338000	 64.1785
6.356000	 64.227
6.374000	 64.2448
6.392000	 64.2505
6.410000	 64.2995
6.428000	 64.274
6.446000	 64.1913
6.464000	 64.1797
6.482000	 64.2261
6.500000	 64.2599
6.518000	 64.2038
6.536000	 64.1576
6.554000	 64.1639
6.572000	 64.1718
6.590000	 64.2143
6.608000	 64.2568
6.626000	 64.2558
6.644000	 64.2434
6.662000	 64.2842
6.680000	 64.375
6.698000	 64.415
6.716000	 64.3218
6.734000	 64.2353
6.752000	 64.2532
6.770000	 64.2646
6.788000	 64.2026
6.806000	 64.1329
6.824000	 64.1168
6.842000	 64.1454
6.860000	 64.1504
6.878000	 64.0911
6.896000	 64.0184
6.914000	 64.0151
6.932000	 64.0574
6.950000	 64.0751
6.968000	 64.0797
6.986000	 64.089
7.004000	 64.0823
7.022000	 64.0728
7.040000	 64.0843
7.058000	 64.0915
7.076000	 64.0843
7.094000	 64.1071
7.112000	 64.1575
7.130000	 64.1583
7.148000	 64.0712
7.166000	 63.9702
7.184000	 63.9439
7.202000	 63.9637
7.220000	 63.9533
7.238000	 63.9259
7.256000	 63.9356
7.274000	 63.9862
7.292000	 64.0311
7.310000	 64.0306
7.328000	 63.9999
7.346000	 63.9817
7.364000	 63.9944
7.382000	 64.0079
7.400000	 63.97
7.418000	 63.9059
7.436000	 63.9086
7.454000	 63.9808
7.472000	 64.0264
7.490000	 63.999
7.508000	 63.9444
7.526000	 63.9279
7.544000	 63.9509
7.562000	 63.9452
7.580000	 63.881
7.598000	 63.8102
7.616000	 63.7754
7.634000	 63.7803
7.652000	 63.8249
7.670000	 63.8986
7.688000	 63.9731
7.706000	 64.0227
7.724000	 64.0341
7.742000	 64.0201
7.760000	 64.0043
7.778000	 63.9772
7.796000	 63.919
7.814000	 63.8582
7.832000	 63.8403
7.850000	 63.8501
7.868000	 63.8358
7.886000	 63.7901
7.904000	 63.746
7.922000	 63.7178
7.940000	 63.6967
7.958000	 63.6779
7.976000	 63.6623
7.994000	 63.6507
8.012000	 63.6483
8.030000	 63.6608
8.048000	 63.6824
8.065999	 63.6997
8.084000	 63.7038
8.102000	 63.6922
8.120000	 63.6743
8.138000	 63.6639
8.155999	 63.6562
8.173999	 63.6351
8.192000	 63.608
8.210000	 63.6004
8.228000	 63.6234
8.246000	 63.664
8.263999	 63.7054
8.282000	 63.7336
8.300000	 63.7408
8.318000	 63.7345
8.336000	 63.7304
8.353999	 63.7301
8.372000	 63.7152
8.390000	 63.6703
8.408000	 63.6077
8.426000	 63.5609
8.443999	 63.5466
8.462000	 63.543
8.480000	 63.5217
8.498000	 63.4907
8.516000	 63.4783
8.533999	 63.4785
8.552000	 63.4478
8.570000	 63.3651
8.588000	 63.2682
8.606000	 63.2187
8.624000	 63.2439
8.641999	 63.3277
8.660000	 63.4363
8.678000	 63.5378
8.696000	 63.6098
8.714000	 63.6499
8.731999	 63.6795
8.750000	 63.7225
8.768000	 63.7767
8.786000	 63.8136
8.804000	 63.8104
8.821999	 63.7756
8.840000	 63.7381
8.858000	 63.7235
8.876000	 63.7377
8.894000	 63.7677
8.911999	 63.7874
8.930000	 63.773
8.948000	 63.7208
8.966000	 63.6546
8.984000	 63.6098
9.001999	 63.6091
9.020000	 63.656
9.038000	 63.7341
9.056000	 63.8102
9.074000	 63.8465
9.092000	 63.8295
9.109999	 63.7819
9.128000	 63.7425
9.146000	 63.7311
9.164000	 63.7375
9.182000	 63.7427
9.199999	 63.7409
9.218000	 63.735
9.236000	 63.7207
9.254000	 63.6858
9.272000	 63.6279
9.289999	 63.5669
9.308000	 63.5387
9.326000	 63.5672
9.344000	 63.6473
9.362000	 63.7479
9.379999	 63.8357
9.398000	 63.8908
9.416000	 63.9069
9.434000	 63.8827
9.452000	 63.8211
9.469999	 63.7402
9.488000	 63.6761
9.506000	 63.6614
9.524000	 63.6973
9.542000	 63.7506
9.560000	 63.7797
9.577999	 63.7632
9.596000	 63.7079
9.614000	 63.6333
9.632000	 63.5566
9.650000	 63.49
9.667999	 63.4455
9.686000	 63.4353
9.704000	 63.4638
9.722000	 63.521
9.740000	 63.5861
9.757999	 63.6392
9.776000	 63.6695
9.794000	 63.6773
9.812000	 63.6694
9.830000	 63.6573
9.847999	 63.6547
9.866000	 63.6738
9.884000	 63.7185
9.902000	 63.7788
9.920000	 63.8351
9.937999	 63.8703
9.956000	 63.8816
9.974000	 63.8802
9.992000	 63.8796
10.01	63.8858
10.028	63.894
10.046	63.8963
10.064	63.8898
10.082	63.8783
10.1	63.8679
10.118	63.8612
10.136	63.8565
10.154	63.8516
10.172	63.8468
10.19	63.8448
10.208	63.8476
10.226	63.8555
10.244	63.8665
10.262	63.8788
10.28	63.8908
10.298	63.9004
10.316	63.9044
10.334	63.8988
10.352	63.8805
10.37	63.8497
10.388	63.8101
10.406	63.768
10.424	63.7301
10.442	63.7019
10.46	63.6858
10.478	63.6806
10.496	63.6818
10.514	63.684
10.532	63.6829
10.55	63.6791
10.568	63.6766
10.586	63.6813
10.604	63.6973
10.622	63.7234
10.64	63.7529
10.658	63.7773
10.676	63.7896
10.694	63.7893
10.712	63.7827
10.73	63.7794
10.748	63.7887
10.766	63.8162
10.784	63.8618
10.802	63.9179
10.82	63.9717
10.838	64.0062
10.856	64.0076
10.874	63.9693
10.892	63.8969
10.91	63.8069
10.928	63.7213
10.946	63.6607
10.964	63.6357
10.982	63.6457
11	63.6802
11.018	63.7235
11.036	63.7609
11.054	63.7808
11.072	63.7781
11.09	63.7535
11.108	63.7129
11.126	63.6649
11.144	63.6171
11.162	63.5751
11.18	63.5426
11.198	63.5232
11.216	63.5206
11.234	63.5382
11.252	63.5772
11.27	63.6334
11.288	63.697
11.306	63.7554
11.324	63.7964
11.342	63.8132
11.36	63.8071
11.378	63.7864
11.396	63.7622
11.414	63.7446
11.432	63.7394
11.45	63.747
11.468	63.7631
11.486	63.7815
11.504	63.7958
11.522	63.8014
11.54	63.797
11.558	63.784
11.576	63.7664
11.594	63.7495
11.612	63.7387
11.63	63.7373
11.648	63.7451
11.666	63.7589
11.684	63.7729
11.702	63.7811
11.72	63.779
11.738	63.7671
11.756	63.75
11.774	63.7351
11.792	63.7297
11.81	63.7378
11.828	63.7581
11.846	63.7833
11.864	63.8029
11.882	63.8068
11.9	63.7887
11.918	63.749
11.936	63.6955
11.954	63.641
11.972	63.6009
11.99	63.5872
12.008	63.6055
12.026	63.6525
12.044	63.7164
12.062	63.779
12.08	63.8214
12.098	63.8294
12.116	63.7981
12.134	63.7351
12.152	63.6573
12.17	63.5843
12.188	63.5332
12.206	63.513
12.224	63.5223
12.242	63.5523
12.26	63.5914
12.278	63.6284
12.296	63.6555
12.314	63.6687
12.332	63.668
12.35	63.6558
12.368	63.6364
12.386	63.6138
12.404	63.5913
12.422	63.5705
12.44	63.5516
12.458	63.5341
12.476	63.5166
12.494	63.4985
12.512	63.4796
12.53	63.4608
12.548	63.4438
12.566	63.4302
12.584	63.4223
12.602	63.422
12.62	63.4306
12.638	63.4482
12.656	63.4739
12.674	63.5056
12.692	63.5406
12.71	63.5755
12.728	63.6065
12.746	63.6303
12.764	63.6442
12.782	63.6467
12.8	63.6378
12.818	63.6184
12.836	63.5907
12.854	63.5571
12.872	63.5208
12.89	63.4847
12.908	63.4515
12.926	63.4236
12.944	63.4027
12.962	63.3896
12.98	63.3838
12.998	63.3839
13.016	63.3881
13.034	63.394
13.052	63.3997
13.07	63.4036
13.088	63.4047
13.106	63.4026
13.124	63.3973
13.142	63.3892
13.16	63.3789
13.178	63.3674
13.196	63.3558
13.214	63.3449
13.232	63.3352
13.25	63.327
13.268	63.32
13.286	63.3138
13.304	63.3084
13.322	63.3044
13.34	63.3031
13.358	63.3066
13.376	63.3172
13.394	63.3371
13.412	63.3668
13.43	63.4047
13.448	63.4467
13.466	63.4867
13.484	63.5182
13.502	63.5351
13.52	63.5336
13.538	63.5133
13.556	63.477
13.574	63.4302
13.592	63.3802
13.61	63.3342
13.628	63.2984
13.646	63.2767
13.664	63.2707
13.682	63.2796
13.7	63.3006
13.718	63.3297
13.736	63.3618
13.754	63.3919
13.772	63.4158
13.79	63.43
13.808	63.4328
13.826	63.4235
13.844	63.4043
13.862	63.3787
13.88	63.3519
13.898	63.3302
13.916	63.3195
13.934	63.3239
13.952	63.3453
13.97	63.3824
13.988	63.4306
14.006	63.483
14.024	63.5314
14.042	63.5675
14.06	63.5853
14.078	63.582
14.096	63.559
14.114	63.5211
14.132	63.476
14.15	63.4325
14.168	63.3996
14.186	63.3843
14.204	63.391
14.222	63.4196
14.24	63.4675
14.258	63.5288
14.276	63.5961
14.294	63.6621
14.312	63.7203
14.33	63.7662
14.348	63.798
14.366	63.8157
14.384	63.8226
14.402	63.8236
14.42	63.8242
14.438	63.8298
14.456	63.8447
14.474	63.871
14.492	63.9085
14.51	63.954
14.528	64.0024
14.546	64.0475
14.564	64.0836
14.582	64.1056
14.6	64.1105
14.618	64.0971
14.636	64.067
14.654	64.0238
14.672	63.9722
14.69	63.9171
14.708	63.8632
14.726	63.8141
14.744	63.7715
14.762	63.7358
14.78	63.7051
14.798	63.6767
14.816	63.6472
14.834	63.6127
14.852	63.5696
14.87	63.517
14.888	63.4556
14.906	63.3882
14.924	63.3201
14.942	63.2579
14.96	63.2091
14.978	63.1803
14.996	63.1765
15.014	63.2011
15.032	63.2539
15.05	63.3311
15.068	63.4265
15.086	63.5327
15.104	63.6404
15.122	63.7389
15.14	63.8203
15.158	63.8792
15.176	63.9127
15.194	63.9203
15.212	63.9063
15.23	63.8771
15.248	63.8401
15.266	63.8037
15.284	63.7778
15.302	63.7689
15.32	63.7807
15.338	63.8145
15.356	63.8676
15.374	63.9339
15.392	64.0056
15.41	64.0737
15.428	64.1279
15.446	64.1577
15.464	64.157
15.482	64.122
15.5	64.0515
15.518	63.9502
15.536	63.8257
15.554	63.6865
15.572	63.5437
15.59	63.4099
15.608	63.2932
15.626	63.2
15.644	63.1345
15.662	63.0954
15.68	63.0783
15.698	63.0772
15.716	63.0825
15.734	63.0842
15.752	63.0753
15.77	63.0495
15.788	63.0024
15.806	62.9354
15.824	62.8511
15.842	62.7547
15.86	62.6561
15.878	62.5636
15.896	62.4854
15.914	62.4326
15.932	62.4111
15.95	62.425
15.968	62.477
15.986	62.5658
16.004	62.6876
16.022	62.8379
16.04	63.0079
16.058	63.1892
16.076	63.3739
16.094	63.5508
16.112	63.7105
16.13	63.846
16.148	63.9492
16.166	64.0144
16.184	64.0392
16.202	64.0214
16.22	63.9628
16.238	63.8673
16.256	63.7393
16.274	63.5886
16.292	63.4236
16.31	63.2523
16.328	63.0876
16.346	62.938
16.364	62.8108
16.382	62.7149
16.4	62.6538
16.418	62.6297
16.436	62.643
16.454	62.6901
16.472	62.7679
16.49	62.8685
16.508	62.984
16.526	63.1085
16.544	63.231
16.562	63.3455
16.58	63.447
16.598	63.5295
16.616	63.5927
16.634	63.6357
16.652	63.6612
16.67	63.6724
16.688	63.673
16.706	63.669
16.724	63.6634
16.742	63.6605
16.76	63.6632
16.778	63.6725
16.796	63.689
16.814	63.7115
16.832	63.7392
16.85	63.7693
16.868	63.8001
16.886	63.83
16.904	63.8568
16.922	63.8804
16.94	63.9007
16.958	63.9185
16.976	63.9346
16.994	63.9503
17.012	63.9667
17.03	63.9843
17.048	64.0039
17.066	64.0249
17.084	64.0469
17.102	64.0678
17.12	64.0868
17.138	64.101
17.156	64.1089
17.174	64.1089
17.192	64.0995
17.21	64.0808
17.228	64.0529
17.246	64.0173
17.264	63.9748
17.282	63.9286
17.3	63.8801
17.318	63.8322
17.336	63.7872
17.354	63.7467
17.372	63.7134
17.39	63.6879
17.408	63.6718
17.426	63.665
17.444	63.6677
17.462	63.6785
17.48	63.6968
17.498	63.721
17.516	63.7494
17.534	63.7805
17.552	63.8115
17.57	63.8414
17.588	63.8671
17.606	63.8879
17.624	63.9019
17.642	63.9082
17.66	63.9064
17.678	63.8965
17.696	63.8787
17.714	63.8542
17.732	63.8241
17.75	63.7895
17.768	63.7525
17.786	63.714
17.804	63.6766
17.822	63.6407
17.84	63.6085
17.858	63.58
17.876	63.5562
17.894	63.5369
17.912	63.5223
17.93	63.5115
17.948	63.5046
17.966	63.5004
17.984	63.4986
18.002	63.4982
18.02	63.4989
18.038	63.5002
18.056	63.5019
18.074	63.5039
18.092	63.5059
18.11	63.508
18.128	63.5098
18.146	63.5111
18.164	63.5112
18.182	63.5095
18.2	63.5051
18.218	63.4968
18.236	63.4839
18.254	63.465
18.272	63.4397
18.29	63.4071
18.308	63.3671
18.326	63.32
18.344	63.2663
18.362	63.2074
18.38	63.1445
18.398	63.0802
18.416	63.0163
18.434	62.9553
18.452	62.8999
18.47	62.8521
18.488	62.8145
18.506	62.7884
18.524	62.7754
18.542	62.7763
18.56	62.7907
18.578	62.8188
18.596	62.8589
18.614	62.9106
18.632	62.9708
18.65	63.0391
18.668	63.1119
18.686	63.189
18.704	63.2668
18.722	63.3452
18.74	63.4217
18.758	63.4966
18.776	63.5684
18.794	63.6376
18.812	63.7039
18.83	63.7677
18.848	63.8296
18.866	63.8895
18.884	63.9481
18.902	64.005
18.92	64.0603
18.938	64.1132
18.956	64.1634
18.974	64.2097
18.992	64.251
19.01	64.2864
19.028	64.3144
19.046	64.3342
19.064	64.3444
19.082	64.345
19.1	64.3352
19.118	64.3154
19.136	64.2859
19.154	64.2477
19.172	64.202
19.19	64.1498
19.208	64.0935
19.226	64.0337
19.244	63.9734
19.262	63.9129
19.28	63.855
19.298	63.7997
19.316	63.7489
19.334	63.7024
19.352	63.6609
19.37	63.6242
19.388	63.5919
19.406	63.564
19.424	63.539
19.442	63.517
19.46	63.4966
19.478	63.4775
19.496	63.4587
19.514	63.4399
19.532	63.4208
19.55	63.401
19.568	63.3807
19.586	63.36
19.604	63.3392
19.622	63.3187
19.64	63.2985
19.658	63.2798
19.676	63.2624
19.694	63.2469
19.712	63.2334
19.73	63.2222
19.748	63.2135
19.766	63.207
19.784	63.2029
19.802	63.2009
19.82	63.2008
19.838	63.2025
19.856	63.2054
19.874	63.2096
19.892	63.2146
19.91	63.2205
19.928	63.2272
19.946	63.2346
19.964	63.2427
19.982	63.2515
20	63.2609
20.018	63.2709
20.036	63.2814
20.054	63.2924
20.072	63.3037
20.09	63.3153
20.108	63.3272
20.126	63.3388
20.144	63.3503
20.162	63.3613
20.18	63.3715
20.198	63.3809
20.216	63.3893
20.234	63.3967
20.252	63.4033
20.27	63.4089
20.288	63.4142
20.306	63.4191
20.324	63.4243
20.342	63.43
20.36	63.4365
20.378	63.4448
20.396	63.4546
20.414	63.4668
20.432	63.4813
20.45	63.4983
20.468	63.5179
20.486	63.5399
20.504	63.5638
20.522	63.5896
20.54	63.6159
20.558	63.6432
20.576	63.6699
20.594	63.6954
20.612	63.7195
20.63	63.7407
20.648	63.7593
20.666	63.7742
20.684	63.7853
20.702	63.7927
20.72	63.7962
20.738	63.796
20.756	63.7929
20.774	63.7866
20.792	63.7789
20.81	63.7697
20.828	63.7601
20.846	63.7515
20.864	63.7435
20.882	63.7379
20.9	63.7348
20.918	63.7344
20.936	63.7373
20.954	63.7433
20.972	63.7517
20.99	63.7631
21.008	63.7758
21.026	63.7895
21.044	63.8037
21.062	63.8162
21.08	63.8278
21.098	63.8362
21.116	63.8408
21.134	63.8415
21.152	63.8365
21.17	63.8263
21.188	63.8105
21.206	63.7886
21.224	63.7613
21.242	63.7293
21.26	63.6921
21.278	63.652
21.296	63.6088
21.314	63.5636
21.332	63.5186
21.35	63.473
21.368	63.4293
21.386	63.3882
21.404	63.3498
21.422	63.316
21.44	63.2864
21.458	63.2613
21.476	63.2414
21.494	63.226
21.512	63.2145
21.53	63.2074
21.548	63.203
21.566	63.2003
21.584	63.1997
21.602	63.1985
21.62	63.1971
21.638	63.1944
21.656	63.1885
21.674	63.1801
21.692	63.1682
21.71	63.1522
21.728	63.1324
21.746	63.1088
21.764	63.081
21.782	63.0503
21.8	63.0171
21.818	62.9814
21.836	62.9455
21.854	62.9093
21.872	62.8737
21.89	62.8411
21.908	62.8107
21.926	62.7842
21.944	62.7627
21.962	62.7456
21.98	62.7339
21.998	62.7278
22.016	62.7269
22.034	62.7306
22.052	62.7395
22.07	62.7517
22.088	62.7662
22.106	62.7835
22.124	62.8004
22.142	62.8165
22.16	62.8315
22.178	62.8419
22.196	62.8485
22.214	62.8501
22.232	62.8444
22.25	62.8322
22.268	62.8128
22.286	62.7853
22.304	62.7502
22.322	62.7085
22.34	62.6595
22.358	62.6043
22.376	62.5453
22.394	62.4814
22.412	62.4146
22.43	62.3479
22.448	62.2799
22.466	62.2132
22.484	62.1498
22.502	62.0888
22.52	62.0322
22.538	61.9811
22.556	61.9349
22.574	61.894
22.592	61.8591
22.61	61.8295
22.628	61.8041
22.646	61.7836
22.664	61.7669
22.682	61.7519
22.7	61.7396
22.718	61.7285
22.736	61.717
22.754	61.7058
22.772	61.6937
22.79	61.6793
22.808	61.6631
22.826	61.6452
22.844	61.625
22.862	61.6026
22.88	61.5795
22.898	61.5561
22.916	61.532
22.934	61.5104
22.952	61.4919
22.97	61.4761
22.988	61.4663
23.006	61.4628
23.024	61.4654
23.042	61.4771
23.06	61.4982
23.078	61.5283
23.096	61.5689
23.114	61.6203
23.132	61.6819
23.15	61.7534
23.168	61.8356
23.186	61.9273
23.204	62.0263
23.222	62.1335
23.24	62.2476
23.258	62.3652
23.276	62.487
23.294	62.6122
23.312	62.7366
23.33	62.861
23.348	62.9846
23.366	63.1039
23.384	63.219
23.402	63.33
23.42	63.4341
23.438	63.5313
23.456	63.6218
23.474	63.7046
23.492	63.7791
23.51	63.8459
23.528	63.9054
23.546	63.9575
23.564	64.0022
23.582	64.0408
23.6	64.0736
23.618	64.1002
23.636	64.1219
23.654	64.1394
23.672	64.152
23.69	64.161
23.708	64.1672
23.726	64.1699
23.744	64.17
23.762	64.1681
23.78	64.1638
23.798	64.1576
23.816	64.15
23.834	64.1407
23.852	64.1299
23.87	64.118
23.888	64.105
23.906	64.0907
23.924	64.0756
23.942	64.0596
23.96	64.0426
23.978	64.0246
23.996	64.0054
24.014	63.9851
24.032	63.9639
24.05	63.9419
24.068	63.9191
24.086	63.8953
24.104	63.8706
24.122	63.8455
24.14	63.8189
24.158	63.7892
24.176	63.7576
24.194	63.7231
24.212	63.6828
24.23	63.6367
24.248	63.5854
24.266	63.5264
24.284	63.4583
24.302	63.3825
24.32	63.2973
24.338	63.2014
24.356	63.0957
24.374	62.9793
24.392	62.8506
24.41	62.7094
24.428	62.5563
24.446	62.3917
24.464	62.215
24.482	62.026
24.5	61.8278
24.518	61.6223
24.536	61.4069
24.554	61.1854
24.572	60.9631
24.59	60.7375
24.608	60.5099
24.626	60.2876
24.644	60.0734
24.662	59.8632
24.68	59.6635
24.698	59.4802
24.716	59.3095
24.734	59.1538
24.752	59.0177
24.77	58.9022
24.788	58.8055
24.806	58.7289
24.824	58.6736
24.842	58.6396
24.86	58.625
24.878	58.6278
24.896	58.6506
24.914	58.6912
24.932	58.7437
24.95	58.806
24.968	58.8822
24.986	58.9649
25.004	59.0462
25.022	59.1311
25.04	59.2167
25.058	59.294
25.076	59.3596
25.094	59.4188
25.112	59.4644
25.13	59.4892
25.148	59.4962
25.166	59.485
25.184	59.4513
25.202	59.3925
25.22	59.3109
25.238	59.2064
25.256	59.0789
25.274	58.9261
25.292	58.7507
25.31	58.5574
25.328	58.3478
25.346	58.1177
25.364	57.8745
25.382	57.6267
25.4	57.3707
25.418	57.1069
25.436	56.8448
25.454	56.5917
25.472	56.34
25.49	56.0957
25.508	55.8676
25.526	55.6568
25.544	55.459
25.562	55.2815
25.58	55.1311
25.598	55.0038
25.616	54.9007
25.634	54.8271
25.652	54.7865
25.67	54.7751
25.688	54.7949
25.706	54.8485
25.724	54.936
25.742	55.0562
25.76	55.2101
25.778	55.3983
25.796	55.6203
25.814	55.876
25.832	56.1656
25.85	56.4893
25.868	56.8467
25.886	57.2376
25.904	57.6617
25.922	58.1186
25.94	58.6083
25.958	59.1311
25.976	59.687
25.994	60.2772
26.012	60.9005
26.03	61.5548
26.048	62.2386
26.066	62.955
26.084	63.7008
26.102	64.4712
26.12	65.2645
26.138	66.0868
26.156	66.9295
26.174	67.7818
26.192	68.6431
26.21	69.5216
26.228	70.402
26.246	71.2686
26.264	72.1261
26.282	72.9798
26.3	73.8098
26.318	74.5965
26.336	75.3516
26.354	76.0747
26.372	76.7455
26.39	77.3456
26.408	77.8891
26.426	78.3723
26.444	78.7793
26.462	79.0965
26.48	79.335
26.498	79.4923
26.516	79.56
26.534	79.5309
26.552	79.4081
26.57	79.1956
26.588	78.8966
26.606	78.5108
26.624	78.0306
26.642	77.4693
26.66	76.8428
26.678	76.1564
26.696	75.3927
26.714	74.5731
26.732	73.7227
26.75	72.8503
26.768	71.9315
26.786	70.9931
26.804	70.0653
26.822	69.1602
26.84	68.251
26.858	67.3617
26.876	66.5203
26.894	65.7386
26.912	64.9932
26.93	64.3016
26.948	63.6842
26.966	63.1501
26.984	62.6803
27.002	62.2893
27.02	61.9947
27.028	61.9095