File: Bakgrunnsmateriale/MATLAB/FTIR/ftir_data/subAa/Mapping_121/BZ1503107-1_t81_cm-1.asc
PE IR       SPECTRUM    SPECTRUM    ASCII       PEDS        1.60
  -1
BZ6926~1.ASC
17/04/07
19:53:20.00
17/04/07
19:53:20.00
tln
$BZ1503107-1_t0081$<tbV0>[5.2,5.2,8.0,0.0,27,1,0]
370
64

2002,4.07
MIRTGS : RIGHTBACK : INTERNAL 2
MIR : ON : INTERNAL 2
OPTKBR

0.200000
8
8.000000
FILLER
RATIO
SPECTRUM
UNLOCKED 256

DOUBLE
64
COMBINED
1
0
0

1.000000
RATIO

1
0
TRUE
51149
0
LEFT NOT FITTED RIGHT NOT FITTED 0
NONE
NONE
15600
12
4.427000
51148
TRUE
1 0 8 72 0 0 0 0

15798

#HDR
-1
-1
#GR
CM-1
%T
2.38419e-05
0.0
5000
-1.000000
4631
8
71.5462
47.4423
#DATA
5000	66.1013
4996	65.702
4992	65.4585
4988	65.6453
4984	65.8083
4980	64.801
4976	64.2374
4972	64.7593
4968	65.2039
4964	66.021
4960	66.4188
4956	65.0728
4952	62.9093
4948	61.8392
4944	62.7186
4940	64.2437
4936	64.7587
4932	64.1584
4928	63.6974
4924	64.4056
4920	65.3125
4916	65.3199
4912	65.1283
4908	65.2537
4904	65.3057
4900	65.3294
4896	65.4877
4892	65.6004
4888	65.5499
4884	65.3272
4880	65.1601
4876	65.1063
4872	64.9515
4868	64.6853
4864	64.5899
4860	64.7981
4856	65.0199
4852	65.0246
4848	64.7959
4844	64.5044
4840	64.549
4836	64.8778
4832	64.9632
4828	64.7669
4824	64.5874
4820	64.6396
4816	64.8733
4812	64.8558
4808	64.5633
4804	64.4519
4800	64.5064
4796	64.5579
4792	64.7009
4788	64.8156
4784	64.8138
4780	64.7831
4776	64.7336
4772	64.8141
4768	65.0878
4764	65.2154
4760	65.061
4756	64.8754
4752	64.7761
4748	64.6187
4744	64.5433
4740	64.6302
4736	64.5853
4732	64.5153
4728	64.7805
4724	65.1504
4720	65.1786
4716	64.9723
4712	64.776
4708	64.6525
4704	64.5938
4700	64.6801
4696	64.8277
4692	64.8784
4688	64.8527
4684	64.7289
4680	64.5165
4676	64.3193
4672	64.2941
4668	64.4739
4664	64.6707
4660	64.929
4656	65.2526
4652	65.2642
4648	65.0251
4644	64.8435
4640	64.844
4636	64.9776
4632	64.9981
4628	64.9855
4624	65.0676
4620	65.0494
4616	64.9625
4612	65.0378
4608	65.1192
4604	64.9467
4600	64.7456
4596	64.8561
4592	65.1214
4588	65.206
4584	65.0868
4580	64.9956
4576	65.1731
4572	65.2627
4568	64.9877
4564	64.7958
4560	64.86
4556	64.958
4552	64.9062
4548	64.7875
4544	64.6982
4540	64.5741
4536	64.5839
4532	64.6345
4528	64.6588
4524	64.8467
4520	65.0137
4516	65.0272
4512	65.059
4508	65.2325
4504	65.4519
4500	65.6114
4496	65.5624
4492	65.283
4488	65.1355
4484	65.1927
4480	65.0406
4476	64.7707
4472	64.5982
4468	64.5221
4464	64.1471
4460	63.6655
4456	64.2098
4452	66.6532
4448	70.114
4444	65.1223
4440	50.9682
4436	49.5224
4432	64.5794
4428	71.5087
4424	64.9198
4420	63.3272
4416	67.8108
4412	69.4513
4408	67.3502
4404	64.9876
4400	63.8721
4396	64.0495
4392	64.1776
4388	64.2019
4384	64.3335
4380	64.4677
4376	64.4595
4372	64.5659
4368	65.0072
4364	65.2668
4360	65.2871
4356	65.4824
4352	65.7392
4348	65.6604
4344	65.4562
4340	65.4676
4336	65.4468
4332	65.1462
4328	64.8726
4324	64.9137
4320	65.0615
4316	65.0678
4312	64.9707
4308	64.9114
4304	64.8904
4300	64.8559
4296	64.7907
4292	64.8638
4288	65.0528
4284	65.0252
4280	64.9152
4276	65.0135
4272	65.131
4268	65.0058
4264	64.8226
4260	64.8272
4256	64.9107
4252	64.9338
4248	64.9075
4244	64.9503
4240	65.0503
4236	65.0259
4232	64.8672
4228	64.8356
4224	65.0589
4220	65.1689
4216	64.9971
4212	64.851
4208	64.8727
4204	64.9843
4200	65.0994
4196	65.1579
4192	65.1965
4188	65.1811
4184	65.0018
4180	64.8529
4176	64.884
4172	65.0298
4168	65.2111
4164	65.1644
4160	64.9339
4156	64.8468
4152	64.8472
4148	64.7228
4144	64.6169
4140	64.7004
4136	64.7829
4132	64.8366
4128	64.9524
4124	65.0061
4120	64.9276
4116	64.8301
4112	64.8102
4108	64.8028
4104	64.8048
4100	64.8576
4096	64.9209
4092	64.9261
4088	64.8394
4084	64.8621
4080	64.9517
4076	64.8895
4072	64.8216
4068	64.795
4064	64.7662
4060	64.8604
4056	64.974
4052	65.0036
4048	64.9912
4044	64.8964
4040	64.8452
4036	64.914
4032	64.9919
4028	65.0354
4024	65.0241
4020	64.9981
4016	64.9739
4012	64.9704
4008	65.0184
4004	65.0439
4000	64.9584
3996	64.7903
3992	64.8113
3988	64.9905
3984	64.9768
3980	64.8273
3976	64.813
3972	64.909
3968	64.9114
3964	64.8851
3960	64.977
3956	65.0055
3952	64.9363
3948	65.0365
3944	65.1302
3940	64.982
3936	64.9082
3932	64.9534
3928	64.882
3924	64.7576
3920	64.7178
3916	64.8564
3912	65.0575
3908	65.1241
3904	65.0756
3900	64.9404
3896	64.8003
3892	64.8863
3888	65.1236
3884	65.1638
3880	65.0497
3876	65.0197
3872	65.0807
3868	65.0932
3864	65.0176
3860	65.0699
3856	65.1986
3852	65.1014
3848	64.8856
3844	64.8445
3840	65.0057
3836	65.1201
3832	65.1158
3828	65.1671
3824	65.1989
3820	65.0885
3816	64.9789
3812	64.949
3808	64.9823
3804	65.0836
3800	65.1494
3796	65.1854
3792	65.2445
3788	65.2962
3784	65.2648
3780	65.1507
3776	65.091
3772	65.0847
3768	64.9937
3764	64.8495
3760	64.8295
3756	64.9447
3752	65.0946
3748	65.1369
3744	65.071
3740	65.0529
3736	65.056
3732	65.0121
3728	64.9367
3724	64.9292
3720	65.0284
3716	65.0448
3712	64.9153
3708	64.8649
3704	64.9964
3700	65.0891
3696	65.0834
3692	65.1032
3688	65.0777
3684	64.9992
3680	64.9761
3676	65.0445
3672	65.1304
3668	65.1127
3664	65.0225
3660	64.9774
3656	65.0062
3652	65.0268
3648	64.9638
3644	64.9224
3640	64.9867
3636	65.0335
3632	64.968
3628	64.8393
3624	64.8149
3620	64.9305
3616	64.976
3612	64.933
3608	64.9891
3604	65.0976
3600	65.1023
3596	65.0427
3592	64.9846
3588	64.9298
3584	64.9303
3580	64.9732
3576	65.0084
3572	65.0552
3568	65.0952
3564	65.0893
3560	65.0553
3556	65.0676
3552	65.0975
3548	65.0583
3544	65.0025
3540	64.9756
3536	64.9728
3532	65.0085
3528	65.0443
3524	65.0437
3520	65.0642
3516	65.0867
3512	65.0495
3508	65.0079
3504	65.0112
3500	64.9986
3496	64.9555
3492	64.9584
3488	65.0198
3484	65.0426
3480	64.9915
3476	64.9927
3472	65.0663
3468	65.0939
3464	65.0428
3460	64.9728
3456	64.9987
3452	65.049
3448	65.0451
3444	65.071
3440	65.0256
3436	64.8656
3432	64.7533
3428	64.763
3424	64.8485
3420	64.9395
3416	64.9761
3412	64.9323
3408	64.8551
3404	64.8122
3400	64.87
3396	65.0139
3392	65.0674
3388	64.9953
3384	64.9518
3380	64.9401
3376	64.9027
3372	64.8989
3368	64.932
3364	64.9369
3360	64.9493
3356	64.9592
3352	64.8919
3348	64.8413
3344	64.8963
3340	64.9614
3336	64.9276
3332	64.8618
3328	64.8696
3324	64.8807
3320	64.8069
3316	64.7259
3312	64.7665
3308	64.8545
3304	64.885
3300	64.8875
3296	64.8338
3292	64.7822
3288	64.8222
3284	64.8796
3280	64.8701
3276	64.8383
3272	64.8835
3268	64.9286
3264	64.8572
3260	64.7559
3256	64.7554
3252	64.7871
3248	64.8219
3244	64.8794
3240	64.8874
3236	64.8907
3232	64.9269
3228	64.9369
3224	64.9019
3220	64.8735
3216	64.9011
3212	64.945
3208	64.9885
3204	65.0117
3200	64.9685
3196	64.9492
3192	64.9176
3188	64.8242
3184	64.82
3180	64.9054
3176	64.9238
3172	64.863
3168	64.8638
3164	64.9306
3160	64.9552
3156	64.9483
3152	64.9723
3148	65.0233
3144	64.9994
3140	64.8296
3136	64.6858
3132	64.7211
3128	64.8435
3124	64.9225
3120	64.8954
3116	64.837
3112	64.8767
3108	64.9341
3104	64.9039
3100	64.8414
3096	64.7943
3092	64.7687
3088	64.7552
3084	64.7981
3080	64.8873
3076	64.9219
3072	64.96
3068	65.0004
3064	64.9454
3060	64.8955
3056	64.9399
3052	65.0097
3048	65.029
3044	64.983
3040	64.8809
3036	64.7584
3032	64.7502
3028	64.8662
3024	64.9177
3020	64.846
3016	64.7446
3012	64.685
3008	64.6821
3004	64.723
3000	64.7515
2996	64.7944
2992	64.9148
2988	64.9563
2984	64.8699
2980	64.8629
2976	64.8894
2972	64.8569
2968	64.8467
2964	64.8136
2960	64.7523
2956	64.6907
2952	64.6529
2948	64.6831
2944	64.7226
2940	64.7568
2936	64.7878
2932	64.7831
2928	64.7739
2924	64.7772
2920	64.7469
2916	64.698
2912	64.697
2908	64.7207
2904	64.7189
2900	64.6934
2896	64.7306
2892	64.7972
2888	64.7733
2884	64.7159
2880	64.7063
2876	64.722
2872	64.7104
2868	64.6606
2864	64.6656
2860	64.7093
2856	64.678
2852	64.6241
2848	64.628
2844	64.6759
2840	64.7298
2836	64.7439
2832	64.7232
2828	64.7283
2824	64.7751
2820	64.8092
2816	64.8382
2812	64.9036
2808	64.9281
2804	64.8753
2800	64.7848
2796	64.7039
2792	64.7128
2788	64.756
2784	64.7618
2780	64.765
2776	64.7376
2772	64.6928
2768	64.713
2764	64.7712
2760	64.7894
2756	64.7566
2752	64.7202
2748	64.7044
2744	64.7088
2740	64.7517
2736	64.7949
2732	64.7897
2728	64.7791
2724	64.7861
2720	64.7754
2716	64.7689
2712	64.7852
2708	64.7927
2704	64.7774
2700	64.75
2696	64.695
2692	64.6124
2688	64.6251
2684	64.7528
2680	64.8347
2676	64.8242
2672	64.7839
2668	64.7168
2664	64.6485
2660	64.624
2656	64.6274
2652	64.6402
2648	64.6355
2644	64.6094
2640	64.6138
2636	64.6578
2632	64.6822
2628	64.6993
2624	64.7222
2620	64.6923
2616	64.6072
2612	64.5424
2608	64.5728
2604	64.6326
2600	64.6355
2596	64.6648
2592	64.7343
2588	64.6948
2584	64.6091
2580	64.6649
2576	64.7574
2572	64.7275
2568	64.637
2564	64.5763
2560	64.5985
2556	64.6788
2552	64.7137
2548	64.6897
2544	64.6704
2540	64.6591
2536	64.6423
2532	64.654
2528	64.6754
2524	64.6709
2520	64.6382
2516	64.6092
2512	64.5876
2508	64.591
2504	64.6414
2500	64.6589
2496	64.6458
2492	64.6402
2488	64.635
2484	64.6219
2480	64.5816
2476	64.5385
2472	64.499
2468	64.5034
2464	64.5574
2460	64.6273
2456	64.6826
2452	64.6579
2448	64.6215
2444	64.6009
2440	64.5499
2436	64.5579
2432	64.6175
2428	64.6104
2424	64.5736
2420	64.5739
2416	64.6065
2412	64.6332
2408	64.6184
2404	64.6278
2400	64.6891
2396	64.6908
2392	64.5974
2388	64.5572
2384	64.5995
2380	64.5819
2376	64.484
2372	64.437
2368	64.4789
2364	64.4873
2360	64.4656
2356	64.4741
2352	64.4577
2348	64.4238
2344	64.4391
2340	64.4742
2336	64.5039
2332	64.5674
2328	64.5928
2324	64.5489
2320	64.4976
2316	64.467
2312	64.5015
2308	64.5357
2304	64.4969
2300	64.4206
2296	64.3469
2292	64.3425
2288	64.4005
2284	64.4486
2280	64.4937
2276	64.5264
2272	64.5121
2268	64.5107
2264	64.5608
2260	64.5905
2256	64.5331
2252	64.4384
2248	64.4004
2244	64.4011
2240	64.3893
2236	64.4139
2232	64.5031
2228	64.5746
2224	64.5359
2220	64.4484
2216	64.4441
2212	64.4856
2208	64.5088
2204	64.4958
2200	64.4344
2196	64.3607
2192	64.3113
2188	64.3437
2184	64.4353
2180	64.433
2176	64.3312
2172	64.299
2168	64.3656
2164	64.3923
2160	64.3627
2156	64.3683
2152	64.346
2148	64.3141
2144	64.3688
2140	64.4267
2136	64.458
2132	64.4866
2128	64.4983
2124	64.4728
2120	64.4265
2116	64.405
2112	64.4231
2108	64.4586
2104	64.4427
2100	64.3993
2096	64.417
2092	64.4818
2088	64.4816
2084	64.3928
2080	64.3612
2076	64.4137
2072	64.4478
2068	64.4246
2064	64.3514
2060	64.3091
2056	64.3247
2052	64.3055
2048	64.2625
2044	64.246
2040	64.2025
2036	64.1561
2032	64.1711
2028	64.2438
2024	64.3357
2020	64.3876
2016	64.4051
2012	64.3813
2008	64.3061
2004	64.2436
2000	64.2272
1996	64.2622
1992	64.3022
1988	64.2913
1984	64.2723
1980	64.2959
1976	64.3117
1972	64.2735
1968	64.2394
1964	64.2239
1960	64.2057
1956	64.2059
1952	64.183
1948	64.1457
1944	64.1877
1940	64.2594
1936	64.2609
1932	64.2136
1928	64.1945
1924	64.2135
1920	64.2154
1916	64.2024
1912	64.2199
1908	64.2506
1904	64.2342
1900	64.1646
1896	64.1094
1892	64.1495
1888	64.1878
1884	64.1266
1880	64.095
1876	64.14
1872	64.1878
1868	64.1848
1864	64.1495
1860	64.1482
1856	64.1577
1852	64.1399
1848	64.0999
1844	64.0552
1840	64.0465
1836	64.0689
1832	64.0873
1828	64.0817
1824	64.0639
1820	64.1003
1816	64.1592
1812	64.1623
1808	64.1146
1804	64.0541
1800	64.0353
1796	64.0626
1792	64.074
1788	64.069
1784	64.0645
1780	64.0638
1776	64.1032
1772	64.1135
1768	64.0709
1764	64.0607
1760	64.0606
1756	63.9879
1752	63.8967
1748	63.902
1744	63.9094
1740	63.852
1736	63.8289
1732	63.8534
1728	63.8823
1724	63.8883
1720	63.9267
1716	63.9938
1712	63.9594
1708	63.8536
1704	63.7956
1700	63.7963
1696	63.8489
1692	63.9577
1688	64.0206
1684	63.9803
1680	63.913
1676	63.8235
1672	63.776
1668	63.8706
1664	63.9558
1660	63.9254
1656	63.8699
1652	63.831
1648	63.8191
1644	63.8286
1640	63.8179
1636	63.8224
1632	63.9117
1628	64.0264
1624	64.0695
1620	63.9985
1616	63.8586
1612	63.7714
1608	63.7807
1604	63.8323
1600	63.8651
1596	63.8099
1592	63.7017
1588	63.7354
1584	63.8552
1580	63.8227
1576	63.7046
1572	63.6804
1568	63.7021
1564	63.6916
1560	63.7093
1556	63.7454
1552	63.7708
1548	63.8126
1544	63.8415
1540	63.833
1536	63.8018
1532	63.7941
1528	63.7966
1524	63.7864
1520	63.7569
1516	63.7274
1512	63.7717
1508	63.8458
1504	63.8408
1500	63.7726
1496	63.6785
1492	63.6111
1488	63.6718
1484	63.7662
1480	63.7534
1476	63.6905
1472	63.6623
1468	63.6362
1464	63.6009
1460	63.608
1456	63.6312
1452	63.6695
1448	63.7068
1444	63.6962
1440	63.7152
1436	63.7547
1432	63.7508
1428	63.7506
1424	63.7761
1420	63.7509
1416	63.7007
1412	63.6653
1408	63.603
1404	63.5749
1400	63.6198
1396	63.6764
1392	63.6853
1388	63.6301
1384	63.5736
1380	63.5768
1376	63.5885
1372	63.591
1368	63.5744
1364	63.5047
1360	63.4531
1356	63.4882
1352	63.5545
1348	63.5527
1344	63.5389
1340	63.6025
1336	63.6695
1332	63.6444
1328	63.5925
1324	63.585
1320	63.5649
1316	63.5449
1312	63.566
1308	63.5825
1304	63.5579
1300	63.5023
1296	63.4597
1292	63.4866
1288	63.5329
1284	63.5019
1280	63.4683
1276	63.4962
1272	63.503
1268	63.4199
1264	63.325
1260	63.3542
1256	63.4585
1252	63.4645
1248	63.3838
1244	63.3721
1240	63.3793
1236	63.369
1232	63.4301
1228	63.5034
1224	63.4929
1220	63.3769
1216	63.2569
1212	63.2344
1208	63.2609
1204	63.3002
1200	63.3784
1196	63.4637
1192	63.4542
1188	63.3926
1184	63.3718
1180	63.3234
1176	63.2689
1172	63.2583
1168	63.2689
1164	63.2791
1160	63.2228
1156	63.1407
1152	63.191
1148	63.3703
1144	63.42
1140	63.3195
1136	63.2927
1132	63.2891
1128	63.2402
1124	63.2568
1120	63.2579
1116	63.1693
1112	63.113
1108	63.1367
1104	63.208
1100	63.2404
1096	63.2029
1092	63.165
1088	63.1979
1084	63.2568
1080	63.2559
1076	63.2528
1072	63.3002
1068	63.3515
1064	63.347
1060	63.2935
1056	63.2846
1052	63.3052
1048	63.2962
1044	63.2785
1040	63.2505
1036	63.209
1032	63.1696
1028	63.1217
1024	63.0744
1020	63.0908
1016	63.115
1012	63.116
1008	63.1916
1004	63.2999
1000	63.3252
996	 63.2661
992	 63.1814
988	 63.1742
984	 63.2691
980	 63.3236
976	 63.277
972	 63.1785
968	 63.1119
964	 63.1485
960	 63.2542
956	 63.3262
952	 63.3473
948	 63.357
944	 63.3188
940	 63.242
936	 63.1501
932	 63.1146
928	 63.2024
924	 63.3052
920	 63.3405
916	 63.3291
912	 63.304
908	 63.3327
904	 63.3675
900	 63.2487
896	 63.105
892	 63.0894
888	 63.1379
884	 63.2001
880	 63.1958
876	 63.2043
872	 63.3124
868	 63.2713
864	 63.0567
860	 62.9954
856	 63.0929
852	 63.0313
848	 62.8744
844	 62.9277
840	 63.1269
836	 63.2535
832	 63.2853
828	 63.3408
824	 63.3914
820	 63.2588
816	 63.0009
812	 62.8854
808	 62.9907
804	 63.1042
800	 63.0072
796	 62.7964
792	 62.8208
788	 63.0105
784	 62.9982
780	 62.9344
776	 62.956
772	 62.8729
768	 62.7227
764	 62.6595
760	 62.7391
756	 62.855
752	 62.9034
748	 62.8695
744	 62.799
740	 62.7998
736	 62.8145
732	 62.7863
728	 62.7617
724	 62.7274
720	 62.7348
716	 62.7974
712	 62.7948
708	 62.7342
704	 62.7868
700	 62.8323
696	 62.6709
692	 62.5722
688	 62.7357
684	 63.0184
680	 63.1831
676	 63.0934
672	 62.9165
668	 62.6525
664	 62.5487
660	 62.8242
656	 62.9108
652	 62.7972
648	 62.8077
644	 62.6997
640	 62.2239
636	 61.8538
632	 62.0702
628	 62.3105
624	 62.3094
620	 62.4782
616	 62.6661
612	 62.6714
608	 62.7066
604	 62.7147
600	 62.3932
596	 61.9078
592	 61.8064
588	 62.0451
584	 62.2583
580	 62.2636
576	 62.2909
572	 62.5446
568	 62.4836
564	 62.3243
560	 62.8701
556	 63.437
552	 63.2681
548	 63.1026
544	 63.477
540	 63.9701
536	 64.0905
532	 63.5767
528	 63.1297
524	 62.9649
520	 62.0982
516	 61.0946
512	 60.7187
508	 60.9498
504	 61.9347
500	 62.601
496	 62.5423
492	 62.9917
488	 64.0669
484	 64.7304
480	 64.6417
476	 63.7194
472	 61.9803
468	 61.0422
464	 61.6189
460	 62.453
456	 62.6067
452	 61.8188
448	 60.9882
444	 61.3702
440	 62.0693
436	 61.7358
432	 60.4979
428	 59.8654
424	 61.0963
420	 61.9603
416	 61.6931
412	 61.9764
408	 61.8864
404	 60.7115
400	 58.0379
396	 54.4864
392	 51.0357
388	 53.8238
384	 64.2213
380	 66.0177
376	 59.7613
372	 62.5405
370	 68.1833