File: Bakgrunnsmateriale/MATLAB/FTIR/ftir_data/subAa/Mapping_121/BZ1503107-1_t118.asc
PE IR       SPECTRUM    SPECTRUM    ASCII       PEDS        1.60
  -1
BZEAB2~1.ASC
17/04/07
22:57:36.00
17/04/07
22:58:02.00
tln
$BZ1503107-1_t0118$<tbV0>[-5.2,13.0,8.0,0.0,27,1,0]
27.028
64

2002,4.07
MIRTGS : RIGHTBACK : INTERNAL 2
MIR : ON : INTERNAL 2
OPTKBR

0.200000
8
8.000000
FILLER
RATIO
SPECTRUM
UNLOCKED 256

DOUBLE
64
COMBINED
1
0
0

0.002000
RATIO

1
0
TRUE
51149
0
LEFT NOT FITTED RIGHT NOT FITTED 0
NONE
NONE
15600
12
4.427000
51148
TRUE
1 0 8 72 0 0 0 0

15798

#HDR
-1
-1
#GR
µM
%T
2.38419e-05
0.0
2.000000
0.002000
12515
8
73.8235
42.4046
#DATA
2.000000	 64.0428
2.018000	 65.5869
2.036000	 65.0417
2.054000	 65.2322
2.072000	 64.5226
2.090000	 64.8223
2.108000	 64.6199
2.126000	 64.6152
2.144000	 64.9239
2.162000	 64.9707
2.180000	 64.9507
2.198000	 65.1381
2.216000	 65.6237
2.234000	 64.7891
2.252000	 60.5299
2.270000	 66.9822
2.288000	 65.555
2.306000	 65.209
2.324000	 64.7428
2.342000	 64.8413
2.360000	 64.8624
2.378000	 65.2002
2.396000	 64.6472
2.414000	 64.7303
2.432000	 64.5709
2.450000	 64.8209
2.468000	 64.8354
2.486000	 64.7195
2.504000	 64.9747
2.522000	 64.9623
2.540000	 65.0726
2.558000	 64.8895
2.576000	 64.8633
2.594000	 65.2232
2.612000	 65.035
2.630000	 64.8641
2.648000	 65.0379
2.666000	 64.8759
2.684000	 65.0623
2.702000	 65.1277
2.720000	 64.8632
2.738000	 64.9292
2.756000	 65.09
2.774000	 64.9568
2.792000	 65.0052
2.810000	 64.9231
2.828000	 64.9216
2.846000	 64.7806
2.864000	 64.9281
2.882000	 65.0079
2.900000	 64.7378
2.918000	 65.038
2.936000	 64.8201
2.954000	 64.7026
2.972000	 64.8713
2.990000	 64.9631
3.008000	 64.8641
3.026000	 64.788
3.044000	 64.7911
3.062000	 64.7869
3.080000	 64.7059
3.098000	 64.7366
3.116000	 64.7846
3.134000	 64.9426
3.152000	 64.8765
3.170000	 64.8632
3.188000	 64.7273
3.206000	 64.88
3.224000	 64.6593
3.242000	 64.8362
3.260000	 64.7076
3.278000	 64.7426
3.296000	 64.8301
3.314000	 64.6834
3.332000	 64.8418
3.350000	 64.7111
3.368000	 64.5695
3.386000	 64.5318
3.404000	 64.6766
3.422000	 64.4015
3.440000	 64.3763
3.458000	 64.5022
3.476000	 64.6274
3.494000	 64.4158
3.512000	 64.4513
3.530000	 64.4353
3.548000	 64.5279
3.566000	 64.6942
3.584000	 64.621
3.602000	 64.6576
3.620000	 64.5953
3.638000	 64.6143
3.656000	 64.6459
3.674000	 64.6971
3.692000	 64.5466
3.710000	 64.4976
3.728000	 64.6137
3.746000	 64.4203
3.764000	 64.4244
3.782000	 64.4715
3.800000	 64.4742
3.818000	 64.5018
3.836000	 64.5575
3.854000	 64.3924
3.872000	 64.4332
3.890000	 64.476
3.908000	 64.4864
3.926000	 64.4943
3.944000	 64.4509
3.962000	 64.3949
3.980000	 64.5154
3.998000	 64.3633
4.016000	 64.4765
4.034000	 64.4497
4.052000	 64.4298
4.070000	 64.4876
4.088000	 64.3372
4.106000	 64.3508
4.124000	 64.2827
4.141999	 64.2861
4.160000	 64.3357
4.178000	 64.3747
4.196000	 64.2856
4.214000	 64.1688
4.232000	 64.1807
4.250000	 64.2206
4.268000	 64.2122
4.286000	 64.2714
4.304000	 64.194
4.322000	 64.2415
4.340000	 64.2731
4.358000	 64.2421
4.375999	 64.1392
4.394000	 64.1554
4.412000	 64.1803
4.430000	 64.2086
4.448000	 64.1578
4.466000	 64.2681
4.484000	 64.1659
4.502000	 64.1152
4.520000	 64.2819
4.538000	 64.1838
4.556000	 64.1356
4.574000	 64.1542
4.592000	 64.2291
4.609999	 64.14
4.628000	 64.198
4.646000	 64.167
4.664000	 64.1803
4.682000	 64.1237
4.700000	 64.1426
4.718000	 64.042
4.736000	 64.1103
4.754000	 64.0777
4.772000	 64.0762
4.790000	 64.0486
4.808000	 63.9811
4.826000	 64.0021
4.843999	 64.0349
4.862000	 64.0908
4.880000	 64.005
4.898000	 63.9551
4.916000	 63.9555
4.934000	 63.8731
4.952000	 63.8993
4.970000	 63.948
4.988000	 63.926
5.006000	 63.9444
5.024000	 63.918
5.042000	 63.8393
5.060000	 63.8499
5.077999	 63.8975
5.096000	 63.8974
5.114000	 63.9151
5.132000	 63.9036
5.150000	 63.9295
5.168000	 63.9854
5.186000	 63.8928
5.204000	 63.8653
5.222000	 63.8467
5.240000	 63.884
5.258000	 63.8839
5.276000	 63.8476
5.294000	 63.8205
5.312000	 63.7842
5.330000	 63.758
5.348000	 63.776
5.366000	 63.7894
5.384000	 63.8067
5.402000	 63.78
5.420000	 63.708
5.438000	 63.6983
5.456000	 63.7542
5.474000	 63.7187
5.492000	 63.7576
5.510000	 63.8064
5.528000	 63.8049
5.546000	 63.8117
5.564000	 63.7593
5.582000	 63.6471
5.600000	 63.6274
5.618000	 63.7335
5.636000	 63.6766
5.654000	 63.5613
5.672000	 63.4968
5.690000	 63.5429
5.708000	 63.5557
5.726000	 63.4547
5.744000	 63.3709
5.762000	 63.2917
5.780000	 63.2865
5.798000	 63.3678
5.816000	 63.4841
5.834000	 63.518
5.852000	 63.4499
5.870000	 63.4724
5.888000	 63.5044
5.906000	 63.4821
5.923999	 63.5038
5.942000	 63.4869
5.960000	 63.4195
5.978000	 63.4454
5.996000	 63.5351
6.014000	 63.5594
6.032000	 63.4988
6.050000	 63.417
6.068000	 63.3922
6.086000	 63.4464
6.104000	 63.4646
6.122000	 63.4942
6.140000	 63.4549
6.158000	 63.3827
6.176000	 63.4114
6.194000	 63.4137
6.212000	 63.3598
6.230000	 63.3033
6.248000	 63.2924
6.266000	 63.3564
6.284000	 63.3676
6.302000	 63.2878
6.320000	 63.225
6.338000	 63.1956
6.356000	 63.1792
6.374000	 63.2119
6.392000	 63.2886
6.410000	 63.2785
6.428000	 63.2013
6.446000	 63.1481
6.464000	 63.1708
6.482000	 63.1956
6.500000	 63.182
6.518000	 63.168
6.536000	 63.1754
6.554000	 63.2284
6.572000	 63.2674
6.590000	 63.2923
6.608000	 63.2844
6.626000	 63.2571
6.644000	 63.2749
6.662000	 63.2576
6.680000	 63.1398
6.698000	 63.1144
6.716000	 63.1782
6.734000	 63.1648
6.752000	 63.1472
6.770000	 63.1317
6.788000	 63.1008
6.806000	 63.0884
6.824000	 63.072
6.842000	 63.0571
6.860000	 63.0818
6.878000	 63.1296
6.896000	 63.1353
6.914000	 63.0855
6.932000	 63.0439
6.950000	 63.037
6.968000	 63.0272
6.986000	 62.9948
7.004000	 62.9668
7.022000	 62.9862
7.040000	 63.034
7.058000	 63.0357
7.076000	 62.9964
7.094000	 62.9979
7.112000	 63.0146
7.130000	 62.9709
7.148000	 62.9417
7.166000	 62.983
7.184000	 62.9946
7.202000	 62.9475
7.220000	 62.9325
7.238000	 62.9767
7.256000	 63.0162
7.274000	 63.0316
7.292000	 63.0426
7.310000	 63.0346
7.328000	 63.0231
7.346000	 63.0304
7.364000	 63.011
7.382000	 62.9685
7.400000	 62.9706
7.418000	 63.0006
7.436000	 62.9973
7.454000	 62.9784
7.472000	 62.9794
7.490000	 62.9813
7.508000	 62.9721
7.526000	 62.9811
7.544000	 63.0255
7.562000	 63.0794
7.580000	 63.0999
7.598000	 63.0733
7.616000	 63.023
7.634000	 62.9667
7.652000	 62.9164
7.670000	 62.9004
7.688000	 62.9185
7.706000	 62.919
7.724000	 62.8828
7.742000	 62.8583
7.760000	 62.8828
7.778000	 62.9291
7.796000	 62.9488
7.814000	 62.9349
7.832000	 62.9165
7.850000	 62.9093
7.868000	 62.8992
7.886000	 62.8642
7.904000	 62.7886
7.922000	 62.6751
7.940000	 62.5656
7.958000	 62.5168
7.976000	 62.5402
7.994000	 62.5993
8.012000	 62.6664
8.030000	 62.7363
8.048000	 62.7851
8.065999	 62.7839
8.084000	 62.7522
8.102000	 62.7332
8.120000	 62.7261
8.138000	 62.7053
8.155999	 62.681
8.173999	 62.6836
8.192000	 62.7052
8.210000	 62.716
8.228000	 62.7174
8.246000	 62.7298
8.263999	 62.7475
8.282000	 62.754
8.300000	 62.7575
8.318000	 62.7737
8.336000	 62.7909
8.353999	 62.785
8.372000	 62.7558
8.390000	 62.7255
8.408000	 62.7123
8.426000	 62.7116
8.443999	 62.6983
8.462000	 62.6542
8.480000	 62.5926
8.498000	 62.5421
8.516000	 62.5141
8.533999	 62.5025
8.552000	 62.5086
8.570000	 62.5449
8.588000	 62.6091
8.606000	 62.6743
8.624000	 62.7099
8.641999	 62.7063
8.660000	 62.6788
8.678000	 62.6519
8.696000	 62.6405
8.714000	 62.6441
8.731999	 62.6543
8.750000	 62.6648
8.768000	 62.6715
8.786000	 62.6682
8.804000	 62.6513
8.821999	 62.6272
8.840000	 62.6057
8.858000	 62.5885
8.876000	 62.5673
8.894000	 62.5342
8.911999	 62.4925
8.930000	 62.4586
8.948000	 62.4499
8.966000	 62.4696
8.984000	 62.4966
9.001999	 62.5026
9.020000	 62.485
9.038000	 62.4726
9.056000	 62.4918
9.074000	 62.5373
9.092000	 62.5839
9.109999	 62.6132
9.128000	 62.6195
9.146000	 62.598
9.164000	 62.5462
9.182000	 62.4808
9.199999	 62.4375
9.218000	 62.4439
9.236000	 62.4939
9.254000	 62.5542
9.272000	 62.5923
9.289999	 62.5962
9.308000	 62.5727
9.326000	 62.5377
9.344000	 62.5101
9.362000	 62.5043
9.379999	 62.5202
9.398000	 62.5391
9.416000	 62.5364
9.434000	 62.5002
9.452000	 62.4385
9.469999	 62.3715
9.488000	 62.3168
9.506000	 62.2838
9.524000	 62.2727
9.542000	 62.2777
9.560000	 62.2892
9.577999	 62.2979
9.596000	 62.301
9.614000	 62.3026
9.632000	 62.3094
9.650000	 62.3265
9.667999	 62.357
9.686000	 62.4037
9.704000	 62.4666
9.722000	 62.5349
9.740000	 62.5852
9.757999	 62.5922
9.776000	 62.546
9.794000	 62.4619
9.812000	 62.3723
9.830000	 62.3081
9.847999	 62.285
9.866000	 62.3006
9.884000	 62.3411
9.902000	 62.3889
9.920000	 62.4271
9.937999	 62.4445
9.956000	 62.4409
9.974000	 62.4271
9.992000	 62.4181
10.01	62.4225
10.028	62.4369
10.046	62.448
10.064	62.4432
10.082	62.419
10.1	62.384
10.118	62.354
10.136	62.3418
10.154	62.3513
10.172	62.3769
10.19	62.407
10.208	62.4301
10.226	62.4396
10.244	62.434
10.262	62.4167
10.28	62.3935
10.298	62.3704
10.316	62.3514
10.334	62.3383
10.352	62.3305
10.37	62.3271
10.388	62.3283
10.406	62.3364
10.424	62.3547
10.442	62.3848
10.46	62.4239
10.478	62.4639
10.496	62.4948
10.514	62.5097
10.532	62.5069
10.55	62.4897
10.568	62.4631
10.586	62.4306
10.604	62.3949
10.622	62.3597
10.64	62.3318
10.658	62.3193
10.676	62.3269
10.694	62.3513
10.712	62.3817
10.73	62.4047
10.748	62.4107
10.766	62.3987
10.784	62.3741
10.802	62.3458
10.82	62.3205
10.838	62.3019
10.856	62.2917
10.874	62.2918
10.892	62.3047
10.91	62.3314
10.928	62.3685
10.946	62.4079
10.964	62.4391
10.982	62.4536
11	62.4497
11.018	62.4327
11.036	62.4114
11.054	62.394
11.072	62.3833
11.09	62.377
11.108	62.37
11.126	62.3593
11.144	62.3466
11.162	62.338
11.18	62.3392
11.198	62.3528
11.216	62.3752
11.234	62.3991
11.252	62.416
11.27	62.4205
11.288	62.412
11.306	62.3948
11.324	62.3762
11.342	62.3641
11.36	62.3638
11.378	62.3773
11.396	62.4018
11.414	62.4301
11.432	62.4523
11.45	62.4593
11.468	62.4459
11.486	62.4131
11.504	62.3681
11.522	62.3221
11.54	62.2851
11.558	62.2635
11.576	62.2584
11.594	62.2668
11.612	62.2841
11.63	62.3061
11.648	62.3302
11.666	62.3541
11.684	62.3751
11.702	62.3904
11.72	62.3966
11.738	62.3915
11.756	62.376
11.774	62.3538
11.792	62.3291
11.81	62.3048
11.828	62.2814
11.846	62.2575
11.864	62.2308
11.882	62.2005
11.9	62.1684
11.918	62.1386
11.936	62.1168
11.954	62.1078
11.972	62.1141
11.99	62.1348
12.008	62.165
12.026	62.197
12.044	62.2227
12.062	62.2357
12.08	62.2345
12.098	62.2218
12.116	62.2052
12.134	62.1945
12.152	62.1984
12.17	62.2214
12.188	62.2622
12.206	62.3137
12.224	62.3645
12.242	62.4036
12.26	62.4225
12.278	62.4176
12.296	62.3905
12.314	62.3473
12.332	62.2968
12.35	62.2485
12.368	62.2109
12.386	62.19
12.404	62.1876
12.422	62.202
12.44	62.2276
12.458	62.2578
12.476	62.2868
12.494	62.3105
12.512	62.3272
12.53	62.3381
12.548	62.3446
12.566	62.3474
12.584	62.3458
12.602	62.3368
12.62	62.317
12.638	62.284
12.656	62.2377
12.674	62.1818
12.692	62.1228
12.71	62.0683
12.728	62.0253
12.746	61.9981
12.764	61.9875
12.782	61.9903
12.8	62.0012
12.818	62.0136
12.836	62.021
12.854	62.0182
12.872	62.0022
12.89	61.9726
12.908	61.9315
12.926	61.883
12.944	61.832
12.962	61.7836
12.98	61.7415
12.998	61.7074
13.016	61.6812
13.034	61.6612
13.052	61.6454
13.07	61.6323
13.088	61.622
13.106	61.6166
13.124	61.6194
13.142	61.6342
13.16	61.6634
13.178	61.7077
13.196	61.7644
13.214	61.8284
13.232	61.893
13.25	61.9514
13.268	61.9984
13.286	62.0309
13.304	62.0487
13.322	62.0537
13.34	62.0495
13.358	62.0399
13.376	62.0279
13.394	62.0158
13.412	62.0046
13.43	61.9949
13.448	61.9869
13.466	61.9813
13.484	61.9791
13.502	61.981
13.52	61.9875
13.538	61.998
13.556	62.0111
13.574	62.0239
13.592	62.0334
13.61	62.0364
13.628	62.0308
13.646	62.0155
13.664	61.9909
13.682	61.9587
13.7	61.9212
13.718	61.8808
13.736	61.8401
13.754	61.8009
13.772	61.7646
13.79	61.7323
13.808	61.7052
13.826	61.6842
13.844	61.6705
13.862	61.6651
13.88	61.6687
13.898	61.681
13.916	61.7007
13.934	61.7251
13.952	61.751
13.97	61.7747
13.988	61.7927
14.006	61.8027
14.024	61.8037
14.042	61.7965
14.06	61.7834
14.078	61.7675
14.096	61.7518
14.114	61.7387
14.132	61.7298
14.15	61.7252
14.168	61.7243
14.186	61.7257
14.204	61.7282
14.222	61.7304
14.24	61.7316
14.258	61.7318
14.276	61.731
14.294	61.7298
14.312	61.7284
14.33	61.7268
14.348	61.7245
14.366	61.7206
14.384	61.7139
14.402	61.7025
14.42	61.6848
14.438	61.6594
14.456	61.6262
14.474	61.5857
14.492	61.54
14.51	61.4922
14.528	61.4459
14.546	61.405
14.564	61.3725
14.582	61.3506
14.6	61.3401
14.618	61.3405
14.636	61.3501
14.654	61.3663
14.672	61.3864
14.69	61.4081
14.708	61.4292
14.726	61.4483
14.744	61.4648
14.762	61.4784
14.78	61.4895
14.798	61.4986
14.816	61.5061
14.834	61.5129
14.852	61.5196
14.87	61.5266
14.888	61.5346
14.906	61.544
14.924	61.5553
14.942	61.5691
14.96	61.5855
14.978	61.604
14.996	61.6236
15.014	61.6426
15.032	61.659
15.05	61.67
15.068	61.6736
15.086	61.668
15.104	61.6517
15.122	61.6245
15.14	61.5875
15.158	61.5424
15.176	61.492
15.194	61.44
15.212	61.3909
15.23	61.3487
15.248	61.3162
15.266	61.296
15.284	61.29
15.302	61.2978
15.32	61.3177
15.338	61.3473
15.356	61.3822
15.374	61.417
15.392	61.4474
15.41	61.4694
15.428	61.479
15.446	61.4746
15.464	61.4567
15.482	61.427
15.5	61.3889
15.518	61.3482
15.536	61.3102
15.554	61.2797
15.572	61.2619
15.59	61.2597
15.608	61.2732
15.626	61.3009
15.644	61.339
15.662	61.3804
15.68	61.4191
15.698	61.4491
15.716	61.4643
15.734	61.4615
15.752	61.4401
15.77	61.4009
15.788	61.3492
15.806	61.2929
15.824	61.239
15.842	61.1966
15.86	61.1746
15.878	61.1781
15.896	61.2114
15.914	61.2763
15.932	61.3698
15.95	61.4881
15.968	61.6247
15.986	61.7697
16.004	61.9159
16.022	62.0558
16.04	62.1806
16.058	62.287
16.076	62.3722
16.094	62.4352
16.112	62.4792
16.13	62.5071
16.148	62.5236
16.166	62.5353
16.184	62.5468
16.202	62.5633
16.22	62.5891
16.238	62.6257
16.256	62.6746
16.274	62.7332
16.292	62.7982
16.31	62.8661
16.328	62.9288
16.346	62.9806
16.364	63.0166
16.382	63.0284
16.4	63.0117
16.418	62.9629
16.436	62.8786
16.454	62.7595
16.472	62.6064
16.49	62.4231
16.508	62.2151
16.526	61.9867
16.544	61.7467
16.562	61.5019
16.58	61.2578
16.598	61.0229
16.616	60.8017
16.634	60.5981
16.652	60.4167
16.67	60.2588
16.688	60.1262
16.706	60.0195
16.724	59.9383
16.742	59.8822
16.76	59.8496
16.778	59.8392
16.796	59.8488
16.814	59.8746
16.832	59.9141
16.85	59.9624
16.868	60.0141
16.886	60.0647
16.904	60.1074
16.922	60.1392
16.94	60.155
16.958	60.1533
16.976	60.1338
16.994	60.0967
17.012	60.0466
17.03	59.9862
17.048	59.9245
17.066	59.8665
17.084	59.8197
17.102	59.7921
17.12	59.7868
17.138	59.8095
17.156	59.8594
17.174	59.9373
17.192	60.0374
17.21	60.1565
17.228	60.286
17.246	60.4179
17.264	60.5464
17.282	60.661
17.3	60.7589
17.318	60.8335
17.336	60.885
17.354	60.9125
17.372	60.92
17.39	60.9103
17.408	60.8901
17.426	60.8666
17.444	60.8443
17.462	60.8331
17.48	60.835
17.498	60.8561
17.516	60.8962
17.534	60.9564
17.552	61.0341
17.57	61.1283
17.588	61.2321
17.606	61.3422
17.624	61.4529
17.642	61.5573
17.66	61.6521
17.678	61.7309
17.696	61.7925
17.714	61.8327
17.732	61.8513
17.75	61.8472
17.768	61.8221
17.786	61.7762
17.804	61.7124
17.822	61.632
17.84	61.5391
17.858	61.4363
17.876	61.327
17.894	61.2159
17.912	61.1049
17.93	60.9995
17.948	60.9008
17.966	60.8134
17.984	60.7379
18.002	60.6774
18.02	60.6316
18.038	60.6015
18.056	60.5856
18.074	60.5839
18.092	60.5931
18.11	60.6128
18.128	60.6392
18.146	60.6713
18.164	60.7056
18.182	60.7413
18.2	60.7762
18.218	60.81
18.236	60.8417
18.254	60.8726
18.272	60.9028
18.29	60.9343
18.308	60.9674
18.326	61.0049
18.344	61.0471
18.362	61.0967
18.38	61.1538
18.398	61.2198
18.416	61.2943
18.434	61.3775
18.452	61.4675
18.47	61.5634
18.488	61.6615
18.506	61.761
18.524	61.856
18.542	61.9456
18.56	62.0239
18.578	62.0904
18.596	62.1392
18.614	62.1703
18.632	62.1803
18.65	62.1694
18.668	62.1367
18.686	62.0827
18.704	62.0092
18.722	61.9174
18.74	61.8108
18.758	61.6911
18.776	61.5632
18.794	61.4287
18.812	61.2931
18.83	61.1579
18.848	61.0281
18.866	60.9049
18.884	60.7922
18.902	60.6907
18.92	60.603
18.938	60.5292
18.956	60.4706
18.974	60.4265
18.992	60.3972
19.01	60.3813
19.028	60.3776
19.046	60.3846
19.064	60.4002
19.082	60.4227
19.1	60.4491
19.118	60.4783
19.136	60.5071
19.154	60.5349
19.172	60.5588
19.19	60.5789
19.208	60.5934
19.226	60.6028
19.244	60.6065
19.262	60.6051
19.28	60.5998
19.298	60.5907
19.316	60.5807
19.334	60.5696
19.352	60.5605
19.37	60.5532
19.388	60.5503
19.406	60.5518
19.424	60.5586
19.442	60.5708
19.46	60.5875
19.478	60.609
19.496	60.6328
19.514	60.6587
19.532	60.6839
19.55	60.707
19.568	60.7262
19.586	60.7389
19.604	60.7449
19.622	60.7418
19.64	60.7301
19.658	60.7088
19.676	60.6783
19.694	60.6402
19.712	60.5943
19.73	60.544
19.748	60.4891
19.766	60.4333
19.784	60.3772
19.802	60.3234
19.82	60.2736
19.838	60.2286
19.856	60.1904
19.874	60.1588
19.892	60.1351
19.91	60.1189
19.928	60.1098
19.946	60.1079
19.964	60.1117
19.982	60.1213
20	60.1351
20.018	60.1528
20.036	60.1734
20.054	60.1953
20.072	60.2187
20.09	60.2419
20.108	60.265
20.126	60.2868
20.144	60.3072
20.162	60.3259
20.18	60.3425
20.198	60.3572
20.216	60.3699
20.234	60.3806
20.252	60.39
20.27	60.3977
20.288	60.4047
20.306	60.411
20.324	60.4168
20.342	60.4226
20.36	60.4283
20.378	60.4346
20.396	60.4412
20.414	60.4481
20.432	60.4554
20.45	60.4625
20.468	60.4694
20.486	60.4758
20.504	60.4806
20.522	60.4841
20.54	60.485
20.558	60.4834
20.576	60.4786
20.594	60.4701
20.612	60.458
20.63	60.4419
20.648	60.4219
20.666	60.3987
20.684	60.3719
20.702	60.3429
20.72	60.3122
20.738	60.2801
20.756	60.2489
20.774	60.218
20.792	60.1902
20.81	60.1657
20.828	60.1454
20.846	60.1313
20.864	60.1227
20.882	60.1211
20.9	60.1267
20.918	60.139
20.936	60.1583
20.954	60.1842
20.972	60.2149
20.99	60.251
21.008	60.29
21.026	60.3313
21.044	60.3741
21.062	60.4154
21.08	60.4561
21.098	60.4934
21.116	60.5267
21.134	60.5556
21.152	60.5782
21.17	60.5951
21.188	60.6055
21.206	60.6091
21.224	60.6064
21.242	60.5976
21.26	60.5826
21.278	60.5628
21.296	60.5382
21.314	60.5093
21.332	60.4778
21.35	60.4431
21.368	60.4068
21.386	60.3693
21.404	60.3308
21.422	60.2926
21.44	60.2543
21.458	60.2165
21.476	60.1795
21.494	60.1433
21.512	60.108
21.53	60.0736
21.548	60.0399
21.566	60.0071
21.584	59.9749
21.602	59.9435
21.62	59.9126
21.638	59.8825
21.656	59.8532
21.674	59.8246
21.692	59.7972
21.71	59.7712
21.728	59.7466
21.746	59.7242
21.764	59.7037
21.782	59.6859
21.8	59.6714
21.818	59.6599
21.836	59.6523
21.854	59.6488
21.872	59.6494
21.89	59.6548
21.908	59.665
21.926	59.6798
21.944	59.6995
21.962	59.7239
21.98	59.7525
21.998	59.7853
22.016	59.822
22.034	59.8616
22.052	59.9047
22.07	59.9497
22.088	59.9958
22.106	60.0433
22.124	60.0901
22.142	60.1359
22.16	60.1805
22.178	60.2213
22.196	60.2591
22.214	60.2926
22.232	60.3202
22.25	60.3425
22.268	60.3584
22.286	60.3668
22.304	60.3684
22.322	60.3625
22.34	60.3487
22.358	60.3275
22.376	60.2992
22.394	60.2635
22.412	60.2211
22.43	60.1732
22.448	60.119
22.466	60.0603
22.484	59.9983
22.502	59.9323
22.52	59.8645
22.538	59.7958
22.556	59.7257
22.574	59.6565
22.592	59.5885
22.61	59.5215
22.628	59.4573
22.646	59.3957
22.664	59.3369
22.682	59.2819
22.7	59.2304
22.718	59.1826
22.736	59.1387
22.754	59.0986
22.772	59.0623
22.79	59.0297
22.808	59.0008
22.826	58.9756
22.844	58.954
22.862	58.9361
22.88	58.9214
22.898	58.9098
22.916	58.9014
22.934	58.8962
22.952	58.8941
22.97	58.8952
22.988	58.8996
23.006	58.907
23.024	58.9176
23.042	58.932
23.06	58.95
23.078	58.9717
23.096	58.9976
23.114	59.0275
23.132	59.0616
23.15	59.1003
23.168	59.1438
23.186	59.1917
23.204	59.2439
23.222	59.3004
23.24	59.3609
23.258	59.425
23.276	59.4928
23.294	59.5639
23.312	59.6374
23.33	59.7135
23.348	59.7918
23.366	59.8712
23.384	59.9518
23.402	60.0335
23.42	60.115
23.438	60.1964
23.456	60.2776
23.474	60.3574
23.492	60.4357
23.51	60.5128
23.528	60.5876
23.546	60.6601
23.564	60.7305
23.582	60.7977
23.6	60.8616
23.618	60.9224
23.636	60.9795
23.654	61.0324
23.672	61.0816
23.69	61.1262
23.708	61.1654
23.726	61.1999
23.744	61.2288
23.762	61.2509
23.78	61.2672
23.798	61.2767
23.816	61.2785
23.834	61.2728
23.852	61.2597
23.87	61.2385
23.888	61.2095
23.906	61.1726
23.924	61.1271
23.942	61.0729
23.96	61.0101
23.978	60.9389
23.996	60.8586
24.014	60.7694
24.032	60.6732
24.05	60.5707
24.068	60.4604
24.086	60.3458
24.104	60.2298
24.122	60.1095
24.14	59.9888
24.158	59.8728
24.176	59.759
24.194	59.6493
24.212	59.5497
24.23	59.4604
24.248	59.3802
24.266	59.3146
24.284	59.267
24.302	59.2344
24.32	59.2195
24.338	59.2251
24.356	59.2503
24.374	59.2948
24.392	59.3589
24.41	59.4443
24.428	59.5491
24.446	59.6697
24.464	59.806
24.482	59.9599
24.5	60.1234
24.518	60.2904
24.536	60.4672
24.554	60.6464
24.572	60.8182
24.59	60.9855
24.608	61.1476
24.626	61.2949
24.644	61.4234
24.662	61.538
24.68	61.6327
24.698	61.7017
24.716	61.7477
24.734	61.7701
24.752	61.7662
24.77	61.7345
24.788	61.6767
24.806	61.5952
24.824	61.4907
24.842	61.3605
24.86	61.2105
24.878	61.0478
24.896	60.8686
24.914	60.675
24.932	60.4761
24.95	60.2763
24.968	60.0698
24.986	59.8641
25.004	59.6672
25.022	59.4753
25.04	59.2898
25.058	59.1167
25.076	58.9592
25.094	58.8139
25.112	58.683
25.13	58.5687
25.148	58.4711
25.166	58.3891
25.184	58.3221
25.202	58.2704
25.22	58.2347
25.238	58.2122
25.256	58.2001
25.274	58.1997
25.292	58.2104
25.31	58.2301
25.328	58.257
25.346	58.2925
25.364	58.336
25.382	58.387
25.4	58.4439
25.418	58.508
25.436	58.5823
25.454	58.6686
25.472	58.7634
25.49	58.8709
25.508	58.9969
25.526	59.141
25.544	59.3004
25.562	59.4828
25.58	59.6955
25.598	59.9338
25.616	60.1993
25.634	60.4982
25.652	60.8345
25.67	61.2045
25.688	61.6094
25.706	62.0509
25.724	62.5319
25.742	63.0506
25.76	63.6012
25.778	64.179
25.796	64.792
25.814	65.4334
25.832	66.0895
25.85	66.7534
25.868	67.4391
25.886	68.13
25.904	68.8054
25.922	69.4646
25.94	70.1191
25.958	70.7459
25.976	71.3217
25.994	71.8577
26.012	72.3543
26.03	72.7895
26.048	73.144
26.066	73.4323
26.084	73.6498
26.102	73.7834
26.12	73.8235
26.138	73.7788
26.156	73.6477
26.174	73.4271
26.192	73.1128
26.21	72.7056
26.228	72.2147
26.246	71.6489
26.264	71.0034
26.282	70.2762
26.3	69.4849
26.318	68.6465
26.336	67.7486
26.354	66.7939
26.372	65.8048
26.39	64.8017
26.408	63.7673
26.426	62.7083
26.444	61.6461
26.462	60.5983
26.48	59.5472
26.498	58.5013
26.516	57.4784
26.534	56.4917
26.552	55.5277
26.57	54.592
26.588	53.6946
26.606	52.8428
26.624	52.0303
26.642	51.2574
26.66	50.5255
26.678	49.8366
26.696	49.1909
26.714	48.5847
26.732	48.014
26.75	47.4778
26.768	46.9806
26.786	46.516
26.804	46.0773
26.822	45.6614
26.84	45.2734
26.858	44.9095
26.876	44.565
26.894	44.2369
26.912	43.9279
26.93	43.6381
26.948	43.3676
26.966	43.1098
26.984	42.8554
27.002	42.628
27.02	42.4531
27.028	42.4046