File: Bakgrunnsmateriale/MATLAB/FTIR/ftir_data/subAa/Mapping_121/BZ1503107-1_t120.asc
PE IR       SPECTRUM    SPECTRUM    ASCII       PEDS        1.60
  -1
BZCEB2~1.ASC
17/04/07
23:06:50.00
17/04/07
23:07:17.00
tln
$BZ1503107-1_t0120$<tbV0>[-10.4,13.0,8.0,0.0,27,1,0]
27.028
64

2002,4.07
MIRTGS : RIGHTBACK : INTERNAL 2
MIR : ON : INTERNAL 2
OPTKBR

0.200000
8
8.000000
FILLER
RATIO
SPECTRUM
UNLOCKED 256

DOUBLE
64
COMBINED
1
0
0

0.002000
RATIO

1
0
TRUE
51149
0
LEFT NOT FITTED RIGHT NOT FITTED 0
NONE
NONE
15600
12
4.427000
51148
TRUE
1 0 8 72 0 0 0 0

15798

#HDR
-1
-1
#GR
µM
%T
2.38419e-05
0.0
2.000000
0.002000
12515
8
70.4693
50.7772
#DATA
2.000000	 66.8204
2.018000	 66.3782
2.036000	 65.0343
2.054000	 64.8179
2.072000	 64.4689
2.090000	 64.209
2.108000	 65.0553
2.126000	 64.9901
2.144000	 64.855
2.162000	 64.8732
2.180000	 65.2365
2.198000	 65.1559
2.216000	 65.2206
2.234000	 65.0982
2.252000	 57.2588
2.270000	 66.2895
2.288000	 65.1304
2.306000	 65.4006
2.324000	 65.0014
2.342000	 65.1624
2.360000	 64.6941
2.378000	 64.9978
2.396000	 64.6073
2.414000	 64.634
2.432000	 64.8377
2.450000	 64.8849
2.468000	 64.9065
2.486000	 64.5892
2.504000	 64.6836
2.522000	 64.8143
2.540000	 64.7872
2.558000	 64.8456
2.576000	 65.1555
2.594000	 64.9083
2.612000	 65.057
2.630000	 65.4072
2.648000	 65.004
2.666000	 65.1291
2.684000	 64.9915
2.702000	 64.9355
2.720000	 65.0472
2.738000	 64.9408
2.756000	 65.0581
2.774000	 64.7099
2.792000	 64.729
2.810000	 64.8977
2.828000	 64.875
2.846000	 64.8419
2.864000	 64.9273
2.882000	 64.9982
2.900000	 64.9338
2.918000	 65.0786
2.936000	 64.9088
2.954000	 64.9439
2.972000	 64.875
2.990000	 64.9106
3.008000	 64.8867
3.026000	 64.6202
3.044000	 64.8242
3.062000	 64.9919
3.080000	 64.6825
3.098000	 64.7387
3.116000	 64.8762
3.134000	 65.0144
3.152000	 64.8318
3.170000	 64.8169
3.188000	 64.8397
3.206000	 64.8549
3.224000	 64.7043
3.242000	 64.9
3.260000	 64.6702
3.278000	 64.7357
3.296000	 64.7443
3.314000	 64.7468
3.332000	 64.742
3.350000	 64.5906
3.368000	 64.6707
3.386000	 64.6528
3.404000	 64.7388
3.422000	 64.5055
3.440000	 64.3785
3.458000	 64.6569
3.476000	 64.5436
3.494000	 64.568
3.512000	 64.7456
3.530000	 64.5265
3.548000	 64.4456
3.566000	 64.593
3.584000	 64.4883
3.602000	 64.572
3.620000	 64.5963
3.638000	 64.5493
3.656000	 64.6617
3.674000	 64.6229
3.692000	 64.6272
3.710000	 64.5667
3.728000	 64.584
3.746000	 64.4133
3.764000	 64.4785
3.782000	 64.4517
3.800000	 64.4758
3.818000	 64.4588
3.836000	 64.549
3.854000	 64.5414
3.872000	 64.5583
3.890000	 64.6199
3.908000	 64.4551
3.926000	 64.4542
3.944000	 64.5597
3.962000	 64.4649
3.980000	 64.3762
3.998000	 64.4871
4.016000	 64.3502
4.034000	 64.3677
4.052000	 64.519
4.070000	 64.4454
4.088000	 64.4426
4.106000	 64.4565
4.124000	 64.2843
4.141999	 64.2749
4.160000	 64.3554
4.178000	 64.4203
4.196000	 64.3275
4.214000	 64.3017
4.232000	 64.3952
4.250000	 64.3476
4.268000	 64.3341
4.286000	 64.2445
4.304000	 64.2381
4.322000	 64.1929
4.340000	 64.3138
4.358000	 64.3632
4.375999	 64.3151
4.394000	 64.308
4.412000	 64.2602
4.430000	 64.303
4.448000	 64.1764
4.466000	 64.2698
4.484000	 64.238
4.502000	 64.2046
4.520000	 64.2002
4.538000	 64.2172
4.556000	 64.2109
4.574000	 64.1478
4.592000	 64.1794
4.609999	 64.1597
4.628000	 64.1787
4.646000	 64.1859
4.664000	 64.2521
4.682000	 64.2068
4.700000	 64.1879
4.718000	 64.2072
4.736000	 64.1733
4.754000	 64.0763
4.772000	 64.0655
4.790000	 64.0665
4.808000	 64.0775
4.826000	 64.1389
4.843999	 64.0487
4.862000	 64.0623
4.880000	 64.082
4.898000	 63.9623
4.916000	 63.9521
4.934000	 63.933
4.952000	 63.9862
4.970000	 64.0303
4.988000	 63.9349
5.006000	 63.9265
5.024000	 63.9078
5.042000	 63.8112
5.060000	 63.8966
5.077999	 63.9342
5.096000	 63.8602
5.114000	 63.8296
5.132000	 63.8165
5.150000	 63.8393
5.168000	 63.8735
5.186000	 63.823
5.204000	 63.7903
5.222000	 63.7473
5.240000	 63.885
5.258000	 63.8938
5.276000	 63.7968
5.294000	 63.7925
5.312000	 63.8216
5.330000	 63.8304
5.348000	 63.7802
5.366000	 63.7859
5.384000	 63.7469
5.402000	 63.7432
5.420000	 63.7534
5.438000	 63.7378
5.456000	 63.7435
5.474000	 63.7793
5.492000	 63.8092
5.510000	 63.7787
5.528000	 63.7926
5.546000	 63.7117
5.564000	 63.6247
5.582000	 63.5831
5.600000	 63.5724
5.618000	 63.6487
5.636000	 63.6832
5.654000	 63.6493
5.672000	 63.6018
5.690000	 63.5682
5.708000	 63.6123
5.726000	 63.5202
5.744000	 63.3586
5.762000	 63.3164
5.780000	 63.347
5.798000	 63.428
5.816000	 63.4838
5.834000	 63.5002
5.852000	 63.5332
5.870000	 63.5654
5.888000	 63.5058
5.906000	 63.498
5.923999	 63.5209
5.942000	 63.4892
5.960000	 63.4427
5.978000	 63.4702
5.996000	 63.4654
6.014000	 63.4782
6.032000	 63.5222
6.050000	 63.4401
6.068000	 63.3731
6.086000	 63.4564
6.104000	 63.4568
6.122000	 63.4473
6.140000	 63.4798
6.158000	 63.3888
6.176000	 63.3226
6.194000	 63.3113
6.212000	 63.2182
6.230000	 63.2436
6.248000	 63.3223
6.266000	 63.34
6.284000	 63.4105
6.302000	 63.4352
6.320000	 63.3299
6.338000	 63.2786
6.356000	 63.3234
6.374000	 63.3711
6.392000	 63.3859
6.410000	 63.3625
6.428000	 63.3662
6.446000	 63.3625
6.464000	 63.2664
6.482000	 63.1823
6.500000	 63.2257
6.518000	 63.3057
6.536000	 63.3325
6.554000	 63.3757
6.572000	 63.43
6.590000	 63.4128
6.608000	 63.3616
6.626000	 63.3655
6.644000	 63.4057
6.662000	 63.4303
6.680000	 63.3973
6.698000	 63.3334
6.716000	 63.3091
6.734000	 63.284
6.752000	 63.2414
6.770000	 63.1882
6.788000	 63.1375
6.806000	 63.1342
6.824000	 63.1867
6.842000	 63.2162
6.860000	 63.2066
6.878000	 63.2022
6.896000	 63.1691
6.914000	 63.1431
6.932000	 63.1798
6.950000	 63.2244
6.968000	 63.2474
6.986000	 63.2427
7.004000	 63.1926
7.022000	 63.1334
7.040000	 63.1152
7.058000	 63.1318
7.076000	 63.1472
7.094000	 63.1638
7.112000	 63.1872
7.130000	 63.1678
7.148000	 63.0979
7.166000	 63.0583
7.184000	 63.074
7.202000	 63.0712
7.220000	 63.0286
7.238000	 63.0076
7.256000	 63.0198
7.274000	 63.0327
7.292000	 63.0415
7.310000	 63.0492
7.328000	 63.0695
7.346000	 63.1164
7.364000	 63.153
7.382000	 63.1445
7.400000	 63.1195
7.418000	 63.128
7.436000	 63.176
7.454000	 63.203
7.472000	 63.1614
7.490000	 63.0947
7.508000	 63.0704
7.526000	 63.0975
7.544000	 63.1266
7.562000	 63.0897
7.580000	 63.0013
7.598000	 62.9627
7.616000	 62.9955
7.634000	 63.0181
7.652000	 62.9978
7.670000	 62.9888
7.688000	 63.0218
7.706000	 63.0505
7.724000	 63.0189
7.742000	 62.9354
7.760000	 62.8624
7.778000	 62.8527
7.796000	 62.9077
7.814000	 62.982
7.832000	 63.0216
7.850000	 63.0089
7.868000	 62.9694
7.886000	 62.9216
7.904000	 62.8651
7.922000	 62.8235
7.940000	 62.8346
7.958000	 62.8792
7.976000	 62.8927
7.994000	 62.8579
8.012000	 62.8262
8.030000	 62.8349
8.048000	 62.8422
8.065999	 62.7985
8.084000	 62.7423
8.102000	 62.7488
8.120000	 62.8094
8.138000	 62.8557
8.155999	 62.8696
8.173999	 62.8796
8.192000	 62.8831
8.210000	 62.8622
8.228000	 62.8398
8.246000	 62.8463
8.263999	 62.8594
8.282000	 62.8376
8.300000	 62.7864
8.318000	 62.7491
8.336000	 62.7565
8.353999	 62.7999
8.372000	 62.8403
8.390000	 62.8429
8.408000	 62.809
8.426000	 62.7745
8.443999	 62.7636
8.462000	 62.7666
8.480000	 62.7624
8.498000	 62.7408
8.516000	 62.701
8.533999	 62.6481
8.552000	 62.5985
8.570000	 62.5809
8.588000	 62.6137
8.606000	 62.683
8.624000	 62.7449
8.641999	 62.7575
8.660000	 62.714
8.678000	 62.6461
8.696000	 62.5951
8.714000	 62.5797
8.731999	 62.5941
8.750000	 62.6235
8.768000	 62.6568
8.786000	 62.6853
8.804000	 62.7031
8.821999	 62.7108
8.840000	 62.7137
8.858000	 62.7111
8.876000	 62.6958
8.894000	 62.6692
8.911999	 62.6525
8.930000	 62.6691
8.948000	 62.7132
8.966000	 62.7446
8.984000	 62.7253
9.001999	 62.6607
9.020000	 62.5941
9.038000	 62.5643
9.056000	 62.5699
9.074000	 62.5785
9.092000	 62.5633
9.109999	 62.5244
9.128000	 62.4794
9.146000	 62.442
9.164000	 62.4139
9.182000	 62.3916
9.199999	 62.3807
9.218000	 62.3979
9.236000	 62.4525
9.254000	 62.5264
9.272000	 62.5809
9.289999	 62.5895
9.308000	 62.5604
9.326000	 62.5286
9.344000	 62.5265
9.362000	 62.5612
9.379999	 62.6152
9.398000	 62.6614
9.416000	 62.6788
9.434000	 62.6605
9.452000	 62.6148
9.469999	 62.5627
9.488000	 62.5281
9.506000	 62.5271
9.524000	 62.5602
9.542000	 62.6115
9.560000	 62.6564
9.577999	 62.6708
9.596000	 62.6428
9.614000	 62.5785
9.632000	 62.5021
9.650000	 62.4448
9.667999	 62.4277
9.686000	 62.452
9.704000	 62.5002
9.722000	 62.5488
9.740000	 62.5799
9.757999	 62.5841
9.776000	 62.5591
9.794000	 62.5065
9.812000	 62.4346
9.830000	 62.3608
9.847999	 62.3089
9.866000	 62.2977
9.884000	 62.3308
9.902000	 62.3942
9.920000	 62.4642
9.937999	 62.5202
9.956000	 62.5523
9.974000	 62.5598
9.992000	 62.5463
10.01	62.5167
10.028	62.4785
10.046	62.4427
10.064	62.4194
10.082	62.4135
10.1	62.4249
10.118	62.4509
10.136	62.4895
10.154	62.5377
10.172	62.5881
10.19	62.6283
10.208	62.6469
10.226	62.6401
10.244	62.6159
10.262	62.5913
10.28	62.5809
10.298	62.5901
10.316	62.6125
10.334	62.6338
10.352	62.6404
10.37	62.6252
10.388	62.5905
10.406	62.5459
10.424	62.505
10.442	62.4804
10.46	62.4787
10.478	62.4993
10.496	62.5315
10.514	62.5608
10.532	62.5721
10.55	62.5585
10.568	62.5224
10.586	62.4758
10.604	62.4341
10.622	62.4116
10.64	62.4145
10.658	62.4413
10.676	62.4832
10.694	62.5279
10.712	62.5621
10.73	62.5753
10.748	62.5621
10.766	62.5246
10.784	62.471
10.802	62.4137
10.82	62.3626
10.838	62.3227
10.856	62.2934
10.874	62.2718
10.892	62.2564
10.91	62.2494
10.928	62.2544
10.946	62.2733
10.964	62.3034
10.982	62.3384
11	62.3723
11.018	62.4022
11.036	62.4283
11.054	62.4516
11.072	62.4707
11.09	62.4829
11.108	62.4867
11.126	62.484
11.144	62.4802
11.162	62.4818
11.18	62.4918
11.198	62.5071
11.216	62.5202
11.234	62.5233
11.252	62.5125
11.27	62.4901
11.288	62.4626
11.306	62.4364
11.324	62.4157
11.342	62.4005
11.36	62.389
11.378	62.3799
11.396	62.3736
11.414	62.3718
11.432	62.3761
11.45	62.3861
11.468	62.3984
11.486	62.4087
11.504	62.4129
11.522	62.4087
11.54	62.3962
11.558	62.3778
11.576	62.3578
11.594	62.3417
11.612	62.3358
11.63	62.3455
11.648	62.373
11.666	62.4165
11.684	62.4691
11.702	62.5201
11.72	62.5575
11.738	62.5716
11.756	62.5588
11.774	62.5225
11.792	62.4718
11.81	62.4181
11.828	62.3712
11.846	62.3366
11.864	62.3144
11.882	62.3013
11.9	62.2935
11.918	62.2889
11.936	62.2889
11.954	62.2978
11.972	62.3199
11.99	62.3566
12.008	62.4041
12.026	62.4533
12.044	62.4917
12.062	62.5078
12.08	62.4953
12.098	62.4551
12.116	62.3957
12.134	62.3309
12.152	62.2759
12.17	62.2429
12.188	62.2386
12.206	62.2625
12.224	62.3074
12.242	62.3618
12.26	62.4134
12.278	62.4506
12.296	62.4653
12.314	62.4544
12.332	62.4207
12.35	62.3719
12.368	62.3198
12.386	62.2771
12.404	62.2542
12.422	62.2563
12.44	62.2823
12.458	62.3256
12.476	62.3763
12.494	62.4243
12.512	62.4616
12.53	62.4839
12.548	62.4907
12.566	62.484
12.584	62.4669
12.602	62.4426
12.62	62.4142
12.638	62.3839
12.656	62.3534
12.674	62.3244
12.692	62.2982
12.71	62.2759
12.728	62.2572
12.746	62.2404
12.764	62.2235
12.782	62.2042
12.8	62.1815
12.818	62.1559
12.836	62.1295
12.854	62.1057
12.872	62.0881
12.89	62.0794
12.908	62.0803
12.926	62.0894
12.944	62.1031
12.962	62.117
12.98	62.1262
12.998	62.1272
13.016	62.1186
13.034	62.1015
13.052	62.0791
13.07	62.056
13.088	62.0366
13.106	62.0247
13.124	62.0218
13.142	62.0274
13.16	62.039
13.178	62.053
13.196	62.0657
13.214	62.0743
13.232	62.0772
13.25	62.075
13.268	62.0694
13.286	62.0634
13.304	62.0595
13.322	62.0598
13.34	62.0646
13.358	62.0728
13.376	62.0816
13.394	62.0876
13.412	62.0877
13.43	62.0799
13.448	62.0638
13.466	62.0409
13.484	62.0139
13.502	61.986
13.52	61.9604
13.538	61.9388
13.556	61.9215
13.574	61.9077
13.592	61.8957
13.61	61.8837
13.628	61.8703
13.646	61.8552
13.664	61.8392
13.682	61.8239
13.7	61.8114
13.718	61.804
13.736	61.8036
13.754	61.8108
13.772	61.8252
13.79	61.8457
13.808	61.8701
13.826	61.8959
13.844	61.9207
13.862	61.9424
13.88	61.9594
13.898	61.9706
13.916	61.9758
13.934	61.9751
13.952	61.9688
13.97	61.9574
13.988	61.9416
14.006	61.9224
14.024	61.9006
14.042	61.8774
14.06	61.8539
14.078	61.8314
14.096	61.8107
14.114	61.7925
14.132	61.7773
14.15	61.7654
14.168	61.7567
14.186	61.7512
14.204	61.7486
14.222	61.7486
14.24	61.7507
14.258	61.7546
14.276	61.7598
14.294	61.7656
14.312	61.7716
14.33	61.7774
14.348	61.7829
14.366	61.7881
14.384	61.7927
14.402	61.7966
14.42	61.7993
14.438	61.7999
14.456	61.7977
14.474	61.7916
14.492	61.7809
14.51	61.7653
14.528	61.7448
14.546	61.7204
14.564	61.6932
14.582	61.6647
14.6	61.6367
14.618	61.6111
14.636	61.5893
14.654	61.5719
14.672	61.559
14.69	61.55
14.708	61.5438
14.726	61.539
14.744	61.5334
14.762	61.5254
14.78	61.5136
14.798	61.4971
14.816	61.4754
14.834	61.449
14.852	61.4191
14.87	61.3875
14.888	61.3562
14.906	61.3272
14.924	61.3024
14.942	61.2835
14.96	61.2712
14.978	61.2653
14.996	61.2653
15.014	61.2697
15.032	61.2764
15.05	61.2829
15.068	61.2875
15.086	61.2885
15.104	61.2852
15.122	61.2779
15.14	61.2684
15.158	61.2592
15.176	61.2534
15.194	61.2547
15.212	61.2665
15.23	61.2908
15.248	61.3284
15.266	61.3788
15.284	61.4391
15.302	61.5046
15.32	61.5707
15.338	61.6322
15.356	61.6838
15.374	61.7215
15.392	61.7436
15.41	61.7497
15.428	61.7411
15.446	61.7214
15.464	61.6952
15.482	61.6667
15.5	61.6406
15.518	61.6206
15.536	61.608
15.554	61.603
15.572	61.6049
15.59	61.6108
15.608	61.6178
15.626	61.6231
15.644	61.6238
15.662	61.6184
15.68	61.6067
15.698	61.5896
15.716	61.5691
15.734	61.5484
15.752	61.5299
15.77	61.516
15.788	61.5088
15.806	61.5082
15.824	61.5137
15.842	61.5236
15.86	61.534
15.878	61.5416
15.896	61.5427
15.914	61.5328
15.932	61.5094
15.95	61.4708
15.968	61.4166
15.986	61.3489
16.004	61.2712
16.022	61.1877
16.04	61.1053
16.058	61.0301
16.076	60.9676
16.094	60.9252
16.112	60.9079
16.13	60.9182
16.148	60.9586
16.166	61.0276
16.184	61.1228
16.202	61.2413
16.22	61.3752
16.238	61.5182
16.256	61.6637
16.274	61.801
16.292	61.9235
16.31	62.0251
16.328	62.098
16.346	62.1393
16.364	62.1465
16.382	62.1195
16.4	62.0614
16.418	61.9749
16.436	61.8677
16.454	61.7474
16.472	61.6202
16.49	61.497
16.508	61.3848
16.526	61.2889
16.544	61.2167
16.562	61.17
16.58	61.1505
16.598	61.1571
16.616	61.186
16.634	61.234
16.652	61.2934
16.67	61.359
16.688	61.4251
16.706	61.4833
16.724	61.5298
16.742	61.5593
16.76	61.5687
16.778	61.557
16.796	61.5233
16.814	61.4698
16.832	61.3975
16.85	61.3103
16.868	61.2114
16.886	61.1037
16.904	60.9919
16.922	60.8779
16.94	60.7643
16.958	60.6532
16.976	60.5453
16.994	60.4417
17.012	60.3427
17.03	60.2486
17.048	60.1599
17.066	60.0772
17.084	60.0012
17.102	59.9332
17.12	59.8737
17.138	59.8248
17.156	59.7876
17.174	59.7634
17.192	59.7532
17.21	59.7569
17.228	59.7746
17.246	59.8049
17.264	59.8471
17.282	59.8987
17.3	59.9586
17.318	60.0244
17.336	60.0946
17.354	60.1683
17.372	60.2447
17.39	60.324
17.408	60.4065
17.426	60.4941
17.444	60.5875
17.462	60.6893
17.48	60.7997
17.498	60.9199
17.516	61.0486
17.534	61.1854
17.552	61.3265
17.57	61.4704
17.588	61.611
17.606	61.7452
17.624	61.8679
17.642	61.9738
17.66	62.0603
17.678	62.1232
17.696	62.1621
17.714	62.1753
17.732	62.1649
17.75	62.1317
17.768	62.0806
17.786	62.0129
17.804	61.9362
17.822	61.8522
17.84	61.7674
17.858	61.6842
17.876	61.6065
17.894	61.5364
17.912	61.4752
17.93	61.4238
17.948	61.382
17.966	61.3487
17.984	61.3232
18.002	61.3038
18.02	61.2894
18.038	61.2785
18.056	61.2702
18.074	61.2639
18.092	61.2592
18.11	61.2559
18.128	61.2546
18.146	61.2554
18.164	61.2588
18.182	61.2652
18.2	61.2751
18.218	61.2891
18.236	61.3072
18.254	61.3302
18.272	61.3584
18.29	61.3919
18.308	61.4309
18.326	61.4757
18.344	61.5264
18.362	61.5836
18.38	61.6472
18.398	61.7178
18.416	61.7949
18.434	61.8786
18.452	61.9678
18.47	62.0619
18.488	62.1587
18.506	62.258
18.524	62.3557
18.542	62.4513
18.56	62.54
18.578	62.6213
18.596	62.6896
18.614	62.7445
18.632	62.7818
18.65	62.8013
18.668	62.7997
18.686	62.7774
18.704	62.7335
18.722	62.6687
18.74	62.5841
18.758	62.481
18.776	62.3624
18.794	62.2299
18.812	62.0877
18.83	61.9377
18.848	61.7847
18.866	61.6305
18.884	61.4797
18.902	61.3339
18.92	61.1969
18.938	61.07
18.956	60.9563
18.974	60.8564
18.992	60.7727
19.01	60.7049
19.028	60.6542
19.046	60.6197
19.064	60.6012
19.082	60.5973
19.1	60.6067
19.118	60.6279
19.136	60.6584
19.154	60.6968
19.172	60.7397
19.19	60.7861
19.208	60.8323
19.226	60.8779
19.244	60.9188
19.262	60.9554
19.28	60.9848
19.298	61.0073
19.316	61.0212
19.334	61.0269
19.352	61.0245
19.37	61.0143
19.388	60.9977
19.406	60.9746
19.424	60.9477
19.442	60.9167
19.46	60.8847
19.478	60.8519
19.496	60.8203
19.514	60.7907
19.532	60.7639
19.55	60.7409
19.568	60.7214
19.586	60.7059
19.604	60.6939
19.622	60.6852
19.64	60.6793
19.658	60.675
19.676	60.6724
19.694	60.6696
19.712	60.6668
19.73	60.6627
19.748	60.6574
19.766	60.6507
19.784	60.6424
19.802	60.6336
19.82	60.6243
19.838	60.6156
19.856	60.6087
19.874	60.6039
19.892	60.6038
19.91	60.608
19.928	60.619
19.946	60.6365
19.964	60.6621
19.982	60.6961
20	60.7386
20.018	60.7902
20.036	60.8501
20.054	60.9176
20.072	60.9923
20.09	61.0717
20.108	61.1561
20.126	61.2424
20.144	61.3306
20.162	61.4183
20.18	61.5044
20.198	61.5884
20.216	61.6683
20.234	61.7444
20.252	61.8154
20.27	61.8814
20.288	61.9423
20.306	61.9982
20.324	62.0494
20.342	62.096
20.36	62.1382
20.378	62.1765
20.396	62.2109
20.414	62.2413
20.432	62.2679
20.45	62.2897
20.468	62.3067
20.486	62.3183
20.504	62.323
20.522	62.321
20.54	62.3107
20.558	62.2925
20.576	62.2653
20.594	62.2284
20.612	62.1824
20.63	62.1275
20.648	62.0637
20.666	61.9928
20.684	61.914
20.702	61.8298
20.72	61.7414
20.738	61.649
20.756	61.556
20.774	61.4616
20.792	61.3689
20.81	61.2783
20.828	61.1909
20.846	61.1086
20.864	61.031
20.882	60.9595
20.9	60.8941
20.918	60.8351
20.936	60.7828
20.954	60.737
20.972	60.6973
20.99	60.6638
21.008	60.6361
21.026	60.6143
21.044	60.5982
21.062	60.588
21.08	60.5835
21.098	60.5853
21.116	60.5934
21.134	60.6079
21.152	60.6295
21.17	60.6579
21.188	60.6934
21.206	60.7364
21.224	60.7862
21.242	60.8427
21.26	60.9061
21.278	60.9742
21.296	61.0474
21.314	61.1242
21.332	61.2018
21.35	61.2812
21.368	61.3582
21.386	61.4321
21.404	61.5018
21.422	61.563
21.44	61.6169
21.458	61.6603
21.476	61.6916
21.494	61.7113
21.512	61.717
21.53	61.7089
21.548	61.6873
21.566	61.6517
21.584	61.6025
21.602	61.5419
21.62	61.4692
21.638	61.3867
21.656	61.2975
21.674	61.2001
21.692	61.0997
21.71	60.997
21.728	60.8929
21.746	60.7924
21.764	60.6942
21.782	60.6014
21.8	60.5168
21.818	60.4391
21.836	60.3717
21.854	60.3151
21.872	60.2689
21.89	60.2345
21.908	60.2118
21.926	60.2
21.944	60.1993
21.962	60.2094
21.98	60.2279
21.998	60.2553
22.016	60.2901
22.034	60.3293
22.052	60.3743
22.07	60.4219
22.088	60.4698
22.106	60.5191
22.124	60.5659
22.142	60.6096
22.16	60.6501
22.178	60.684
22.196	60.712
22.214	60.7331
22.232	60.7453
22.25	60.7494
22.268	60.7446
22.286	60.7305
22.304	60.7073
22.322	60.6756
22.34	60.6348
22.358	60.5857
22.376	60.5302
22.394	60.4673
22.412	60.3988
22.43	60.3271
22.448	60.2509
22.466	60.173
22.484	60.0957
22.502	60.0176
22.52	59.9425
22.538	59.8716
22.556	59.8043
22.574	59.7441
22.592	59.6913
22.61	59.646
22.628	59.611
22.646	59.5857
22.664	59.5709
22.682	59.568
22.7	59.5768
22.718	59.5973
22.736	59.6302
22.754	59.6756
22.772	59.7325
22.79	59.8006
22.808	59.8802
22.826	59.9697
22.844	60.0679
22.862	60.1756
22.88	60.2901
22.898	60.4106
22.916	60.5376
22.934	60.6679
22.952	60.8008
22.97	60.9368
22.988	61.0721
23.006	61.2065
23.024	61.34
23.042	61.4692
23.06	61.594
23.078	61.7144
23.096	61.8277
23.114	61.9342
23.132	62.0336
23.15	62.1243
23.168	62.2061
23.186	62.2793
23.204	62.3428
23.222	62.3968
23.24	62.4413
23.258	62.4763
23.276	62.5015
23.294	62.5174
23.312	62.5243
23.33	62.5219
23.348	62.5108
23.366	62.4918
23.384	62.4645
23.402	62.4296
23.42	62.3889
23.438	62.3422
23.456	62.2897
23.474	62.2336
23.492	62.1738
23.51	62.1102
23.528	62.0451
23.546	61.9786
23.564	61.9105
23.582	61.8428
23.6	61.7762
23.618	61.71
23.636	61.6465
23.654	61.5869
23.672	61.5302
23.69	61.478
23.708	61.4314
23.726	61.3896
23.744	61.3532
23.762	61.3229
23.78	61.2984
23.798	61.2796
23.816	61.2664
23.834	61.2592
23.852	61.2572
23.87	61.2598
23.888	61.2677
23.906	61.28
23.924	61.2946
23.942	61.3122
23.96	61.3324
23.978	61.3525
23.996	61.3719
24.014	61.3915
24.032	61.4089
24.05	61.4226
24.068	61.4341
24.086	61.4415
24.104	61.4435
24.122	61.4408
24.14	61.4329
24.158	61.4192
24.176	61.3996
24.194	61.3743
24.212	61.3434
24.23	61.3069
24.248	61.2648
24.266	61.2176
24.284	61.1655
24.302	61.1083
24.32	61.0465
24.338	60.9805
24.356	60.9098
24.374	60.8351
24.392	60.7575
24.41	60.6767
24.428	60.5929
24.446	60.5068
24.464	60.4189
24.482	60.3291
24.5	60.2367
24.518	60.1416
24.536	60.044
24.554	59.9436
24.572	59.84
24.59	59.7332
24.608	59.6233
24.626	59.5102
24.644	59.3934
24.662	59.2729
24.68	59.15
24.698	59.0256
24.716	58.8985
24.734	58.77
24.752	58.6425
24.77	58.5151
24.788	58.3877
24.806	58.2644
24.824	58.1478
24.842	58.0348
24.86	57.929
24.878	57.8347
24.896	57.7497
24.914	57.675
24.932	57.6155
24.95	57.5736
24.968	57.5461
24.986	57.5368
25.004	57.5499
25.022	57.5838
25.04	57.6386
25.058	57.7167
25.076	57.8196
25.094	57.9464
25.112	58.0956
25.13	58.2661
25.148	58.4596
25.166	58.6742
25.184	58.9064
25.202	59.1552
25.22	59.4232
25.238	59.7049
25.256	59.9948
25.274	60.2959
25.292	60.607
25.31	60.9225
25.328	61.2394
25.346	61.5614
25.364	61.8849
25.382	62.206
25.4	62.5251
25.418	62.8431
25.436	63.1578
25.454	63.4676
25.472	63.7735
25.49	64.0753
25.508	64.3725
25.526	64.6643
25.544	64.951
25.562	65.2342
25.58	65.5153
25.598	65.7931
25.616	66.0683
25.634	66.3424
25.652	66.6164
25.67	66.8896
25.688	67.1619
25.706	67.4332
25.724	67.705
25.742	67.9769
25.76	68.2452
25.778	68.5068
25.796	68.7661
25.814	69.0199
25.832	69.2609
25.85	69.4856
25.868	69.7013
25.886	69.8997
25.904	70.0704
25.922	70.2128
25.94	70.3328
25.958	70.4198
25.976	70.4629
25.994	70.4668
26.012	70.4322
26.03	70.3501
26.048	70.2126
26.066	70.0249
26.084	69.7863
26.102	69.4926
26.12	69.1404
26.138	68.7309
26.156	68.2672
26.174	67.7522
26.192	67.1843
26.21	66.5606
26.228	65.8916
26.246	65.1883
26.264	64.4458
26.282	63.6612
26.3	62.8521
26.318	62.0356
26.336	61.201
26.354	60.3494
26.372	59.4998
26.39	58.6696
26.408	57.8429
26.426	57.0261
26.444	56.2396
26.462	55.4999
26.48	54.7914
26.498	54.1205
26.516	53.5016
26.534	52.9449
26.552	52.4377
26.57	51.9871
26.588	51.6047
26.606	51.2974
26.624	51.0554
26.642	50.8842
26.66	50.7918
26.678	50.783
26.696	50.852
26.714	51.0001
26.732	51.2294
26.75	51.5419
26.768	51.9364
26.786	52.4105
26.804	52.9618
26.822	53.5917
26.84	54.3045
26.858	55.0898
26.876	55.9364
26.894	56.8421
26.912	57.8193
26.93	58.8506
26.948	59.9168
26.966	61.0631
26.984	62.3866
27.002	63.6706
27.02	64.6785
27.028	64.9462