File: Bakgrunnsmateriale/MATLAB/FTIR/ftir_data/subAa/Mapping_121/BZ1503107-1_t59.asc
PE IR       SPECTRUM    SPECTRUM    ASCII       PEDS        1.60
  -1
BZ2D63~1.ASC
17/04/07
18:04:21.00
17/04/07
18:04:47.00
tln
$BZ1503107-1_t0059$<tbV0>[5.2,0.0,8.0,0.0,27,1,0]
27.028
64

2002,4.07
MIRTGS : RIGHTBACK : INTERNAL 2
MIR : ON : INTERNAL 2
OPTKBR

0.200000
8
8.000000
FILLER
RATIO
SPECTRUM
UNLOCKED 256

DOUBLE
64
COMBINED
1
0
0

0.002000
RATIO

1
0
TRUE
51149
0
LEFT NOT FITTED RIGHT NOT FITTED 0
NONE
NONE
15600
12
4.427000
51148
TRUE
1 0 8 72 0 0 0 0

15798

#HDR
-1
-1
#GR
µM
%T
2.38419e-05
0.0
2.000000
0.002000
12515
8
80.8841
57.0828
#DATA
2.000000	 66.3347
2.018000	 63.5155
2.036000	 64.8158
2.054000	 64.2435
2.072000	 64.8673
2.090000	 64.396
2.108000	 64.7827
2.126000	 64.9498
2.144000	 64.7015
2.162000	 64.8468
2.180000	 64.9171
2.198000	 65.2023
2.216000	 65.127
2.234000	 65.2537
2.252000	 63.7311
2.270000	 64.7212
2.288000	 64.8705
2.306000	 65.115
2.324000	 65.1606
2.342000	 64.9728
2.360000	 65.2767
2.378000	 65.1037
2.396000	 65.0815
2.414000	 65.0238
2.432000	 64.9657
2.450000	 65.0106
2.468000	 64.7879
2.486000	 64.8882
2.504000	 65.3047
2.522000	 65.1319
2.540000	 65.0557
2.558000	 64.882
2.576000	 65.1699
2.594000	 65.3479
2.612000	 65.0887
2.630000	 65.1793
2.648000	 65.2319
2.666000	 64.9832
2.684000	 65.1048
2.702000	 65.1143
2.720000	 65.0769
2.738000	 65.1288
2.756000	 65.1143
2.774000	 65.0868
2.792000	 65.0985
2.810000	 65.0022
2.828000	 65.037
2.846000	 65.2907
2.864000	 65.2456
2.882000	 65.1563
2.900000	 65.1018
2.918000	 65.0906
2.936000	 64.9246
2.954000	 65.0972
2.972000	 65.1756
2.990000	 64.9964
3.008000	 65.0239
3.026000	 65.033
3.044000	 65.1339
3.062000	 64.8772
3.080000	 65.0392
3.098000	 65.1305
3.116000	 64.97
3.134000	 65.1134
3.152000	 65.0932
3.170000	 65.0723
3.188000	 64.9727
3.206000	 65.1227
3.224000	 65.0593
3.242000	 64.8816
3.260000	 65.0228
3.278000	 64.9095
3.296000	 65.0007
3.314000	 64.8948
3.332000	 65.1115
3.350000	 65.0572
3.368000	 64.7481
3.386000	 64.97
3.404000	 64.9103
3.422000	 64.9196
3.440000	 64.9078
3.458000	 65.0128
3.476000	 64.9879
3.494000	 64.9471
3.512000	 64.8634
3.530000	 64.9441
3.548000	 64.9011
3.566000	 65.0043
3.584000	 64.9397
3.602000	 64.8822
3.620000	 64.9095
3.638000	 64.9682
3.656000	 64.8999
3.674000	 64.8494
3.692000	 64.8073
3.710000	 64.8672
3.728000	 64.8387
3.746000	 64.8829
3.764000	 64.8479
3.782000	 64.8862
3.800000	 64.9115
3.818000	 64.8298
3.836000	 64.8551
3.854000	 64.8098
3.872000	 64.8651
3.890000	 64.8002
3.908000	 64.7904
3.926000	 64.8888
3.944000	 64.8101
3.962000	 64.7913
3.980000	 64.9688
3.998000	 64.7855
4.016000	 64.9247
4.034000	 64.871
4.052000	 64.7744
4.070000	 64.8144
4.088000	 64.8552
4.106000	 64.8858
4.124000	 64.8291
4.141999	 64.8427
4.160000	 64.7675
4.178000	 64.7837
4.196000	 64.7732
4.214000	 64.6802
4.232000	 64.7747
4.250000	 64.7915
4.268000	 64.8013
4.286000	 64.82
4.304000	 64.7678
4.322000	 64.6919
4.340000	 64.7572
4.358000	 64.796
4.375999	 64.706
4.394000	 64.5918
4.412000	 64.687
4.430000	 64.8771
4.448000	 64.7699
4.466000	 64.7121
4.484000	 64.6899
4.502000	 64.7695
4.520000	 64.7374
4.538000	 64.7444
4.556000	 64.7697
4.574000	 64.6437
4.592000	 64.6892
4.609999	 64.607
4.628000	 64.6698
4.646000	 64.58
4.664000	 64.5967
4.682000	 64.6956
4.700000	 64.6982
4.718000	 64.7482
4.736000	 64.6549
4.754000	 64.6053
4.772000	 64.7283
4.790000	 64.6487
4.808000	 64.7286
4.826000	 64.5518
4.843999	 64.5951
4.862000	 64.4823
4.880000	 64.5275
4.898000	 64.5788
4.916000	 64.5663
4.934000	 64.5996
4.952000	 64.6267
4.970000	 64.5662
4.988000	 64.6252
5.006000	 64.5854
5.024000	 64.6495
5.042000	 64.5996
5.060000	 64.4222
5.077999	 64.5079
5.096000	 64.46
5.114000	 64.3916
5.132000	 64.4817
5.150000	 64.5972
5.168000	 64.5696
5.186000	 64.4536
5.204000	 64.4584
5.222000	 64.5463
5.240000	 64.4791
5.258000	 64.4464
5.276000	 64.3969
5.294000	 64.3814
5.312000	 64.4486
5.330000	 64.5465
5.348000	 64.5546
5.366000	 64.545
5.384000	 64.5308
5.402000	 64.4353
5.420000	 64.3084
5.438000	 64.4462
5.456000	 64.4905
5.474000	 64.4249
5.492000	 64.457
5.510000	 64.4355
5.528000	 64.4431
5.546000	 64.4486
5.564000	 64.3854
5.582000	 64.4363
5.600000	 64.4079
5.618000	 64.4115
5.636000	 64.4325
5.654000	 64.4171
5.672000	 64.45
5.690000	 64.3402
5.708000	 64.2259
5.726000	 64.2242
5.744000	 64.1593
5.762000	 64.0661
5.780000	 64.1048
5.798000	 64.1969
5.816000	 64.2204
5.834000	 64.2483
5.852000	 64.2569
5.870000	 64.1758
5.888000	 64.137
5.906000	 64.2492
5.923999	 64.2338
5.942000	 64.1856
5.960000	 64.1469
5.978000	 64.0782
5.996000	 64.1102
6.014000	 64.1851
6.032000	 64.2472
6.050000	 64.286
6.068000	 64.2554
6.086000	 64.2202
6.104000	 64.1914
6.122000	 64.235
6.140000	 64.305
6.158000	 64.2344
6.176000	 64.1322
6.194000	 64.2166
6.212000	 64.2768
6.230000	 64.2455
6.248000	 64.2282
6.266000	 64.1736
6.284000	 64.1135
6.302000	 64.1258
6.320000	 64.1142
6.338000	 64.0379
6.356000	 64.0541
6.374000	 64.1326
6.392000	 64.1649
6.410000	 64.1453
6.428000	 64.1316
6.446000	 64.0915
6.464000	 64.0705
6.482000	 64.1404
6.500000	 64.1624
6.518000	 64.0933
6.536000	 64.0558
6.554000	 64.0893
6.572000	 64.1729
6.590000	 64.2375
6.608000	 64.1923
6.626000	 64.1006
6.644000	 64.0758
6.662000	 64.0516
6.680000	 64.0006
6.698000	 64.0408
6.716000	 64.1196
6.734000	 64.144
6.752000	 64.0938
6.770000	 64.0634
6.788000	 64.1036
6.806000	 64.1105
6.824000	 64.0499
6.842000	 63.9955
6.860000	 63.9859
6.878000	 64.0023
6.896000	 64.0459
6.914000	 64.0989
6.932000	 64.1219
6.950000	 64.1278
6.968000	 64.1416
6.986000	 64.1493
7.004000	 64.1513
7.022000	 64.1634
7.040000	 64.1448
7.058000	 64.071
7.076000	 64.0137
7.094000	 64.0255
7.112000	 64.0512
7.130000	 64.0407
7.148000	 64.0229
7.166000	 64.0214
7.184000	 64.0027
7.202000	 63.9407
7.220000	 63.8754
7.238000	 63.8685
7.256000	 63.9316
7.274000	 64.0343
7.292000	 64.0993
7.310000	 64.0466
7.328000	 63.9282
7.346000	 63.8767
7.364000	 63.8934
7.382000	 63.868
7.400000	 63.787
7.418000	 63.7476
7.436000	 63.7902
7.454000	 63.8582
7.472000	 63.8997
7.490000	 63.915
7.508000	 63.9218
7.526000	 63.9262
7.544000	 63.9242
7.562000	 63.9217
7.580000	 63.9382
7.598000	 63.9685
7.616000	 63.9704
7.634000	 63.9307
7.652000	 63.9048
7.670000	 63.9406
7.688000	 64.0011
7.706000	 64.0083
7.724000	 63.9389
7.742000	 63.8414
7.760000	 63.7791
7.778000	 63.7761
7.796000	 63.8053
7.814000	 63.8274
7.832000	 63.837
7.850000	 63.847
7.868000	 63.8491
7.886000	 63.8324
7.904000	 63.8192
7.922000	 63.8313
7.940000	 63.855
7.958000	 63.8675
7.976000	 63.8616
7.994000	 63.838
8.012000	 63.8164
8.030000	 63.8341
8.048000	 63.8885
8.065999	 63.9194
8.084000	 63.8861
8.102000	 63.8204
8.120000	 63.7722
8.138000	 63.7544
8.155999	 63.7614
8.173999	 63.7906
8.192000	 63.8219
8.210000	 63.8254
8.228000	 63.8063
8.246000	 63.8044
8.263999	 63.8323
8.282000	 63.8553
8.300000	 63.845
8.318000	 63.82
8.336000	 63.813
8.353999	 63.8185
8.372000	 63.7991
8.390000	 63.7375
8.408000	 63.6664
8.426000	 63.6361
8.443999	 63.6582
8.462000	 63.6959
8.480000	 63.7117
8.498000	 63.7047
8.516000	 63.6965
8.533999	 63.6972
8.552000	 63.6994
8.570000	 63.6922
8.588000	 63.6693
8.606000	 63.6364
8.624000	 63.6155
8.641999	 63.629
8.660000	 63.6696
8.678000	 63.6949
8.696000	 63.6654
8.714000	 63.5888
8.731999	 63.5162
8.750000	 63.4977
8.768000	 63.5445
8.786000	 63.6298
8.804000	 63.7137
8.821999	 63.7655
8.840000	 63.7698
8.858000	 63.7311
8.876000	 63.674
8.894000	 63.6311
8.911999	 63.6205
8.930000	 63.6386
8.948000	 63.6677
8.966000	 63.6884
8.984000	 63.6857
9.001999	 63.6582
9.020000	 63.6264
9.038000	 63.6225
9.056000	 63.6614
9.074000	 63.7231
9.092000	 63.7692
9.109999	 63.7704
9.128000	 63.7197
9.146000	 63.6315
9.164000	 63.5348
9.182000	 63.464
9.199999	 63.4444
9.218000	 63.4739
9.236000	 63.5216
9.254000	 63.5492
9.272000	 63.5416
9.289999	 63.5168
9.308000	 63.5078
9.326000	 63.531
9.344000	 63.5723
9.362000	 63.6026
9.379999	 63.6073
9.398000	 63.5993
9.416000	 63.6064
9.434000	 63.6437
9.452000	 63.7019
9.469999	 63.7562
9.488000	 63.7866
9.506000	 63.7901
9.524000	 63.7768
9.542000	 63.7597
9.560000	 63.748
9.577999	 63.7459
9.596000	 63.7528
9.614000	 63.7572
9.632000	 63.7388
9.650000	 63.682
9.667999	 63.5924
9.686000	 63.5014
9.704000	 63.4484
9.722000	 63.4542
9.740000	 63.5069
9.757999	 63.5719
9.776000	 63.6138
9.794000	 63.6153
9.812000	 63.5814
9.830000	 63.5327
9.847999	 63.4967
9.866000	 63.4968
9.884000	 63.5423
9.902000	 63.6218
9.920000	 63.7065
9.937999	 63.7651
9.956000	 63.7825
9.974000	 63.7658
9.992000	 63.7347
10.01	63.7068
10.028	63.6881
10.046	63.6763
10.064	63.6697
10.082	63.6716
10.1	63.6866
10.118	63.7131
10.136	63.7396
10.154	63.7526
10.172	63.7452
10.19	63.7241
10.208	63.7061
10.226	63.7058
10.244	63.7253
10.262	63.7508
10.28	63.7603
10.298	63.7374
10.316	63.6802
10.334	63.6026
10.352	63.5245
10.37	63.4628
10.388	63.425
10.406	63.4099
10.424	63.4134
10.442	63.4312
10.46	63.4615
10.478	63.5014
10.496	63.5455
10.514	63.5863
10.532	63.6152
10.55	63.6258
10.568	63.6156
10.586	63.5879
10.604	63.5504
10.622	63.5129
10.64	63.4829
10.658	63.4632
10.676	63.4534
10.694	63.4512
10.712	63.4558
10.73	63.4672
10.748	63.4853
10.766	63.5077
10.784	63.5299
10.802	63.5459
10.82	63.5522
10.838	63.5485
10.856	63.537
10.874	63.5209
10.892	63.503
10.91	63.4859
10.928	63.4725
10.946	63.4649
10.964	63.4638
10.982	63.4679
11	63.4744
11.018	63.4802
11.036	63.483
11.054	63.4824
11.072	63.48
11.09	63.4791
11.108	63.484
11.126	63.4977
11.144	63.5211
11.162	63.552
11.18	63.5861
11.198	63.6183
11.216	63.6457
11.234	63.6688
11.252	63.6903
11.27	63.7124
11.288	63.7337
11.306	63.7485
11.324	63.7484
11.342	63.7272
11.36	63.6845
11.378	63.6269
11.396	63.5656
11.414	63.5127
11.432	63.477
11.45	63.4618
11.468	63.4658
11.486	63.4857
11.504	63.5179
11.522	63.5589
11.54	63.6052
11.558	63.6508
11.576	63.6886
11.594	63.7118
11.612	63.716
11.63	63.7007
11.648	63.6694
11.666	63.6293
11.684	63.5886
11.702	63.5542
11.72	63.5304
11.738	63.519
11.756	63.5191
11.774	63.5286
11.792	63.5444
11.81	63.5637
11.828	63.5838
11.846	63.6017
11.864	63.6144
11.882	63.6193
11.9	63.6152
11.918	63.6031
11.936	63.5873
11.954	63.5748
11.972	63.5744
11.99	63.5933
12.008	63.6348
12.026	63.6955
12.044	63.7654
12.062	63.8286
12.08	63.8692
12.098	63.8754
12.116	63.8446
12.134	63.7852
12.152	63.7146
12.17	63.6514
12.188	63.6107
12.206	63.5979
12.224	63.6089
12.242	63.6328
12.26	63.6581
12.278	63.6755
12.296	63.6819
12.314	63.6785
12.332	63.6699
12.35	63.6603
12.368	63.6523
12.386	63.6454
12.404	63.6361
12.422	63.6202
12.44	63.5947
12.458	63.5593
12.476	63.5176
12.494	63.4764
12.512	63.4434
12.53	63.4251
12.548	63.4243
12.566	63.4398
12.584	63.4665
12.602	63.4971
12.62	63.5244
12.638	63.5427
12.656	63.5496
12.674	63.5458
12.692	63.5348
12.71	63.5217
12.728	63.5112
12.746	63.5067
12.764	63.5092
12.782	63.5172
12.8	63.5271
12.818	63.5345
12.836	63.5357
12.854	63.5286
12.872	63.5132
12.89	63.4917
12.908	63.4671
12.926	63.4428
12.944	63.421
12.962	63.4025
12.98	63.3869
12.998	63.3731
13.016	63.3606
13.034	63.3499
13.052	63.3433
13.07	63.3437
13.088	63.354
13.106	63.3755
13.124	63.407
13.142	63.4442
13.16	63.4808
13.178	63.5091
13.196	63.522
13.214	63.515
13.232	63.4863
13.25	63.4385
13.268	63.3769
13.286	63.3095
13.304	63.2449
13.322	63.191
13.34	63.1536
13.358	63.1362
13.376	63.1389
13.394	63.1594
13.412	63.1937
13.43	63.2365
13.448	63.2824
13.466	63.3263
13.484	63.3638
13.502	63.392
13.52	63.4092
13.538	63.4148
13.556	63.4096
13.574	63.3955
13.592	63.3749
13.61	63.3507
13.628	63.326
13.646	63.3036
13.664	63.2857
13.682	63.274
13.7	63.2688
13.718	63.2693
13.736	63.2744
13.754	63.282
13.772	63.2906
13.79	63.2992
13.808	63.308
13.826	63.318
13.844	63.3303
13.862	63.3456
13.88	63.3636
13.898	63.3827
13.916	63.4007
13.934	63.4143
13.952	63.4206
13.97	63.4174
13.988	63.4037
14.006	63.3803
14.024	63.3492
14.042	63.3131
14.06	63.2752
14.078	63.2382
14.096	63.2045
14.114	63.1756
14.132	63.1525
14.15	63.1359
14.168	63.1261
14.186	63.1235
14.204	63.1285
14.222	63.141
14.24	63.1604
14.258	63.1857
14.276	63.2149
14.294	63.2454
14.312	63.2745
14.33	63.2995
14.348	63.3182
14.366	63.3297
14.384	63.3343
14.402	63.3338
14.42	63.3304
14.438	63.3267
14.456	63.3245
14.474	63.3251
14.492	63.3283
14.51	63.3327
14.528	63.3363
14.546	63.3372
14.564	63.3342
14.582	63.3272
14.6	63.3175
14.618	63.3075
14.636	63.3005
14.654	63.2991
14.672	63.3052
14.69	63.319
14.708	63.3393
14.726	63.3629
14.744	63.3857
14.762	63.4033
14.78	63.4126
14.798	63.4124
14.816	63.4028
14.834	63.3861
14.852	63.3671
14.87	63.3504
14.888	63.3404
14.906	63.3401
14.924	63.3512
14.942	63.3726
14.96	63.401
14.978	63.432
14.996	63.4609
15.014	63.483
15.032	63.4946
15.05	63.4942
15.068	63.4825
15.086	63.4611
15.104	63.433
15.122	63.4018
15.14	63.3706
15.158	63.3414
15.176	63.3155
15.194	63.2935
15.212	63.2747
15.23	63.2584
15.248	63.244
15.266	63.2311
15.284	63.2205
15.302	63.2138
15.32	63.212
15.338	63.2161
15.356	63.2266
15.374	63.2423
15.392	63.2614
15.41	63.2817
15.428	63.2994
15.446	63.3108
15.464	63.3135
15.482	63.3057
15.5	63.2871
15.518	63.26
15.536	63.2278
15.554	63.1944
15.572	63.1644
15.59	63.1421
15.608	63.1292
15.626	63.1262
15.644	63.1319
15.662	63.1417
15.68	63.1508
15.698	63.1544
15.716	63.1466
15.734	63.124
15.752	63.0855
15.77	63.0314
15.788	62.9654
15.806	62.8935
15.824	62.8214
15.842	62.7568
15.86	62.7083
15.878	62.6813
15.896	62.6811
15.914	62.712
15.932	62.7745
15.95	62.8679
15.968	62.9897
15.986	63.1337
16.004	63.294
16.022	63.4636
16.04	63.6322
16.058	63.7917
16.076	63.9351
16.094	64.0538
16.112	64.142
16.13	64.1965
16.148	64.2142
16.166	64.1951
16.184	64.1413
16.202	64.0554
16.22	63.9441
16.238	63.813
16.256	63.6682
16.274	63.5192
16.292	63.3719
16.31	63.2319
16.328	63.1061
16.346	62.9979
16.364	62.9101
16.382	62.8449
16.4	62.8017
16.418	62.7802
16.436	62.7781
16.454	62.7927
16.472	62.8218
16.49	62.861
16.508	62.9069
16.526	62.9569
16.544	63.0063
16.562	63.0525
16.58	63.0935
16.598	63.1265
16.616	63.1506
16.634	63.165
16.652	63.1698
16.67	63.1654
16.688	63.1525
16.706	63.1325
16.724	63.1061
16.742	63.0742
16.76	63.0378
16.778	62.9972
16.796	62.9529
16.814	62.9052
16.832	62.8541
16.85	62.8002
16.868	62.7437
16.886	62.685
16.904	62.6256
16.922	62.5668
16.94	62.5102
16.958	62.4588
16.976	62.4141
16.994	62.3791
17.012	62.3557
17.03	62.3452
17.048	62.3492
17.066	62.3676
17.084	62.4007
17.102	62.4467
17.12	62.5045
17.138	62.5712
17.156	62.6443
17.174	62.7214
17.192	62.7985
17.21	62.8742
17.228	62.9454
17.246	63.0102
17.264	63.0674
17.282	63.115
17.3	63.1528
17.318	63.1802
17.336	63.1977
17.354	63.2053
17.372	63.2046
17.39	63.1963
17.408	63.1821
17.426	63.1638
17.444	63.1428
17.462	63.1216
17.48	63.1009
17.498	63.0833
17.516	63.0693
17.534	63.06
17.552	63.0558
17.57	63.0566
17.588	63.0621
17.606	63.0714
17.624	63.0837
17.642	63.0978
17.66	63.1131
17.678	63.1282
17.696	63.1431
17.714	63.1571
17.732	63.1701
17.75	63.182
17.768	63.1932
17.786	63.2036
17.804	63.2141
17.822	63.2248
17.84	63.236
17.858	63.2473
17.876	63.2584
17.894	63.2682
17.912	63.2762
17.93	63.2801
17.948	63.2797
17.966	63.2726
17.984	63.2589
18.002	63.2373
18.02	63.2086
18.038	63.1726
18.056	63.1317
18.074	63.0861
18.092	63.0405
18.11	62.9956
18.128	62.9566
18.146	62.9246
18.164	62.9043
18.182	62.8963
18.2	62.9034
18.218	62.9246
18.236	62.9609
18.254	63.0084
18.272	63.0667
18.29	63.1292
18.308	63.195
18.326	63.2558
18.344	63.3108
18.362	63.352
18.38	63.3789
18.398	63.3868
18.416	63.3761
18.434	63.3446
18.452	63.2957
18.47	63.23
18.488	63.154
18.506	63.069
18.524	62.9846
18.542	62.9025
18.56	62.8327
18.578	62.7765
18.596	62.7419
18.614	62.7294
18.632	62.7432
18.65	62.7829
18.668	62.8471
18.686	62.9348
18.704	63.0405
18.722	63.1623
18.74	63.2911
18.758	63.4248
18.776	63.5536
18.794	63.6754
18.812	63.7808
18.83	63.8688
18.848	63.9323
18.866	63.9714
18.884	63.9826
18.902	63.9674
18.92	63.9255
18.938	63.8602
18.956	63.774
18.974	63.6708
18.992	63.5555
19.01	63.4321
19.028	63.3071
19.046	63.1839
19.064	63.0693
19.082	62.9657
19.1	62.8798
19.118	62.8124
19.136	62.7682
19.154	62.7471
19.172	62.7519
19.19	62.7811
19.208	62.8342
19.226	62.9096
19.244	63.0038
19.262	63.1153
19.28	63.2375
19.298	63.3695
19.316	63.5016
19.334	63.6339
19.352	63.7565
19.37	63.8701
19.388	63.9653
19.406	64.0425
19.424	64.0971
19.442	64.1288
19.46	64.1377
19.478	64.1227
19.496	64.0888
19.514	64.0358
19.532	63.9708
19.55	63.8965
19.568	63.8185
19.586	63.7428
19.604	63.6718
19.622	63.6137
19.64	63.568
19.658	63.5405
19.676	63.5303
19.694	63.5389
19.712	63.5663
19.73	63.6075
19.748	63.6633
19.766	63.7256
19.784	63.7938
19.802	63.8604
19.82	63.9212
19.838	63.9729
19.856	64.0084
19.874	64.0283
19.892	64.0265
19.91	64.0041
19.928	63.9604
19.946	63.8948
19.964	63.8119
19.982	63.7109
20	63.5979
20.018	63.4754
20.036	63.347
20.054	63.2195
20.072	63.0928
20.09	62.9758
20.108	62.8671
20.126	62.7728
20.144	62.693
20.162	62.6292
20.18	62.5828
20.198	62.5526
20.216	62.5385
20.234	62.54
20.252	62.5541
20.27	62.5813
20.288	62.6181
20.306	62.6642
20.324	62.7176
20.342	62.7769
20.36	62.8418
20.378	62.9105
20.396	62.9834
20.414	63.0601
20.432	63.1406
20.45	63.2249
20.468	63.3128
20.486	63.4045
20.504	63.5003
20.522	63.6001
20.54	63.7032
20.558	63.8099
20.576	63.9188
20.594	64.0297
20.612	64.1416
20.63	64.2524
20.648	64.3624
20.666	64.4681
20.684	64.5699
20.702	64.6654
20.72	64.753
20.738	64.8328
20.756	64.9018
20.774	64.9606
20.792	65.008
20.81	65.0436
20.828	65.0678
20.846	65.0802
20.864	65.0809
20.882	65.0713
20.9	65.051
20.918	65.0217
20.936	64.9843
20.954	64.9389
20.972	64.8882
20.99	64.8316
21.008	64.7713
21.026	64.7082
21.044	64.6427
21.062	64.577
21.08	64.5105
21.098	64.445
21.116	64.3808
21.134	64.318
21.152	64.2577
21.17	64.1996
21.188	64.1438
21.206	64.0906
21.224	64.0396
21.242	63.9905
21.26	63.9434
21.278	63.8973
21.296	63.852
21.314	63.8073
21.332	63.7621
21.35	63.7166
21.368	63.67
21.386	63.6219
21.404	63.5723
21.422	63.5209
21.44	63.4677
21.458	63.4131
21.476	63.3568
21.494	63.2992
21.512	63.2417
21.53	63.1836
21.548	63.1264
21.566	63.0709
21.584	63.0168
21.602	62.9663
21.62	62.9193
21.638	62.8766
21.656	62.8395
21.674	62.8075
21.692	62.782
21.71	62.7635
21.728	62.7516
21.746	62.7468
21.764	62.7491
21.782	62.7582
21.8	62.774
21.818	62.7964
21.836	62.8242
21.854	62.8578
21.872	62.8964
21.89	62.9384
21.908	62.9845
21.926	63.0331
21.944	63.0834
21.962	63.1356
21.98	63.1874
21.998	63.2389
22.016	63.2895
22.034	63.3372
22.052	63.383
22.07	63.425
22.088	63.4619
22.106	63.4943
22.124	63.5201
22.142	63.5389
22.16	63.5506
22.178	63.5532
22.196	63.5473
22.214	63.5318
22.232	63.5055
22.25	63.4688
22.268	63.4217
22.286	63.3637
22.304	63.2952
22.322	63.2178
22.34	63.131
22.358	63.0358
22.376	62.9355
22.394	62.8287
22.412	62.7179
22.43	62.6067
22.448	62.4933
22.466	62.3814
22.484	62.274
22.502	62.1694
22.52	62.0717
22.538	61.9826
22.556	61.901
22.574	61.8295
22.592	61.7687
22.61	61.718
22.628	61.6777
22.646	61.6484
22.664	61.6289
22.682	61.6174
22.7	61.6151
22.718	61.6197
22.736	61.6286
22.754	61.6436
22.772	61.6614
22.79	61.6796
22.808	61.6996
22.826	61.7191
22.844	61.7365
22.862	61.7527
22.88	61.7667
22.898	61.7774
22.916	61.7853
22.934	61.7918
22.952	61.7966
22.97	61.7998
22.988	61.8045
23.006	61.8107
23.024	61.8185
23.042	61.8324
23.06	61.8524
23.078	61.8786
23.096	61.9142
23.114	61.9592
23.132	62.0135
23.15	62.0792
23.168	62.1566
23.186	62.2451
23.204	62.3448
23.222	62.4565
23.24	62.579
23.258	62.7101
23.276	62.8511
23.294	63.0002
23.312	63.1534
23.33	63.3119
23.348	63.4742
23.366	63.635
23.384	63.7947
23.402	63.953
23.42	64.1053
23.438	64.2523
23.456	64.3935
23.474	64.5246
23.492	64.6452
23.51	64.7558
23.528	64.853
23.546	64.9362
23.564	65.0062
23.582	65.0603
23.6	65.0974
23.618	65.1187
23.636	65.1226
23.654	65.1085
23.672	65.077
23.69	65.0277
23.708	64.9602
23.726	64.8745
23.744	64.7718
23.762	64.6525
23.78	64.5161
23.798	64.364
23.816	64.1975
23.834	64.0156
23.852	63.8199
23.87	63.6129
23.888	63.3932
23.906	63.1623
23.924	62.9239
23.942	62.6773
23.96	62.4227
23.978	62.1651
23.996	61.9053
24.014	61.642
24.032	61.3798
24.05	61.1217
24.068	60.8647
24.086	60.6133
24.104	60.3718
24.122	60.1373
24.14	59.9125
24.158	59.7017
24.176	59.503
24.194	59.3176
24.212	59.1491
24.23	58.9979
24.248	58.863
24.266	58.7472
24.284	58.6518
24.302	58.5754
24.32	58.5197
24.338	58.4867
24.356	58.4758
24.374	58.4864
24.392	58.5186
24.41	58.5726
24.428	58.648
24.446	58.744
24.464	58.8606
24.482	58.9981
24.5	59.1545
24.518	59.3282
24.536	59.5205
24.554	59.73
24.572	59.9544
24.59	60.1953
24.608	60.4515
24.626	60.7196
24.644	60.9979
24.662	61.2883
24.68	61.5881
24.698	61.8951
24.716	62.2113
24.734	62.5345
24.752	62.8614
24.77	63.1916
24.788	63.526
24.806	63.8627
24.824	64.2
24.842	64.539
24.86	64.8793
24.878	65.2205
24.896	65.5624
24.914	65.9053
24.932	66.2491
24.95	66.5937
24.968	66.939
24.986	67.2853
25.004	67.633
25.022	67.9829
25.04	68.3339
25.058	68.6842
25.076	69.0335
25.094	69.3834
25.112	69.7303
25.13	70.0711
25.148	70.4096
25.166	70.7426
25.184	71.0632
25.202	71.3693
25.22	71.6656
25.238	71.9443
25.256	72.1979
25.274	72.4317
25.292	72.6431
25.31	72.8224
25.328	72.9644
25.346	73.0763
25.364	73.1509
25.382	73.18
25.4	73.165
25.418	73.1076
25.436	73.0031
25.454	72.8476
25.472	72.6427
25.49	72.3901
25.508	72.0912
25.526	71.7442
25.544	71.349
25.562	70.9129
25.58	70.4424
25.598	69.9298
25.616	69.3812
25.634	68.8097
25.652	68.2217
25.67	67.6055
25.688	66.9758
25.706	66.3503
25.724	65.7263
25.742	65.0982
25.76	64.4853
25.778	63.9056
25.796	63.3462
25.814	62.8122
25.832	62.3209
25.85	61.8832
25.868	61.4858
25.886	61.1382
25.904	60.853
25.922	60.6336
25.94	60.4729
25.958	60.3764
25.976	60.3497
25.994	60.3933
26.012	60.5043
26.03	60.6813
26.048	60.9234
26.066	61.2335
26.084	61.6078
26.102	62.0407
26.12	62.5296
26.138	63.0813
26.156	63.6866
26.174	64.3346
26.192	65.0244
26.21	65.764
26.228	66.5384
26.246	67.3321
26.264	68.149
26.282	68.9942
26.3	69.8498
26.318	70.6979
26.336	71.5481
26.354	72.4006
26.372	73.2382
26.39	74.0455
26.408	74.835
26.426	75.6026
26.444	76.3331
26.462	77.0142
26.48	77.6589
26.498	78.2609
26.516	78.807
26.534	79.2876
26.552	79.713
26.57	80.0789
26.588	80.3782
26.606	80.6055
26.624	80.7659
26.642	80.8589
26.66	80.8834
26.678	80.837
26.696	80.7188
26.714	80.5345
26.732	80.2907
26.75	79.9885
26.768	79.6205
26.786	79.1979
26.804	78.7333
26.822	78.2301
26.84	77.6753
26.858	77.0853
26.876	76.4781
26.894	75.8599
26.912	75.2131
26.93	74.5562
26.948	73.9104
26.966	73.2643
26.984	72.5687
27.002	71.9157
27.02	71.4073
27.028	71.2699