File: Bakgrunnsmateriale/MATLAB/FTIR/ftir_data/subAa/Mapping_121/BZ1503107-1_t45.asc
PE IR       SPECTRUM    SPECTRUM    ASCII       PEDS        1.60
  -1
BZ2D5D~1.ASC
17/04/07
16:59:02.00
17/04/07
16:59:29.00
tln
$BZ1503107-1_t0045$<tbV0>[13.0,-2.6,8.0,0.0,27,1,0]
27.028
64

2002,4.07
MIRTGS : RIGHTBACK : INTERNAL 2
MIR : ON : INTERNAL 2
OPTKBR

0.200000
8
8.000000
FILLER
RATIO
SPECTRUM
UNLOCKED 256

DOUBLE
64
COMBINED
1
0
0

0.002000
RATIO

1
0
TRUE
51149
0
LEFT NOT FITTED RIGHT NOT FITTED 0
NONE
NONE
15600
12
4.427000
51148
TRUE
1 0 8 72 0 0 0 0

15798

#HDR
-1
-1
#GR
µM
%T
2.38419e-05
0.0
2.000000
0.002000
12515
8
75.8533
52.8803
#DATA
2.000000	 65.2387
2.018000	 64.6322
2.036000	 65.0003
2.054000	 65.1477
2.072000	 64.5425
2.090000	 64.7949
2.108000	 65.1664
2.126000	 64.9244
2.144000	 65.0387
2.162000	 65.321
2.180000	 64.7966
2.198000	 65.0192
2.216000	 64.3391
2.234000	 64.0308
2.252000	 62.675
2.270000	 66.6067
2.288000	 64.8306
2.306000	 64.431
2.324000	 64.7816
2.342000	 64.6593
2.360000	 65.0255
2.378000	 64.8927
2.396000	 64.8411
2.414000	 65.4908
2.432000	 64.9565
2.450000	 65.0684
2.468000	 65.036
2.486000	 64.9184
2.504000	 65.1775
2.522000	 65.1436
2.540000	 64.9607
2.558000	 65.0671
2.576000	 65.0984
2.594000	 64.9292
2.612000	 65.0523
2.630000	 65.2697
2.648000	 65.1216
2.666000	 64.9692
2.684000	 65.0868
2.702000	 65.19
2.720000	 65.2098
2.738000	 65.0393
2.756000	 65.1581
2.774000	 65.2186
2.792000	 65.0129
2.810000	 65.1975
2.828000	 65.0583
2.846000	 65.1716
2.864000	 65.0802
2.882000	 65.0984
2.900000	 65.1691
2.918000	 65.0884
2.936000	 64.9972
2.954000	 65.1494
2.972000	 65.194
2.990000	 65.0805
3.008000	 65.0527
3.026000	 65.2122
3.044000	 64.9728
3.062000	 64.9731
3.080000	 65.0798
3.098000	 65.1318
3.116000	 65.2045
3.134000	 65.0724
3.152000	 65.0981
3.170000	 65.0095
3.188000	 65.193
3.206000	 64.8838
3.224000	 65.1879
3.242000	 64.958
3.260000	 64.9664
3.278000	 64.9741
3.296000	 65.1175
3.314000	 65.097
3.332000	 64.9757
3.350000	 64.9499
3.368000	 64.8065
3.386000	 64.8368
3.404000	 64.7203
3.422000	 64.6873
3.440000	 64.7931
3.458000	 64.9165
3.476000	 64.9029
3.494000	 65.0109
3.512000	 64.9489
3.530000	 65.0519
3.548000	 64.9003
3.566000	 64.9252
3.584000	 64.977
3.602000	 65.0596
3.620000	 64.9205
3.638000	 64.917
3.656000	 65.0106
3.674000	 64.9935
3.692000	 65.0649
3.710000	 65.0146
3.728000	 64.9329
3.746000	 64.9226
3.764000	 64.8616
3.782000	 64.8882
3.800000	 65.0198
3.818000	 64.893
3.836000	 64.9445
3.854000	 64.9226
3.872000	 64.8799
3.890000	 64.8803
3.908000	 64.7776
3.926000	 64.9049
3.944000	 64.9
3.962000	 65.0705
3.980000	 64.9438
3.998000	 64.936
4.016000	 64.8958
4.034000	 64.8813
4.052000	 64.7801
4.070000	 64.7745
4.088000	 64.8574
4.106000	 64.9342
4.124000	 64.9509
4.141999	 64.8509
4.160000	 64.85
4.178000	 64.852
4.196000	 64.7469
4.214000	 64.7822
4.232000	 64.7689
4.250000	 64.685
4.268000	 64.7983
4.286000	 64.8699
4.304000	 64.8977
4.322000	 64.8168
4.340000	 64.7367
4.358000	 64.7291
4.375999	 64.9376
4.394000	 64.8525
4.412000	 64.8579
4.430000	 64.8189
4.448000	 64.8885
4.466000	 64.829
4.484000	 64.8517
4.502000	 64.7959
4.520000	 64.7301
4.538000	 64.8536
4.556000	 64.8087
4.574000	 64.7489
4.592000	 64.6745
4.609999	 64.6962
4.628000	 64.7383
4.646000	 64.68
4.664000	 64.7894
4.682000	 64.781
4.700000	 64.7542
4.718000	 64.7069
4.736000	 64.7628
4.754000	 64.7285
4.772000	 64.7312
4.790000	 64.6713
4.808000	 64.7076
4.826000	 64.6608
4.843999	 64.6178
4.862000	 64.6594
4.880000	 64.7287
4.898000	 64.7138
4.916000	 64.7147
4.934000	 64.7044
4.952000	 64.7213
4.970000	 64.7421
4.988000	 64.7937
5.006000	 64.715
5.024000	 64.7909
5.042000	 64.7686
5.060000	 64.6555
5.077999	 64.7205
5.096000	 64.6497
5.114000	 64.5606
5.132000	 64.6249
5.150000	 64.6319
5.168000	 64.6946
5.186000	 64.6475
5.204000	 64.6016
5.222000	 64.5385
5.240000	 64.6391
5.258000	 64.5748
5.276000	 64.4649
5.294000	 64.4695
5.312000	 64.4949
5.330000	 64.5393
5.348000	 64.533
5.366000	 64.6219
5.384000	 64.6766
5.402000	 64.681
5.420000	 64.6535
5.438000	 64.6462
5.456000	 64.5818
5.474000	 64.5639
5.492000	 64.5737
5.510000	 64.5825
5.528000	 64.5749
5.546000	 64.6058
5.564000	 64.5453
5.582000	 64.565
5.600000	 64.5975
5.618000	 64.5646
5.636000	 64.5155
5.654000	 64.4383
5.672000	 64.3868
5.690000	 64.4109
5.708000	 64.3792
5.726000	 64.3151
5.744000	 64.3214
5.762000	 64.3493
5.780000	 64.3254
5.798000	 64.3642
5.816000	 64.4095
5.834000	 64.4049
5.852000	 64.3652
5.870000	 64.3118
5.888000	 64.3199
5.906000	 64.3917
5.923999	 64.3533
5.942000	 64.2651
5.960000	 64.2541
5.978000	 64.2827
5.996000	 64.3576
6.014000	 64.4498
6.032000	 64.392
6.050000	 64.3322
6.068000	 64.4012
6.086000	 64.4193
6.104000	 64.2776
6.122000	 64.2908
6.140000	 64.3419
6.158000	 64.3135
6.176000	 64.3478
6.194000	 64.3471
6.212000	 64.3242
6.230000	 64.3339
6.248000	 64.326
6.266000	 64.3229
6.284000	 64.3162
6.302000	 64.3129
6.320000	 64.3007
6.338000	 64.2453
6.356000	 64.2791
6.374000	 64.3409
6.392000	 64.3242
6.410000	 64.2924
6.428000	 64.3383
6.446000	 64.4184
6.464000	 64.3855
6.482000	 64.3081
6.500000	 64.2704
6.518000	 64.2668
6.536000	 64.3164
6.554000	 64.3526
6.572000	 64.3106
6.590000	 64.231
6.608000	 64.1837
6.626000	 64.1868
6.644000	 64.2271
6.662000	 64.2896
6.680000	 64.3148
6.698000	 64.2964
6.716000	 64.2818
6.734000	 64.2728
6.752000	 64.2931
6.770000	 64.3332
6.788000	 64.3113
6.806000	 64.2195
6.824000	 64.1669
6.842000	 64.1997
6.860000	 64.2684
6.878000	 64.2919
6.896000	 64.2317
6.914000	 64.1554
6.932000	 64.1392
6.950000	 64.2036
6.968000	 64.2923
6.986000	 64.318
7.004000	 64.2782
7.022000	 64.2286
7.040000	 64.207
7.058000	 64.213
7.076000	 64.228
7.094000	 64.2461
7.112000	 64.2399
7.130000	 64.1955
7.148000	 64.1543
7.166000	 64.1355
7.184000	 64.1449
7.202000	 64.192
7.220000	 64.2277
7.238000	 64.2189
7.256000	 64.2131
7.274000	 64.2312
7.292000	 64.2253
7.310000	 64.1794
7.328000	 64.1479
7.346000	 64.1616
7.364000	 64.1688
7.382000	 64.1298
7.400000	 64.1024
7.418000	 64.141
7.436000	 64.1798
7.454000	 64.1318
7.472000	 64.04
7.490000	 64.0018
7.508000	 64.0258
7.526000	 64.0684
7.544000	 64.0965
7.562000	 64.0894
7.580000	 64.0594
7.598000	 64.0404
7.616000	 64.05
7.634000	 64.0953
7.652000	 64.1478
7.670000	 64.1547
7.688000	 64.1251
7.706000	 64.1075
7.724000	 64.0996
7.742000	 64.0857
7.760000	 64.0684
7.778000	 64.0267
7.796000	 63.9572
7.814000	 63.9164
7.832000	 63.9354
7.850000	 63.9883
7.868000	 64.0671
7.886000	 64.1634
7.904000	 64.2046
7.922000	 64.1416
7.940000	 64.0449
7.958000	 64.0172
7.976000	 64.0735
7.994000	 64.1427
8.012000	 64.1502
8.030000	 64.0949
8.048000	 64.0353
8.065999	 64.0081
8.084000	 64.0046
8.102000	 64.0114
8.120000	 64.0254
8.138000	 64.0301
8.155999	 64.0099
8.173999	 63.9751
8.192000	 63.9414
8.210000	 63.9044
8.228000	 63.8692
8.246000	 63.8709
8.263999	 63.927
8.282000	 63.9919
8.300000	 64.0101
8.318000	 63.9881
8.336000	 63.9724
8.353999	 63.9779
8.372000	 63.9808
8.390000	 63.969
8.408000	 63.9655
8.426000	 63.9965
8.443999	 64.0559
8.462000	 64.1063
8.480000	 64.1177
8.498000	 64.0984
8.516000	 64.0761
8.533999	 64.0561
8.552000	 64.0227
8.570000	 63.9678
8.588000	 63.903
8.606000	 63.8532
8.624000	 63.8378
8.641999	 63.8522
8.660000	 63.8721
8.678000	 63.8692
8.696000	 63.823
8.714000	 63.7442
8.731999	 63.6829
8.750000	 63.6859
8.768000	 63.7503
8.786000	 63.8343
8.804000	 63.8983
8.821999	 63.9294
8.840000	 63.938
8.858000	 63.9413
8.876000	 63.9489
8.894000	 63.9572
8.911999	 63.9537
8.930000	 63.9296
8.948000	 63.8919
8.966000	 63.8656
8.984000	 63.8722
9.001999	 63.9088
9.020000	 63.9494
9.038000	 63.9699
9.056000	 63.9651
9.074000	 63.9468
9.092000	 63.9276
9.109999	 63.9082
9.128000	 63.8795
9.146000	 63.8384
9.164000	 63.7973
9.182000	 63.7793
9.199999	 63.8047
9.218000	 63.8802
9.236000	 63.9952
9.254000	 64.1219
9.272000	 64.223
9.289999	 64.2647
9.308000	 64.2315
9.326000	 64.1356
9.344000	 64.0123
9.362000	 63.9062
9.379999	 63.8519
9.398000	 63.8593
9.416000	 63.9097
9.434000	 63.9664
9.452000	 63.9969
9.469999	 63.9916
9.488000	 63.9654
9.506000	 63.9401
9.524000	 63.9232
9.542000	 63.9064
9.560000	 63.88
9.577999	 63.8489
9.596000	 63.8309
9.614000	 63.8401
9.632000	 63.8741
9.650000	 63.9155
9.667999	 63.9474
9.686000	 63.9669
9.704000	 63.9843
9.722000	 64.0104
9.740000	 64.0421
9.757999	 64.0601
9.776000	 64.0421
9.794000	 63.981
9.812000	 63.8948
9.830000	 63.8159
9.847999	 63.7712
9.866000	 63.7666
9.884000	 63.7886
9.902000	 63.8166
9.920000	 63.8372
9.937999	 63.8479
9.956000	 63.8524
9.974000	 63.8545
9.992000	 63.8561
10.01	63.8584
10.028	63.8629
10.046	63.8709
10.064	63.8844
10.082	63.9049
10.1	63.9308
10.118	63.9552
10.136	63.9667
10.154	63.9557
10.172	63.9225
10.19	63.8807
10.208	63.8512
10.226	63.8486
10.244	63.8728
10.262	63.9083
10.28	63.9341
10.298	63.9345
10.316	63.9057
10.334	63.8558
10.352	63.799
10.37	63.7496
10.388	63.7168
10.406	63.7035
10.424	63.707
10.442	63.7216
10.46	63.7427
10.478	63.7677
10.496	63.7949
10.514	63.8203
10.532	63.8366
10.55	63.8355
10.568	63.8128
10.586	63.7723
10.604	63.7246
10.622	63.6837
10.64	63.6596
10.658	63.6562
10.676	63.672
10.694	63.7037
10.712	63.7473
10.73	63.7967
10.748	63.8433
10.766	63.8757
10.784	63.8853
10.802	63.8702
10.82	63.8377
10.838	63.8018
10.856	63.7757
10.874	63.7682
10.892	63.7802
10.91	63.8069
10.928	63.8422
10.946	63.8791
10.964	63.9116
10.982	63.9336
11	63.9415
11.018	63.9351
11.036	63.918
11.054	63.8968
11.072	63.8779
11.09	63.8654
11.108	63.8591
11.126	63.8553
11.144	63.85
11.162	63.8413
11.18	63.8318
11.198	63.8284
11.216	63.8386
11.234	63.8668
11.252	63.9109
11.27	63.9622
11.288	64.007
11.306	64.0335
11.324	64.0359
11.342	64.0173
11.36	63.9871
11.378	63.9566
11.396	63.9319
11.414	63.9127
11.432	63.8943
11.45	63.8719
11.468	63.8452
11.486	63.8193
11.504	63.8024
11.522	63.8023
11.54	63.8225
11.558	63.8598
11.576	63.9067
11.594	63.9546
11.612	63.9966
11.63	64.0289
11.648	64.0512
11.666	64.0652
11.684	64.0727
11.702	64.075
11.72	64.0722
11.738	64.0644
11.756	64.0517
11.774	64.0346
11.792	64.0136
11.81	63.9891
11.828	63.9618
11.846	63.9324
11.864	63.9023
11.882	63.8732
11.9	63.8483
11.918	63.8314
11.936	63.8265
11.954	63.8372
11.972	63.8659
11.99	63.9117
12.008	63.9699
12.026	64.0314
12.044	64.0837
12.062	64.1141
12.08	64.1131
12.098	64.0772
12.116	64.0114
12.134	63.928
12.152	63.8447
12.17	63.7773
12.188	63.7372
12.206	63.7279
12.224	63.745
12.242	63.7789
12.26	63.8188
12.278	63.8543
12.296	63.8774
12.314	63.8836
12.332	63.8718
12.35	63.8451
12.368	63.8095
12.386	63.7732
12.404	63.744
12.422	63.7269
12.44	63.7229
12.458	63.7296
12.476	63.743
12.494	63.7592
12.512	63.7764
12.53	63.7955
12.548	63.8196
12.566	63.8515
12.584	63.892
12.602	63.9391
12.62	63.987
12.638	64.0284
12.656	64.0561
12.674	64.0658
12.692	64.0575
12.71	64.0341
12.728	64.0011
12.746	63.9641
12.764	63.9275
12.782	63.8933
12.8	63.8616
12.818	63.8307
12.836	63.7987
12.854	63.7646
12.872	63.7289
12.89	63.6941
12.908	63.6638
12.926	63.6424
12.944	63.6331
12.962	63.6373
12.98	63.6535
12.998	63.6781
13.016	63.7058
13.034	63.7315
13.052	63.7509
13.07	63.7623
13.088	63.7663
13.106	63.766
13.124	63.7656
13.142	63.7683
13.16	63.7757
13.178	63.7862
13.196	63.7962
13.214	63.8003
13.232	63.7937
13.25	63.7728
13.268	63.7374
13.286	63.69
13.304	63.6352
13.322	63.5794
13.34	63.5284
13.358	63.4877
13.376	63.4607
13.394	63.4491
13.412	63.4526
13.43	63.4692
13.448	63.4955
13.466	63.5272
13.484	63.5593
13.502	63.587
13.52	63.6058
13.538	63.6124
13.556	63.606
13.574	63.5884
13.592	63.5643
13.61	63.54
13.628	63.5223
13.646	63.5173
13.664	63.5292
13.682	63.5586
13.7	63.6029
13.718	63.6566
13.736	63.7121
13.754	63.762
13.772	63.7998
13.79	63.8213
13.808	63.8252
13.826	63.8128
13.844	63.7883
13.862	63.7567
13.88	63.7244
13.898	63.6973
13.916	63.6805
13.934	63.6778
13.952	63.6908
13.97	63.719
13.988	63.7597
14.006	63.8076
14.024	63.8553
14.042	63.8944
14.06	63.9162
14.078	63.9136
14.096	63.8821
14.114	63.821
14.132	63.7335
14.15	63.627
14.168	63.5118
14.186	63.3996
14.204	63.3023
14.222	63.2296
14.24	63.1873
14.258	63.1767
14.276	63.1951
14.294	63.2367
14.312	63.294
14.33	63.3593
14.348	63.4256
14.366	63.4875
14.384	63.542
14.402	63.5882
14.42	63.6264
14.438	63.6567
14.456	63.6793
14.474	63.6934
14.492	63.6976
14.51	63.6908
14.528	63.6724
14.546	63.6435
14.564	63.607
14.582	63.5669
14.6	63.529
14.618	63.4994
14.636	63.4839
14.654	63.4858
14.672	63.5058
14.69	63.5423
14.708	63.5917
14.726	63.6487
14.744	63.7074
14.762	63.763
14.78	63.8123
14.798	63.8536
14.816	63.8871
14.834	63.914
14.852	63.9367
14.87	63.9567
14.888	63.9748
14.906	63.9909
14.924	64.0039
14.942	64.0115
14.96	64.0117
14.978	64.0038
14.996	63.9879
15.014	63.9655
15.032	63.9402
15.05	63.9169
15.068	63.9005
15.086	63.8958
15.104	63.9066
15.122	63.9351
15.14	63.9806
15.158	64.0403
15.176	64.1103
15.194	64.1848
15.212	64.2569
15.23	64.3209
15.248	64.372
15.266	64.4061
15.284	64.421
15.302	64.4169
15.32	64.3945
15.338	64.3554
15.356	64.302
15.374	64.2374
15.392	64.1643
15.41	64.0851
15.428	64.0025
15.446	63.9185
15.464	63.8348
15.482	63.753
15.5	63.6744
15.518	63.6011
15.536	63.5343
15.554	63.4746
15.572	63.4225
15.59	63.3779
15.608	63.3404
15.626	63.3092
15.644	63.2838
15.662	63.2629
15.68	63.2462
15.698	63.2332
15.716	63.224
15.734	63.2192
15.752	63.2193
15.77	63.225
15.788	63.237
15.806	63.255
15.824	63.2787
15.842	63.3071
15.86	63.339
15.878	63.3734
15.896	63.4097
15.914	63.4478
15.932	63.4887
15.95	63.5333
15.968	63.583
15.986	63.6406
16.004	63.7077
16.022	63.7853
16.04	63.8738
16.058	63.9708
16.076	64.0734
16.094	64.1763
16.112	64.2722
16.13	64.3551
16.148	64.4178
16.166	64.4527
16.184	64.4565
16.202	64.4255
16.22	64.3599
16.238	64.2633
16.256	64.1395
16.274	63.9989
16.292	63.85
16.31	63.7007
16.328	63.5639
16.346	63.447
16.364	63.3564
16.382	63.299
16.4	63.2763
16.418	63.2892
16.436	63.3358
16.454	63.4114
16.472	63.5123
16.49	63.6301
16.508	63.7573
16.526	63.8882
16.544	64.0122
16.562	64.1232
16.58	64.2158
16.598	64.2829
16.616	64.322
16.634	64.3308
16.652	64.3081
16.67	64.2552
16.688	64.1734
16.706	64.067
16.724	63.9396
16.742	63.7958
16.76	63.6428
16.778	63.4846
16.796	63.3281
16.814	63.18
16.832	63.044
16.85	62.9272
16.868	62.8327
16.886	62.7637
16.904	62.7231
16.922	62.7107
16.94	62.7269
16.958	62.7687
16.976	62.8343
16.994	62.9183
17.012	63.0155
17.03	63.1223
17.048	63.2306
17.066	63.3371
17.084	63.4368
17.102	63.5254
17.12	63.6012
17.138	63.662
17.156	63.7081
17.174	63.7392
17.192	63.7579
17.21	63.7652
17.228	63.7644
17.246	63.7573
17.264	63.7454
17.282	63.7305
17.3	63.7126
17.318	63.6923
17.336	63.6687
17.354	63.6416
17.372	63.61
17.39	63.5739
17.408	63.5329
17.426	63.4883
17.444	63.4404
17.462	63.3921
17.48	63.3443
17.498	63.3008
17.516	63.2637
17.534	63.2352
17.552	63.2176
17.57	63.2115
17.588	63.2177
17.606	63.2355
17.624	63.264
17.642	63.3006
17.66	63.3442
17.678	63.3909
17.696	63.4394
17.714	63.4862
17.732	63.53
17.75	63.5685
17.768	63.601
17.786	63.627
17.804	63.6467
17.822	63.6606
17.84	63.6704
17.858	63.6769
17.876	63.6816
17.894	63.6863
17.912	63.6915
17.93	63.6991
17.948	63.709
17.966	63.7219
17.984	63.7373
18.002	63.7551
18.02	63.7741
18.038	63.7938
18.056	63.8126
18.074	63.8302
18.092	63.845
18.11	63.8568
18.128	63.8647
18.146	63.8686
18.164	63.8681
18.182	63.8634
18.2	63.8544
18.218	63.8413
18.236	63.8241
18.254	63.8031
18.272	63.7783
18.29	63.7497
18.308	63.7175
18.326	63.6818
18.344	63.6426
18.362	63.6004
18.38	63.5557
18.398	63.5089
18.416	63.4607
18.434	63.4121
18.452	63.3641
18.47	63.3173
18.488	63.273
18.506	63.2315
18.524	63.194
18.542	63.1607
18.56	63.1317
18.578	63.1069
18.596	63.0863
18.614	63.0696
18.632	63.0562
18.65	63.046
18.668	63.0388
18.686	63.0345
18.704	63.0329
18.722	63.0344
18.74	63.0397
18.758	63.0493
18.776	63.0646
18.794	63.086
18.812	63.1152
18.83	63.1523
18.848	63.1985
18.866	63.2535
18.884	63.3178
18.902	63.3903
18.92	63.4706
18.938	63.5569
18.956	63.6477
18.974	63.7408
18.992	63.8337
19.01	63.9243
19.028	64.0095
19.046	64.088
19.064	64.1566
19.082	64.2148
19.1	64.2603
19.118	64.2935
19.136	64.3133
19.154	64.3206
19.172	64.3163
19.19	64.3013
19.208	64.2778
19.226	64.2466
19.244	64.2111
19.262	64.1715
19.28	64.1311
19.298	64.0898
19.316	64.0501
19.334	64.0116
19.352	63.9753
19.37	63.941
19.388	63.9082
19.406	63.8769
19.424	63.8456
19.442	63.8142
19.46	63.7814
19.478	63.7471
19.496	63.7105
19.514	63.6712
19.532	63.6298
19.55	63.5862
19.568	63.5413
19.586	63.4958
19.604	63.4503
19.622	63.4063
19.64	63.364
19.658	63.325
19.676	63.2893
19.694	63.258
19.712	63.231
19.73	63.2084
19.748	63.1905
19.766	63.1761
19.784	63.1654
19.802	63.157
19.82	63.1504
19.838	63.1449
19.856	63.1393
19.874	63.1336
19.892	63.1263
19.91	63.1177
19.928	63.1068
19.946	63.0936
19.964	63.0782
19.982	63.0604
20	63.0406
20.018	63.0189
20.036	62.9956
20.054	62.9713
20.072	62.946
20.09	62.9205
20.108	62.8947
20.126	62.8693
20.144	62.8441
20.162	62.8194
20.18	62.7952
20.198	62.7715
20.216	62.7485
20.234	62.726
20.252	62.704
20.27	62.6827
20.288	62.6618
20.306	62.6413
20.324	62.6211
20.342	62.6012
20.36	62.5817
20.378	62.5627
20.396	62.5442
20.414	62.5266
20.432	62.51
20.45	62.4945
20.468	62.4801
20.486	62.4671
20.504	62.4557
20.522	62.4458
20.54	62.4377
20.558	62.4312
20.576	62.4266
20.594	62.4239
20.612	62.4233
20.63	62.4246
20.648	62.428
20.666	62.4337
20.684	62.4418
20.702	62.4525
20.72	62.4658
20.738	62.4819
20.756	62.5013
20.774	62.5236
20.792	62.5494
20.81	62.5787
20.828	62.6113
20.846	62.6476
20.864	62.6872
20.882	62.7298
20.9	62.7754
20.918	62.8234
20.936	62.8733
20.954	62.9251
20.972	62.9776
20.99	63.031
21.008	63.0843
21.026	63.1371
21.044	63.1893
21.062	63.2397
21.08	63.2885
21.098	63.3353
21.116	63.3797
21.134	63.422
21.152	63.4619
21.17	63.4994
21.188	63.5347
21.206	63.5677
21.224	63.5984
21.242	63.6266
21.26	63.6525
21.278	63.6756
21.296	63.696
21.314	63.7135
21.332	63.7273
21.35	63.7378
21.368	63.7435
21.386	63.7444
21.404	63.7401
21.422	63.729
21.44	63.7115
21.458	63.6867
21.476	63.6541
21.494	63.6138
21.512	63.5655
21.53	63.509
21.548	63.445
21.566	63.3737
21.584	63.2951
21.602	63.2113
21.62	63.1216
21.638	63.0277
21.656	62.9321
21.674	62.8337
21.692	62.7359
21.71	62.6395
21.728	62.5447
21.746	62.4547
21.764	62.3688
21.782	62.2885
21.8	62.2155
21.818	62.1491
21.836	62.0905
21.854	62.04
21.872	61.9971
21.89	61.9622
21.908	61.9354
21.926	61.9157
21.944	61.9028
21.962	61.8967
21.98	61.8961
21.998	61.901
22.016	61.9111
22.034	61.9246
22.052	61.9421
22.07	61.9628
22.088	61.9859
22.106	62.0118
22.124	62.0397
22.142	62.0694
22.16	62.1011
22.178	62.1344
22.196	62.1696
22.214	62.2063
22.232	62.2443
22.25	62.2836
22.268	62.3243
22.286	62.3664
22.304	62.4098
22.322	62.4547
22.34	62.5012
22.358	62.5493
22.376	62.5987
22.394	62.6498
22.412	62.7022
22.43	62.7555
22.448	62.8099
22.466	62.865
22.484	62.9206
22.502	62.9768
22.52	63.0333
22.538	63.0899
22.556	63.1467
22.574	63.2034
22.592	63.2598
22.61	63.3161
22.628	63.3719
22.646	63.4273
22.664	63.4823
22.682	63.5365
22.7	63.59
22.718	63.6428
22.736	63.6946
22.754	63.7455
22.772	63.7957
22.79	63.8451
22.808	63.8937
22.826	63.9419
22.844	63.9897
22.862	64.037
22.88	64.0844
22.898	64.132
22.916	64.1796
22.934	64.2277
22.952	64.2762
22.97	64.3252
22.988	64.3751
23.006	64.4263
23.024	64.4784
23.042	64.5316
23.06	64.586
23.078	64.6413
23.096	64.697
23.114	64.7535
23.132	64.8103
23.15	64.8661
23.168	64.9212
23.186	64.9753
23.204	65.0269
23.222	65.0765
23.24	65.1236
23.258	65.1666
23.276	65.2056
23.294	65.2406
23.312	65.2706
23.33	65.2955
23.348	65.3155
23.366	65.3297
23.384	65.3379
23.402	65.3404
23.42	65.3374
23.438	65.3291
23.456	65.3154
23.474	65.2964
23.492	65.2721
23.51	65.2425
23.528	65.2081
23.546	65.1691
23.564	65.1254
23.582	65.0764
23.6	65.0222
23.618	64.9628
23.636	64.8972
23.654	64.8248
23.672	64.7463
23.69	64.6602
23.708	64.5656
23.726	64.4632
23.744	64.3521
23.762	64.2316
23.78	64.1019
23.798	63.9633
23.816	63.8157
23.834	63.6585
23.852	63.4932
23.87	63.3214
23.888	63.1416
23.906	62.9557
23.924	62.7678
23.942	62.5766
23.96	62.3829
23.978	62.1926
23.996	62.0069
24.014	61.8239
24.032	61.6499
24.05	61.4887
24.068	61.3367
24.086	61.1989
24.104	61.0806
24.122	60.9782
24.14	60.8947
24.158	60.8348
24.176	60.7974
24.194	60.7824
24.212	60.7921
24.23	60.828
24.248	60.8885
24.266	60.9719
24.284	61.0781
24.302	61.2083
24.32	61.358
24.338	61.5233
24.356	61.708
24.374	61.9075
24.392	62.1146
24.41	62.3317
24.428	62.5577
24.446	62.7849
24.464	63.0106
24.482	63.2385
24.5	63.4622
24.518	63.6767
24.536	63.8854
24.554	64.0857
24.572	64.2732
24.59	64.4487
24.608	64.6125
24.626	64.762
24.644	64.8958
24.662	65.015
24.68	65.1198
24.698	65.2098
24.716	65.284
24.734	65.3444
24.752	65.3937
24.77	65.4314
24.788	65.4574
24.806	65.4745
24.824	65.4849
24.842	65.4865
24.86	65.4815
24.878	65.4723
24.896	65.4588
24.914	65.4405
24.932	65.4182
24.95	65.3925
24.968	65.3633
24.986	65.3299
25.004	65.2918
25.022	65.2501
25.04	65.2038
25.058	65.1504
25.076	65.0893
25.094	65.022
25.112	64.9457
25.13	64.8578
25.148	64.7596
25.166	64.6508
25.184	64.5295
25.202	64.3944
25.22	64.2464
25.238	64.0861
25.256	63.9138
25.274	63.7276
25.292	63.5294
25.31	63.3229
25.328	63.109
25.346	62.8846
25.364	62.6554
25.382	62.428
25.4	62.1997
25.418	61.9707
25.436	61.7479
25.454	61.5368
25.472	61.3321
25.49	61.1374
25.508	60.9583
25.526	60.7958
25.544	60.6472
25.562	60.5158
25.58	60.405
25.598	60.3142
25.616	60.2424
25.634	60.1892
25.652	60.1555
25.67	60.143
25.688	60.1468
25.706	60.1617
25.724	60.1896
25.742	60.2318
25.76	60.2792
25.778	60.3236
25.796	60.3736
25.814	60.4237
25.832	60.461
25.85	60.4774
25.868	60.4834
25.886	60.4704
25.904	60.4275
25.922	60.3522
25.94	60.2509
25.958	60.1164
25.976	59.9416
25.994	59.7253
26.012	59.4713
26.03	59.1817
26.048	58.8577
26.066	58.4924
26.084	58.0939
26.102	57.6746
26.12	57.2402
26.138	56.7764
26.156	56.3007
26.174	55.8343
26.192	55.3808
26.21	54.9241
26.228	54.4891
26.246	54.1014
26.264	53.7574
26.282	53.447
26.3	53.1934
26.318	53.019
26.336	52.9159
26.354	52.8803
26.372	52.9256
26.39	53.0643
26.408	53.2929
26.426	53.6074
26.444	54.0075
26.462	54.4947
26.48	55.077
26.498	55.7426
26.516	56.4752
26.534	57.2649
26.552	58.1314
26.57	59.056
26.588	60.0129
26.606	60.9878
26.624	62.0066
26.642	63.0466
26.66	64.0791
26.678	65.0897
26.696	66.1037
26.714	67.1009
26.732	68.0566
26.75	68.9581
26.768	69.8243
26.786	70.6447
26.804	71.4065
26.822	72.1024
26.84	72.7415
26.858	73.3216
26.876	73.8393
26.894	74.2911
26.912	74.6776
26.93	75.0044
26.948	75.2769
26.966	75.4946
26.984	75.6485
27.002	75.7541
27.02	75.8288
27.028	75.8533