File: Bakgrunnsmateriale/MATLAB/FTIR/ftir_data/subAa/Mapping_121/BZ1503107-1_t06_cm-1.asc
PE IR       SPECTRUM    SPECTRUM    ASCII       PEDS        1.60
  -1
BZ6E22~1.ASC
17/04/07
13:43:34.00
17/04/07
13:43:34.00
tln
$BZ1503107-1_t0006$<tbV0>[0.0,-13.0,8.0,0.0,27,1,0]
370
64

2002,4.07
MIRTGS : RIGHTBACK : INTERNAL 2
MIR : ON : INTERNAL 2
OPTKBR

0.200000
8
8.000000
FILLER
RATIO
SPECTRUM
UNLOCKED 256

DOUBLE
64
COMBINED
1
0
0

1.000000
RATIO

1
0
TRUE
51149
0
LEFT NOT FITTED RIGHT NOT FITTED 0
NONE
NONE
15600
12
4.427000
51148
TRUE
1 0 8 72 0 0 0 0

15798

#HDR
-1
-1
#GR
CM-1
%T
2.38419e-05
0.0
5000
-1.000000
4631
8
78.7668
52.3367
#DATA
5000	64.7307
4996	64.5081
4992	64.6806
4988	64.9108
4984	64.4747
4980	63.9251
4976	63.9999
4972	64.1951
4968	64.0967
4964	63.8795
4960	63.7325
4956	64.0541
4952	64.5669
4948	64.7697
4944	64.8685
4940	64.6524
4936	64.2093
4932	64.1766
4928	64.582
4924	65.4057
4920	65.328
4916	63.9124
4912	63.329
4908	63.8697
4904	64.1276
4900	64.0297
4896	64.4424
4892	64.4619
4888	63.7361
4884	63.8079
4880	63.7729
4876	63.2764
4872	63.5329
4868	64.2643
4864	65.0612
4860	65.4861
4856	65.2987
4852	64.8474
4848	64.6754
4844	65.0499
4840	65.4148
4836	65.4049
4832	65.1692
4828	65.2029
4824	65.3202
4820	65.0083
4816	65.0922
4812	65.2822
4808	65.1033
4804	65.4915
4800	65.819
4796	65.5521
4792	65.4801
4788	65.3828
4784	64.9349
4780	64.5193
4776	64.5944
4772	64.766
4768	64.48
4764	64.6771
4760	65.3755
4756	65.1642
4752	64.5024
4748	64.5697
4744	64.9937
4740	65.0147
4736	64.7206
4732	64.6434
4728	64.7607
4724	64.6704
4720	64.4192
4716	64.3427
4712	64.2035
4708	63.8452
4704	63.8269
4700	64.0222
4696	64.1336
4692	64.5111
4688	65.0146
4684	65.2437
4680	65.178
4676	64.9951
4672	64.8421
4668	64.7387
4664	64.7351
4660	64.7654
4656	64.7054
4652	64.599
4648	64.5622
4644	64.6471
4640	64.6464
4636	64.54
4632	64.5269
4628	64.5346
4624	64.4831
4620	64.3891
4616	64.3222
4612	64.3651
4608	64.4621
4604	64.5813
4600	64.6252
4596	64.4939
4592	64.3693
4588	64.3626
4584	64.3938
4580	64.4037
4576	64.3346
4572	64.1234
4568	63.974
4564	64.0263
4560	63.9857
4556	63.6996
4552	63.3775
4548	63.2976
4544	63.4754
4540	63.7198
4536	63.9848
4532	64.1506
4528	64.0763
4524	63.9916
4520	64.2065
4516	64.3014
4512	64.3588
4508	64.6765
4504	64.8994
4500	64.9741
4496	65.5957
4492	67.0024
4488	67.7638
4484	69.1686
4480	70.2238
4476	67.4028
4472	64.5159
4468	63.2402
4464	60.7237
4460	57.1242
4456	62.9543
4452	76.7004
4448	75.7823
4444	65.0235
4440	61.9055
4436	63.0967
4432	63.9752
4428	64.4388
4424	64.4914
4420	64.6584
4416	65.0385
4412	64.8111
4408	64.4689
4404	64.5498
4400	64.6158
4396	64.4578
4392	64.2915
4388	64.2074
4384	64.2254
4380	64.3759
4376	64.3399
4372	64.2
4368	64.1806
4364	64.0836
4360	64.0641
4356	64.28
4352	64.5062
4348	64.6323
4344	64.6709
4340	64.6603
4336	64.6226
4332	64.5766
4328	64.6295
4324	64.6732
4320	64.5915
4316	64.6995
4312	64.8507
4308	64.8567
4304	64.9227
4300	64.765
4296	64.3812
4292	64.3298
4288	64.6486
4284	64.7556
4280	64.5954
4276	64.558
4272	64.6422
4268	64.798
4264	64.8306
4260	64.643
4256	64.5643
4252	64.6603
4248	64.7901
4244	64.8968
4240	64.9307
4236	64.95
4232	64.9467
4228	64.9103
4224	64.865
4220	64.7932
4216	64.7103
4212	64.6641
4208	64.7057
4204	64.7876
4200	64.8937
4196	64.8915
4192	64.9061
4188	65.1237
4184	65.1336
4180	64.9446
4176	64.9307
4172	65.01
4168	64.9564
4164	64.8743
4160	64.9785
4156	64.9918
4152	64.8157
4148	64.7614
4144	64.9959
4140	65.2496
4136	65.1678
4132	65.0624
4128	65.1223
4124	65.1311
4120	65.0396
4116	64.964
4112	65.0395
4108	65.2105
4104	65.2834
4100	65.1205
4096	64.9214
4092	64.9863
4088	65.1543
4084	65.1794
4080	65.0792
4076	64.954
4072	64.8781
4068	64.9475
4064	65.1902
4060	65.4174
4056	65.4899
4052	65.3401
4048	65.0006
4044	64.7727
4040	64.8151
4036	64.9486
4032	65.0133
4028	65.0292
4024	64.9801
4020	64.8936
4016	64.8875
4012	64.9303
4008	64.9634
4004	64.9752
4000	64.9954
3996	64.9899
3992	64.8968
3988	64.7952
3984	64.8587
3980	65.0499
3976	65.1341
3972	65.197
3968	65.2118
3964	65.0657
3960	65.0541
3956	65.1571
3952	65.2041
3948	65.2357
3944	65.148
3940	65.0665
3936	65.0262
3932	64.9242
3928	64.8895
3924	64.8502
3920	64.805
3916	64.8979
3912	64.9972
3908	64.988
3904	65.0126
3900	65.108
3896	65.1054
3892	64.9894
3888	64.9293
3884	64.9352
3880	64.8845
3876	64.8855
3872	64.9938
3868	65.0525
3864	65.0479
3860	65.0552
3856	65.1572
3852	65.2434
3848	65.1633
3844	65.0719
3840	65.0606
3836	65.0958
3832	65.1182
3828	65.1005
3824	65.0674
3820	65.06
3816	65.0911
3812	65.0854
3808	65.0732
3804	65.112
3800	65.0694
3796	64.9151
3792	64.8658
3788	64.9502
3784	65.0048
3780	65.022
3776	65.0448
3772	65.0932
3768	65.1884
3764	65.2644
3760	65.2627
3756	65.2691
3752	65.2848
3748	65.2446
3744	65.2302
3740	65.2509
3736	65.2017
3732	64.9954
3728	64.8443
3724	64.977
3720	65.144
3716	65.2005
3712	65.2246
3708	65.2026
3704	65.1953
3700	65.2275
3696	65.2591
3692	65.2949
3688	65.3297
3684	65.3189
3680	65.2873
3676	65.3322
3672	65.3532
3668	65.18
3664	65.0172
3660	65.0437
3656	65.0736
3652	65.0854
3648	65.1679
3644	65.2433
3640	65.2663
3636	65.2843
3632	65.3417
3628	65.2849
3624	65.0492
3620	64.8852
3616	64.9172
3612	65.0431
3608	65.1108
3604	65.109
3600	65.1002
3596	65.03
3592	64.9964
3588	65.0741
3584	65.1188
3580	65.1175
3576	65.1368
3572	65.1128
3568	65.0442
3564	65.0571
3560	65.1184
3556	65.115
3552	65.08
3548	65.0597
3544	65.0257
3540	64.9745
3536	64.9077
3532	64.8638
3528	64.8752
3524	64.9219
3520	64.9962
3516	65.0407
3512	65.0547
3508	65.0842
3504	65.1019
3500	65.0812
3496	65.0221
3492	64.9296
3488	64.9081
3484	64.9362
3480	64.8821
3476	64.7951
3472	64.7358
3468	64.7048
3464	64.7402
3460	64.8787
3456	65.0233
3452	65.0353
3448	64.9577
3444	64.933
3440	64.9757
3436	64.9826
3432	64.9159
3428	64.9125
3424	64.981
3420	65.0132
3416	65.0744
3412	65.1135
3408	65.0581
3404	64.9945
3400	64.9232
3396	64.8957
3392	64.954
3388	64.957
3384	64.9393
3380	64.9638
3376	64.9325
3372	64.8717
3368	64.8383
3364	64.8749
3360	64.9591
3356	64.9675
3352	64.9472
3348	64.9468
3344	64.9039
3340	64.8395
3336	64.8749
3332	65.0015
3328	65.0419
3324	65.0567
3320	65.1584
3316	65.2201
3312	65.1657
3308	65.0996
3304	65.1008
3300	65.1064
3296	65.0934
3292	65.1086
3288	65.0959
3284	65.0474
3280	65.0542
3276	65.0825
3272	65.0699
3268	65.0069
3264	64.9304
3260	64.9216
3256	64.9467
3252	64.9334
3248	64.9106
3244	64.9098
3240	64.9043
3236	64.9511
3232	65.0011
3228	64.976
3224	64.9552
3220	64.9385
3216	64.9624
3212	65.0401
3208	65.0929
3204	65.0787
3200	65.02
3196	65.015
3192	65.0334
3188	64.9784
3184	64.9606
3180	64.9696
3176	64.9314
3172	64.9724
3168	65.0207
3164	65.0145
3160	65.0377
3156	65.0605
3152	64.9912
3148	64.8652
3144	64.8219
3140	64.8265
3136	64.8607
3132	64.9289
3128	64.9345
3124	64.892
3120	64.8875
3116	64.9077
3112	64.9283
3108	64.9829
3104	65.0223
3100	65.0526
3096	65.1125
3092	65.1363
3088	65.0369
3084	64.8757
3080	64.8635
3076	64.9709
3072	65.0207
3068	64.9786
3064	64.9365
3060	64.9436
3056	64.9361
3052	64.9638
3048	65.0113
3044	65.0325
3040	65.0709
3036	65.0343
3032	64.9705
3028	64.9825
3024	64.9792
3020	64.975
3016	65.0075
3012	65.0065
3008	65.0171
3004	65.0854
3000	65.0982
2996	64.9986
2992	64.8792
2988	64.8095
2984	64.7926
2980	64.82
2976	64.8988
2972	65.0213
2968	65.0293
2964	64.906
2960	64.8494
2956	64.8709
2952	64.882
2948	64.8629
2944	64.8253
2940	64.8091
2936	64.8341
2932	64.8668
2928	64.9094
2924	64.922
2920	64.873
2916	64.8104
2912	64.801
2908	64.8599
2904	64.8384
2900	64.8143
2896	64.9172
2892	64.9758
2888	64.9431
2884	64.9072
2880	64.9201
2876	64.9553
2872	64.9634
2868	64.9469
2864	64.9306
2860	64.9598
2856	64.9726
2852	64.9051
2848	64.8849
2844	64.9671
2840	65.0192
2836	64.9956
2832	64.9811
2828	65.0256
2824	65.0424
2820	65.0205
2816	65.0131
2812	64.9589
2808	64.9204
2804	64.9746
2800	65.0095
2796	64.9822
2792	64.9578
2788	64.9422
2784	64.9174
2780	64.9045
2776	64.8928
2772	64.8604
2768	64.8822
2764	64.9817
2760	64.9911
2756	64.9162
2752	64.9425
2748	65.0125
2744	64.9766
2740	64.9334
2736	64.9958
2732	65.0435
2728	65.0288
2724	65.0393
2720	65.0131
2716	64.9337
2712	64.8657
2708	64.8078
2704	64.8462
2700	64.9513
2696	65.0063
2692	65.0098
2688	64.9794
2684	64.9351
2680	64.906
2676	64.9099
2672	64.9261
2668	64.9702
2664	65.0301
2660	65.0336
2656	65.0064
2652	64.9694
2648	64.9334
2644	64.9475
2640	64.957
2636	64.9175
2632	64.8883
2628	64.9013
2624	64.9504
2620	64.9896
2616	64.9806
2612	64.958
2608	64.9486
2604	64.9508
2600	64.9343
2596	64.9323
2592	64.9975
2588	65.0627
2584	65.085
2580	65.0566
2576	65.0132
2572	65.0083
2568	65.025
2564	65.0178
2560	64.9566
2556	64.9163
2552	64.9267
2548	64.9333
2544	64.9509
2540	64.9727
2536	64.9928
2532	65.015
2528	64.9901
2524	64.9408
2520	64.9316
2516	64.9678
2512	65.0357
2508	65.0432
2504	64.9432
2500	64.8689
2496	64.9012
2492	64.9565
2488	64.9798
2484	65.0155
2480	65.0391
2476	65.0097
2472	65.007
2468	65.0372
2464	65.02
2460	64.9777
2456	64.9593
2452	64.9715
2448	65.0209
2444	65.0139
2440	64.9013
2436	64.8214
2432	64.8067
2428	64.7917
2424	64.7954
2420	64.8254
2416	64.8971
2412	64.9716
2408	64.9395
2404	64.8726
2400	64.8943
2396	64.9265
2392	64.9114
2388	64.932
2384	64.988
2380	65.006
2376	64.9504
2372	64.8862
2368	64.8847
2364	64.9258
2360	64.9764
2356	64.9683
2352	64.9368
2348	64.9616
2344	64.9696
2340	64.9303
2336	64.9123
2332	64.9378
2328	64.9415
2324	64.8835
2320	64.8522
2316	64.8963
2312	64.9444
2308	64.9486
2304	64.9631
2300	64.9638
2296	64.8778
2292	64.7975
2288	64.8056
2284	64.8488
2280	64.894
2276	64.9125
2272	64.8836
2268	64.8963
2264	64.9372
2260	64.9201
2256	64.8804
2252	64.8382
2248	64.8213
2244	64.8633
2240	64.883
2236	64.8414
2232	64.8034
2228	64.819
2224	64.84
2220	64.8449
2216	64.843
2212	64.8173
2208	64.8515
2204	64.919
2200	64.9132
2196	64.8727
2192	64.8283
2188	64.759
2184	64.7076
2180	64.7167
2176	64.769
2172	64.81
2168	64.8027
2164	64.7606
2160	64.6906
2156	64.6691
2152	64.682
2148	64.6548
2144	64.6535
2140	64.6898
2136	64.7157
2132	64.7287
2128	64.7729
2124	64.8286
2120	64.8544
2116	64.8471
2112	64.8091
2108	64.7824
2104	64.79
2100	64.8042
2096	64.7848
2092	64.7483
2088	64.7487
2084	64.7871
2080	64.8063
2076	64.7683
2072	64.7092
2068	64.6663
2064	64.6893
2060	64.7732
2056	64.814
2052	64.8114
2048	64.8318
2044	64.8361
2040	64.7953
2036	64.7637
2032	64.7712
2028	64.8
2024	64.8005
2020	64.7599
2016	64.7459
2012	64.8107
2008	64.8641
2004	64.8335
2000	64.7828
1996	64.7633
1992	64.7545
1988	64.7283
1984	64.7334
1980	64.7834
1976	64.8204
1972	64.8471
1968	64.8345
1964	64.7985
1960	64.803
1956	64.8025
1952	64.7702
1948	64.7334
1944	64.7228
1940	64.6988
1936	64.6829
1932	64.7391
1928	64.7787
1924	64.7444
1920	64.6865
1916	64.6873
1912	64.7381
1908	64.7517
1904	64.7495
1900	64.753
1896	64.7596
1892	64.7915
1888	64.7851
1884	64.7216
1880	64.6929
1876	64.7031
1872	64.7146
1868	64.7415
1864	64.7363
1860	64.7054
1856	64.706
1852	64.7186
1848	64.7423
1844	64.7223
1840	64.6446
1836	64.6183
1832	64.6584
1828	64.7058
1824	64.72
1820	64.7312
1816	64.7866
1812	64.7995
1808	64.7511
1804	64.7357
1800	64.7284
1796	64.7155
1792	64.747
1788	64.774
1784	64.7355
1780	64.7023
1776	64.7271
1772	64.7611
1768	64.7644
1764	64.721
1760	64.6421
1756	64.6028
1752	64.6287
1748	64.604
1744	64.5257
1740	64.4758
1736	64.451
1732	64.4291
1728	64.3903
1724	64.4399
1720	64.614
1716	64.7112
1712	64.6839
1708	64.6672
1704	64.692
1700	64.7284
1696	64.6944
1692	64.5622
1688	64.5042
1684	64.5731
1680	64.6761
1676	64.7472
1672	64.6843
1668	64.5682
1664	64.539
1660	64.5813
1656	64.6681
1652	64.7084
1648	64.6762
1644	64.6269
1640	64.6063
1636	64.6307
1632	64.6381
1628	64.6403
1624	64.6438
1620	64.6003
1616	64.5203
1612	64.484
1608	64.559
1604	64.6684
1600	64.6809
1596	64.6018
1592	64.5453
1588	64.5762
1584	64.5864
1580	64.524
1576	64.5263
1572	64.5946
1568	64.6007
1564	64.5636
1560	64.5898
1556	64.634
1552	64.6287
1548	64.5887
1544	64.5252
1540	64.4348
1536	64.3396
1532	64.3156
1528	64.4295
1524	64.5954
1520	64.6423
1516	64.6002
1512	64.5881
1508	64.6095
1504	64.6003
1500	64.5576
1496	64.5335
1492	64.4722
1488	64.4427
1484	64.503
1480	64.5112
1476	64.4902
1472	64.5132
1468	64.5103
1464	64.4599
1460	64.4824
1456	64.564
1452	64.5339
1448	64.4543
1444	64.4856
1440	64.6109
1436	64.6766
1432	64.5935
1428	64.5003
1424	64.5141
1420	64.5262
1416	64.446
1412	64.3881
1408	64.3869
1404	64.368
1400	64.367
1396	64.3898
1392	64.4031
1388	64.403
1384	64.3682
1380	64.3641
1376	64.3909
1372	64.3227
1368	64.2881
1364	64.4062
1360	64.4865
1356	64.4687
1352	64.4454
1348	64.451
1344	64.4911
1340	64.4654
1336	64.3605
1332	64.3343
1328	64.3654
1324	64.3603
1320	64.3349
1316	64.2919
1312	64.2815
1308	64.2707
1304	64.2137
1300	64.2261
1296	64.278
1292	64.3239
1288	64.3589
1284	64.3338
1280	64.323
1276	64.2983
1272	64.2085
1268	64.1465
1264	64.1386
1260	64.1477
1256	64.1829
1252	64.2558
1248	64.2822
1244	64.2524
1240	64.2459
1236	64.2507
1232	64.2346
1228	64.215
1224	64.1975
1220	64.1707
1216	64.2025
1212	64.2752
1208	64.2908
1204	64.251
1200	64.2243
1196	64.2439
1192	64.2593
1188	64.2319
1184	64.1921
1180	64.1567
1176	64.132
1172	64.1629
1168	64.1747
1164	64.0995
1160	64.0934
1156	64.1679
1152	64.1528
1148	64.1146
1144	64.2032
1140	64.3037
1136	64.2646
1132	64.218
1128	64.2683
1124	64.2906
1120	64.2936
1116	64.2862
1112	64.1522
1108	63.9735
1104	64.0002
1100	64.2195
1096	64.3526
1092	64.358
1088	64.3051
1084	64.2866
1080	64.3773
1076	64.4274
1072	64.3554
1068	64.2189
1064	64.1168
1060	64.0916
1056	64.0958
1052	64.0988
1048	64.138
1044	64.1692
1040	64.158
1036	64.1791
1032	64.1916
1028	64.1363
1024	64.0505
1020	64.0218
1016	64.0919
1012	64.1169
1008	64.0373
1004	64.0536
1000	64.1849
996	 64.296
992	 64.2778
988	 64.1279
984	 64.0996
980	 64.1869
976	 64.1962
972	 64.1937
968	 64.182
964	 64.1112
960	 64.0826
956	 64.1245
952	 64.2291
948	 64.3856
944	 64.4338
940	 64.3688
936	 64.2662
932	 64.119
928	 64.066
924	 64.0989
920	 64.141
916	 64.2388
912	 64.2717
908	 64.19
904	 64.1699
900	 64.2086
896	 64.1461
892	 64.0661
888	 64.1441
884	 64.2134
880	 64.1716
876	 64.2249
872	 64.272
868	 64.1752
864	 64.1097
860	 64.1534
856	 64.2443
852	 64.2905
848	 64.2396
844	 64.1525
840	 64.0484
836	 63.9976
832	 64.0047
828	 63.9853
824	 64.0367
820	 64.1461
816	 64.2406
812	 64.3056
808	 64.2483
804	 64.0983
800	 64.0466
796	 64.1088
792	 64.1131
788	 64.0715
784	 64.0684
780	 64.106
776	 64.161
772	 64.1418
768	 64.0064
764	 63.9639
760	 64.0608
756	 64.024
752	 63.8789
748	 63.8304
744	 63.9101
740	 64.0502
736	 64.1499
732	 64.193
728	 64.2081
724	 64.1641
720	 64.1146
716	 64.0951
712	 64.0523
708	 64.0082
704	 63.9401
700	 63.7721
696	 63.6834
692	 63.8191
688	 64.0271
684	 64.1554
680	 64.0939
676	 63.9658
672	 63.9422
668	 63.9741
664	 64.0066
660	 63.9943
656	 63.9282
652	 63.9178
648	 64.0924
644	 64.3345
640	 64.3776
636	 64.246
632	 64.2508
628	 64.441
624	 64.4791
620	 64.2921
616	 64.1613
612	 64.1272
608	 64.0057
604	 63.8027
600	 63.7625
596	 63.8989
592	 63.9897
588	 64.0764
584	 64.2649
580	 64.3287
576	 64.0486
572	 63.8163
568	 64.0346
564	 64.4619
560	 64.6745
556	 64.6413
552	 64.3771
548	 64.0873
544	 64.1557
540	 64.4092
536	 64.3969
532	 64.2804
528	 64.5493
524	 64.845
520	 64.6219
516	 64.2482
512	 64.061
508	 64.0124
504	 63.902
500	 63.6135
496	 63.8175
492	 64.1948
488	 63.9359
484	 63.8072
480	 65.0393
476	 67.0688
472	 66.7983
468	 64.2923
464	 62.9679
460	 63.0919
456	 63.7285
452	 63.9804
448	 61.3777
444	 57.6281
440	 57.5857
436	 61.5778
432	 64.3522
428	 63.5013
424	 62.1816
420	 61.1191
416	 60.5211
412	 63.618
408	 67.7815
404	 67.2654
400	 65.7597
396	 65.4851
392	 65.0687
388	 66.3801
384	 69.642
380	 67.9753
376	 71.197
372	 52.3367
370	 69.4775