File: Bakgrunnsmateriale/MATLAB/FTIR/ftir_data/subAa/Mapping_121/BZ1503107-1_t85.asc
PE IR       SPECTRUM    SPECTRUM    ASCII       PEDS        1.60
  -1
BZ2D55~1.ASC
17/04/07
20:11:48.00
17/04/07
20:12:14.00
tln
$BZ1503107-1_t0085$<tbV0>[-5.2,5.2,8.0,0.0,27,1,0]
27.028
64

2002,4.07
MIRTGS : RIGHTBACK : INTERNAL 2
MIR : ON : INTERNAL 2
OPTKBR

0.200000
8
8.000000
FILLER
RATIO
SPECTRUM
UNLOCKED 256

DOUBLE
64
COMBINED
1
0
0

0.002000
RATIO

1
0
TRUE
51149
0
LEFT NOT FITTED RIGHT NOT FITTED 0
NONE
NONE
15600
12
4.427000
51148
TRUE
1 0 8 72 0 0 0 0

15798

#HDR
-1
-1
#GR
µM
%T
2.38419e-05
0.0
2.000000
0.002000
12515
8
77.4422
59.65
#DATA
2.000000	 64.6811
2.018000	 62.546
2.036000	 64.8587
2.054000	 64.9503
2.072000	 64.8288
2.090000	 64.8712
2.108000	 64.521
2.126000	 64.9576
2.144000	 64.7283
2.162000	 65.1824
2.180000	 64.8244
2.198000	 64.8488
2.216000	 65.1635
2.234000	 64.3807
2.252000	 67.5346
2.270000	 65.7572
2.288000	 64.8064
2.306000	 64.9538
2.324000	 64.7411
2.342000	 64.9121
2.360000	 64.6589
2.378000	 64.8997
2.396000	 64.8987
2.414000	 64.8078
2.432000	 65.0642
2.450000	 64.9751
2.468000	 64.8379
2.486000	 64.9623
2.504000	 64.7247
2.522000	 64.8752
2.540000	 64.5484
2.558000	 64.8321
2.576000	 64.8667
2.594000	 64.8986
2.612000	 64.9121
2.630000	 64.9204
2.648000	 65.0409
2.666000	 64.9296
2.684000	 65.1502
2.702000	 65.2074
2.720000	 64.9558
2.738000	 65.038
2.756000	 64.8861
2.774000	 65.0968
2.792000	 64.8935
2.810000	 64.837
2.828000	 64.904
2.846000	 64.8188
2.864000	 64.8738
2.882000	 64.8959
2.900000	 65.0751
2.918000	 64.8551
2.936000	 64.8996
2.954000	 64.9543
2.972000	 64.9693
2.990000	 64.929
3.008000	 64.9693
3.026000	 64.9964
3.044000	 64.8874
3.062000	 64.8849
3.080000	 64.9413
3.098000	 64.938
3.116000	 65.0369
3.134000	 64.7864
3.152000	 65.055
3.170000	 64.8374
3.188000	 64.787
3.206000	 64.9659
3.224000	 64.8075
3.242000	 64.7758
3.260000	 64.802
3.278000	 65.0299
3.296000	 64.7373
3.314000	 64.9492
3.332000	 64.7704
3.350000	 64.7838
3.368000	 64.7597
3.386000	 64.6478
3.404000	 64.7387
3.422000	 64.7391
3.440000	 64.8147
3.458000	 64.815
3.476000	 64.7309
3.494000	 64.766
3.512000	 64.6434
3.530000	 64.6719
3.548000	 64.7887
3.566000	 64.8472
3.584000	 64.7777
3.602000	 64.7964
3.620000	 64.8656
3.638000	 64.8162
3.656000	 64.8644
3.674000	 64.7177
3.692000	 64.787
3.710000	 64.6537
3.728000	 64.8111
3.746000	 64.7028
3.764000	 64.6402
3.782000	 64.7239
3.800000	 64.6728
3.818000	 64.7495
3.836000	 64.7624
3.854000	 64.7717
3.872000	 64.6698
3.890000	 64.6761
3.908000	 64.6315
3.926000	 64.5995
3.944000	 64.6579
3.962000	 64.6939
3.980000	 64.7375
3.998000	 64.6319
4.016000	 64.6168
4.034000	 64.6765
4.052000	 64.6251
4.070000	 64.6621
4.088000	 64.6644
4.106000	 64.7167
4.124000	 64.5721
4.141999	 64.6845
4.160000	 64.6658
4.178000	 64.6012
4.196000	 64.6183
4.214000	 64.4864
4.232000	 64.4842
4.250000	 64.4953
4.268000	 64.4114
4.286000	 64.5721
4.304000	 64.531
4.322000	 64.6011
4.340000	 64.5647
4.358000	 64.4551
4.375999	 64.508
4.394000	 64.539
4.412000	 64.4659
4.430000	 64.4407
4.448000	 64.4219
4.466000	 64.463
4.484000	 64.4828
4.502000	 64.4372
4.520000	 64.3842
4.538000	 64.4668
4.556000	 64.4182
4.574000	 64.403
4.592000	 64.427
4.609999	 64.3565
4.628000	 64.3492
4.646000	 64.4551
4.664000	 64.3617
4.682000	 64.4733
4.700000	 64.4871
4.718000	 64.365
4.736000	 64.3386
4.754000	 64.3321
4.772000	 64.4393
4.790000	 64.4109
4.808000	 64.4106
4.826000	 64.3199
4.843999	 64.2421
4.862000	 64.2035
4.880000	 64.2776
4.898000	 64.3599
4.916000	 64.271
4.934000	 64.2945
4.952000	 64.3447
4.970000	 64.2762
4.988000	 64.2008
5.006000	 64.2025
5.024000	 64.1247
5.042000	 64.2032
5.060000	 64.2839
5.077999	 64.2274
5.096000	 64.247
5.114000	 64.2844
5.132000	 64.2322
5.150000	 64.1654
5.168000	 64.2045
5.186000	 64.1042
5.204000	 64.1094
5.222000	 64.2106
5.240000	 64.2751
5.258000	 64.2287
5.276000	 64.1834
5.294000	 64.2353
5.312000	 64.2272
5.330000	 64.2726
5.348000	 64.1626
5.366000	 64.0902
5.384000	 64.1771
5.402000	 64.1882
5.420000	 64.1421
5.438000	 64.0771
5.456000	 64.1257
5.474000	 64.1295
5.492000	 64.1453
5.510000	 64.202
5.528000	 64.1474
5.546000	 64.0372
5.564000	 64.0252
5.582000	 64.0734
5.600000	 64.0633
5.618000	 64.0584
5.636000	 64.0987
5.654000	 64.1167
5.672000	 64.0483
5.690000	 63.997
5.708000	 63.8384
5.726000	 63.768
5.744000	 63.7463
5.762000	 63.7884
5.780000	 63.7936
5.798000	 63.795
5.816000	 63.8679
5.834000	 63.9511
5.852000	 63.8618
5.870000	 63.8443
5.888000	 63.9146
5.906000	 63.9693
5.923999	 63.9681
5.942000	 63.8833
5.960000	 63.8435
5.978000	 63.8534
5.996000	 63.9175
6.014000	 63.9427
6.032000	 63.8909
6.050000	 63.8704
6.068000	 63.87
6.086000	 63.8538
6.104000	 63.7494
6.122000	 63.718
6.140000	 63.8587
6.158000	 63.8964
6.176000	 63.8898
6.194000	 63.885
6.212000	 63.8004
6.230000	 63.7693
6.248000	 63.8166
6.266000	 63.7842
6.284000	 63.7555
6.302000	 63.8699
6.320000	 63.9305
6.338000	 63.8467
6.356000	 63.7939
6.374000	 63.7603
6.392000	 63.694
6.410000	 63.7016
6.428000	 63.7448
6.446000	 63.7491
6.464000	 63.7966
6.482000	 63.8857
6.500000	 63.8965
6.518000	 63.8424
6.536000	 63.8572
6.554000	 63.8781
6.572000	 63.8431
6.590000	 63.7815
6.608000	 63.7482
6.626000	 63.8015
6.644000	 63.8847
6.662000	 63.895
6.680000	 63.7837
6.698000	 63.6155
6.716000	 63.5535
6.734000	 63.5986
6.752000	 63.6398
6.770000	 63.6759
6.788000	 63.6936
6.806000	 63.6602
6.824000	 63.6318
6.842000	 63.6512
6.860000	 63.7091
6.878000	 63.7625
6.896000	 63.7543
6.914000	 63.7084
6.932000	 63.7254
6.950000	 63.8142
6.968000	 63.8684
6.986000	 63.8373
7.004000	 63.784
7.022000	 63.7405
7.040000	 63.699
7.058000	 63.6732
7.076000	 63.6111
7.094000	 63.5141
7.112000	 63.4871
7.130000	 63.4921
7.148000	 63.463
7.166000	 63.4896
7.184000	 63.5985
7.202000	 63.6743
7.220000	 63.6528
7.238000	 63.5895
7.256000	 63.5442
7.274000	 63.5205
7.292000	 63.5046
7.310000	 63.4907
7.328000	 63.4626
7.346000	 63.4122
7.364000	 63.3769
7.382000	 63.3994
7.400000	 63.4738
7.418000	 63.5617
7.436000	 63.6094
7.454000	 63.596
7.472000	 63.5635
7.490000	 63.5557
7.508000	 63.5818
7.526000	 63.6314
7.544000	 63.6606
7.562000	 63.6294
7.580000	 63.5599
7.598000	 63.5156
7.616000	 63.5242
7.634000	 63.5309
7.652000	 63.4855
7.670000	 63.4287
7.688000	 63.4034
7.706000	 63.381
7.724000	 63.3587
7.742000	 63.3814
7.760000	 63.4388
7.778000	 63.4725
7.796000	 63.465
7.814000	 63.4284
7.832000	 63.3687
7.850000	 63.3118
7.868000	 63.2986
7.886000	 63.3333
7.904000	 63.3785
7.922000	 63.3965
7.940000	 63.3821
7.958000	 63.3649
7.976000	 63.3737
7.994000	 63.3985
8.012000	 63.4101
8.030000	 63.4021
8.048000	 63.3884
8.065999	 63.3757
8.084000	 63.3621
8.102000	 63.3461
8.120000	 63.33
8.138000	 63.3254
8.155999	 63.3455
8.173999	 63.3746
8.192000	 63.3697
8.210000	 63.3161
8.228000	 63.2625
8.246000	 63.267
8.263999	 63.3239
8.282000	 63.3791
8.300000	 63.4032
8.318000	 63.4156
8.336000	 63.4398
8.353999	 63.4625
8.372000	 63.4517
8.390000	 63.4023
8.408000	 63.3448
8.426000	 63.3082
8.443999	 63.2905
8.462000	 63.2753
8.480000	 63.2634
8.498000	 63.2678
8.516000	 63.2862
8.533999	 63.2967
8.552000	 63.2833
8.570000	 63.2573
8.588000	 63.244
8.606000	 63.2457
8.624000	 63.2387
8.641999	 63.2137
8.660000	 63.188
8.678000	 63.1824
8.696000	 63.2045
8.714000	 63.2432
8.731999	 63.2733
8.750000	 63.2795
8.768000	 63.2676
8.786000	 63.2469
8.804000	 63.2201
8.821999	 63.1961
8.840000	 63.1936
8.858000	 63.2259
8.876000	 63.2862
8.894000	 63.347
8.911999	 63.3805
8.930000	 63.3811
8.948000	 63.3626
8.966000	 63.3376
8.984000	 63.3086
9.001999	 63.2807
9.020000	 63.268
9.038000	 63.2775
9.056000	 63.2925
9.074000	 63.2859
9.092000	 63.2544
9.109999	 63.2267
9.128000	 63.2349
9.146000	 63.2803
9.164000	 63.3342
9.182000	 63.3661
9.199999	 63.3663
9.218000	 63.3441
9.236000	 63.3124
9.254000	 63.2795
9.272000	 63.2496
9.289999	 63.2249
9.308000	 63.209
9.326000	 63.2053
9.344000	 63.2154
9.362000	 63.2333
9.379999	 63.2464
9.398000	 63.2431
9.416000	 63.2233
9.434000	 63.2034
9.452000	 63.2069
9.469999	 63.2463
9.488000	 63.3131
9.506000	 63.384
9.524000	 63.4364
9.542000	 63.4585
9.560000	 63.4458
9.577999	 63.3956
9.596000	 63.3093
9.614000	 63.2031
9.632000	 63.1105
9.650000	 63.0652
9.667999	 63.0778
9.686000	 63.1273
9.704000	 63.1759
9.722000	 63.1963
9.740000	 63.1875
9.757999	 63.1707
9.776000	 63.169
9.794000	 63.1881
9.812000	 63.2125
9.830000	 63.2201
9.847999	 63.2032
9.866000	 63.1759
9.884000	 63.165
9.902000	 63.189
9.920000	 63.2423
9.937999	 63.2978
9.956000	 63.3259
9.974000	 63.3134
9.992000	 63.2687
10.01	63.2108
10.028	63.155
10.046	63.1046
10.064	63.0556
10.082	63.0086
10.1	62.9761
10.118	62.9789
10.136	63.0316
10.154	63.13
10.172	63.2461
10.19	63.3376
10.208	63.3685
10.226	63.3262
10.244	63.228
10.262	63.1144
10.28	63.0275
10.298	62.9944
10.316	63.0177
10.334	63.0778
10.352	63.1472
10.37	63.2007
10.388	63.2256
10.406	63.222
10.424	63.2001
10.442	63.1749
10.46	63.1594
10.478	63.1609
10.496	63.1792
10.514	63.209
10.532	63.2409
10.55	63.2652
10.568	63.2739
10.586	63.261
10.604	63.2252
10.622	63.1707
10.64	63.1063
10.658	63.0434
10.676	62.9939
10.694	62.9671
10.712	62.9679
10.73	62.9967
10.748	63.0473
10.766	63.1058
10.784	63.1538
10.802	63.1745
10.82	63.1633
10.838	63.1321
10.856	63.105
10.874	63.1082
10.892	63.1537
10.91	63.2338
10.928	63.323
10.946	63.3893
10.964	63.411
10.982	63.3838
11	63.3211
11.018	63.2463
11.036	63.1796
11.054	63.1326
11.072	63.1062
11.09	63.0945
11.108	63.0906
11.126	63.0895
11.144	63.0894
11.162	63.0889
11.18	63.0873
11.198	63.0843
11.216	63.0797
11.234	63.0743
11.252	63.0692
11.27	63.0645
11.288	63.0586
11.306	63.0489
11.324	63.0336
11.342	63.0141
11.36	62.9949
11.378	62.9829
11.396	62.9841
11.414	63.002
11.432	63.0345
11.45	63.076
11.468	63.1169
11.486	63.1468
11.504	63.1574
11.522	63.1444
11.54	63.1095
11.558	63.0597
11.576	63.0057
11.594	62.9573
11.612	62.9219
11.63	62.9013
11.648	62.8923
11.666	62.8885
11.684	62.8846
11.702	62.8787
11.72	62.873
11.738	62.8726
11.756	62.8821
11.774	62.9038
11.792	62.9369
11.81	62.9781
11.828	63.0225
11.846	63.065
11.864	63.1004
11.882	63.1251
11.9	63.1369
11.918	63.1355
11.936	63.123
11.954	63.1036
11.972	63.0827
11.99	63.066
12.008	63.0575
12.026	63.0585
12.044	63.0678
12.062	63.0821
12.08	63.097
12.098	63.1092
12.116	63.116
12.134	63.1163
12.152	63.1105
12.17	63.0997
12.188	63.0856
12.206	63.0701
12.224	63.0546
12.242	63.0394
12.26	63.0237
12.278	63.0063
12.296	62.9857
12.314	62.9613
12.332	62.9331
12.35	62.9021
12.368	62.8695
12.386	62.8367
12.404	62.8043
12.422	62.7724
12.44	62.7411
12.458	62.7109
12.476	62.6836
12.494	62.6624
12.512	62.6509
12.53	62.6519
12.548	62.6667
12.566	62.6936
12.584	62.729
12.602	62.7677
12.62	62.8042
12.638	62.8338
12.656	62.8538
12.674	62.8636
12.692	62.865
12.71	62.8618
12.728	62.8589
12.746	62.8608
12.764	62.8708
12.782	62.8891
12.8	62.9129
12.818	62.937
12.836	62.9553
12.854	62.9625
12.872	62.9554
12.89	62.9343
12.908	62.9029
12.926	62.8672
12.944	62.8339
12.962	62.8085
12.98	62.7941
12.998	62.7911
13.016	62.7974
13.034	62.8102
13.052	62.8267
13.07	62.8455
13.088	62.8659
13.106	62.8879
13.124	62.9112
13.142	62.9347
13.16	62.9561
13.178	62.9728
13.196	62.9824
13.214	62.9828
13.232	62.9739
13.25	62.9565
13.268	62.9326
13.286	62.904
13.304	62.8718
13.322	62.8358
13.34	62.7949
13.358	62.748
13.376	62.6943
13.394	62.6349
13.412	62.5727
13.43	62.5119
13.448	62.4576
13.466	62.4143
13.484	62.3849
13.502	62.3707
13.52	62.3703
13.538	62.3809
13.556	62.3984
13.574	62.4185
13.592	62.4377
13.61	62.4535
13.628	62.4644
13.646	62.4705
13.664	62.4725
13.682	62.4712
13.7	62.4678
13.718	62.4629
13.736	62.457
13.754	62.45
13.772	62.4424
13.79	62.4344
13.808	62.4272
13.826	62.4223
13.844	62.422
13.862	62.4289
13.88	62.4455
13.898	62.4739
13.916	62.5152
13.934	62.5686
13.952	62.6313
13.97	62.6989
13.988	62.7658
14.006	62.8258
14.024	62.8725
14.042	62.9016
14.06	62.9109
14.078	62.9005
14.096	62.8732
14.114	62.8335
14.132	62.7871
14.15	62.74
14.168	62.6972
14.186	62.662
14.204	62.636
14.222	62.6183
14.24	62.6069
14.258	62.5989
14.276	62.5915
14.294	62.5826
14.312	62.5718
14.33	62.5599
14.348	62.5497
14.366	62.5441
14.384	62.5472
14.402	62.5624
14.42	62.5921
14.438	62.6373
14.456	62.697
14.474	62.7685
14.492	62.8473
14.51	62.9274
14.528	63.0028
14.546	63.0684
14.564	63.1209
14.582	63.1584
14.6	63.1813
14.618	63.1913
14.636	63.1912
14.654	63.1842
14.672	63.1728
14.69	63.1585
14.708	63.1424
14.726	63.1251
14.744	63.1063
14.762	63.0863
14.78	63.065
14.798	63.0422
14.816	63.018
14.834	62.9919
14.852	62.9631
14.87	62.9309
14.888	62.8945
14.906	62.8536
14.924	62.8087
14.942	62.7607
14.96	62.7122
14.978	62.6662
14.996	62.6261
15.014	62.5953
15.032	62.5769
15.05	62.5721
15.068	62.5802
15.086	62.5993
15.104	62.6259
15.122	62.6543
15.14	62.6792
15.158	62.6964
15.176	62.7023
15.194	62.6946
15.212	62.6731
15.23	62.6392
15.248	62.5953
15.266	62.5443
15.284	62.4895
15.302	62.4335
15.32	62.3779
15.338	62.3241
15.356	62.2726
15.374	62.224
15.392	62.1785
15.41	62.1361
15.428	62.0973
15.446	62.0624
15.464	62.0318
15.482	62.0062
15.5	61.9858
15.518	61.97
15.536	61.958
15.554	61.9493
15.572	61.9424
15.59	61.9367
15.608	61.9315
15.626	61.9269
15.644	61.9232
15.662	61.9221
15.68	61.925
15.698	61.9332
15.716	61.9484
15.734	61.9706
15.752	61.9995
15.77	62.0341
15.788	62.0716
15.806	62.109
15.824	62.1435
15.842	62.1716
15.86	62.1904
15.878	62.1985
15.896	62.1952
15.914	62.1812
15.932	62.1585
15.95	62.1294
15.968	62.0971
15.986	62.0658
16.004	62.0386
16.022	62.0187
16.04	62.0095
16.058	62.0125
16.076	62.0292
16.094	62.0598
16.112	62.104
16.13	62.161
16.148	62.2296
16.166	62.3083
16.184	62.3953
16.202	62.489
16.22	62.5867
16.238	62.6865
16.256	62.7866
16.274	62.8838
16.292	62.9758
16.31	63.0602
16.328	63.134
16.346	63.1954
16.364	63.243
16.382	63.2756
16.4	63.2932
16.418	63.2961
16.436	63.286
16.454	63.2652
16.472	63.2356
16.49	63.1999
16.508	63.1593
16.526	63.1147
16.544	63.0669
16.562	63.0152
16.58	62.9592
16.598	62.8977
16.616	62.83
16.634	62.7558
16.652	62.675
16.67	62.5888
16.688	62.4984
16.706	62.4076
16.724	62.3193
16.742	62.2374
16.76	62.1664
16.778	62.1087
16.796	62.0682
16.814	62.0464
16.832	62.0444
16.85	62.0625
16.868	62.0988
16.886	62.1517
16.904	62.217
16.922	62.2917
16.94	62.3719
16.958	62.4529
16.976	62.5325
16.994	62.6057
17.012	62.6714
17.03	62.7282
17.048	62.7752
17.066	62.8135
17.084	62.8445
17.102	62.8708
17.12	62.894
17.138	62.9191
17.156	62.9491
17.174	62.9871
17.192	63.038
17.21	63.1027
17.228	63.1842
17.246	63.2816
17.264	63.3948
17.282	63.5196
17.3	63.6531
17.318	63.7893
17.336	63.9209
17.354	64.0436
17.372	64.1468
17.39	64.2273
17.408	64.2767
17.426	64.2926
17.444	64.2721
17.462	64.2148
17.48	64.1221
17.498	63.9971
17.516	63.8453
17.534	63.6703
17.552	63.4822
17.57	63.284
17.588	63.0865
17.606	62.8932
17.624	62.7113
17.642	62.5452
17.66	62.3975
17.678	62.2714
17.696	62.1672
17.714	62.085
17.732	62.0237
17.75	61.9823
17.768	61.9578
17.786	61.949
17.804	61.9517
17.822	61.965
17.84	61.9849
17.858	62.01
17.876	62.0375
17.894	62.0651
17.912	62.0916
17.93	62.1141
17.948	62.1321
17.966	62.1431
17.984	62.1469
18.002	62.1418
18.02	62.128
18.038	62.1051
18.056	62.0743
18.074	62.0359
18.092	61.9928
18.11	61.9456
18.128	61.8986
18.146	61.8527
18.164	61.8124
18.182	61.7794
18.2	61.7568
18.218	61.7464
18.236	61.7496
18.254	61.7669
18.272	61.7985
18.29	61.8426
18.308	61.8988
18.326	61.9626
18.344	62.0331
18.362	62.1049
18.38	62.1764
18.398	62.2423
18.416	62.3004
18.434	62.3471
18.452	62.3799
18.47	62.3968
18.488	62.3961
18.506	62.3767
18.524	62.3392
18.542	62.2831
18.56	62.2106
18.578	62.1216
18.596	62.0206
18.614	61.9081
18.632	61.7893
18.65	61.6648
18.668	61.5415
18.686	61.4202
18.704	61.3082
18.722	61.2063
18.74	61.1216
18.758	61.0547
18.776	61.0112
18.794	60.9914
18.812	60.999
18.83	61.0335
18.848	61.0964
18.866	61.186
18.884	61.3015
18.902	61.4403
18.92	61.5994
18.938	61.7755
18.956	61.9638
18.974	62.1609
18.992	62.361
19.01	62.5611
19.028	62.7553
19.046	62.9415
19.064	63.1145
19.082	63.2735
19.1	63.4147
19.118	63.5384
19.136	63.6426
19.154	63.7283
19.172	63.7957
19.19	63.8458
19.208	63.8805
19.226	63.9004
19.244	63.9088
19.262	63.906
19.28	63.8947
19.298	63.8751
19.316	63.8492
19.334	63.8169
19.352	63.7787
19.37	63.7347
19.388	63.6847
19.406	63.6288
19.424	63.5665
19.442	63.4977
19.46	63.4231
19.478	63.3425
19.496	63.2577
19.514	63.1684
19.532	63.0775
19.55	62.986
19.568	62.8963
19.586	62.8107
19.604	62.7306
19.622	62.6594
19.64	62.5973
19.658	62.5476
19.676	62.5099
19.694	62.4856
19.712	62.4745
19.73	62.476
19.748	62.4903
19.766	62.5146
19.784	62.5489
19.802	62.5903
19.82	62.6373
19.838	62.6884
19.856	62.7404
19.874	62.7933
19.892	62.8435
19.91	62.8914
19.928	62.9345
19.946	62.9729
19.964	63.0057
19.982	63.0325
20	63.0537
20.018	63.069
20.036	63.0791
20.054	63.0847
20.072	63.0861
20.09	63.0847
20.108	63.0803
20.126	63.0745
20.144	63.0673
20.162	63.0592
20.18	63.0506
20.198	63.0417
20.216	63.0329
20.234	63.0241
20.252	63.0155
20.27	63.0071
20.288	62.9985
20.306	62.99
20.324	62.9811
20.342	62.9717
20.36	62.9618
20.378	62.9512
20.396	62.9402
20.414	62.9288
20.432	62.917
20.45	62.9053
20.468	62.8936
20.486	62.8823
20.504	62.8719
20.522	62.8624
20.54	62.8545
20.558	62.8484
20.576	62.8444
20.594	62.8428
20.612	62.8437
20.63	62.8473
20.648	62.8537
20.666	62.8623
20.684	62.8735
20.702	62.8862
20.72	62.9
20.738	62.9147
20.756	62.9286
20.774	62.9423
20.792	62.9537
20.81	62.9627
20.828	62.9687
20.846	62.9705
20.864	62.9685
20.882	62.9616
20.9	62.95
20.918	62.9339
20.936	62.9134
20.954	62.8889
20.972	62.8618
20.99	62.8316
21.008	62.8004
21.026	62.7688
21.044	62.7371
21.062	62.7078
21.08	62.6801
21.098	62.6558
21.116	62.6354
21.134	62.6187
21.152	62.6067
21.17	62.599
21.188	62.5953
21.206	62.5958
21.224	62.5998
21.242	62.6061
21.26	62.6152
21.278	62.6251
21.296	62.6358
21.314	62.6467
21.332	62.6562
21.35	62.6648
21.368	62.6715
21.386	62.6759
21.404	62.6783
21.422	62.6783
21.44	62.676
21.458	62.6719
21.476	62.6664
21.494	62.6594
21.512	62.6521
21.53	62.6443
21.548	62.6364
21.566	62.629
21.584	62.6218
21.602	62.6147
21.62	62.6081
21.638	62.6012
21.656	62.5935
21.674	62.5853
21.692	62.5752
21.71	62.5628
21.728	62.548
21.746	62.5287
21.764	62.5054
21.782	62.4773
21.8	62.4432
21.818	62.4036
21.836	62.3585
21.854	62.3075
21.872	62.2513
21.89	62.1911
21.908	62.1262
21.926	62.0587
21.944	61.9899
21.962	61.9194
21.98	61.8505
21.998	61.7832
22.016	61.7183
22.034	61.6589
22.052	61.6041
22.07	61.5554
22.088	61.5144
22.106	61.4805
22.124	61.4543
22.142	61.4365
22.16	61.4264
22.178	61.4232
22.196	61.4275
22.214	61.4377
22.232	61.4519
22.25	61.471
22.268	61.4924
22.286	61.5148
22.304	61.5388
22.322	61.5617
22.34	61.5833
22.358	61.6035
22.376	61.6206
22.394	61.6347
22.412	61.6459
22.43	61.6535
22.448	61.6575
22.466	61.6588
22.484	61.6577
22.502	61.6537
22.52	61.6488
22.538	61.6435
22.556	61.6374
22.574	61.6324
22.592	61.6288
22.61	61.6264
22.628	61.6269
22.646	61.6302
22.664	61.6363
22.682	61.6458
22.7	61.6586
22.718	61.6747
22.736	61.6939
22.754	61.7164
22.772	61.7418
22.79	61.7697
22.808	61.8003
22.826	61.8333
22.844	61.8685
22.862	61.906
22.88	61.9455
22.898	61.9867
22.916	62.0297
22.934	62.0749
22.952	62.122
22.97	62.1711
22.988	62.223
23.006	62.2779
23.024	62.3357
23.042	62.3975
23.06	62.4632
23.078	62.5329
23.096	62.6073
23.114	62.6866
23.132	62.7706
23.15	62.859
23.168	62.9522
23.186	63.0497
23.204	63.1502
23.222	63.2546
23.24	63.3618
23.258	63.4692
23.276	63.5776
23.294	63.6861
23.312	63.7912
23.33	63.8938
23.348	63.9931
23.366	64.0847
23.384	64.1693
23.402	64.2465
23.42	64.3129
23.438	64.3686
23.456	64.4138
23.474	64.4454
23.492	64.4631
23.51	64.4675
23.528	64.457
23.546	64.4311
23.564	64.3903
23.582	64.3345
23.6	64.2633
23.618	64.177
23.636	64.0774
23.654	63.965
23.672	63.8391
23.69	63.7023
23.708	63.5563
23.726	63.3994
23.744	63.2347
23.762	63.0645
23.78	62.8869
23.798	62.7048
23.816	62.5214
23.834	62.3345
23.852	62.1467
23.87	61.9617
23.888	61.7784
23.906	61.5974
23.924	61.4217
23.942	61.2511
23.96	61.0854
23.978	60.9264
23.996	60.7747
24.014	60.6296
24.032	60.4925
24.05	60.3642
24.068	60.2438
24.086	60.1327
24.104	60.0323
24.122	59.9412
24.14	59.861
24.158	59.7934
24.176	59.7375
24.194	59.6939
24.212	59.6652
24.23	59.6516
24.248	59.6523
24.266	59.6696
24.284	59.7049
24.302	59.7568
24.32	59.8264
24.338	59.9149
24.356	60.022
24.374	60.1473
24.392	60.2905
24.41	60.4527
24.428	60.6327
24.446	60.8278
24.464	61.038
24.482	61.2647
24.5	61.502
24.518	61.7456
24.536	62.0002
24.554	62.26
24.572	62.5172
24.59	62.7749
24.608	63.0319
24.626	63.2796
24.644	63.5147
24.662	63.7417
24.68	63.9539
24.698	64.1452
24.716	64.3193
24.734	64.4741
24.752	64.6045
24.77	64.7095
24.788	64.7909
24.806	64.848
24.824	64.8794
24.842	64.8849
24.86	64.8671
24.878	64.8291
24.896	64.7679
24.914	64.6858
24.932	64.5895
24.95	64.4813
24.968	64.3565
24.986	64.2236
25.004	64.0911
25.022	63.9542
25.04	63.8153
25.058	63.6834
25.076	63.5623
25.094	63.4473
25.112	63.343
25.13	63.2545
25.148	63.1795
25.166	63.1185
25.184	63.0752
25.202	63.0513
25.22	63.0446
25.238	63.0567
25.256	63.0891
25.274	63.1415
25.292	63.2134
25.31	63.3051
25.328	63.4169
25.346	63.5487
25.364	63.6998
25.382	63.8694
25.4	64.0577
25.418	64.2645
25.436	64.4896
25.454	64.7326
25.472	64.9937
25.49	65.2725
25.508	65.5686
25.526	65.8819
25.544	66.2123
25.562	66.5599
25.58	66.9248
25.598	67.3073
25.616	67.7068
25.634	68.1224
25.652	68.5543
25.67	69.0041
25.688	69.468
25.706	69.9417
25.724	70.4271
25.742	70.9252
25.76	71.4277
25.778	71.927
25.796	72.4303
25.814	72.9333
25.832	73.4255
25.85	73.9009
25.868	74.3689
25.886	74.8203
25.904	75.2432
25.922	75.6364
25.94	76.0065
25.958	76.3429
25.976	76.6346
25.994	76.8859
26.012	77.098
26.03	77.2626
26.048	77.3723
26.066	77.431
26.084	77.4393
26.102	77.3955
26.12	77.2978
26.138	77.1462
26.156	76.9437
26.174	76.6939
26.192	76.3958
26.21	76.0463
26.228	75.6547
26.246	75.2308
26.264	74.7719
26.282	74.2748
26.3	73.752
26.318	73.2156
26.336	72.6609
26.354	72.0866
26.372	71.5014
26.39	70.913
26.408	70.3145
26.426	69.7088
26.444	69.1046
26.462	68.5087
26.48	67.9134
26.498	67.323
26.516	66.7463
26.534	66.1889
26.552	65.6417
26.57	65.1117
26.588	64.6091
26.606	64.1401
26.624	63.6954
26.642	63.2812
26.66	62.9059
26.678	62.5728
26.696	62.2726
26.714	62.015
26.732	61.8113
26.75	61.6662
26.768	61.5694
26.786	61.5296
26.804	61.557
26.822	61.6551
26.84	61.8135
26.858	62.0424
26.876	62.3532
26.894	62.75
26.912	63.2218
26.93	63.7781
26.948	64.4301
26.966	65.2438
26.984	66.2996
27.002	67.3747
27.02	68.2282
27.028	68.4494