File: Bakgrunnsmateriale/MATLAB/FTIR/ftir_data/subAa/Mapping_121/BZ1503107-1_t30.asc
PE IR       SPECTRUM    SPECTRUM    ASCII       PEDS        1.60
  -1
BZ2947~1.ASC
17/04/07
15:42:11.00
17/04/07
15:42:37.00
tln
$BZ1503107-1_t0030$<tbV0>[-5.2,-7.8,8.0,0.0,27,1,0]
27.028
64

2002,4.07
MIRTGS : RIGHTBACK : INTERNAL 2
MIR : ON : INTERNAL 2
OPTKBR

0.200000
8
8.000000
FILLER
RATIO
SPECTRUM
UNLOCKED 256

DOUBLE
64
COMBINED
1
0
0

0.002000
RATIO

1
0
TRUE
51149
0
LEFT NOT FITTED RIGHT NOT FITTED 0
NONE
NONE
15600
12
4.427000
51148
TRUE
1 0 8 72 0 0 0 0

15798

#HDR
-1
-1
#GR
µM
%T
2.38419e-05
0.0
2.000000
0.002000
12515
8
76.241
43.9576
#DATA
2.000000	 64.9832
2.018000	 64.3073
2.036000	 64.6271
2.054000	 64.8369
2.072000	 64.6948
2.090000	 64.6062
2.108000	 64.4508
2.126000	 65.3331
2.144000	 64.5912
2.162000	 64.4179
2.180000	 64.2995
2.198000	 64.2759
2.216000	 64.172
2.234000	 63.6908
2.252000	 65.8875
2.270000	 63.5969
2.288000	 64.4651
2.306000	 64.4036
2.324000	 64.6943
2.342000	 64.258
2.360000	 64.7553
2.378000	 65.0003
2.396000	 65.0309
2.414000	 64.9032
2.432000	 64.7388
2.450000	 64.787
2.468000	 64.7083
2.486000	 64.6274
2.504000	 65.1749
2.522000	 64.8235
2.540000	 64.6593
2.558000	 64.8733
2.576000	 64.6508
2.594000	 64.5562
2.612000	 64.7629
2.630000	 64.9201
2.648000	 64.6863
2.666000	 64.8333
2.684000	 64.8676
2.702000	 64.9889
2.720000	 65.0493
2.738000	 64.9806
2.756000	 64.7801
2.774000	 65.1268
2.792000	 64.8637
2.810000	 64.9311
2.828000	 64.7542
2.846000	 65.1008
2.864000	 64.9504
2.882000	 64.7676
2.900000	 64.8493
2.918000	 64.8447
2.936000	 65.0895
2.954000	 65.0681
2.972000	 64.865
2.990000	 64.9325
3.008000	 64.8439
3.026000	 64.8152
3.044000	 64.7942
3.062000	 64.8478
3.080000	 64.8904
3.098000	 64.6421
3.116000	 64.9222
3.134000	 64.6435
3.152000	 64.7828
3.170000	 64.8549
3.188000	 64.6967
3.206000	 64.7972
3.224000	 64.7845
3.242000	 64.9397
3.260000	 64.921
3.278000	 64.8371
3.296000	 64.8546
3.314000	 64.8283
3.332000	 64.8934
3.350000	 64.7286
3.368000	 64.6182
3.386000	 64.8148
3.404000	 64.7342
3.422000	 64.6702
3.440000	 64.759
3.458000	 64.7731
3.476000	 64.6603
3.494000	 64.8663
3.512000	 64.79
3.530000	 64.6944
3.548000	 64.7167
3.566000	 64.9197
3.584000	 64.8936
3.602000	 64.8451
3.620000	 64.8868
3.638000	 64.8699
3.656000	 64.8032
3.674000	 64.8427
3.692000	 64.8272
3.710000	 64.8355
3.728000	 64.8178
3.746000	 64.7195
3.764000	 64.785
3.782000	 64.8147
3.800000	 64.8889
3.818000	 64.8207
3.836000	 64.757
3.854000	 64.6638
3.872000	 64.6776
3.890000	 64.7042
3.908000	 64.8156
3.926000	 64.634
3.944000	 64.8766
3.962000	 64.7976
3.980000	 64.8123
3.998000	 64.8043
4.016000	 64.5839
4.034000	 64.8228
4.052000	 64.7996
4.070000	 64.6297
4.088000	 64.6458
4.106000	 64.6791
4.124000	 64.7476
4.141999	 64.6522
4.160000	 64.823
4.178000	 64.8527
4.196000	 64.7174
4.214000	 64.5749
4.232000	 64.6402
4.250000	 64.7386
4.268000	 64.7883
4.286000	 64.7506
4.304000	 64.7187
4.322000	 64.7666
4.340000	 64.7501
4.358000	 64.6024
4.375999	 64.7517
4.394000	 64.7634
4.412000	 64.7302
4.430000	 64.7217
4.448000	 64.6412
4.466000	 64.5672
4.484000	 64.7428
4.502000	 64.5857
4.520000	 64.6079
4.538000	 64.6417
4.556000	 64.7536
4.574000	 64.6844
4.592000	 64.6956
4.609999	 64.7074
4.628000	 64.6768
4.646000	 64.5794
4.664000	 64.6535
4.682000	 64.5818
4.700000	 64.6579
4.718000	 64.7009
4.736000	 64.5909
4.754000	 64.559
4.772000	 64.5988
4.790000	 64.6765
4.808000	 64.7101
4.826000	 64.6771
4.843999	 64.6995
4.862000	 64.6285
4.880000	 64.5405
4.898000	 64.5583
4.916000	 64.5863
4.934000	 64.6958
4.952000	 64.6917
4.970000	 64.6436
4.988000	 64.6558
5.006000	 64.7002
5.024000	 64.6311
5.042000	 64.5549
5.060000	 64.6202
5.077999	 64.6742
5.096000	 64.6565
5.114000	 64.6366
5.132000	 64.6324
5.150000	 64.5884
5.168000	 64.6443
5.186000	 64.5703
5.204000	 64.5585
5.222000	 64.5172
5.240000	 64.5573
5.258000	 64.532
5.276000	 64.462
5.294000	 64.4971
5.312000	 64.5187
5.330000	 64.4526
5.348000	 64.5322
5.366000	 64.5099
5.384000	 64.3968
5.402000	 64.4529
5.420000	 64.5598
5.438000	 64.555
5.456000	 64.4841
5.474000	 64.4607
5.492000	 64.4728
5.510000	 64.5078
5.528000	 64.4418
5.546000	 64.4213
5.564000	 64.5026
5.582000	 64.4656
5.600000	 64.498
5.618000	 64.5156
5.636000	 64.4859
5.654000	 64.3653
5.672000	 64.39
5.690000	 64.3769
5.708000	 64.2462
5.726000	 64.0921
5.744000	 63.9182
5.762000	 63.7999
5.780000	 63.8638
5.798000	 63.9753
5.816000	 64.0819
5.834000	 64.2214
5.852000	 64.2543
5.870000	 64.3262
5.888000	 64.3899
5.906000	 64.3732
5.923999	 64.3737
5.942000	 64.3593
5.960000	 64.3235
5.978000	 64.3821
5.996000	 64.3757
6.014000	 64.34
6.032000	 64.3062
6.050000	 64.2365
6.068000	 64.2631
6.086000	 64.246
6.104000	 64.2318
6.122000	 64.2799
6.140000	 64.3248
6.158000	 64.2905
6.176000	 64.2245
6.194000	 64.1984
6.212000	 64.262
6.230000	 64.3263
6.248000	 64.3513
6.266000	 64.3287
6.284000	 64.2441
6.302000	 64.1782
6.320000	 64.1269
6.338000	 64.1059
6.356000	 64.1438
6.374000	 64.2409
6.392000	 64.3512
6.410000	 64.3539
6.428000	 64.2519
6.446000	 64.197
6.464000	 64.2271
6.482000	 64.2677
6.500000	 64.2773
6.518000	 64.3042
6.536000	 64.2989
6.554000	 64.1975
6.572000	 64.1723
6.590000	 64.2442
6.608000	 64.2944
6.626000	 64.3915
6.644000	 64.4599
6.662000	 64.3962
6.680000	 64.3011
6.698000	 64.2909
6.716000	 64.3027
6.734000	 64.2783
6.752000	 64.2513
6.770000	 64.1885
6.788000	 64.0957
6.806000	 64.0562
6.824000	 64.0582
6.842000	 64.0999
6.860000	 64.1643
6.878000	 64.1586
6.896000	 64.1165
6.914000	 64.1394
6.932000	 64.2109
6.950000	 64.2593
6.968000	 64.2772
6.986000	 64.2949
7.004000	 64.3247
7.022000	 64.3468
7.040000	 64.3217
7.058000	 64.272
7.076000	 64.2241
7.094000	 64.1702
7.112000	 64.1337
7.130000	 64.1268
7.148000	 64.1412
7.166000	 64.1643
7.184000	 64.1686
7.202000	 64.1416
7.220000	 64.0902
7.238000	 64.0678
7.256000	 64.1232
7.274000	 64.1902
7.292000	 64.1836
7.310000	 64.1184
7.328000	 64.0473
7.346000	 64.0207
7.364000	 64.0578
7.382000	 64.0906
7.400000	 64.0694
7.418000	 64.0562
7.436000	 64.0898
7.454000	 64.1089
7.472000	 64.0732
7.490000	 64.0248
7.508000	 64.0282
7.526000	 64.098
7.544000	 64.1676
7.562000	 64.1712
7.580000	 64.1409
7.598000	 64.1284
7.616000	 64.1153
7.634000	 64.0893
7.652000	 64.0788
7.670000	 64.0811
7.688000	 64.0737
7.706000	 64.0661
7.724000	 64.0691
7.742000	 64.0626
7.760000	 64.0358
7.778000	 64.0114
7.796000	 64.0148
7.814000	 64.0484
7.832000	 64.0874
7.850000	 64.0962
7.868000	 64.0656
7.886000	 64.0234
7.904000	 63.9911
7.922000	 63.9659
7.940000	 63.953
7.958000	 63.965
7.976000	 63.9906
7.994000	 64.0029
8.012000	 64.0036
8.030000	 64.0193
8.048000	 64.045
8.065999	 64.0457
8.084000	 64.0247
8.102000	 64.0299
8.120000	 64.0678
8.138000	 64.0829
8.155999	 64.0469
8.173999	 64.0034
8.192000	 64.004
8.210000	 64.0488
8.228000	 64.091
8.246000	 64.0776
8.263999	 63.9969
8.282000	 63.8973
8.300000	 63.8384
8.318000	 63.8261
8.336000	 63.8219
8.353999	 63.8085
8.372000	 63.8027
8.390000	 63.8096
8.408000	 63.8103
8.426000	 63.8035
8.443999	 63.8177
8.462000	 63.8624
8.480000	 63.8992
8.498000	 63.8866
8.516000	 63.8318
8.533999	 63.781
8.552000	 63.7719
8.570000	 63.805
8.588000	 63.8453
8.606000	 63.844
8.624000	 63.7787
8.641999	 63.6815
8.660000	 63.6199
8.678000	 63.6388
8.696000	 63.725
8.714000	 63.825
8.731999	 63.8925
8.750000	 63.9186
8.768000	 63.9252
8.786000	 63.9369
8.804000	 63.9536
8.821999	 63.9543
8.840000	 63.9313
8.858000	 63.9028
8.876000	 63.8884
8.894000	 63.8922
8.911999	 63.9114
8.930000	 63.9383
8.948000	 63.9582
8.966000	 63.9553
8.984000	 63.9218
9.001999	 63.8618
9.020000	 63.7936
9.038000	 63.7428
9.056000	 63.7234
9.074000	 63.7284
9.092000	 63.7411
9.109999	 63.7537
9.128000	 63.7746
9.146000	 63.8186
9.164000	 63.889
9.182000	 63.9681
9.199999	 64.0255
9.218000	 64.037
9.236000	 64.0013
9.254000	 63.9399
9.272000	 63.8816
9.289999	 63.8452
9.308000	 63.8351
9.326000	 63.8479
9.344000	 63.878
9.362000	 63.9159
9.379999	 63.9467
9.398000	 63.9562
9.416000	 63.9432
9.434000	 63.9241
9.452000	 63.9216
9.469999	 63.9447
9.488000	 63.9797
9.506000	 63.9995
9.524000	 63.9852
9.542000	 63.9415
9.560000	 63.8922
9.577999	 63.8587
9.596000	 63.8434
9.614000	 63.8336
9.632000	 63.8191
9.650000	 63.8068
9.667999	 63.8154
9.686000	 63.8575
9.704000	 63.9262
9.722000	 63.9998
9.740000	 64.0573
9.757999	 64.0908
9.776000	 64.1052
9.794000	 64.1094
9.812000	 64.1079
9.830000	 64.1018
9.847999	 64.0922
9.866000	 64.0808
9.884000	 64.0677
9.902000	 64.0504
9.920000	 64.0277
9.937999	 64.0028
9.956000	 63.9828
9.974000	 63.9736
9.992000	 63.9767
10.01	63.9876
10.028	63.9987
10.046	64.0014
10.064	63.9883
10.082	63.9554
10.1	63.9044
10.118	63.8457
10.136	63.7974
10.154	63.7784
10.172	63.7987
10.19	63.8518
10.208	63.9155
10.226	63.9629
10.244	63.9747
10.262	63.9492
10.28	63.9012
10.298	63.8521
10.316	63.8208
10.334	63.8162
10.352	63.8389
10.37	63.8834
10.388	63.9411
10.406	64.0012
10.424	64.0537
10.442	64.0923
10.46	64.116
10.478	64.1286
10.496	64.1343
10.514	64.1333
10.532	64.121
10.55	64.0919
10.568	64.0448
10.586	63.9885
10.604	63.9384
10.622	63.9112
10.64	63.9158
10.658	63.9482
10.676	63.9904
10.694	64.0198
10.712	64.0189
10.73	63.9873
10.748	63.9407
10.766	63.9038
10.784	63.8965
10.802	63.9241
10.82	63.9767
10.838	64.0343
10.856	64.0795
10.874	64.1025
10.892	64.1036
10.91	64.0891
10.928	64.0663
10.946	64.0404
10.964	64.0148
10.982	63.9927
11	63.9757
11.018	63.965
11.036	63.9596
11.054	63.9573
11.072	63.9552
11.09	63.9515
11.108	63.9458
11.126	63.9386
11.144	63.9298
11.162	63.9182
11.18	63.9024
11.198	63.8821
11.216	63.8595
11.234	63.8404
11.252	63.8327
11.27	63.8424
11.288	63.8711
11.306	63.9147
11.324	63.9632
11.342	64.0041
11.36	64.0276
11.378	64.0291
11.396	64.0113
11.414	63.984
11.432	63.9596
11.45	63.9494
11.468	63.9597
11.486	63.989
11.504	64.0292
11.522	64.0675
11.54	64.0916
11.558	64.0932
11.576	64.0721
11.594	64.035
11.612	63.9937
11.63	63.9602
11.648	63.9414
11.666	63.9374
11.684	63.9426
11.702	63.949
11.72	63.9496
11.738	63.9418
11.756	63.9273
11.774	63.9102
11.792	63.8956
11.81	63.8866
11.828	63.8847
11.846	63.89
11.864	63.9027
11.882	63.9231
11.9	63.9513
11.918	63.9852
11.936	64.0195
11.954	64.0464
11.972	64.0563
11.99	64.0414
12.008	63.9985
12.026	63.9304
12.044	63.846
12.062	63.7576
12.08	63.6778
12.098	63.6164
12.116	63.5785
12.134	63.5646
12.152	63.5711
12.17	63.5941
12.188	63.6294
12.206	63.6739
12.224	63.7239
12.242	63.7749
12.26	63.821
12.278	63.8561
12.296	63.8752
12.314	63.8773
12.332	63.8646
12.35	63.8427
12.368	63.8171
12.386	63.7923
12.404	63.7702
12.422	63.7502
12.44	63.7311
12.458	63.7127
12.476	63.697
12.494	63.6883
12.512	63.6915
12.53	63.7093
12.548	63.7406
12.566	63.7808
12.584	63.8221
12.602	63.8558
12.62	63.876
12.638	63.8809
12.656	63.8736
12.674	63.8601
12.692	63.8469
12.71	63.8394
12.728	63.8395
12.746	63.8456
12.764	63.853
12.782	63.857
12.8	63.8537
12.818	63.8419
12.836	63.8239
12.854	63.8041
12.872	63.7871
12.89	63.7769
12.908	63.7754
12.926	63.7826
12.944	63.7969
12.962	63.8159
12.98	63.8379
12.998	63.8623
13.016	63.8893
13.034	63.9193
13.052	63.9516
13.07	63.9846
13.088	64.0147
13.106	64.0368
13.124	64.0466
13.142	64.041
13.16	64.0201
13.178	63.9866
13.196	63.9463
13.214	63.9058
13.232	63.8704
13.25	63.8427
13.268	63.8219
13.286	63.8038
13.304	63.7829
13.322	63.7534
13.34	63.7113
13.358	63.6568
13.376	63.5941
13.394	63.5307
13.412	63.4757
13.43	63.4381
13.448	63.4253
13.466	63.441
13.484	63.4852
13.502	63.5548
13.52	63.6445
13.538	63.7477
13.556	63.8579
13.574	63.9687
13.592	64.0749
13.61	64.1721
13.628	64.257
13.646	64.3273
13.664	64.3815
13.682	64.4193
13.7	64.4402
13.718	64.4447
13.736	64.4322
13.754	64.4035
13.772	64.3581
13.79	64.2962
13.808	64.2176
13.826	64.1236
13.844	64.0164
13.862	63.8989
13.88	63.7752
13.898	63.65
13.916	63.5288
13.934	63.4171
13.952	63.3206
13.97	63.2437
13.988	63.1901
14.006	63.1619
14.024	63.1601
14.042	63.1839
14.06	63.231
14.078	63.2972
14.096	63.3774
14.114	63.4653
14.132	63.5535
14.15	63.6353
14.168	63.7046
14.186	63.7574
14.204	63.7908
14.222	63.8048
14.24	63.8021
14.258	63.7879
14.276	63.7684
14.294	63.7503
14.312	63.7401
14.33	63.7426
14.348	63.7599
14.366	63.7925
14.384	63.8365
14.402	63.8851
14.42	63.9298
14.438	63.9615
14.456	63.9723
14.474	63.9563
14.492	63.9109
14.51	63.8381
14.528	63.7446
14.546	63.6402
14.564	63.5356
14.582	63.442
14.6	63.3692
14.618	63.324
14.636	63.3099
14.654	63.3248
14.672	63.3633
14.69	63.4172
14.708	63.4764
14.726	63.5301
14.744	63.5685
14.762	63.5838
14.78	63.573
14.798	63.5366
14.816	63.4786
14.834	63.4076
14.852	63.3353
14.87	63.2731
14.888	63.2309
14.906	63.2164
14.924	63.2338
14.942	63.2831
14.96	63.3587
14.978	63.4523
14.996	63.554
15.014	63.6528
15.032	63.7375
15.05	63.8006
15.068	63.8379
15.086	63.8483
15.104	63.8334
15.122	63.799
15.14	63.7522
15.158	63.7
15.176	63.6487
15.194	63.6042
15.212	63.5696
15.23	63.5448
15.248	63.5276
15.266	63.5143
15.284	63.4992
15.302	63.477
15.32	63.4437
15.338	63.3965
15.356	63.3349
15.374	63.2608
15.392	63.1786
15.41	63.0942
15.428	63.0145
15.446	62.9492
15.464	62.9044
15.482	62.8855
15.5	62.8966
15.518	62.9385
15.536	63.0088
15.554	63.1039
15.572	63.2179
15.59	63.3421
15.608	63.469
15.626	63.5919
15.644	63.7038
15.662	63.7997
15.68	63.8777
15.698	63.9369
15.716	63.978
15.734	64.004
15.752	64.0177
15.77	64.0222
15.788	64.0219
15.806	64.0191
15.824	64.016
15.842	64.0144
15.86	64.0145
15.878	64.0159
15.896	64.0178
15.914	64.0179
15.932	64.0144
15.95	64.0056
15.968	63.9894
15.986	63.9644
16.004	63.9297
16.022	63.885
16.04	63.8304
16.058	63.7672
16.076	63.6967
16.094	63.6215
16.112	63.5448
16.13	63.4693
16.148	63.3982
16.166	63.3355
16.184	63.2837
16.202	63.2458
16.22	63.2245
16.238	63.2208
16.256	63.2353
16.274	63.2678
16.292	63.3163
16.31	63.3792
16.328	63.4526
16.346	63.5327
16.364	63.6162
16.382	63.6982
16.4	63.7758
16.418	63.8466
16.436	63.908
16.454	63.9593
16.472	64.0001
16.49	64.0311
16.508	64.0538
16.526	64.0693
16.544	64.0801
16.562	64.0873
16.58	64.092
16.598	64.0956
16.616	64.0977
16.634	64.0982
16.652	64.0964
16.67	64.0914
16.688	64.0821
16.706	64.0672
16.724	64.0464
16.742	64.0188
16.76	63.9848
16.778	63.9448
16.796	63.8994
16.814	63.8499
16.832	63.797
16.85	63.7426
16.868	63.6875
16.886	63.6326
16.904	63.5794
16.922	63.5286
16.94	63.4808
16.958	63.437
16.976	63.3976
16.994	63.3635
17.012	63.3355
17.03	63.3139
17.048	63.2995
17.066	63.2923
17.084	63.2926
17.102	63.3
17.12	63.3142
17.138	63.3344
17.156	63.3596
17.174	63.3889
17.192	63.4205
17.21	63.4535
17.228	63.4861
17.246	63.5171
17.264	63.5459
17.282	63.5713
17.3	63.593
17.318	63.6106
17.336	63.6239
17.354	63.6329
17.372	63.638
17.39	63.6395
17.408	63.6378
17.426	63.6335
17.444	63.6269
17.462	63.6187
17.48	63.6091
17.498	63.5987
17.516	63.5881
17.534	63.5776
17.552	63.5681
17.57	63.5601
17.588	63.5545
17.606	63.5519
17.624	63.5529
17.642	63.5581
17.66	63.5678
17.678	63.5823
17.696	63.6015
17.714	63.6251
17.732	63.6525
17.75	63.683
17.768	63.7152
17.786	63.7487
17.804	63.7815
17.822	63.8132
17.84	63.8425
17.858	63.8688
17.876	63.8915
17.894	63.9107
17.912	63.9261
17.93	63.9387
17.948	63.9488
17.966	63.9574
17.984	63.9648
18.002	63.9721
18.02	63.9792
18.038	63.9867
18.056	63.9939
18.074	64.001
18.092	64.0066
18.11	64.0106
18.128	64.0111
18.146	64.0078
18.164	63.9992
18.182	63.9847
18.2	63.9636
18.218	63.9358
18.236	63.901
18.254	63.8601
18.272	63.8133
18.29	63.7624
18.308	63.7078
18.326	63.6522
18.344	63.596
18.362	63.5425
18.38	63.4922
18.398	63.4479
18.416	63.4103
18.434	63.3812
18.452	63.3609
18.47	63.3503
18.488	63.3486
18.506	63.356
18.524	63.3707
18.542	63.3924
18.56	63.4179
18.578	63.4469
18.596	63.476
18.614	63.5052
18.632	63.5313
18.65	63.5545
18.668	63.5732
18.686	63.5877
18.704	63.5977
18.722	63.6037
18.74	63.6068
18.758	63.6076
18.776	63.6076
18.794	63.6074
18.812	63.6088
18.83	63.6118
18.848	63.6176
18.866	63.6261
18.884	63.6379
18.902	63.6525
18.92	63.6696
18.938	63.6886
18.956	63.7088
18.974	63.7295
18.992	63.7499
19.01	63.7693
19.028	63.7867
19.046	63.8018
19.064	63.8137
19.082	63.8224
19.1	63.827
19.118	63.8278
19.136	63.8244
19.154	63.817
19.172	63.8056
19.19	63.7906
19.208	63.7721
19.226	63.7506
19.244	63.7265
19.262	63.7001
19.28	63.6722
19.298	63.6428
19.316	63.6129
19.334	63.5826
19.352	63.5526
19.37	63.5229
19.388	63.4944
19.406	63.4671
19.424	63.4417
19.442	63.4183
19.46	63.3969
19.478	63.3778
19.496	63.3609
19.514	63.3463
19.532	63.3339
19.55	63.3239
19.568	63.316
19.586	63.3103
19.604	63.3068
19.622	63.3053
19.64	63.3058
19.658	63.3082
19.676	63.3126
19.694	63.3189
19.712	63.3271
19.73	63.3374
19.748	63.3498
19.766	63.3644
19.784	63.3814
19.802	63.4006
19.82	63.4221
19.838	63.4458
19.856	63.4713
19.874	63.4986
19.892	63.527
19.91	63.5564
19.928	63.5859
19.946	63.6154
19.964	63.6438
19.982	63.671
20	63.696
20.018	63.718
20.036	63.7369
20.054	63.7517
20.072	63.7627
20.09	63.7691
20.108	63.7712
20.126	63.7688
20.144	63.7621
20.162	63.7514
20.18	63.7368
20.198	63.7187
20.216	63.6978
20.234	63.674
20.252	63.6486
20.27	63.6214
20.288	63.5933
20.306	63.5643
20.324	63.5352
20.342	63.5066
20.36	63.4786
20.378	63.4523
20.396	63.4275
20.414	63.4057
20.432	63.3866
20.45	63.3715
20.468	63.3608
20.486	63.3549
20.504	63.3549
20.522	63.3606
20.54	63.3733
20.558	63.3929
20.576	63.4196
20.594	63.4539
20.612	63.4951
20.63	63.5432
20.648	63.598
20.666	63.6577
20.684	63.7227
20.702	63.791
20.72	63.8613
20.738	63.9332
20.756	64.0034
20.774	64.0726
20.792	64.1374
20.81	64.1974
20.828	64.2515
20.846	64.2971
20.864	64.335
20.882	64.3632
20.9	64.3818
20.918	64.3905
20.936	64.3887
20.954	64.3771
20.972	64.3564
20.99	64.3263
21.008	64.2885
21.026	64.2432
21.044	64.1911
21.062	64.134
21.08	64.0716
21.098	64.0056
21.116	63.9365
21.134	63.8647
21.152	63.7916
21.17	63.7168
21.188	63.6416
21.206	63.5662
21.224	63.4908
21.242	63.4166
21.26	63.3433
21.278	63.2719
21.296	63.2026
21.314	63.1358
21.332	63.0726
21.35	63.0126
21.368	62.9572
21.386	62.9067
21.404	62.8612
21.422	62.8219
21.44	62.7886
21.458	62.7617
21.476	62.7416
21.494	62.728
21.512	62.7208
21.53	62.7202
21.548	62.7251
21.566	62.7349
21.584	62.7496
21.602	62.767
21.62	62.7875
21.638	62.8097
21.656	62.8315
21.674	62.8536
21.692	62.8737
21.71	62.8911
21.728	62.9058
21.746	62.9156
21.764	62.9211
21.782	62.9214
21.8	62.916
21.818	62.9051
21.836	62.889
21.854	62.8673
21.872	62.8409
21.89	62.8107
21.908	62.7763
21.926	62.739
21.944	62.6998
21.962	62.6582
21.98	62.6164
21.998	62.5743
22.016	62.5323
22.034	62.4918
22.052	62.4525
22.07	62.415
22.088	62.3801
22.106	62.3476
22.124	62.3179
22.142	62.2914
22.16	62.2677
22.178	62.2471
22.196	62.2297
22.214	62.2152
22.232	62.2037
22.25	62.1952
22.268	62.1893
22.286	62.1857
22.304	62.1846
22.322	62.1849
22.34	62.1869
22.358	62.1902
22.376	62.1936
22.394	62.1975
22.412	62.2012
22.43	62.2033
22.448	62.2047
22.466	62.204
22.484	62.2005
22.502	62.1945
22.52	62.1852
22.538	62.1718
22.556	62.1549
22.574	62.1337
22.592	62.108
22.61	62.0781
22.628	62.0443
22.646	62.0061
22.664	61.9643
22.682	61.9198
22.7	61.872
22.718	61.8222
22.736	61.772
22.754	61.7206
22.772	61.6696
22.79	61.6206
22.808	61.5726
22.826	61.5277
22.844	61.4872
22.862	61.4501
22.88	61.4188
22.898	61.3941
22.916	61.3753
22.934	61.3644
22.952	61.3619
22.97	61.3673
22.988	61.3812
23.006	61.4039
23.024	61.435
23.042	61.4739
23.06	61.5209
23.078	61.5757
23.096	61.637
23.114	61.7054
23.132	61.7802
23.15	61.8595
23.168	61.944
23.186	62.0329
23.204	62.1234
23.222	62.216
23.24	62.3102
23.258	62.403
23.276	62.495
23.294	62.5857
23.312	62.6727
23.33	62.7565
23.348	62.8367
23.366	62.9117
23.384	62.9818
23.402	63.0467
23.42	63.1052
23.438	63.1572
23.456	63.2029
23.474	63.2423
23.492	63.275
23.51	63.3015
23.528	63.3227
23.546	63.3386
23.564	63.3491
23.582	63.3561
23.6	63.3599
23.618	63.3602
23.636	63.3591
23.654	63.3576
23.672	63.3549
23.69	63.3527
23.708	63.3525
23.726	63.3532
23.744	63.3558
23.762	63.3613
23.78	63.3692
23.798	63.3797
23.816	63.3935
23.834	63.4104
23.852	63.4301
23.87	63.4527
23.888	63.4787
23.906	63.5072
23.924	63.5366
23.942	63.5675
23.96	63.5995
23.978	63.6297
23.996	63.6575
24.014	63.6838
24.032	63.706
24.05	63.7225
24.068	63.7348
24.086	63.7409
24.104	63.7389
24.122	63.73
24.14	63.7131
24.158	63.6861
24.176	63.6499
24.194	63.604
24.212	63.5468
24.23	63.4777
24.248	63.3975
24.266	63.3061
24.284	63.2033
24.302	63.0893
24.32	62.9645
24.338	62.8293
24.356	62.6836
24.374	62.5276
24.392	62.3619
24.41	62.1864
24.428	62.0012
24.446	61.8066
24.464	61.6027
24.482	61.3891
24.5	61.1672
24.518	60.9378
24.536	60.7003
24.554	60.4554
24.572	60.2044
24.59	59.9465
24.608	59.6822
24.626	59.4136
24.644	59.1414
24.662	58.8646
24.68	58.585
24.698	58.3042
24.716	58.0213
24.734	57.737
24.752	57.4526
24.77	57.1681
24.788	56.8833
24.806	56.5994
24.824	56.3172
24.842	56.0355
24.86	55.7561
24.878	55.4814
24.896	55.2105
24.914	54.9435
24.932	54.6824
24.95	54.4284
24.968	54.1808
24.986	53.939
25.004	53.7028
25.022	53.472
25.04	53.2469
25.058	53.0278
25.076	52.815
25.094	52.6078
25.112	52.4074
25.13	52.2147
25.148	52.0281
25.166	51.849
25.184	51.6801
25.202	51.5223
25.22	51.3736
25.238	51.2371
25.256	51.116
25.274	51.0072
25.292	50.9127
25.31	50.8373
25.328	50.7838
25.346	50.7482
25.364	50.7349
25.382	50.7487
25.4	50.7877
25.418	50.8518
25.436	50.9461
25.454	51.0748
25.472	51.2338
25.49	51.4257
25.508	51.654
25.526	51.9205
25.544	52.2231
25.562	52.561
25.58	52.934
25.598	53.3444
25.616	53.7894
25.634	54.2638
25.652	54.7658
25.67	55.3011
25.688	55.8605
25.706	56.4336
25.724	57.0224
25.742	57.63
25.76	58.2437
25.778	58.8519
25.796	59.462
25.814	60.0714
25.832	60.6706
25.85	61.2532
25.868	61.8255
25.886	62.3842
25.904	62.9244
25.922	63.4439
25.94	63.9453
25.958	64.4291
25.976	64.8958
25.994	65.3436
26.012	65.7737
26.03	66.1901
26.048	66.5956
26.066	66.9857
26.084	67.3643
26.102	67.7382
26.12	68.112
26.138	68.4809
26.156	68.8474
26.174	69.2156
26.192	69.5873
26.21	69.9606
26.228	70.3352
26.246	70.7111
26.264	71.0918
26.282	71.4763
26.3	71.8564
26.318	72.2241
26.336	72.5859
26.354	72.9403
26.372	73.2759
26.39	73.5829
26.408	73.8737
26.426	74.1414
26.444	74.3687
26.462	74.5417
26.48	74.6746
26.498	74.7609
26.516	74.7866
26.534	74.7422
26.552	74.6411
26.57	74.4747
26.588	74.2296
26.606	73.8977
26.624	73.4908
26.642	73.002
26.66	72.4218
26.678	71.744
26.696	70.9748
26.714	70.1144
26.732	69.1623
26.75	68.1159
26.768	66.9733
26.786	65.743
26.804	64.4343
26.822	63.0474
26.84	61.5705
26.858	60.0238
26.876	58.4293
26.894	56.7932
26.912	55.0931
26.93	53.3556
26.948	51.6108
26.966	49.7984
26.984	47.7829
27.002	45.8617
27.02	44.3601
27.028	43.9576