File: Bakgrunnsmateriale/MATLAB/FTIR/ftir_data/subAa/Mapping_121/BZ1503107-1_t63.asc
PE IR       SPECTRUM    SPECTRUM    ASCII       PEDS        1.60
  -1
BZ2551~1.ASC
17/04/07
18:22:50.00
17/04/07
18:23:16.00
tln
$BZ1503107-1_t0063$<tbV0>[-5.2,0.0,8.0,0.0,27,1,0]
27.028
64

2002,4.07
MIRTGS : RIGHTBACK : INTERNAL 2
MIR : ON : INTERNAL 2
OPTKBR

0.200000
8
8.000000
FILLER
RATIO
SPECTRUM
UNLOCKED 256

DOUBLE
64
COMBINED
1
0
0

0.002000
RATIO

1
0
TRUE
51149
0
LEFT NOT FITTED RIGHT NOT FITTED 0
NONE
NONE
15600
12
4.427000
51148
TRUE
1 0 8 72 0 0 0 0

15798

#HDR
-1
-1
#GR
µM
%T
2.38419e-05
0.0
2.000000
0.002000
12515
8
75.2715
53.6849
#DATA
2.000000	 64.8516
2.018000	 65.3491
2.036000	 64.9342
2.054000	 65.232
2.072000	 64.6725
2.090000	 64.1829
2.108000	 64.9474
2.126000	 64.8376
2.144000	 64.8865
2.162000	 64.9791
2.180000	 65.2537
2.198000	 64.8769
2.216000	 65.4007
2.234000	 65.0184
2.252000	 62.4473
2.270000	 65.4227
2.288000	 64.9408
2.306000	 65.1849
2.324000	 64.941
2.342000	 65.248
2.360000	 65.0661
2.378000	 65.0305
2.396000	 64.6374
2.414000	 64.9506
2.432000	 65.0643
2.450000	 64.7536
2.468000	 65.0117
2.486000	 64.9708
2.504000	 65.2618
2.522000	 65.1684
2.540000	 65.0117
2.558000	 65.1339
2.576000	 65.2207
2.594000	 65.0861
2.612000	 64.9823
2.630000	 64.9808
2.648000	 65.44
2.666000	 65.0435
2.684000	 64.9673
2.702000	 65.2562
2.720000	 65.0304
2.738000	 65.195
2.756000	 65.0287
2.774000	 65.0183
2.792000	 65.11
2.810000	 64.9888
2.828000	 65.0419
2.846000	 65.1623
2.864000	 65.2912
2.882000	 65.0131
2.900000	 65.22
2.918000	 64.9116
2.936000	 65.0916
2.954000	 65.0698
2.972000	 65.0145
2.990000	 65.1431
3.008000	 65.0194
3.026000	 65.0423
3.044000	 64.9057
3.062000	 65.133
3.080000	 64.9905
3.098000	 65.078
3.116000	 64.9172
3.134000	 65.0817
3.152000	 64.994
3.170000	 65.0572
3.188000	 65.2483
3.206000	 65.0732
3.224000	 65.1097
3.242000	 64.7301
3.260000	 64.9863
3.278000	 64.9542
3.296000	 64.8599
3.314000	 64.8706
3.332000	 65.1147
3.350000	 64.9416
3.368000	 64.7725
3.386000	 64.8637
3.404000	 64.9101
3.422000	 64.9541
3.440000	 64.9847
3.458000	 64.8117
3.476000	 64.8749
3.494000	 64.9631
3.512000	 64.9618
3.530000	 64.9435
3.548000	 64.9013
3.566000	 64.8885
3.584000	 64.8742
3.602000	 64.9151
3.620000	 64.9269
3.638000	 64.9158
3.656000	 64.8372
3.674000	 64.8945
3.692000	 64.9778
3.710000	 64.9733
3.728000	 64.9057
3.746000	 64.8895
3.764000	 64.9553
3.782000	 64.9286
3.800000	 64.8687
3.818000	 64.9331
3.836000	 64.893
3.854000	 64.9355
3.872000	 64.9006
3.890000	 64.7993
3.908000	 64.7502
3.926000	 64.7736
3.944000	 64.8716
3.962000	 64.8388
3.980000	 64.8076
3.998000	 64.699
4.016000	 64.9769
4.034000	 64.9267
4.052000	 64.702
4.070000	 64.8228
4.088000	 64.8613
4.106000	 64.7684
4.124000	 64.8591
4.141999	 64.8522
4.160000	 64.7685
4.178000	 64.8073
4.196000	 64.7289
4.214000	 64.7802
4.232000	 64.6396
4.250000	 64.6193
4.268000	 64.703
4.286000	 64.7266
4.304000	 64.642
4.322000	 64.7206
4.340000	 64.8072
4.358000	 64.7802
4.375999	 64.6298
4.394000	 64.6568
4.412000	 64.7143
4.430000	 64.7418
4.448000	 64.7043
4.466000	 64.6522
4.484000	 64.5679
4.502000	 64.6912
4.520000	 64.6704
4.538000	 64.7103
4.556000	 64.765
4.574000	 64.6382
4.592000	 64.6303
4.609999	 64.5741
4.628000	 64.6325
4.646000	 64.6844
4.664000	 64.7088
4.682000	 64.5521
4.700000	 64.6133
4.718000	 64.6568
4.736000	 64.7128
4.754000	 64.6348
4.772000	 64.5443
4.790000	 64.528
4.808000	 64.586
4.826000	 64.5811
4.843999	 64.5712
4.862000	 64.5655
4.880000	 64.482
4.898000	 64.5392
4.916000	 64.5555
4.934000	 64.5079
4.952000	 64.5903
4.970000	 64.5943
4.988000	 64.571
5.006000	 64.5625
5.024000	 64.5646
5.042000	 64.4808
5.060000	 64.4308
5.077999	 64.5586
5.096000	 64.5959
5.114000	 64.4848
5.132000	 64.4541
5.150000	 64.5119
5.168000	 64.5027
5.186000	 64.5
5.204000	 64.498
5.222000	 64.4612
5.240000	 64.527
5.258000	 64.4999
5.276000	 64.4007
5.294000	 64.4315
5.312000	 64.3935
5.330000	 64.3736
5.348000	 64.4641
5.366000	 64.4617
5.384000	 64.4347
5.402000	 64.4777
5.420000	 64.4303
5.438000	 64.3571
5.456000	 64.4126
5.474000	 64.3784
5.492000	 64.4017
5.510000	 64.3873
5.528000	 64.395
5.546000	 64.4506
5.564000	 64.4594
5.582000	 64.4069
5.600000	 64.3772
5.618000	 64.4157
5.636000	 64.3949
5.654000	 64.2851
5.672000	 64.2272
5.690000	 64.2688
5.708000	 64.2454
5.726000	 64.2098
5.744000	 64.1464
5.762000	 64.0411
5.780000	 64.0285
5.798000	 64.0966
5.816000	 64.1238
5.834000	 64.1443
5.852000	 64.1776
5.870000	 64.1182
5.888000	 64.0458
5.906000	 64.1396
5.923999	 64.1656
5.942000	 64.1293
5.960000	 64.1014
5.978000	 64.1052
5.996000	 64.1717
6.014000	 64.2621
6.032000	 64.2289
6.050000	 64.2571
6.068000	 64.3563
6.086000	 64.3151
6.104000	 64.1197
6.122000	 64.0871
6.140000	 64.1895
6.158000	 64.1724
6.176000	 64.1072
6.194000	 64.1969
6.212000	 64.2612
6.230000	 64.2211
6.248000	 64.1816
6.266000	 64.1532
6.284000	 64.0877
6.302000	 64.0654
6.320000	 64.1202
6.338000	 64.1435
6.356000	 64.1244
6.374000	 64.0557
6.392000	 64.0313
6.410000	 64.1658
6.428000	 64.2937
6.446000	 64.2103
6.464000	 64.0722
6.482000	 64.0724
6.500000	 64.092
6.518000	 64.0096
6.536000	 63.9784
6.554000	 64.0526
6.572000	 64.1234
6.590000	 64.1868
6.608000	 64.2269
6.626000	 64.1918
6.644000	 64.1749
6.662000	 64.186
6.680000	 64.1395
6.698000	 64.0939
6.716000	 64.0442
6.734000	 64.0364
6.752000	 64.0881
6.770000	 64.0862
6.788000	 64.0857
6.806000	 64.1183
6.824000	 64.1075
6.842000	 64.133
6.860000	 64.2075
6.878000	 64.2153
6.896000	 64.1276
6.914000	 63.9928
6.932000	 63.8918
6.950000	 63.8967
6.968000	 63.9722
6.986000	 63.9696
7.004000	 63.8885
7.022000	 63.9202
7.040000	 64.0657
7.058000	 64.1183
7.076000	 64.0458
7.094000	 63.99
7.112000	 63.9904
7.130000	 63.9732
7.148000	 63.9293
7.166000	 63.9299
7.184000	 63.9791
7.202000	 63.9927
7.220000	 63.9449
7.238000	 63.8995
7.256000	 63.8814
7.274000	 63.893
7.292000	 63.9552
7.310000	 64.0096
7.328000	 63.9778
7.346000	 63.8914
7.364000	 63.8144
7.382000	 63.7701
7.400000	 63.7589
7.418000	 63.7631
7.436000	 63.7776
7.454000	 63.8101
7.472000	 63.8526
7.490000	 63.8957
7.508000	 63.9236
7.526000	 63.9168
7.544000	 63.8947
7.562000	 63.8949
7.580000	 63.9283
7.598000	 63.9715
7.616000	 63.975
7.634000	 63.9243
7.652000	 63.8776
7.670000	 63.8877
7.688000	 63.9304
7.706000	 63.9447
7.724000	 63.9059
7.742000	 63.8518
7.760000	 63.8352
7.778000	 63.8494
7.796000	 63.8498
7.814000	 63.8388
7.832000	 63.855
7.850000	 63.9003
7.868000	 63.9438
7.886000	 63.9629
7.904000	 63.9544
7.922000	 63.9267
7.940000	 63.8924
7.958000	 63.8541
7.976000	 63.8122
7.994000	 63.7788
8.012000	 63.7691
8.030000	 63.7885
8.048000	 63.8098
8.065999	 63.7916
8.084000	 63.7395
8.102000	 63.7045
8.120000	 63.7089
8.138000	 63.7243
8.155999	 63.7259
8.173999	 63.7188
8.192000	 63.7111
8.210000	 63.7036
8.228000	 63.7031
8.246000	 63.7228
8.263999	 63.7635
8.282000	 63.8037
8.300000	 63.8117
8.318000	 63.7737
8.336000	 63.7101
8.353999	 63.6596
8.372000	 63.6467
8.390000	 63.6687
8.408000	 63.7095
8.426000	 63.7516
8.443999	 63.7801
8.462000	 63.785
8.480000	 63.7702
8.498000	 63.7524
8.516000	 63.7487
8.533999	 63.7625
8.552000	 63.7796
8.570000	 63.7759
8.588000	 63.7342
8.606000	 63.655
8.624000	 63.5574
8.641999	 63.4696
8.660000	 63.4165
8.678000	 63.4059
8.696000	 63.4242
8.714000	 63.4499
8.731999	 63.477
8.750000	 63.5201
8.768000	 63.5888
8.786000	 63.6626
8.804000	 63.6997
8.821999	 63.6762
8.840000	 63.6108
8.858000	 63.5538
8.876000	 63.5498
8.894000	 63.6079
8.911999	 63.6985
8.930000	 63.7747
8.948000	 63.8011
8.966000	 63.7715
8.984000	 63.7101
9.001999	 63.6542
9.020000	 63.6299
9.038000	 63.6369
9.056000	 63.654
9.074000	 63.6595
9.092000	 63.6517
9.109999	 63.6446
9.128000	 63.649
9.146000	 63.66
9.164000	 63.6626
9.182000	 63.649
9.199999	 63.6266
9.218000	 63.6116
9.236000	 63.6127
9.254000	 63.6249
9.272000	 63.6377
9.289999	 63.6471
9.308000	 63.6539
9.326000	 63.6543
9.344000	 63.6407
9.362000	 63.6153
9.379999	 63.5977
9.398000	 63.6107
9.416000	 63.6544
9.434000	 63.6974
9.452000	 63.7017
9.469999	 63.6569
9.488000	 63.5908
9.506000	 63.5436
9.524000	 63.5332
9.542000	 63.5486
9.560000	 63.5705
9.577999	 63.592
9.596000	 63.6163
9.614000	 63.64
9.632000	 63.6488
9.650000	 63.6329
9.667999	 63.6041
9.686000	 63.5916
9.704000	 63.6161
9.722000	 63.6679
9.740000	 63.7124
9.757999	 63.7179
9.776000	 63.6807
9.794000	 63.6234
9.812000	 63.5726
9.830000	 63.5382
9.847999	 63.5144
9.866000	 63.4962
9.884000	 63.4897
9.902000	 63.5054
9.920000	 63.5434
9.937999	 63.5873
9.956000	 63.6181
9.974000	 63.6287
9.992000	 63.6291
10.01	63.6351
10.028	63.6541
10.046	63.6792
10.064	63.6978
10.082	63.7014
10.1	63.6916
10.118	63.6769
10.136	63.6671
10.154	63.6682
10.172	63.6808
10.19	63.6991
10.208	63.715
10.226	63.7217
10.244	63.7166
10.262	63.7018
10.28	63.6796
10.298	63.6523
10.316	63.6224
10.334	63.5946
10.352	63.5748
10.37	63.5675
10.388	63.5689
10.406	63.5689
10.424	63.5568
10.442	63.5321
10.46	63.5066
10.478	63.4979
10.496	63.5152
10.514	63.5505
10.532	63.5796
10.55	63.5762
10.568	63.5265
10.586	63.4407
10.604	63.3469
10.622	63.2787
10.64	63.2571
10.658	63.2838
10.676	63.3443
10.694	63.4195
10.712	63.4943
10.73	63.5619
10.748	63.6187
10.766	63.6605
10.784	63.6813
10.802	63.675
10.82	63.6396
10.838	63.5804
10.856	63.5083
10.874	63.4371
10.892	63.3783
10.91	63.3411
10.928	63.3295
10.946	63.3438
10.964	63.3795
10.982	63.4289
11	63.4804
11.018	63.5218
11.036	63.5434
11.054	63.5401
11.072	63.5137
11.09	63.4735
11.108	63.4314
11.126	63.3986
11.144	63.3802
11.162	63.3751
11.18	63.3773
11.198	63.3807
11.216	63.3828
11.234	63.3862
11.252	63.3971
11.27	63.4209
11.288	63.4588
11.306	63.5073
11.324	63.5598
11.342	63.6092
11.36	63.6515
11.378	63.685
11.396	63.7096
11.414	63.7245
11.432	63.7278
11.45	63.7178
11.468	63.6949
11.486	63.6627
11.504	63.6279
11.522	63.599
11.54	63.5823
11.558	63.5813
11.576	63.5963
11.594	63.6251
11.612	63.6643
11.63	63.7099
11.648	63.7567
11.666	63.7981
11.684	63.8262
11.702	63.8341
11.72	63.8175
11.738	63.7781
11.756	63.7231
11.774	63.6637
11.792	63.6121
11.81	63.5766
11.828	63.5602
11.846	63.5599
11.864	63.5689
11.882	63.5801
11.9	63.5885
11.918	63.5923
11.936	63.594
11.954	63.5972
11.972	63.6071
11.99	63.6275
12.008	63.6612
12.026	63.7083
12.044	63.7659
12.062	63.8264
12.08	63.8786
12.098	63.9099
12.116	63.9099
12.134	63.8749
12.152	63.8102
12.17	63.7276
12.188	63.6427
12.206	63.5701
12.224	63.5193
12.242	63.4929
12.26	63.4878
12.278	63.4967
12.296	63.5105
12.314	63.521
12.332	63.523
12.35	63.5144
12.368	63.4962
12.386	63.4714
12.404	63.444
12.422	63.4179
12.44	63.396
12.458	63.3802
12.476	63.371
12.494	63.368
12.512	63.3695
12.53	63.3733
12.548	63.3772
12.566	63.3788
12.584	63.3766
12.602	63.3699
12.62	63.3591
12.638	63.3455
12.656	63.3313
12.674	63.3194
12.692	63.313
12.71	63.3142
12.728	63.3245
12.746	63.3437
12.764	63.3706
12.782	63.4027
12.8	63.4364
12.818	63.4683
12.836	63.4955
12.854	63.5163
12.872	63.5302
12.89	63.5377
12.908	63.5404
12.926	63.5399
12.944	63.5381
12.962	63.536
12.98	63.5339
12.998	63.5319
13.016	63.5292
13.034	63.5255
13.052	63.5208
13.07	63.5157
13.088	63.5115
13.106	63.5102
13.124	63.5137
13.142	63.5232
13.16	63.5386
13.178	63.558
13.196	63.5784
13.214	63.5952
13.232	63.6042
13.25	63.6016
13.268	63.5855
13.286	63.5562
13.304	63.5168
13.322	63.4717
13.34	63.4262
13.358	63.3854
13.376	63.3527
13.394	63.3299
13.412	63.3166
13.43	63.3108
13.448	63.3102
13.466	63.3123
13.484	63.3153
13.502	63.3184
13.52	63.3219
13.538	63.3262
13.556	63.3322
13.574	63.3404
13.592	63.351
13.61	63.3642
13.628	63.3797
13.646	63.3974
13.664	63.4171
13.682	63.4389
13.7	63.4618
13.718	63.4842
13.736	63.5034
13.754	63.5158
13.772	63.5184
13.79	63.5087
13.808	63.4864
13.826	63.4534
13.844	63.4138
13.862	63.3727
13.88	63.3358
13.898	63.308
13.916	63.2925
13.934	63.2902
13.952	63.2994
13.97	63.3163
13.988	63.3365
14.006	63.3551
14.024	63.3682
14.042	63.3736
14.06	63.3706
14.078	63.3605
14.096	63.3455
14.114	63.3281
14.132	63.3109
14.15	63.2956
14.168	63.2835
14.186	63.2746
14.204	63.2681
14.222	63.2625
14.24	63.2562
14.258	63.2477
14.276	63.2359
14.294	63.2207
14.312	63.2029
14.33	63.1844
14.348	63.1685
14.366	63.1588
14.384	63.1598
14.402	63.175
14.42	63.2065
14.438	63.2546
14.456	63.3178
14.474	63.3919
14.492	63.4706
14.51	63.546
14.528	63.6106
14.546	63.6589
14.564	63.6878
14.582	63.697
14.6	63.689
14.618	63.6687
14.636	63.6427
14.654	63.6164
14.672	63.5936
14.69	63.5756
14.708	63.5616
14.726	63.5487
14.744	63.5323
14.762	63.5085
14.78	63.4747
14.798	63.4303
14.816	63.3767
14.834	63.318
14.852	63.2597
14.87	63.2079
14.888	63.1683
14.906	63.1454
14.924	63.1427
14.942	63.1607
14.96	63.198
14.978	63.2517
14.996	63.3181
15.014	63.393
15.032	63.4718
15.05	63.5502
15.068	63.625
15.086	63.6932
15.104	63.7519
15.122	63.7984
15.14	63.8299
15.158	63.844
15.176	63.839
15.194	63.8136
15.212	63.7681
15.23	63.7048
15.248	63.6272
15.266	63.5398
15.284	63.4499
15.302	63.364
15.32	63.2875
15.338	63.2246
15.356	63.1775
15.374	63.1456
15.392	63.1255
15.41	63.1128
15.428	63.1011
15.446	63.0832
15.464	63.0542
15.482	63.0109
15.5	62.9514
15.518	62.8772
15.536	62.7923
15.554	62.7015
15.572	62.6108
15.59	62.528
15.608	62.4573
15.626	62.4023
15.644	62.3653
15.662	62.3453
15.68	62.3401
15.698	62.3471
15.716	62.3624
15.734	62.3824
15.752	62.4052
15.77	62.4288
15.788	62.4533
15.806	62.4807
15.824	62.5125
15.842	62.5512
15.86	62.5991
15.878	62.6565
15.896	62.7235
15.914	62.7986
15.932	62.8784
15.95	62.9598
15.968	63.0387
15.986	63.1104
16.004	63.1725
16.022	63.223
16.04	63.2612
16.058	63.289
16.076	63.3081
16.094	63.3223
16.112	63.336
16.13	63.3524
16.148	63.3755
16.166	63.4084
16.184	63.4519
16.202	63.5071
16.22	63.5719
16.238	63.6443
16.256	63.7221
16.274	63.7996
16.292	63.8728
16.31	63.9379
16.328	63.9884
16.346	64.0212
16.364	64.0335
16.382	64.0221
16.4	63.9861
16.418	63.9253
16.436	63.8407
16.454	63.7358
16.472	63.613
16.49	63.4788
16.508	63.339
16.526	63.1985
16.544	63.0657
16.562	62.9456
16.58	62.8425
16.598	62.762
16.616	62.7051
16.634	62.6733
16.652	62.665
16.67	62.6773
16.688	62.7076
16.706	62.7493
16.724	62.7989
16.742	62.8516
16.76	62.902
16.778	62.9477
16.796	62.9855
16.814	63.0143
16.832	63.0333
16.85	63.0434
16.868	63.0456
16.886	63.0408
16.904	63.0317
16.922	63.0198
16.94	63.0069
16.958	62.9954
16.976	62.9862
16.994	62.9815
17.012	62.9821
17.03	62.9888
17.048	63.0028
17.066	63.0242
17.084	63.0532
17.102	63.0892
17.12	63.132
17.138	63.1799
17.156	63.2314
17.174	63.2853
17.192	63.3381
17.21	63.3885
17.228	63.4328
17.246	63.4689
17.264	63.4947
17.282	63.5078
17.3	63.5076
17.318	63.4931
17.336	63.465
17.354	63.4237
17.372	63.372
17.39	63.3114
17.408	63.2456
17.426	63.1779
17.444	63.1107
17.462	63.0489
17.48	62.9939
17.498	62.9492
17.516	62.9162
17.534	62.8966
17.552	62.8909
17.57	62.8991
17.588	62.9208
17.606	62.955
17.624	63.0008
17.642	63.056
17.66	63.1197
17.678	63.1893
17.696	63.264
17.714	63.3411
17.732	63.4189
17.75	63.4955
17.768	63.568
17.786	63.6356
17.804	63.6948
17.822	63.7451
17.84	63.7837
17.858	63.8099
17.876	63.8222
17.894	63.8202
17.912	63.8036
17.93	63.7737
17.948	63.7308
17.966	63.6772
17.984	63.6138
18.002	63.5434
18.02	63.4677
18.038	63.3886
18.056	63.3088
18.074	63.2292
18.092	63.1519
18.11	63.0771
18.128	63.0056
18.146	62.9371
18.164	62.8712
18.182	62.807
18.2	62.7436
18.218	62.6794
18.236	62.6137
18.254	62.545
18.272	62.473
18.29	62.3967
18.308	62.3158
18.326	62.2311
18.344	62.143
18.362	62.0529
18.38	61.9621
18.398	61.8738
18.416	61.7896
18.434	61.7121
18.452	61.6443
18.47	61.5884
18.488	61.5477
18.506	61.5233
18.524	61.5181
18.542	61.5329
18.56	61.5683
18.578	61.6247
18.596	61.7008
18.614	61.7964
18.632	61.9078
18.65	62.0346
18.668	62.1716
18.686	62.318
18.704	62.4673
18.722	62.6188
18.74	62.7667
18.758	62.9103
18.776	63.0448
18.794	63.1704
18.812	63.2843
18.83	63.387
18.848	63.4778
18.866	63.5578
18.884	63.6281
18.902	63.6902
18.92	63.746
18.938	63.7971
18.956	63.8457
18.974	63.8928
18.992	63.9402
19.01	63.9878
19.028	64.0365
19.046	64.0851
19.064	64.1329
19.082	64.1784
19.1	64.2196
19.118	64.2552
19.136	64.2823
19.154	64.3
19.172	64.3056
19.19	64.299
19.208	64.278
19.226	64.2432
19.244	64.1948
19.262	64.1336
19.28	64.0618
19.298	63.9799
19.316	63.8922
19.334	63.7989
19.352	63.705
19.37	63.6104
19.388	63.52
19.406	63.4336
19.424	63.3547
19.442	63.2834
19.46	63.2211
19.478	63.1682
19.496	63.1241
19.514	63.0891
19.532	63.0618
19.55	63.0417
19.568	63.0275
19.586	63.0178
19.604	63.0122
19.622	63.0086
19.64	63.0072
19.658	63.0065
19.676	63.0066
19.694	63.0067
19.712	63.0067
19.73	63.0068
19.748	63.007
19.766	63.0078
19.784	63.0091
19.802	63.0114
19.82	63.0151
19.838	63.0201
19.856	63.0263
19.874	63.0338
19.892	63.0424
19.91	63.0523
19.928	63.063
19.946	63.0747
19.964	63.0869
19.982	63.0998
20	63.1129
20.018	63.1261
20.036	63.1393
20.054	63.1522
20.072	63.1648
20.09	63.177
20.108	63.1887
20.126	63.1996
20.144	63.2099
20.162	63.2191
20.18	63.2273
20.198	63.2344
20.216	63.24
20.234	63.2444
20.252	63.2471
20.27	63.2483
20.288	63.2479
20.306	63.2461
20.324	63.2427
20.342	63.2379
20.36	63.2318
20.378	63.2246
20.396	63.2164
20.414	63.2073
20.432	63.1975
20.45	63.187
20.468	63.176
20.486	63.1643
20.504	63.152
20.522	63.139
20.54	63.125
20.558	63.1101
20.576	63.0938
20.594	63.0761
20.612	63.0569
20.63	63.036
20.648	63.0132
20.666	62.989
20.684	62.9629
20.702	62.9358
20.72	62.9076
20.738	62.8788
20.756	62.8504
20.774	62.8221
20.792	62.7954
20.81	62.7706
20.828	62.7482
20.846	62.7292
20.864	62.7134
20.882	62.7016
20.9	62.6938
20.918	62.6898
20.936	62.6898
20.954	62.6936
20.972	62.7001
20.99	62.7097
21.008	62.7212
21.026	62.7343
21.044	62.7485
21.062	62.7627
21.08	62.777
21.098	62.7907
21.116	62.8034
21.134	62.8152
21.152	62.826
21.17	62.8357
21.188	62.8449
21.206	62.8536
21.224	62.8623
21.242	62.872
21.26	62.8822
21.278	62.8941
21.296	62.9079
21.314	62.9235
21.332	62.9413
21.35	62.9612
21.368	62.9829
21.386	63.0066
21.404	63.0316
21.422	63.0569
21.44	63.0829
21.458	63.108
21.476	63.1316
21.494	63.1536
21.512	63.172
21.53	63.1872
21.548	63.1982
21.566	63.2041
21.584	63.2053
21.602	63.2008
21.62	63.1904
21.638	63.1747
21.656	63.154
21.674	63.1283
21.692	63.0985
21.71	63.065
21.728	63.0278
21.746	62.9881
21.764	62.9454
21.782	62.9006
21.8	62.8541
21.818	62.8058
21.836	62.756
21.854	62.7049
21.872	62.6525
21.89	62.5993
21.908	62.545
21.926	62.4902
21.944	62.4348
21.962	62.3789
21.98	62.3236
21.998	62.2688
22.016	62.215
22.034	62.1641
22.052	62.115
22.07	62.0699
22.088	62.0301
22.106	61.9947
22.124	61.9667
22.142	61.9463
22.16	61.9336
22.178	61.9306
22.196	61.9371
22.214	61.953
22.232	61.9789
22.25	62.0148
22.268	62.0594
22.286	62.1126
22.304	62.1744
22.322	62.2417
22.34	62.3148
22.358	62.3928
22.376	62.4712
22.394	62.5517
22.412	62.6315
22.43	62.7065
22.448	62.7788
22.466	62.8447
22.484	62.9013
22.502	62.9501
22.52	62.9882
22.538	63.0139
22.556	63.0283
22.574	63.0296
22.592	63.0172
22.61	62.9919
22.628	62.9543
22.646	62.9037
22.664	62.8415
22.682	62.7704
22.7	62.6885
22.718	62.5994
22.736	62.5067
22.754	62.4083
22.772	62.3085
22.79	62.2109
22.808	62.113
22.826	62.0201
22.844	61.9354
22.862	61.8566
22.88	61.7892
22.898	61.7356
22.916	61.694
22.934	61.669
22.952	61.662
22.97	61.6719
22.988	61.7013
23.006	61.7511
23.024	61.8205
23.042	61.9091
23.06	62.0179
23.078	62.1458
23.096	62.2901
23.114	62.4521
23.132	62.6302
23.15	62.8189
23.168	63.0197
23.186	63.2308
23.204	63.4453
23.222	63.6651
23.24	63.8879
23.258	64.1058
23.276	64.3204
23.294	64.53
23.312	64.7267
23.33	64.9118
23.348	65.0841
23.366	65.237
23.384	65.3708
23.402	65.4856
23.42	65.5771
23.438	65.6448
23.456	65.6896
23.474	65.71
23.492	65.705
23.51	65.6759
23.528	65.6243
23.546	65.5498
23.564	65.4528
23.582	65.3374
23.6	65.2044
23.618	65.0529
23.636	64.8885
23.654	64.7135
23.672	64.5255
23.69	64.3311
23.708	64.1343
23.726	63.9315
23.744	63.7289
23.762	63.5319
23.78	63.3368
23.798	63.148
23.816	62.9713
23.834	62.8039
23.852	62.648
23.87	62.5081
23.888	62.3834
23.906	62.2739
23.924	62.1821
23.942	62.1086
23.96	62.0524
23.978	62.0132
23.996	61.9916
24.014	61.9874
24.032	61.9978
24.05	62.0217
24.068	62.0609
24.086	62.111
24.104	62.168
24.122	62.2356
24.14	62.309
24.158	62.3814
24.176	62.4561
24.194	62.5307
24.212	62.5974
24.23	62.6558
24.248	62.7077
24.266	62.7461
24.284	62.7672
24.302	62.7746
24.32	62.7646
24.338	62.7334
24.356	62.6833
24.374	62.6129
24.392	62.52
24.41	62.4036
24.428	62.2653
24.446	62.107
24.464	61.9281
24.482	61.7278
24.5	61.5119
24.518	61.2843
24.536	61.0401
24.554	60.7861
24.572	60.5314
24.59	60.2721
24.608	60.0101
24.626	59.7562
24.644	59.5146
24.662	59.2793
24.68	59.0597
24.698	58.8643
24.716	58.6876
24.734	58.5332
24.752	58.4083
24.77	58.3142
24.788	58.2482
24.806	58.2127
24.824	58.2095
24.842	58.2384
24.86	58.297
24.878	58.3832
24.896	58.5004
24.914	58.6456
24.932	58.8104
24.95	58.9919
24.968	59.196
24.986	59.4119
25.004	59.6284
25.022	59.8531
25.04	60.0814
25.058	60.2991
25.076	60.5014
25.094	60.6966
25.112	60.8726
25.13	61.0173
25.148	61.1366
25.166	61.2288
25.184	61.2852
25.202	61.301
25.22	61.2813
25.238	61.2237
25.256	61.1256
25.274	60.9854
25.292	60.8062
25.31	60.5922
25.328	60.3445
25.346	60.0587
25.364	59.7436
25.382	59.4091
25.4	59.0501
25.418	58.6677
25.436	58.2753
25.454	57.8823
25.472	57.4779
25.49	57.0718
25.508	56.6776
25.526	56.2972
25.544	55.924
25.562	55.5692
25.58	55.2436
25.598	54.9414
25.616	54.6639
25.634	54.4185
25.652	54.2103
25.67	54.0347
25.688	53.8931
25.706	53.7879
25.724	53.72
25.742	53.688
25.76	53.6906
25.778	53.7266
25.796	53.798
25.814	53.9029
25.832	54.0374
25.85	54.1989
25.868	54.3907
25.886	54.6097
25.904	54.8523
25.922	55.1172
25.94	55.406
25.958	55.7181
25.976	56.0528
25.994	56.4094
26.012	56.7885
26.03	57.1913
26.048	57.6189
26.066	58.07
26.084	58.5453
26.102	59.046
26.12	59.5735
26.138	60.1274
26.156	60.7062
26.174	61.3088
26.192	61.9355
26.21	62.588
26.228	63.2614
26.246	63.951
26.264	64.6603
26.282	65.3902
26.3	66.1296
26.318	66.8679
26.336	67.614
26.354	68.3656
26.372	69.1067
26.39	69.8227
26.408	70.528
26.426	71.2161
26.444	71.8684
26.462	72.4699
26.48	73.0383
26.498	73.5636
26.516	74.0264
26.534	74.4124
26.552	74.7371
26.57	74.9937
26.588	75.1703
26.606	75.2582
26.624	75.2642
26.642	75.1896
26.66	75.0345
26.678	74.7963
26.696	74.4706
26.714	74.0695
26.732	73.6058
26.75	73.0822
26.768	72.4837
26.786	71.8317
26.804	71.1506
26.822	70.4477
26.84	69.6997
26.858	68.9329
26.876	68.1772
26.894	67.4435
26.912	66.7047
26.93	65.9864
26.948	65.3179
26.966	64.7048
26.984	64.109
27.002	63.58
27.02	63.1741
27.028	63.061