File: Bakgrunnsmateriale/MATLAB/FTIR/ftir_data/subAa/Mapping_121/BZ1503107-1_t111.asc
PE IR       SPECTRUM    SPECTRUM    ASCII       PEDS        1.60
  -1
BZCAB6~1.ASC
17/04/07
22:25:15.00
17/04/07
22:25:41.00
tln
$BZ1503107-1_t0111$<tbV0>[13.0,13.0,8.0,0.0,27,1,0]
27.028
64

2002,4.07
MIRTGS : RIGHTBACK : INTERNAL 2
MIR : ON : INTERNAL 2
OPTKBR

0.200000
8
8.000000
FILLER
RATIO
SPECTRUM
UNLOCKED 256

DOUBLE
64
COMBINED
1
0
0

0.002000
RATIO

1
0
TRUE
51149
0
LEFT NOT FITTED RIGHT NOT FITTED 0
NONE
NONE
15600
12
4.427000
51148
TRUE
1 0 8 72 0 0 0 0

15798

#HDR
-1
-1
#GR
µM
%T
2.38419e-05
0.0
2.000000
0.002000
12515
8
74.582
53.415
#DATA
2.000000	 64.359
2.018000	 63.1921
2.036000	 63.5916
2.054000	 63.4688
2.072000	 63.1806
2.090000	 62.7013
2.108000	 62.9723
2.126000	 62.6257
2.144000	 63.4548
2.162000	 63.4736
2.180000	 63.9148
2.198000	 63.5044
2.216000	 63.5251
2.234000	 64.4162
2.252000	 57.0705
2.270000	 64.4776
2.288000	 64.4565
2.306000	 63.9989
2.324000	 63.649
2.342000	 63.5938
2.360000	 63.271
2.378000	 63.2107
2.396000	 63.4498
2.414000	 63.2657
2.432000	 63.3169
2.450000	 63.4624
2.468000	 63.3054
2.486000	 63.3471
2.504000	 63.3472
2.522000	 63.1899
2.540000	 63.4062
2.558000	 63.5331
2.576000	 63.743
2.594000	 63.5705
2.612000	 63.4476
2.630000	 63.5499
2.648000	 63.5164
2.666000	 63.3607
2.684000	 63.2736
2.702000	 63.0973
2.720000	 63.2366
2.738000	 63.2726
2.756000	 63.5629
2.774000	 63.3485
2.792000	 63.3571
2.810000	 63.5029
2.828000	 63.357
2.846000	 63.2482
2.864000	 63.298
2.882000	 63.3956
2.900000	 63.1898
2.918000	 63.3723
2.936000	 63.4612
2.954000	 63.4203
2.972000	 63.5099
2.990000	 63.4624
3.008000	 63.3888
3.026000	 63.2388
3.044000	 63.323
3.062000	 63.0997
3.080000	 63.2783
3.098000	 63.0842
3.116000	 63.0289
3.134000	 63.1267
3.152000	 63.2052
3.170000	 63.2266
3.188000	 63.2042
3.206000	 63.3156
3.224000	 63.3714
3.242000	 63.4095
3.260000	 63.219
3.278000	 63.134
3.296000	 63.2287
3.314000	 63.1258
3.332000	 63.1489
3.350000	 62.9503
3.368000	 63.0073
3.386000	 62.9499
3.404000	 62.8992
3.422000	 62.9317
3.440000	 62.8747
3.458000	 62.9792
3.476000	 62.9989
3.494000	 63.1425
3.512000	 63.0942
3.530000	 63.1811
3.548000	 63.138
3.566000	 63.057
3.584000	 63.0321
3.602000	 63.1054
3.620000	 63.0618
3.638000	 62.9733
3.656000	 63.0038
3.674000	 62.9895
3.692000	 62.9619
3.710000	 62.9387
3.728000	 63.0262
3.746000	 62.9987
3.764000	 63.0255
3.782000	 63.0119
3.800000	 63.058
3.818000	 63.0677
3.836000	 63.1669
3.854000	 63.1308
3.872000	 63.1028
3.890000	 63.0035
3.908000	 63.0222
3.926000	 63.0567
3.944000	 62.9885
3.962000	 63.0223
3.980000	 62.8886
3.998000	 62.9027
4.016000	 62.8357
4.034000	 62.9189
4.052000	 62.8101
4.070000	 62.8731
4.088000	 62.8951
4.106000	 62.8628
4.124000	 62.7554
4.141999	 62.8669
4.160000	 62.9084
4.178000	 62.9
4.196000	 62.8132
4.214000	 62.9223
4.232000	 62.9334
4.250000	 62.8765
4.268000	 62.9443
4.286000	 62.9678
4.304000	 62.8908
4.322000	 62.7559
4.340000	 62.821
4.358000	 62.8791
4.375999	 62.7906
4.394000	 62.7272
4.412000	 62.6925
4.430000	 62.6738
4.448000	 62.6728
4.466000	 62.6504
4.484000	 62.6082
4.502000	 62.7351
4.520000	 62.8081
4.538000	 62.8395
4.556000	 62.719
4.574000	 62.7515
4.592000	 62.8452
4.609999	 62.6966
4.628000	 62.8172
4.646000	 62.6779
4.664000	 62.7327
4.682000	 62.8467
4.700000	 62.8235
4.718000	 62.7846
4.736000	 62.8106
4.754000	 62.7447
4.772000	 62.6978
4.790000	 62.7008
4.808000	 62.7238
4.826000	 62.6286
4.843999	 62.6008
4.862000	 62.574
4.880000	 62.5551
4.898000	 62.5317
4.916000	 62.4438
4.934000	 62.5005
4.952000	 62.4834
4.970000	 62.4697
4.988000	 62.4766
5.006000	 62.4213
5.024000	 62.3964
5.042000	 62.4083
5.060000	 62.3819
5.077999	 62.3869
5.096000	 62.3697
5.114000	 62.4417
5.132000	 62.5045
5.150000	 62.506
5.168000	 62.5836
5.186000	 62.5546
5.204000	 62.5514
5.222000	 62.5096
5.240000	 62.5072
5.258000	 62.5401
5.276000	 62.56
5.294000	 62.5574
5.312000	 62.5166
5.330000	 62.4899
5.348000	 62.4923
5.366000	 62.4301
5.384000	 62.4624
5.402000	 62.4547
5.420000	 62.4153
5.438000	 62.4225
5.456000	 62.3992
5.474000	 62.3577
5.492000	 62.3995
5.510000	 62.3232
5.528000	 62.3855
5.546000	 62.4115
5.564000	 62.3579
5.582000	 62.2954
5.600000	 62.3736
5.618000	 62.4122
5.636000	 62.3293
5.654000	 62.291
5.672000	 62.242
5.690000	 62.228
5.708000	 62.2301
5.726000	 62.1749
5.744000	 62.119
5.762000	 61.9571
5.780000	 61.9116
5.798000	 61.9993
5.816000	 62.0343
5.834000	 62.0316
5.852000	 62.0855
5.870000	 62.0811
5.888000	 62.1342
5.906000	 62.2496
5.923999	 62.2972
5.942000	 62.285
5.960000	 62.2286
5.978000	 62.1258
5.996000	 62.0715
6.014000	 62.1363
6.032000	 62.1538
6.050000	 62.0923
6.068000	 62.0445
6.086000	 62.1399
6.104000	 62.2245
6.122000	 62.2414
6.140000	 62.1695
6.158000	 62.0369
6.176000	 62.0693
6.194000	 62.1286
6.212000	 62.1112
6.230000	 62.1053
6.248000	 62.0766
6.266000	 62.0564
6.284000	 62.0757
6.302000	 62.0489
6.320000	 62.0741
6.338000	 62.1072
6.356000	 62.0614
6.374000	 62.0082
6.392000	 61.9756
6.410000	 61.9786
6.428000	 62.0261
6.446000	 62.0504
6.464000	 61.9899
6.482000	 61.9113
6.500000	 61.9276
6.518000	 62.015
6.536000	 62.0539
6.554000	 62.055
6.572000	 62.074
6.590000	 62.0637
6.608000	 62.003
6.626000	 61.9398
6.644000	 61.9359
6.662000	 61.9921
6.680000	 62.0537
6.698000	 62.0279
6.716000	 61.8594
6.734000	 61.7299
6.752000	 61.7055
6.770000	 61.6756
6.788000	 61.6612
6.806000	 61.7115
6.824000	 61.7738
6.842000	 61.818
6.860000	 61.8441
6.878000	 61.8053
6.896000	 61.7335
6.914000	 61.7406
6.932000	 61.8106
6.950000	 61.8491
6.968000	 61.8174
6.986000	 61.7675
7.004000	 61.7699
7.022000	 61.8144
7.040000	 61.8469
7.058000	 61.8531
7.076000	 61.8244
7.094000	 61.7848
7.112000	 61.8035
7.130000	 61.8624
7.148000	 61.8849
7.166000	 61.8508
7.184000	 61.7684
7.202000	 61.674
7.220000	 61.6399
7.238000	 61.6963
7.256000	 61.7936
7.274000	 61.8611
7.292000	 61.8675
7.310000	 61.8403
7.328000	 61.8144
7.346000	 61.7758
7.364000	 61.7357
7.382000	 61.7628
7.400000	 61.85
7.418000	 61.9175
7.436000	 61.946
7.454000	 61.9477
7.472000	 61.9216
7.490000	 61.8946
7.508000	 61.8895
7.526000	 61.8982
7.544000	 61.9062
7.562000	 61.8949
7.580000	 61.8625
7.598000	 61.845
7.616000	 61.8571
7.634000	 61.8587
7.652000	 61.8159
7.670000	 61.764
7.688000	 61.7496
7.706000	 61.739
7.724000	 61.6722
7.742000	 61.5767
7.760000	 61.5316
7.778000	 61.5476
7.796000	 61.5698
7.814000	 61.5669
7.832000	 61.5558
7.850000	 61.5603
7.868000	 61.5778
7.886000	 61.5763
7.904000	 61.5299
7.922000	 61.4558
7.940000	 61.3963
7.958000	 61.3717
7.976000	 61.3732
7.994000	 61.3856
8.012000	 61.3881
8.030000	 61.3566
8.048000	 61.2813
8.065999	 61.1888
8.084000	 61.1297
8.102000	 61.1282
8.120000	 61.1642
8.138000	 61.2108
8.155999	 61.2582
8.173999	 61.2953
8.192000	 61.3114
8.210000	 61.3234
8.228000	 61.3627
8.246000	 61.4165
8.263999	 61.4244
8.282000	 61.3555
8.300000	 61.2559
8.318000	 61.1975
8.336000	 61.2099
8.353999	 61.2667
8.372000	 61.3213
8.390000	 61.3436
8.408000	 61.3302
8.426000	 61.295
8.443999	 61.2583
8.462000	 61.2362
8.480000	 61.2304
8.498000	 61.2309
8.516000	 61.23
8.533999	 61.2314
8.552000	 61.2389
8.570000	 61.2467
8.588000	 61.2437
8.606000	 61.2247
8.624000	 61.1978
8.641999	 61.1819
8.660000	 61.1858
8.678000	 61.196
8.696000	 61.1907
8.714000	 61.1704
8.731999	 61.1555
8.750000	 61.1519
8.768000	 61.1418
8.786000	 61.1144
8.804000	 61.0817
8.821999	 61.0596
8.840000	 61.0574
8.858000	 61.0786
8.876000	 61.116
8.894000	 61.1477
8.911999	 61.1493
8.930000	 61.117
8.948000	 61.0781
8.966000	 61.0723
8.984000	 61.1086
9.001999	 61.1527
9.020000	 61.1662
9.038000	 61.147
9.056000	 61.1195
9.074000	 61.101
9.092000	 61.0893
9.109999	 61.0734
9.128000	 61.0449
9.146000	 61.0051
9.164000	 60.964
9.182000	 60.9328
9.199999	 60.9154
9.218000	 60.9061
9.236000	 60.8943
9.254000	 60.8726
9.272000	 60.8429
9.289999	 60.8171
9.308000	 60.8131
9.326000	 60.8446
9.344000	 60.9092
9.362000	 60.9837
9.379999	 61.0373
9.398000	 61.0514
9.416000	 61.0318
9.434000	 60.9997
9.452000	 60.9735
9.469999	 60.962
9.488000	 60.9679
9.506000	 60.9923
9.524000	 61.0307
9.542000	 61.0693
9.560000	 61.0904
9.577999	 61.0834
9.596000	 61.0515
9.614000	 61.0087
9.632000	 60.969
9.650000	 60.9388
9.667999	 60.9161
9.686000	 60.897
9.704000	 60.88
9.722000	 60.8664
9.740000	 60.858
9.757999	 60.8532
9.776000	 60.8463
9.794000	 60.8308
9.812000	 60.8036
9.830000	 60.7671
9.847999	 60.7296
9.866000	 60.7029
9.884000	 60.6984
9.902000	 60.7213
9.920000	 60.7658
9.937999	 60.8146
9.956000	 60.8474
9.974000	 60.853
9.992000	 60.8347
10.01	60.807
10.028	60.7831
10.046	60.7663
10.064	60.7511
10.082	60.7338
10.1	60.7215
10.118	60.7298
10.136	60.7687
10.154	60.8305
10.172	60.8899
10.19	60.9171
10.208	60.8977
10.226	60.8398
10.244	60.7672
10.262	60.7049
10.28	60.6638
10.298	60.6398
10.316	60.62
10.334	60.5944
10.352	60.5621
10.37	60.5314
10.388	60.5143
10.406	60.5196
10.424	60.5467
10.442	60.5856
10.46	60.6214
10.478	60.6414
10.496	60.6416
10.514	60.627
10.532	60.6081
10.55	60.5925
10.568	60.5821
10.586	60.5722
10.604	60.5579
10.622	60.539
10.64	60.5216
10.658	60.5148
10.676	60.526
10.694	60.5558
10.712	60.5975
10.73	60.6404
10.748	60.6747
10.766	60.6972
10.784	60.7111
10.802	60.7243
10.82	60.7435
10.838	60.771
10.856	60.8033
10.874	60.8337
10.892	60.8556
10.91	60.8654
10.928	60.8629
10.946	60.8501
10.964	60.8304
10.982	60.8078
11	60.7872
11.018	60.7746
11.036	60.7743
11.054	60.7877
11.072	60.8119
11.09	60.8405
11.108	60.8669
11.126	60.8864
11.144	60.8974
11.162	60.9006
11.18	60.8961
11.198	60.8817
11.216	60.8542
11.234	60.8113
11.252	60.7547
11.27	60.6914
11.288	60.6332
11.306	60.5916
11.324	60.5755
11.342	60.5877
11.36	60.6242
11.378	60.6764
11.396	60.734
11.414	60.7878
11.432	60.8319
11.45	60.8645
11.468	60.8874
11.486	60.9041
11.504	60.9181
11.522	60.9314
11.54	60.9429
11.558	60.9493
11.576	60.9461
11.594	60.9303
11.612	60.9024
11.63	60.8665
11.648	60.8291
11.666	60.7977
11.684	60.7768
11.702	60.7667
11.72	60.7637
11.738	60.7617
11.756	60.7555
11.774	60.7432
11.792	60.7267
11.81	60.7101
11.828	60.6977
11.846	60.6913
11.864	60.6893
11.882	60.6869
11.9	60.6789
11.918	60.6624
11.936	60.639
11.954	60.6144
11.972	60.5975
11.99	60.5971
12.008	60.6181
12.026	60.6608
12.044	60.72
12.062	60.787
12.08	60.8527
12.098	60.9095
12.116	60.9529
12.134	60.9814
12.152	60.9962
12.17	60.9992
12.188	60.9923
12.206	60.9768
12.224	60.9539
12.242	60.9247
12.26	60.8908
12.278	60.8544
12.296	60.8174
12.314	60.7812
12.332	60.747
12.35	60.7165
12.368	60.6921
12.386	60.6767
12.404	60.6725
12.422	60.6801
12.44	60.6975
12.458	60.7203
12.476	60.7427
12.494	60.7586
12.512	60.7639
12.53	60.758
12.548	60.7439
12.566	60.7265
12.584	60.712
12.602	60.7057
12.62	60.7101
12.638	60.7245
12.656	60.7448
12.674	60.7652
12.692	60.7798
12.71	60.7833
12.728	60.7731
12.746	60.7491
12.764	60.7144
12.782	60.6743
12.8	60.6352
12.818	60.6032
12.836	60.5827
12.854	60.575
12.872	60.5786
12.89	60.5894
12.908	60.6014
12.926	60.6086
12.944	60.6061
12.962	60.5913
12.98	60.5641
12.998	60.5272
13.016	60.485
13.034	60.4437
13.052	60.4093
13.07	60.3867
13.088	60.3793
13.106	60.3885
13.124	60.4129
13.142	60.4493
13.16	60.4927
13.178	60.5377
13.196	60.5784
13.214	60.6108
13.232	60.6324
13.25	60.6435
13.268	60.6461
13.286	60.6433
13.304	60.6386
13.322	60.6347
13.34	60.6331
13.358	60.634
13.376	60.6361
13.394	60.6378
13.412	60.6376
13.43	60.6343
13.448	60.6269
13.466	60.6151
13.484	60.5989
13.502	60.5785
13.52	60.5537
13.538	60.5247
13.556	60.4917
13.574	60.4553
13.592	60.4169
13.61	60.3781
13.628	60.3408
13.646	60.3066
13.664	60.2763
13.682	60.2497
13.7	60.2262
13.718	60.2045
13.736	60.184
13.754	60.164
13.772	60.1453
13.79	60.129
13.808	60.1173
13.826	60.1121
13.844	60.1154
13.862	60.1283
13.88	60.1508
13.898	60.1819
13.916	60.2194
13.934	60.2606
13.952	60.3019
13.97	60.3397
13.988	60.3707
14.006	60.3924
14.024	60.4028
14.042	60.4014
14.06	60.3887
14.078	60.3665
14.096	60.3374
14.114	60.3044
14.132	60.2708
14.15	60.2394
14.168	60.2125
14.186	60.1915
14.204	60.1766
14.222	60.1674
14.24	60.1631
14.258	60.163
14.276	60.1665
14.294	60.1738
14.312	60.1855
14.33	60.2022
14.348	60.2243
14.366	60.2522
14.384	60.2849
14.402	60.3205
14.42	60.3558
14.438	60.3876
14.456	60.4123
14.474	60.4274
14.492	60.4316
14.51	60.4251
14.528	60.4098
14.546	60.3883
14.564	60.3641
14.582	60.3401
14.6	60.3187
14.618	60.3007
14.636	60.2857
14.654	60.2719
14.672	60.2575
14.69	60.24
14.708	60.2178
14.726	60.1894
14.744	60.1549
14.762	60.1156
14.78	60.0738
14.798	60.0325
14.816	59.9949
14.834	59.9648
14.852	59.9452
14.87	59.9386
14.888	59.9464
14.906	59.9689
14.924	60.0055
14.942	60.054
14.96	60.111
14.978	60.1723
14.996	60.2332
15.014	60.2884
15.032	60.3322
15.05	60.3598
15.068	60.3682
15.086	60.3553
15.104	60.3206
15.122	60.2659
15.14	60.1945
15.158	60.1111
15.176	60.0205
15.194	59.9286
15.212	59.8414
15.23	59.7633
15.248	59.6979
15.266	59.648
15.284	59.6152
15.302	59.5994
15.32	59.5998
15.338	59.6156
15.356	59.6448
15.374	59.685
15.392	59.7338
15.41	59.7891
15.428	59.8482
15.446	59.9082
15.464	59.9669
15.482	60.0221
15.5	60.0717
15.518	60.1133
15.536	60.1452
15.554	60.1666
15.572	60.1769
15.59	60.1763
15.608	60.1654
15.626	60.1452
15.644	60.117
15.662	60.0826
15.68	60.0438
15.698	60.0025
15.716	59.9612
15.734	59.9222
15.752	59.8873
15.77	59.8581
15.788	59.8363
15.806	59.8224
15.824	59.8167
15.842	59.8189
15.86	59.8276
15.878	59.8406
15.896	59.8557
15.914	59.8685
15.932	59.8754
15.95	59.8733
15.968	59.8591
15.986	59.8301
16.004	59.7861
16.022	59.7273
16.04	59.6561
16.058	59.5769
16.076	59.4938
16.094	59.4137
16.112	59.344
16.13	59.2899
16.148	59.2577
16.166	59.2521
16.184	59.2748
16.202	59.3277
16.22	59.4082
16.238	59.5125
16.256	59.6363
16.274	59.7699
16.292	59.9052
16.31	60.0349
16.328	60.1471
16.346	60.2351
16.364	60.2934
16.382	60.3165
16.4	60.3047
16.418	60.2586
16.436	60.1834
16.454	60.0867
16.472	59.9744
16.49	59.8588
16.508	59.7488
16.526	59.6513
16.544	59.5764
16.562	59.5273
16.58	59.5071
16.598	59.5162
16.616	59.5513
16.634	59.6094
16.652	59.6828
16.67	59.7657
16.688	59.8519
16.706	59.9315
16.724	60.0003
16.742	60.0523
16.76	60.0833
16.778	60.0921
16.796	60.0777
16.814	60.0422
16.832	59.987
16.85	59.917
16.868	59.8364
16.886	59.7488
16.904	59.6611
16.922	59.5764
16.94	59.4991
16.958	59.4329
16.976	59.3795
16.994	59.3416
17.012	59.319
17.03	59.3117
17.048	59.3181
17.066	59.3363
17.084	59.3638
17.102	59.3967
17.12	59.4331
17.138	59.4678
17.156	59.4981
17.174	59.5208
17.192	59.5317
17.21	59.5296
17.228	59.5114
17.246	59.4767
17.264	59.4246
17.282	59.3567
17.3	59.2744
17.318	59.1803
17.336	59.0793
17.354	58.9741
17.372	58.8729
17.39	58.7787
17.408	58.6992
17.426	58.6398
17.444	58.6044
17.462	58.5989
17.48	58.6242
17.498	58.6831
17.516	58.7732
17.534	58.8942
17.552	59.039
17.57	59.2054
17.588	59.3829
17.606	59.5663
17.624	59.7468
17.642	59.9155
17.66	60.0681
17.678	60.1949
17.696	60.2945
17.714	60.3621
17.732	60.399
17.75	60.4047
17.768	60.3854
17.786	60.3428
17.804	60.2873
17.822	60.2215
17.84	60.1567
17.858	60.0973
17.876	60.0504
17.894	60.0214
17.912	60.0131
17.93	60.0285
17.948	60.0677
17.966	60.1294
17.984	60.2119
18.002	60.3115
18.02	60.4239
18.038	60.5454
18.056	60.6695
18.074	60.7941
18.092	60.9121
18.11	61.0224
18.128	61.12
18.146	61.2045
18.164	61.2727
18.182	61.325
18.2	61.3604
18.218	61.3798
18.236	61.3833
18.254	61.3731
18.272	61.3494
18.29	61.3157
18.308	61.2724
18.326	61.2231
18.344	61.1683
18.362	61.112
18.38	61.0545
18.398	60.9985
18.416	60.9451
18.434	60.8965
18.452	60.8532
18.47	60.8161
18.488	60.7854
18.506	60.7615
18.524	60.7431
18.542	60.7302
18.56	60.7205
18.578	60.7137
18.596	60.7068
18.614	60.6995
18.632	60.6895
18.65	60.6766
18.668	60.6589
18.686	60.6365
18.704	60.6086
18.722	60.5752
18.74	60.5365
18.758	60.4927
18.776	60.4447
18.794	60.3927
18.812	60.3377
18.83	60.2796
18.848	60.2191
18.866	60.1559
18.884	60.09
18.902	60.0212
18.92	59.9491
18.938	59.8733
18.956	59.7934
18.974	59.7094
18.992	59.6213
19.01	59.5296
19.028	59.4348
19.046	59.3383
19.064	59.2416
19.082	59.1461
19.1	59.0543
19.118	58.9675
19.136	58.8891
19.154	58.8198
19.172	58.763
19.19	58.7192
19.208	58.6911
19.226	58.6784
19.244	58.6822
19.262	58.7019
19.28	58.7366
19.298	58.7858
19.316	58.8464
19.334	58.9182
19.352	58.9966
19.37	59.0816
19.388	59.1679
19.406	59.2555
19.424	59.3394
19.442	59.4196
19.46	59.4922
19.478	59.5567
19.496	59.611
19.514	59.6544
19.532	59.6864
19.55	59.7062
19.568	59.7146
19.586	59.7115
19.604	59.6979
19.622	59.6746
19.64	59.6423
19.658	59.6032
19.676	59.5574
19.694	59.5082
19.712	59.4551
19.73	59.4017
19.748	59.3476
19.766	59.2957
19.784	59.2465
19.802	59.2015
19.82	59.1618
19.838	59.1279
19.856	59.1012
19.874	59.0815
19.892	59.0693
19.91	59.0646
19.928	59.0666
19.946	59.0755
19.964	59.0897
19.982	59.1093
20	59.1326
20.018	59.159
20.036	59.1877
20.054	59.217
20.072	59.2468
20.09	59.2753
20.108	59.3027
20.126	59.3279
20.144	59.3508
20.162	59.3714
20.18	59.3896
20.198	59.4056
20.216	59.42
20.234	59.4327
20.252	59.4447
20.27	59.4558
20.288	59.4668
20.306	59.4779
20.324	59.489
20.342	59.5005
20.36	59.512
20.378	59.5233
20.396	59.5343
20.414	59.5438
20.432	59.5521
20.45	59.5579
20.468	59.5608
20.486	59.5604
20.504	59.5557
20.522	59.547
20.54	59.5338
20.558	59.516
20.576	59.4942
20.594	59.4683
20.612	59.439
20.63	59.4076
20.648	59.3738
20.666	59.3398
20.684	59.3055
20.702	59.2723
20.72	59.2416
20.738	59.2131
20.756	59.1889
20.774	59.1685
20.792	59.1526
20.81	59.1414
20.828	59.1348
20.846	59.1329
20.864	59.1355
20.882	59.1419
20.9	59.1521
20.918	59.1655
20.936	59.1817
20.954	59.2005
20.972	59.2211
20.99	59.2436
21.008	59.2678
21.026	59.2936
21.044	59.3211
21.062	59.3507
21.08	59.3823
21.098	59.4166
21.116	59.4538
21.134	59.4937
21.152	59.537
21.17	59.5836
21.188	59.6332
21.206	59.6861
21.224	59.7418
21.242	59.7995
21.26	59.8595
21.278	59.9196
21.296	59.98
21.314	60.0396
21.332	60.0958
21.35	60.1495
21.368	60.1977
21.386	60.2398
21.404	60.2753
21.422	60.3016
21.44	60.3192
21.458	60.327
21.476	60.3241
21.494	60.3111
21.512	60.2879
21.53	60.2542
21.548	60.2114
21.566	60.1599
21.584	60.0997
21.602	60.034
21.62	59.9619
21.638	59.8857
21.656	59.8082
21.674	59.7283
21.692	59.6499
21.71	59.5737
21.728	59.5001
21.746	59.4326
21.764	59.3701
21.782	59.3144
21.8	59.2669
21.818	59.227
21.836	59.1961
21.854	59.1744
21.872	59.1614
21.89	59.1572
21.908	59.1619
21.926	59.1745
21.944	59.1946
21.962	59.2223
21.98	59.2551
21.998	59.2935
22.016	59.3363
22.034	59.3812
22.052	59.4293
22.07	59.4781
22.088	59.5256
22.106	59.5729
22.124	59.6167
22.142	59.6567
22.16	59.6925
22.178	59.7209
22.196	59.7429
22.214	59.7569
22.232	59.7606
22.25	59.7552
22.268	59.7389
22.286	59.7106
22.304	59.6711
22.322	59.6197
22.34	59.5559
22.358	59.4804
22.376	59.3938
22.394	59.2955
22.412	59.1869
22.43	59.07
22.448	58.9434
22.466	58.8103
22.484	58.6729
22.502	58.5298
22.52	58.3859
22.538	58.2428
22.556	58.0996
22.574	57.962
22.592	57.8299
22.61	57.704
22.628	57.5896
22.646	57.4854
22.664	57.3931
22.682	57.3166
22.7	57.2545
22.718	57.2083
22.736	57.1805
22.754	57.1702
22.772	57.1775
22.79	57.2033
22.808	57.2473
22.826	57.3083
22.844	57.3859
22.862	57.4805
22.88	57.5891
22.898	57.711
22.916	57.8468
22.934	57.9923
22.952	58.1469
22.97	58.3111
22.988	58.4798
23.006	58.6524
23.024	58.8293
23.042	59.0055
23.06	59.181
23.078	59.3557
23.096	59.5253
23.114	59.6898
23.132	59.8492
23.15	60.0003
23.168	60.1431
23.186	60.2777
23.204	60.4023
23.222	60.5168
23.24	60.6214
23.258	60.7155
23.276	60.7988
23.294	60.8717
23.312	60.934
23.33	60.9856
23.348	61.0267
23.366	61.0579
23.384	61.0788
23.402	61.09
23.42	61.0929
23.438	61.0875
23.456	61.0739
23.474	61.0534
23.492	61.0262
23.51	60.9922
23.528	60.9528
23.546	60.9085
23.564	60.8589
23.582	60.8052
23.6	60.7476
23.618	60.6858
23.636	60.6211
23.654	60.5543
23.672	60.4849
23.69	60.4133
23.708	60.3401
23.726	60.265
23.744	60.188
23.762	60.1094
23.78	60.0289
23.798	59.9468
23.816	59.8631
23.834	59.7775
23.852	59.6904
23.87	59.6024
23.888	59.5132
23.906	59.4231
23.924	59.3323
23.942	59.2409
23.96	59.1489
23.978	59.0569
23.996	58.9646
24.014	58.872
24.032	58.7805
24.05	58.6908
24.068	58.602
24.086	58.5157
24.104	58.4335
24.122	58.3544
24.14	58.2792
24.158	58.2094
24.176	58.1448
24.194	58.0853
24.212	58.0316
24.23	57.9842
24.248	57.9427
24.266	57.9067
24.284	57.8762
24.302	57.8516
24.32	57.8315
24.338	57.8151
24.356	57.8035
24.374	57.795
24.392	57.7874
24.41	57.7812
24.428	57.7762
24.446	57.7702
24.464	57.7627
24.482	57.7547
24.5	57.7437
24.518	57.7275
24.536	57.7073
24.554	57.6827
24.572	57.6533
24.59	57.6181
24.608	57.5782
24.626	57.5354
24.644	57.4899
24.662	57.4403
24.68	57.3907
24.698	57.3448
24.716	57.2994
24.734	57.2572
24.752	57.223
24.77	57.1963
24.788	57.176
24.806	57.1673
24.824	57.1735
24.842	57.1912
24.86	57.2235
24.878	57.2742
24.896	57.3427
24.914	57.4283
24.932	57.5326
24.95	57.657
24.968	57.8009
24.986	57.9626
25.004	58.1407
25.022	58.3374
25.04	58.5504
25.058	58.7753
25.076	59.0112
25.094	59.2609
25.112	59.5178
25.13	59.7756
25.148	60.0382
25.166	60.3035
25.184	60.5647
25.202	60.8192
25.22	61.0709
25.238	61.3152
25.256	61.5471
25.274	61.7674
25.292	61.9772
25.31	62.1756
25.328	62.3612
25.346	62.5336
25.364	62.6961
25.382	62.8517
25.4	62.9978
25.418	63.1356
25.436	63.2716
25.454	63.4105
25.472	63.5465
25.49	63.6851
25.508	63.8342
25.526	63.9946
25.544	64.1627
25.562	64.3451
25.58	64.5478
25.598	64.7683
25.616	65.0065
25.634	65.2654
25.652	65.5473
25.67	65.8508
25.688	66.1751
25.706	66.5193
25.724	66.8853
25.742	67.2726
25.76	67.6758
25.778	68.09
25.796	68.5209
25.814	68.9645
25.832	69.4116
25.85	69.8571
25.868	70.3098
25.886	70.7602
25.904	71.1968
25.922	71.6179
25.94	72.0301
25.958	72.4232
25.976	72.7868
25.994	73.1255
26.012	73.4398
26.03	73.7208
26.048	73.9605
26.066	74.1642
26.084	74.331
26.102	74.4565
26.12	74.5377
26.138	74.5777
26.156	74.5756
26.174	74.53
26.192	74.4395
26.21	74.305
26.228	74.1285
26.246	73.9124
26.264	73.6557
26.282	73.3581
26.3	73.0231
26.318	72.6544
26.336	72.2502
26.354	71.8107
26.372	71.3393
26.39	70.8393
26.408	70.3072
26.426	69.745
26.444	69.1579
26.462	68.5501
26.48	67.9178
26.498	67.2627
26.516	66.5888
26.534	65.898
26.552	65.1844
26.57	64.4546
26.588	63.7169
26.606	62.975
26.624	62.2178
26.642	61.458
26.66	60.7112
26.678	59.984
26.696	59.2609
26.714	58.5572
26.732	57.8912
26.75	57.2697
26.768	56.6755
26.786	56.1254
26.804	55.6392
26.822	55.2258
26.84	54.8696
26.858	54.5805
26.876	54.3702
26.894	54.2461
26.912	54.2002
26.93	54.2324
26.948	54.3432
26.966	54.5621
26.984	54.9312
27.002	55.3409
27.02	55.6722
27.028	55.7547