File: Bakgrunnsmateriale/MATLAB/FTIR/ftir_data/subAa/Mapping_121/BZ1503107-1_t92_cm-1.asc
PE IR       SPECTRUM    SPECTRUM    ASCII       PEDS        1.60
  -1
BZ6AA5~1.ASC
17/04/07
20:50:37.00
17/04/07
20:50:37.00
tln
$BZ1503107-1_t0092$<tbV0>[5.2,7.8,8.0,0.0,27,1,0]
370
64

2002,4.07
MIRTGS : RIGHTBACK : INTERNAL 2
MIR : ON : INTERNAL 2
OPTKBR

0.200000
8
8.000000
FILLER
RATIO
SPECTRUM
UNLOCKED 256

DOUBLE
64
COMBINED
1
0
0

1.000000
RATIO

1
0
TRUE
51149
0
LEFT NOT FITTED RIGHT NOT FITTED 0
NONE
NONE
15600
12
4.427000
51148
TRUE
1 0 8 72 0 0 0 0

15798

#HDR
-1
-1
#GR
CM-1
%T
2.38419e-05
0.0
5000
-1.000000
4631
8
78.5216
60.0786
#DATA
5000	64.8235
4996	64.7774
4992	64.8177
4988	65.597
4984	66.3414
4980	65.8571
4976	64.8892
4972	63.8058
4968	63.3227
4964	64.6435
4960	65.4999
4956	65.3661
4952	66.2721
4948	66.9963
4944	66.5149
4940	66.0006
4936	65.4875
4932	64.795
4928	64.6315
4924	65.0998
4920	65.403
4916	64.8249
4912	64.3807
4908	65.0054
4904	65.2299
4900	64.7476
4896	64.4783
4892	64.2628
4888	64.4024
4884	65.1246
4880	65.7388
4876	65.9626
4872	65.8215
4868	65.2533
4864	64.6543
4860	64.4454
4856	64.4111
4852	64.3285
4848	64.3874
4844	64.6196
4840	64.6655
4836	64.5718
4832	64.5599
4828	64.4792
4824	64.4891
4820	64.7732
4816	64.9793
4812	64.8531
4808	64.7765
4804	64.8269
4800	64.7867
4796	64.7989
4792	65.0052
4788	65.2356
4784	65.3133
4780	65.2991
4776	65.2192
4772	65.2008
4768	65.1968
4764	64.9802
4760	64.6183
4756	64.522
4752	64.866
4748	65.1313
4744	65.0977
4740	65.0629
4736	65.102
4732	65.157
4728	65.2191
4724	65.3395
4720	65.4144
4716	65.3527
4712	65.2442
4708	65.1457
4704	65.0505
4700	65.0159
4696	64.943
4692	64.7773
4688	64.8949
4684	65.2823
4680	65.5179
4676	65.5523
4672	65.5581
4668	65.4503
4664	65.177
4660	64.9815
4656	65.0867
4652	65.2999
4648	65.276
4644	65.1756
4640	65.1994
4636	65.3271
4632	65.4556
4628	65.3688
4624	65.1261
4620	65.0468
4616	65.1795
4612	65.3155
4608	65.3246
4604	65.1406
4600	64.9806
4596	65.014
4592	65.0397
4588	65.1063
4584	65.275
4580	65.1765
4576	64.8806
4572	64.7983
4568	64.9148
4564	65.0943
4560	65.1252
4556	64.8937
4552	64.6808
4548	64.5953
4544	64.6628
4540	64.8536
4536	64.8309
4532	64.772
4528	64.9338
4524	65.0146
4520	65.0476
4516	65.0284
4512	64.7506
4508	64.5431
4504	64.5311
4500	64.3308
4496	64.036
4492	63.7927
4488	63.7664
4484	63.8722
4480	63.8851
4476	64.1991
4472	64.6962
4468	64.8473
4464	64.796
4460	64.741
4456	64.0913
4452	64.0168
4448	65.706
4444	69.712
4440	67.6559
4436	61.8715
4432	61.7949
4428	64.2257
4424	65.1754
4420	65.9225
4416	65.8205
4412	65.2098
4408	65.2052
4404	65.0792
4400	64.747
4396	64.3837
4392	64.103
4388	64.218
4384	64.3311
4380	64.3265
4376	64.4972
4372	64.7481
4368	64.8897
4364	64.943
4360	64.9322
4356	64.8621
4352	64.9062
4348	64.9619
4344	64.8134
4340	64.6487
4336	64.6313
4332	64.6924
4328	64.8108
4324	64.9953
4320	64.9836
4316	64.7678
4312	64.6569
4308	64.6111
4304	64.622
4300	64.8791
4296	65.114
4292	65.0713
4288	65.0023
4284	65.0171
4280	64.9708
4276	64.8617
4272	64.7447
4268	64.6501
4264	64.6695
4260	64.7625
4256	64.8867
4252	64.9551
4248	64.9405
4244	65.0381
4240	65.1804
4236	65.1417
4232	64.9917
4228	64.9204
4224	64.8774
4220	64.8628
4216	64.9845
4212	65.1042
4208	65.1123
4204	65.0383
4200	64.9574
4196	64.983
4192	65.0959
4188	65.2443
4184	65.2752
4180	65.1793
4176	65.1875
4172	65.3143
4168	65.3538
4164	65.2246
4160	65.0325
4156	64.9209
4152	64.8844
4148	64.7725
4144	64.7281
4140	64.9053
4136	65.1167
4132	65.208
4128	65.1972
4124	65.1008
4120	65.0279
4116	65.1669
4112	65.4311
4108	65.4269
4104	65.1958
4100	65.1461
4096	65.2095
4092	65.1556
4088	64.9825
4084	64.9069
4080	65.034
4076	65.1306
4072	65.1085
4068	65.1216
4064	65.1721
4060	65.084
4056	64.9811
4052	64.9738
4048	64.8458
4044	64.7482
4040	64.8587
4036	64.9812
4032	65.1063
4028	65.2413
4024	65.2385
4020	65.135
4016	65.0821
4012	65.1072
4008	65.1641
4004	65.2286
4000	65.2565
3996	65.1764
3992	65.0813
3988	65.1056
3984	65.189
3980	65.1677
3976	65.0915
3972	65.1404
3968	65.1568
3964	65.0376
3960	64.942
3956	65.0015
3952	65.0796
3948	64.9491
3944	64.9913
3940	65.325
3936	65.3345
3932	65.0338
3928	64.8996
3924	64.9079
3920	64.9245
3916	65.0068
3912	65.1003
3908	65.1585
3904	65.2195
3900	65.2333
3896	65.1255
3892	64.9309
3888	64.7874
3884	64.7816
3880	64.9712
3876	65.2039
3872	65.1994
3868	65.1057
3864	65.1973
3860	65.2711
3856	65.1936
3852	65.1327
3848	65.1039
3844	65.0893
3840	65.093
3836	65.1151
3832	65.1104
3828	65.091
3824	65.1337
3820	65.1453
3816	65.0978
3812	65.105
3808	65.1201
3804	65.0277
3800	64.978
3796	65.0922
3792	65.1509
3788	65.1448
3784	65.1656
3780	65.13
3776	65.1431
3772	65.1885
3768	65.1183
3764	65.0247
3760	65.0422
3756	65.1273
3752	65.1668
3748	65.1674
3744	65.179
3740	65.1316
3736	65.0256
3732	65.0026
3728	65.0925
3724	65.2262
3720	65.3203
3716	65.2718
3712	65.1306
3708	65.06
3704	65.0614
3700	65.1154
3696	65.2328
3692	65.2496
3688	65.1448
3684	65.085
3680	65.088
3676	65.125
3672	65.1779
3668	65.173
3664	65.0819
3660	64.9749
3656	64.965
3652	65.0492
3648	65.1352
3644	65.1513
3640	65.1349
3636	65.1719
3632	65.1967
3628	65.2033
3624	65.2259
3620	65.2092
3616	65.1666
3612	65.0831
3608	64.9711
3604	64.947
3600	65.0331
3596	65.1438
3592	65.1765
3588	65.0898
3584	65.0375
3580	65.0615
3576	65.0569
3572	65.1058
3568	65.174
3564	65.1566
3560	65.1136
3556	65.089
3552	65.0391
3548	64.9663
3544	64.9852
3540	65.0658
3536	65.1371
3532	65.2335
3528	65.2872
3524	65.2629
3520	65.1527
3516	64.9729
3512	64.9037
3508	64.9841
3504	65.0833
3500	65.1122
3496	65.0511
3492	65.0138
3488	65.0717
3484	65.0993
3480	65.0727
3476	65.1296
3472	65.213
3468	65.2154
3464	65.1449
3460	65.0948
3456	65.1871
3452	65.221
3448	65.0798
3444	65.0182
3440	65.0574
3436	65.1106
3432	65.1036
3428	64.9955
3424	64.9636
3420	65.0362
3416	65.1212
3412	65.1841
3408	65.1902
3404	65.1442
3400	65.0663
3396	64.9933
3392	64.9675
3388	64.9852
3384	64.9899
3380	64.9504
3376	64.9233
3372	64.9259
3368	64.9532
3364	65.0421
3360	65.0455
3356	64.9331
3352	64.8708
3348	64.8332
3344	64.8564
3340	64.9573
3336	64.9874
3332	64.9447
3328	64.8781
3324	64.8182
3320	64.8751
3316	65.0163
3312	65.0854
3308	65.1026
3304	65.0875
3300	65.0105
3296	64.9287
3292	64.869
3288	64.8542
3284	64.8922
3280	64.9826
3276	65.0738
3272	65.0519
3268	64.9797
3264	64.9764
3260	64.9915
3256	65.0146
3252	65.0839
3248	65.0832
3244	64.9884
3240	64.9657
3236	65.0128
3232	65.0095
3228	64.9896
3224	64.9492
3220	64.8909
3216	64.9179
3212	65.003
3208	65.0378
3204	64.9532
3200	64.787
3196	64.7148
3192	64.799
3188	64.8597
3184	64.8392
3180	64.8978
3176	64.9941
3172	65.0295
3168	65.0374
3164	64.9823
3160	64.9011
3156	64.8372
3152	64.7974
3148	64.8327
3144	64.9048
3140	64.9401
3136	64.9161
3132	64.8941
3128	64.897
3124	64.8499
3120	64.7565
3116	64.7605
3112	64.9066
3108	65.0154
3104	65.0124
3100	64.9906
3096	65.0226
3092	65.1192
3088	65.1277
3084	64.9505
3080	64.8285
3076	64.878
3072	64.8775
3068	64.782
3064	64.7711
3060	64.8547
3056	64.9275
3052	64.9812
3048	65.0003
3044	65.0033
3040	65.0324
3036	64.9961
3032	64.9038
3028	64.8596
3024	64.8279
3020	64.8516
3016	64.9535
3012	64.9765
3008	64.8936
3004	64.8193
3000	64.7942
2996	64.7942
2992	64.7859
2988	64.7712
2984	64.791
2980	64.8273
2976	64.8464
2972	64.8246
2968	64.7237
2964	64.6064
2960	64.5456
2956	64.5285
2952	64.5606
2948	64.6588
2944	64.7943
2940	64.8318
2936	64.7872
2932	64.8316
2928	64.9051
2924	64.8954
2920	64.8651
2916	64.8737
2912	64.8892
2908	64.9404
2904	64.9272
2900	64.7501
2896	64.6595
2892	64.7387
2888	64.7937
2884	64.7692
2880	64.7358
2876	64.7398
2872	64.7407
2868	64.7184
2864	64.7269
2860	64.7758
2856	64.7973
2852	64.7601
2848	64.7513
2844	64.7637
2840	64.7167
2836	64.6788
2832	64.7218
2828	64.8005
2824	64.8195
2820	64.7716
2816	64.7519
2812	64.767
2808	64.7572
2804	64.7764
2800	64.8197
2796	64.7765
2792	64.7167
2788	64.7616
2784	64.8748
2780	64.9531
2776	64.9118
2772	64.7913
2768	64.7314
2764	64.7786
2760	64.8144
2756	64.7434
2752	64.6796
2748	64.7013
2744	64.7505
2740	64.7987
2736	64.7974
2732	64.7852
2728	64.8353
2724	64.8814
2720	64.8801
2716	64.8341
2712	64.7854
2708	64.7799
2704	64.7903
2700	64.8031
2696	64.7958
2692	64.7546
2688	64.7705
2684	64.8448
2680	64.8772
2676	64.8758
2672	64.8424
2668	64.8035
2664	64.7898
2660	64.781
2656	64.8024
2652	64.8531
2648	64.8813
2644	64.8452
2640	64.7833
2636	64.7369
2632	64.7223
2628	64.7416
2624	64.7532
2620	64.7496
2616	64.7896
2612	64.8533
2608	64.8388
2604	64.7531
2600	64.6806
2596	64.6275
2592	64.5917
2588	64.6424
2584	64.7415
2580	64.7657
2576	64.73
2572	64.7272
2568	64.7399
2564	64.6628
2560	64.5876
2556	64.633
2552	64.6728
2548	64.6178
2544	64.5597
2540	64.5966
2536	64.6483
2532	64.6509
2528	64.6498
2524	64.6605
2520	64.7054
2516	64.7184
2512	64.6336
2508	64.5628
2504	64.5947
2500	64.6457
2496	64.6622
2492	64.7307
2488	64.7845
2484	64.7062
2480	64.6489
2476	64.7099
2472	64.7749
2468	64.7798
2464	64.7578
2460	64.7214
2456	64.6737
2452	64.6227
2448	64.5831
2444	64.585
2440	64.5978
2436	64.5866
2432	64.5954
2428	64.625
2424	64.6234
2420	64.639
2416	64.6738
2412	64.6615
2408	64.6051
2404	64.5109
2400	64.4716
2396	64.5256
2392	64.5415
2388	64.5066
2384	64.5215
2380	64.5519
2376	64.5227
2372	64.5143
2368	64.5787
2364	64.6443
2360	64.6882
2356	64.6817
2352	64.6075
2348	64.5603
2344	64.5472
2340	64.5213
2336	64.5211
2332	64.5509
2328	64.5795
2324	64.5995
2320	64.5658
2316	64.5214
2312	64.5381
2308	64.5316
2304	64.4906
2300	64.504
2296	64.5497
2292	64.5375
2288	64.4807
2284	64.4474
2280	64.4813
2276	64.5514
2272	64.5613
2268	64.5077
2264	64.4505
2260	64.4428
2256	64.4784
2252	64.5009
2248	64.4798
2244	64.4267
2240	64.3996
2236	64.4055
2232	64.4172
2228	64.4499
2224	64.4825
2220	64.4884
2216	64.4851
2212	64.4678
2208	64.4351
2204	64.4231
2200	64.4097
2196	64.3431
2192	64.2681
2188	64.2788
2184	64.3558
2180	64.3848
2176	64.3803
2172	64.4088
2168	64.4325
2164	64.4176
2160	64.3854
2156	64.374
2152	64.381
2148	64.3651
2144	64.3289
2140	64.3234
2136	64.36
2132	64.4017
2128	64.4039
2124	64.3455
2120	64.3122
2116	64.3483
2112	64.3764
2108	64.3836
2104	64.3735
2100	64.3662
2096	64.3934
2092	64.3806
2088	64.3223
2084	64.2853
2080	64.2619
2076	64.2427
2072	64.2647
2068	64.3254
2064	64.3906
2060	64.4424
2056	64.4796
2052	64.437
2048	64.323
2044	64.2821
2040	64.3233
2036	64.352
2032	64.3207
2028	64.2699
2024	64.2514
2020	64.2631
2016	64.2911
2012	64.3001
2008	64.2766
2004	64.2569
2000	64.2815
1996	64.3458
1992	64.4053
1988	64.3793
1984	64.299
1980	64.2838
1976	64.2951
1972	64.2648
1968	64.2299
1964	64.2176
1960	64.2126
1956	64.1856
1952	64.1514
1948	64.1408
1944	64.1486
1940	64.1973
1936	64.2258
1932	64.1831
1928	64.1426
1924	64.1058
1920	64.0669
1916	64.082
1912	64.1628
1908	64.245
1904	64.2646
1900	64.2527
1896	64.2528
1892	64.2333
1888	64.1829
1884	64.1408
1880	64.1238
1876	64.1116
1872	64.0996
1868	64.0983
1864	64.1451
1860	64.2358
1856	64.2552
1852	64.1635
1848	64.0481
1844	64.0248
1840	64.1258
1836	64.218
1832	64.2072
1828	64.1428
1824	64.124
1820	64.1734
1816	64.1925
1812	64.1472
1808	64.1221
1804	64.1258
1800	64.1035
1796	64.0926
1792	64.1135
1788	64.0944
1784	64.0373
1780	63.9941
1776	63.9769
1772	63.9943
1768	64.0374
1764	64.0327
1760	63.9613
1756	63.8869
1752	63.8088
1748	63.7472
1744	63.7174
1740	63.7041
1736	63.7067
1732	63.7034
1728	63.7115
1724	63.7463
1720	63.8086
1716	63.8827
1712	63.9244
1708	63.9277
1704	63.8939
1700	63.8395
1696	63.8325
1692	63.8524
1688	63.8435
1684	63.8453
1680	63.8506
1676	63.84
1672	63.8762
1668	63.9379
1664	63.9439
1660	63.8978
1656	63.8398
1652	63.8517
1648	63.9432
1644	64.0044
1640	63.9896
1636	63.9122
1632	63.8441
1628	63.8249
1624	63.8283
1620	63.8756
1616	63.9173
1612	63.8902
1608	63.8598
1604	63.8547
1600	63.8547
1596	63.904
1592	63.9494
1588	63.8936
1584	63.7706
1580	63.67
1576	63.6972
1572	63.7953
1568	63.7795
1564	63.6625
1560	63.63
1556	63.6749
1552	63.6397
1548	63.61
1544	63.6541
1540	63.6392
1536	63.5989
1532	63.6075
1528	63.6488
1524	63.6996
1520	63.6811
1516	63.6664
1512	63.7374
1508	63.8085
1504	63.8429
1500	63.8128
1496	63.7323
1492	63.7034
1488	63.732
1484	63.7445
1480	63.75
1476	63.7508
1472	63.7291
1468	63.6917
1464	63.6336
1460	63.5946
1456	63.5442
1452	63.5166
1448	63.6198
1444	63.6829
1440	63.6434
1436	63.6388
1432	63.6337
1428	63.5802
1424	63.5639
1420	63.611
1416	63.6325
1412	63.6514
1408	63.7195
1404	63.736
1400	63.6217
1396	63.4603
1392	63.388
1388	63.4127
1384	63.4597
1380	63.4959
1376	63.5201
1372	63.5557
1368	63.5989
1364	63.6144
1360	63.6331
1356	63.6388
1352	63.6099
1348	63.5632
1344	63.4759
1340	63.4164
1336	63.4353
1332	63.5068
1328	63.528
1324	63.4964
1320	63.5633
1316	63.6169
1312	63.5494
1308	63.4681
1304	63.4196
1300	63.4451
1296	63.5334
1292	63.5681
1288	63.5041
1284	63.4383
1280	63.4024
1276	63.3414
1272	63.2961
1268	63.3007
1264	63.3291
1260	63.3444
1256	63.3599
1252	63.389
1248	63.3889
1244	63.3614
1240	63.319
1236	63.2852
1232	63.2897
1228	63.3083
1224	63.3725
1220	63.4456
1216	63.4242
1212	63.3593
1208	63.3003
1204	63.2595
1200	63.2853
1196	63.3285
1192	63.2777
1188	63.1915
1184	63.139
1180	63.0625
1176	63.0044
1172	63.0095
1168	63.0356
1164	63.0502
1160	63.0646
1156	63.1233
1152	63.1828
1148	63.1996
1144	63.2224
1140	63.22
1136	63.1829
1132	63.1689
1128	63.1636
1124	63.1963
1120	63.2353
1116	63.2343
1112	63.2345
1108	63.1629
1104	63.064
1100	63.0525
1096	63.0858
1092	63.1137
1088	63.1086
1084	63.1076
1080	63.1599
1076	63.2231
1072	63.2176
1068	63.1711
1064	63.1451
1060	63.1292
1056	63.1094
1052	63.0372
1048	63.0012
1044	63.0925
1040	63.1577
1036	63.1349
1032	63.1242
1028	63.1369
1024	63.0869
1020	62.991
1016	62.9355
1012	63.0087
1008	63.1038
1004	63.038
1000	62.9481
996	 62.9603
992	 63.0045
988	 63.0817
984	 63.2496
980	 63.3725
976	 63.2806
972	 63.1304
968	 63.0846
964	 63.0801
960	 63.0316
956	 62.9986
952	 63.0354
948	 63.0534
944	 63.0491
940	 63.0791
936	 63.0764
932	 63.0403
928	 63.049
924	 63.0406
920	 63.0052
916	 62.9829
912	 62.972
908	 63.0072
904	 62.9874
900	 62.911
896	 62.8186
892	 62.747
888	 62.845
884	 62.9074
880	 62.8199
876	 62.9042
872	 63.0692
868	 63.08
864	 63.0069
860	 62.9
856	 62.9141
852	 62.997
848	 62.992
844	 62.9871
840	 62.9578
836	 62.9218
832	 62.9136
828	 62.863
824	 62.8501
820	 62.8751
816	 62.8608
812	 62.8688
808	 62.9024
804	 62.9208
800	 63.0117
796	 63.1746
792	 63.2081
788	 63.1445
784	 63.0748
780	 62.9049
776	 62.646
772	 62.5592
768	 62.6983
764	 62.7461
760	 62.6758
756	 62.6672
752	 62.7175
748	 62.756
744	 62.8336
740	 62.9868
736	 63.0611
732	 63.0031
728	 62.8987
724	 62.7702
720	 62.6931
716	 62.6931
712	 62.6717
708	 62.6701
704	 62.7348
700	 62.6768
696	 62.5286
692	 62.5803
688	 62.6776
684	 62.5575
680	 62.3314
676	 62.282
672	 62.4383
668	 62.3939
664	 62.1966
660	 62.1556
656	 62.134
652	 62.2152
648	 62.5633
644	 62.8736
640	 62.8819
636	 62.7182
632	 62.4639
628	 62.2463
624	 62.2308
620	 62.2375
616	 62.2116
612	 62.3537
608	 62.6456
604	 62.6642
600	 62.4602
596	 62.4348
592	 62.5166
588	 62.6466
584	 62.5775
580	 62.2262
576	 62.1779
572	 62.6201
568	 62.8692
564	 62.557
560	 62.3615
556	 62.6343
552	 62.9344
548	 62.7942
544	 62.1422
540	 61.4619
536	 61.1835
532	 61.4079
528	 61.8271
524	 61.7674
520	 61.2204
516	 61.0309
512	 61.6079
508	 62.0218
504	 61.3544
500	 60.3237
496	 60.5191
492	 62.0207
488	 62.8707
484	 61.9254
480	 61.1573
476	 62.0589
472	 62.7374
468	 61.9308
464	 61.6188
460	 62.3694
456	 62.7788
452	 62.6433
448	 62.0008
444	 62.0326
440	 62.5573
436	 62.4665
432	 62.3312
428	 62.1616
424	 62.2941
420	 62.6814
416	 62.0868
412	 60.5116
408	 60.3509
404	 62.3679
400	 62.784
396	 62.9175
392	 67.973
388	 74.139
384	 77.9111
380	 77.3519
376	 69.4649
372	 61.9479
370	 61.1791