File: Bakgrunnsmateriale/MATLAB/FTIR/ftir_data/subAa/Mapping_121/BZ1503107-1_t77_cm-1.asc
PE IR       SPECTRUM    SPECTRUM    ASCII       PEDS        1.60
  -1
BZ6FA6~1.ASC
17/04/07
19:34:14.00
17/04/07
19:34:14.00
tln
$BZ1503107-1_t0077$<tbV0>[-13.0,2.6,8.0,0.0,27,1,0]
370
64

2002,4.07
MIRTGS : RIGHTBACK : INTERNAL 2
MIR : ON : INTERNAL 2
OPTKBR

0.200000
8
8.000000
FILLER
RATIO
SPECTRUM
UNLOCKED 256

DOUBLE
64
COMBINED
1
0
0

1.000000
RATIO

1
0
TRUE
51149
0
LEFT NOT FITTED RIGHT NOT FITTED 0
NONE
NONE
15600
12
4.427000
51148
TRUE
1 0 8 72 0 0 0 0

15798

#HDR
-1
-1
#GR
CM-1
%T
2.38419e-05
0.0
5000
-1.000000
4631
8
75.4374
54.7334
#DATA
5000	66.1398
4996	65.9055
4992	65.4168
4988	64.7856
4984	64.5819
4980	65.2095
4976	65.5795
4972	65.1555
4968	64.7256
4964	65.0887
4960	65.673
4956	65.6108
4952	65.2415
4948	65.0219
4944	64.9823
4940	65.073
4936	65.4079
4932	65.4692
4928	64.9288
4924	64.6008
4920	64.7163
4916	64.8606
4912	65.0668
4908	65.3406
4904	65.4586
4900	65.4619
4896	65.4164
4892	65.3913
4888	65.5354
4884	65.8788
4880	66.0558
4876	65.7524
4872	65.271
4868	64.9731
4864	64.8684
4860	64.946
4856	65.0666
4852	64.925
4848	64.6835
4844	64.7431
4840	64.9576
4836	64.9895
4832	64.9849
4828	65.0147
4824	64.9725
4820	64.921
4816	65.0252
4812	65.2452
4808	65.3006
4804	65.2389
4800	65.173
4796	65.1084
4792	65.2526
4788	65.4771
4784	65.4986
4780	65.2699
4776	65.053
4772	65.2298
4768	65.474
4764	65.45
4760	65.312
4756	65.1579
4752	65.1091
4748	65.2308
4744	65.3356
4740	65.1584
4736	64.8648
4732	64.7928
4728	64.871
4724	64.9962
4720	65.1954
4716	65.3653
4712	65.2775
4708	65.0569
4704	65.0717
4700	65.2475
4696	65.3149
4692	65.1994
4688	65.0353
4684	64.9945
4680	65.0405
4676	65.0489
4672	65.0508
4668	65.1303
4664	65.2124
4660	65.3836
4656	65.5447
4652	65.3996
4648	65.1709
4644	65.115
4640	65.1913
4636	65.3077
4632	65.407
4628	65.4813
4624	65.554
4620	65.6322
4616	65.6011
4612	65.3724
4608	65.1914
4604	65.2787
4600	65.474
4596	65.6643
4592	65.7356
4588	65.6531
4584	65.6551
4580	65.6291
4576	65.482
4572	65.3511
4568	65.2926
4564	65.4449
4560	65.5622
4556	65.3609
4552	65.1057
4548	65.0303
4544	65.0425
4540	65.2144
4536	65.4577
4532	65.3884
4528	65.2076
4524	65.1878
4520	65.249
4516	65.3916
4512	65.4601
4508	65.4395
4504	65.339
4500	65.2716
4496	65.1958
4492	65.0392
4488	65.1763
4484	65.4157
4480	65.2474
4476	65.0114
4472	65.0885
4468	65.2026
4464	65.2342
4460	65.296
4456	64.8813
4452	64.0309
4448	63.2337
4444	62.7465
4440	60.6951
4436	55.9916
4432	56.6441
4428	65.9986
4424	73.3534
4420	75.4374
4416	74.1688
4412	70.9797
4408	68.1449
4404	65.8011
4400	64.8739
4396	65.2912
4392	65.3144
4388	65.2765
4384	65.4942
4380	65.2969
4376	64.7967
4372	64.639
4368	65.0716
4364	65.5271
4360	65.7242
4356	65.7022
4352	65.6093
4348	65.5681
4344	65.5061
4340	65.47
4336	65.5595
4332	65.5463
4328	65.2014
4324	64.9842
4320	65.2128
4316	65.3778
4312	65.2846
4308	65.2006
4304	65.2742
4300	65.407
4296	65.3887
4292	65.3285
4288	65.3258
4284	65.3003
4280	65.2535
4276	65.1934
4272	65.2201
4268	65.3471
4264	65.3693
4260	65.3255
4256	65.3423
4252	65.2893
4248	65.2231
4244	65.3275
4240	65.3247
4236	65.1161
4232	65.0216
4228	65.1192
4224	65.3512
4220	65.3998
4216	65.1664
4212	65.0823
4208	65.2408
4204	65.3728
4200	65.3555
4196	65.1989
4192	65.0588
4188	65.0358
4184	65.0786
4180	65.1879
4176	65.2033
4172	65.1086
4168	65.1458
4164	65.2103
4160	65.2482
4156	65.4027
4152	65.4918
4148	65.3483
4144	65.0928
4140	64.9659
4136	65.0449
4132	65.242
4128	65.4415
4124	65.5124
4120	65.5013
4116	65.5199
4112	65.5992
4108	65.7045
4104	65.6566
4100	65.523
4096	65.4353
4092	65.2405
4088	65.0691
4084	65.1683
4080	65.3937
4076	65.4882
4072	65.4126
4068	65.2778
4064	65.2343
4060	65.3686
4056	65.5064
4052	65.48
4048	65.3575
4044	65.2692
4040	65.3279
4036	65.4562
4032	65.4796
4028	65.3943
4024	65.3142
4020	65.3096
4016	65.385
4012	65.4969
4008	65.5567
4004	65.4808
4000	65.2817
3996	65.1666
3992	65.2668
3988	65.4775
3984	65.6076
3980	65.5444
3976	65.4553
3972	65.446
3968	65.3343
3964	65.1773
3960	65.1253
3956	65.1358
3952	65.258
3948	65.3822
3944	65.3087
3940	65.1594
3936	65.118
3932	65.1738
3928	65.197
3924	65.1628
3920	65.2044
3916	65.3453
3912	65.4199
3908	65.4114
3904	65.5028
3900	65.5983
3896	65.5509
3892	65.5355
3888	65.5382
3884	65.4188
3880	65.3669
3876	65.4659
3872	65.5695
3868	65.5588
3864	65.3053
3860	65.0858
3856	65.1994
3852	65.3821
3848	65.4155
3844	65.408
3840	65.4196
3836	65.3398
3832	65.2003
3828	65.1554
3824	65.1717
3820	65.2478
3816	65.4904
3812	65.6266
3808	65.3836
3804	65.1569
3800	65.294
3796	65.4922
3792	65.5208
3788	65.5268
3784	65.5587
3780	65.5956
3776	65.5414
3772	65.3456
3768	65.1676
3764	65.062
3760	65.0946
3756	65.2236
3752	65.3363
3748	65.4451
3744	65.4964
3740	65.5231
3736	65.5672
3732	65.6246
3728	65.5915
3724	65.4123
3720	65.3144
3716	65.3764
3712	65.4572
3708	65.4871
3704	65.4754
3700	65.437
3696	65.4546
3692	65.4726
3688	65.4044
3684	65.3549
3680	65.36
3676	65.4374
3672	65.5532
3668	65.5957
3664	65.5559
3660	65.4845
3656	65.436
3652	65.4374
3648	65.4496
3644	65.4979
3640	65.5449
3636	65.4843
3632	65.4281
3628	65.3962
3624	65.358
3620	65.4426
3616	65.553
3612	65.5704
3608	65.5663
3604	65.5422
3600	65.5178
3596	65.5008
3592	65.4108
3588	65.3036
3584	65.2665
3580	65.2983
3576	65.3775
3572	65.4788
3568	65.5411
3564	65.5315
3560	65.4814
3556	65.4071
3552	65.3381
3548	65.3162
3544	65.3434
3540	65.3701
3536	65.4046
3532	65.452
3528	65.4449
3524	65.466
3520	65.584
3516	65.586
3512	65.4598
3508	65.3512
3504	65.2536
3500	65.2231
3496	65.305
3492	65.3993
3488	65.3943
3484	65.3716
3480	65.439
3476	65.4908
3472	65.4761
3468	65.4474
3464	65.3612
3460	65.267
3456	65.2969
3452	65.3459
3448	65.3579
3444	65.4039
3440	65.3921
3436	65.2559
3432	65.1318
3428	65.1549
3424	65.2207
3420	65.261
3416	65.2871
3412	65.2724
3408	65.2873
3404	65.3098
3400	65.3109
3396	65.3307
3392	65.3064
3388	65.2249
3384	65.2058
3380	65.3193
3376	65.3734
3372	65.2404
3368	65.1524
3364	65.1935
3360	65.2579
3356	65.2919
3352	65.2623
3348	65.2783
3344	65.3204
3340	65.2808
3336	65.2597
3332	65.3203
3328	65.3998
3324	65.4194
3320	65.3816
3316	65.3108
3312	65.2523
3308	65.3018
3304	65.4056
3300	65.4158
3296	65.3425
3292	65.3134
3288	65.3398
3284	65.3557
3280	65.3118
3276	65.2119
3272	65.1585
3268	65.1793
3264	65.1718
3260	65.1722
3256	65.2607
3252	65.3621
3248	65.4052
3244	65.3334
3240	65.2481
3236	65.3249
3232	65.4034
3228	65.3383
3224	65.3016
3220	65.3015
3216	65.2741
3212	65.2648
3208	65.2367
3204	65.19
3200	65.1929
3196	65.2117
3192	65.2133
3188	65.2739
3184	65.3035
3180	65.238
3176	65.1845
3172	65.1648
3168	65.2148
3164	65.3089
3160	65.3201
3156	65.2745
3152	65.2779
3148	65.3028
3144	65.2909
3140	65.232
3136	65.126
3132	65.0745
3128	65.147
3124	65.2582
3120	65.3148
3116	65.2838
3112	65.2094
3108	65.1668
3104	65.1975
3100	65.2557
3096	65.2572
3092	65.2199
3088	65.194
3084	65.224
3080	65.3288
3076	65.3588
3072	65.2426
3068	65.1816
3064	65.2918
3060	65.4079
3056	65.4039
3052	65.3397
3048	65.2735
3044	65.2276
3040	65.2241
3036	65.1761
3032	65.0436
3028	65.0003
3024	65.0687
3020	65.1153
3016	65.145
3012	65.1724
3008	65.1844
3004	65.2017
3000	65.2066
2996	65.2166
2992	65.2177
2988	65.0873
2984	64.8993
2980	64.8568
2976	64.8581
2972	64.7531
2968	64.6563
2964	64.6207
2960	64.5554
2956	64.4935
2952	64.5427
2948	64.6482
2944	64.7036
2940	64.7168
2936	64.7237
2932	64.7223
2928	64.7257
2924	64.7576
2920	64.806
2916	64.819
2912	64.8313
2908	64.9009
2904	64.9568
2900	64.9329
2896	64.9127
2892	64.9654
2888	65.0149
2884	64.9752
2880	64.9123
2876	64.9004
2872	64.8715
2868	64.8097
2864	64.8537
2860	64.98
2856	65.0304
2852	65.0141
2848	64.9935
2844	64.9831
2840	65.0073
2836	65.0386
2832	64.9935
2828	64.9468
2824	64.9706
2820	65.0264
2816	65.0978
2812	65.1184
2808	65.112
2804	65.1385
2800	65.1594
2796	65.1215
2792	65.0891
2788	65.1448
2784	65.2053
2780	65.2016
2776	65.1452
2772	65.0986
2768	65.1089
2764	65.2005
2760	65.2752
2756	65.2342
2752	65.2129
2748	65.2206
2744	65.1864
2740	65.1849
2736	65.1699
2732	65.1188
2728	65.1478
2724	65.2216
2720	65.2285
2716	65.1831
2712	65.1735
2708	65.1865
2704	65.1557
2700	65.0952
2696	65.0294
2692	65.0423
2688	65.1743
2684	65.2747
2680	65.2368
2676	65.1372
2672	65.0647
2668	65.0346
2664	65.0055
2660	64.9645
2656	64.9949
2652	65.0409
2648	65.0181
2644	65.0041
2640	65.0148
2636	65.0018
2632	64.988
2628	65.0071
2624	65.0384
2620	65.0491
2616	65.0509
2612	65.0579
2608	65.0238
2604	64.9741
2600	64.9897
2596	65.0473
2592	65.0684
2588	65.0196
2584	64.9846
2580	65.0317
2576	65.0752
2572	65.0402
2568	64.9782
2564	64.9437
2560	64.9122
2556	64.8729
2552	64.8787
2548	64.9372
2544	64.9668
2540	64.9896
2536	65.077
2532	65.1391
2528	65.1249
2524	65.1037
2520	65.084
2516	65.0533
2512	64.9974
2508	64.9655
2504	64.9887
2500	64.9765
2496	64.9425
2492	64.9269
2488	64.9159
2484	64.9269
2480	64.9292
2476	64.9483
2472	65.0035
2468	64.9919
2464	64.9207
2460	64.9211
2456	64.9703
2452	64.9323
2448	64.8853
2444	64.9415
2440	64.9702
2436	64.8946
2432	64.8512
2428	64.8976
2424	64.9363
2420	64.9395
2416	64.9221
2412	64.869
2408	64.8208
2404	64.8439
2400	64.8924
2396	64.8964
2392	64.8867
2388	64.8633
2384	64.8396
2380	64.8568
2376	64.9073
2372	64.945
2368	64.9182
2364	64.8677
2360	64.8471
2356	64.8548
2352	64.8405
2348	64.8076
2344	64.817
2340	64.8476
2336	64.8943
2332	64.9208
2328	64.8778
2324	64.8663
2320	64.9035
2316	64.8986
2312	64.874
2308	64.8506
2304	64.782
2300	64.7115
2296	64.7451
2292	64.806
2288	64.7748
2284	64.7295
2280	64.7557
2276	64.8165
2272	64.8358
2268	64.8376
2264	64.8695
2260	64.8826
2256	64.8812
2252	64.9033
2248	64.8704
2244	64.7564
2240	64.6862
2236	64.7297
2232	64.8349
2228	64.9002
2224	64.8543
2220	64.7766
2216	64.778
2212	64.8252
2208	64.8296
2204	64.7564
2200	64.6756
2196	64.6497
2192	64.699
2188	64.8246
2184	64.8967
2180	64.8182
2176	64.6895
2172	64.6195
2168	64.6636
2164	64.763
2160	64.8031
2156	64.8069
2152	64.768
2148	64.6636
2144	64.6539
2140	64.7373
2136	64.7673
2132	64.7713
2128	64.7837
2124	64.7608
2120	64.7074
2116	64.6873
2112	64.7066
2108	64.7415
2104	64.7548
2100	64.7162
2096	64.691
2092	64.6863
2088	64.6331
2084	64.5802
2080	64.6114
2076	64.6652
2072	64.6768
2068	64.7036
2064	64.7193
2060	64.6795
2056	64.6677
2052	64.6734
2048	64.6527
2044	64.6324
2040	64.6234
2036	64.6391
2032	64.6515
2028	64.6696
2024	64.6955
2020	64.6969
2016	64.6852
2012	64.6438
2008	64.5912
2004	64.5543
2000	64.5313
1996	64.5385
1992	64.5324
1988	64.5161
1984	64.5524
1980	64.5907
1976	64.593
1972	64.609
1968	64.6087
1964	64.5544
1960	64.538
1956	64.5641
1952	64.5322
1948	64.5078
1944	64.5319
1940	64.5529
1936	64.5665
1932	64.5691
1928	64.571
1924	64.5686
1920	64.573
1916	64.586
1912	64.5819
1908	64.565
1904	64.5622
1900	64.5632
1896	64.5549
1892	64.5629
1888	64.5493
1884	64.5205
1880	64.5512
1876	64.5665
1872	64.4967
1868	64.4279
1864	64.4428
1860	64.4958
1856	64.5019
1852	64.5087
1848	64.5226
1844	64.4338
1840	64.3557
1836	64.3929
1832	64.4288
1828	64.4414
1824	64.4541
1820	64.499
1816	64.5491
1812	64.5026
1808	64.431
1804	64.421
1800	64.4286
1796	64.4057
1792	64.3422
1788	64.3021
1784	64.3282
1780	64.3774
1776	64.4167
1772	64.4151
1768	64.3481
1764	64.2677
1760	64.2403
1756	64.1709
1752	63.9735
1748	63.7293
1744	63.4518
1740	63.1235
1736	62.8926
1732	62.9292
1728	63.2013
1724	63.5051
1720	63.7454
1716	63.9739
1712	64.1311
1708	64.1526
1704	64.1315
1700	64.1442
1696	64.2031
1692	64.252
1688	64.2317
1684	64.1978
1680	64.2104
1676	64.2388
1672	64.2284
1668	64.193
1664	64.1747
1660	64.1878
1656	64.1737
1652	64.1457
1648	64.194
1644	64.2282
1640	64.1769
1636	64.1338
1632	64.179
1628	64.2446
1624	64.2287
1620	64.2132
1616	64.2703
1612	64.2863
1608	64.2125
1604	64.1591
1600	64.1577
1596	64.1427
1592	64.1137
1588	64.1238
1584	64.1646
1580	64.1716
1576	64.1519
1572	64.1309
1568	64.0566
1564	63.9697
1560	63.9803
1556	64.0207
1552	63.9995
1548	63.9974
1544	64.132
1540	64.2826
1536	64.2289
1532	64.0804
1528	64.0395
1524	64.0994
1520	64.1829
1516	64.2739
1512	64.3454
1508	64.3306
1504	64.2113
1500	64.0865
1496	64.0774
1492	64.1112
1488	64.071
1484	64.0166
1480	64.008
1476	64.0213
1472	63.9816
1468	63.8949
1464	63.8736
1460	63.9301
1456	63.938
1452	63.9176
1448	63.8692
1444	63.7715
1440	63.7415
1436	63.7916
1432	63.8863
1428	63.9941
1424	64.038
1420	63.996
1416	63.9603
1412	63.9518
1408	63.9396
1404	63.9365
1400	63.9132
1396	63.9243
1392	63.9894
1388	64.0059
1384	63.9446
1380	63.8768
1376	63.8628
1372	63.8682
1368	63.8331
1364	63.7994
1360	63.8402
1356	63.9103
1352	63.9223
1348	63.904
1344	63.904
1340	63.9139
1336	63.922
1332	63.9126
1328	63.9128
1324	63.9136
1320	63.8878
1316	63.8533
1312	63.8261
1308	63.7992
1304	63.7829
1300	63.7863
1296	63.7705
1292	63.7404
1288	63.6792
1284	63.5995
1280	63.5751
1276	63.5856
1272	63.5893
1268	63.5496
1264	63.4755
1260	63.4511
1256	63.4752
1252	63.4908
1248	63.4849
1244	63.4464
1240	63.3944
1236	63.3899
1232	63.4651
1228	63.576
1224	63.6255
1220	63.5556
1216	63.4639
1212	63.4995
1208	63.5878
1204	63.6083
1200	63.6101
1196	63.5762
1192	63.4169
1188	63.2622
1184	63.2054
1180	63.1755
1176	63.1762
1172	63.1759
1168	63.1387
1164	63.102
1160	63.1352
1156	63.2787
1152	63.4379
1148	63.4996
1144	63.5298
1140	63.5705
1136	63.5804
1132	63.5702
1128	63.5875
1124	63.6121
1120	63.5817
1116	63.4865
1112	63.4429
1108	63.5072
1104	63.5461
1100	63.4953
1096	63.4405
1092	63.4208
1088	63.4919
1084	63.6009
1080	63.5617
1076	63.452
1072	63.4803
1068	63.5819
1064	63.64
1060	63.6506
1056	63.589
1052	63.5196
1048	63.5383
1044	63.5981
1040	63.5887
1036	63.5482
1032	63.5584
1028	63.5355
1024	63.4849
1020	63.4806
1016	63.4144
1012	63.3491
1008	63.4967
1004	63.6684
1000	63.6209
996	 63.5097
992	 63.4887
988	 63.5754
984	 63.791
980	 63.9473
976	 63.8174
972	 63.5954
968	 63.5257
964	 63.5637
960	 63.6076
956	 63.6126
952	 63.6266
948	 63.6242
944	 63.571
940	 63.5185
936	 63.5285
932	 63.5894
928	 63.6122
924	 63.553
920	 63.4381
916	 63.4468
912	 63.5523
908	 63.5221
904	 63.4294
900	 63.368
896	 63.3405
892	 63.4037
888	 63.513
884	 63.555
880	 63.4375
876	 63.3363
872	 63.478
868	 63.6317
864	 63.5188
860	 63.3508
856	 63.4381
852	 63.5898
848	 63.5574
844	 63.4876
840	 63.5378
836	 63.5967
832	 63.5792
828	 63.5797
824	 63.6458
820	 63.6358
816	 63.4735
812	 63.3916
808	 63.4808
804	 63.545
800	 63.478
796	 63.3198
792	 63.2112
788	 63.2206
784	 63.2741
780	 63.4063
776	 63.5184
772	 63.4369
768	 63.3435
764	 63.3839
760	 63.3878
756	 63.2511
752	 63.1216
748	 63.0756
744	 63.0989
740	 63.1198
736	 63.0483
732	 62.9927
728	 62.9707
724	 63.0257
720	 63.2207
716	 63.3677
712	 63.2225
708	 62.8902
704	 62.8209
700	 62.9667
696	 63.0028
692	 63.0184
688	 63.1298
684	 63.3746
680	 63.6437
676	 63.6024
672	 63.2904
668	 62.9853
664	 62.883
660	 62.9097
656	 62.8854
652	 62.8724
648	 62.9565
644	 62.98
640	 62.5816
636	 62.2901
632	 62.6959
628	 62.8774
624	 62.7825
620	 63.4114
616	 64.081
612	 64.043
608	 63.5407
604	 62.8555
600	 62.4339
596	 62.2982
592	 61.8727
588	 61.4988
584	 62.0566
580	 63.0567
576	 63.6717
572	 63.628
568	 63.2225
564	 62.9176
560	 63.1212
556	 63.6968
552	 63.784
548	 63.4567
544	 63.3504
540	 63.4124
536	 63.5172
532	 63.7282
528	 63.7777
524	 63.6784
520	 63.6137
516	 63.5257
512	 63.2245
508	 62.6488
504	 62.218
500	 62.1384
496	 62.2891
492	 62.5555
488	 62.7315
484	 62.9066
480	 63.0814
476	 62.9965
472	 62.8609
468	 63.0747
464	 63.079
460	 62.4302
456	 62.1112
452	 62.4236
448	 62.8003
444	 62.8167
440	 62.3576
436	 61.9844
432	 61.7475
428	 62.1203
424	 63.356
420	 63.5908
416	 63.179
412	 64.2862
408	 65.191
404	 64.0399
400	 61.9633
396	 59.9336
392	 58.9153
388	 60.6728
384	 66.5708
380	 71.2667
376	 68.219
372	 59.6486
370	 54.7334