File: Bakgrunnsmateriale/MATLAB/FTIR/ftir_data/subAa/Mapping_121/BZ1503107-1_t20.asc
PE IR       SPECTRUM    SPECTRUM    ASCII       PEDS        1.60
  -1
BZ2949~1.ASC
17/04/07
14:48:50.00
17/04/07
14:49:17.00
tln
$BZ1503107-1_t0020$<tbV0>[-7.8,-10.4,8.0,0.0,27,1,0]
27.028
64

2002,4.07
MIRTGS : RIGHTBACK : INTERNAL 2
MIR : ON : INTERNAL 2
OPTKBR

0.200000
8
8.000000
FILLER
RATIO
SPECTRUM
UNLOCKED 256

DOUBLE
64
COMBINED
1
0
0

0.002000
RATIO

1
0
TRUE
51149
0
LEFT NOT FITTED RIGHT NOT FITTED 0
NONE
NONE
15600
12
4.427000
51148
TRUE
1 0 8 72 0 0 0 0

15798

#HDR
-1
-1
#GR
µM
%T
2.38419e-05
0.0
2.000000
0.002000
12515
8
78.4285
26.4633
#DATA
2.000000	 61.0909
2.018000	 60.2618
2.036000	 60.5644
2.054000	 59.8592
2.072000	 60.6581
2.090000	 60.5946
2.108000	 60.1668
2.126000	 59.5286
2.144000	 60.1238
2.162000	 60.1178
2.180000	 60.9119
2.198000	 60.5534
2.216000	 60.9415
2.234000	 64.0582
2.252000	 48.7377
2.270000	 62.0222
2.288000	 61.2577
2.306000	 61.2836
2.324000	 61.2906
2.342000	 60.7258
2.360000	 60.8403
2.378000	 60.6804
2.396000	 60.7969
2.414000	 60.7471
2.432000	 60.9806
2.450000	 61.045
2.468000	 60.9518
2.486000	 60.9759
2.504000	 60.7289
2.522000	 61.0123
2.540000	 61.1853
2.558000	 60.8789
2.576000	 61.265
2.594000	 61.3552
2.612000	 61.3397
2.630000	 61.01
2.648000	 61.0596
2.666000	 61.4811
2.684000	 61.2677
2.702000	 61.3358
2.720000	 61.5018
2.738000	 61.3019
2.756000	 61.457
2.774000	 61.3397
2.792000	 61.3321
2.810000	 61.349
2.828000	 61.4626
2.846000	 61.2559
2.864000	 61.3187
2.882000	 61.4724
2.900000	 61.456
2.918000	 61.5855
2.936000	 61.4679
2.954000	 61.4501
2.972000	 61.4577
2.990000	 61.4025
3.008000	 61.5117
3.026000	 61.3846
3.044000	 61.5587
3.062000	 61.4684
3.080000	 61.4661
3.098000	 61.4788
3.116000	 61.6462
3.134000	 61.5511
3.152000	 61.6491
3.170000	 61.7043
3.188000	 61.4
3.206000	 61.5675
3.224000	 61.736
3.242000	 61.6213
3.260000	 61.7268
3.278000	 61.5435
3.296000	 61.5623
3.314000	 61.8087
3.332000	 61.671
3.350000	 61.6402
3.368000	 61.6405
3.386000	 61.5658
3.404000	 61.6584
3.422000	 61.6446
3.440000	 61.6829
3.458000	 61.6003
3.476000	 61.7559
3.494000	 61.7213
3.512000	 61.9103
3.530000	 61.8951
3.548000	 61.8282
3.566000	 61.894
3.584000	 61.8275
3.602000	 61.9571
3.620000	 61.8944
3.638000	 61.8638
3.656000	 61.9913
3.674000	 61.9058
3.692000	 61.9375
3.710000	 62.0145
3.728000	 61.9901
3.746000	 61.9292
3.764000	 62.0142
3.782000	 61.9839
3.800000	 61.9246
3.818000	 62.0796
3.836000	 61.937
3.854000	 62.0558
3.872000	 62.0358
3.890000	 62.1008
3.908000	 62.1423
3.926000	 62.0223
3.944000	 62.0605
3.962000	 62.207
3.980000	 62.0738
3.998000	 61.9453
4.016000	 62.1436
4.034000	 62.1175
4.052000	 62.0751
4.070000	 62.0207
4.088000	 62.0271
4.106000	 62.1261
4.124000	 62.1273
4.141999	 62.2399
4.160000	 62.1047
4.178000	 62.0919
4.196000	 62.0997
4.214000	 62.1877
4.232000	 62.2274
4.250000	 62.1959
4.268000	 62.2119
4.286000	 62.1851
4.304000	 62.1275
4.322000	 62.1648
4.340000	 62.2508
4.358000	 62.2091
4.375999	 62.2597
4.394000	 62.1379
4.412000	 62.2831
4.430000	 62.2392
4.448000	 62.2192
4.466000	 62.2023
4.484000	 62.2161
4.502000	 62.2505
4.520000	 62.269
4.538000	 62.3376
4.556000	 62.2635
4.574000	 62.2571
4.592000	 62.3129
4.609999	 62.3658
4.628000	 62.2213
4.646000	 62.2036
4.664000	 62.461
4.682000	 62.2571
4.700000	 62.2919
4.718000	 62.4165
4.736000	 62.3871
4.754000	 62.3282
4.772000	 62.2836
4.790000	 62.4604
4.808000	 62.4739
4.826000	 62.4203
4.843999	 62.2627
4.862000	 62.4045
4.880000	 62.4845
4.898000	 62.4605
4.916000	 62.3441
4.934000	 62.4045
4.952000	 62.4196
4.970000	 62.3825
4.988000	 62.5183
5.006000	 62.3734
5.024000	 62.3886
5.042000	 62.4366
5.060000	 62.5385
5.077999	 62.6618
5.096000	 62.5218
5.114000	 62.4974
5.132000	 62.5188
5.150000	 62.4461
5.168000	 62.4216
5.186000	 62.463
5.204000	 62.4791
5.222000	 62.597
5.240000	 62.5291
5.258000	 62.4249
5.276000	 62.4537
5.294000	 62.5392
5.312000	 62.5317
5.330000	 62.5953
5.348000	 62.7182
5.366000	 62.559
5.384000	 62.5303
5.402000	 62.5895
5.420000	 62.6072
5.438000	 62.5965
5.456000	 62.6409
5.474000	 62.5956
5.492000	 62.53
5.510000	 62.5396
5.528000	 62.4512
5.546000	 62.5634
5.564000	 62.6453
5.582000	 62.656
5.600000	 62.596
5.618000	 62.5611
5.636000	 62.6596
5.654000	 62.6772
5.672000	 62.5689
5.690000	 62.579
5.708000	 62.5923
5.726000	 62.4149
5.744000	 62.2568
5.762000	 62.2547
5.780000	 62.1702
5.798000	 62.2872
5.816000	 62.5382
5.834000	 62.5672
5.852000	 62.5655
5.870000	 62.7368
5.888000	 62.9602
5.906000	 62.8396
5.923999	 62.7816
5.942000	 62.8388
5.960000	 62.7089
5.978000	 62.6875
5.996000	 62.7698
6.014000	 62.6775
6.032000	 62.6072
6.050000	 62.6385
6.068000	 62.6292
6.086000	 62.6509
6.104000	 62.6631
6.122000	 62.689
6.140000	 62.6954
6.158000	 62.6985
6.176000	 62.6713
6.194000	 62.6289
6.212000	 62.6407
6.230000	 62.6901
6.248000	 62.6634
6.266000	 62.6526
6.284000	 62.7226
6.302000	 62.7607
6.320000	 62.8137
6.338000	 62.8886
6.356000	 62.8609
6.374000	 62.7973
6.392000	 62.8187
6.410000	 62.9211
6.428000	 62.8145
6.446000	 62.6245
6.464000	 62.6549
6.482000	 62.7816
6.500000	 62.8034
6.518000	 62.7389
6.536000	 62.6941
6.554000	 62.7196
6.572000	 62.7841
6.590000	 62.7831
6.608000	 62.8109
6.626000	 62.9464
6.644000	 62.9559
6.662000	 62.8268
6.680000	 62.7756
6.698000	 62.7681
6.716000	 62.7287
6.734000	 62.7303
6.752000	 62.7912
6.770000	 62.8874
6.788000	 62.9507
6.806000	 62.8931
6.824000	 62.7723
6.842000	 62.7547
6.860000	 62.8018
6.878000	 62.7116
6.896000	 62.5848
6.914000	 62.5663
6.932000	 62.5864
6.950000	 62.673
6.968000	 62.7785
6.986000	 62.7897
7.004000	 62.7638
7.022000	 62.7736
7.040000	 62.805
7.058000	 62.834
7.076000	 62.8366
7.094000	 62.7941
7.112000	 62.732
7.130000	 62.6968
7.148000	 62.7173
7.166000	 62.7859
7.184000	 62.8464
7.202000	 62.8457
7.220000	 62.7973
7.238000	 62.7574
7.256000	 62.7533
7.274000	 62.7565
7.292000	 62.7738
7.310000	 62.8576
7.328000	 62.9557
7.346000	 62.9728
7.364000	 62.9512
7.382000	 62.9581
7.400000	 62.9667
7.418000	 62.959
7.436000	 62.9486
7.454000	 62.8892
7.472000	 62.7648
7.490000	 62.6845
7.508000	 62.7152
7.526000	 62.7825
7.544000	 62.8136
7.562000	 62.8064
7.580000	 62.7764
7.598000	 62.752
7.616000	 62.7583
7.634000	 62.766
7.652000	 62.7408
7.670000	 62.7098
7.688000	 62.7186
7.706000	 62.7652
7.724000	 62.8074
7.742000	 62.8159
7.760000	 62.802
7.778000	 62.7937
7.796000	 62.8024
7.814000	 62.8176
7.832000	 62.824
7.850000	 62.8132
7.868000	 62.7895
7.886000	 62.7721
7.904000	 62.7754
7.922000	 62.787
7.940000	 62.786
7.958000	 62.7798
7.976000	 62.7823
7.994000	 62.7781
8.012000	 62.7523
8.030000	 62.7344
8.048000	 62.7598
8.065999	 62.8078
8.084000	 62.8234
8.102000	 62.7965
8.120000	 62.7796
8.138000	 62.809
8.155999	 62.8484
8.173999	 62.8494
8.192000	 62.8323
8.210000	 62.8469
8.228000	 62.8844
8.246000	 62.8958
8.263999	 62.8722
8.282000	 62.845
8.300000	 62.8351
8.318000	 62.8426
8.336000	 62.8567
8.353999	 62.8637
8.372000	 62.8625
8.390000	 62.8729
8.408000	 62.9044
8.426000	 62.9284
8.443999	 62.9092
8.462000	 62.8502
8.480000	 62.7905
8.498000	 62.7652
8.516000	 62.7777
8.533999	 62.8031
8.552000	 62.813
8.570000	 62.7997
8.588000	 62.7797
8.606000	 62.7754
8.624000	 62.789
8.641999	 62.8032
8.660000	 62.8067
8.678000	 62.8026
8.696000	 62.7907
8.714000	 62.771
8.731999	 62.7713
8.750000	 62.8392
8.768000	 62.9826
8.786000	 63.1391
8.804000	 63.2309
8.821999	 63.2413
8.840000	 63.2102
8.858000	 63.1747
8.876000	 63.1368
8.894000	 63.0868
8.911999	 63.0319
8.930000	 62.9911
8.948000	 62.9714
8.966000	 62.9611
8.984000	 62.946
9.001999	 62.9281
9.020000	 62.9293
9.038000	 62.967
9.056000	 63.0276
9.074000	 63.0662
9.092000	 63.0474
9.109999	 62.9865
9.128000	 62.9398
9.146000	 62.9473
9.164000	 62.9969
9.182000	 63.0526
9.199999	 63.099
9.218000	 63.1406
9.236000	 63.1728
9.254000	 63.176
9.272000	 63.1397
9.289999	 63.082
9.308000	 63.0308
9.326000	 62.9949
9.344000	 62.9656
9.362000	 62.9376
9.379999	 62.9195
9.398000	 62.9212
9.416000	 62.9416
9.434000	 62.9678
9.452000	 62.9829
9.469999	 62.9762
9.488000	 62.9485
9.506000	 62.9122
9.524000	 62.8854
9.542000	 62.8789
9.560000	 62.8877
9.577999	 62.899
9.596000	 62.9069
9.614000	 62.9174
9.632000	 62.9401
9.650000	 62.9793
9.667999	 63.0311
9.686000	 63.081
9.704000	 63.1079
9.722000	 63.0945
9.740000	 63.0436
9.757999	 62.9852
9.776000	 62.9634
9.794000	 63.004
9.812000	 63.0904
9.830000	 63.1722
9.847999	 63.2018
9.866000	 63.1656
9.884000	 63.0886
9.902000	 63.014
9.920000	 62.9764
9.937999	 62.9863
9.956000	 63.0312
9.974000	 63.0865
9.992000	 63.129
10.01	63.1464
10.028	63.1441
10.046	63.1403
10.064	63.1513
10.082	63.18
10.1	63.2151
10.118	63.2411
10.136	63.252
10.154	63.2527
10.172	63.2505
10.19	63.2465
10.208	63.2329
10.226	63.2004
10.244	63.1483
10.262	63.0875
10.28	63.0332
10.298	62.9979
10.316	62.9865
10.334	62.9971
10.352	63.0253
10.37	63.0647
10.388	63.1062
10.406	63.1391
10.424	63.1561
10.442	63.1607
10.46	63.1667
10.478	63.1927
10.496	63.2482
10.514	63.3255
10.532	63.4005
10.55	63.4456
10.568	63.4443
10.586	63.4006
10.604	63.3358
10.622	63.2777
10.64	63.2449
10.658	63.2406
10.676	63.2529
10.694	63.2655
10.712	63.2658
10.73	63.2525
10.748	63.2319
10.766	63.2131
10.784	63.2016
10.802	63.1974
10.82	63.1968
10.838	63.1958
10.856	63.1934
10.874	63.1905
10.892	63.1886
10.91	63.188
10.928	63.1873
10.946	63.1846
10.964	63.1792
10.982	63.1717
11	63.1625
11.018	63.1516
11.036	63.139
11.054	63.1255
11.072	63.115
11.09	63.114
11.108	63.1288
11.126	63.1616
11.144	63.2074
11.162	63.2537
11.18	63.2864
11.198	63.2946
11.216	63.2759
11.234	63.2371
11.252	63.1913
11.27	63.1507
11.288	63.1242
11.306	63.1135
11.324	63.1154
11.342	63.125
11.36	63.1381
11.378	63.1535
11.396	63.1723
11.414	63.1958
11.432	63.2242
11.45	63.2559
11.468	63.2879
11.486	63.3168
11.504	63.3399
11.522	63.3545
11.54	63.3594
11.558	63.3537
11.576	63.3397
11.594	63.3228
11.612	63.3104
11.63	63.3094
11.648	63.3226
11.666	63.3472
11.684	63.3737
11.702	63.3906
11.72	63.3885
11.738	63.3651
11.756	63.3265
11.774	63.2855
11.792	63.2564
11.81	63.2489
11.828	63.2646
11.846	63.2968
11.864	63.3328
11.882	63.3592
11.9	63.3647
11.918	63.3435
11.936	63.2959
11.954	63.2272
11.972	63.1468
11.99	63.0658
12.008	62.9952
12.026	62.9446
12.044	62.9206
12.062	62.9244
12.08	62.9519
12.098	62.9948
12.116	63.0427
12.134	63.0864
12.152	63.1199
12.17	63.1419
12.188	63.1544
12.206	63.1619
12.224	63.1688
12.242	63.1781
12.26	63.1918
12.278	63.2103
12.296	63.2324
12.314	63.2564
12.332	63.279
12.35	63.2961
12.368	63.3032
12.386	63.2962
12.404	63.2733
12.422	63.2367
12.44	63.193
12.458	63.1509
12.476	63.12
12.494	63.1071
12.512	63.1142
12.53	63.1377
12.548	63.1696
12.566	63.2003
12.584	63.2217
12.602	63.2301
12.62	63.2267
12.638	63.2169
12.656	63.2084
12.674	63.208
12.692	63.2192
12.71	63.242
12.728	63.2731
12.746	63.3071
12.764	63.3385
12.782	63.3634
12.8	63.3795
12.818	63.3866
12.836	63.3863
12.854	63.3807
12.872	63.3721
12.89	63.3627
12.908	63.354
12.926	63.347
12.944	63.3424
12.962	63.3408
12.98	63.3418
12.998	63.3446
13.016	63.3473
13.034	63.3471
13.052	63.341
13.07	63.3263
13.088	63.3015
13.106	63.267
13.124	63.2247
13.142	63.1784
13.16	63.1319
13.178	63.0889
13.196	63.0517
13.214	63.0219
13.232	62.9994
13.25	62.9843
13.268	62.9759
13.286	62.9745
13.304	62.9801
13.322	62.993
13.34	63.0125
13.358	63.0371
13.376	63.0642
13.394	63.0903
13.412	63.112
13.43	63.1258
13.448	63.1297
13.466	63.1234
13.484	63.1085
13.502	63.0883
13.52	63.0669
13.538	63.0489
13.556	63.0384
13.574	63.038
13.592	63.049
13.61	63.071
13.628	63.102
13.646	63.1387
13.664	63.1769
13.682	63.2124
13.7	63.2411
13.718	63.2595
13.736	63.2656
13.754	63.2584
13.772	63.2385
13.79	63.2078
13.808	63.1693
13.826	63.127
13.844	63.0851
13.862	63.0487
13.88	63.0223
13.898	63.0094
13.916	63.0122
13.934	63.0307
13.952	63.0628
13.97	63.1046
13.988	63.1508
14.006	63.1961
14.024	63.2356
14.042	63.2661
14.06	63.2859
14.078	63.2958
14.096	63.2977
14.114	63.2944
14.132	63.2889
14.15	63.2836
14.168	63.2796
14.186	63.2769
14.204	63.2749
14.222	63.2718
14.24	63.2666
14.258	63.258
14.276	63.2457
14.294	63.2296
14.312	63.2097
14.33	63.186
14.348	63.1586
14.366	63.1268
14.384	63.0911
14.402	63.0525
14.42	63.0132
14.438	62.9765
14.456	62.9464
14.474	62.9269
14.492	62.9213
14.51	62.9313
14.528	62.9558
14.546	62.9914
14.564	63.0331
14.582	63.0748
14.6	63.1102
14.618	63.1339
14.636	63.1425
14.654	63.1363
14.672	63.1177
14.69	63.0916
14.708	63.0638
14.726	63.0409
14.744	63.0287
14.762	63.0308
14.78	63.0481
14.798	63.0797
14.816	63.1222
14.834	63.1706
14.852	63.2194
14.87	63.2638
14.888	63.2998
14.906	63.3247
14.924	63.3372
14.942	63.3375
14.96	63.3272
14.978	63.3082
14.996	63.2824
15.014	63.2516
15.032	63.2173
15.05	63.1799
15.068	63.1394
15.086	63.0952
15.104	63.0469
15.122	62.9941
15.14	62.937
15.158	62.8765
15.176	62.8138
15.194	62.751
15.212	62.6915
15.23	62.6385
15.248	62.595
15.266	62.5642
15.284	62.5487
15.302	62.5501
15.32	62.5688
15.338	62.6045
15.356	62.6559
15.374	62.72
15.392	62.794
15.41	62.8747
15.428	62.9589
15.446	63.0433
15.464	63.126
15.482	63.2053
15.5	63.2796
15.518	63.3481
15.536	63.41
15.554	63.4648
15.572	63.5119
15.59	63.5506
15.608	63.5801
15.626	63.5995
15.644	63.6084
15.662	63.6067
15.68	63.5956
15.698	63.5763
15.716	63.5518
15.734	63.5261
15.752	63.5028
15.77	63.4858
15.788	63.4798
15.806	63.4877
15.824	63.5114
15.842	63.5522
15.86	63.6092
15.878	63.6802
15.896	63.7629
15.914	63.8521
15.932	63.9435
15.95	64.0334
15.968	64.1172
15.986	64.1897
16.004	64.2482
16.022	64.2897
16.04	64.3116
16.058	64.3139
16.076	64.2968
16.094	64.2616
16.112	64.2119
16.13	64.1511
16.148	64.0839
16.166	64.0169
16.184	63.9553
16.202	63.9052
16.22	63.8731
16.238	63.8621
16.256	63.8754
16.274	63.9138
16.292	63.9749
16.31	64.0567
16.328	64.1519
16.346	64.2534
16.364	64.3552
16.382	64.4465
16.4	64.5209
16.418	64.5735
16.436	64.598
16.454	64.5938
16.472	64.5603
16.49	64.5002
16.508	64.4195
16.526	64.3223
16.544	64.2179
16.562	64.1135
16.58	64.0147
16.598	63.9311
16.616	63.8675
16.634	63.8282
16.652	63.8181
16.67	63.8373
16.688	63.8868
16.706	63.9648
16.724	64.069
16.742	64.1959
16.76	64.3388
16.778	64.4938
16.796	64.6533
16.814	64.8095
16.832	64.9579
16.85	65.0897
16.868	65.2005
16.886	65.2859
16.904	65.3417
16.922	65.3677
16.94	65.3627
16.958	65.3299
16.976	65.2718
16.994	65.1949
17.012	65.1057
17.03	65.0085
17.048	64.9129
17.066	64.8223
17.084	64.7421
17.102	64.6755
17.12	64.6237
17.138	64.5861
17.156	64.5599
17.174	64.5433
17.192	64.529
17.21	64.5141
17.228	64.4915
17.246	64.4572
17.264	64.4077
17.282	64.3396
17.3	64.253
17.318	64.1473
17.336	64.0259
17.354	63.8902
17.372	63.7464
17.39	63.597
17.408	63.4483
17.426	63.3042
17.444	63.1676
17.462	63.0431
17.48	62.9316
17.498	62.8352
17.516	62.754
17.534	62.6886
17.552	62.6379
17.57	62.6015
17.588	62.5791
17.606	62.5709
17.624	62.5767
17.642	62.5983
17.66	62.6364
17.678	62.6929
17.696	62.7681
17.714	62.864
17.732	62.9801
17.75	63.1172
17.768	63.2724
17.786	63.445
17.804	63.6286
17.822	63.821
17.84	64.0135
17.858	64.2009
17.876	64.3764
17.894	64.5313
17.912	64.662
17.93	64.7601
17.948	64.8245
17.966	64.8503
17.984	64.8386
18.002	64.7889
18.02	64.7061
18.038	64.5923
18.056	64.4574
18.074	64.3038
18.092	64.1451
18.11	63.9834
18.128	63.8318
18.146	63.6924
18.164	63.5752
18.182	63.4818
18.2	63.4171
18.218	63.3805
18.236	63.3733
18.254	63.3902
18.272	63.4308
18.29	63.486
18.308	63.5548
18.326	63.6261
18.344	63.6985
18.362	63.7617
18.38	63.8144
18.398	63.8494
18.416	63.8661
18.434	63.8607
18.452	63.8346
18.47	63.7873
18.488	63.7226
18.506	63.6408
18.524	63.5489
18.542	63.448
18.56	63.3455
18.578	63.2421
18.596	63.1455
18.614	63.056
18.632	62.9792
18.65	62.9151
18.668	62.8668
18.686	62.834
18.704	62.8173
18.722	62.8159
18.74	62.8285
18.758	62.8541
18.776	62.8905
18.794	62.9366
18.812	62.9894
18.83	63.0481
18.848	63.1098
18.866	63.1735
18.884	63.2371
18.902	63.2997
18.92	63.3597
18.938	63.4166
18.956	63.469
18.974	63.5167
18.992	63.5586
19.01	63.595
19.028	63.6256
19.046	63.651
19.064	63.6717
19.082	63.6886
19.1	63.7033
19.118	63.7166
19.136	63.7307
19.154	63.7461
19.172	63.7655
19.19	63.7887
19.208	63.8176
19.226	63.8517
19.244	63.8922
19.262	63.9383
19.28	63.9888
19.298	64.0432
19.316	64.0982
19.334	64.1537
19.352	64.2043
19.37	64.2502
19.388	64.2858
19.406	64.3114
19.424	64.3224
19.442	64.3187
19.46	64.2981
19.478	64.2598
19.496	64.2051
19.514	64.1331
19.532	64.0473
19.55	63.9483
19.568	63.8399
19.586	63.7256
19.604	63.6077
19.622	63.4922
19.64	63.3796
19.658	63.2771
19.676	63.1841
19.694	63.1068
19.712	63.0447
19.73	63.0006
19.748	62.9749
19.766	62.9668
19.784	62.9767
19.802	63.0017
19.82	63.0407
19.838	63.0912
19.856	63.1492
19.874	63.2142
19.892	63.2802
19.91	63.3478
19.928	63.4111
19.946	63.4707
19.964	63.5232
19.982	63.5677
20	63.6039
20.018	63.6303
20.036	63.6482
20.054	63.6578
20.072	63.6597
20.09	63.6563
20.108	63.6475
20.126	63.6363
20.144	63.6228
20.162	63.6089
20.18	63.5956
20.198	63.5832
20.216	63.573
20.234	63.5647
20.252	63.5583
20.27	63.5538
20.288	63.5501
20.306	63.5472
20.324	63.5438
20.342	63.5391
20.36	63.5329
20.378	63.5238
20.396	63.5122
20.414	63.4978
20.432	63.4803
20.45	63.4608
20.468	63.4393
20.486	63.417
20.504	63.3959
20.522	63.3755
20.54	63.3594
20.558	63.3471
20.576	63.3412
20.594	63.343
20.612	63.3526
20.63	63.372
20.648	63.4008
20.666	63.4393
20.684	63.488
20.702	63.5455
20.72	63.6114
20.738	63.6849
20.756	63.7632
20.774	63.847
20.792	63.9323
20.81	64.0188
20.828	64.1048
20.846	64.1869
20.864	64.266
20.882	64.3383
20.9	64.4043
20.918	64.4626
20.936	64.5118
20.954	64.5525
20.972	64.5842
20.99	64.6068
21.008	64.6212
21.026	64.6274
21.044	64.626
21.062	64.6183
21.08	64.6041
21.098	64.5849
21.116	64.561
21.134	64.533
21.152	64.5019
21.17	64.4675
21.188	64.4306
21.206	64.3914
21.224	64.3497
21.242	64.3058
21.26	64.2597
21.278	64.2114
21.296	64.1608
21.314	64.1081
21.332	64.0534
21.35	63.9967
21.368	63.9387
21.386	63.8794
21.404	63.8193
21.422	63.7597
21.44	63.6999
21.458	63.642
21.476	63.5865
21.494	63.5335
21.512	63.4852
21.53	63.4411
21.548	63.4023
21.566	63.3696
21.584	63.3426
21.602	63.3219
21.62	63.3078
21.638	63.2996
21.656	63.2969
21.674	63.2999
21.692	63.307
21.71	63.3182
21.728	63.3329
21.746	63.3489
21.764	63.3668
21.782	63.3851
21.8	63.4025
21.818	63.4195
21.836	63.4344
21.854	63.447
21.872	63.4573
21.89	63.4647
21.908	63.4692
21.926	63.4713
21.944	63.4709
21.962	63.4682
21.98	63.4642
21.998	63.4589
22.016	63.4528
22.034	63.4469
22.052	63.4409
22.07	63.4356
22.088	63.4316
22.106	63.4287
22.124	63.427
22.142	63.4269
22.16	63.428
22.178	63.4299
22.196	63.433
22.214	63.4365
22.232	63.4395
22.25	63.4424
22.268	63.4443
22.286	63.4446
22.304	63.4436
22.322	63.4406
22.34	63.4353
22.358	63.4281
22.376	63.4191
22.394	63.408
22.412	63.3954
22.43	63.3824
22.448	63.3683
22.466	63.3544
22.484	63.3419
22.502	63.33
22.52	63.3206
22.538	63.3143
22.556	63.3106
22.574	63.3114
22.592	63.3168
22.61	63.3267
22.628	63.3423
22.646	63.3636
22.664	63.3905
22.682	63.4233
22.7	63.4621
22.718	63.5065
22.736	63.556
22.754	63.6109
22.772	63.6704
22.79	63.7342
22.808	63.8024
22.826	63.8741
22.844	63.9485
22.862	64.0263
22.88	64.1059
22.898	64.1868
22.916	64.2694
22.934	64.352
22.952	64.4342
22.97	64.5163
22.988	64.597
23.006	64.6762
23.024	64.7539
23.042	64.8287
23.06	64.9008
23.078	64.9699
23.096	65.0341
23.114	65.0935
23.132	65.1478
23.15	65.1953
23.168	65.2357
23.186	65.2694
23.204	65.2953
23.222	65.3134
23.24	65.324
23.258	65.3266
23.276	65.3213
23.294	65.3082
23.312	65.2876
23.33	65.2593
23.348	65.2236
23.366	65.1818
23.384	65.1333
23.402	65.0788
23.42	65.0207
23.438	64.9585
23.456	64.8927
23.474	64.8259
23.492	64.7581
23.51	64.6891
23.528	64.6217
23.546	64.5563
23.564	64.4925
23.582	64.4323
23.6	64.3765
23.618	64.3243
23.636	64.2768
23.654	64.2342
23.672	64.1963
23.69	64.1636
23.708	64.1365
23.726	64.1146
23.744	64.0986
23.762	64.0891
23.78	64.0856
23.798	64.0885
23.816	64.0978
23.834	64.1136
23.852	64.1356
23.87	64.1635
23.888	64.1971
23.906	64.2366
23.924	64.2824
23.942	64.3344
23.96	64.3925
23.978	64.4577
23.996	64.5303
24.014	64.61
24.032	64.6966
24.05	64.7899
24.068	64.8903
24.086	64.9966
24.104	65.1078
24.122	65.225
24.14	65.3465
24.158	65.4699
24.176	65.5964
24.194	65.7252
24.212	65.8535
24.23	65.9815
24.248	66.1096
24.266	66.2344
24.284	66.3539
24.302	66.4699
24.32	66.5807
24.338	66.6844
24.356	66.7815
24.374	66.8724
24.392	66.9571
24.41	67.0343
24.428	67.1054
24.446	67.1735
24.464	67.2394
24.482	67.3016
24.5	67.3641
24.518	67.4302
24.536	67.4963
24.554	67.5667
24.572	67.6477
24.59	67.7364
24.608	67.8342
24.626	67.9483
24.644	68.0819
24.662	68.2311
24.68	68.4009
24.698	68.5965
24.716	68.8155
24.734	69.0584
24.752	69.3273
24.77	69.6238
24.788	69.9464
24.806	70.2923
24.824	70.6605
24.842	71.0539
24.86	71.4667
24.878	71.8922
24.896	72.3351
24.914	72.7923
24.932	73.253
24.95	73.7119
24.968	74.1764
24.986	74.6364
25.004	75.0816
25.022	75.5188
25.04	75.9439
25.058	76.3447
25.076	76.7163
25.094	77.0664
25.112	77.3847
25.13	77.6609
25.148	77.9006
25.166	78.1018
25.184	78.2564
25.202	78.36
25.22	78.417
25.238	78.4261
25.256	78.3853
25.274	78.2953
25.292	78.1565
25.31	77.9685
25.328	77.7309
25.346	77.4441
25.364	77.1086
25.382	76.7249
25.4	76.2912
25.418	75.8092
25.436	75.283
25.454	74.7153
25.472	74.1009
25.49	73.4469
25.508	72.762
25.526	72.0475
25.544	71.2994
25.562	70.5253
25.58	69.7324
25.598	68.9155
25.616	68.0774
25.634	67.2255
25.652	66.3634
25.67	65.4836
25.688	64.5963
25.706	63.7128
25.724	62.8321
25.742	61.9503
25.76	61.0786
25.778	60.2266
25.796	59.3793
25.814	58.5484
25.832	57.7581
25.85	57.0229
25.868	56.3217
25.886	55.6737
25.904	55.1033
25.922	54.6267
25.94	54.2312
25.958	53.9008
25.976	53.6204
25.994	53.4053
26.012	53.2491
26.03	53.1212
26.048	52.9957
26.066	52.8956
26.084	52.8091
26.102	52.7099
26.12	52.5814
26.138	52.444
26.156	52.2839
26.174	52.0822
26.192	51.818
26.21	51.4964
26.228	51.1528
26.246	50.8227
26.264	50.5005
26.282	50.1727
26.3	49.8732
26.318	49.6352
26.336	49.4586
26.354	49.3299
26.372	49.248
26.39	49.2127
26.408	49.2358
26.426	49.3052
26.444	49.3999
26.462	49.5114
26.48	49.7089
26.498	49.9146
26.516	50.0151
26.534	49.9269
26.552	49.7362
26.57	49.4057
26.588	48.8689
26.606	48.069
26.624	47.0259
26.642	45.7808
26.66	44.3725
26.678	42.8033
26.696	41.0111
26.714	39.0946
26.732	37.1658
26.75	35.2357
26.768	33.1572
26.786	31.1533
26.804	29.4723
26.822	28.2307
26.84	27.2338
26.858	26.6049
26.876	26.492
26.894	27.0002
26.912	28.0546
26.93	29.5993
26.948	31.5844
26.966	34.1995
26.984	37.8008
27.002	41.5536
27.02	44.5479
27.028	45.3156