File: Bakgrunnsmateriale/MATLAB/FTIR/ftir_data/subAa/Mapping_121/BZ1503107-1_t65_cm-1.asc
PE IR       SPECTRUM    SPECTRUM    ASCII       PEDS        1.60
  -1
BZ6D21~1.ASC
17/04/07
18:32:04.00
17/04/07
18:32:04.00
tln
$BZ1503107-1_t0065$<tbV0>[-10.4,0.0,8.0,0.0,27,1,0]
370
64

2002,4.07
MIRTGS : RIGHTBACK : INTERNAL 2
MIR : ON : INTERNAL 2
OPTKBR

0.200000
8
8.000000
FILLER
RATIO
SPECTRUM
UNLOCKED 256

DOUBLE
64
COMBINED
1
0
0

1.000000
RATIO

1
0
TRUE
51149
0
LEFT NOT FITTED RIGHT NOT FITTED 0
NONE
NONE
15600
12
4.427000
51148
TRUE
1 0 8 72 0 0 0 0

15798

#HDR
-1
-1
#GR
CM-1
%T
2.38419e-05
0.0
5000
-1.000000
4631
8
69.3231
37.853
#DATA
5000	64.3493
4996	64.2534
4992	64.7105
4988	65.2773
4984	65.7962
4980	65.9149
4976	65.5569
4972	65.2139
4968	65.04
4964	64.9618
4960	64.8058
4956	64.5911
4952	64.6917
4948	64.9992
4944	65.117
4940	64.9969
4936	64.8105
4932	64.6533
4928	64.4713
4924	64.4629
4920	64.68
4916	64.8098
4912	64.835
4908	64.7609
4904	64.8207
4900	64.9782
4896	64.8223
4892	64.5522
4888	64.5618
4884	64.7631
4880	64.7661
4876	64.6423
4872	64.6006
4868	64.466
4864	64.2759
4860	64.1507
4856	64.2043
4852	64.4426
4848	64.5617
4844	64.5805
4840	64.4673
4836	64.2735
4832	64.3418
4828	64.3902
4824	64.2688
4820	64.3981
4816	64.558
4812	64.5161
4808	64.5303
4804	64.5974
4800	64.7195
4796	64.8423
4792	64.7251
4788	64.4984
4784	64.5317
4780	64.7722
4776	64.9239
4772	64.9952
4768	65.0661
4764	65.0366
4760	64.9535
4756	64.9291
4752	64.8815
4748	64.8123
4744	64.766
4740	64.7029
4736	64.7744
4732	64.9827
4728	65.1318
4724	65.157
4720	65.0859
4716	64.9715
4712	64.807
4708	64.7619
4704	64.8389
4700	64.9114
4696	65.0912
4692	65.2804
4688	65.153
4684	64.8555
4680	64.9168
4676	65.0701
4672	65.0628
4668	65.1303
4664	65.0745
4660	64.9322
4656	64.9524
4652	64.9783
4648	64.9313
4644	64.968
4640	65.104
4636	65.1661
4632	65.235
4628	65.397
4624	65.3344
4620	65.0724
4616	64.846
4612	64.7407
4608	64.8889
4604	65.1386
4600	65.1355
4596	64.932
4592	64.9131
4588	65.0989
4584	65.1329
4580	65.0184
4576	65.0381
4572	64.9797
4568	64.7728
4564	64.8004
4560	64.9835
4556	65.0497
4552	64.9737
4548	64.8209
4544	64.824
4540	64.9852
4536	65.0742
4532	65.1736
4528	65.4464
4524	65.6867
4520	65.554
4516	65.2034
4512	65.0837
4508	65.1328
4504	65.0681
4500	65.0869
4496	65.1909
4492	65.2477
4488	65.3547
4484	65.357
4480	65.0026
4476	64.7582
4472	64.9217
4468	64.9149
4464	64.6949
4460	65.0107
4456	65.7377
4452	65.9461
4448	65.4103
4444	64.3462
4440	64.066
4436	65.4517
4432	63.3947
4428	56.6815
4424	54.1733
4420	58.4654
4416	64.7545
4412	68.7908
4408	69.0069
4404	67.4298
4400	66.3775
4396	65.9536
4392	65.6243
4388	64.9851
4384	64.5271
4380	64.534
4376	64.7146
4372	64.9784
4368	65.4338
4364	65.7075
4360	65.7194
4356	65.7843
4352	65.5823
4348	65.1778
4344	64.9383
4340	64.78
4336	64.8955
4332	65.2695
4328	65.4635
4324	65.3437
4320	65.0902
4316	64.9523
4312	64.991
4308	65.0729
4304	65.0666
4300	65.0538
4296	64.9779
4292	64.8168
4288	64.7669
4284	64.8302
4280	64.9087
4276	64.9351
4272	65.0133
4268	65.1281
4264	65.2062
4260	65.2674
4256	65.173
4252	64.9615
4248	64.8656
4244	64.9549
4240	65.0664
4236	65.0605
4232	65.0372
4228	64.9629
4224	64.91
4220	65.031
4216	65.0699
4212	65.0903
4208	65.1867
4204	65.1787
4200	65.136
4196	65.137
4192	65.2291
4188	65.2594
4184	65.0624
4180	64.7828
4176	64.5491
4172	64.5256
4168	64.7225
4164	64.8071
4160	64.6914
4156	64.6909
4152	64.814
4148	64.8264
4144	64.8404
4140	64.9096
4136	64.9141
4132	64.9078
4128	64.9462
4124	65.0233
4120	65.0713
4116	65.0246
4112	64.9941
4108	65.0249
4104	65.0339
4100	64.9874
4096	64.8701
4092	64.8156
4088	64.8513
4084	64.8894
4080	64.9815
4076	65.0095
4072	64.9373
4068	64.8883
4064	64.8496
4060	64.8404
4056	64.8306
4052	64.8284
4048	64.8804
4044	64.8386
4040	64.8223
4036	64.9772
4032	65.0366
4028	64.9261
4024	64.8431
4020	64.8081
4016	64.6909
4012	64.6398
4008	64.8036
4004	64.9577
4000	65.0139
3996	65.0598
3992	65.1206
3988	65.1961
3984	65.1913
3980	65.091
3976	65.0686
3972	65.0928
3968	65.0471
3964	65.0313
3960	65.0017
3956	64.8973
3952	64.8426
3948	64.8883
3944	64.9495
3940	64.9181
3936	64.9431
3932	65.1741
3928	65.3835
3924	65.433
3920	65.4068
3916	65.2971
3912	65.1944
3908	65.1383
3904	65.0527
3900	65.0121
3896	65.0455
3892	65.1171
3888	65.1658
3884	65.1911
3880	65.2522
3876	65.2559
3872	65.2329
3868	65.275
3864	65.3615
3860	65.423
3856	65.3871
3852	65.3333
3848	65.2534
3844	65.0553
3840	64.9305
3836	65.0245
3832	65.1105
3828	65.0383
3824	64.9796
3820	65.0709
3816	65.1896
3812	65.1915
3808	65.0631
3804	64.9372
3800	64.9223
3796	64.8889
3792	64.8438
3788	65.0161
3784	65.3014
3780	65.2673
3776	65.0607
3772	65.0208
3768	65.0092
3764	65.0314
3760	65.125
3756	65.2007
3752	65.2679
3748	65.3082
3744	65.1986
3740	64.9907
3736	64.9247
3732	65.0477
3728	65.1647
3724	65.1494
3720	65.081
3716	65.0378
3712	65.0585
3708	65.1638
3704	65.2124
3700	65.0984
3696	65.0276
3692	65.0434
3688	65.0114
3684	64.992
3680	64.9944
3676	64.9966
3672	65.0484
3668	65.0983
3664	65.0975
3660	65.1221
3656	65.1231
3652	65.044
3648	64.9765
3644	65.0149
3640	65.1461
3636	65.2269
3632	65.1754
3628	65.0543
3624	64.9791
3620	64.9804
3616	65.0044
3612	65.0599
3608	65.1219
3604	65.1108
3600	65.0716
3596	65.0509
3592	65.0403
3588	65.012
3584	64.9558
3580	64.9653
3576	65.02
3572	65.0636
3568	65.1175
3564	65.1286
3560	65.1135
3556	65.128
3552	65.0967
3548	64.9997
3544	64.9876
3540	65.0812
3536	65.098
3532	65.0223
3528	64.9767
3524	64.9665
3520	65.009
3516	65.0632
3512	65.057
3508	65.0843
3504	65.1429
3500	65.1848
3496	65.2046
3492	65.2053
3488	65.2017
3484	65.1766
3480	65.1531
3476	65.1213
3472	65.0953
3468	65.085
3464	65.0603
3460	65.0794
3456	65.162
3452	65.205
3448	65.1405
3444	65.055
3440	65.0007
3436	64.9479
3432	64.887
3428	64.8599
3424	64.965
3420	65.0752
3416	65.0111
3412	64.9432
3408	64.9905
3404	64.9642
3400	64.8501
3396	64.8351
3392	64.922
3388	64.9824
3384	64.9819
3380	64.9909
3376	65.0835
3372	65.2023
3368	65.1574
3364	65.0814
3360	65.1098
3356	65.0305
3352	64.957
3348	65.0242
3344	65.1089
3340	65.1525
3336	65.1267
3332	65.143
3328	65.228
3324	65.2431
3320	65.171
3316	65.0822
3312	65.0573
3308	65.0891
3304	65.0766
3300	65.0083
3296	64.9392
3292	64.9384
3288	65.0052
3284	65.0272
3280	65.0063
3276	64.9948
3272	64.9519
3268	64.8775
3264	64.8586
3260	64.9481
3256	65.091
3252	65.1188
3248	65.0093
3244	64.9758
3240	65.0499
3236	65.0966
3232	65.0627
3228	65.0306
3224	65.0396
3220	64.9796
3216	64.9094
3212	64.9783
3208	65.0837
3204	65.0947
3200	65.0603
3196	65.0172
3192	65.0264
3188	65.0768
3184	65.0565
3180	65.0032
3176	64.9799
3172	64.995
3168	64.992
3164	64.9247
3160	64.9092
3156	65.0045
3152	65.0812
3148	65.1009
3144	65.1072
3140	65.0386
3136	64.916
3132	64.8741
3128	64.9441
3124	65.0183
3120	65.05
3116	65.0799
3112	65.1132
3108	65.1305
3104	65.1041
3100	65.1167
3096	65.1344
3092	65.034
3088	64.9526
3084	64.9649
3080	64.9925
3076	65.0104
3072	65.0162
3068	65.0173
3064	65.0402
3060	65.0789
3056	65.102
3052	65.0598
3048	64.9226
3044	64.811
3040	64.8712
3036	65.0492
3032	65.1678
3028	65.1142
3024	64.9731
3020	64.9057
3016	64.884
3012	64.8929
3008	64.987
3004	65.0753
3000	65.0418
2996	64.9549
2992	64.9485
2988	64.9748
2984	64.9633
2980	64.9554
2976	64.9121
2972	64.7819
2968	64.6868
2964	64.6692
2960	64.7029
2956	64.8148
2952	64.8979
2948	64.9292
2944	64.9623
2940	64.9944
2936	65.0384
2932	65.038
2928	65.013
2924	64.9887
2920	64.9556
2916	64.9677
2912	64.9998
2908	64.976
2904	64.8867
2900	64.8038
2896	64.791
2892	64.853
2888	64.9287
2884	64.9291
2880	64.8556
2876	64.801
2872	64.8219
2868	64.8887
2864	64.9515
2860	64.9737
2856	65.004
2852	65.069
2848	65.0333
2844	64.9415
2840	64.9281
2836	64.9313
2832	64.8965
2828	64.8469
2824	64.8399
2820	64.8955
2816	64.9284
2812	64.9353
2808	64.964
2804	64.9567
2800	64.9082
2796	64.8718
2792	64.8972
2788	64.9312
2784	64.9196
2780	64.9272
2776	64.9248
2772	64.8801
2768	64.8489
2764	64.8506
2760	64.8489
2756	64.8536
2752	64.8689
2748	64.8573
2744	64.8454
2740	64.8464
2736	64.8507
2732	64.8632
2728	64.9119
2724	64.9594
2720	64.9309
2716	64.9152
2712	64.9451
2708	64.9715
2704	64.9772
2700	64.9553
2696	64.9672
2692	65.0126
2688	65.0308
2684	64.9945
2680	64.9257
2676	64.8724
2672	64.8723
2668	64.9494
2664	65.0239
2660	64.9884
2656	64.8851
2652	64.8395
2648	64.8748
2644	64.919
2640	64.9451
2636	64.9508
2632	64.9293
2628	64.8839
2624	64.8073
2620	64.7638
2616	64.771
2612	64.7909
2608	64.8187
2604	64.8061
2600	64.8204
2596	64.9168
2592	64.9654
2588	64.9272
2584	64.8933
2580	64.8871
2576	64.8584
2572	64.8478
2568	64.8614
2564	64.8453
2560	64.8129
2556	64.8055
2552	64.848
2548	64.8353
2544	64.721
2540	64.6731
2536	64.736
2532	64.7993
2528	64.8541
2524	64.942
2520	64.9948
2516	64.9902
2512	64.9992
2508	64.9633
2504	64.8582
2500	64.8033
2496	64.8474
2492	64.889
2488	64.8586
2484	64.8478
2480	64.8541
2476	64.7964
2472	64.728
2468	64.6853
2464	64.693
2460	64.7919
2456	64.8461
2452	64.7853
2448	64.77
2444	64.8108
2440	64.8244
2436	64.8401
2432	64.836
2428	64.7777
2424	64.7458
2420	64.8162
2416	64.8753
2412	64.8407
2408	64.8234
2404	64.8646
2400	64.8938
2396	64.8695
2392	64.8141
2388	64.8005
2384	64.841
2380	64.8264
2376	64.7572
2372	64.753
2368	64.7965
2364	64.8128
2360	64.7916
2356	64.7548
2352	64.7303
2348	64.7046
2344	64.6879
2340	64.7109
2336	64.7308
2332	64.733
2328	64.774
2324	64.8176
2320	64.7846
2316	64.7281
2312	64.6911
2308	64.6451
2304	64.6502
2300	64.7039
2296	64.7031
2292	64.6716
2288	64.6832
2284	64.7097
2280	64.6666
2276	64.6069
2272	64.6153
2268	64.6455
2264	64.6692
2260	64.7067
2256	64.7673
2252	64.7934
2248	64.7139
2244	64.6177
2240	64.6105
2236	64.6534
2232	64.6791
2228	64.638
2224	64.6109
2220	64.6646
2216	64.6867
2212	64.6928
2208	64.7507
2204	64.7558
2200	64.7051
2196	64.7116
2192	64.7525
2188	64.7476
2184	64.6939
2180	64.6525
2176	64.6223
2172	64.5223
2168	64.4438
2164	64.4985
2160	64.6079
2156	64.6372
2152	64.6215
2148	64.6282
2144	64.6281
2140	64.6504
2136	64.7053
2132	64.7502
2128	64.7949
2124	64.7845
2120	64.6788
2116	64.5834
2112	64.5502
2108	64.5572
2104	64.5847
2100	64.5966
2096	64.6294
2092	64.6354
2088	64.5525
2084	64.5019
2080	64.5372
2076	64.5347
2072	64.508
2068	64.5598
2064	64.5767
2060	64.4668
2056	64.3486
2052	64.3475
2048	64.4527
2044	64.5619
2040	64.6155
2036	64.613
2032	64.586
2028	64.556
2024	64.5323
2020	64.5604
2016	64.6047
2012	64.6119
2008	64.5986
2004	64.5829
2000	64.5677
1996	64.5454
1992	64.5526
1988	64.5918
1984	64.6076
1980	64.5698
1976	64.5084
1972	64.4972
1968	64.5423
1964	64.5415
1960	64.4611
1956	64.3933
1952	64.3895
1948	64.429
1944	64.4945
1940	64.567
1936	64.5985
1932	64.5631
1928	64.5091
1924	64.5177
1920	64.5791
1916	64.6032
1912	64.5733
1908	64.5171
1904	64.4418
1900	64.39
1896	64.4101
1892	64.4644
1888	64.4815
1884	64.4673
1880	64.4365
1876	64.4454
1872	64.5133
1868	64.5046
1864	64.4526
1860	64.486
1856	64.553
1852	64.5489
1848	64.4583
1844	64.3975
1840	64.4376
1836	64.5024
1832	64.5
1828	64.4265
1824	64.3681
1820	64.3687
1816	64.4102
1812	64.4489
1808	64.4129
1804	64.3626
1800	64.382
1796	64.4224
1792	64.4318
1788	64.4135
1784	64.3956
1780	64.4007
1776	64.4414
1772	64.484
1768	64.4722
1764	64.3933
1760	64.2925
1756	64.2623
1752	64.3142
1748	64.3259
1744	64.2456
1740	64.1699
1736	64.1515
1732	64.1545
1728	64.139
1724	64.1341
1720	64.2063
1716	64.272
1712	64.2615
1708	64.2632
1704	64.2424
1700	64.1866
1696	64.1971
1692	64.216
1688	64.2146
1684	64.2361
1680	64.2329
1676	64.1725
1672	64.1112
1668	64.1531
1664	64.24
1660	64.2219
1656	64.1471
1652	64.1425
1648	64.2372
1644	64.3089
1640	64.2535
1636	64.1839
1632	64.1749
1628	64.1827
1624	64.1587
1620	64.1157
1616	64.1311
1612	64.1731
1608	64.1784
1604	64.2112
1600	64.2786
1596	64.2763
1592	64.2166
1588	64.1873
1584	64.1969
1580	64.1312
1576	63.9752
1572	63.935
1568	64.0245
1564	64.0854
1560	64.1346
1556	64.1535
1552	64.0659
1548	63.9942
1544	64.0303
1540	64.0885
1536	64.1227
1532	64.1309
1528	64.1237
1524	64.1101
1520	64.1123
1516	64.1366
1512	64.1225
1508	64.0804
1504	64.0958
1500	64.1276
1496	64.156
1492	64.1819
1488	64.1405
1484	64.1374
1480	64.1832
1476	64.1739
1472	64.1191
1468	64.0344
1464	63.9688
1460	63.9859
1456	64.0104
1452	63.9778
1448	63.9463
1444	63.9859
1440	64.005
1436	63.9479
1432	63.941
1428	63.9933
1424	64.0793
1420	64.1742
1416	64.1586
1412	64.0647
1408	64.0278
1404	64.0329
1400	64.0163
1396	63.9967
1392	63.9873
1388	63.9881
1384	64.0099
1380	63.9943
1376	63.8986
1372	63.8639
1368	63.9068
1364	63.9217
1360	63.98
1356	64.0508
1352	63.9946
1348	63.8739
1344	63.8634
1340	63.9263
1336	63.9179
1332	63.8681
1328	63.8602
1324	63.9126
1320	63.925
1316	63.8539
1312	63.8208
1308	63.8619
1304	63.8999
1300	63.9021
1296	63.8912
1292	63.8924
1288	63.9341
1284	63.9749
1280	63.9268
1276	63.8387
1272	63.8153
1268	63.8756
1264	63.9082
1260	63.8456
1256	63.8013
1252	63.7892
1248	63.7834
1244	63.8132
1240	63.8142
1236	63.7769
1232	63.7548
1228	63.7454
1224	63.7782
1220	63.8521
1216	63.8469
1212	63.8095
1208	63.8647
1204	63.9015
1200	63.8414
1196	63.7502
1192	63.6956
1188	63.7212
1184	63.7642
1180	63.7142
1176	63.6157
1172	63.5692
1168	63.5704
1164	63.5583
1160	63.5317
1156	63.5659
1152	63.6254
1148	63.6142
1144	63.5947
1140	63.644
1136	63.6806
1132	63.6445
1128	63.6012
1124	63.621
1120	63.6474
1116	63.6063
1112	63.5624
1108	63.5611
1104	63.5585
1100	63.5927
1096	63.7218
1092	63.7815
1088	63.6869
1084	63.6313
1080	63.6892
1076	63.7206
1072	63.6691
1068	63.6399
1064	63.7083
1060	63.7914
1056	63.7542
1052	63.5861
1048	63.488
1044	63.5837
1040	63.6342
1036	63.5357
1032	63.506
1028	63.6709
1024	63.8103
1020	63.7131
1016	63.6194
1012	63.6786
1008	63.7223
1004	63.7122
1000	63.71
996	 63.7533
992	 63.7934
988	 63.7782
984	 63.8105
980	 63.9106
976	 63.9395
972	 63.8536
968	 63.7257
964	 63.6487
960	 63.5508
956	 63.4282
952	 63.4569
948	 63.5195
944	 63.4697
940	 63.4151
936	 63.4443
932	 63.513
928	 63.552
924	 63.5824
920	 63.6355
916	 63.6225
912	 63.545
908	 63.5757
904	 63.6494
900	 63.6197
896	 63.6126
892	 63.6384
888	 63.6366
884	 63.7456
880	 63.8591
876	 63.7935
872	 63.6711
868	 63.6152
864	 63.6555
860	 63.7254
856	 63.7278
852	 63.696
848	 63.7092
844	 63.7107
840	 63.6083
836	 63.5461
832	 63.6807
828	 63.8046
824	 63.6347
820	 63.4698
816	 63.5939
812	 63.6687
808	 63.5094
804	 63.3529
800	 63.3645
796	 63.4424
792	 63.4713
788	 63.4733
784	 63.5312
780	 63.5905
776	 63.5695
772	 63.5803
768	 63.6102
764	 63.5108
760	 63.4802
756	 63.5402
752	 63.4816
748	 63.4471
744	 63.4288
740	 63.3293
736	 63.2859
732	 63.2749
728	 63.3269
724	 63.4333
720	 63.4131
716	 63.3614
712	 63.3772
708	 63.3667
704	 63.213
700	 62.9579
696	 62.8836
692	 63.2417
688	 63.6844
684	 63.7088
680	 63.629
676	 63.5293
672	 63.3806
668	 63.4736
664	 63.3892
660	 63.226
656	 63.5785
652	 63.9787
648	 63.9651
644	 63.4993
640	 62.9641
636	 62.9761
632	 63.1925
628	 63.495
624	 64.5438
620	 65.4939
616	 65.036
612	 64.1384
608	 64.0914
604	 64.2762
600	 63.8021
596	 63.0749
592	 62.5813
588	 62.4906
584	 63.022
580	 63.4842
576	 63.3112
572	 62.996
568	 62.9768
564	 63.3007
560	 63.766
556	 63.8088
552	 63.1918
548	 62.5901
544	 62.4689
540	 62.5978
536	 62.906
532	 63.4314
528	 63.7835
524	 63.5694
520	 63.1423
516	 63.0554
512	 63.1869
508	 63.1881
504	 62.9542
500	 62.8121
496	 62.8863
492	 62.8869
488	 62.8784
484	 62.9668
480	 62.9338
476	 62.8805
472	 63.0895
468	 63.3544
464	 63.4978
460	 62.9974
456	 61.941
452	 61.3077
448	 61.426
444	 62.2037
440	 63.0649
436	 63.2418
432	 63.3489
428	 64.2188
424	 64.1866
420	 62.7227
416	 61.8627
412	 61.47
408	 61.0854
404	 61.4039
400	 62.8424
396	 64.0535
392	 60.051
388	 58.0965
384	 64.1372
380	 66.1067
376	 60.4258
372	 45.3233
370	 37.853