File: Bakgrunnsmateriale/MATLAB/FTIR/ftir_data/subAa/Mapping_121/BZ1503107-1_e122.asc
PE IR       SPECTRUM    SPECTRUM    ASCII       PEDS        1.60
  -1
BZ1503~2.ASC
17/04/07
13:14:34.00
17/04/07
13:15:00.00
tln
$BZ1503107-1_e0122$<ebV0>[-23.3,12.1,10.0,0.0,27,1,0]
27.028
64

2002,4.07
MIRTGS : RIGHTBACK : INTERNAL 2
MIR : ON : INTERNAL 2
OPTKBR

0.200000
8
8.000000
FILLER
SINGLE
SPECTRUM
UNLOCKED 256

DOUBLE

COMBINED
1
0
0

0.002000
BACKG

1
0
TRUE
51149
0
LEFT NOT FITTED RIGHT NOT FITTED 0
NONE
NONE
15600
12
4.427000
51148
TRUE
1 0 8 72 0 0 0 0

15798

#HDR
-1
-1
#GR
µM
EGY
2.38419e-05
0.0
2.000000
0.002000
12515
8
2.461703
0.006914
#DATA
2.000000	 0.774073
2.018000	 0.793524
2.036000	 0.812327
2.054000	 0.832147
2.072000	 0.855546
2.090000	 0.877236
2.108000	 0.904713
2.126000	 0.918260
2.144000	 0.918344
2.162000	 0.934471
2.180000	 0.952437
2.198000	 0.986898
2.216000	 1.003278
2.234000	 0.963749
2.252000	 1.027130
2.270000	 1.033708
2.288000	 1.051214
2.306000	 1.080619
2.324000	 1.117075
2.342000	 1.155721
2.360000	 1.180442
2.378000	 1.198352
2.396000	 1.212617
2.414000	 1.233672
2.432000	 1.254762
2.450000	 1.293381
2.468000	 1.334432
2.486000	 1.374159
2.504000	 1.403046
2.522000	 1.415069
2.540000	 1.425401
2.558000	 1.435215
2.576000	 1.444163
2.594000	 1.448314
2.612000	 1.491611
2.630000	 1.515188
2.648000	 1.555645
2.666000	 1.545042
2.684000	 1.578630
2.702000	 1.581613
2.720000	 1.565524
2.738000	 1.573978
2.756000	 1.576728
2.774000	 1.594281
2.792000	 1.609111
2.810000	 1.626533
2.828000	 1.630521
2.846000	 1.637693
2.864000	 1.630470
2.882000	 1.619931
2.900000	 1.603376
2.918000	 1.590513
2.936000	 1.600483
2.954000	 1.614439
2.972000	 1.634122
2.990000	 1.666921
3.008000	 1.693002
3.026000	 1.724056
3.044000	 1.748293
3.062000	 1.770625
3.080000	 1.786653
3.098000	 1.795104
3.116000	 1.795075
3.134000	 1.800530
3.152000	 1.804386
3.170000	 1.814992
3.188000	 1.832985
3.206000	 1.853754
3.224000	 1.879936
3.242000	 1.915754
3.260000	 1.939567
3.278000	 1.969652
3.296000	 1.985723
3.314000	 1.965834
3.332000	 2.028440
3.350000	 2.035352
3.368000	 1.971675
3.386000	 1.928714
3.404000	 1.834557
3.422000	 1.787003
3.440000	 1.938562
3.458000	 1.993604
3.476000	 2.010056
3.494000	 1.914147
3.512000	 2.020231
3.530000	 2.108331
3.548000	 2.152912
3.566000	 2.183623
3.584000	 2.207955
3.602000	 2.233387
3.620000	 2.250742
3.638000	 2.261050
3.656000	 2.262379
3.674000	 2.262272
3.692000	 2.258856
3.710000	 2.249142
3.728000	 2.244069
3.746000	 2.236156
3.764000	 2.226119
3.782000	 2.225967
3.800000	 2.224958
3.818000	 2.227117
3.836000	 2.231578
3.854000	 2.233556
3.872000	 2.246554
3.890000	 2.266826
3.908000	 2.281963
3.926000	 2.297495
3.944000	 2.310515
3.962000	 2.320671
3.980000	 2.326856
3.998000	 2.333467
4.016000	 2.331327
4.034000	 2.327946
4.052000	 2.321088
4.070000	 2.313044
4.088000	 2.300896
4.106000	 2.290153
4.124000	 2.278732
4.141999	 2.268645
4.160000	 2.262833
4.178000	 2.256425
4.196000	 2.251558
4.214000	 2.241729
4.232000	 2.236070
4.250000	 2.254853
4.268000	 2.268182
4.286000	 2.279106
4.304000	 2.300451
4.322000	 2.319783
4.340000	 2.337823
4.358000	 2.352597
4.375999	 2.364932
4.394000	 2.373039
4.412000	 2.379633
4.430000	 2.382921
4.448000	 2.385153
4.466000	 2.386895
4.484000	 2.385670
4.502000	 2.380055
4.520000	 2.374344
4.538000	 2.366800
4.556000	 2.359981
4.574000	 2.353707
4.592000	 2.348545
4.609999	 2.340400
4.628000	 2.340894
4.646000	 2.344331
4.664000	 2.342062
4.682000	 2.341105
4.700000	 2.338801
4.718000	 2.338863
4.736000	 2.341905
4.754000	 2.344453
4.772000	 2.344390
4.790000	 2.343828
4.808000	 2.349663
4.826000	 2.363472
4.843999	 2.379393
4.862000	 2.394780
4.880000	 2.408253
4.898000	 2.423450
4.916000	 2.436374
4.934000	 2.443733
4.952000	 2.451003
4.970000	 2.455094
4.988000	 2.458636
5.006000	 2.461493
5.024000	 2.460592
5.042000	 2.456846
5.060000	 2.450036
5.077999	 2.441081
5.096000	 2.434863
5.114000	 2.430377
5.132000	 2.425358
5.150000	 2.419352
5.168000	 2.415692
5.186000	 2.409347
5.204000	 2.400392
5.222000	 2.391313
5.240000	 2.385770
5.258000	 2.379624
5.276000	 2.374192
5.294000	 2.372421
5.312000	 2.378513
5.330000	 2.379761
5.348000	 2.378421
5.366000	 2.385750
5.384000	 2.393519
5.402000	 2.396090
5.420000	 2.395925
5.438000	 2.406423
5.456000	 2.411085
5.474000	 2.414040
5.492000	 2.422690
5.510000	 2.427333
5.528000	 2.431746
5.546000	 2.432989
5.564000	 2.430687
5.582000	 2.428943
5.600000	 2.431243
5.618000	 2.429237
5.636000	 2.415848
5.654000	 2.411927
5.672000	 2.412883
5.690000	 2.403559
5.708000	 2.385440
5.726000	 2.370139
5.744000	 2.349268
5.762000	 2.322868
5.780000	 2.324084
5.798000	 2.327114
5.816000	 2.304292
5.834000	 2.297326
5.852000	 2.295540
5.870000	 2.268182
5.888000	 2.244434
5.906000	 2.253938
5.923999	 2.248335
5.942000	 2.234319
5.960000	 2.235284
5.978000	 2.224959
5.996000	 2.217280
6.014000	 2.209974
6.032000	 2.186608
6.050000	 2.157713
6.068000	 2.158015
6.086000	 2.161072
6.104000	 2.147365
6.122000	 2.134516
6.140000	 2.125546
6.158000	 2.103242
6.176000	 2.067769
6.194000	 2.022589
6.212000	 1.981823
6.230000	 1.971369
6.248000	 1.991099
6.266000	 2.009837
6.284000	 2.015974
6.302000	 2.013000
6.320000	 2.000775
6.338000	 1.983874
6.356000	 1.978496
6.374000	 1.976728
6.392000	 1.955402
6.410000	 1.923998
6.428000	 1.926950
6.446000	 1.951443
6.464000	 1.956208
6.482000	 1.956526
6.500000	 1.993863
6.518000	 2.055898
6.536000	 2.097560
6.554000	 2.109297
6.572000	 2.106834
6.590000	 2.102432
6.608000	 2.092308
6.626000	 2.068519
6.644000	 2.016138
6.662000	 1.892191
6.680000	 1.728112
6.698000	 1.670684
6.716000	 1.758096
6.734000	 1.877651
6.752000	 1.948947
6.770000	 1.970396
6.788000	 1.970350
6.806000	 1.964630
6.824000	 1.946251
6.842000	 1.902354
6.860000	 1.833051
6.878000	 1.772187
6.896000	 1.763820
6.914000	 1.803777
6.932000	 1.843144
6.950000	 1.857668
6.968000	 1.862674
6.986000	 1.867690
7.004000	 1.868987
7.022000	 1.864136
7.040000	 1.854818
7.058000	 1.844721
7.076000	 1.826461
7.094000	 1.788987
7.112000	 1.745020
7.130000	 1.724908
7.148000	 1.738792
7.166000	 1.768377
7.184000	 1.788789
7.202000	 1.790270
7.220000	 1.785948
7.238000	 1.791739
7.256000	 1.803739
7.274000	 1.812041
7.292000	 1.815921
7.310000	 1.816772
7.328000	 1.815756
7.346000	 1.815606
7.364000	 1.815984
7.382000	 1.815006
7.400000	 1.813401
7.418000	 1.812494
7.436000	 1.812097
7.454000	 1.813494
7.472000	 1.819320
7.490000	 1.829019
7.508000	 1.838752
7.526000	 1.845713
7.544000	 1.849852
7.562000	 1.852603
7.580000	 1.855075
7.598000	 1.857121
7.616000	 1.857994
7.634000	 1.857770
7.652000	 1.857387
7.670000	 1.857202
7.688000	 1.857100
7.706000	 1.857008
7.724000	 1.856564
7.742000	 1.855476
7.760000	 1.854069
7.778000	 1.853111
7.796000	 1.851612
7.814000	 1.847340
7.832000	 1.838100
7.850000	 1.821968
7.868000	 1.797073
7.886000	 1.764522
7.904000	 1.732976
7.922000	 1.716568
7.940000	 1.723998
7.958000	 1.750297
7.976000	 1.781384
7.994000	 1.806352
8.012000	 1.822643
8.030000	 1.832117
8.048000	 1.836523
8.065999	 1.837291
8.084000	 1.836116
8.102000	 1.834108
8.120000	 1.831002
8.138000	 1.826321
8.155999	 1.819970
8.173999	 1.812149
8.192000	 1.802449
8.210000	 1.790182
8.228000	 1.776015
8.246000	 1.762545
8.263999	 1.752526
8.282000	 1.746959
8.300000	 1.744862
8.318000	 1.744418
8.336000	 1.744368
8.353999	 1.743923
8.372000	 1.742390
8.390000	 1.739319
8.408000	 1.734672
8.426000	 1.728870
8.443999	 1.722647
8.462000	 1.716463
8.480000	 1.710132
8.498000	 1.703062
8.516000	 1.694522
8.533999	 1.684410
8.552000	 1.673147
8.570000	 1.661419
8.588000	 1.649700
8.606000	 1.638419
8.624000	 1.628532
8.641999	 1.621089
8.660000	 1.616322
8.678000	 1.613337
8.696000	 1.610722
8.714000	 1.607163
8.731999	 1.602191
8.750000	 1.595817
8.768000	 1.588409
8.786000	 1.580292
8.804000	 1.571720
8.821999	 1.562581
8.840000	 1.552692
8.858000	 1.542131
8.876000	 1.531137
8.894000	 1.519938
8.911999	 1.508470
8.930000	 1.496602
8.948000	 1.484506
8.966000	 1.472575
8.984000	 1.461495
9.001999	 1.451909
9.020000	 1.444272
9.038000	 1.438565
9.056000	 1.434301
9.074000	 1.430846
9.092000	 1.427862
9.109999	 1.425218
9.128000	 1.422985
9.146000	 1.421516
9.164000	 1.421363
9.182000	 1.422437
9.199999	 1.423958
9.218000	 1.424807
9.236000	 1.424414
9.254000	 1.423432
9.272000	 1.423106
9.289999	 1.424390
9.308000	 1.427248
9.326000	 1.431083
9.344000	 1.434990
9.362000	 1.438089
9.379999	 1.439623
9.398000	 1.438718
9.416000	 1.433557
9.434000	 1.421560
9.452000	 1.400174
9.469999	 1.370094
9.488000	 1.336998
9.506000	 1.310644
9.524000	 1.299574
9.542000	 1.306450
9.560000	 1.326338
9.577999	 1.350150
9.596000	 1.369875
9.614000	 1.381803
9.632000	 1.386511
9.650000	 1.386361
9.667999	 1.383609
9.686000	 1.379556
9.704000	 1.374897
9.722000	 1.370211
9.740000	 1.366021
9.757999	 1.362769
9.776000	 1.360736
9.794000	 1.360174
9.812000	 1.361142
9.830000	 1.363645
9.847999	 1.367394
9.866000	 1.372172
9.884000	 1.377500
9.902000	 1.382959
9.920000	 1.388001
9.937999	 1.392361
9.956000	 1.395813
9.974000	 1.398334
9.992000	 1.399995
10.01	1.400828
10.028	1.400794
10.046	1.399932
10.064	1.398427
10.082	1.396421
10.1	1.394079
10.118	1.391428
10.136	1.388492
10.154	1.385278
10.172	1.381929
10.19	1.378599
10.208	1.375293
10.226	1.371947
10.244	1.368400
10.262	1.364347
10.28	1.359647
10.298	1.354282
10.316	1.348380
10.334	1.342154
10.352	1.335919
10.37	1.329727
10.388	1.323673
10.406	1.317730
10.424	1.311835
10.442	1.305961
10.46	1.300082
10.478	1.294269
10.496	1.288518
10.514	1.282964
10.532	1.277858
10.55	1.273344
10.568	1.269631
10.586	1.266549
10.604	1.263896
10.622	1.261373
10.64	1.258759
10.658	1.255891
10.676	1.252777
10.694	1.249576
10.712	1.246275
10.73	1.242897
10.748	1.239401
10.766	1.235859
10.784	1.232331
10.802	1.228821
10.82	1.225297
10.838	1.221700
10.856	1.217838
10.874	1.213494
10.892	1.208506
10.91	1.202932
10.928	1.196902
10.946	1.190777
10.964	1.184871
10.982	1.179415
11	1.174581
11.018	1.170391
11.036	1.166770
11.054	1.163631
11.072	1.160828
11.09	1.158255
11.108	1.155911
11.126	1.153688
11.144	1.151547
11.162	1.149374
11.18	1.146903
11.198	1.143712
11.216	1.139455
11.234	1.133658
11.252	1.125985
11.27	1.116483
11.288	1.105247
11.306	1.092698
11.324	1.079436
11.342	1.066282
11.36	1.053943
11.378	1.043350
11.396	1.035368
11.414	1.030593
11.432	1.029371
11.45	1.031654
11.468	1.036945
11.486	1.044486
11.504	1.053349
11.522	1.062502
11.54	1.071200
11.558	1.078699
11.576	1.084814
11.594	1.089420
11.612	1.092491
11.63	1.094164
11.648	1.094707
11.666	1.094281
11.684	1.093077
11.702	1.091348
11.72	1.089266
11.738	1.087000
11.756	1.084687
11.774	1.082458
11.792	1.080258
11.81	1.078064
11.828	1.075770
11.846	1.073202
11.864	1.070146
11.882	1.066187
11.9	1.060968
11.918	1.054022
11.936	1.044853
11.954	1.032974
11.972	1.018034
11.99	0.999896
12.008	0.978760
12.026	0.955219
12.044	0.930451
12.062	0.906027
12.08	0.883926
12.098	0.865951
12.116	0.853708
12.134	0.848131
12.152	0.849281
12.17	0.856369
12.188	0.867987
12.206	0.882213
12.224	0.897169
12.242	0.911261
12.26	0.923417
12.278	0.933066
12.296	0.940139
12.314	0.944856
12.332	0.947685
12.35	0.949149
12.368	0.949578
12.386	0.949407
12.404	0.948950
12.422	0.948321
12.44	0.947770
12.458	0.947348
12.476	0.947211
12.494	0.947336
12.512	0.947826
12.53	0.948728
12.548	0.950010
12.566	0.951745
12.584	0.953879
12.602	0.956380
12.62	0.959133
12.638	0.962076
12.656	0.965083
12.674	0.968032
12.692	0.970743
12.71	0.973174
12.728	0.975244
12.746	0.976883
12.764	0.978113
12.782	0.978933
12.8	0.979354
12.818	0.979435
12.836	0.979226
12.854	0.978787
12.872	0.978154
12.89	0.977396
12.908	0.976605
12.926	0.975741
12.944	0.974884
12.962	0.974092
12.98	0.973340
12.998	0.972638
13.016	0.971939
13.034	0.971212
13.052	0.970462
13.07	0.969642
13.088	0.968769
13.106	0.967821
13.124	0.966822
13.142	0.965775
13.16	0.964707
13.178	0.963641
13.196	0.962548
13.214	0.961408
13.232	0.960255
13.25	0.959089
13.268	0.957852
13.286	0.956570
13.304	0.955250
13.322	0.953903
13.34	0.952508
13.358	0.951070
13.376	0.949580
13.394	0.948013
13.412	0.946334
13.43	0.944522
13.448	0.942596
13.466	0.940568
13.484	0.938441
13.502	0.936225
13.52	0.933983
13.538	0.931709
13.556	0.929392
13.574	0.927060
13.592	0.924649
13.61	0.922185
13.628	0.919580
13.646	0.916831
13.664	0.913976
13.682	0.910973
13.7	0.907876
13.718	0.904770
13.736	0.901672
13.754	0.898602
13.772	0.895645
13.79	0.892845
13.808	0.890186
13.826	0.887624
13.844	0.885156
13.862	0.882751
13.88	0.880380
13.898	0.878028
13.916	0.875641
13.934	0.873188
13.952	0.870699
13.97	0.868146
13.988	0.865500
14.006	0.862825
14.024	0.860118
14.042	0.857337
14.06	0.854480
14.078	0.851603
14.096	0.848704
14.114	0.845747
14.132	0.842728
14.15	0.839654
14.168	0.836505
14.186	0.833267
14.204	0.829941
14.222	0.826554
14.24	0.823029
14.258	0.819344
14.276	0.815521
14.294	0.811517
14.312	0.807237
14.33	0.802606
14.348	0.797611
14.366	0.792127
14.384	0.786198
14.402	0.779890
14.42	0.773257
14.438	0.766427
14.456	0.759612
14.474	0.753079
14.492	0.747079
14.51	0.741867
14.528	0.737567
14.546	0.734304
14.564	0.732105
14.582	0.730908
14.6	0.730584
14.618	0.730929
14.636	0.731734
14.654	0.732747
14.672	0.733772
14.69	0.734652
14.708	0.735262
14.726	0.735496
14.744	0.735313
14.762	0.734750
14.78	0.733816
14.798	0.732576
14.816	0.731127
14.834	0.729452
14.852	0.727630
14.87	0.725729
14.888	0.723797
14.906	0.721860
14.924	0.719929
14.942	0.718092
14.96	0.716280
14.978	0.714505
14.996	0.712775
15.014	0.711061
15.032	0.709318
15.05	0.707549
15.068	0.705747
15.086	0.703900
15.104	0.701995
15.122	0.700046
15.14	0.698093
15.158	0.696155
15.176	0.694233
15.194	0.692295
15.212	0.690394
15.23	0.688507
15.248	0.686622
15.266	0.684742
15.284	0.682835
15.302	0.680911
15.32	0.678935
15.338	0.676874
15.356	0.674750
15.374	0.672572
15.392	0.670353
15.41	0.668099
15.428	0.665806
15.446	0.663502
15.464	0.661208
15.482	0.658937
15.5	0.656699
15.518	0.654505
15.536	0.652364
15.554	0.650285
15.572	0.648284
15.59	0.646293
15.608	0.644353
15.626	0.642482
15.644	0.640637
15.662	0.638809
15.68	0.636998
15.698	0.635205
15.716	0.633446
15.734	0.631698
15.752	0.629938
15.77	0.628138
15.788	0.626348
15.806	0.624545
15.824	0.622721
15.842	0.620889
15.86	0.619064
15.878	0.617231
15.896	0.615374
15.914	0.613541
15.932	0.611704
15.95	0.609865
15.968	0.608079
15.986	0.606298
16.004	0.604521
16.022	0.602748
16.04	0.600972
16.058	0.599162
16.076	0.597291
16.094	0.595345
16.112	0.593296
16.13	0.591135
16.148	0.588884
16.166	0.586508
16.184	0.583988
16.202	0.581297
16.22	0.578467
16.238	0.575499
16.256	0.572392
16.274	0.569157
16.292	0.565809
16.31	0.562360
16.328	0.558838
16.346	0.555279
16.364	0.551713
16.382	0.548181
16.4	0.544740
16.418	0.541436
16.436	0.538343
16.454	0.535496
16.472	0.532927
16.49	0.530706
16.508	0.528839
16.526	0.527332
16.544	0.526176
16.562	0.525332
16.58	0.524772
16.598	0.524482
16.616	0.524388
16.634	0.524427
16.652	0.524529
16.67	0.524664
16.688	0.524801
16.706	0.524848
16.724	0.524798
16.742	0.524657
16.76	0.524370
16.778	0.523938
16.796	0.523396
16.814	0.522736
16.832	0.521963
16.85	0.521113
16.868	0.520211
16.886	0.519278
16.904	0.518303
16.922	0.517308
16.94	0.516333
16.958	0.515367
16.976	0.514415
16.994	0.513524
17.012	0.512659
17.03	0.511797
17.048	0.510968
17.066	0.510164
17.084	0.509363
17.102	0.508590
17.12	0.507847
17.138	0.507110
17.156	0.506388
17.174	0.505688
17.192	0.504997
17.21	0.504317
17.228	0.503669
17.246	0.503049
17.264	0.502455
17.282	0.501897
17.3	0.501375
17.318	0.500887
17.336	0.500440
17.354	0.500039
17.372	0.499681
17.39	0.499365
17.408	0.499088
17.426	0.498825
17.444	0.498558
17.462	0.498288
17.48	0.498005
17.498	0.497665
17.516	0.497276
17.534	0.496841
17.552	0.496348
17.57	0.495789
17.588	0.495104
17.606	0.494320
17.624	0.493480
17.642	0.492545
17.66	0.491499
17.678	0.490392
17.696	0.489228
17.714	0.487994
17.732	0.486720
17.75	0.485441
17.768	0.484155
17.786	0.482863
17.804	0.481580
17.822	0.480310
17.84	0.479064
17.858	0.477853
17.876	0.476697
17.894	0.475582
17.912	0.474505
17.93	0.473475
17.948	0.472493
17.966	0.471557
17.984	0.470667
18.002	0.469826
18.02	0.469026
18.038	0.468264
18.056	0.467535
18.074	0.466840
18.092	0.466154
18.11	0.465475
18.128	0.464790
18.146	0.464097
18.164	0.463380
18.182	0.462643
18.2	0.461892
18.218	0.461107
18.236	0.460281
18.254	0.459403
18.272	0.458463
18.29	0.457499
18.308	0.456512
18.326	0.455490
18.344	0.454436
18.362	0.453365
18.38	0.452279
18.398	0.451191
18.416	0.450099
18.434	0.448999
18.452	0.447902
18.47	0.446812
18.488	0.445745
18.506	0.444713
18.524	0.443698
18.542	0.442695
18.56	0.441715
18.578	0.440761
18.596	0.439799
18.614	0.438829
18.632	0.437879
18.65	0.436947
18.668	0.435984
18.686	0.434996
18.704	0.433987
18.722	0.432953
18.74	0.431869
18.758	0.430747
18.776	0.429609
18.794	0.428445
18.812	0.427233
18.83	0.425983
18.848	0.424707
18.866	0.423404
18.884	0.422080
18.902	0.420737
18.92	0.419378
18.938	0.418006
18.956	0.416619
18.974	0.415235
18.992	0.413880
19.01	0.412544
19.028	0.411216
19.046	0.409909
19.064	0.408640
19.082	0.407400
19.1	0.406187
19.118	0.404996
19.136	0.403816
19.154	0.402649
19.172	0.401498
19.19	0.400358
19.208	0.399218
19.226	0.398080
19.244	0.396935
19.262	0.395787
19.28	0.394644
19.298	0.393503
19.316	0.392356
19.334	0.391206
19.352	0.390057
19.37	0.388910
19.388	0.387777
19.406	0.386658
19.424	0.385552
19.442	0.384457
19.46	0.383381
19.478	0.382323
19.496	0.381284
19.514	0.380264
19.532	0.379258
19.55	0.378268
19.568	0.377283
19.586	0.376291
19.604	0.375294
19.622	0.374290
19.64	0.373275
19.658	0.372235
19.676	0.371169
19.694	0.370069
19.712	0.368934
19.73	0.367762
19.748	0.366553
19.766	0.365294
19.784	0.363971
19.802	0.362609
19.82	0.361219
19.838	0.359797
19.856	0.358340
19.874	0.356852
19.892	0.355342
19.91	0.353810
19.928	0.352277
19.946	0.350745
19.964	0.349211
19.982	0.347673
20	0.346136
20.018	0.344603
20.036	0.343073
20.054	0.341546
20.072	0.340022
20.09	0.338496
20.108	0.336968
20.126	0.335433
20.144	0.333889
20.162	0.332342
20.18	0.330795
20.198	0.329245
20.216	0.327685
20.234	0.326120
20.252	0.324558
20.27	0.322999
20.288	0.321447
20.306	0.319903
20.324	0.318367
20.342	0.316837
20.36	0.315315
20.378	0.313806
20.396	0.312310
20.414	0.310820
20.432	0.309334
20.45	0.307861
20.468	0.306412
20.486	0.304973
20.504	0.303527
20.522	0.302079
20.54	0.300630
20.558	0.299184
20.576	0.297724
20.594	0.296238
20.612	0.294735
20.63	0.293221
20.648	0.291695
20.666	0.290137
20.684	0.288540
20.702	0.286920
20.72	0.285284
20.738	0.283631
20.756	0.281969
20.774	0.280295
20.792	0.278623
20.81	0.276954
20.828	0.275291
20.846	0.273639
20.864	0.271997
20.882	0.270383
20.9	0.268796
20.918	0.267241
20.936	0.265722
20.954	0.264239
20.972	0.262798
20.99	0.261399
21.008	0.260048
21.026	0.258750
21.044	0.257501
21.062	0.256302
21.08	0.255154
21.098	0.254048
21.116	0.252986
21.134	0.251961
21.152	0.250956
21.17	0.249976
21.188	0.249017
21.206	0.248084
21.224	0.247166
21.242	0.246246
21.26	0.245329
21.278	0.244401
21.296	0.243458
21.314	0.242499
21.332	0.241512
21.35	0.240501
21.368	0.239463
21.386	0.238399
21.404	0.237305
21.422	0.236170
21.44	0.234995
21.458	0.233782
21.476	0.232529
21.494	0.231240
21.512	0.229917
21.53	0.228560
21.548	0.227170
21.566	0.225745
21.584	0.224285
21.602	0.222803
21.62	0.221295
21.638	0.219772
21.656	0.218249
21.674	0.216722
21.692	0.215194
21.71	0.213664
21.728	0.212133
21.746	0.210610
21.764	0.209090
21.782	0.207582
21.8	0.206094
21.818	0.204622
21.836	0.203167
21.854	0.201727
21.872	0.200303
21.89	0.198895
21.908	0.197502
21.926	0.196126
21.944	0.194772
21.962	0.193438
21.98	0.192115
21.998	0.190801
22.016	0.189500
22.034	0.188219
22.052	0.186957
22.07	0.185715
22.088	0.184496
22.106	0.183301
22.124	0.182121
22.142	0.180949
22.16	0.179794
22.178	0.178668
22.196	0.177570
22.214	0.176502
22.232	0.175465
22.25	0.174462
22.268	0.173482
22.286	0.172519
22.304	0.171575
22.322	0.170655
22.34	0.169761
22.358	0.168890
22.376	0.168031
22.394	0.167187
22.412	0.166353
22.43	0.165527
22.448	0.164710
22.466	0.163895
22.484	0.163077
22.502	0.162260
22.52	0.161431
22.538	0.160585
22.556	0.159724
22.574	0.158851
22.592	0.157963
22.61	0.157062
22.628	0.156149
22.646	0.155224
22.664	0.154284
22.682	0.153323
22.7	0.152341
22.718	0.151342
22.736	0.150332
22.754	0.149307
22.772	0.148273
22.79	0.147233
22.808	0.146186
22.826	0.145134
22.844	0.144079
22.862	0.143019
22.88	0.141958
22.898	0.140896
22.916	0.139835
22.934	0.138769
22.952	0.137698
22.97	0.136623
22.988	0.135547
23.006	0.134472
23.024	0.133396
23.042	0.132314
23.06	0.131221
23.078	0.130123
23.096	0.129023
23.114	0.127925
23.132	0.126826
23.15	0.125723
23.168	0.124616
23.186	0.123505
23.204	0.122390
23.222	0.121269
23.24	0.120146
23.258	0.119025
23.276	0.117907
23.294	0.116791
23.312	0.115677
23.33	0.114561
23.348	0.113448
23.366	0.112345
23.384	0.111253
23.402	0.110171
23.42	0.109100
23.438	0.108043
23.456	0.106997
23.474	0.105963
23.492	0.104941
23.51	0.103930
23.528	0.102931
23.546	0.101944
23.564	0.100968
23.582	0.100004
23.6	0.099052
23.618	0.098111
23.636	0.097180
23.654	0.096257
23.672	0.095343
23.69	0.094437
23.708	0.093542
23.726	0.092658
23.744	0.091778
23.762	0.090893
23.78	0.090004
23.798	0.089116
23.816	0.088230
23.834	0.087346
23.852	0.086463
23.87	0.085579
23.888	0.084695
23.906	0.083810
23.924	0.082918
23.942	0.082017
23.96	0.081110
23.978	0.080202
23.996	0.079296
24.014	0.078391
24.032	0.077480
24.05	0.076562
24.068	0.075635
24.086	0.074706
24.104	0.073781
24.122	0.072857
24.14	0.071935
24.158	0.071018
24.176	0.070104
24.194	0.069193
24.212	0.068289
24.23	0.067390
24.248	0.066497
24.266	0.065612
24.284	0.064734
24.302	0.063864
24.32	0.063003
24.338	0.062156
24.356	0.061320
24.374	0.060497
24.392	0.059694
24.41	0.058913
24.428	0.058151
24.446	0.057403
24.464	0.056668
24.482	0.055948
24.5	0.055240
24.518	0.054544
24.536	0.053858
24.554	0.053185
24.572	0.052523
24.59	0.051875
24.608	0.051240
24.626	0.050608
24.644	0.049975
24.662	0.049344
24.68	0.048718
24.698	0.048101
24.716	0.047494
24.734	0.046893
24.752	0.046292
24.77	0.045691
24.788	0.045091
24.806	0.044490
24.824	0.043888
24.842	0.043283
24.86	0.042678
24.878	0.042072
24.896	0.041463
24.914	0.040854
24.932	0.040245
24.95	0.039637
24.968	0.039030
24.986	0.038424
25.004	0.037822
25.022	0.037221
25.04	0.036622
25.058	0.036032
25.076	0.035453
25.094	0.034882
25.112	0.034320
25.13	0.033770
25.148	0.033231
25.166	0.032702
25.184	0.032183
25.202	0.031673
25.22	0.031171
25.238	0.030682
25.256	0.030214
25.274	0.029767
25.292	0.029338
25.31	0.028923
25.328	0.028519
25.346	0.028129
25.364	0.027753
25.382	0.027392
25.4	0.027050
25.418	0.026722
25.436	0.026408
25.454	0.026103
25.472	0.025807
25.49	0.025524
25.508	0.025256
25.526	0.025006
25.544	0.024774
25.562	0.024552
25.58	0.024335
25.598	0.024126
25.616	0.023924
25.634	0.023727
25.652	0.023532
25.67	0.023340
25.688	0.023153
25.706	0.022969
25.724	0.022790
25.742	0.022617
25.76	0.022444
25.778	0.022268
25.796	0.022093
25.814	0.021916
25.832	0.021731
25.85	0.021536
25.868	0.021334
25.886	0.021122
25.904	0.020897
25.922	0.020655
25.94	0.020400
25.958	0.020132
25.976	0.019852
25.994	0.019561
26.012	0.019258
26.03	0.018945
26.048	0.018626
26.066	0.018299
26.084	0.017964
26.102	0.017623
26.12	0.017275
26.138	0.016919
26.156	0.016559
26.174	0.016197
26.192	0.015834
26.21	0.015468
26.228	0.015104
26.246	0.014748
26.264	0.014401
26.282	0.014060
26.3	0.013728
26.318	0.013408
26.336	0.013096
26.354	0.012793
26.372	0.012504
26.39	0.012231
26.408	0.011976
26.426	0.011735
26.444	0.011507
26.462	0.011289
26.48	0.011082
26.498	0.010886
26.516	0.010701
26.534	0.010524
26.552	0.010357
26.57	0.010200
26.588	0.010051
26.606	0.009910
26.624	0.009780
26.642	0.009656
26.66	0.009534
26.678	0.009412
26.696	0.009292
26.714	0.009173
26.732	0.009052
26.75	0.008929
26.768	0.008805
26.786	0.008679
26.804	0.008551
26.822	0.008423
26.84	0.008293
26.858	0.008161
26.876	0.008029
26.894	0.007894
26.912	0.007757
26.93	0.007620
26.948	0.007484
26.966	0.007346
26.984	0.007195
27.002	0.007054
27.02	0.006943
27.028	0.006914