File: Bakgrunnsmateriale/MATLAB/FTIR/ftir_data/subAa/Mapping_121/BZ1503107-1_t42_cm-1.asc
PE IR       SPECTRUM    SPECTRUM    ASCII       PEDS        1.60
  -1
BZ6A24~1.ASC
17/04/07
16:38:14.00
17/04/07
16:38:14.00
tln
$BZ1503107-1_t0042$<tbV0>[-7.8,-5.2,8.0,0.0,27,1,0]
370
64

2002,4.07
MIRTGS : RIGHTBACK : INTERNAL 2
MIR : ON : INTERNAL 2
OPTKBR

0.200000
8
8.000000
FILLER
RATIO
SPECTRUM
UNLOCKED 256

DOUBLE
64
COMBINED
1
0
0

1.000000
RATIO

1
0
TRUE
51149
0
LEFT NOT FITTED RIGHT NOT FITTED 0
NONE
NONE
15600
12
4.427000
51148
TRUE
1 0 8 72 0 0 0 0

15798

#HDR
-1
-1
#GR
CM-1
%T
2.38419e-05
0.0
5000
-1.000000
4631
8
83.8529
53.6477
#DATA
5000	65.1069
4996	64.9754
4992	65.0327
4988	65.0641
4984	64.8721
4980	64.5623
4976	64.3865
4972	64.2591
4968	64.1208
4964	64.3241
4960	64.6175
4956	64.5432
4952	64.4085
4948	64.3808
4944	64.2912
4940	64.2526
4936	64.1098
4932	63.8776
4928	64.1204
4924	64.6063
4920	64.7742
4916	64.6057
4912	64.452
4908	64.577
4904	64.6959
4900	64.5511
4896	64.3788
4892	64.4163
4888	64.451
4884	64.4628
4880	64.6622
4876	64.8644
4872	64.8613
4868	64.8488
4864	65.1087
4860	65.367
4856	65.3182
4852	65.1029
4848	65.0204
4844	65.1296
4840	65.0634
4836	64.8103
4832	64.6898
4828	64.8588
4824	65.1721
4820	65.2132
4816	65.0805
4812	65.1297
4808	65.1051
4804	64.8626
4800	64.7734
4796	64.9864
4792	65.3229
4788	65.4363
4784	65.118
4780	64.7467
4776	64.8059
4772	65.1097
4768	65.2626
4764	65.2131
4760	65.1699
4756	65.485
4752	65.8595
4748	65.8049
4744	65.5439
4740	65.4481
4736	65.4902
4732	65.4548
4728	65.4743
4724	65.5849
4720	65.5984
4716	65.6466
4712	65.7758
4708	65.7535
4704	65.6114
4700	65.4602
4696	65.356
4692	65.294
4688	65.172
4684	65.0593
4680	65.1066
4676	65.3533
4672	65.4586
4668	65.2725
4664	65.1689
4660	65.1674
4656	65.1523
4652	65.2518
4648	65.4207
4644	65.4068
4640	65.1429
4636	64.8644
4632	64.7427
4628	64.7905
4624	64.8083
4620	64.6804
4616	64.6151
4612	64.7103
4608	64.8495
4604	64.776
4600	64.552
4596	64.5823
4592	64.6888
4588	64.5443
4584	64.4189
4580	64.4553
4576	64.4451
4572	64.3727
4568	64.2936
4564	64.279
4560	64.2049
4556	63.9591
4552	63.904
4548	64.1052
4544	64.3201
4540	64.3766
4536	64.2007
4532	63.9766
4528	63.8344
4524	63.7612
4520	63.9365
4516	64.3738
4512	64.5469
4508	64.3615
4504	64.1073
4500	63.7863
4496	63.549
4492	63.4693
4488	63.5736
4484	63.8442
4480	63.698
4476	63.1585
4472	63.0299
4468	63.1614
4464	63.1528
4460	63.5105
4456	64.0724
4452	64.2216
4448	64.4616
4444	64.4325
4440	64.9307
4436	66.2949
4432	68.3632
4428	73.3072
4424	80.9714
4420	83.468
4416	77.2129
4412	75.3436
4408	78.5445
4404	73.8514
4400	67.0759
4396	65.8001
4392	65.6825
4388	64.8241
4384	64.4902
4380	64.5996
4376	64.2208
4372	63.9177
4368	63.8498
4364	63.7446
4360	63.8855
4356	64.1602
4352	64.2143
4348	64.0815
4344	64.0164
4340	64.0543
4336	64.0924
4332	64.1318
4328	64.1228
4324	64.1468
4320	64.2002
4316	64.1006
4312	64.0292
4308	64.1426
4304	64.2508
4300	64.3011
4296	64.4125
4292	64.5063
4288	64.5284
4284	64.4837
4280	64.3291
4276	64.2778
4272	64.4375
4268	64.6217
4264	64.6792
4260	64.5574
4256	64.3908
4252	64.392
4248	64.5064
4244	64.587
4240	64.6872
4236	64.8035
4232	64.8808
4228	64.9197
4224	64.9434
4220	65.0718
4216	65.2219
4212	65.1592
4208	64.9434
4204	64.857
4200	64.9087
4196	64.988
4192	65.018
4188	64.9512
4184	64.996
4180	65.0583
4176	64.9507
4172	64.8391
4168	64.8998
4164	65.0202
4160	65.1292
4156	65.2007
4152	65.1838
4148	65.3902
4144	65.7164
4140	65.7263
4136	65.487
4132	65.2164
4128	65.068
4124	65.1266
4120	65.2425
4116	65.2877
4112	65.4413
4108	65.6484
4104	65.5298
4100	65.2247
4096	65.1129
4092	65.1296
4088	65.2036
4084	65.2555
4080	65.2491
4076	65.368
4072	65.434
4068	65.3233
4064	65.2383
4060	65.2653
4056	65.3376
4052	65.3343
4048	65.2998
4044	65.2402
4040	65.2073
4036	65.2298
4032	65.1184
4028	65.0456
4024	65.1963
4020	65.3494
4016	65.3938
4012	65.3759
4008	65.3901
4004	65.4319
4000	65.3948
3996	65.408
3992	65.4412
3988	65.307
3984	65.1733
3980	65.1583
3976	65.1797
3972	65.1901
3968	65.1302
3964	65.1076
3960	65.1858
3956	65.1868
3952	65.1093
3948	65.1393
3944	65.1787
3940	65.0631
3936	65.0207
3932	65.1499
3928	65.2139
3924	65.1189
3920	65.0435
3916	65.1356
3912	65.2225
3908	65.1523
3904	65.1063
3900	65.1283
3896	65.0929
3892	65.0458
3888	64.9906
3884	64.9253
3880	64.9186
3876	65.0282
3872	65.1074
3868	64.9892
3864	64.8555
3860	64.8813
3856	64.9993
3852	65.0619
3848	64.9795
3844	64.9458
3840	65.0702
3836	65.1067
3832	65.0843
3828	65.131
3824	65.0859
3820	65.0289
3816	65.1074
3812	65.142
3808	65.1727
3804	65.2918
3800	65.3343
3796	65.3078
3792	65.3093
3788	65.2771
3784	65.2068
3780	65.1657
3776	65.0679
3772	65.0134
3768	65.1426
3764	65.241
3760	65.1524
3756	64.9812
3752	64.9897
3748	65.2771
3744	65.4305
3740	65.3023
3736	65.1952
3732	65.2
3728	65.2554
3724	65.2575
3720	65.1881
3716	65.1588
3712	65.2289
3708	65.304
3704	65.3558
3700	65.4505
3696	65.4914
3692	65.3579
3688	65.2178
3684	65.2054
3680	65.1657
3676	65.2031
3672	65.3982
3668	65.5045
3664	65.504
3660	65.4724
3656	65.3788
3652	65.3132
3648	65.3017
3644	65.2583
3640	65.1545
3636	65.0857
3632	65.1748
3628	65.294
3624	65.361
3620	65.4494
3616	65.4816
3612	65.416
3608	65.3599
3604	65.3594
3600	65.3175
3596	65.2519
3592	65.2856
3588	65.3271
3584	65.3021
3580	65.2134
3576	65.0907
3572	65.0548
3568	65.0804
3564	65.1343
3560	65.2304
3556	65.2551
3552	65.1554
3548	65.0233
3544	64.9936
3540	65.0968
3536	65.1496
3532	65.1242
3528	65.1334
3524	65.1363
3520	65.0927
3516	65.0406
3512	65.0481
3508	65.1077
3504	65.1344
3500	65.1075
3496	65.0773
3492	65.0664
3488	65.024
3484	64.9524
3480	64.9428
3476	65.0191
3472	65.1063
3468	65.1398
3464	65.138
3460	65.1679
3456	65.1695
3452	65.0943
3448	65.0249
3444	64.9752
3440	64.9364
3436	64.9585
3432	65.0296
3428	65.0791
3424	65.1361
3420	65.1782
3416	65.1432
3412	65.1603
3408	65.2501
3404	65.2725
3400	65.2552
3396	65.2738
3392	65.2732
3388	65.2733
3384	65.3284
3380	65.325
3376	65.2413
3372	65.1535
3368	65.0887
3364	65.1003
3360	65.1806
3356	65.2637
3352	65.2702
3348	65.2507
3344	65.2994
3340	65.3077
3336	65.2297
3332	65.1527
3328	65.1271
3324	65.1424
3320	65.1542
3316	65.1299
3312	65.0825
3308	65.1019
3304	65.0948
3300	64.975
3296	64.9088
3292	64.9165
3288	64.9335
3284	65.0138
3280	65.1334
3276	65.1861
3272	65.162
3268	65.1691
3264	65.1746
3260	65.1177
3256	65.1102
3252	65.196
3248	65.2586
3244	65.1855
3240	65.1007
3236	65.1417
3232	65.1815
3228	65.1978
3224	65.2309
3220	65.1772
3216	65.104
3212	65.1368
3208	65.1867
3204	65.1215
3200	65.0289
3196	65.0268
3192	65.0519
3188	65.0758
3184	65.1053
3180	65.1315
3176	65.1252
3172	65.0417
3168	64.9774
3164	65.0729
3160	65.2267
3156	65.2062
3152	65.0944
3148	65.0696
3144	65.0743
3140	65.0391
3136	65.0582
3132	65.2198
3128	65.3309
3124	65.263
3120	65.1599
3116	65.0619
3112	65.0233
3108	65.0968
3104	65.1622
3100	65.2368
3096	65.2899
3092	65.1787
3088	65.0074
3084	64.9278
3080	64.9668
3076	65.0579
3072	65.0929
3068	65.058
3064	65.015
3060	65.0126
3056	65.0358
3052	65.0663
3048	65.073
3044	65.0527
3040	65.058
3036	65.0234
3032	64.9765
3028	64.9881
3024	64.9794
3020	64.9779
3016	65.0169
3012	65.0441
3008	65.0573
3004	65.0821
3000	65.1116
2996	65.0924
2992	65.07
2988	65.0948
2984	65.083
2980	65.0148
2976	64.9702
2972	64.9458
2968	64.8847
2964	64.8742
2960	65.0005
2956	65.1117
2952	65.092
2948	65.0553
2944	65.0647
2940	65.0673
2936	65.0638
2932	65.0623
2928	65.094
2924	65.1647
2920	65.135
2916	65
2912	64.9571
2908	64.9857
2904	64.9812
2900	65.0152
2896	65.0433
2892	65.0185
2888	65.0712
2884	65.1248
2880	65.0527
2876	64.964
2872	64.9538
2868	65.0196
2864	65.1194
2860	65.183
2856	65.1824
2852	65.135
2848	65.0846
2844	65.0478
2840	65.0067
2836	64.9983
2832	65.0743
2828	65.1788
2824	65.1869
2820	65.11
2816	65.0914
2812	65.111
2808	65.0906
2804	65.0743
2800	65.1062
2796	65.1771
2792	65.1953
2788	65.1668
2784	65.1235
2780	65.051
2776	65.0548
2772	65.1321
2768	65.1552
2764	65.1409
2760	65.165
2756	65.2161
2752	65.2426
2748	65.2332
2744	65.1766
2740	65.0392
2736	64.9121
2732	64.9209
2728	65.03
2724	65.1362
2720	65.182
2716	65.1602
2712	65.0738
2708	64.9936
2704	65.0415
2700	65.1388
2696	65.1548
2692	65.1058
2688	65.0439
2684	65.01
2680	65.0365
2676	65.1022
2672	65.1102
2668	65.0451
2664	64.9975
2660	65.0376
2656	65.1064
2652	65.1128
2648	65.0722
2644	65.0358
2640	65.0317
2636	65.0243
2632	65.0004
2628	64.9741
2624	64.9214
2620	64.8784
2616	64.8599
2612	64.8813
2608	64.962
2604	65.0142
2600	65.0406
2596	65.0574
2592	65.0177
2588	64.9855
2584	64.9922
2580	64.9714
2576	64.9497
2572	64.958
2568	64.9924
2564	65.0431
2560	65.0501
2556	65.031
2552	65.0297
2548	65.0202
2544	65.0081
2540	65.0129
2536	65.0449
2532	65.0871
2528	65.0236
2524	64.8827
2520	64.8513
2516	64.9629
2512	65.1007
2508	65.146
2504	65.0857
2500	64.9581
2496	64.8528
2492	64.8763
2488	64.9475
2484	64.9699
2480	64.9842
2476	65.0021
2472	64.9799
2468	64.9247
2464	64.8933
2460	64.9067
2456	64.9456
2452	64.961
2448	64.9104
2444	64.8863
2440	64.9402
2436	64.9526
2432	64.9347
2428	64.9122
2424	64.8564
2420	64.8702
2416	64.9596
2412	65.0286
2408	65.0571
2404	65.0431
2400	65.0198
2396	65.054
2392	65.1086
2388	65.0855
2384	64.9979
2380	64.9023
2376	64.8686
2372	64.9187
2368	64.9403
2364	64.9084
2360	64.9207
2356	64.9556
2352	64.9663
2348	64.9571
2344	64.9343
2340	64.9415
2336	64.9565
2332	64.9428
2328	64.8974
2324	64.8924
2320	64.9678
2316	65.0086
2312	64.9936
2308	64.9635
2304	64.9297
2300	64.901
2296	64.8771
2292	64.9023
2288	64.9318
2284	64.8993
2280	64.8712
2276	64.8787
2272	64.901
2268	64.9052
2264	64.8621
2260	64.8168
2256	64.7983
2252	64.8191
2248	64.8813
2244	64.9234
2240	64.9148
2236	64.9553
2232	65.0322
2228	64.9867
2224	64.8792
2220	64.83
2216	64.8342
2212	64.8587
2208	64.8886
2204	64.9546
2200	65.0063
2196	64.9855
2192	64.9464
2188	64.9283
2184	64.942
2180	64.9191
2176	64.8417
2172	64.8463
2168	64.9091
2164	64.9315
2160	64.9273
2156	64.9012
2152	64.8267
2148	64.7434
2144	64.7531
2140	64.812
2136	64.857
2132	64.8812
2128	64.8298
2124	64.7454
2120	64.6982
2116	64.7219
2112	64.7963
2108	64.8216
2104	64.7911
2100	64.7769
2096	64.7844
2092	64.7748
2088	64.7526
2084	64.74
2080	64.7713
2076	64.8382
2072	64.8642
2068	64.8539
2064	64.8635
2060	64.8886
2056	64.9141
2052	64.8857
2048	64.8406
2044	64.8245
2040	64.7636
2036	64.7103
2032	64.7431
2028	64.7902
2024	64.8019
2020	64.8113
2016	64.8243
2012	64.8355
2008	64.8545
2004	64.8494
2000	64.7908
1996	64.7446
1992	64.7197
1988	64.6891
1984	64.7068
1980	64.7379
1976	64.7466
1972	64.7912
1968	64.8188
1964	64.776
1960	64.7455
1956	64.7657
1952	64.7875
1948	64.7371
1944	64.6862
1940	64.7075
1936	64.7189
1932	64.7144
1928	64.7736
1924	64.8458
1920	64.8121
1916	64.708
1912	64.6573
1908	64.6727
1904	64.6977
1900	64.6709
1896	64.6168
1892	64.6314
1888	64.7056
1884	64.7348
1880	64.7279
1876	64.7522
1872	64.7617
1868	64.7268
1864	64.6693
1860	64.6255
1856	64.6641
1852	64.755
1848	64.8025
1844	64.7833
1840	64.7368
1836	64.7019
1832	64.6722
1828	64.6574
1824	64.657
1820	64.6561
1816	64.6549
1812	64.6057
1808	64.5537
1804	64.6027
1800	64.6729
1796	64.6781
1792	64.6412
1788	64.5639
1784	64.5229
1780	64.5662
1776	64.6081
1772	64.5807
1768	64.5524
1764	64.5887
1760	64.5851
1756	64.5401
1752	64.5145
1748	64.434
1744	64.3489
1740	64.3261
1736	64.3048
1732	64.3015
1728	64.3456
1724	64.4123
1720	64.51
1716	64.5572
1712	64.4795
1708	64.4469
1704	64.543
1700	64.5943
1696	64.5339
1692	64.5004
1688	64.4992
1684	64.4699
1680	64.4791
1676	64.5351
1672	64.5725
1668	64.5869
1664	64.5696
1660	64.5084
1656	64.4705
1652	64.4741
1648	64.4622
1644	64.4246
1640	64.423
1636	64.4289
1632	64.3901
1628	64.3778
1624	64.3773
1620	64.337
1616	64.3183
1612	64.3576
1608	64.3872
1604	64.3557
1600	64.3174
1596	64.3464
1592	64.3889
1588	64.346
1584	64.2476
1580	64.1818
1576	64.2028
1572	64.2962
1568	64.3862
1564	64.4118
1560	64.3415
1556	64.2327
1552	64.1648
1548	64.1731
1544	64.2083
1540	64.198
1536	64.2099
1532	64.2725
1528	64.2838
1524	64.2536
1520	64.3158
1516	64.413
1512	64.3906
1508	64.3416
1504	64.3525
1500	64.3725
1496	64.3542
1492	64.2599
1488	64.2422
1484	64.3587
1480	64.4353
1476	64.4035
1472	64.3178
1468	64.2673
1464	64.2993
1460	64.3967
1456	64.4894
1452	64.4879
1448	64.4074
1444	64.3709
1440	64.4264
1436	64.4524
1432	64.3728
1428	64.3225
1424	64.3524
1420	64.337
1416	64.2784
1412	64.248
1408	64.2363
1404	64.238
1400	64.2627
1396	64.2655
1392	64.2572
1388	64.2901
1384	64.2799
1380	64.2366
1376	64.2822
1372	64.3296
1368	64.2684
1364	64.1631
1360	64.1129
1356	64.1389
1352	64.1639
1348	64.1765
1344	64.2226
1340	64.2837
1336	64.2954
1332	64.2143
1328	64.1412
1324	64.1174
1320	64.09
1316	64.0883
1312	64.1255
1308	64.1821
1304	64.215
1300	64.192
1296	64.1602
1292	64.1423
1288	64.1356
1284	64.133
1280	64.1363
1276	64.1682
1272	64.1692
1268	64.1518
1264	64.1744
1260	64.1526
1256	64.1091
1252	64.1508
1248	64.1496
1244	64.0511
1240	64.0407
1236	64.1658
1232	64.2596
1228	64.2058
1224	64.106
1220	64.098
1216	64.1683
1212	64.1892
1208	64.0978
1204	64.0396
1200	64.0717
1196	64.0734
1192	64.0301
1188	64.0084
1184	64.038
1180	64.0896
1176	64.0638
1172	64.0022
1168	64.0225
1164	64.0386
1160	64.0092
1156	64.0128
1152	64.0198
1148	64.0098
1144	63.9793
1140	63.9179
1136	63.8998
1132	63.9377
1128	63.9662
1124	63.9699
1120	63.9922
1116	63.9797
1112	63.8972
1108	63.8913
1104	64.0227
1100	64.1092
1096	64.0712
1092	64.0489
1088	64.056
1084	63.9989
1080	63.9216
1076	63.895
1072	63.9116
1068	63.9726
1064	63.9942
1060	63.9256
1056	63.9182
1052	63.9921
1048	63.9865
1044	63.9529
1040	63.9671
1036	63.9841
1032	64.0128
1028	64.0146
1024	64.0104
1020	64.0118
1016	63.9914
1012	63.9674
1008	63.9205
1004	63.944
1000	64.0855
996	 64.1239
992	 64.0331
988	 63.979
984	 64.0215
980	 64.141
976	 64.1397
972	 64.0727
968	 64.1027
964	 64.0832
960	 63.9865
956	 63.9976
952	 64.174
948	 64.2297
944	 64.0929
940	 64.0485
936	 64.0806
932	 64.079
928	 64.0492
924	 63.9869
920	 63.9867
916	 64.0887
912	 64.1528
908	 64.1248
904	 64.0507
900	 64.0194
896	 64.1584
892	 64.2352
888	 64.0826
884	 63.9985
880	 64.0563
876	 64.0972
872	 64.1177
868	 64.1505
864	 64.1026
860	 63.9792
856	 63.9883
852	 64.0396
848	 63.98
844	 63.9572
840	 64.0267
836	 64.0911
832	 64.0712
828	 63.9826
824	 63.885
820	 63.8187
816	 63.7699
812	 63.7922
808	 63.9445
804	 64.0434
800	 64.0872
796	 64.2741
792	 64.3394
788	 64.1702
784	 63.9941
780	 63.7594
776	 63.724
772	 63.9537
768	 63.9066
764	 63.6417
760	 63.6312
756	 63.787
752	 63.8091
748	 63.783
744	 63.8099
740	 63.8231
736	 63.8565
732	 63.7651
728	 63.356
724	 62.979
720	 63.0219
716	 63.2194
712	 63.4479
708	 63.9793
704	 64.5726
700	 64.5103
696	 63.8313
692	 63.364
688	 63.2132
684	 63.4415
680	 64.0949
676	 64.4019
672	 64.2271
668	 64.2649
664	 64.2103
660	 63.6506
656	 63.3786
652	 63.4705
648	 63.413
644	 63.584
640	 64.0369
636	 64.1397
632	 63.9496
628	 63.9605
624	 64.1329
620	 63.9354
616	 63.4525
612	 63.4101
608	 63.7522
604	 64.0474
600	 64.3454
596	 64.3581
592	 63.8019
588	 63.3697
584	 63.3045
580	 63.3824
576	 63.7432
572	 63.7375
568	 63.1841
564	 63.0872
560	 63.5185
556	 63.9154
552	 64.0452
548	 63.571
544	 62.7953
540	 62.3349
536	 62.315
532	 62.716
528	 63.1179
524	 63.135
520	 63.1273
516	 63.3126
512	 63.4476
508	 63.5525
504	 63.5602
500	 63.2256
496	 62.8544
492	 62.7851
488	 63.0274
484	 63.5784
480	 64.0724
476	 64.0006
472	 63.6519
468	 63.4147
464	 63.285
460	 63.4478
456	 63.3877
452	 62.9318
448	 62.4563
444	 61.6676
440	 61.2528
436	 62.0386
432	 63.1296
428	 63.5634
424	 63.5301
420	 63.2344
416	 62.9418
412	 61.8944
408	 60.4466
404	 58.9031
400	 54.9242
396	 54.7544
392	 65.6276
388	 80.0932
384	 79.9949
380	 64.8431
376	 57.9548
372	 63.1168
370	 65.5193