File: Bakgrunnsmateriale/MATLAB/FTIR/ftir_data/subAa/Mapping_121/BZ1503107-1_t14.asc
PE IR       SPECTRUM    SPECTRUM    ASCII       PEDS        1.60
  -1
BZ295B~1.ASC
17/04/07
14:21:08.00
17/04/07
14:21:34.00
tln
$BZ1503107-1_t0014$<tbV0>[7.8,-10.4,8.0,0.0,27,1,0]
27.028
64

2002,4.07
MIRTGS : RIGHTBACK : INTERNAL 2
MIR : ON : INTERNAL 2
OPTKBR

0.200000
8
8.000000
FILLER
RATIO
SPECTRUM
UNLOCKED 256

DOUBLE
64
COMBINED
1
0
0

0.002000
RATIO

1
0
TRUE
51149
0
LEFT NOT FITTED RIGHT NOT FITTED 0
NONE
NONE
15600
12
4.427000
51148
TRUE
1 0 8 72 0 0 0 0

15798

#HDR
-1
-1
#GR
µM
%T
2.38419e-05
0.0
2.000000
0.002000
12515
8
98.3437
52.1636
#DATA
2.000000	 64.0523
2.018000	 63.5971
2.036000	 64.556
2.054000	 64.861
2.072000	 64.9684
2.090000	 65.3181
2.108000	 65.1297
2.126000	 64.4611
2.144000	 64.9365
2.162000	 64.324
2.180000	 64.829
2.198000	 64.2662
2.216000	 64.5115
2.234000	 68.1789
2.252000	 68.759
2.270000	 65.2624
2.288000	 64.6453
2.306000	 64.746
2.324000	 65.202
2.342000	 64.9935
2.360000	 65.3376
2.378000	 65.3978
2.396000	 64.8139
2.414000	 65.0514
2.432000	 65.5905
2.450000	 65.1925
2.468000	 65.4114
2.486000	 65.1269
2.504000	 65.3382
2.522000	 65.1126
2.540000	 65.3131
2.558000	 65.0687
2.576000	 65.2557
2.594000	 65.3487
2.612000	 65.3569
2.630000	 65.3472
2.648000	 65.1656
2.666000	 65.5143
2.684000	 65.0596
2.702000	 65.2487
2.720000	 65.4649
2.738000	 65.163
2.756000	 65.4172
2.774000	 65.4269
2.792000	 65.2916
2.810000	 65.0204
2.828000	 65.1768
2.846000	 65.2172
2.864000	 65.0147
2.882000	 65.0824
2.900000	 65.2148
2.918000	 65.2124
2.936000	 65.2382
2.954000	 65.0412
2.972000	 65.2091
2.990000	 64.915
3.008000	 65.1315
3.026000	 65.1425
3.044000	 65.4178
3.062000	 65.2321
3.080000	 65.1474
3.098000	 65.266
3.116000	 65.2975
3.134000	 65.1725
3.152000	 65.3398
3.170000	 65.2251
3.188000	 65.1495
3.206000	 65.2872
3.224000	 65.2199
3.242000	 65.2571
3.260000	 65.2631
3.278000	 65.0864
3.296000	 65.2387
3.314000	 65.1772
3.332000	 65.3906
3.350000	 65.2406
3.368000	 65.173
3.386000	 65.1822
3.404000	 65.0314
3.422000	 65.0469
3.440000	 65.1025
3.458000	 65.0378
3.476000	 65.0475
3.494000	 65.1622
3.512000	 65.0988
3.530000	 65.1767
3.548000	 65.1017
3.566000	 65.0875
3.584000	 65.0217
3.602000	 65.0701
3.620000	 65.0868
3.638000	 65.0169
3.656000	 65.2675
3.674000	 65.1753
3.692000	 65.1294
3.710000	 65.137
3.728000	 65.0593
3.746000	 65.0296
3.764000	 65.0955
3.782000	 65.0776
3.800000	 64.9607
3.818000	 65.0309
3.836000	 64.9576
3.854000	 65.1572
3.872000	 65.1344
3.890000	 65.1068
3.908000	 65.0762
3.926000	 65.12
3.944000	 65.0235
3.962000	 65.065
3.980000	 65.1789
3.998000	 65.0969
4.016000	 65.1384
4.034000	 65.0808
4.052000	 65.0214
4.070000	 65.0192
4.088000	 65.0193
4.106000	 64.9253
4.124000	 64.9133
4.141999	 65.0063
4.160000	 64.9592
4.178000	 65.047
4.196000	 65.0625
4.214000	 65.078
4.232000	 65.0947
4.250000	 65.0089
4.268000	 65.0385
4.286000	 64.9394
4.304000	 64.9008
4.322000	 65.1396
4.340000	 64.9844
4.358000	 65.0481
4.375999	 64.9585
4.394000	 64.9797
4.412000	 65.0431
4.430000	 65.0485
4.448000	 65.0067
4.466000	 64.9374
4.484000	 64.866
4.502000	 64.9351
4.520000	 64.8216
4.538000	 64.9552
4.556000	 64.9606
4.574000	 64.9302
4.592000	 65.0301
4.609999	 65.0194
4.628000	 64.9349
4.646000	 64.7024
4.664000	 64.7873
4.682000	 64.8255
4.700000	 64.9406
4.718000	 64.9311
4.736000	 64.8535
4.754000	 64.9413
4.772000	 64.8622
4.790000	 64.8922
4.808000	 64.8882
4.826000	 64.9853
4.843999	 64.9194
4.862000	 64.9042
4.880000	 64.9614
4.898000	 64.8425
4.916000	 64.7983
4.934000	 64.9653
4.952000	 64.9154
4.970000	 64.9741
4.988000	 64.8873
5.006000	 64.8112
5.024000	 64.8378
5.042000	 64.9357
5.060000	 64.9724
5.077999	 64.96
5.096000	 64.897
5.114000	 64.8648
5.132000	 64.8765
5.150000	 64.8872
5.168000	 64.8964
5.186000	 64.811
5.204000	 64.8364
5.222000	 64.9484
5.240000	 64.92
5.258000	 64.8248
5.276000	 64.8317
5.294000	 64.912
5.312000	 64.8534
5.330000	 64.8666
5.348000	 64.8614
5.366000	 64.794
5.384000	 64.6726
5.402000	 64.8217
5.420000	 64.9653
5.438000	 64.898
5.456000	 64.9308
5.474000	 64.8121
5.492000	 64.8277
5.510000	 64.8825
5.528000	 64.9025
5.546000	 64.8813
5.564000	 64.8396
5.582000	 64.822
5.600000	 64.8412
5.618000	 64.8525
5.636000	 64.8924
5.654000	 64.889
5.672000	 64.8138
5.690000	 64.8088
5.708000	 64.7464
5.726000	 64.6882
5.744000	 64.7478
5.762000	 64.8227
5.780000	 64.6867
5.798000	 64.6311
5.816000	 64.7906
5.834000	 64.8629
5.852000	 64.7773
5.870000	 64.7736
5.888000	 64.8707
5.906000	 64.7808
5.923999	 64.6856
5.942000	 64.6809
5.960000	 64.7169
5.978000	 64.7105
5.996000	 64.6827
6.014000	 64.7268
6.032000	 64.7845
6.050000	 64.8272
6.068000	 64.7881
6.086000	 64.7157
6.104000	 64.6676
6.122000	 64.6962
6.140000	 64.7067
6.158000	 64.7096
6.176000	 64.7483
6.194000	 64.7095
6.212000	 64.6644
6.230000	 64.6766
6.248000	 64.6431
6.266000	 64.6623
6.284000	 64.6866
6.302000	 64.6934
6.320000	 64.7718
6.338000	 64.8434
6.356000	 64.8127
6.374000	 64.7297
6.392000	 64.7423
6.410000	 64.8565
6.428000	 64.8276
6.446000	 64.7172
6.464000	 64.7468
6.482000	 64.8009
6.500000	 64.7331
6.518000	 64.6254
6.536000	 64.5836
6.554000	 64.6323
6.572000	 64.7368
6.590000	 64.7917
6.608000	 64.7582
6.626000	 64.7397
6.644000	 64.7291
6.662000	 64.6985
6.680000	 64.7254
6.698000	 64.7189
6.716000	 64.7061
6.734000	 64.7213
6.752000	 64.689
6.770000	 64.6787
6.788000	 64.6907
6.806000	 64.6672
6.824000	 64.6459
6.842000	 64.7138
6.860000	 64.8182
6.878000	 64.7521
6.896000	 64.5944
6.914000	 64.5536
6.932000	 64.5656
6.950000	 64.5974
6.968000	 64.6314
6.986000	 64.5796
7.004000	 64.5007
7.022000	 64.4882
7.040000	 64.495
7.058000	 64.4561
7.076000	 64.4105
7.094000	 64.4295
7.112000	 64.4858
7.130000	 64.5139
7.148000	 64.5043
7.166000	 64.4674
7.184000	 64.4487
7.202000	 64.4667
7.220000	 64.4613
7.238000	 64.4366
7.256000	 64.4197
7.274000	 64.3797
7.292000	 64.352
7.310000	 64.4056
7.328000	 64.511
7.346000	 64.5846
7.364000	 64.5842
7.382000	 64.5422
7.400000	 64.5211
7.418000	 64.5436
7.436000	 64.5721
7.454000	 64.5479
7.472000	 64.4702
7.490000	 64.4127
7.508000	 64.418
7.526000	 64.4569
7.544000	 64.4922
7.562000	 64.5129
7.580000	 64.5116
7.598000	 64.4926
7.616000	 64.479
7.634000	 64.4702
7.652000	 64.4475
7.670000	 64.4295
7.688000	 64.4468
7.706000	 64.4834
7.724000	 64.5082
7.742000	 64.5207
7.760000	 64.5229
7.778000	 64.5005
7.796000	 64.4492
7.814000	 64.3867
7.832000	 64.3391
7.850000	 64.3274
7.868000	 64.3502
7.886000	 64.3826
7.904000	 64.4057
7.922000	 64.4161
7.940000	 64.4085
7.958000	 64.3854
7.976000	 64.3708
7.994000	 64.373
8.012000	 64.3614
8.030000	 64.3258
8.048000	 64.2987
8.065999	 64.289
8.084000	 64.2606
8.102000	 64.2083
8.120000	 64.1925
8.138000	 64.2561
8.155999	 64.3607
8.173999	 64.4343
8.192000	 64.4555
8.210000	 64.4532
8.228000	 64.4444
8.246000	 64.4159
8.263999	 64.3642
8.282000	 64.3163
8.300000	 64.301
8.318000	 64.3186
8.336000	 64.3483
8.353999	 64.3715
8.372000	 64.3851
8.390000	 64.403
8.408000	 64.4363
8.426000	 64.4721
8.443999	 64.4803
8.462000	 64.4389
8.480000	 64.3571
8.498000	 64.2753
8.516000	 64.2357
8.533999	 64.2434
8.552000	 64.2605
8.570000	 64.2503
8.588000	 64.2174
8.606000	 64.1909
8.624000	 64.1766
8.641999	 64.1512
8.660000	 64.1047
8.678000	 64.0625
8.696000	 64.0542
8.714000	 64.0832
8.731999	 64.1358
8.750000	 64.1986
8.768000	 64.2555
8.786000	 64.2839
8.804000	 64.2763
8.821999	 64.2569
8.840000	 64.2612
8.858000	 64.301
8.876000	 64.356
8.894000	 64.3928
8.911999	 64.3907
8.930000	 64.3528
8.948000	 64.2995
8.966000	 64.2479
8.984000	 64.1982
9.001999	 64.145
9.020000	 64.1034
9.038000	 64.1074
9.056000	 64.1732
9.074000	 64.2717
9.092000	 64.3525
9.109999	 64.3949
9.128000	 64.4206
9.146000	 64.4549
9.164000	 64.4901
9.182000	 64.5016
9.199999	 64.4856
9.218000	 64.4635
9.236000	 64.4537
9.254000	 64.452
9.272000	 64.4441
9.289999	 64.4247
9.308000	 64.3959
9.326000	 64.354
9.344000	 64.2935
9.362000	 64.2215
9.379999	 64.159
9.398000	 64.1244
9.416000	 64.1235
9.434000	 64.1514
9.452000	 64.2015
9.469999	 64.2649
9.488000	 64.3246
9.506000	 64.357
9.524000	 64.3468
9.542000	 64.2987
9.560000	 64.2328
9.577999	 64.1675
9.596000	 64.1098
9.614000	 64.0592
9.632000	 64.0193
9.650000	 64.0012
9.667999	 64.0143
9.686000	 64.0527
9.704000	 64.095
9.722000	 64.12
9.740000	 64.1233
9.757999	 64.12
9.776000	 64.1293
9.794000	 64.1587
9.812000	 64.1976
9.830000	 64.2264
9.847999	 64.2322
9.866000	 64.2166
9.884000	 64.1929
9.902000	 64.1783
9.920000	 64.1828
9.937999	 64.2041
9.956000	 64.228
9.974000	 64.2399
9.992000	 64.236
10.01	64.226
10.028	64.2235
10.046	64.2329
10.064	64.2456
10.082	64.2497
10.1	64.2426
10.118	64.237
10.136	64.2511
10.154	64.2922
10.172	64.3494
10.19	64.398
10.208	64.4156
10.226	64.3943
10.244	64.3448
10.262	64.2925
10.28	64.2629
10.298	64.2696
10.316	64.3068
10.334	64.3542
10.352	64.3908
10.37	64.4052
10.388	64.4012
10.406	64.3903
10.424	64.3828
10.442	64.3801
10.46	64.3772
10.478	64.3687
10.496	64.3542
10.514	64.3378
10.532	64.3251
10.55	64.3179
10.568	64.315
10.586	64.3125
10.604	64.3063
10.622	64.2937
10.64	64.2739
10.658	64.2473
10.676	64.2171
10.694	64.1884
10.712	64.1668
10.73	64.1567
10.748	64.1589
10.766	64.1704
10.784	64.1873
10.802	64.2076
10.82	64.2334
10.838	64.2699
10.856	64.3212
10.874	64.3863
10.892	64.4563
10.91	64.5149
10.928	64.5464
10.946	64.5393
10.964	64.4934
10.982	64.4191
11	64.3342
11.018	64.2583
11.036	64.2049
11.054	64.1795
11.072	64.1786
11.09	64.192
11.108	64.2082
11.126	64.2167
11.144	64.2126
11.162	64.1964
11.18	64.1736
11.198	64.1534
11.216	64.1437
11.234	64.1488
11.252	64.1672
11.27	64.192
11.288	64.214
11.306	64.2259
11.324	64.2248
11.342	64.2136
11.36	64.1986
11.378	64.1862
11.396	64.1799
11.414	64.1794
11.432	64.1802
11.45	64.1771
11.468	64.1657
11.486	64.1451
11.504	64.1173
11.522	64.0867
11.54	64.058
11.558	64.0353
11.576	64.0205
11.594	64.0144
11.612	64.0162
11.63	64.0249
11.648	64.0403
11.666	64.0622
11.684	64.0904
11.702	64.1246
11.72	64.1632
11.738	64.204
11.756	64.2434
11.774	64.2772
11.792	64.2999
11.81	64.3073
11.828	64.2972
11.846	64.2709
11.864	64.2342
11.882	64.1953
11.9	64.1636
11.918	64.1458
11.936	64.1433
11.954	64.1521
11.972	64.164
11.99	64.1699
12.008	64.1644
12.026	64.1474
12.044	64.1244
12.062	64.1041
12.08	64.0943
12.098	64.0989
12.116	64.1165
12.134	64.1412
12.152	64.1655
12.17	64.1838
12.188	64.1935
12.206	64.1962
12.224	64.1957
12.242	64.1953
12.26	64.1966
12.278	64.1984
12.296	64.1974
12.314	64.1902
12.332	64.1745
12.35	64.1498
12.368	64.1171
12.386	64.079
12.404	64.0388
12.422	64.0005
12.44	63.9682
12.458	63.9461
12.476	63.9381
12.494	63.9468
12.512	63.9726
12.53	64.0132
12.548	64.064
12.566	64.1183
12.584	64.1695
12.602	64.2118
12.62	64.2422
12.638	64.2605
12.656	64.2691
12.674	64.2712
12.692	64.27
12.71	64.2674
12.728	64.2635
12.746	64.2579
12.764	64.2498
12.782	64.2391
12.8	64.227
12.818	64.2158
12.836	64.2083
12.854	64.2066
12.872	64.2113
12.89	64.2208
12.908	64.232
12.926	64.241
12.944	64.2442
12.962	64.2396
12.98	64.2269
12.998	64.2077
13.016	64.1847
13.034	64.1609
13.052	64.1383
13.07	64.1179
13.088	64.0996
13.106	64.0837
13.124	64.0706
13.142	64.0614
13.16	64.0579
13.178	64.0621
13.196	64.0752
13.214	64.097
13.232	64.1248
13.25	64.1548
13.268	64.1816
13.286	64.2001
13.304	64.2063
13.322	64.1987
13.34	64.1784
13.358	64.1492
13.376	64.1168
13.394	64.0871
13.412	64.0651
13.43	64.0533
13.448	64.0516
13.466	64.0567
13.484	64.0634
13.502	64.0658
13.52	64.0589
13.538	64.0396
13.556	64.0079
13.574	63.967
13.592	63.9223
13.61	63.8805
13.628	63.8479
13.646	63.8291
13.664	63.8259
13.682	63.8372
13.7	63.8593
13.718	63.887
13.736	63.9149
13.754	63.9382
13.772	63.954
13.79	63.9615
13.808	63.9615
13.826	63.9562
13.844	63.9484
13.862	63.9405
13.88	63.9345
13.898	63.9315
13.916	63.9318
13.934	63.9352
13.952	63.9411
13.97	63.9488
13.988	63.9579
14.006	63.9676
14.024	63.9775
14.042	63.9866
14.06	63.9942
14.078	63.9992
14.096	64.0012
14.114	64
14.132	63.996
14.15	63.99
14.168	63.9833
14.186	63.9772
14.204	63.9729
14.222	63.971
14.24	63.9708
14.258	63.9711
14.276	63.9701
14.294	63.966
14.312	63.9575
14.33	63.9442
14.348	63.9267
14.366	63.907
14.384	63.8877
14.402	63.8717
14.42	63.8613
14.438	63.8578
14.456	63.8612
14.474	63.8704
14.492	63.8831
14.51	63.8964
14.528	63.9072
14.546	63.9129
14.564	63.9118
14.582	63.903
14.6	63.8865
14.618	63.8634
14.636	63.8355
14.654	63.8052
14.672	63.7749
14.69	63.7471
14.708	63.7238
14.726	63.7068
14.744	63.6974
14.762	63.6961
14.78	63.7029
14.798	63.7173
14.816	63.7381
14.834	63.7637
14.852	63.7921
14.87	63.8211
14.888	63.8485
14.906	63.8726
14.924	63.8918
14.942	63.905
14.96	63.9119
14.978	63.913
14.996	63.909
15.014	63.9012
15.032	63.891
15.05	63.8801
15.068	63.8695
15.086	63.8601
15.104	63.8525
15.122	63.8469
15.14	63.8433
15.158	63.8414
15.176	63.841
15.194	63.842
15.212	63.8442
15.23	63.8477
15.248	63.8527
15.266	63.8594
15.284	63.8677
15.302	63.8774
15.32	63.888
15.338	63.8989
15.356	63.9092
15.374	63.9178
15.392	63.924
15.41	63.9269
15.428	63.926
15.446	63.9208
15.464	63.9114
15.482	63.8983
15.5	63.8821
15.518	63.8639
15.536	63.8448
15.554	63.8258
15.572	63.8079
15.59	63.7923
15.608	63.7794
15.626	63.7698
15.644	63.7636
15.662	63.7611
15.68	63.7618
15.698	63.7655
15.716	63.7716
15.734	63.7795
15.752	63.7884
15.77	63.7976
15.788	63.806
15.806	63.8129
15.824	63.8176
15.842	63.8195
15.86	63.8177
15.878	63.8121
15.896	63.8024
15.914	63.7883
15.932	63.7702
15.95	63.7486
15.968	63.7243
15.986	63.6987
16.004	63.6729
16.022	63.6482
16.04	63.6264
16.058	63.6084
16.076	63.5951
16.094	63.5873
16.112	63.5849
16.13	63.5878
16.148	63.5952
16.166	63.6061
16.184	63.6196
16.202	63.6349
16.22	63.6511
16.238	63.668
16.256	63.6855
16.274	63.7038
16.292	63.7231
16.31	63.7435
16.328	63.765
16.346	63.7874
16.364	63.8102
16.382	63.8319
16.4	63.8506
16.418	63.8649
16.436	63.8719
16.454	63.8703
16.472	63.8591
16.49	63.8376
16.508	63.8071
16.526	63.7687
16.544	63.726
16.562	63.6826
16.58	63.6417
16.598	63.6086
16.616	63.5858
16.634	63.5759
16.652	63.5805
16.67	63.5987
16.688	63.6297
16.706	63.6699
16.724	63.7165
16.742	63.7659
16.76	63.813
16.778	63.8556
16.796	63.8899
16.814	63.9138
16.832	63.9264
16.85	63.9274
16.868	63.9182
16.886	63.8997
16.904	63.8756
16.922	63.8483
16.94	63.8204
16.958	63.7961
16.976	63.7767
16.994	63.7655
17.012	63.7636
17.03	63.7719
17.048	63.7911
17.066	63.8206
17.084	63.8602
17.102	63.9077
17.12	63.9625
17.138	64.0222
17.156	64.0854
17.174	64.1511
17.192	64.2173
17.21	64.2837
17.228	64.3487
17.246	64.412
17.264	64.4732
17.282	64.5313
17.3	64.5859
17.318	64.6364
17.336	64.6813
17.354	64.7201
17.372	64.7496
17.39	64.7688
17.408	64.7745
17.426	64.7647
17.444	64.7377
17.462	64.6919
17.48	64.6275
17.498	64.5448
17.516	64.4468
17.534	64.3353
17.552	64.218
17.57	64.0974
17.588	63.9834
17.606	63.8801
17.624	63.795
17.642	63.7334
17.66	63.6983
17.678	63.6935
17.696	63.7186
17.714	63.7723
17.732	63.8503
17.75	63.9492
17.768	64.0588
17.786	64.176
17.804	64.2874
17.822	64.3904
17.84	64.4733
17.858	64.5332
17.876	64.564
17.894	64.564
17.912	64.5317
17.93	64.4698
17.948	64.379
17.966	64.2667
17.984	64.1359
18.002	63.9947
18.02	63.8491
18.038	63.7048
18.056	63.5694
18.074	63.4455
18.092	63.3397
18.11	63.2528
18.128	63.1881
18.146	63.1454
18.164	63.1247
18.182	63.1243
18.2	63.1429
18.218	63.1775
18.236	63.2265
18.254	63.2863
18.272	63.3562
18.29	63.432
18.308	63.5131
18.326	63.5967
18.344	63.6827
18.362	63.7692
18.38	63.8563
18.398	63.9438
18.416	64.0315
18.434	64.1193
18.452	64.2071
18.47	64.2953
18.488	64.383
18.506	64.4704
18.524	64.5564
18.542	64.6407
18.56	64.7222
18.578	64.8009
18.596	64.8748
18.614	64.9439
18.632	65.0066
18.65	65.0628
18.668	65.111
18.686	65.1512
18.704	65.183
18.722	65.2068
18.74	65.2221
18.758	65.2295
18.776	65.2293
18.794	65.2219
18.812	65.2079
18.83	65.1879
18.848	65.1627
18.866	65.1331
18.884	65.1
18.902	65.0642
18.92	65.027
18.938	64.9891
18.956	64.9516
18.974	64.9151
18.992	64.8808
19.01	64.8487
19.028	64.8198
19.046	64.7938
19.064	64.7709
19.082	64.7506
19.1	64.7323
19.118	64.7152
19.136	64.6981
19.154	64.6801
19.172	64.659
19.19	64.6343
19.208	64.6036
19.226	64.5668
19.244	64.5214
19.262	64.4679
19.28	64.4053
19.298	64.3343
19.316	64.2561
19.334	64.1709
19.352	64.0829
19.37	63.992
19.388	63.9037
19.406	63.8177
19.424	63.7404
19.442	63.6717
19.46	63.6168
19.478	63.576
19.496	63.5523
19.514	63.5469
19.532	63.5596
19.55	63.5913
19.568	63.6401
19.586	63.7056
19.604	63.7856
19.622	63.8768
19.64	63.9784
19.658	64.0848
19.676	64.1963
19.694	64.3066
19.712	64.4162
19.73	64.5199
19.748	64.6177
19.766	64.7067
19.784	64.786
19.802	64.8549
19.82	64.9123
19.838	64.9586
19.856	64.9935
19.874	65.0173
19.892	65.0308
19.91	65.0341
19.928	65.0286
19.946	65.0142
19.964	64.9924
19.982	64.9633
20	64.928
20.018	64.8869
20.036	64.8406
20.054	64.79
20.072	64.7352
20.09	64.6771
20.108	64.6157
20.126	64.5523
20.144	64.4868
20.162	64.4202
20.18	64.3528
20.198	64.285
20.216	64.2172
20.234	64.1494
20.252	64.0823
20.27	64.0156
20.288	63.9494
20.306	63.8836
20.324	63.8182
20.342	63.7534
20.36	63.6891
20.378	63.6253
20.396	63.5621
20.414	63.501
20.432	63.4417
20.45	63.3858
20.468	63.3336
20.486	63.2864
20.504	63.247
20.522	63.215
20.54	63.1944
20.558	63.1847
20.576	63.189
20.594	63.2088
20.612	63.2442
20.63	63.2975
20.648	63.3681
20.666	63.4559
20.684	63.5617
20.702	63.6826
20.72	63.8179
20.738	63.9663
20.756	64.1222
20.774	64.2872
20.792	64.4532
20.81	64.6199
20.828	64.7834
20.846	64.9372
20.864	65.0829
20.882	65.2126
20.9	65.3271
20.918	65.4232
20.936	65.4979
20.954	65.5523
20.972	65.5846
20.99	65.5949
21.008	65.5851
21.026	65.5551
21.044	65.5067
21.062	65.4441
21.08	65.3659
21.098	65.2782
21.116	65.1817
21.134	65.0784
21.152	64.9738
21.17	64.8663
21.188	64.761
21.206	64.6587
21.224	64.5602
21.242	64.4684
21.26	64.3824
21.278	64.3041
21.296	64.2338
21.314	64.1712
21.332	64.1167
21.35	64.07
21.368	64.0305
21.386	63.9982
21.404	63.9724
21.422	63.9518
21.44	63.9368
21.458	63.9261
21.476	63.9193
21.494	63.9162
21.512	63.9154
21.53	63.9173
21.548	63.9207
21.566	63.9244
21.584	63.9289
21.602	63.9322
21.62	63.9348
21.638	63.9354
21.656	63.9326
21.674	63.9269
21.692	63.9167
21.71	63.9017
21.728	63.8819
21.746	63.8558
21.764	63.8237
21.782	63.7855
21.8	63.7408
21.818	63.69
21.836	63.634
21.854	63.5724
21.872	63.5062
21.89	63.4376
21.908	63.3653
21.926	63.2922
21.944	63.2195
21.962	63.1467
21.98	63.0772
21.998	63.0108
22.016	62.9481
22.034	62.8917
22.052	62.8408
22.07	62.7963
22.088	62.7593
22.106	62.7293
22.124	62.7063
22.142	62.6906
22.16	62.6819
22.178	62.6786
22.196	62.6816
22.214	62.6893
22.232	62.6999
22.25	62.7142
22.268	62.7302
22.286	62.7466
22.304	62.7641
22.322	62.7806
22.34	62.796
22.358	62.8103
22.376	62.8226
22.394	62.8328
22.412	62.8412
22.43	62.8479
22.448	62.8527
22.466	62.8565
22.484	62.8599
22.502	62.8624
22.52	62.8657
22.538	62.8701
22.556	62.8754
22.574	62.8833
22.592	62.8939
22.61	62.9072
22.628	62.9245
22.646	62.9457
22.664	62.9707
22.682	62.9996
22.7	63.0326
22.718	63.0691
22.736	63.1084
22.754	63.1509
22.772	63.1957
22.79	63.2417
22.808	63.2898
22.826	63.3384
22.844	63.3868
22.862	63.4355
22.88	63.4834
22.898	63.53
22.916	63.5756
22.934	63.6196
22.952	63.6618
22.97	63.7024
22.988	63.7411
23.006	63.7775
23.024	63.812
23.042	63.8447
23.06	63.8751
23.078	63.9038
23.096	63.9318
23.114	63.9591
23.132	63.9858
23.15	64.0129
23.168	64.0404
23.186	64.0683
23.204	64.0967
23.222	64.1257
23.24	64.1552
23.258	64.1844
23.276	64.2136
23.294	64.2425
23.312	64.2705
23.33	64.2979
23.348	64.3242
23.366	64.3481
23.384	64.37
23.402	64.3894
23.42	64.4048
23.438	64.4162
23.456	64.4237
23.474	64.4259
23.492	64.4226
23.51	64.4139
23.528	64.3994
23.546	64.3785
23.564	64.3516
23.582	64.3192
23.6	64.281
23.618	64.237
23.636	64.1889
23.654	64.1372
23.672	64.0813
23.69	64.0233
23.708	63.9648
23.726	63.9043
23.744	63.8442
23.762	63.7867
23.78	63.73
23.798	63.6762
23.816	63.6277
23.834	63.5832
23.852	63.5438
23.87	63.5116
23.888	63.4858
23.906	63.467
23.924	63.4572
23.942	63.4564
23.96	63.4642
23.978	63.4823
23.996	63.511
24.014	63.5497
24.032	63.5995
24.05	63.6612
24.068	63.7342
24.086	63.8186
24.104	63.9144
24.122	64.0223
24.14	64.1408
24.158	64.2684
24.176	64.4068
24.194	64.5542
24.212	64.7067
24.23	64.8641
24.248	65.0271
24.266	65.1918
24.284	65.3565
24.302	65.5236
24.32	65.6882
24.338	65.8455
24.356	65.9998
24.374	66.1464
24.392	66.2784
24.41	66.3983
24.428	66.505
24.446	66.5902
24.464	66.6507
24.482	66.6906
24.5	66.7042
24.518	66.6868
24.536	66.642
24.554	66.5671
24.572	66.4575
24.59	66.3139
24.608	66.1368
24.626	65.9242
24.644	65.6745
24.662	65.3888
24.68	65.0681
24.698	64.7132
24.716	64.3221
24.734	63.8981
24.752	63.4454
24.77	62.9624
24.788	62.4492
24.806	61.9144
24.824	61.363
24.842	60.7887
24.86	60.1999
24.878	59.6069
24.896	59.0041
24.914	58.3944
24.932	57.7912
24.95	57.2001
24.968	56.6122
24.986	56.0412
25.004	55.5014
25.022	54.9851
25.04	54.4957
25.058	54.0466
25.076	53.6433
25.094	53.2782
25.112	52.9594
25.13	52.6956
25.148	52.4846
25.166	52.325
25.184	52.2185
25.202	52.1679
25.22	52.173
25.238	52.227
25.256	52.3235
25.274	52.4684
25.292	52.6573
25.31	52.8785
25.328	53.1264
25.346	53.4099
25.364	53.7171
25.382	54.0344
25.4	54.367
25.418	54.715
25.436	55.0638
25.454	55.4028
25.472	55.7424
25.49	56.075
25.508	56.3891
25.526	56.6833
25.544	56.9633
25.562	57.219
25.58	57.4409
25.598	57.6332
25.616	57.7958
25.634	57.9242
25.652	58.0144
25.67	58.0682
25.688	58.0883
25.706	58.0773
25.724	58.0323
25.742	57.9535
25.76	57.8505
25.778	57.731
25.796	57.5778
25.814	57.4065
25.832	57.2464
25.85	57.1136
25.868	56.9807
25.886	56.8767
25.904	56.8383
25.922	56.8787
25.94	56.9776
25.958	57.144
25.976	57.3873
25.994	57.7098
26.012	58.1059
26.03	58.5701
26.048	59.0986
26.066	59.698
26.084	60.3618
26.102	61.0795
26.12	61.8457
26.138	62.6718
26.156	63.5441
26.174	64.4461
26.192	65.3651
26.21	66.3084
26.228	67.2876
26.246	68.3142
26.264	69.3898
26.282	70.5088
26.3	71.6737
26.318	72.8874
26.336	74.1633
26.354	75.4903
26.372	76.8429
26.39	78.1984
26.408	79.5828
26.426	80.9821
26.444	82.3609
26.462	83.6959
26.48	85.0512
26.498	86.3666
26.516	87.5489
26.534	88.529
26.552	89.3754
26.57	90.0619
26.588	90.539
26.606	90.7621
26.624	90.7403
26.642	90.5168
26.66	90.1345
26.678	89.6032
26.696	88.8652
26.714	88.0017
26.732	87.1057
26.75	86.1895
26.768	85.1347
26.786	84.1159
26.804	83.3278
26.822	82.8674
26.84	82.5887
26.858	82.569
26.876	82.9036
26.894	83.6715
26.912	84.8388
26.93	86.3285
26.948	88.0646
26.966	90.1482
26.984	92.8464
27.002	95.5955
27.02	97.7781
27.028	98.3437