File: Bakgrunnsmateriale/MATLAB/FTIR/ftir_data/subAa/Mapping_121/BZ1503107-1_t33_cm-1.asc
PE IR       SPECTRUM    SPECTRUM    ASCII       PEDS        1.60
  -1
BZ6BA0~1.ASC
17/04/07
15:56:02.00
17/04/07
15:56:02.00
tln
$BZ1503107-1_t0033$<tbV0>[-13.0,-7.8,8.0,0.0,27,1,0]
370
64

2002,4.07
MIRTGS : RIGHTBACK : INTERNAL 2
MIR : ON : INTERNAL 2
OPTKBR

0.200000
8
8.000000
FILLER
RATIO
SPECTRUM
UNLOCKED 256

DOUBLE
64
COMBINED
1
0
0

1.000000
RATIO

1
0
TRUE
51149
0
LEFT NOT FITTED RIGHT NOT FITTED 0
NONE
NONE
15600
12
4.427000
51148
TRUE
1 0 8 72 0 0 0 0

15798

#HDR
-1
-1
#GR
CM-1
%T
2.38419e-05
0.0
5000
-1.000000
4631
8
76.6842
48.5344
#DATA
5000	65.3728
4996	65.0932
4992	64.7135
4988	64.4525
4984	64.514
4980	64.4827
4976	64.3582
4972	64.3307
4968	64.2419
4964	64.2465
4960	64.3238
4956	64.2504
4952	64.316
4948	64.4479
4944	64.4835
4940	64.4852
4936	64.2495
4932	64.1501
4928	64.4749
4924	64.6981
4920	64.5835
4916	64.523
4912	64.7516
4908	64.8864
4904	64.7212
4900	64.5784
4896	64.5416
4892	64.5478
4888	64.6764
4884	64.9379
4880	65.0287
4876	64.8946
4872	64.734
4868	64.5481
4864	64.6181
4860	64.9113
4856	65.0295
4852	64.9628
4848	64.9136
4844	65.0268
4840	65.1317
4836	65.1602
4832	65.2411
4828	65.2143
4824	65.1222
4820	65.1265
4816	65.1597
4812	65.1736
4808	65.0789
4804	64.9776
4800	64.9863
4796	64.9395
4792	64.8354
4788	64.8318
4784	64.9156
4780	64.9803
4776	64.9945
4772	64.9753
4768	64.9247
4764	64.9646
4760	65.0988
4756	65.2121
4752	65.3939
4748	65.5137
4744	65.3927
4740	65.2039
4736	65.1073
4732	65.1831
4728	65.2019
4724	65.0419
4720	65.1299
4716	65.4086
4712	65.5805
4708	65.6521
4704	65.5351
4700	65.3607
4696	65.2955
4692	65.1529
4688	65.031
4684	65.0887
4680	65.0494
4676	64.933
4672	64.915
4668	64.8266
4664	64.7497
4660	64.9503
4656	65.1137
4652	64.9596
4648	64.8759
4644	64.8803
4640	64.6428
4636	64.4723
4632	64.5524
4628	64.6399
4624	64.7684
4620	64.8362
4616	64.6842
4612	64.589
4608	64.6042
4604	64.3983
4600	64.1659
4596	64.2773
4592	64.4757
4588	64.5505
4584	64.6476
4580	64.7326
4576	64.6221
4572	64.3647
4568	64.3228
4564	64.5942
4560	64.6773
4556	64.4331
4552	64.2983
4548	64.3523
4544	64.4567
4540	64.4509
4536	64.2169
4532	63.9859
4528	63.8846
4524	63.7608
4520	63.6649
4516	63.8031
4512	64.1062
4508	64.2698
4504	64.1203
4500	63.8844
4496	63.8277
4492	63.8624
4488	63.9465
4484	64.161
4480	64.2142
4476	64.0137
4472	64.0811
4468	64.274
4464	64.2217
4460	64.5211
4456	64.8968
4452	64.7694
4448	64.6135
4444	64.5399
4440	65.837
4436	67.4592
4432	69.5437
4428	74.7602
4424	76.2518
4420	71.6247
4416	70.4558
4412	73.3791
4408	73.904
4404	69.7516
4400	65.4479
4396	64.0972
4392	64.4273
4388	64.385
4384	63.9696
4380	63.7421
4376	63.7651
4372	63.8424
4368	63.8149
4364	63.9642
4360	64.1901
4356	64.1502
4352	64.1102
4348	64.2459
4344	64.4192
4340	64.5219
4336	64.3862
4332	64.1756
4328	63.9843
4324	63.8687
4320	64.0364
4316	64.1854
4312	64.1781
4308	64.2873
4304	64.4399
4300	64.4801
4296	64.4048
4292	64.2833
4288	64.3534
4284	64.5648
4280	64.5726
4276	64.5461
4272	64.791
4268	64.9393
4264	64.793
4260	64.6676
4256	64.5163
4252	64.4104
4248	64.5017
4244	64.5476
4240	64.5829
4236	64.7231
4232	64.8234
4228	64.9017
4224	65.0302
4220	65.0972
4216	65.0167
4212	64.9134
4208	65.0533
4204	65.3294
4200	65.3884
4196	65.31
4192	65.1875
4188	64.9594
4184	64.9229
4180	65.0621
4176	65.0182
4172	64.9391
4168	64.9986
4164	65.1129
4160	65.2378
4156	65.1911
4152	65.0645
4148	65.1346
4144	65.1247
4140	64.9921
4136	64.9995
4132	65.0367
4128	65.0778
4124	65.1508
4120	65.2329
4116	65.4058
4112	65.6289
4108	65.6312
4104	65.3583
4100	65.1351
4096	65.1265
4092	65.1869
4088	65.1967
4084	65.2039
4080	65.2428
4076	65.2754
4072	65.23
4068	65.2147
4064	65.275
4060	65.2934
4056	65.3353
4052	65.3377
4048	65.296
4044	65.3028
4040	65.2485
4036	65.113
4032	65.0141
4028	65.0061
4024	65.0818
4020	65.1849
4016	65.1915
4012	65.17
4008	65.2488
4004	65.3033
4000	65.2853
3996	65.2873
3992	65.2984
3988	65.2413
3984	65.0935
3980	65.0055
3976	65.0522
3972	65.0798
3968	65.0573
3964	65.124
3960	65.1589
3956	65.0402
3952	64.9979
3948	65.0577
3944	65.0701
3940	64.9809
3936	64.9127
3932	64.9601
3928	65.0033
3924	65.0817
3920	65.1304
3916	65.0814
3912	65.0829
3908	65.1238
3904	65.1386
3900	65.112
3896	65.0795
3892	65.0576
3888	64.9655
3884	64.866
3880	64.925
3876	65.1081
3872	65.1983
3868	65.0777
3864	64.944
3860	64.9938
3856	65.1011
3852	65.0874
3848	65.026
3844	65.0631
3840	65.1095
3836	65.1014
3832	65.0941
3828	65.0893
3824	65.1823
3820	65.3617
3816	65.396
3812	65.1771
3808	64.9858
3804	65.0357
3800	65.108
3796	65.0804
3792	65.0343
3788	65.0001
3784	65.0132
3780	65.0958
3776	65.1052
3772	65.0764
3768	65.1807
3764	65.2598
3760	65.1942
3756	65.0867
3752	65.0727
3748	65.1576
3744	65.1314
3740	65.0285
3736	65.0908
3732	65.2156
3728	65.1913
3724	65.0997
3720	65.187
3716	65.4236
3712	65.4837
3708	65.3183
3704	65.2117
3700	65.2424
3696	65.2704
3692	65.2099
3688	65.0832
3684	65.0286
3680	65.0411
3676	65.0963
3672	65.2246
3668	65.2792
3664	65.2787
3660	65.3796
3656	65.5332
3652	65.6298
3648	65.5372
3644	65.3336
3640	65.1481
3636	65.0321
3632	65.1226
3628	65.2454
3624	65.276
3620	65.3056
3616	65.2971
3612	65.2584
3608	65.2644
3604	65.2657
3600	65.1902
3596	65.1588
3592	65.2272
3588	65.278
3584	65.2458
3580	65.1369
3576	65.05
3572	65.0529
3568	65.0312
3564	64.9177
3560	64.8843
3556	64.9809
3552	65.0516
3548	65.1061
3544	65.1753
3540	65.1512
3536	65.0618
3532	65.0158
3528	64.9703
3524	64.957
3520	65.0363
3516	65.1084
3512	65.1622
3508	65.2084
3504	65.1496
3500	65.0377
3496	64.9645
3492	64.9597
3488	64.9991
3484	64.9928
3480	64.9837
3476	65.0159
3472	65.0223
3468	65.0275
3464	65.0584
3460	65.0873
3456	65.1344
3452	65.1155
3448	64.9546
3444	64.8621
3440	64.9667
3436	65.0942
3432	65.1016
3428	65.0689
3424	65.1654
3420	65.2724
3416	65.2109
3412	65.168
3408	65.264
3404	65.2772
3400	65.1266
3396	65.0398
3392	65.0571
3388	65.099
3384	65.2018
3380	65.2771
3376	65.2525
3372	65.202
3368	65.1836
3364	65.1742
3360	65.1423
3356	65.1367
3352	65.1442
3348	65.1651
3344	65.2652
3340	65.3183
3336	65.2305
3332	65.1396
3328	65.1057
3324	65.0818
3320	65.1239
3316	65.1986
3312	65.1772
3308	65.1117
3304	65.0175
3300	64.9165
3296	64.9499
3292	65.0639
3288	65.1155
3284	65.125
3280	65.1703
3276	65.255
3272	65.2664
3268	65.2352
3264	65.2761
3260	65.2429
3256	65.1031
3252	65.0811
3248	65.1449
3244	65.1359
3240	65.1055
3236	65.0848
3232	65.0755
3228	65.1592
3224	65.2385
3220	65.155
3216	65.0298
3212	65.033
3208	65.12
3204	65.1248
3200	65.0974
3196	65.1608
3192	65.185
3188	65.1701
3184	65.1976
3180	65.1796
3176	65.1439
3172	65.1372
3168	65.1192
3164	65.077
3160	65.0284
3156	65.0596
3152	65.0982
3148	64.9712
3144	64.8728
3140	64.9635
3136	65.0067
3132	64.9814
3128	64.9994
3124	65.0132
3120	65.0682
3116	65.1364
3112	65.1495
3108	65.0889
3104	65.0123
3100	65.0512
3096	65.1093
3092	65.045
3088	64.9322
3084	64.923
3080	65.0413
3076	65.1325
3072	65.0858
3068	65.0511
3064	65.1134
3060	65.141
3056	65.0964
3052	65.0254
3048	64.9992
3044	65.0761
3040	65.1415
3036	65.0403
3032	64.9256
3028	64.951
3024	64.9488
3020	64.897
3016	64.9412
3012	65.0047
3008	65.062
3004	65.1692
3000	65.2268
2996	65.2236
2992	65.2499
2988	65.2634
2984	65.1882
2980	65.0875
2976	65.0219
2972	64.9647
2968	64.897
2964	64.8449
2960	64.8922
2956	65.0185
2952	65.0697
2948	65.0324
2944	64.9444
2940	64.8169
2936	64.78
2932	64.8647
2928	64.9623
2924	64.9771
2920	64.9104
2916	64.9092
2912	64.982
2908	64.9694
2904	64.9453
2900	65.0131
2896	65.0399
2892	65.0107
2888	65.0532
2884	65.0861
2880	64.9805
2876	64.8646
2872	64.9374
2868	65.1103
2864	65.1894
2860	65.1664
2856	65.0853
2852	64.9652
2848	64.8823
2844	64.9195
2840	65.0091
2836	65.0471
2832	65.0573
2828	65.0864
2824	65.0931
2820	65.0361
2816	65.0129
2812	65.0311
2808	64.9876
2804	64.9284
2800	64.9482
2796	65.0588
2792	65.1603
2788	65.1375
2784	65.0018
2780	64.9231
2776	65.0194
2772	65.1445
2768	65.179
2764	65.1988
2760	65.1934
2756	65.1576
2752	65.1299
2748	65.0754
2744	65.0519
2740	65.0719
2736	65.0437
2732	65.0082
2728	65.0539
2724	65.16
2720	65.2188
2716	65.164
2712	65.07
2708	65.0342
2704	65.088
2700	65.1866
2696	65.2003
2692	65.093
2688	65.0396
2684	65.13
2680	65.1802
2676	65.1004
2672	65.017
2668	64.9727
2664	64.9422
2660	64.9576
2656	64.9927
2652	65.0236
2648	65.0486
2644	65.0106
2640	64.9662
2636	64.9897
2632	65.0311
2628	65.0283
2624	64.981
2620	64.9365
2616	64.9179
2612	64.9325
2608	64.9424
2604	64.958
2600	65.0508
2596	65.0779
2592	64.9933
2588	64.9767
2584	65.0298
2580	65.0264
2576	64.9741
2572	64.9875
2568	65.0105
2564	64.9937
2560	65.033
2556	65.1139
2552	65.1286
2548	65.037
2544	64.9548
2540	64.9606
2536	64.9916
2532	65.0172
2528	64.9915
2524	64.9131
2520	64.888
2516	64.9196
2512	64.9614
2508	64.9841
2504	64.9418
2500	64.931
2496	64.996
2492	64.9897
2488	64.9455
2484	64.9624
2480	64.9939
2476	65.0012
2472	64.9863
2468	64.9399
2464	64.8915
2460	64.8879
2456	64.8913
2452	64.9034
2448	64.9115
2444	64.8698
2440	64.8969
2436	65.0257
2432	65.0361
2428	64.9127
2424	64.8745
2420	64.8925
2416	64.9018
2412	64.9675
2408	65.0332
2404	65.0265
2400	64.9623
2396	64.923
2392	64.954
2388	65.0048
2384	65.0146
2380	64.9891
2376	64.9621
2372	64.9455
2368	64.945
2364	64.9482
2360	64.9601
2356	64.9782
2352	64.965
2348	64.9151
2344	64.8867
2340	64.8716
2336	64.8622
2332	64.9269
2328	64.9859
2324	64.9976
2320	65.0287
2316	65.0056
2312	64.901
2308	64.8742
2304	64.9617
2300	64.9949
2296	64.9594
2292	64.9484
2288	64.9591
2284	64.957
2280	64.9352
2276	64.9316
2272	64.9161
2268	64.8366
2264	64.7624
2260	64.7552
2256	64.7953
2252	64.8673
2248	64.9261
2244	64.901
2240	64.842
2236	64.8656
2232	64.9114
2228	64.8832
2224	64.8632
2220	64.8835
2216	64.8906
2212	64.8947
2208	64.8741
2204	64.8456
2200	64.8577
2196	64.8586
2192	64.8621
2188	64.8762
2184	64.8443
2180	64.7991
2176	64.7506
2172	64.7349
2168	64.805
2164	64.8898
2160	64.9238
2156	64.9155
2152	64.8735
2148	64.8115
2144	64.8139
2140	64.8656
2136	64.8614
2132	64.8085
2128	64.776
2124	64.8216
2120	64.8982
2116	64.9351
2112	64.9395
2108	64.9237
2104	64.8992
2100	64.8738
2096	64.8574
2092	64.8426
2088	64.801
2084	64.7477
2080	64.7682
2076	64.8163
2072	64.797
2068	64.7838
2064	64.7883
2060	64.7454
2056	64.7196
2052	64.7511
2048	64.7725
2044	64.7585
2040	64.751
2036	64.7722
2032	64.8092
2028	64.8606
2024	64.9053
2020	64.9121
2016	64.8809
2012	64.8347
2008	64.8444
2004	64.9193
2000	64.9482
1996	64.8777
1992	64.8033
1988	64.7966
1984	64.8033
1980	64.8046
1976	64.8145
1972	64.8412
1968	64.8704
1964	64.8614
1960	64.8418
1956	64.8471
1952	64.8925
1948	64.8975
1944	64.8452
1940	64.8302
1936	64.8388
1932	64.8334
1928	64.8113
1924	64.8083
1920	64.8061
1916	64.7722
1912	64.7684
1908	64.7493
1904	64.6632
1900	64.6393
1896	64.7146
1892	64.7916
1888	64.8094
1884	64.7495
1880	64.6767
1876	64.6649
1872	64.7173
1868	64.8084
1864	64.8193
1860	64.7432
1856	64.7585
1852	64.8314
1848	64.8461
1844	64.8608
1840	64.8454
1836	64.7611
1832	64.7024
1828	64.712
1824	64.731
1820	64.742
1816	64.7658
1812	64.7314
1808	64.6816
1804	64.7337
1800	64.8027
1796	64.7964
1792	64.7299
1788	64.6789
1784	64.6729
1780	64.6451
1776	64.6198
1772	64.6274
1768	64.6121
1764	64.5786
1760	64.5547
1756	64.5383
1752	64.5306
1748	64.5044
1744	64.4164
1740	64.3126
1736	64.2644
1732	64.2697
1728	64.3211
1724	64.3587
1720	64.3836
1716	64.456
1712	64.5147
1708	64.53
1704	64.546
1700	64.567
1696	64.5757
1692	64.5833
1688	64.5671
1684	64.5318
1680	64.5699
1676	64.6344
1672	64.6054
1668	64.5375
1664	64.5319
1660	64.5454
1656	64.5101
1652	64.4804
1648	64.4792
1644	64.4409
1640	64.4196
1636	64.4608
1632	64.4725
1628	64.4243
1624	64.369
1620	64.3658
1616	64.3856
1612	64.3914
1608	64.3937
1604	64.363
1600	64.354
1596	64.4113
1592	64.4324
1588	64.4183
1584	64.4309
1580	64.4098
1576	64.3891
1572	64.4095
1568	64.4135
1564	64.4326
1560	64.4699
1556	64.4776
1552	64.4377
1548	64.4048
1544	64.4484
1540	64.4757
1536	64.4429
1532	64.4241
1528	64.3815
1524	64.3391
1520	64.4263
1516	64.5406
1512	64.5438
1508	64.5252
1504	64.5495
1500	64.5487
1496	64.4849
1492	64.4283
1488	64.4433
1484	64.4758
1480	64.4582
1476	64.4363
1472	64.4551
1468	64.4763
1464	64.4914
1460	64.5334
1456	64.5671
1452	64.515
1448	64.4341
1444	64.4598
1440	64.5609
1436	64.565
1432	64.4643
1428	64.3715
1424	64.3277
1420	64.3491
1416	64.3884
1412	64.3912
1408	64.3793
1404	64.3531
1400	64.3199
1396	64.33
1392	64.3539
1388	64.3433
1384	64.3376
1380	64.3846
1376	64.4741
1372	64.5308
1368	64.4653
1364	64.3384
1360	64.3029
1356	64.3444
1352	64.3417
1348	64.2766
1344	64.247
1340	64.3432
1336	64.4359
1332	64.3811
1328	64.3122
1324	64.297
1320	64.2882
1316	64.318
1312	64.3327
1308	64.3089
1304	64.2911
1300	64.2941
1296	64.3121
1292	64.3003
1288	64.2943
1284	64.3105
1280	64.332
1276	64.3282
1272	64.278
1268	64.2658
1264	64.3009
1260	64.3003
1256	64.2287
1252	64.1963
1248	64.2435
1244	64.2761
1240	64.2417
1236	64.1463
1232	64.077
1228	64.0813
1224	64.1473
1220	64.2041
1216	64.2328
1212	64.2828
1208	64.2701
1204	64.2212
1200	64.193
1196	64.099
1192	64.0076
1188	64.0437
1184	64.1333
1180	64.1799
1176	64.1637
1172	64.086
1168	64.0087
1164	63.9913
1160	64.045
1156	64.0853
1152	64.0622
1148	64.0827
1144	64.1025
1140	64.0152
1136	63.9863
1132	64.0269
1128	64.0293
1124	64.0541
1120	64.0952
1116	64.1302
1112	64.1522
1108	64.2043
1104	64.3034
1100	64.2565
1096	64.098
1092	64.0494
1088	64.0897
1084	64.1282
1080	64.1117
1076	64.0772
1072	64.0687
1068	64.0579
1064	64.0381
1060	64.0239
1056	64.0783
1052	64.1644
1048	64.1281
1044	64.036
1040	64.0736
1036	64.131
1032	64.1195
1028	64.1175
1024	64.1009
1020	64.0606
1016	64.0512
1012	64.082
1008	64.1357
1004	64.2344
1000	64.3193
996	 64.3217
992	 64.2818
988	 64.2249
984	 64.2518
980	 64.3167
976	 64.2497
972	 64.191
968	 64.2181
964	 64.2519
960	 64.3478
956	 64.4329
952	 64.3907
948	 64.2985
944	 64.2107
940	 64.1435
936	 64.1553
932	 64.2005
928	 64.248
924	 64.34
920	 64.4434
916	 64.4541
912	 64.3555
908	 64.2852
904	 64.2297
900	 64.1445
896	 64.1652
892	 64.2472
888	 64.2591
884	 64.2242
880	 64.1927
876	 64.2684
872	 64.3611
868	 64.3515
864	 64.3102
860	 64.212
856	 64.1236
852	 64.0887
848	 64.0918
844	 64.1641
840	 64.2142
836	 64.1929
832	 64.1384
828	 64.1593
824	 64.2164
820	 64.1447
816	 64.0843
812	 64.0564
808	 63.9283
804	 63.8783
800	 64.0763
796	 64.3013
792	 64.368
788	 64.3761
784	 64.3217
780	 64.1362
776	 64.0465
772	 64.1105
768	 64.0738
764	 63.9378
760	 63.7853
756	 63.7555
752	 63.9326
748	 64.1365
744	 64.3624
740	 64.4415
736	 64.2717
732	 64.0648
728	 63.6575
724	 63.3433
720	 63.6715
716	 64.2211
712	 64.3828
708	 64.2654
704	 64.1481
700	 64.2021
696	 64.4678
692	 64.3853
688	 63.9179
684	 63.5983
680	 63.1778
676	 62.8878
672	 63.2227
668	 63.6438
664	 63.6091
660	 63.3061
656	 63.2371
652	 63.4014
648	 63.6081
644	 64.1065
640	 64.6826
636	 64.7837
632	 64.5771
628	 64.4447
624	 64.3157
620	 64.033
616	 63.642
612	 63.5216
608	 63.7948
604	 64.0963
600	 64.391
596	 64.6384
592	 64.5345
588	 64.0961
584	 63.6912
580	 63.7897
576	 64.317
572	 64.6738
568	 64.5439
564	 64.1622
560	 64.0545
556	 64.3891
552	 64.7076
548	 64.4169
544	 63.8178
540	 63.5397
536	 63.6365
532	 63.7629
528	 63.8165
524	 63.8077
520	 63.8281
516	 64.0184
512	 64.1067
508	 63.7654
504	 63.6102
500	 63.9224
496	 64.0108
492	 63.8154
488	 63.8367
484	 64.1975
480	 64.2268
476	 63.7835
472	 63.8661
468	 64.0071
464	 63.4996
460	 63.3698
456	 63.6681
452	 63.6379
448	 63.4234
444	 63.1105
440	 62.6385
436	 62.881
432	 63.3996
428	 62.6136
424	 61.5872
420	 61.3428
416	 61.8806
412	 62.3518
408	 62.2416
404	 63.1281
400	 61.2663
396	 58.5661
392	 62.0758
388	 64.0375
384	 56.8278
380	 49.0513
376	 50.4961
372	 53.3481
370	 52.6476