File: Bakgrunnsmateriale/MATLAB/FTIR/ftir_data/subAa/Mapping_121/BZ1503107-1_t03.asc
PE IR       SPECTRUM    SPECTRUM    ASCII       PEDS        1.60
  -1
BZ1555~1.ASC
17/04/07
13:29:44.00
17/04/07
13:30:10.00
tln
$BZ1503107-1_t0003$<tbV0>[7.8,-13.0,8.0,0.0,27,1,0]
27.028
64

2002,4.07
MIRTGS : RIGHTBACK : INTERNAL 2
MIR : ON : INTERNAL 2
OPTKBR

0.200000
8
8.000000
FILLER
RATIO
SPECTRUM
UNLOCKED 256

DOUBLE
64
COMBINED
1
0
0

0.002000
RATIO

1
0
TRUE
51149
0
LEFT NOT FITTED RIGHT NOT FITTED 0
NONE
NONE
15600
12
4.427000
51148
TRUE
1 0 8 72 0 0 0 0

15798

#HDR
-1
-1
#GR
µM
%T
2.38419e-05
0.0
2.000000
0.002000
12515
8
101.089
29.3808
#DATA
2.000000	 64.8863
2.018000	 64.3844
2.036000	 63.9938
2.054000	 66.4722
2.072000	 64.964
2.090000	 65.3902
2.108000	 64.5225
2.126000	 64.5401
2.144000	 64.9952
2.162000	 64.595
2.180000	 65.2197
2.198000	 64.3603
2.216000	 65.2164
2.234000	 67.1583
2.252000	 65.7085
2.270000	 65.3203
2.288000	 65.0578
2.306000	 65.2748
2.324000	 65.1573
2.342000	 65.0886
2.360000	 65.1889
2.378000	 64.9051
2.396000	 65.3017
2.414000	 64.9693
2.432000	 65.2126
2.450000	 65.4821
2.468000	 65.7486
2.486000	 65.2116
2.504000	 65.1076
2.522000	 65.0373
2.540000	 65.2648
2.558000	 65.0242
2.576000	 65.0933
2.594000	 65.3382
2.612000	 65.2691
2.630000	 65.117
2.648000	 65.0182
2.666000	 65.299
2.684000	 65.2511
2.702000	 65.1425
2.720000	 65.4349
2.738000	 65.0786
2.756000	 65.2554
2.774000	 65.1001
2.792000	 65.1957
2.810000	 64.9989
2.828000	 65.0107
2.846000	 64.8794
2.864000	 64.8378
2.882000	 64.9628
2.900000	 65.058
2.918000	 65.1841
2.936000	 65.0539
2.954000	 65.026
2.972000	 65.0912
2.990000	 65.0447
3.008000	 65.0523
3.026000	 65.1063
3.044000	 65.0671
3.062000	 64.9942
3.080000	 65.0941
3.098000	 64.9285
3.116000	 65.1472
3.134000	 65.1125
3.152000	 65.0035
3.170000	 64.9621
3.188000	 64.8194
3.206000	 64.9015
3.224000	 65.1387
3.242000	 64.9224
3.260000	 65.1805
3.278000	 64.9954
3.296000	 65.0491
3.314000	 65.2061
3.332000	 65.236
3.350000	 65.0259
3.368000	 64.9815
3.386000	 64.882
3.404000	 65.0246
3.422000	 64.995
3.440000	 64.9391
3.458000	 65.0038
3.476000	 64.9796
3.494000	 65.0786
3.512000	 65.0078
3.530000	 65.0378
3.548000	 64.991
3.566000	 65.0941
3.584000	 64.9826
3.602000	 65.0363
3.620000	 64.9954
3.638000	 65.0204
3.656000	 65.1193
3.674000	 64.9987
3.692000	 64.9701
3.710000	 65.0973
3.728000	 64.976
3.746000	 65.0096
3.764000	 65.0788
3.782000	 64.9309
3.800000	 65.0217
3.818000	 64.9464
3.836000	 64.9805
3.854000	 65.0902
3.872000	 65.0804
3.890000	 65.157
3.908000	 65.108
3.926000	 65.0807
3.944000	 65.0931
3.962000	 65.0185
3.980000	 65.137
3.998000	 64.9965
4.016000	 64.9629
4.034000	 64.9377
4.052000	 64.8763
4.070000	 64.8843
4.088000	 64.9747
4.106000	 64.9363
4.124000	 64.9101
4.141999	 65.0388
4.160000	 64.9374
4.178000	 64.9646
4.196000	 65.0198
4.214000	 64.9166
4.232000	 64.9
4.250000	 64.9736
4.268000	 64.8622
4.286000	 64.934
4.304000	 64.895
4.322000	 64.9011
4.340000	 64.8319
4.358000	 64.9514
4.375999	 64.7831
4.394000	 64.8962
4.412000	 64.8707
4.430000	 64.9817
4.448000	 64.9383
4.466000	 64.9032
4.484000	 64.776
4.502000	 64.8448
4.520000	 64.9665
4.538000	 64.9445
4.556000	 64.8602
4.574000	 64.8071
4.592000	 64.8429
4.609999	 65.0214
4.628000	 64.9094
4.646000	 64.7646
4.664000	 64.7348
4.682000	 64.7648
4.700000	 64.8897
4.718000	 64.9211
4.736000	 64.838
4.754000	 64.7804
4.772000	 64.8267
4.790000	 64.7943
4.808000	 64.7405
4.826000	 64.7666
4.843999	 64.9121
4.862000	 64.88
4.880000	 64.8582
4.898000	 64.8756
4.916000	 64.8014
4.934000	 64.8776
4.952000	 64.8193
4.970000	 64.8532
4.988000	 64.9049
5.006000	 64.8716
5.024000	 64.8231
5.042000	 64.8363
5.060000	 64.8061
5.077999	 64.9009
5.096000	 64.9141
5.114000	 64.8378
5.132000	 64.8684
5.150000	 64.9044
5.168000	 64.8038
5.186000	 64.6805
5.204000	 64.8026
5.222000	 64.9247
5.240000	 64.8198
5.258000	 64.7341
5.276000	 64.7702
5.294000	 64.8351
5.312000	 64.7823
5.330000	 64.9052
5.348000	 64.8675
5.366000	 64.7813
5.384000	 64.7703
5.402000	 64.8171
5.420000	 64.7959
5.438000	 64.777
5.456000	 64.8172
5.474000	 64.7502
5.492000	 64.7672
5.510000	 64.836
5.528000	 64.8262
5.546000	 64.8356
5.564000	 64.8324
5.582000	 64.7741
5.600000	 64.7931
5.618000	 64.698
5.636000	 64.6852
5.654000	 64.695
5.672000	 64.6973
5.690000	 64.6613
5.708000	 64.7624
5.726000	 64.6831
5.744000	 64.5378
5.762000	 64.4821
5.780000	 64.4174
5.798000	 64.43
5.816000	 64.6389
5.834000	 64.6534
5.852000	 64.596
5.870000	 64.7323
5.888000	 64.8995
5.906000	 64.7252
5.923999	 64.6239
5.942000	 64.6834
5.960000	 64.6404
5.978000	 64.6905
5.996000	 64.7462
6.014000	 64.7455
6.032000	 64.7264
6.050000	 64.7235
6.068000	 64.6616
6.086000	 64.6403
6.104000	 64.7179
6.122000	 64.7692
6.140000	 64.715
6.158000	 64.6232
6.176000	 64.5433
6.194000	 64.5426
6.212000	 64.6442
6.230000	 64.6713
6.248000	 64.5852
6.266000	 64.5404
6.284000	 64.5562
6.302000	 64.6228
6.320000	 64.7073
6.338000	 64.7049
6.356000	 64.6491
6.374000	 64.572
6.392000	 64.5517
6.410000	 64.6208
6.428000	 64.6752
6.446000	 64.6525
6.464000	 64.5941
6.482000	 64.605
6.500000	 64.5901
6.518000	 64.5537
6.536000	 64.5304
6.554000	 64.4941
6.572000	 64.5397
6.590000	 64.6021
6.608000	 64.6057
6.626000	 64.5894
6.644000	 64.5781
6.662000	 64.5608
6.680000	 64.5636
6.698000	 64.6057
6.716000	 64.6143
6.734000	 64.5963
6.752000	 64.6189
6.770000	 64.656
6.788000	 64.6344
6.806000	 64.6023
6.824000	 64.5937
6.842000	 64.5724
6.860000	 64.5695
6.878000	 64.5784
6.896000	 64.5793
6.914000	 64.5956
6.932000	 64.6181
6.950000	 64.6317
6.968000	 64.6313
6.986000	 64.5825
7.004000	 64.498
7.022000	 64.5196
7.040000	 64.6359
7.058000	 64.635
7.076000	 64.5212
7.094000	 64.4693
7.112000	 64.4876
7.130000	 64.4938
7.148000	 64.4709
7.166000	 64.4212
7.184000	 64.3662
7.202000	 64.3614
7.220000	 64.4039
7.238000	 64.43
7.256000	 64.4181
7.274000	 64.3999
7.292000	 64.4018
7.310000	 64.4358
7.328000	 64.4997
7.346000	 64.5411
7.364000	 64.525
7.382000	 64.5006
7.400000	 64.4957
7.418000	 64.4898
7.436000	 64.4862
7.454000	 64.4736
7.472000	 64.4262
7.490000	 64.3707
7.508000	 64.3406
7.526000	 64.3369
7.544000	 64.3531
7.562000	 64.3784
7.580000	 64.394
7.598000	 64.3901
7.616000	 64.3669
7.634000	 64.335
7.652000	 64.3198
7.670000	 64.3333
7.688000	 64.3571
7.706000	 64.3816
7.724000	 64.4184
7.742000	 64.4539
7.760000	 64.438
7.778000	 64.3571
7.796000	 64.2725
7.814000	 64.244
7.832000	 64.2619
7.850000	 64.2852
7.868000	 64.2999
7.886000	 64.3191
7.904000	 64.3546
7.922000	 64.3948
7.940000	 64.4096
7.958000	 64.3936
7.976000	 64.3739
7.994000	 64.3588
8.012000	 64.3269
8.030000	 64.2865
8.048000	 64.2742
8.065999	 64.2871
8.084000	 64.2856
8.102000	 64.2613
8.120000	 64.2556
8.138000	 64.2953
8.155999	 64.3517
8.173999	 64.3734
8.192000	 64.351
8.210000	 64.3216
8.228000	 64.3136
8.246000	 64.3182
8.263999	 64.3261
8.282000	 64.3503
8.300000	 64.3965
8.318000	 64.4416
8.336000	 64.4596
8.353999	 64.4498
8.372000	 64.4276
8.390000	 64.4039
8.408000	 64.3808
8.426000	 64.3522
8.443999	 64.3072
8.462000	 64.2516
8.480000	 64.216
8.498000	 64.2236
8.516000	 64.2553
8.533999	 64.2716
8.552000	 64.2608
8.570000	 64.2406
8.588000	 64.2201
8.606000	 64.1912
8.624000	 64.159
8.641999	 64.1493
8.660000	 64.1784
8.678000	 64.2273
8.696000	 64.2552
8.714000	 64.2464
8.731999	 64.23
8.750000	 64.2488
8.768000	 64.3121
8.786000	 64.3867
8.804000	 64.4361
8.821999	 64.4528
8.840000	 64.4483
8.858000	 64.4326
8.876000	 64.4126
8.894000	 64.3939
8.911999	 64.3742
8.930000	 64.3453
8.948000	 64.3058
8.966000	 64.2659
8.984000	 64.2312
9.001999	 64.1931
9.020000	 64.1479
9.038000	 64.114
9.056000	 64.1211
9.074000	 64.1746
9.092000	 64.2476
9.109999	 64.3091
9.128000	 64.3512
9.146000	 64.3815
9.164000	 64.4005
9.182000	 64.4027
9.199999	 64.3896
9.218000	 64.3695
9.236000	 64.3482
9.254000	 64.3272
9.272000	 64.3091
9.289999	 64.2957
9.308000	 64.2815
9.326000	 64.2534
9.344000	 64.2061
9.362000	 64.1523
9.379999	 64.1112
9.398000	 64.0898
9.416000	 64.0822
9.434000	 64.0811
9.452000	 64.087
9.469999	 64.1039
9.488000	 64.1294
9.506000	 64.1495
9.524000	 64.1448
9.542000	 64.1086
9.560000	 64.0565
9.577999	 64.0202
9.596000	 64.0271
9.614000	 64.0806
9.632000	 64.1594
9.650000	 64.2338
9.667999	 64.2856
9.686000	 64.3138
9.704000	 64.3274
9.722000	 64.3332
9.740000	 64.3316
9.757999	 64.3186
9.776000	 64.292
9.794000	 64.2547
9.812000	 64.2156
9.830000	 64.1869
9.847999	 64.1801
9.866000	 64.1995
9.884000	 64.2374
9.902000	 64.2776
9.920000	 64.3029
9.937999	 64.3048
9.956000	 64.2859
9.974000	 64.2571
9.992000	 64.2311
10.01	64.2172
10.028	64.218
10.046	64.2311
10.064	64.2517
10.082	64.2752
10.1	64.2959
10.118	64.3063
10.136	64.2988
10.154	64.2693
10.172	64.2217
10.19	64.1694
10.208	64.129
10.226	64.1129
10.244	64.1238
10.262	64.1549
10.28	64.1951
10.298	64.2337
10.316	64.2629
10.334	64.2799
10.352	64.2865
10.37	64.2891
10.388	64.2953
10.406	64.3098
10.424	64.3313
10.442	64.3519
10.46	64.3618
10.478	64.3542
10.496	64.3309
10.514	64.3009
10.532	64.2772
10.55	64.2693
10.568	64.2797
10.586	64.303
10.604	64.33
10.622	64.3517
10.64	64.3632
10.658	64.3638
10.676	64.356
10.694	64.344
10.712	64.3324
10.73	64.3256
10.748	64.326
10.766	64.3316
10.784	64.3361
10.802	64.3308
10.82	64.3102
10.838	64.2759
10.856	64.2365
10.874	64.2052
10.892	64.1918
10.91	64.1997
10.928	64.2236
10.946	64.2533
10.964	64.2791
10.982	64.2943
11	64.2972
11.018	64.2894
11.036	64.2743
11.054	64.2567
11.072	64.2412
11.09	64.2321
11.108	64.2321
11.126	64.2404
11.144	64.2532
11.162	64.264
11.18	64.267
11.198	64.2589
11.216	64.2396
11.234	64.2114
11.252	64.1777
11.27	64.1421
11.288	64.1082
11.306	64.0806
11.324	64.0639
11.342	64.0616
11.36	64.0739
11.378	64.0971
11.396	64.1243
11.414	64.1479
11.432	64.162
11.45	64.165
11.468	64.1584
11.486	64.1451
11.504	64.1275
11.522	64.1071
11.54	64.0853
11.558	64.0646
11.576	64.0491
11.594	64.0434
11.612	64.0511
11.63	64.0726
11.648	64.1057
11.666	64.1449
11.684	64.1838
11.702	64.217
11.72	64.2409
11.738	64.2548
11.756	64.2602
11.774	64.2591
11.792	64.2543
11.81	64.2479
11.828	64.2417
11.846	64.2372
11.864	64.2353
11.882	64.2366
11.9	64.2407
11.918	64.2468
11.936	64.2544
11.954	64.2629
11.972	64.2732
11.99	64.2867
12.008	64.3055
12.026	64.3295
12.044	64.356
12.062	64.3768
12.08	64.3807
12.098	64.3568
12.116	64.2992
12.134	64.2115
12.152	64.1072
12.17	64.0052
12.188	63.9246
12.206	63.8789
12.224	63.8718
12.242	63.8974
12.26	63.9442
12.278	63.9979
12.296	64.0461
12.314	64.0801
12.332	64.0972
12.35	64.0985
12.368	64.0888
12.386	64.074
12.404	64.0595
12.422	64.0491
12.44	64.0445
12.458	64.0458
12.476	64.0525
12.494	64.0636
12.512	64.0784
12.53	64.0964
12.548	64.1178
12.566	64.1423
12.584	64.1694
12.602	64.198
12.62	64.2265
12.638	64.2526
12.656	64.2739
12.674	64.2881
12.692	64.2941
12.71	64.2918
12.728	64.2821
12.746	64.2674
12.764	64.2505
12.782	64.2344
12.8	64.2212
12.818	64.2117
12.836	64.2053
12.854	64.1997
12.872	64.1921
12.89	64.1789
12.908	64.1575
12.926	64.1267
12.944	64.0871
12.962	64.0418
12.98	63.9952
12.998	63.9527
13.016	63.9196
13.034	63.9002
13.052	63.8971
13.07	63.91
13.088	63.9366
13.106	63.9724
13.124	64.0121
13.142	64.0502
13.16	64.0819
13.178	64.1044
13.196	64.1168
13.214	64.1199
13.232	64.116
13.25	64.1082
13.268	64.0993
13.286	64.0917
13.304	64.0865
13.322	64.0842
13.34	64.0846
13.358	64.0869
13.376	64.0905
13.394	64.0947
13.412	64.0992
13.43	64.1037
13.448	64.1076
13.466	64.1104
13.484	64.1111
13.502	64.1084
13.52	64.1013
13.538	64.089
13.556	64.072
13.574	64.0514
13.592	64.0297
13.61	64.0099
13.628	63.995
13.646	63.9875
13.664	63.9884
13.682	63.9973
13.7	64.0118
13.718	64.0292
13.736	64.046
13.754	64.0588
13.772	64.0653
13.79	64.0643
13.808	64.0558
13.826	64.0412
13.844	64.0225
13.862	64.0018
13.88	63.981
13.898	63.9617
13.916	63.9448
13.934	63.9308
13.952	63.9196
13.97	63.9111
13.988	63.9051
14.006	63.9013
14.024	63.8997
14.042	63.9001
14.06	63.9023
14.078	63.9066
14.096	63.9127
14.114	63.9205
14.132	63.9297
14.15	63.9393
14.168	63.948
14.186	63.954
14.204	63.9549
14.222	63.9486
14.24	63.9334
14.258	63.9083
14.276	63.874
14.294	63.8323
14.312	63.7865
14.33	63.7408
14.348	63.6997
14.366	63.6678
14.384	63.6487
14.402	63.6442
14.42	63.6546
14.438	63.6784
14.456	63.7127
14.474	63.7537
14.492	63.7973
14.51	63.8394
14.528	63.8766
14.546	63.9071
14.564	63.9298
14.582	63.9448
14.6	63.9527
14.618	63.9546
14.636	63.9512
14.654	63.9435
14.672	63.9321
14.69	63.9176
14.708	63.9007
14.726	63.8828
14.744	63.8655
14.762	63.8514
14.78	63.8429
14.798	63.8425
14.816	63.8519
14.834	63.8719
14.852	63.9019
14.87	63.9399
14.888	63.9829
14.906	64.0271
14.924	64.0686
14.942	64.1035
14.96	64.1287
14.978	64.1426
14.996	64.1446
15.014	64.135
15.032	64.1153
15.05	64.0877
15.068	64.0541
15.086	64.0163
15.104	63.9759
15.122	63.9342
15.14	63.892
15.158	63.85
15.176	63.809
15.194	63.7699
15.212	63.734
15.23	63.7029
15.248	63.6783
15.266	63.662
15.284	63.6555
15.302	63.6595
15.32	63.6742
15.338	63.699
15.356	63.7328
15.374	63.7734
15.392	63.8184
15.41	63.8655
15.428	63.912
15.446	63.9552
15.464	63.9934
15.482	64.0251
15.5	64.0494
15.518	64.0656
15.536	64.074
15.554	64.0748
15.572	64.0683
15.59	64.0556
15.608	64.0374
15.626	64.0147
15.644	63.9886
15.662	63.9606
15.68	63.9319
15.698	63.9039
15.716	63.8785
15.734	63.8573
15.752	63.8418
15.77	63.8331
15.788	63.8321
15.806	63.8389
15.824	63.8531
15.842	63.8738
15.86	63.8989
15.878	63.9264
15.896	63.9543
15.914	63.9794
15.932	64
15.95	64.0143
15.968	64.0213
15.986	64.0208
16.004	64.0137
16.022	64.0008
16.04	63.985
16.058	63.9683
16.076	63.9528
16.094	63.9413
16.112	63.9355
16.13	63.936
16.148	63.9434
16.166	63.9566
16.184	63.9744
16.202	63.9952
16.22	64.0157
16.238	64.0341
16.256	64.0482
16.274	64.0556
16.292	64.0556
16.31	64.0477
16.328	64.0325
16.346	64.0112
16.364	63.985
16.382	63.9566
16.4	63.9276
16.418	63.8996
16.436	63.8746
16.454	63.8534
16.472	63.8364
16.49	63.8238
16.508	63.8146
16.526	63.8084
16.544	63.8036
16.562	63.7993
16.58	63.7948
16.598	63.7889
16.616	63.7815
16.634	63.7725
16.652	63.7621
16.67	63.7508
16.688	63.7391
16.706	63.7278
16.724	63.7173
16.742	63.7084
16.76	63.7014
16.778	63.6964
16.796	63.6931
16.814	63.6909
16.832	63.6893
16.85	63.6869
16.868	63.6829
16.886	63.6763
16.904	63.6662
16.922	63.652
16.94	63.633
16.958	63.6094
16.976	63.5813
16.994	63.5495
17.012	63.5151
17.03	63.4792
17.048	63.4436
17.066	63.4097
17.084	63.3793
17.102	63.3543
17.12	63.3356
17.138	63.3251
17.156	63.3237
17.174	63.3322
17.192	63.351
17.21	63.3798
17.228	63.4183
17.246	63.4648
17.264	63.5184
17.282	63.5759
17.3	63.6358
17.318	63.6947
17.336	63.7498
17.354	63.7993
17.372	63.8395
17.39	63.8695
17.408	63.8875
17.426	63.8936
17.444	63.8875
17.462	63.8714
17.48	63.8463
17.498	63.8157
17.516	63.7826
17.534	63.7496
17.552	63.7219
17.57	63.7008
17.588	63.691
17.606	63.6931
17.624	63.7094
17.642	63.7393
17.66	63.7832
17.678	63.8386
17.696	63.9047
17.714	63.9776
17.732	64.055
17.75	64.1341
17.768	64.211
17.786	64.2841
17.804	64.35
17.822	64.4081
17.84	64.4563
17.858	64.4944
17.876	64.5219
17.894	64.5393
17.912	64.5467
17.93	64.5454
17.948	64.5357
17.966	64.5192
17.984	64.4964
18.002	64.4687
18.02	64.4369
18.038	64.4017
18.056	64.3644
18.074	64.3253
18.092	64.2857
18.11	64.2456
18.128	64.2063
18.146	64.1679
18.164	64.131
18.182	64.0959
18.2	64.0629
18.218	64.0325
18.236	64.005
18.254	63.9812
18.272	63.9612
18.29	63.9458
18.308	63.9349
18.326	63.9294
18.344	63.9292
18.362	63.9352
18.38	63.9473
18.398	63.966
18.416	63.9913
18.434	64.0229
18.452	64.0605
18.47	64.1037
18.488	64.1513
18.506	64.2032
18.524	64.2577
18.542	64.3145
18.56	64.3712
18.578	64.4277
18.596	64.4816
18.614	64.5328
18.632	64.5793
18.65	64.6209
18.668	64.6566
18.686	64.6864
18.704	64.7099
18.722	64.7274
18.74	64.7396
18.758	64.7468
18.776	64.7507
18.794	64.7516
18.812	64.7512
18.83	64.7501
18.848	64.7501
18.866	64.7513
18.884	64.7547
18.902	64.7603
18.92	64.7682
18.938	64.7779
18.956	64.7888
18.974	64.7998
18.992	64.8098
19.01	64.8177
19.028	64.8218
19.046	64.8213
19.064	64.8144
19.082	64.8008
19.1	64.7793
19.118	64.7503
19.136	64.7133
19.154	64.669
19.172	64.6181
19.19	64.5614
19.208	64.5006
19.226	64.4362
19.244	64.3707
19.262	64.3043
19.28	64.2395
19.298	64.1764
19.316	64.1173
19.334	64.062
19.352	64.0118
19.37	63.9667
19.388	63.9272
19.406	63.8932
19.424	63.8642
19.442	63.8403
19.46	63.82
19.478	63.8031
19.496	63.7883
19.514	63.7753
19.532	63.7629
19.55	63.7501
19.568	63.7369
19.586	63.7227
19.604	63.7077
19.622	63.6919
19.64	63.6757
19.658	63.6605
19.676	63.6461
19.694	63.6347
19.712	63.6261
19.73	63.6226
19.748	63.6241
19.766	63.6322
19.784	63.6472
19.802	63.6693
19.82	63.6991
19.838	63.7358
19.856	63.779
19.874	63.8283
19.892	63.8821
19.91	63.9405
19.928	64.0012
19.946	64.0645
19.964	64.1282
19.982	64.1921
20	64.2547
20.018	64.3153
20.036	64.3736
20.054	64.4281
20.072	64.4792
20.09	64.5256
20.108	64.5676
20.126	64.6041
20.144	64.6353
20.162	64.6602
20.18	64.6787
20.198	64.6906
20.216	64.695
20.234	64.6922
20.252	64.6818
20.27	64.6638
20.288	64.6387
20.306	64.6061
20.324	64.5675
20.342	64.5233
20.36	64.4743
20.378	64.4229
20.396	64.3687
20.414	64.3158
20.432	64.2636
20.45	64.2156
20.468	64.1734
20.486	64.1378
20.504	64.1124
20.522	64.0963
20.54	64.0922
20.558	64.0999
20.576	64.1195
20.594	64.1518
20.612	64.1955
20.63	64.2494
20.648	64.3137
20.666	64.3848
20.684	64.4633
20.702	64.5461
20.72	64.6311
20.738	64.7182
20.756	64.8031
20.774	64.8867
20.792	64.966
20.81	65.0404
20.828	65.1092
20.846	65.1706
20.864	65.2252
20.882	65.2718
20.9	65.3107
20.918	65.3417
20.936	65.3645
20.954	65.3794
20.972	65.3864
20.99	65.3855
21.008	65.3767
21.026	65.3602
21.044	65.3359
21.062	65.3038
21.08	65.2639
21.098	65.2164
21.116	65.1611
21.134	65.0983
21.152	65.0285
21.17	64.9514
21.188	64.8682
21.206	64.7789
21.224	64.6844
21.242	64.5865
21.26	64.4844
21.278	64.3808
21.296	64.2759
21.314	64.1706
21.332	64.0676
21.35	63.9659
21.368	63.8685
21.386	63.7757
21.404	63.6881
21.422	63.6081
21.44	63.5351
21.458	63.4704
21.476	63.4145
21.494	63.3673
21.512	63.3294
21.53	63.3007
21.548	63.281
21.566	63.2703
21.584	63.2684
21.602	63.2744
21.62	63.2885
21.638	63.3101
21.656	63.3379
21.674	63.3725
21.692	63.4122
21.71	63.4567
21.728	63.5058
21.746	63.5573
21.764	63.6121
21.782	63.6685
21.8	63.7252
21.818	63.7826
21.836	63.8383
21.854	63.8923
21.872	63.9437
21.89	63.9903
21.908	64.033
21.926	64.0697
21.944	64.0991
21.962	64.1218
21.98	64.1361
21.998	64.1417
22.016	64.1388
22.034	64.1267
22.052	64.1054
22.07	64.0758
22.088	64.0381
22.106	63.9921
22.124	63.9401
22.142	63.8819
22.16	63.8182
22.178	63.7523
22.196	63.6829
22.214	63.6124
22.232	63.5438
22.25	63.4756
22.268	63.4108
22.286	63.3511
22.304	63.2955
22.322	63.2465
22.34	63.2047
22.358	63.1696
22.376	63.1416
22.394	63.1212
22.412	63.1073
22.43	63.0989
22.448	63.0967
22.466	63.0984
22.484	63.1023
22.502	63.1095
22.52	63.1165
22.538	63.1221
22.556	63.1271
22.574	63.1281
22.592	63.1246
22.61	63.1169
22.628	63.1029
22.646	63.0825
22.664	63.056
22.682	63.0226
22.7	62.9822
22.718	62.9356
22.736	62.8838
22.754	62.8259
22.772	62.764
22.79	62.6999
22.808	62.6323
22.826	62.5644
22.844	62.4979
22.862	62.4315
22.88	62.3686
22.898	62.3103
22.916	62.2559
22.934	62.2075
22.952	62.1661
22.97	62.1309
22.988	62.1032
23.006	62.0833
23.024	62.0707
23.042	62.065
23.06	62.0668
23.078	62.0752
23.096	62.0877
23.114	62.1048
23.132	62.1258
23.15	62.148
23.168	62.1719
23.186	62.1969
23.204	62.2205
23.222	62.2423
23.24	62.2629
23.258	62.2813
23.276	62.297
23.294	62.3108
23.312	62.324
23.33	62.3355
23.348	62.3464
23.366	62.3601
23.384	62.3756
23.402	62.3937
23.42	62.4185
23.438	62.4496
23.456	62.4872
23.474	62.5347
23.492	62.5925
23.51	62.6601
23.528	62.7396
23.546	62.8323
23.564	62.9371
23.582	63.0525
23.6	63.1791
23.618	63.3169
23.636	63.4606
23.654	63.6085
23.672	63.763
23.69	63.9166
23.708	64.0646
23.726	64.2115
23.744	64.3499
23.762	64.4736
23.78	64.5871
23.798	64.6852
23.816	64.7615
23.834	64.8187
23.852	64.8552
23.87	64.8669
23.888	64.8535
23.906	64.8166
23.924	64.7575
23.942	64.6742
23.96	64.5685
23.978	64.4466
23.996	64.3093
24.014	64.1548
24.032	63.9921
24.05	63.8262
24.068	63.652
24.086	63.4781
24.104	63.3128
24.122	63.1504
24.14	62.9966
24.158	62.8601
24.176	62.7385
24.194	62.6326
24.212	62.5482
24.23	62.4874
24.248	62.4477
24.266	62.4293
24.284	62.4332
24.302	62.4597
24.32	62.5049
24.338	62.5658
24.356	62.6455
24.374	62.74
24.392	62.8433
24.41	62.9571
24.428	63.0808
24.446	63.2083
24.464	63.3372
24.482	63.4704
24.5	63.6037
24.518	63.7338
24.536	63.8623
24.554	63.9888
24.572	64.1119
24.59	64.231
24.608	64.3471
24.626	64.4608
24.644	64.5722
24.662	64.6807
24.68	64.7883
24.698	64.8964
24.716	65.0024
24.734	65.1098
24.752	65.2232
24.77	65.3438
24.788	65.4698
24.806	65.6023
24.824	65.7431
24.842	65.8932
24.86	66.048
24.878	66.2022
24.896	66.3603
24.914	66.5193
24.932	66.6692
24.95	66.8057
24.968	66.9356
24.986	67.0489
25.004	67.1352
25.022	67.2008
25.04	67.2425
25.058	67.2491
25.076	67.2158
25.094	67.1491
25.112	67.0424
25.13	66.8889
25.148	66.6904
25.166	66.4481
25.184	66.1603
25.202	65.8248
25.22	65.4416
25.238	65.0167
25.256	64.5559
25.274	64.054
25.292	63.5147
25.31	62.9484
25.328	62.3598
25.346	61.7411
25.364	61.1029
25.382	60.457
25.4	59.7993
25.418	59.1294
25.436	58.4595
25.454	57.7983
25.472	57.137
25.49	56.4824
25.508	55.8446
25.526	55.2266
25.544	54.6232
25.562	54.0385
25.58	53.4762
25.598	52.9368
25.616	52.4178
25.634	51.9171
25.652	51.4332
25.67	50.9672
25.688	50.5186
25.706	50.0868
25.724	49.673
25.742	49.2769
25.76	48.8948
25.778	48.5233
25.796	48.1607
25.814	47.8105
25.832	47.4765
25.85	47.161
25.868	46.8596
25.886	46.5771
25.904	46.3195
25.922	46.1024
25.94	45.9237
25.958	45.7466
25.976	45.5344
25.994	45.3067
26.012	45.0625
26.03	44.7627
26.048	44.3736
26.066	43.9164
26.084	43.3877
26.102	42.7704
26.12	42.0492
26.138	41.2279
26.156	40.3205
26.174	39.3406
26.192	38.2681
26.21	37.0821
26.228	35.8696
26.246	34.7204
26.264	33.6153
26.282	32.5218
26.3	31.5355
26.318	30.7497
26.336	30.1355
26.354	29.6754
26.372	29.4182
26.39	29.4095
26.408	29.6323
26.426	30.0772
26.444	30.7517
26.462	31.6733
26.48	32.9031
26.498	34.3515
26.516	35.898
26.534	37.4574
26.552	39.1348
26.57	40.8655
26.588	42.5485
26.606	44.1093
26.624	45.6044
26.642	47.0383
26.66	48.404
26.678	49.6852
26.696	50.8671
26.714	51.9974
26.732	53.1278
26.75	54.2423
26.768	55.2443
26.786	56.316
26.804	57.6572
26.822	59.3693
26.84	61.3051
26.858	63.536
26.876	66.1515
26.894	69.2363
26.912	72.7717
26.93	76.6471
26.948	80.7502
26.966	85.2581
26.984	90.6066
27.002	95.8608
27.02	99.9973
27.028	101.089