File: Bakgrunnsmateriale/MATLAB/FTIR/ftir_data/subAa/Mapping_121/BZ1503107-1_t43.asc
PE IR       SPECTRUM    SPECTRUM    ASCII       PEDS        1.60
  -1
BZ255D~1.ASC
17/04/07
16:42:51.00
17/04/07
16:43:17.00
tln
$BZ1503107-1_t0043$<tbV0>[-10.4,-5.2,8.0,0.0,27,1,0]
27.028
64

2002,4.07
MIRTGS : RIGHTBACK : INTERNAL 2
MIR : ON : INTERNAL 2
OPTKBR

0.200000
8
8.000000
FILLER
RATIO
SPECTRUM
UNLOCKED 256

DOUBLE
64
COMBINED
1
0
0

0.002000
RATIO

1
0
TRUE
51149
0
LEFT NOT FITTED RIGHT NOT FITTED 0
NONE
NONE
15600
12
4.427000
51148
TRUE
1 0 8 72 0 0 0 0

15798

#HDR
-1
-1
#GR
µM
%T
2.38419e-05
0.0
2.000000
0.002000
12515
8
84.689
59.5403
#DATA
2.000000	 65.2682
2.018000	 64.589
2.036000	 64.5736
2.054000	 64.6994
2.072000	 65.3619
2.090000	 65.0818
2.108000	 65.2208
2.126000	 65.8864
2.144000	 65.037
2.162000	 64.7832
2.180000	 64.4459
2.198000	 64.0697
2.216000	 64.4773
2.234000	 63.6548
2.252000	 64.3573
2.270000	 64.9791
2.288000	 64.6296
2.306000	 64.1799
2.324000	 64.2422
2.342000	 64.4858
2.360000	 64.7686
2.378000	 65.1228
2.396000	 65.3219
2.414000	 65.3926
2.432000	 65.4106
2.450000	 65.3133
2.468000	 65.2734
2.486000	 65.3694
2.504000	 65.1934
2.522000	 65.0314
2.540000	 65.0626
2.558000	 65.1151
2.576000	 64.7941
2.594000	 65.0144
2.612000	 65.1558
2.630000	 65.3428
2.648000	 65.2611
2.666000	 65.2829
2.684000	 65.1264
2.702000	 65.3498
2.720000	 65.2635
2.738000	 65.3907
2.756000	 65.4404
2.774000	 65.305
2.792000	 65.1544
2.810000	 65.1735
2.828000	 65.0665
2.846000	 65.1803
2.864000	 65.0634
2.882000	 65.1533
2.900000	 65.0423
2.918000	 65.1114
2.936000	 65.1274
2.954000	 65.3294
2.972000	 65.1506
2.990000	 65.2073
3.008000	 65.1692
3.026000	 65.1374
3.044000	 65.0288
3.062000	 65.1947
3.080000	 65.1786
3.098000	 65.2236
3.116000	 65.0706
3.134000	 65.1819
3.152000	 65.1607
3.170000	 65.1757
3.188000	 64.8974
3.206000	 65.1062
3.224000	 65.2459
3.242000	 65.0747
3.260000	 65.1015
3.278000	 65.1828
3.296000	 65.0812
3.314000	 65.0774
3.332000	 65.2066
3.350000	 65.0577
3.368000	 64.9615
3.386000	 65.0127
3.404000	 64.9509
3.422000	 64.9893
3.440000	 65.101
3.458000	 65.0946
3.476000	 65.017
3.494000	 65.069
3.512000	 64.9811
3.530000	 64.9763
3.548000	 65.026
3.566000	 65.101
3.584000	 65.3078
3.602000	 65.0783
3.620000	 65.1016
3.638000	 65.0777
3.656000	 65.0627
3.674000	 65.1904
3.692000	 65.0227
3.710000	 65.138
3.728000	 64.9959
3.746000	 64.9977
3.764000	 65.0911
3.782000	 65.0657
3.800000	 64.9553
3.818000	 64.9327
3.836000	 64.9113
3.854000	 65.016
3.872000	 65.0138
3.890000	 64.9629
3.908000	 65.0477
3.926000	 64.958
3.944000	 65.0087
3.962000	 65.0064
3.980000	 65.055
3.998000	 64.9712
4.016000	 64.8961
4.034000	 65.0258
4.052000	 64.9235
4.070000	 64.9672
4.088000	 64.9669
4.106000	 65.0199
4.124000	 65.0649
4.141999	 65.0454
4.160000	 65.0558
4.178000	 65.0234
4.196000	 64.925
4.214000	 65.0414
4.232000	 64.9696
4.250000	 64.989
4.268000	 65.0104
4.286000	 65.0583
4.304000	 65.0469
4.322000	 65.0253
4.340000	 64.9604
4.358000	 64.9038
4.375999	 64.9459
4.394000	 64.9483
4.412000	 64.9011
4.430000	 64.8705
4.448000	 64.8919
4.466000	 64.926
4.484000	 64.94
4.502000	 64.852
4.520000	 64.8419
4.538000	 64.9449
4.556000	 64.9744
4.574000	 64.8914
4.592000	 64.8322
4.609999	 64.9022
4.628000	 64.8863
4.646000	 64.8312
4.664000	 64.7424
4.682000	 64.7637
4.700000	 64.7998
4.718000	 64.7674
4.736000	 64.8233
4.754000	 64.8323
4.772000	 64.8222
4.790000	 64.7747
4.808000	 64.7732
4.826000	 64.7965
4.843999	 64.7516
4.862000	 64.7724
4.880000	 64.7522
4.898000	 64.7714
4.916000	 64.834
4.934000	 64.7571
4.952000	 64.7557
4.970000	 64.7755
4.988000	 64.8705
5.006000	 64.8048
5.024000	 64.7764
5.042000	 64.7987
5.060000	 64.7868
5.077999	 64.7397
5.096000	 64.7823
5.114000	 64.7915
5.132000	 64.7296
5.150000	 64.742
5.168000	 64.7394
5.186000	 64.733
5.204000	 64.8132
5.222000	 64.6298
5.240000	 64.6089
5.258000	 64.6247
5.276000	 64.6551
5.294000	 64.7286
5.312000	 64.6551
5.330000	 64.651
5.348000	 64.6932
5.366000	 64.641
5.384000	 64.715
5.402000	 64.7399
5.420000	 64.6585
5.438000	 64.6385
5.456000	 64.598
5.474000	 64.6105
5.492000	 64.6681
5.510000	 64.6701
5.528000	 64.6761
5.546000	 64.7144
5.564000	 64.69
5.582000	 64.6777
5.600000	 64.6698
5.618000	 64.5935
5.636000	 64.5468
5.654000	 64.5056
5.672000	 64.4979
5.690000	 64.4118
5.708000	 64.3866
5.726000	 64.4203
5.744000	 64.3581
5.762000	 64.2556
5.780000	 64.2762
5.798000	 64.2772
5.816000	 64.3152
5.834000	 64.4241
5.852000	 64.4468
5.870000	 64.5973
5.888000	 64.6996
5.906000	 64.6073
5.923999	 64.5653
5.942000	 64.5004
5.960000	 64.466
5.978000	 64.5227
5.996000	 64.5137
6.014000	 64.4995
6.032000	 64.476
6.050000	 64.3958
6.068000	 64.3805
6.086000	 64.401
6.104000	 64.4561
6.122000	 64.5022
6.140000	 64.4895
6.158000	 64.4021
6.176000	 64.3136
6.194000	 64.2961
6.212000	 64.341
6.230000	 64.4242
6.248000	 64.478
6.266000	 64.4598
6.284000	 64.4039
6.302000	 64.3546
6.320000	 64.3152
6.338000	 64.293
6.356000	 64.3363
6.374000	 64.42
6.392000	 64.5247
6.410000	 64.538
6.428000	 64.4366
6.446000	 64.3865
6.464000	 64.3923
6.482000	 64.3612
6.500000	 64.3194
6.518000	 64.3541
6.536000	 64.3473
6.554000	 64.2674
6.572000	 64.2796
6.590000	 64.3887
6.608000	 64.4269
6.626000	 64.4204
6.644000	 64.453
6.662000	 64.4443
6.680000	 64.3726
6.698000	 64.328
6.716000	 64.2994
6.734000	 64.2514
6.752000	 64.2798
6.770000	 64.3603
6.788000	 64.3834
6.806000	 64.3629
6.824000	 64.2844
6.842000	 64.1654
6.860000	 64.1735
6.878000	 64.3083
6.896000	 64.3599
6.914000	 64.3265
6.932000	 64.3429
6.950000	 64.4012
6.968000	 64.4155
6.986000	 64.3725
7.004000	 64.3661
7.022000	 64.3983
7.040000	 64.3833
7.058000	 64.3421
7.076000	 64.3465
7.094000	 64.4071
7.112000	 64.4451
7.130000	 64.3763
7.148000	 64.2532
7.166000	 64.1706
7.184000	 64.1435
7.202000	 64.1474
7.220000	 64.15
7.238000	 64.1714
7.256000	 64.255
7.274000	 64.3297
7.292000	 64.3051
7.310000	 64.225
7.328000	 64.1803
7.346000	 64.1929
7.364000	 64.2129
7.382000	 64.1905
7.400000	 64.1604
7.418000	 64.182
7.436000	 64.2435
7.454000	 64.2968
7.472000	 64.3196
7.490000	 64.3145
7.508000	 64.3008
7.526000	 64.3001
7.544000	 64.3127
7.562000	 64.3125
7.580000	 64.2844
7.598000	 64.2404
7.616000	 64.1996
7.634000	 64.1852
7.652000	 64.1986
7.670000	 64.2085
7.688000	 64.2011
7.706000	 64.1978
7.724000	 64.2128
7.742000	 64.2403
7.760000	 64.2622
7.778000	 64.2501
7.796000	 64.204
7.814000	 64.1662
7.832000	 64.162
7.850000	 64.1711
7.868000	 64.179
7.886000	 64.1893
7.904000	 64.1887
7.922000	 64.1724
7.940000	 64.1787
7.958000	 64.2257
7.976000	 64.2571
7.994000	 64.2226
8.012000	 64.162
8.030000	 64.1391
8.048000	 64.1434
8.065999	 64.1239
8.084000	 64.075
8.102000	 64.0363
8.120000	 64.0329
8.138000	 64.0582
8.155999	 64.1006
8.173999	 64.1536
8.192000	 64.2038
8.210000	 64.234
8.228000	 64.2353
8.246000	 64.2122
8.263999	 64.179
8.282000	 64.155
8.300000	 64.1499
8.318000	 64.1557
8.336000	 64.1602
8.353999	 64.1584
8.372000	 64.144
8.390000	 64.1045
8.408000	 64.0359
8.426000	 63.963
8.443999	 63.9274
8.462000	 63.943
8.480000	 63.9755
8.498000	 63.9837
8.516000	 63.971
8.533999	 63.973
8.552000	 64.0009
8.570000	 64.0323
8.588000	 64.0504
8.606000	 64.0508
8.624000	 64.0317
8.641999	 63.9995
8.660000	 63.9649
8.678000	 63.9331
8.696000	 63.9173
8.714000	 63.9375
8.731999	 63.9922
8.750000	 64.0456
8.768000	 64.0595
8.786000	 64.0309
8.804000	 63.9875
8.821999	 63.9523
8.840000	 63.9271
8.858000	 63.9065
8.876000	 63.8963
8.894000	 63.9164
8.911999	 63.982
8.930000	 64.0755
8.948000	 64.1504
8.966000	 64.1696
8.984000	 64.1382
9.001999	 64.0952
9.020000	 64.0779
9.038000	 64.0904
9.056000	 64.0987
9.074000	 64.0646
9.092000	 63.9865
9.109999	 63.9031
9.128000	 63.8585
9.146000	 63.8659
9.164000	 63.9017
9.182000	 63.9315
9.199999	 63.9363
9.218000	 63.9226
9.236000	 63.9133
9.254000	 63.9309
9.272000	 63.98
9.289999	 64.0431
9.308000	 64.0929
9.326000	 64.1101
9.344000	 64.0914
9.362000	 64.0447
9.379999	 63.9832
9.398000	 63.9231
9.416000	 63.8819
9.434000	 63.8741
9.452000	 63.9037
9.469999	 63.961
9.488000	 64.0274
9.506000	 64.0836
9.524000	 64.1172
9.542000	 64.1254
9.560000	 64.1112
9.577999	 64.0793
9.596000	 64.0351
9.614000	 63.9889
9.632000	 63.958
9.650000	 63.9576
9.667999	 63.99
9.686000	 64.0416
9.704000	 64.0922
9.722000	 64.1271
9.740000	 64.1414
9.757999	 64.1375
9.776000	 64.1215
9.794000	 64.1019
9.812000	 64.0906
9.830000	 64.0968
9.847999	 64.1194
9.866000	 64.1447
9.884000	 64.1561
9.902000	 64.1471
9.920000	 64.1257
9.937999	 64.1085
9.956000	 64.1051
9.974000	 64.1101
9.992000	 64.1087
10.01	64.0892
10.028	64.0537
10.046	64.0146
10.064	63.9836
10.082	63.9637
10.1	63.9517
10.118	63.9485
10.136	63.9632
10.154	64.0062
10.172	64.0757
10.19	64.1502
10.208	64.1983
10.226	64.199
10.244	64.1541
10.262	64.0867
10.28	64.0233
10.298	63.9789
10.316	63.9514
10.334	63.9312
10.352	63.912
10.37	63.8961
10.388	63.8897
10.406	63.8953
10.424	63.9092
10.442	63.9247
10.46	63.9379
10.478	63.9499
10.496	63.965
10.514	63.9851
10.532	64.0073
10.55	64.0249
10.568	64.0312
10.586	64.0235
10.604	64.0045
10.622	63.9804
10.64	63.9575
10.658	63.9393
10.676	63.925
10.694	63.9113
10.712	63.8963
10.73	63.8837
10.748	63.8819
10.766	63.9019
10.784	63.9502
10.802	64.0244
10.82	64.1137
10.838	64.2017
10.856	64.2743
10.874	64.3217
10.892	64.3404
10.91	64.3311
10.928	64.2972
10.946	64.2463
10.964	64.1895
10.982	64.1407
11	64.111
11.018	64.1036
11.036	64.1116
11.054	64.1209
11.072	64.1181
11.09	64.0984
11.108	64.0684
11.126	64.0431
11.144	64.0362
11.162	64.0534
11.18	64.0895
11.198	64.1311
11.216	64.1639
11.234	64.1792
11.252	64.1757
11.27	64.1586
11.288	64.1363
11.306	64.1165
11.324	64.1046
11.342	64.1022
11.36	64.1082
11.378	64.1179
11.396	64.1252
11.414	64.1241
11.432	64.1121
11.45	64.0918
11.468	64.0707
11.486	64.0571
11.504	64.0564
11.522	64.0681
11.54	64.0865
11.558	64.1027
11.576	64.1111
11.594	64.1115
11.612	64.1095
11.63	64.1133
11.648	64.1289
11.666	64.1557
11.684	64.1866
11.702	64.2114
11.72	64.2205
11.738	64.21
11.756	64.183
11.774	64.1482
11.792	64.1169
11.81	64.0982
11.828	64.0966
11.846	64.1117
11.864	64.1385
11.882	64.1703
11.9	64.1993
11.918	64.218
11.936	64.2208
11.954	64.2038
11.972	64.1658
11.99	64.1097
12.008	64.0419
12.026	63.9716
12.044	63.9094
12.062	63.8651
12.08	63.8445
12.098	63.8487
12.116	63.873
12.134	63.9082
12.152	63.9429
12.17	63.9673
12.188	63.9755
12.206	63.9658
12.224	63.9411
12.242	63.9065
12.26	63.8677
12.278	63.8305
12.296	63.8
12.314	63.7812
12.332	63.7778
12.35	63.7925
12.368	63.8251
12.386	63.872
12.404	63.9264
12.422	63.9798
12.44	64.0243
12.458	64.0545
12.476	64.0692
12.494	64.0715
12.512	64.0673
12.53	64.0628
12.548	64.062
12.566	64.0658
12.584	64.0714
12.602	64.0744
12.62	64.0708
12.638	64.0595
12.656	64.0432
12.674	64.0276
12.692	64.0194
12.71	64.0235
12.728	64.0413
12.746	64.0688
12.764	64.0982
12.782	64.1203
12.8	64.1276
12.818	64.1161
12.836	64.0867
12.854	64.0446
12.872	63.998
12.89	63.9552
12.908	63.9228
12.926	63.9039
12.944	63.898
12.962	63.902
12.98	63.9115
12.998	63.9226
13.016	63.9328
13.034	63.9417
13.052	63.9505
13.07	63.9607
13.088	63.9733
13.106	63.987
13.124	63.999
13.142	64.0041
13.16	63.996
13.178	63.9694
13.196	63.9215
13.214	63.8544
13.232	63.7747
13.25	63.694
13.268	63.6262
13.286	63.5851
13.304	63.5807
13.322	63.6171
13.34	63.6908
13.358	63.7912
13.376	63.9025
13.394	64.007
13.412	64.0887
13.43	64.1365
13.448	64.1459
13.466	64.1194
13.484	64.0646
13.502	63.9921
13.52	63.9128
13.538	63.8356
13.556	63.7669
13.574	63.71
13.592	63.666
13.61	63.6354
13.628	63.6177
13.646	63.6121
13.664	63.6173
13.682	63.6313
13.7	63.652
13.718	63.6755
13.736	63.6981
13.754	63.7164
13.772	63.7284
13.79	63.7338
13.808	63.7335
13.826	63.7303
13.844	63.7265
13.862	63.7234
13.88	63.7206
13.898	63.7155
13.916	63.7044
13.934	63.6832
13.952	63.6485
13.97	63.5992
13.988	63.5364
14.006	63.4641
14.024	63.3888
14.042	63.3174
14.06	63.2571
14.078	63.2139
14.096	63.1929
14.114	63.1977
14.132	63.2299
14.15	63.2894
14.168	63.3749
14.186	63.4829
14.204	63.6087
14.222	63.7457
14.24	63.8855
14.258	64.0193
14.276	64.1381
14.294	64.2341
14.312	64.301
14.33	64.3356
14.348	64.3378
14.366	64.3117
14.384	64.2643
14.402	64.2046
14.42	64.1415
14.438	64.0836
14.456	64.0373
14.474	64.0066
14.492	63.9924
14.51	63.9926
14.528	64.0032
14.546	64.0187
14.564	64.0333
14.582	64.0414
14.6	64.0383
14.618	64.0209
14.636	63.9879
14.654	63.94
14.672	63.8792
14.69	63.8086
14.708	63.7317
14.726	63.6528
14.744	63.5762
14.762	63.5057
14.78	63.4446
14.798	63.3957
14.816	63.3617
14.834	63.3448
14.852	63.3462
14.87	63.3663
14.888	63.4045
14.906	63.4592
14.924	63.5278
14.942	63.606
14.96	63.689
14.978	63.7726
14.996	63.8525
15.014	63.9256
15.032	63.9888
15.05	64.0412
15.068	64.0833
15.086	64.1165
15.104	64.1429
15.122	64.1658
15.14	64.1874
15.158	64.2095
15.176	64.2328
15.194	64.2573
15.212	64.2812
15.23	64.3023
15.248	64.3177
15.266	64.3242
15.284	64.3185
15.302	64.2986
15.32	64.2637
15.338	64.2141
15.356	64.1519
15.374	64.0809
15.392	64.0057
15.41	63.9315
15.428	63.8644
15.446	63.8109
15.464	63.7757
15.482	63.7622
15.5	63.7724
15.518	63.8053
15.536	63.8571
15.554	63.9231
15.572	63.9968
15.59	64.0688
15.608	64.1317
15.626	64.1791
15.644	64.2049
15.662	64.2057
15.68	64.1819
15.698	64.1348
15.716	64.069
15.734	63.9917
15.752	63.9092
15.77	63.8284
15.788	63.7578
15.806	63.702
15.824	63.6642
15.842	63.6469
15.86	63.6486
15.878	63.6664
15.896	63.6968
15.914	63.7328
15.932	63.7683
15.95	63.7983
15.968	63.8171
15.986	63.82
16.004	63.8055
16.022	63.7724
16.04	63.7215
16.058	63.656
16.076	63.5787
16.094	63.4949
16.112	63.4103
16.13	63.3292
16.148	63.2568
16.166	63.1979
16.184	63.1548
16.202	63.1299
16.22	63.1238
16.238	63.136
16.256	63.1655
16.274	63.2097
16.292	63.2662
16.31	63.3329
16.328	63.4064
16.346	63.4843
16.364	63.5649
16.382	63.6455
16.4	63.7249
16.418	63.802
16.436	63.8754
16.454	63.9443
16.472	64.0082
16.49	64.0664
16.508	64.1188
16.526	64.1652
16.544	64.206
16.562	64.2418
16.58	64.2729
16.598	64.3005
16.616	64.3249
16.634	64.3466
16.652	64.3661
16.67	64.3835
16.688	64.3986
16.706	64.411
16.724	64.4202
16.742	64.4256
16.76	64.4262
16.778	64.4217
16.796	64.4115
16.814	64.3958
16.832	64.375
16.85	64.3501
16.868	64.3224
16.886	64.2932
16.904	64.2646
16.922	64.2374
16.94	64.2132
16.958	64.1926
16.976	64.1759
16.994	64.1628
17.012	64.1525
17.03	64.1446
17.048	64.1373
17.066	64.1299
17.084	64.1215
17.102	64.1114
17.12	64.0995
17.138	64.0864
17.156	64.073
17.174	64.0601
17.192	64.05
17.21	64.0435
17.228	64.0426
17.246	64.0483
17.264	64.0616
17.282	64.0829
17.3	64.1119
17.318	64.1479
17.336	64.1884
17.354	64.2324
17.372	64.2754
17.39	64.3159
17.408	64.3497
17.426	64.3737
17.444	64.3857
17.462	64.3824
17.48	64.3632
17.498	64.3267
17.516	64.2744
17.534	64.2066
17.552	64.1274
17.57	64.0379
17.588	63.9442
17.606	63.8489
17.624	63.7568
17.642	63.6727
17.66	63.5988
17.678	63.5397
17.696	63.4962
17.714	63.4705
17.732	63.4613
17.75	63.4685
17.768	63.4888
17.786	63.5212
17.804	63.5601
17.822	63.6042
17.84	63.6486
17.858	63.6916
17.876	63.7302
17.894	63.7632
17.912	63.7897
17.93	63.8101
17.948	63.8247
17.966	63.8353
17.984	63.8429
18.002	63.8496
18.02	63.8562
18.038	63.8642
18.056	63.874
18.074	63.8858
18.092	63.8988
18.11	63.9127
18.128	63.9253
18.146	63.936
18.164	63.9422
18.182	63.943
18.2	63.9363
18.218	63.9211
18.236	63.8964
18.254	63.8617
18.272	63.8167
18.29	63.7619
18.308	63.6975
18.326	63.6254
18.344	63.5461
18.362	63.4622
18.38	63.3749
18.398	63.2872
18.416	63.2008
18.434	63.118
18.452	63.0414
18.47	62.9726
18.488	62.9142
18.506	62.8672
18.524	62.8337
18.542	62.8142
18.56	62.8098
18.578	62.8205
18.596	62.8458
18.614	62.8857
18.632	62.9376
18.65	63.0012
18.668	63.0728
18.686	63.1518
18.704	63.2336
18.722	63.3176
18.74	63.3992
18.758	63.478
18.776	63.5501
18.794	63.6154
18.812	63.6714
18.83	63.7183
18.848	63.7552
18.866	63.7826
18.884	63.8009
18.902	63.8111
18.92	63.8145
18.938	63.8122
18.956	63.8057
18.974	63.7958
18.992	63.7841
19.01	63.7708
19.028	63.7573
19.046	63.7434
19.064	63.7297
19.082	63.7161
19.1	63.7025
19.118	63.6887
19.136	63.6743
19.154	63.6591
19.172	63.6427
19.19	63.625
19.208	63.6056
19.226	63.5847
19.244	63.5621
19.262	63.5381
19.28	63.5132
19.298	63.4876
19.316	63.462
19.334	63.4366
19.352	63.4126
19.37	63.3899
19.388	63.3699
19.406	63.3523
19.424	63.3382
19.442	63.3276
19.46	63.3208
19.478	63.3178
19.496	63.3185
19.514	63.3226
19.532	63.33
19.55	63.3404
19.568	63.3533
19.586	63.3682
19.604	63.3846
19.622	63.4017
19.64	63.4191
19.658	63.4356
19.676	63.4512
19.694	63.4645
19.712	63.4755
19.73	63.4831
19.748	63.4871
19.766	63.4869
19.784	63.4823
19.802	63.473
19.82	63.4588
19.838	63.4397
19.856	63.4158
19.874	63.3872
19.892	63.3545
19.91	63.3176
19.928	63.2777
19.946	63.2346
19.964	63.1898
19.982	63.1433
20	63.0963
20.018	63.0494
20.036	63.0032
20.054	62.959
20.072	62.9167
20.09	62.878
20.108	62.8426
20.126	62.8115
20.144	62.7848
20.162	62.7627
20.18	62.7455
20.198	62.7327
20.216	62.7242
20.234	62.7197
20.252	62.7185
20.27	62.7206
20.288	62.7246
20.306	62.7303
20.324	62.737
20.342	62.7442
20.36	62.7519
20.378	62.7593
20.396	62.7667
20.414	62.7744
20.432	62.7823
20.45	62.7915
20.468	62.8022
20.486	62.815
20.504	62.8314
20.522	62.8512
20.54	62.876
20.558	62.9058
20.576	62.9409
20.594	62.9819
20.612	63.0282
20.63	63.0795
20.648	63.1358
20.666	63.1947
20.684	63.257
20.702	63.3197
20.72	63.3814
20.738	63.4417
20.756	63.4968
20.774	63.5477
20.792	63.5907
20.81	63.6254
20.828	63.6513
20.846	63.6666
20.864	63.6719
20.882	63.6674
20.9	63.6526
20.918	63.6296
20.936	63.5993
20.954	63.5622
20.972	63.5222
20.99	63.4785
21.008	63.4349
21.026	63.3928
21.044	63.3527
21.062	63.3183
21.08	63.2889
21.098	63.2661
21.116	63.2508
21.134	63.2425
21.152	63.2412
21.17	63.247
21.188	63.2576
21.206	63.2732
21.224	63.2922
21.242	63.3115
21.26	63.3322
21.278	63.3506
21.296	63.3661
21.314	63.3781
21.332	63.3841
21.35	63.3846
21.368	63.3786
21.386	63.3653
21.404	63.3455
21.422	63.3195
21.44	63.287
21.458	63.25
21.476	63.2089
21.494	63.1641
21.512	63.1189
21.53	63.0724
21.548	63.027
21.566	62.9845
21.584	62.9444
21.602	62.9093
21.62	62.8793
21.638	62.8548
21.656	62.837
21.674	62.8257
21.692	62.8204
21.71	62.8217
21.728	62.8288
21.746	62.8407
21.764	62.858
21.782	62.879
21.8	62.9023
21.818	62.9285
21.836	62.9549
21.854	62.9816
21.872	63.0079
21.89	63.0314
21.908	63.0529
21.926	63.071
21.944	63.0848
21.962	63.0945
21.98	63.0992
21.998	63.0988
22.016	63.0932
22.034	63.0823
22.052	63.066
22.07	63.0448
22.088	63.0189
22.106	62.9881
22.124	62.9534
22.142	62.915
22.16	62.8729
22.178	62.8284
22.196	62.7813
22.214	62.7322
22.232	62.6821
22.25	62.6305
22.268	62.5787
22.286	62.5272
22.304	62.4758
22.322	62.4259
22.34	62.3777
22.358	62.3312
22.376	62.2879
22.394	62.2474
22.412	62.2103
22.43	62.1775
22.448	62.1486
22.466	62.1242
22.484	62.105
22.502	62.0905
22.52	62.0813
22.538	62.0775
22.556	62.079
22.574	62.0857
22.592	62.0979
22.61	62.1152
22.628	62.1372
22.646	62.1641
22.664	62.1955
22.682	62.2306
22.7	62.2699
22.718	62.3125
22.736	62.3575
22.754	62.4056
22.772	62.4554
22.79	62.5062
22.808	62.5586
22.826	62.6109
22.844	62.6623
22.862	62.7134
22.88	62.7623
22.898	62.8085
22.916	62.8523
22.934	62.8919
22.952	62.9268
22.97	62.9575
22.988	62.982
23.006	63
23.024	63.0118
23.042	63.0164
23.06	63.0134
23.078	63.0031
23.096	62.9854
23.114	62.9597
23.132	62.9266
23.15	62.887
23.168	62.8404
23.186	62.7875
23.204	62.7305
23.222	62.6685
23.24	62.6025
23.258	62.5355
23.276	62.4666
23.294	62.3968
23.312	62.3295
23.33	62.2642
23.348	62.2014
23.366	62.144
23.384	62.0919
23.402	62.0451
23.42	62.0061
23.438	61.9752
23.456	61.9519
23.474	61.9367
23.492	61.9301
23.51	61.9315
23.528	61.9394
23.546	61.9539
23.564	61.975
23.582	61.9996
23.6	62.0269
23.618	62.058
23.636	62.089
23.654	62.1183
23.672	62.1475
23.69	62.1734
23.708	62.1937
23.726	62.2101
23.744	62.2205
23.762	62.2231
23.78	62.2186
23.798	62.207
23.816	62.1876
23.834	62.1601
23.852	62.1258
23.87	62.086
23.888	62.0398
23.906	61.9883
23.924	61.9339
23.942	61.8763
23.96	61.8155
23.978	61.7541
23.996	61.6928
24.014	61.6307
24.032	61.57
24.05	61.5122
24.068	61.456
24.086	61.4027
24.104	61.3535
24.122	61.308
24.14	61.2661
24.158	61.2277
24.176	61.1932
24.194	61.1621
24.212	61.1334
24.23	61.107
24.248	61.0831
24.266	61.0605
24.284	61.0387
24.302	61.0183
24.32	60.9984
24.338	60.978
24.356	60.9574
24.374	60.9367
24.392	60.9158
24.41	60.8944
24.428	60.8728
24.446	60.8514
24.464	60.8302
24.482	60.8093
24.5	60.7885
24.518	60.7677
24.536	60.7471
24.554	60.7265
24.572	60.7061
24.59	60.6859
24.608	60.6659
24.626	60.6459
24.644	60.6258
24.662	60.6056
24.68	60.5857
24.698	60.5661
24.716	60.5469
24.734	60.5279
24.752	60.509
24.77	60.4898
24.788	60.4705
24.806	60.452
24.824	60.4347
24.842	60.4178
24.86	60.4024
24.878	60.3895
24.896	60.378
24.914	60.3687
24.932	60.3639
24.95	60.3643
24.968	60.3682
24.986	60.3787
25.004	60.3992
25.022	60.4279
25.04	60.4654
25.058	60.5149
25.076	60.5779
25.094	60.6527
25.112	60.74
25.13	60.8409
25.148	60.9553
25.166	61.0826
25.184	61.2223
25.202	61.3747
25.22	61.54
25.238	61.7166
25.256	61.9025
25.274	62.0998
25.292	62.3068
25.31	62.5202
25.328	62.7382
25.346	62.9637
25.364	63.1927
25.382	63.4206
25.4	63.649
25.418	63.878
25.436	64.1035
25.454	64.3223
25.472	64.5373
25.49	64.7467
25.508	64.9474
25.526	65.1378
25.544	65.3195
25.562	65.4937
25.58	65.6613
25.598	65.8199
25.616	65.9719
25.634	66.1217
25.652	66.2715
25.67	66.417
25.688	66.5638
25.706	66.7182
25.724	66.8801
25.742	67.0471
25.76	67.2245
25.778	67.4172
25.796	67.6229
25.814	67.8416
25.832	68.0758
25.85	68.3279
25.868	68.5977
25.886	68.8823
25.904	69.1789
25.922	69.4892
25.94	69.8152
25.958	70.1476
25.976	70.477
25.994	70.8106
26.012	71.1465
26.03	71.4705
26.048	71.7709
26.066	72.0588
26.084	72.3284
26.102	72.5665
26.12	72.7654
26.138	72.9355
26.156	73.0693
26.174	73.1564
26.192	73.193
26.21	73.1857
26.228	73.1304
26.246	73.0225
26.264	72.86
26.282	72.6457
26.3	72.3821
26.318	72.0715
26.336	71.7098
26.354	71.2995
26.372	70.8484
26.39	70.3631
26.408	69.8342
26.426	69.2678
26.444	68.6785
26.462	68.0774
26.48	67.4516
26.498	66.8088
26.516	66.1635
26.534	65.5254
26.552	64.8785
26.57	64.2357
26.588	63.6152
26.606	63.0274
26.624	62.4548
26.642	61.9112
26.66	61.4147
26.678	60.9742
26.696	60.5727
26.714	60.2242
26.732	59.9458
26.75	59.7451
26.768	59.6069
26.786	59.543
26.804	59.5673
26.822	59.6866
26.84	59.8905
26.858	60.1833
26.876	60.5707
26.894	61.0572
26.912	61.6401
26.93	62.3149
26.948	63.0773
26.966	63.9853
26.984	65.1314
27.002	66.2863
27.02	67.2008
27.028	67.4391