File: Bakgrunnsmateriale/MATLAB/FTIR/ftir_data/subAa/Mapping_121/BZ1503107-1_t108_cm-1.asc
PE IR       SPECTRUM    SPECTRUM    ASCII       PEDS        1.60
  -1
BZCB7C~1.ASC
17/04/07
22:05:09.00
17/04/07
22:05:09.00
tln
$BZ1503107-1_t0108$<tbV0>[-7.8,10.4,8.0,0.0,27,1,0]
370
64

2002,4.07
MIRTGS : RIGHTBACK : INTERNAL 2
MIR : ON : INTERNAL 2
OPTKBR

0.200000
8
8.000000
FILLER
RATIO
SPECTRUM
UNLOCKED 256

DOUBLE
64
COMBINED
1
0
0

1.000000
RATIO

1
0
TRUE
51149
0
LEFT NOT FITTED RIGHT NOT FITTED 0
NONE
NONE
15600
12
4.427000
51148
TRUE
1 0 8 72 0 0 0 0

15798

#HDR
-1
-1
#GR
CM-1
%T
2.38419e-05
0.0
5000
-1.000000
4631
8
86.9529
38.3128
#DATA
5000	66.8541
4996	66.8474
4992	65.2758
4988	64.1796
4984	64.4401
4980	64.4029
4976	63.9003
4972	63.5241
4968	63.4613
4964	64.3531
4960	64.8977
4956	65.1885
4952	66.7612
4948	67.3127
4944	65.6916
4940	65.0009
4936	65.5611
4932	65.5227
4928	65.2547
4924	65.169
4920	64.9757
4916	64.712
4912	64.9101
4908	65.7239
4904	65.7837
4900	65.2255
4896	65.1659
4892	65.1423
4888	64.9275
4884	64.8947
4880	64.999
4876	65.1458
4872	65.2068
4868	65.1381
4864	64.9998
4860	64.8889
4856	64.9447
4852	64.864
4848	64.6453
4844	64.8556
4840	65.2324
4836	65.2386
4832	65.1206
4828	65.2074
4824	65.3542
4820	65.3969
4816	65.4431
4812	65.4271
4808	65.3625
4804	65.3123
4800	65.203
4796	65.1089
4792	65.2299
4788	65.4667
4784	65.5448
4780	65.6423
4776	65.7939
4772	65.7799
4768	65.6852
4764	65.5386
4760	65.306
4756	65.1298
4752	65.1909
4748	65.3388
4744	65.3434
4740	65.3449
4736	65.3133
4732	65.2283
4728	65.2933
4724	65.4428
4720	65.4981
4716	65.3873
4712	65.2612
4708	65.416
4704	65.582
4700	65.5065
4696	65.3989
4692	65.3594
4688	65.4936
4684	65.7108
4680	65.7425
4676	65.5109
4672	65.3599
4668	65.4259
4664	65.4766
4660	65.5329
4656	65.5614
4652	65.5016
4648	65.4145
4644	65.3035
4640	65.2114
4636	65.2736
4632	65.4551
4628	65.5873
4624	65.6084
4620	65.4996
4616	65.3336
4612	65.1911
4608	65.0717
4604	65.027
4600	65.1149
4596	65.2899
4592	65.3147
4588	65.1153
4584	64.8972
4580	64.8763
4576	65.0377
4572	65.151
4568	65.0874
4564	64.727
4560	64.2793
4556	64.0546
4552	64.078
4548	64.3085
4544	64.6405
4540	64.8777
4536	64.9281
4532	64.8784
4528	64.7139
4524	64.5089
4520	64.49
4516	64.5418
4512	64.3735
4508	64.356
4504	64.7228
4500	64.7575
4496	64.233
4492	63.5979
4488	63.3489
4484	63.7076
4480	64.1053
4476	63.9165
4472	63.7924
4468	64.2703
4464	64.9893
4460	65.6523
4456	65.4351
4452	66.3352
4448	71.8547
4444	84.0659
4440	85.057
4436	74.3117
4432	67.2148
4428	63.3939
4424	63.1124
4420	64.4443
4416	64.802
4412	65.4807
4408	65.7986
4404	65.7197
4400	65.2183
4396	64.5142
4392	64.0589
4388	63.9554
4384	64.05
4380	64.0618
4376	64.2588
4372	64.5661
4368	64.6629
4364	64.7086
4360	64.7988
4356	64.7827
4352	64.6908
4348	64.5569
4344	64.3862
4340	64.3286
4336	64.4029
4332	64.5673
4328	64.7765
4324	64.8233
4320	64.7252
4316	64.6501
4312	64.6127
4308	64.5416
4304	64.4773
4300	64.5373
4296	64.7757
4292	65.0878
4288	65.1654
4284	65.1105
4280	65.0761
4276	64.9525
4272	64.8231
4268	64.7001
4264	64.631
4260	64.7138
4256	64.9193
4252	65.1914
4248	65.335
4244	65.3068
4240	65.2662
4236	65.2399
4232	65.2424
4228	65.2373
4224	65.1004
4220	64.9537
4216	64.9992
4212	65.1641
4208	65.3277
4204	65.3327
4200	65.1777
4196	65.2024
4192	65.4241
4188	65.4928
4184	65.3856
4180	65.4217
4176	65.6107
4172	65.596
4168	65.3475
4164	65.2345
4160	65.2709
4156	65.3098
4152	65.3676
4148	65.3221
4144	65.1475
4140	65.0775
4136	65.2592
4132	65.4314
4128	65.3704
4124	65.2043
4120	65.1861
4116	65.3316
4112	65.3913
4108	65.3572
4104	65.3124
4100	65.345
4096	65.4304
4092	65.365
4088	65.2128
4084	65.215
4080	65.3346
4076	65.3658
4072	65.2056
4068	64.9587
4064	64.886
4060	64.9656
4056	65.1134
4052	65.1809
4048	65.0204
4044	65.0146
4040	65.3177
4036	65.5236
4032	65.496
4028	65.3439
4024	65.1628
4020	65.1114
4016	65.1221
4012	65.0803
4008	65.0237
4004	64.9713
4000	65.0056
3996	65.1196
3992	65.2631
3988	65.3446
3984	65.2855
3980	65.2232
3976	65.2324
3972	65.2634
3968	65.1952
3964	65.0503
3960	64.9999
3956	65.0231
3952	64.9911
3948	64.8832
3944	64.9274
3940	65.1639
3936	65.2145
3932	65.125
3928	65.1079
3924	65.0594
3920	64.9571
3916	64.8802
3912	65.0102
3908	65.2629
3904	65.3441
3900	65.2669
3896	65.2133
3892	65.2878
3888	65.3915
3884	65.3619
3880	65.2753
3876	65.1152
3872	64.8675
3868	64.8867
3864	65.1518
3860	65.2485
3856	65.1022
3852	64.9279
3848	64.9017
3844	65.0313
3840	65.1877
3836	65.198
3832	65.0944
3828	65.0822
3824	65.1658
3820	65.2332
3816	65.3244
3812	65.3697
3808	65.1915
3804	65.0233
3800	65.1276
3796	65.2555
3792	65.2134
3788	65.1915
3784	65.2428
3780	65.1853
3776	65.1403
3772	65.1983
3768	65.2267
3764	65.2022
3760	65.118
3756	65.1214
3752	65.224
3748	65.2631
3744	65.2694
3740	65.2678
3736	65.2847
3732	65.2861
3728	65.2177
3724	65.2062
3720	65.2818
3716	65.3105
3712	65.2729
3708	65.195
3704	65.1356
3700	65.1931
3696	65.3043
3692	65.3533
3688	65.4248
3684	65.5152
3680	65.4289
3676	65.2635
3672	65.2426
3668	65.3239
3664	65.3412
3660	65.2888
3656	65.229
3652	65.1741
3648	65.1914
3644	65.2532
3640	65.3001
3636	65.3171
3632	65.3205
3628	65.3281
3624	65.255
3620	65.1321
3616	65.0951
3612	65.1622
3608	65.2053
3604	65.1482
3600	65.1445
3596	65.2897
3592	65.4083
3588	65.3128
3584	65.1478
3580	65.0656
3576	65.0387
3572	65.086
3568	65.1811
3564	65.2701
3560	65.2391
3556	65.135
3552	65.095
3548	65.0329
3544	65.0029
3540	65.167
3536	65.3285
3532	65.2796
3528	65.2174
3524	65.2032
3520	65.1364
3516	65.0757
3512	65.0409
3508	65.0378
3504	65.1086
3500	65.209
3496	65.2451
3492	65.2348
3488	65.1943
3484	65.0791
3480	65.0213
3476	65.0917
3472	65.1703
3468	65.2145
3464	65.2061
3460	65.195
3456	65.2096
3452	65.1453
3448	65.0279
3444	64.9894
3440	65.0522
3436	65.1135
3432	65.1011
3428	65.1179
3424	65.1983
3420	65.2072
3416	65.1526
3412	65.1668
3408	65.1801
3404	65.0858
3400	65.0665
3396	65.1842
3392	65.2193
3388	65.1274
3384	65.0422
3380	65.0391
3376	65.1204
3372	65.1596
3368	65.0761
3364	65.0314
3360	65.0549
3356	65.0974
3352	65.1779
3348	65.2002
3344	65.1967
3340	65.14
3336	65.0409
3332	65.0316
3328	64.9886
3324	64.9701
3320	65.0886
3316	65.1409
3312	65.1051
3308	65.1431
3304	65.2184
3300	65.1967
3296	65.1192
3292	65.0975
3288	65.104
3284	65.0846
3280	65.0502
3276	65.0314
3272	65.0381
3268	65.1106
3264	65.1968
3260	65.1886
3256	65.2104
3252	65.2585
3248	65.1923
3244	65.0965
3240	65.048
3236	65.086
3232	65.1447
3228	65.0779
3224	64.9471
3220	64.8542
3216	64.8545
3212	64.924
3208	64.9353
3204	64.935
3200	64.996
3196	65.0461
3192	65.0676
3188	65.085
3184	65.1105
3180	65.0965
3176	65.0276
3172	65.0497
3168	65.1281
3164	65.0675
3160	64.9914
3156	64.9874
3152	64.9485
3148	64.9664
3144	65.0271
3140	65.0333
3136	65.0136
3132	64.9225
3128	64.8341
3124	64.8576
3120	64.8981
3116	64.8947
3112	64.8871
3108	64.9002
3104	64.9365
3100	64.9875
3096	65.0178
3092	65.0159
3088	64.9913
3084	64.931
3080	64.883
3076	64.8681
3072	64.848
3068	64.8381
3064	64.8376
3060	64.867
3056	64.9271
3052	64.992
3048	65.0773
3044	65.0785
3040	64.9976
3036	64.9524
3032	64.9047
3028	64.8835
3024	64.9132
3020	64.9152
3016	64.9163
3012	64.9276
3008	64.9301
3004	64.9556
3000	64.9771
2996	64.9442
2992	64.8449
2988	64.7471
2984	64.7261
2980	64.7068
2976	64.5911
2972	64.443
2968	64.2985
2964	64.1504
2960	64.1217
2956	64.2192
2952	64.2994
2948	64.3387
2944	64.3817
2940	64.3851
2936	64.3751
2932	64.4728
2928	64.6372
2924	64.6922
2920	64.61
2916	64.4986
2912	64.4178
2908	64.4429
2904	64.5312
2900	64.5308
2896	64.5075
2892	64.5292
2888	64.5349
2884	64.5244
2880	64.526
2876	64.5485
2872	64.5654
2868	64.5294
2864	64.5216
2860	64.5552
2856	64.5577
2852	64.579
2848	64.6486
2844	64.7636
2840	64.82
2836	64.7756
2832	64.7763
2828	64.8217
2824	64.8036
2820	64.7437
2816	64.707
2812	64.7299
2808	64.7548
2804	64.7169
2800	64.7332
2796	64.7822
2792	64.7322
2788	64.7133
2784	64.8196
2780	64.8835
2776	64.8349
2772	64.7786
2768	64.7792
2764	64.8178
2760	64.8049
2756	64.7256
2752	64.6921
2748	64.7169
2744	64.7131
2740	64.6985
2736	64.7306
2732	64.8234
2728	64.9015
2724	64.8732
2720	64.7617
2716	64.7113
2712	64.8191
2708	64.8953
2704	64.8021
2700	64.6933
2696	64.6977
2692	64.7566
2688	64.7835
2684	64.7917
2680	64.7855
2676	64.708
2672	64.623
2668	64.655
2664	64.7071
2660	64.6857
2656	64.6595
2652	64.6958
2648	64.792
2644	64.84
2640	64.7939
2636	64.7272
2632	64.7009
2628	64.721
2624	64.7337
2620	64.6984
2616	64.6955
2612	64.7213
2608	64.6741
2604	64.6151
2600	64.612
2596	64.658
2592	64.6964
2588	64.6819
2584	64.6831
2580	64.6899
2576	64.6898
2572	64.7263
2568	64.7225
2564	64.6844
2560	64.6743
2556	64.6838
2552	64.7225
2548	64.7285
2544	64.6838
2540	64.6339
2536	64.5929
2532	64.6364
2528	64.704
2524	64.7039
2520	64.7148
2516	64.691
2512	64.5885
2508	64.4889
2504	64.4511
2500	64.5195
2496	64.6048
2492	64.6204
2488	64.5959
2484	64.5049
2480	64.4392
2476	64.5226
2472	64.6081
2468	64.608
2464	64.6198
2460	64.6586
2456	64.6888
2452	64.6461
2448	64.5248
2444	64.479
2440	64.5444
2436	64.5721
2432	64.5473
2428	64.5817
2424	64.6265
2420	64.5881
2416	64.5261
2412	64.5036
2408	64.544
2404	64.6018
2400	64.6044
2396	64.5987
2392	64.5785
2388	64.5348
2384	64.5097
2380	64.4893
2376	64.4622
2372	64.4528
2368	64.512
2364	64.6162
2360	64.6717
2356	64.6432
2352	64.5771
2348	64.5505
2344	64.5739
2340	64.5503
2336	64.461
2332	64.4152
2328	64.4739
2324	64.5893
2320	64.6203
2316	64.5242
2312	64.4478
2308	64.4416
2304	64.4006
2300	64.3444
2296	64.3682
2292	64.3838
2288	64.3393
2284	64.3199
2280	64.3164
2276	64.3575
2272	64.4531
2268	64.4893
2264	64.4719
2260	64.4751
2256	64.4916
2252	64.4891
2248	64.456
2244	64.4038
2240	64.3847
2236	64.4051
2232	64.4299
2228	64.4747
2224	64.4844
2220	64.4163
2216	64.3543
2212	64.3468
2208	64.3601
2204	64.3234
2200	64.2413
2196	64.1917
2192	64.1895
2188	64.2436
2184	64.3177
2180	64.3135
2176	64.2828
2172	64.3093
2168	64.3495
2164	64.3687
2160	64.3668
2156	64.359
2152	64.3344
2148	64.2565
2144	64.2065
2140	64.2406
2136	64.2782
2132	64.2726
2128	64.2303
2124	64.1849
2120	64.1783
2116	64.1929
2112	64.1756
2108	64.1967
2104	64.2983
2100	64.3305
2096	64.2599
2092	64.1954
2088	64.1545
2084	64.1223
2080	64.1191
2076	64.133
2072	64.1019
2068	64.0674
2064	64.1183
2060	64.2056
2056	64.2851
2052	64.3259
2048	64.2754
2044	64.2057
2040	64.2122
2036	64.2213
2032	64.1226
2028	64.0197
2024	64.0314
2020	64.1099
2016	64.188
2012	64.2042
2008	64.1403
2004	64.0753
2000	64.0812
1996	64.1554
1992	64.2291
1988	64.2169
1984	64.1313
1980	64.0843
1976	64.1125
1972	64.1299
1968	64.1283
1964	64.1604
1960	64.1649
1956	64.096
1952	64.0396
1948	64.0402
1944	64.0402
1940	64.073
1936	64.1181
1932	64.0963
1928	64.0653
1924	64.0537
1920	64.0545
1916	64.0991
1912	64.1691
1908	64.1642
1904	64.1007
1900	64.079
1896	64.0942
1892	64.1199
1888	64.1311
1884	64.0869
1880	64.0302
1876	64.0042
1872	63.9844
1868	63.9797
1864	63.993
1860	63.9959
1856	63.9858
1852	63.9555
1848	63.9242
1844	63.9453
1840	64.0159
1836	64.0595
1832	64.0252
1828	63.969
1824	63.9644
1820	63.9983
1816	64.0206
1812	63.9872
1808	63.9466
1804	63.9661
1800	63.9872
1796	63.9614
1792	63.8922
1788	63.777
1784	63.6945
1780	63.7021
1776	63.7314
1772	63.7738
1768	63.797
1764	63.7187
1760	63.6134
1756	63.4934
1752	63.3233
1748	63.1658
1744	62.9313
1740	62.606
1736	62.4038
1732	62.4132
1728	62.5959
1724	62.8603
1720	63.1155
1716	63.3421
1712	63.5146
1708	63.6006
1704	63.6103
1700	63.5945
1696	63.6068
1692	63.6244
1688	63.5837
1684	63.5626
1680	63.6244
1676	63.6721
1672	63.6649
1668	63.6578
1664	63.6757
1660	63.7174
1656	63.7776
1652	63.8143
1648	63.8241
1644	63.8025
1640	63.7537
1636	63.705
1632	63.6324
1628	63.5978
1624	63.6597
1620	63.7455
1616	63.7718
1612	63.7424
1608	63.7451
1604	63.7591
1600	63.6993
1596	63.6233
1592	63.6207
1588	63.6698
1584	63.6747
1580	63.5966
1576	63.5158
1572	63.5003
1568	63.5159
1564	63.5025
1560	63.4874
1556	63.4891
1552	63.4663
1548	63.4402
1544	63.4152
1540	63.3881
1536	63.4296
1532	63.5058
1528	63.5477
1524	63.5644
1520	63.5455
1516	63.5073
1512	63.4569
1508	63.4254
1504	63.4801
1500	63.5733
1496	63.6606
1492	63.7109
1488	63.6638
1484	63.5383
1480	63.4315
1476	63.4068
1472	63.3987
1468	63.3422
1464	63.2759
1460	63.2479
1456	63.223
1452	63.2052
1448	63.2479
1444	63.2807
1440	63.2847
1436	63.3311
1432	63.3412
1428	63.2962
1424	63.3092
1420	63.3362
1416	63.316
1412	63.313
1408	63.3086
1404	63.2716
1400	63.2177
1396	63.1342
1392	63.0875
1388	63.0742
1384	63.0683
1380	63.0975
1376	63.1265
1372	63.1516
1368	63.1486
1364	63.1253
1360	63.1386
1356	63.1365
1352	63.1481
1348	63.2015
1344	63.1887
1340	63.1071
1336	63.0446
1332	63.0803
1328	63.1672
1324	63.1884
1320	63.1828
1316	63.1746
1312	63.1202
1308	63.0308
1304	62.9516
1300	62.9411
1296	62.9908
1292	63.0044
1288	62.9214
1284	62.8472
1280	62.8756
1276	62.9178
1272	62.9113
1268	62.8354
1264	62.7119
1260	62.6304
1256	62.5867
1252	62.5929
1248	62.6172
1244	62.5807
1240	62.5508
1236	62.549
1232	62.5821
1228	62.6856
1224	62.7717
1220	62.7549
1216	62.7022
1212	62.6822
1208	62.6463
1204	62.626
1200	62.6967
1196	62.776
1192	62.7643
1188	62.6683
1184	62.5597
1180	62.5001
1176	62.4389
1172	62.3221
1168	62.2071
1164	62.1761
1160	62.2351
1156	62.3325
1152	62.4363
1148	62.5467
1144	62.6879
1140	62.8421
1136	62.8637
1132	62.7448
1128	62.6997
1124	62.7385
1120	62.7259
1116	62.6975
1112	62.6704
1108	62.6035
1104	62.6431
1100	62.8042
1096	62.8569
1092	62.7282
1088	62.5809
1084	62.5105
1080	62.4675
1076	62.4599
1072	62.4877
1068	62.4875
1064	62.478
1060	62.5071
1056	62.4911
1052	62.4157
1048	62.4899
1044	62.6831
1040	62.6888
1036	62.5532
1032	62.4935
1028	62.4667
1024	62.4157
1020	62.4306
1016	62.5531
1012	62.6657
1008	62.6192
1004	62.4715
1000	62.415
996	 62.5362
992	 62.7011
988	 62.7317
984	 62.7464
980	 62.7938
976	 62.742
972	 62.6757
968	 62.6435
964	 62.5786
960	 62.518
956	 62.514
952	 62.5175
948	 62.5056
944	 62.5189
940	 62.5651
936	 62.6379
932	 62.6757
928	 62.6745
924	 62.6984
920	 62.7276
916	 62.7209
912	 62.6965
908	 62.6124
904	 62.5039
900	 62.5223
896	 62.5482
892	 62.5059
888	 62.5036
884	 62.4929
880	 62.4663
876	 62.5493
872	 62.6572
868	 62.659
864	 62.6377
860	 62.5651
856	 62.4918
852	 62.498
848	 62.4405
844	 62.3786
840	 62.3803
836	 62.3698
832	 62.4113
828	 62.4925
824	 62.5249
820	 62.558
816	 62.5752
812	 62.5605
808	 62.5467
804	 62.4054
800	 62.2418
796	 62.3083
792	 62.501
788	 62.6436
784	 62.6194
780	 62.4212
776	 62.2386
772	 62.2118
768	 62.3008
764	 62.3449
760	 62.2804
756	 62.2684
752	 62.3815
748	 62.4449
744	 62.4519
740	 62.484
736	 62.4049
732	 62.2667
728	 62.2176
724	 62.1677
720	 62.0447
716	 61.8302
712	 61.6514
708	 61.673
704	 61.8479
700	 62.045
696	 62.1464
692	 62.1824
688	 62.1918
684	 62.1348
680	 62.0752
676	 62.1068
672	 62.2575
668	 62.358
664	 62.2862
660	 62.0906
656	 61.9038
652	 61.8395
648	 61.6941
644	 61.5248
640	 61.5477
636	 61.5678
632	 61.5032
628	 61.7343
624	 62.2331
620	 62.2121
616	 61.7724
612	 61.7136
608	 61.754
604	 61.3831
600	 61.2145
596	 61.8165
592	 62.6862
588	 62.8742
584	 62.2667
580	 61.786
576	 61.8145
572	 62.0211
568	 62.3429
564	 62.5334
560	 62.2185
556	 61.9911
552	 62.6011
548	 63.0282
544	 62.5689
540	 62.1904
536	 62.003
532	 61.321
528	 60.4844
524	 60.5263
520	 61.6158
516	 62.7035
512	 63.3196
508	 63.2594
504	 61.9541
500	 60.4744
496	 60.3187
492	 61.4663
488	 62.4474
484	 61.8752
480	 61.2235
476	 61.7743
472	 61.7063
468	 60.7028
464	 60.4311
460	 60.9489
456	 61.2143
452	 60.8919
448	 60.221
444	 59.9376
440	 60.1795
436	 60.8605
432	 61.9756
428	 62.9035
424	 64.2991
420	 66.7202
416	 66.8264
412	 63.5477
408	 61.1461
404	 62.7329
400	 64.7902
396	 63.2829
392	 64.6943
388	 71.817
384	 76.2288
380	 65.0333
376	 45.0477
372	 38.5643
370	 42.8499