File: Bakgrunnsmateriale/MATLAB/FTIR/ftir_data/subAa/Mapping_121/BZ1503107-1_t45_cm-1.asc
PE IR       SPECTRUM    SPECTRUM    ASCII       PEDS        1.60
  -1
BZ6D24~1.ASC
17/04/07
16:59:02.00
17/04/07
16:59:02.00
tln
$BZ1503107-1_t0045$<tbV0>[13.0,-2.6,8.0,0.0,27,1,0]
370
64

2002,4.07
MIRTGS : RIGHTBACK : INTERNAL 2
MIR : ON : INTERNAL 2
OPTKBR

0.200000
8
8.000000
FILLER
RATIO
SPECTRUM
UNLOCKED 256

DOUBLE
64
COMBINED
1
0
0

1.000000
RATIO

1
0
TRUE
51149
0
LEFT NOT FITTED RIGHT NOT FITTED 0
NONE
NONE
15600
12
4.427000
51148
TRUE
1 0 8 72 0 0 0 0

15798

#HDR
-1
-1
#GR
CM-1
%T
2.38419e-05
0.0
5000
-1.000000
4631
8
75.8533
53.0181
#DATA
5000	65.2387
4996	65.4365
4992	65.5143
4988	65.1374
4984	64.8544
4980	64.7991
4976	64.9214
4972	65.3426
4968	65.6057
4964	65.134
4960	64.6098
4956	64.6099
4952	64.7386
4948	64.7962
4944	64.7774
4940	64.6418
4936	64.5927
4932	64.7881
4928	65.0737
4924	65.1147
4920	64.7494
4916	64.6362
4912	64.9723
4908	65.0752
4904	65.0982
4900	65.2437
4896	65.2164
4892	65.1342
4888	65.1117
4884	65.1331
4880	65.0614
4876	64.9043
4872	65.0083
4868	65.1523
4864	65.0454
4860	64.8839
4856	64.726
4852	64.5586
4848	64.5141
4844	64.6995
4840	64.96
4836	64.8716
4832	64.5482
4828	64.4911
4824	64.6295
4820	64.831
4816	65.025
4812	65.0732
4808	64.981
4804	64.8625
4800	64.9646
4796	65.1787
4792	65.2099
4788	64.9999
4784	64.7713
4780	64.8526
4776	65.17
4772	65.3575
4768	65.2164
4764	64.9688
4760	64.928
4756	65.0302
4752	64.9909
4748	64.9397
4744	65.1555
4740	65.2787
4736	65.0805
4732	64.9793
4728	65.085
4724	65.1328
4720	65.0935
4716	64.969
4712	64.8084
4708	64.8586
4704	64.9299
4700	64.8272
4696	65.0422
4692	65.4674
4688	65.5097
4684	65.4108
4680	65.4274
4676	65.4092
4672	65.4111
4668	65.3335
4664	65.0248
4660	64.89
4656	65.0336
4652	65.0998
4648	65.1258
4644	65.152
4640	65.0952
4636	64.9954
4632	65.0379
4628	65.2431
4624	65.3253
4620	65.2205
4616	64.9698
4612	64.7549
4608	64.677
4604	64.6099
4600	64.5931
4596	64.5877
4592	64.6306
4588	64.7769
4584	64.7799
4580	64.7419
4576	64.9107
4572	64.8556
4568	64.5454
4564	64.5312
4560	64.7731
4556	64.9473
4552	65.0023
4548	65.0297
4544	64.9969
4540	64.7843
4536	64.4952
4532	64.4032
4528	64.5098
4524	64.4885
4520	64.4026
4516	64.402
4512	64.3274
4508	64.3892
4504	64.5736
4500	64.5449
4496	64.4268
4492	64.4735
4488	64.4909
4484	64.3257
4480	64.2122
4476	64.0119
4472	63.8207
4468	63.9757
4464	64.1869
4460	64.2132
4456	63.9509
4452	63.6089
4448	63.6838
4444	63.359
4440	62.6175
4436	62.7122
4432	63.6672
4428	67.1455
4424	71.5007
4420	71.511
4416	68.7652
4412	67.5163
4408	67.0186
4404	66.3724
4400	65.6951
4396	65.6275
4392	65.7544
4388	65.5219
4384	64.9925
4380	64.5243
4376	64.6657
4372	64.8633
4368	64.6963
4364	64.6308
4360	64.751
4356	64.7805
4352	64.5939
4348	64.3316
4344	64.1384
4340	64.1579
4336	64.4768
4332	64.7022
4328	64.7388
4324	64.7653
4320	64.6626
4316	64.5239
4312	64.5632
4308	64.7095
4304	64.7812
4300	64.7481
4296	64.6097
4292	64.4552
4288	64.4466
4284	64.517
4280	64.551
4276	64.503
4272	64.5571
4268	64.7369
4264	64.752
4260	64.7201
4256	64.8264
4252	64.9081
4248	64.8863
4244	64.903
4240	64.9701
4236	65.0512
4232	65.0611
4228	64.946
4224	64.9001
4220	64.9006
4216	64.895
4212	64.9756
4208	64.9579
4204	64.887
4200	65.012
4196	65.1492
4192	65.1552
4188	65.1448
4184	65.0929
4180	64.9314
4176	64.8284
4172	64.8574
4168	64.8617
4164	64.926
4160	65.1261
4156	65.211
4152	65.101
4148	65.1213
4144	65.3938
4140	65.5535
4136	65.3402
4132	64.9877
4128	64.8916
4124	65.0835
4120	65.1532
4116	65.0156
4112	64.957
4108	64.9433
4104	64.9422
4100	65.0187
4096	65.0918
4092	65.0767
4088	65.0284
4084	65.0342
4080	65.1104
4076	65.2523
4072	65.3045
4068	65.2649
4064	65.3142
4060	65.3521
4056	65.1798
4052	65.0362
4048	65.1134
4044	65.1015
4040	65.0192
4036	65.1018
4032	65.2226
4028	65.1805
4024	64.9845
4020	64.8509
4016	64.8334
4012	64.8323
4008	64.8123
4004	64.8093
4000	64.9087
3996	65.0744
3992	65.2432
3988	65.3583
3984	65.3929
3980	65.3871
3976	65.2859
3972	65.1409
3968	65.1188
3964	65.148
3960	65.1545
3956	65.1763
3952	65.1099
3948	65.0141
3944	64.9875
3940	64.9626
3936	64.9639
3932	64.9743
3928	65.0225
3924	65.1112
3920	65.1199
3916	65.0734
3912	65.0547
3908	65.0748
3904	65.079
3900	65.0827
3896	65.1136
3892	65.1447
3888	65.1922
3884	65.1527
3880	65.0494
3876	64.9697
3872	64.8466
3868	64.8006
3864	64.9129
3860	64.9728
3856	64.9292
3852	64.9834
3848	65.0298
3844	64.9664
3840	65.0701
3836	65.2329
3832	65.1865
3828	65.0338
3824	64.9214
3820	64.9397
3816	65.0305
3812	65.0547
3808	65.0887
3804	65.2185
3800	65.2795
3796	65.0812
3792	64.8909
3788	65.1037
3784	65.4225
3780	65.3692
3776	65.093
3772	64.9356
3768	65.0121
3764	65.1868
3760	65.2117
3756	65.0954
3752	64.9835
3748	64.9904
3744	65.1348
3740	65.1804
3736	65.0773
3732	65.0647
3728	65.091
3724	65.0966
3720	65.21
3716	65.3351
3712	65.338
3708	65.2822
3704	65.2271
3700	65.1807
3696	65.1479
3692	65.0895
3688	65.0444
3684	65.0764
3680	65.1561
3676	65.2122
3672	65.1616
3668	65.0314
3664	65.0042
3660	65.0754
3656	65.0573
3652	65.0419
3648	65.113
3644	65.1965
3640	65.2964
3636	65.2724
3632	65.1519
3628	65.1648
3624	65.1936
3620	65.1798
3616	65.2096
3612	65.1937
3608	65.1973
3604	65.2124
3600	65.1041
3596	65.0308
3592	65.0688
3588	65.065
3584	65.0221
3580	65.0176
3576	65.0718
3572	65.1697
3568	65.2478
3564	65.2667
3560	65.2141
3556	65.1925
3552	65.232
3548	65.2335
3544	65.2131
3540	65.152
3536	65.0572
3532	65.0571
3528	65.1456
3524	65.1885
3520	65.1723
3516	65.1655
3512	65.1779
3508	65.1731
3504	65.1465
3500	65.1749
3496	65.1841
3492	65.0908
3488	65.0065
3484	65.0098
3480	65.0696
3476	65.0885
3472	65.0763
3468	65.13
3464	65.159
3460	65.0955
3456	65.0886
3452	65.1623
3448	65.1661
3444	65.1176
3440	65.1318
3436	65.1257
3432	65.0508
3428	65.0633
3424	65.173
3420	65.1769
3416	65.0544
3412	64.9882
3408	64.9976
3404	64.9905
3400	64.9895
3396	65.0115
3392	65.0606
3388	65.1281
3384	65.1517
3380	65.1564
3376	65.187
3372	65.2623
3368	65.2837
3364	65.1649
3360	65.0026
3356	64.8989
3352	64.9468
3348	65.0573
3344	65.0803
3340	65.095
3336	65.1329
3332	65.1505
3328	65.124
3324	65.042
3320	64.9734
3316	64.9907
3312	65.1014
3308	65.2035
3304	65.2066
3300	65.1486
3296	65.0519
3292	64.9608
3288	64.9511
3284	64.979
3280	64.9668
3276	64.9192
3272	64.9043
3268	64.938
3264	65.0111
3260	65.0802
3256	65.074
3252	65.0396
3248	65.056
3244	65.1572
3240	65.2401
3236	65.1844
3232	65.1011
3228	65.1301
3224	65.17
3220	65.1527
3216	65.1312
3212	65.1505
3208	65.2275
3204	65.2293
3200	65.1595
3196	65.1061
3192	65.0716
3188	65.093
3184	65.1104
3180	65.1092
3176	65.1263
3172	65.0884
3168	65.0378
3164	65.0681
3160	65.0824
3156	65.027
3152	64.9951
3148	64.9827
3144	64.9655
3140	65.0603
3136	65.2173
3132	65.2624
3128	65.2355
3124	65.1331
3120	64.9232
3116	64.8179
3112	64.9165
3108	65.0728
3104	65.1666
3100	65.1932
3096	65.1524
3092	65.0082
3088	64.9054
3084	64.9717
3080	65.0489
3076	65.0526
3072	65.0324
3068	64.9754
3064	64.9175
3060	64.9042
3056	64.9239
3052	64.9608
3048	65.0015
3044	65.0486
3040	65.0851
3036	65.1122
3032	65.1031
3028	65.0259
3024	65.0142
3020	65.0754
3016	65.1044
3012	65.1234
3008	65.1098
3004	65.0443
3000	64.9446
2996	64.8729
2992	64.8829
2988	64.9324
2984	64.9461
2980	64.8993
2976	64.8693
2972	64.8311
2968	64.8095
2964	64.8532
2960	64.822
2956	64.7896
2952	64.8702
2948	64.9212
2944	64.8426
2940	64.7336
2936	64.7392
2932	64.8089
2928	64.7832
2924	64.6943
2920	64.725
2916	64.8442
2912	64.8734
2908	64.8085
2904	64.7769
2900	64.8205
2896	64.8834
2892	64.916
2888	64.9202
2884	64.9153
2880	64.904
2876	64.9053
2872	64.9394
2868	65.0117
2864	65.0415
2860	64.9558
2856	64.8741
2852	64.9077
2848	64.9506
2844	64.9127
2840	64.9147
2836	65.01
2832	65.0498
2828	64.985
2824	64.9101
2820	64.8914
2816	64.9228
2812	64.9507
2808	64.9548
2804	64.9223
2800	64.8931
2796	64.9319
2792	64.9793
2788	64.958
2784	64.9544
2780	65.0323
2776	65.0581
2772	65.0023
2768	64.9493
2764	64.9254
2760	64.9085
2756	64.8808
2752	64.8883
2748	64.9237
2744	64.953
2740	64.9761
2736	65.0047
2732	65.0266
2728	65.0132
2724	64.9887
2720	65.0163
2716	65.1014
2712	65.1199
2708	65.0549
2704	65.0039
2700	64.9881
2696	65.0088
2692	65.0442
2688	65.0146
2684	64.9439
2680	64.9355
2676	64.9285
2672	64.9058
2668	64.9411
2664	64.9614
2660	64.909
2656	64.8549
2652	64.8495
2648	64.8665
2644	64.8891
2640	64.9478
2636	65.014
2632	65.0233
2628	64.956
2624	64.8647
2620	64.8749
2616	64.9708
2612	64.9866
2608	64.9443
2604	64.9718
2600	64.9905
2596	64.9416
2592	64.8887
2588	64.861
2584	64.8716
2580	64.8921
2576	64.8934
2572	64.8848
2568	64.8662
2564	64.8284
2560	64.784
2556	64.7845
2552	64.835
2548	64.8946
2544	64.9158
2540	64.8757
2536	64.8901
2532	64.9875
2528	65.0541
2524	65.0706
2520	65.0088
2516	64.9211
2512	64.9554
2508	65.0211
2504	64.9835
2500	64.9192
2496	64.8902
2492	64.8895
2488	64.9029
2484	64.9104
2480	64.8941
2476	64.8305
2472	64.7764
2468	64.7799
2464	64.7892
2460	64.7921
2456	64.7642
2452	64.7512
2448	64.8238
2444	64.8794
2440	64.8938
2436	64.9281
2432	64.9695
2428	64.9761
2424	64.9429
2420	64.9081
2416	64.8689
2412	64.8344
2408	64.8345
2404	64.8494
2400	64.8647
2396	64.864
2392	64.843
2388	64.813
2384	64.7598
2380	64.7029
2376	64.7222
2372	64.7998
2368	64.8074
2364	64.7734
2360	64.7559
2356	64.7068
2352	64.6897
2348	64.7532
2344	64.7958
2340	64.8082
2336	64.8481
2332	64.8752
2328	64.8984
2324	64.9036
2320	64.8382
2316	64.8042
2312	64.8252
2308	64.7947
2304	64.7351
2300	64.7189
2296	64.7217
2292	64.7686
2288	64.8786
2284	64.9494
2280	64.9324
2276	64.856
2272	64.7973
2268	64.8313
2264	64.8906
2260	64.8601
2256	64.8099
2252	64.844
2248	64.8895
2244	64.8786
2240	64.8354
2236	64.8305
2232	64.8564
2228	64.83
2224	64.7941
2220	64.7976
2216	64.7699
2212	64.7291
2208	64.7742
2204	64.8493
2200	64.8615
2196	64.822
2192	64.7807
2188	64.762
2184	64.7199
2180	64.6732
2176	64.6829
2172	64.6888
2168	64.7066
2164	64.7497
2160	64.7267
2156	64.6593
2152	64.6876
2148	64.7702
2144	64.7893
2140	64.7868
2136	64.7818
2132	64.7586
2128	64.7547
2124	64.7311
2120	64.7053
2116	64.7467
2112	64.7662
2108	64.7293
2104	64.7257
2100	64.7474
2096	64.7353
2092	64.6915
2088	64.671
2084	64.6888
2080	64.7076
2076	64.6894
2072	64.6602
2068	64.6375
2064	64.6173
2060	64.6365
2056	64.664
2052	64.6986
2048	64.7359
2044	64.7255
2040	64.7119
2036	64.7169
2032	64.709
2028	64.704
2024	64.7068
2020	64.7188
2016	64.7315
2012	64.7425
2008	64.7758
2004	64.7926
2000	64.7495
1996	64.7046
1992	64.7541
1988	64.8318
1984	64.7874
1980	64.6757
1976	64.658
1972	64.7088
1968	64.716
1964	64.6754
1960	64.6088
1956	64.5613
1952	64.5874
1948	64.6279
1944	64.6281
1940	64.6446
1936	64.6875
1932	64.6923
1928	64.6438
1924	64.6085
1920	64.5925
1916	64.546
1912	64.5588
1908	64.646
1904	64.6323
1900	64.5231
1896	64.4668
1892	64.4671
1888	64.4697
1884	64.4826
1880	64.5202
1876	64.5393
1872	64.5291
1868	64.5498
1864	64.6151
1860	64.6636
1856	64.681
1852	64.6838
1848	64.663
1844	64.6539
1840	64.6527
1836	64.6159
1832	64.5754
1828	64.5634
1824	64.5676
1820	64.5757
1816	64.5833
1812	64.5746
1808	64.5801
1804	64.6061
1800	64.5778
1796	64.5386
1792	64.5597
1788	64.5932
1784	64.5926
1780	64.5646
1776	64.5318
1772	64.4875
1768	64.4287
1764	64.3893
1760	64.3967
1756	64.413
1752	64.3801
1748	64.3283
1744	64.3078
1740	64.3291
1736	64.3499
1732	64.3313
1728	64.3324
1724	64.3723
1720	64.4067
1716	64.4124
1712	64.3918
1708	64.3571
1704	64.3154
1700	64.305
1696	64.3558
1692	64.396
1688	64.3524
1684	64.2786
1680	64.2491
1676	64.2637
1672	64.2891
1668	64.3525
1664	64.4387
1660	64.4324
1656	64.358
1652	64.3355
1648	64.401
1644	64.4332
1640	64.3256
1636	64.2576
1632	64.3175
1628	64.339
1624	64.3136
1620	64.3398
1616	64.3564
1612	64.3292
1608	64.3279
1604	64.3334
1600	64.325
1596	64.3229
1592	64.3178
1588	64.312
1584	64.3121
1580	64.2713
1576	64.2438
1572	64.3033
1568	64.3431
1564	64.32
1560	64.2923
1556	64.332
1552	64.4119
1548	64.4024
1544	64.3273
1540	64.2805
1536	64.2624
1532	64.2878
1528	64.3417
1524	64.3438
1520	64.2801
1516	64.2083
1512	64.1801
1508	64.1949
1504	64.2439
1500	64.302
1496	64.3121
1492	64.2918
1488	64.2788
1484	64.2739
1480	64.3045
1476	64.3367
1472	64.2867
1468	64.1926
1464	64.1704
1460	64.2276
1456	64.2894
1452	64.2697
1448	64.185
1444	64.1356
1440	64.1769
1436	64.2748
1432	64.3194
1428	64.2817
1424	64.2276
1420	64.2066
1416	64.216
1412	64.2345
1408	64.2486
1404	64.2164
1400	64.1637
1396	64.137
1392	64.1447
1388	64.1995
1384	64.2286
1380	64.2123
1376	64.2244
1372	64.2302
1368	64.1796
1364	64.1477
1360	64.1691
1356	64.1496
1352	64.1028
1348	64.1423
1344	64.177
1340	64.0859
1336	64.0046
1332	64.0247
1328	64.0771
1324	64.0976
1320	64.0666
1316	64.0401
1312	64.0613
1308	64.1312
1304	64.156
1300	64.1189
1296	64.1037
1292	64.0873
1288	64.0624
1284	63.988
1280	63.9174
1276	63.9479
1272	64.0356
1268	64.1654
1264	64.19
1260	64.0607
1256	64.0236
1252	64.121
1248	64.1487
1244	64.0635
1240	64.0092
1236	64.0061
1232	64.0229
1228	64.0268
1224	63.9831
1220	63.9324
1216	63.8759
1212	63.8813
1208	63.9807
1204	64.0054
1200	63.9731
1196	63.9808
1192	63.9695
1188	63.977
1184	64.0625
1180	64.1186
1176	64.091
1172	64.0582
1168	63.9957
1164	63.8927
1160	63.8379
1156	63.8627
1152	63.8656
1148	63.7586
1144	63.6753
1140	63.7686
1136	63.8951
1132	63.9365
1128	63.9438
1124	63.9577
1120	63.9323
1116	63.8707
1112	63.8876
1108	63.9582
1104	63.9635
1100	63.9287
1096	63.887
1092	63.8108
1088	63.786
1084	63.922
1080	64.1559
1076	64.264
1072	64.1201
1068	63.9003
1064	63.8602
1060	63.9663
1056	63.9919
1052	63.9404
1048	63.9064
1044	63.8481
1040	63.842
1036	63.9208
1032	63.9704
1028	64.0204
1024	64.0578
1020	63.9347
1016	63.7803
1012	63.7847
1008	63.8377
1004	63.853
1000	63.8569
996	 63.8678
992	 63.9032
988	 63.9588
984	 63.9421
980	 63.8556
976	 63.8763
972	 63.938
968	 63.8663
964	 63.7419
960	 63.7039
956	 63.743
952	 63.807
948	 63.8364
944	 63.7532
940	 63.661
936	 63.684
932	 63.7957
928	 63.8842
924	 63.8326
920	 63.7682
916	 63.8201
912	 63.913
908	 63.938
904	 63.8879
900	 63.8584
896	 63.842
892	 63.8339
888	 63.9372
884	 64.0371
880	 63.9807
876	 63.9112
872	 63.8454
868	 63.8017
864	 63.9015
860	 64.0256
856	 64.0722
852	 64.0649
848	 64.013
844	 63.9285
840	 63.843
836	 63.8473
832	 64.0086
828	 64.1155
824	 63.9189
820	 63.7298
816	 63.8076
812	 63.8833
808	 63.7925
804	 63.7228
800	 63.7649
796	 63.8452
792	 64.0025
788	 64.0589
784	 63.9453
780	 63.8263
776	 63.7004
772	 63.6336
768	 63.7131
764	 63.7664
760	 63.7747
756	 63.7967
752	 63.6543
748	 63.4694
744	 63.4842
740	 63.6003
736	 63.5713
732	 63.5262
728	 63.7129
724	 63.8238
720	 63.7099
716	 63.7125
712	 63.8992
708	 63.7738
704	 63.2997
700	 63.2151
696	 63.4933
692	 63.6737
688	 63.6626
684	 63.4971
680	 63.5855
676	 63.8428
672	 63.9679
668	 64.0084
664	 63.9063
660	 64.0174
656	 64.3619
652	 64.3569
648	 63.9835
644	 63.5633
640	 63.3108
636	 63.2215
632	 63.2769
628	 63.4692
624	 63.8023
620	 64.3512
616	 64.2884
612	 63.4838
608	 63.3804
604	 64.0901
600	 64.2672
596	 63.48
592	 62.7472
588	 62.9865
584	 63.6135
580	 63.7595
576	 63.6297
572	 63.3381
568	 63.235
564	 63.5265
560	 63.6766
556	 63.7388
552	 63.8599
548	 63.8103
544	 63.5497
540	 63.205
536	 63.043
532	 63.0903
528	 63.5637
524	 64.2204
520	 64.2377
516	 63.9229
512	 63.6316
508	 63.273
504	 63.1438
500	 63.0406
496	 62.8203
492	 62.6198
488	 62.4632
484	 62.432
480	 62.6217
476	 63.0855
472	 63.5317
468	 63.7434
464	 63.4309
460	 62.4885
456	 61.9124
452	 62.0395
448	 62.4533
444	 63.0412
440	 63.6696
436	 64.2325
432	 64.8604
428	 65.3288
424	 65.068
420	 63.8699
416	 61.5909
412	 61.0037
408	 63.5801
404	 65.3949
400	 65.3006
396	 63.948
392	 60.9377
388	 60.3119
384	 58.9761
380	 53.0357
376	 60.4281
372	 73.9902
370	 75.8533