File: Bakgrunnsmateriale/MATLAB/FTIR/ftir_data/subAa/Mapping_121/BZ1503107-1_t102.asc
PE IR       SPECTRUM    SPECTRUM    ASCII       PEDS        1.60
  -1
BZD6BA~1.ASC
17/04/07
21:37:27.00
17/04/07
21:37:53.00
tln
$BZ1503107-1_t0102$<tbV0>[7.8,10.4,8.0,0.0,27,1,0]
27.028
64

2002,4.07
MIRTGS : RIGHTBACK : INTERNAL 2
MIR : ON : INTERNAL 2
OPTKBR

0.200000
8
8.000000
FILLER
RATIO
SPECTRUM
UNLOCKED 256

DOUBLE
64
COMBINED
1
0
0

0.002000
RATIO

1
0
TRUE
51149
0
LEFT NOT FITTED RIGHT NOT FITTED 0
NONE
NONE
15600
12
4.427000
51148
TRUE
1 0 8 72 0 0 0 0

15798

#HDR
-1
-1
#GR
µM
%T
2.38419e-05
0.0
2.000000
0.002000
12515
8
78.8512
57.9832
#DATA
2.000000	 62.1838
2.018000	 64.063
2.036000	 63.6772
2.054000	 63.4668
2.072000	 63.9786
2.090000	 63.6795
2.108000	 64.43
2.126000	 63.8181
2.144000	 64.3913
2.162000	 64.0775
2.180000	 63.6566
2.198000	 63.2759
2.216000	 63.1089
2.234000	 62.6957
2.252000	 76.3388
2.270000	 64.9137
2.288000	 63.6547
2.306000	 63.6236
2.324000	 63.4541
2.342000	 63.7151
2.360000	 63.9213
2.378000	 64.1824
2.396000	 64.3628
2.414000	 63.711
2.432000	 63.9614
2.450000	 64.1714
2.468000	 64.1371
2.486000	 64.105
2.504000	 64.1238
2.522000	 63.9522
2.540000	 64.2942
2.558000	 63.8183
2.576000	 64.1397
2.594000	 64.2297
2.612000	 64.1605
2.630000	 64.1569
2.648000	 64.1671
2.666000	 64.3291
2.684000	 64.3914
2.702000	 64.3284
2.720000	 64.2933
2.738000	 64.287
2.756000	 64.2139
2.774000	 64.2485
2.792000	 64.1339
2.810000	 64.1481
2.828000	 64.1536
2.846000	 64.2093
2.864000	 64.115
2.882000	 64.3682
2.900000	 64.2387
2.918000	 64.3262
2.936000	 64.2597
2.954000	 64.2425
2.972000	 64.2243
2.990000	 64.2041
3.008000	 64.1447
3.026000	 64.3166
3.044000	 64.2412
3.062000	 64.1054
3.080000	 64.3875
3.098000	 64.1878
3.116000	 64.1688
3.134000	 64.3064
3.152000	 64.132
3.170000	 64.159
3.188000	 64.1806
3.206000	 64.201
3.224000	 64.2083
3.242000	 64.1238
3.260000	 64.1131
3.278000	 64.3029
3.296000	 64.3148
3.314000	 64.0905
3.332000	 64.0998
3.350000	 64.0381
3.368000	 64.0262
3.386000	 64.0142
3.404000	 64.2222
3.422000	 64.2204
3.440000	 64.0811
3.458000	 63.9874
3.476000	 64.006
3.494000	 64.0772
3.512000	 64.0686
3.530000	 63.9411
3.548000	 64.0862
3.566000	 64.1403
3.584000	 64.0239
3.602000	 64.1367
3.620000	 64.0858
3.638000	 64.1482
3.656000	 64.1303
3.674000	 64.1288
3.692000	 64.0822
3.710000	 64.0315
3.728000	 63.9946
3.746000	 64.069
3.764000	 64.0693
3.782000	 64.1753
3.800000	 64.0455
3.818000	 63.9775
3.836000	 63.9869
3.854000	 64.0169
3.872000	 63.986
3.890000	 63.9878
3.908000	 64.0036
3.926000	 63.9562
3.944000	 64.0098
3.962000	 64.0143
3.980000	 63.9804
3.998000	 63.9866
4.016000	 63.8955
4.034000	 63.9475
4.052000	 64.0524
4.070000	 64.1073
4.088000	 64.0018
4.106000	 64.0331
4.124000	 64.0355
4.141999	 63.9414
4.160000	 63.8352
4.178000	 63.8414
4.196000	 63.7928
4.214000	 63.9779
4.232000	 63.9935
4.250000	 63.8395
4.268000	 63.8057
4.286000	 63.8581
4.304000	 64.0134
4.322000	 63.9431
4.340000	 63.8746
4.358000	 63.9088
4.375999	 63.8287
4.394000	 63.9238
4.412000	 63.9671
4.430000	 63.8619
4.448000	 63.854
4.466000	 63.9038
4.484000	 63.9355
4.502000	 63.846
4.520000	 63.8059
4.538000	 63.7584
4.556000	 63.7787
4.574000	 63.7626
4.592000	 63.83
4.609999	 63.7264
4.628000	 63.6386
4.646000	 63.7134
4.664000	 63.8077
4.682000	 63.8945
4.700000	 63.765
4.718000	 63.7912
4.736000	 63.7692
4.754000	 63.7626
4.772000	 63.722
4.790000	 63.6897
4.808000	 63.7284
4.826000	 63.6983
4.843999	 63.6024
4.862000	 63.8367
4.880000	 63.7496
4.898000	 63.6368
4.916000	 63.7238
4.934000	 63.7137
4.952000	 63.6895
4.970000	 63.6613
4.988000	 63.6714
5.006000	 63.6713
5.024000	 63.7721
5.042000	 63.711
5.060000	 63.6582
5.077999	 63.6547
5.096000	 63.5603
5.114000	 63.6794
5.132000	 63.6318
5.150000	 63.5862
5.168000	 63.6243
5.186000	 63.4481
5.204000	 63.4467
5.222000	 63.5493
5.240000	 63.6764
5.258000	 63.6649
5.276000	 63.639
5.294000	 63.6248
5.312000	 63.4985
5.330000	 63.4703
5.348000	 63.5282
5.366000	 63.5883
5.384000	 63.665
5.402000	 63.6264
5.420000	 63.5397
5.438000	 63.5926
5.456000	 63.5678
5.474000	 63.5432
5.492000	 63.4954
5.510000	 63.4479
5.528000	 63.4282
5.546000	 63.473
5.564000	 63.4833
5.582000	 63.4665
5.600000	 63.4231
5.618000	 63.4198
5.636000	 63.4515
5.654000	 63.4535
5.672000	 63.4462
5.690000	 63.3388
5.708000	 63.2173
5.726000	 63.2755
5.744000	 63.2722
5.762000	 63.1105
5.780000	 63.0059
5.798000	 63.1636
5.816000	 63.3135
5.834000	 63.3362
5.852000	 63.2935
5.870000	 63.2175
5.888000	 63.2494
5.906000	 63.3045
5.923999	 63.2601
5.942000	 63.2187
5.960000	 63.2683
5.978000	 63.2529
5.996000	 63.2383
6.014000	 63.3167
6.032000	 63.3707
6.050000	 63.3753
6.068000	 63.4063
6.086000	 63.38
6.104000	 63.3171
6.122000	 63.3145
6.140000	 63.3316
6.158000	 63.3286
6.176000	 63.306
6.194000	 63.2705
6.212000	 63.2527
6.230000	 63.2741
6.248000	 63.2525
6.266000	 63.2162
6.284000	 63.2495
6.302000	 63.2755
6.320000	 63.1798
6.338000	 63.0725
6.356000	 63.1257
6.374000	 63.2394
6.392000	 63.2229
6.410000	 63.1532
6.428000	 63.1227
6.446000	 63.067
6.464000	 63.1462
6.482000	 63.2738
6.500000	 63.234
6.518000	 63.156
6.536000	 63.1557
6.554000	 63.1908
6.572000	 63.1752
6.590000	 63.1079
6.608000	 63.1043
6.626000	 63.1684
6.644000	 63.1745
6.662000	 63.1695
6.680000	 63.2446
6.698000	 63.2592
6.716000	 63.1591
6.734000	 63.0847
6.752000	 63.0612
6.770000	 63.0799
6.788000	 63.1312
6.806000	 63.1452
6.824000	 63.1192
6.842000	 63.1104
6.860000	 63.0951
6.878000	 63.0296
6.896000	 62.9625
6.914000	 62.9621
6.932000	 63.0181
6.950000	 63.0996
6.968000	 63.1765
6.986000	 63.1817
7.004000	 63.1163
7.022000	 63.0664
7.040000	 63.0394
7.058000	 63.0016
7.076000	 62.9833
7.094000	 62.9936
7.112000	 63.0296
7.130000	 63.0775
7.148000	 63.0428
7.166000	 62.9244
7.184000	 62.85
7.202000	 62.851
7.220000	 62.8777
7.238000	 62.9017
7.256000	 62.9111
7.274000	 62.9236
7.292000	 62.9688
7.310000	 63.0148
7.328000	 63.0066
7.346000	 62.9496
7.364000	 62.8846
7.382000	 62.8585
7.400000	 62.9076
7.418000	 62.975
7.436000	 62.9726
7.454000	 62.9165
7.472000	 62.8832
7.490000	 62.9062
7.508000	 62.955
7.526000	 62.9675
7.544000	 62.9464
7.562000	 62.9652
7.580000	 63.0342
7.598000	 63.0718
7.616000	 63.0217
7.634000	 62.9111
7.652000	 62.8149
7.670000	 62.7908
7.688000	 62.8307
7.706000	 62.8785
7.724000	 62.8874
7.742000	 62.8439
7.760000	 62.7658
7.778000	 62.6925
7.796000	 62.655
7.814000	 62.6601
7.832000	 62.7032
7.850000	 62.7685
7.868000	 62.8191
7.886000	 62.8309
7.904000	 62.8296
7.922000	 62.8386
7.940000	 62.8314
7.958000	 62.7933
7.976000	 62.7685
7.994000	 62.7955
8.012000	 62.8506
8.030000	 62.887
8.048000	 62.8827
8.065999	 62.8457
8.084000	 62.8076
8.102000	 62.802
8.120000	 62.8281
8.138000	 62.8482
8.155999	 62.8282
8.173999	 62.7731
8.192000	 62.7207
8.210000	 62.7041
8.228000	 62.7158
8.246000	 62.7165
8.263999	 62.6892
8.282000	 62.6669
8.300000	 62.6837
8.318000	 62.7232
8.336000	 62.7416
8.353999	 62.7259
8.372000	 62.7028
8.390000	 62.7004
8.408000	 62.7161
8.426000	 62.7213
8.443999	 62.6967
8.462000	 62.6563
8.480000	 62.6282
8.498000	 62.614
8.516000	 62.587
8.533999	 62.5372
8.552000	 62.4935
8.570000	 62.4848
8.588000	 62.5013
8.606000	 62.5174
8.624000	 62.534
8.641999	 62.5683
8.660000	 62.6158
8.678000	 62.6475
8.696000	 62.6429
8.714000	 62.6118
8.731999	 62.5821
8.750000	 62.5781
8.768000	 62.6094
8.786000	 62.6646
8.804000	 62.7064
8.821999	 62.6944
8.840000	 62.6243
8.858000	 62.5397
8.876000	 62.4926
8.894000	 62.5047
8.911999	 62.5609
8.930000	 62.6251
8.948000	 62.6662
8.966000	 62.6783
8.984000	 62.6728
9.001999	 62.6594
9.020000	 62.648
9.038000	 62.6524
9.056000	 62.674
9.074000	 62.6904
9.092000	 62.6739
9.109999	 62.6207
9.128000	 62.5564
9.146000	 62.5102
9.164000	 62.4905
9.182000	 62.486
9.199999	 62.4802
9.218000	 62.4623
9.236000	 62.4297
9.254000	 62.392
9.272000	 62.3687
9.289999	 62.3778
9.308000	 62.4219
9.326000	 62.4857
9.344000	 62.5476
9.362000	 62.5933
9.379999	 62.6212
9.398000	 62.6371
9.416000	 62.6475
9.434000	 62.6557
9.452000	 62.6588
9.469999	 62.6493
9.488000	 62.6196
9.506000	 62.5698
9.524000	 62.5108
9.542000	 62.4614
9.560000	 62.4382
9.577999	 62.4474
9.596000	 62.4825
9.614000	 62.5291
9.632000	 62.5731
9.650000	 62.6076
9.667999	 62.6345
9.686000	 62.6583
9.704000	 62.6797
9.722000	 62.6919
9.740000	 62.6859
9.757999	 62.6562
9.776000	 62.6057
9.794000	 62.5429
9.812000	 62.4786
9.830000	 62.4241
9.847999	 62.3904
9.866000	 62.3865
9.884000	 62.4125
9.902000	 62.4571
9.920000	 62.5018
9.937999	 62.5315
9.956000	 62.5435
9.974000	 62.5456
9.992000	 62.545
10.01	62.5402
10.028	62.5226
10.046	62.4877
10.064	62.4446
10.082	62.4121
10.1	62.406
10.118	62.4272
10.136	62.461
10.154	62.491
10.172	62.5115
10.19	62.5305
10.208	62.5592
10.226	62.599
10.244	62.6383
10.262	62.6597
10.28	62.6537
10.298	62.6236
10.316	62.5825
10.334	62.5419
10.352	62.5051
10.37	62.4697
10.388	62.4365
10.406	62.4129
10.424	62.4095
10.442	62.4301
10.46	62.4677
10.478	62.5067
10.496	62.5315
10.514	62.5351
10.532	62.5208
10.55	62.5002
10.568	62.4862
10.586	62.4873
10.604	62.5039
10.622	62.5295
10.64	62.5533
10.658	62.566
10.676	62.5637
10.694	62.5499
10.712	62.5334
10.73	62.5228
10.748	62.523
10.766	62.5349
10.784	62.5562
10.802	62.5836
10.82	62.6135
10.838	62.6409
10.856	62.6601
10.874	62.6664
10.892	62.6586
10.91	62.6391
10.928	62.6136
10.946	62.5876
10.964	62.5633
10.982	62.5388
11	62.5099
11.018	62.4732
11.036	62.4294
11.054	62.3827
11.072	62.3394
11.09	62.3051
11.108	62.2815
11.126	62.2677
11.144	62.2623
11.162	62.265
11.18	62.2778
11.198	62.3043
11.216	62.3466
11.234	62.4031
11.252	62.4672
11.27	62.5293
11.288	62.5788
11.306	62.6087
11.324	62.6188
11.342	62.6155
11.36	62.6094
11.378	62.6102
11.396	62.6212
11.414	62.6381
11.432	62.6493
11.45	62.6429
11.468	62.6114
11.486	62.5557
11.504	62.4865
11.522	62.4202
11.54	62.3719
11.558	62.3508
11.576	62.3572
11.594	62.3833
11.612	62.4168
11.63	62.4456
11.648	62.4617
11.666	62.4615
11.684	62.4462
11.702	62.4193
11.72	62.3854
11.738	62.3496
11.756	62.317
11.774	62.2931
11.792	62.2836
11.81	62.2935
11.828	62.3253
11.846	62.3776
11.864	62.4442
11.882	62.5157
11.9	62.5813
11.918	62.631
11.936	62.6585
11.954	62.6617
11.972	62.6426
11.99	62.6068
12.008	62.562
12.026	62.516
12.044	62.4761
12.062	62.4473
12.08	62.4311
12.098	62.4262
12.116	62.4287
12.134	62.4344
12.152	62.4395
12.17	62.4423
12.188	62.4432
12.206	62.4441
12.224	62.4475
12.242	62.4547
12.26	62.4654
12.278	62.4777
12.296	62.4889
12.314	62.496
12.332	62.4969
12.35	62.491
12.368	62.4791
12.386	62.4624
12.404	62.4432
12.422	62.4237
12.44	62.4058
12.458	62.39
12.476	62.3757
12.494	62.3611
12.512	62.3445
12.53	62.3244
12.548	62.301
12.566	62.2764
12.584	62.2544
12.602	62.2392
12.62	62.2344
12.638	62.2416
12.656	62.2598
12.674	62.2856
12.692	62.3139
12.71	62.3397
12.728	62.3584
12.746	62.3673
12.764	62.3651
12.782	62.3517
12.8	62.3277
12.818	62.2946
12.836	62.2535
12.854	62.2067
12.872	62.1575
12.89	62.1106
12.908	62.0711
12.926	62.0444
12.944	62.0343
12.962	62.0424
12.98	62.0671
12.998	62.104
13.016	62.1464
13.034	62.1873
13.052	62.2206
13.07	62.2424
13.088	62.2512
13.106	62.2476
13.124	62.2339
13.142	62.2131
13.16	62.1882
13.178	62.1617
13.196	62.1359
13.214	62.1131
13.232	62.0957
13.25	62.0865
13.268	62.0879
13.286	62.1017
13.304	62.129
13.322	62.1686
13.34	62.2173
13.358	62.2701
13.376	62.3207
13.394	62.3631
13.412	62.3921
13.43	62.4043
13.448	62.399
13.466	62.3781
13.484	62.3456
13.502	62.3073
13.52	62.269
13.538	62.2364
13.556	62.2137
13.574	62.2035
13.592	62.2064
13.61	62.221
13.628	62.2443
13.646	62.2725
13.664	62.3013
13.682	62.3268
13.7	62.3454
13.718	62.3545
13.736	62.3524
13.754	62.3387
13.772	62.3142
13.79	62.2803
13.808	62.2395
13.826	62.195
13.844	62.15
13.862	62.108
13.88	62.0718
13.898	62.0438
13.916	62.0256
13.934	62.018
13.952	62.0209
13.97	62.0332
13.988	62.0528
14.006	62.0768
14.024	62.1022
14.042	62.1252
14.06	62.1425
14.078	62.1513
14.096	62.1502
14.114	62.139
14.132	62.1187
14.15	62.0918
14.168	62.061
14.186	62.0293
14.204	61.9998
14.222	61.9746
14.24	61.9553
14.258	61.9422
14.276	61.9351
14.294	61.9332
14.312	61.9355
14.33	61.941
14.348	61.949
14.366	61.9587
14.384	61.9701
14.402	61.9834
14.42	61.9988
14.438	62.0162
14.456	62.0351
14.474	62.0541
14.492	62.0713
14.51	62.0839
14.528	62.0893
14.546	62.0851
14.564	62.0699
14.582	62.0433
14.6	62.0067
14.618	61.9629
14.636	61.9163
14.654	61.8719
14.672	61.8345
14.69	61.8084
14.708	61.797
14.726	61.8023
14.744	61.8241
14.762	61.8608
14.78	61.909
14.798	61.9646
14.816	62.0229
14.834	62.0786
14.852	62.1268
14.87	62.1638
14.888	62.1867
14.906	62.1938
14.924	62.1846
14.942	62.1595
14.96	62.1205
14.978	62.0697
14.996	62.0098
15.014	61.944
15.032	61.8761
15.05	61.8101
15.068	61.7494
15.086	61.6973
15.104	61.6566
15.122	61.6301
15.14	61.619
15.158	61.6238
15.176	61.6441
15.194	61.6782
15.212	61.7229
15.23	61.7751
15.248	61.8315
15.266	61.8889
15.284	61.9435
15.302	61.9931
15.32	62.0359
15.338	62.0707
15.356	62.0965
15.374	62.1136
15.392	62.1222
15.41	62.1225
15.428	62.115
15.446	62.0999
15.464	62.0776
15.482	62.0485
15.5	62.0134
15.518	61.9738
15.536	61.9315
15.554	61.8888
15.572	61.8482
15.59	61.8134
15.608	61.7876
15.626	61.7735
15.644	61.7737
15.662	61.7901
15.68	61.8225
15.698	61.8702
15.716	61.9303
15.734	61.9985
15.752	62.0702
15.77	62.1406
15.788	62.2023
15.806	62.2501
15.824	62.2795
15.842	62.2865
15.86	62.269
15.878	62.2276
15.896	62.1634
15.914	62.0806
15.932	61.985
15.95	61.8819
15.968	61.7783
15.986	61.6826
16.004	61.5997
16.022	61.5349
16.04	61.4928
16.058	61.4738
16.076	61.4781
16.094	61.5034
16.112	61.5449
16.13	61.5984
16.148	61.6578
16.166	61.7161
16.184	61.7692
16.202	61.8123
16.22	61.8421
16.238	61.8581
16.256	61.8596
16.274	61.8493
16.292	61.8301
16.31	61.8049
16.328	61.7793
16.346	61.7569
16.364	61.7405
16.382	61.7342
16.4	61.7392
16.418	61.7566
16.436	61.7867
16.454	61.8285
16.472	61.881
16.49	61.9418
16.508	62.0085
16.526	62.0793
16.544	62.1509
16.562	62.2213
16.58	62.2888
16.598	62.3504
16.616	62.4051
16.634	62.4516
16.652	62.4884
16.67	62.5152
16.688	62.5315
16.706	62.5381
16.724	62.5358
16.742	62.5256
16.76	62.5106
16.778	62.4923
16.796	62.4736
16.814	62.4569
16.832	62.4439
16.85	62.4365
16.868	62.4353
16.886	62.4409
16.904	62.4521
16.922	62.4679
16.94	62.4869
16.958	62.5056
16.976	62.5224
16.994	62.5336
17.012	62.5371
17.03	62.5309
17.048	62.5129
17.066	62.4832
17.084	62.4413
17.102	62.3888
17.12	62.3268
17.138	62.259
17.156	62.1884
17.174	62.1178
17.192	62.0532
17.21	61.9966
17.228	61.9531
17.246	61.9249
17.264	61.914
17.282	61.9216
17.3	61.947
17.318	61.9892
17.336	62.0446
17.354	62.1115
17.372	62.1833
17.39	62.2578
17.408	62.3291
17.426	62.3932
17.444	62.447
17.462	62.4864
17.48	62.511
17.498	62.5191
17.516	62.5122
17.534	62.4907
17.552	62.4589
17.57	62.4177
17.588	62.3723
17.606	62.3244
17.624	62.2778
17.642	62.2341
17.66	62.1946
17.678	62.1603
17.696	62.1309
17.714	62.1051
17.732	62.0813
17.75	62.0576
17.768	62.0313
17.786	62.0013
17.804	61.9651
17.822	61.9225
17.84	61.8731
17.858	61.8184
17.876	61.7592
17.894	61.6998
17.912	61.6415
17.93	61.59
17.948	61.5466
17.966	61.5173
17.984	61.5031
18.002	61.5079
18.02	61.532
18.038	61.5769
18.056	61.6407
18.074	61.7234
18.092	61.8197
18.11	61.9285
18.128	62.0421
18.146	62.1587
18.164	62.2705
18.182	62.3746
18.2	62.4656
18.218	62.5398
18.236	62.5944
18.254	62.6272
18.272	62.6375
18.29	62.6256
18.308	62.5917
18.326	62.5395
18.344	62.4701
18.362	62.3894
18.38	62.2993
18.398	62.2061
18.416	62.1129
18.434	62.025
18.452	61.9456
18.47	61.8779
18.488	61.8253
18.506	61.7896
18.524	61.7719
18.542	61.7725
18.56	61.7907
18.578	61.8264
18.596	61.8757
18.614	61.9381
18.632	62.008
18.65	62.085
18.668	62.162
18.686	62.2387
18.704	62.308
18.722	62.3695
18.74	62.418
18.758	62.4532
18.776	62.4719
18.794	62.4746
18.812	62.4606
18.83	62.4314
18.848	62.3879
18.866	62.3328
18.884	62.2693
18.902	62.2005
18.92	62.1311
18.938	62.064
18.956	62.0046
18.974	61.9547
18.992	61.9192
19.01	61.8988
19.028	61.8965
19.046	61.9115
19.064	61.9443
19.082	61.9928
19.1	62.0551
19.118	62.1283
19.136	62.2079
19.154	62.2915
19.172	62.3724
19.19	62.4494
19.208	62.5155
19.226	62.5704
19.244	62.6085
19.262	62.6304
19.28	62.6336
19.298	62.619
19.316	62.5876
19.334	62.5399
19.352	62.4807
19.37	62.4098
19.388	62.3342
19.406	62.2536
19.424	62.1749
19.442	62.0982
19.46	62.0287
19.478	61.9674
19.496	61.9158
19.514	61.875
19.532	61.8444
19.55	61.825
19.568	61.814
19.586	61.8098
19.604	61.8105
19.622	61.8121
19.64	61.8139
19.658	61.8098
19.676	61.8004
19.694	61.78
19.712	61.7493
19.73	61.7048
19.748	61.6465
19.766	61.5743
19.784	61.4874
19.802	61.3883
19.82	61.2775
19.838	61.157
19.856	61.0298
19.874	60.8967
19.892	60.7632
19.91	60.6288
19.928	60.4997
19.946	60.3752
19.964	60.2603
19.982	60.1555
20	60.0632
20.018	59.9848
20.036	59.9207
20.054	59.8728
20.072	59.8406
20.09	59.8251
20.108	59.826
20.126	59.8431
20.144	59.8766
20.162	59.9254
20.18	59.9895
20.198	60.0679
20.216	60.1594
20.234	60.2639
20.252	60.3786
20.27	60.5042
20.288	60.6368
20.306	60.777
20.324	60.9212
20.342	61.068
20.36	61.216
20.378	61.3608
20.396	61.5031
20.414	61.6375
20.432	61.7647
20.45	61.8807
20.468	61.9838
20.486	62.0737
20.504	62.1471
20.522	62.2049
20.54	62.2459
20.558	62.27
20.576	62.2784
20.594	62.2707
20.612	62.2487
20.63	62.2152
20.648	62.1697
20.666	62.117
20.684	62.0564
20.702	61.9915
20.72	61.925
20.738	61.8568
20.756	61.7907
20.774	61.7259
20.792	61.665
20.81	61.6088
20.828	61.5568
20.846	61.5097
20.864	61.4673
20.882	61.4283
20.9	61.3933
20.918	61.3602
20.936	61.328
20.954	61.2965
20.972	61.2632
20.99	61.2288
21.008	61.1913
21.026	61.15
21.044	61.105
21.062	61.0555
21.08	61.0014
21.098	60.9435
21.116	60.8816
21.134	60.8165
21.152	60.7501
21.17	60.6818
21.188	60.6144
21.206	60.548
21.224	60.4838
21.242	60.4245
21.26	60.369
21.278	60.3205
21.296	60.2792
21.314	60.2457
21.332	60.222
21.35	60.2075
21.368	60.2032
21.386	60.2097
21.404	60.2265
21.422	60.2534
21.44	60.2906
21.458	60.3366
21.476	60.3915
21.494	60.4545
21.512	60.523
21.53	60.5978
21.548	60.676
21.566	60.7559
21.584	60.8377
21.602	60.9172
21.62	60.9951
21.638	61.069
21.656	61.1354
21.674	61.1957
21.692	61.2465
21.71	61.2869
21.728	61.3171
21.746	61.3353
21.764	61.3417
21.782	61.3366
21.8	61.3199
21.818	61.2917
21.836	61.2544
21.854	61.2075
21.872	61.1525
21.89	61.0926
21.908	61.0264
21.926	60.9572
21.944	60.8872
21.962	60.8154
21.98	60.7456
21.998	60.6776
22.016	60.6123
22.034	60.5519
22.052	60.496
22.07	60.445
22.088	60.3997
22.106	60.3598
22.124	60.3244
22.142	60.2935
22.16	60.2668
22.178	60.2429
22.196	60.2219
22.214	60.2035
22.232	60.1865
22.25	60.1715
22.268	60.158
22.286	60.1457
22.304	60.1349
22.322	60.1262
22.34	60.1193
22.358	60.1146
22.376	60.114
22.394	60.1167
22.412	60.1239
22.43	60.1373
22.448	60.156
22.466	60.1816
22.484	60.2155
22.502	60.257
22.52	60.3071
22.538	60.3668
22.556	60.4353
22.574	60.5121
22.592	60.5977
22.61	60.6911
22.628	60.7897
22.646	60.8946
22.664	61.004
22.682	61.1142
22.7	61.2272
22.718	61.3398
22.736	61.4486
22.754	61.5554
22.772	61.6571
22.79	61.7507
22.808	61.8378
22.826	61.9157
22.844	61.9824
22.862	62.039
22.88	62.0843
22.898	62.1174
22.916	62.1389
22.934	62.1491
22.952	62.1478
22.97	62.1353
22.988	62.1134
23.006	62.0819
23.024	62.0412
23.042	61.9942
23.06	61.9407
23.078	61.8812
23.096	61.8187
23.114	61.7527
23.132	61.6839
23.15	61.6158
23.168	61.548
23.186	61.4809
23.204	61.417
23.222	61.3557
23.24	61.2977
23.258	61.2462
23.276	61.2004
23.294	61.1609
23.312	61.1307
23.33	61.1088
23.348	61.0961
23.366	61.096
23.384	61.1079
23.402	61.1322
23.42	61.1725
23.438	61.2286
23.456	61.3005
23.474	61.3908
23.492	61.5
23.51	61.6275
23.528	61.7742
23.546	61.9411
23.564	62.1274
23.582	62.3312
23.6	62.5529
23.618	62.7925
23.636	63.0459
23.654	63.3118
23.672	63.5922
23.69	63.8794
23.708	64.1691
23.726	64.4659
23.744	64.7605
23.762	65.0451
23.78	65.3262
23.798	65.5948
23.816	65.8407
23.834	66.0699
23.852	66.2766
23.87	66.4504
23.888	66.5949
23.906	66.708
23.924	66.7819
23.942	66.8162
23.96	66.8125
23.978	66.7674
23.996	66.6787
24.014	66.5481
24.032	66.3783
24.05	66.1697
24.068	65.9202
24.086	65.6371
24.104	65.3263
24.122	64.9822
24.14	64.6126
24.158	64.2286
24.176	63.8249
24.194	63.4058
24.212	62.9842
24.23	62.5607
24.248	62.1326
24.266	61.7126
24.284	61.3075
24.302	60.9105
24.32	60.5302
24.338	60.1751
24.356	59.8403
24.374	59.5288
24.392	59.2467
24.41	58.9939
24.428	58.769
24.446	58.5733
24.464	58.4082
24.482	58.273
24.5	58.165
24.518	58.0822
24.536	58.0274
24.554	57.9963
24.572	57.9835
24.59	57.9915
24.608	58.0188
24.626	58.0579
24.644	58.1058
24.662	58.1664
24.68	58.2338
24.698	58.3026
24.716	58.3764
24.734	58.4525
24.752	58.5256
24.77	58.5946
24.788	58.6614
24.806	58.7245
24.824	58.7826
24.842	58.836
24.86	58.8855
24.878	58.9321
24.896	58.9739
24.914	59.0125
24.932	59.0518
24.95	59.0935
24.968	59.1348
24.986	59.1802
25.004	59.2341
25.022	59.2939
25.04	59.361
25.058	59.4398
25.076	59.5327
25.094	59.637
25.112	59.7546
25.13	59.8877
25.148	60.036
25.166	60.1987
25.184	60.3752
25.202	60.5657
25.22	60.7711
25.238	60.9881
25.256	61.2133
25.274	61.4496
25.292	61.6951
25.31	61.9441
25.328	62.1939
25.346	62.449
25.364	62.7036
25.382	62.9515
25.4	63.1941
25.418	63.4322
25.436	63.6614
25.454	63.8779
25.472	64.0843
25.49	64.28
25.508	64.4636
25.526	64.6341
25.544	64.7921
25.562	64.9397
25.58	65.0785
25.598	65.2059
25.616	65.3242
25.634	65.4379
25.652	65.5492
25.67	65.6539
25.688	65.7572
25.706	65.8653
25.724	65.9778
25.742	66.0925
25.76	66.2148
25.778	66.3498
25.796	66.4945
25.814	66.6496
25.832	66.8188
25.85	67.0047
25.868	67.2056
25.886	67.421
25.904	67.6511
25.922	67.8974
25.94	68.16
25.958	68.4342
25.976	68.7152
25.994	69.0072
26.012	69.3087
26.03	69.6117
26.048	69.9093
26.066	70.2083
26.084	70.5049
26.102	70.7911
26.12	71.0622
26.138	71.3245
26.156	71.5733
26.174	71.8022
26.192	72.0091
26.21	72.198
26.228	72.3658
26.246	72.5091
26.264	72.6268
26.282	72.7207
26.3	72.7917
26.318	72.8402
26.336	72.8641
26.354	72.8649
26.372	72.8471
26.39	72.8148
26.408	72.763
26.426	72.6946
26.444	72.6171
26.462	72.5362
26.48	72.4447
26.498	72.3473
26.516	72.2522
26.534	72.1652
26.552	72.0789
26.57	71.998
26.588	71.9296
26.606	71.8783
26.624	71.8382
26.642	71.8125
26.66	71.8056
26.678	71.8204
26.696	71.8539
26.714	71.9066
26.732	71.9791
26.75	72.073
26.768	72.1886
26.786	72.3228
26.804	72.4722
26.822	72.6359
26.84	72.8173
26.858	73.012
26.876	73.2155
26.894	73.4258
26.912	73.6472
26.93	73.8757
26.948	74.1068
26.966	74.3486
26.984	74.6199
27.002	74.8797
27.02	75.083
27.028	75.1373