File: Bakgrunnsmateriale/MATLAB/FTIR/ftir_data/subAa/Mapping_121/BZ1503107-1_t10.asc
PE IR       SPECTRUM    SPECTRUM    ASCII       PEDS        1.60
  -1
BZ294B~1.ASC
17/04/07
14:02:02.00
17/04/07
14:02:28.00
tln
$BZ1503107-1_t0010$<tbV0>[-10.4,-13.0,8.0,0.0,27,1,0]
27.028
64

2002,4.07
MIRTGS : RIGHTBACK : INTERNAL 2
MIR : ON : INTERNAL 2
OPTKBR

0.200000
8
8.000000
FILLER
RATIO
SPECTRUM
UNLOCKED 256

DOUBLE
64
COMBINED
1
0
0

0.002000
RATIO

1
0
TRUE
51149
0
LEFT NOT FITTED RIGHT NOT FITTED 0
NONE
NONE
15600
12
4.427000
51148
TRUE
1 0 8 72 0 0 0 0

15798

#HDR
-1
-1
#GR
µM
%T
2.38419e-05
0.0
2.000000
0.002000
12515
8
78.656
51.0753
#DATA
2.000000	 65.6181
2.018000	 65.3269
2.036000	 64.6271
2.054000	 64.916
2.072000	 64.7502
2.090000	 65.295
2.108000	 64.8849
2.126000	 64.4227
2.144000	 64.813
2.162000	 64.8503
2.180000	 65.1575
2.198000	 64.5106
2.216000	 64.4561
2.234000	 67.9849
2.252000	 70.0895
2.270000	 65.2488
2.288000	 65.0861
2.306000	 65.1066
2.324000	 64.9396
2.342000	 65.0384
2.360000	 64.8583
2.378000	 65.0999
2.396000	 65.1369
2.414000	 65.1873
2.432000	 65.2966
2.450000	 65.0646
2.468000	 65.237
2.486000	 65.0342
2.504000	 64.8252
2.522000	 65.2524
2.540000	 65.3595
2.558000	 65.1743
2.576000	 65.1994
2.594000	 65.1843
2.612000	 65.4644
2.630000	 65.2812
2.648000	 65.1369
2.666000	 65.4604
2.684000	 65.1027
2.702000	 65.0922
2.720000	 65.455
2.738000	 65.2936
2.756000	 65.3984
2.774000	 65.3401
2.792000	 65.2377
2.810000	 65.174
2.828000	 65.1905
2.846000	 65.0265
2.864000	 65.0818
2.882000	 65.029
2.900000	 65.1256
2.918000	 65.2021
2.936000	 65.072
2.954000	 65.0956
2.972000	 65.2508
2.990000	 65.0563
3.008000	 65.1934
3.026000	 65.114
3.044000	 65.2001
3.062000	 65.0167
3.080000	 65.1695
3.098000	 65.0475
3.116000	 65.242
3.134000	 65.0974
3.152000	 65.1096
3.170000	 65.052
3.188000	 65.1348
3.206000	 65.1492
3.224000	 65.1757
3.242000	 65.0171
3.260000	 65.1236
3.278000	 65.1714
3.296000	 65.1726
3.314000	 65.3018
3.332000	 65.1566
3.350000	 65.0322
3.368000	 65.0848
3.386000	 65.0299
3.404000	 64.9965
3.422000	 65.1377
3.440000	 65.1177
3.458000	 65.1326
3.476000	 65.0145
3.494000	 65.194
3.512000	 65.1494
3.530000	 65.0781
3.548000	 65.1101
3.566000	 65.1299
3.584000	 65.1493
3.602000	 65.1426
3.620000	 65.1227
3.638000	 65.0452
3.656000	 65.2094
3.674000	 65.1693
3.692000	 65.0274
3.710000	 65.2111
3.728000	 65.135
3.746000	 65.0726
3.764000	 65.0852
3.782000	 65.0315
3.800000	 65.1103
3.818000	 64.9854
3.836000	 65.0153
3.854000	 65.0529
3.872000	 65.0579
3.890000	 64.9839
3.908000	 65.0962
3.926000	 65.0058
3.944000	 65.0918
3.962000	 65.1229
3.980000	 65.1203
3.998000	 65.0172
4.016000	 65.0481
4.034000	 65.0368
4.052000	 65.1137
4.070000	 65.0064
4.088000	 65.0844
4.106000	 64.9042
4.124000	 64.9447
4.141999	 65.0828
4.160000	 65.0864
4.178000	 64.947
4.196000	 65.0013
4.214000	 65.1067
4.232000	 65.084
4.250000	 65.1268
4.268000	 65.0825
4.286000	 64.9647
4.304000	 64.9707
4.322000	 64.9885
4.340000	 65.0467
4.358000	 64.9081
4.375999	 65.0056
4.394000	 64.9796
4.412000	 65.0173
4.430000	 65.0453
4.448000	 65.0942
4.466000	 64.9564
4.484000	 64.885
4.502000	 64.8941
4.520000	 64.9751
4.538000	 64.9708
4.556000	 64.9012
4.574000	 64.8998
4.592000	 64.8568
4.609999	 65.0051
4.628000	 64.9703
4.646000	 64.7564
4.664000	 64.7333
4.682000	 64.8448
4.700000	 64.9056
4.718000	 64.9331
4.736000	 64.9544
4.754000	 64.8569
4.772000	 64.8597
4.790000	 64.925
4.808000	 65.0173
4.826000	 64.8585
4.843999	 64.859
4.862000	 64.8347
4.880000	 64.9592
4.898000	 64.8722
4.916000	 64.895
4.934000	 64.9751
4.952000	 64.9292
4.970000	 64.9036
4.988000	 64.9287
5.006000	 64.8829
5.024000	 64.8143
5.042000	 64.7767
5.060000	 64.8117
5.077999	 64.902
5.096000	 64.9478
5.114000	 64.8955
5.132000	 64.891
5.150000	 64.8745
5.168000	 64.8921
5.186000	 64.8909
5.204000	 64.8594
5.222000	 64.9764
5.240000	 64.935
5.258000	 64.8455
5.276000	 64.8919
5.294000	 65.0207
5.312000	 64.8513
5.330000	 64.8362
5.348000	 64.8837
5.366000	 64.7883
5.384000	 64.6752
5.402000	 64.8315
5.420000	 64.9078
5.438000	 64.8537
5.456000	 64.7972
5.474000	 64.7744
5.492000	 64.7452
5.510000	 64.8199
5.528000	 64.802
5.546000	 64.7807
5.564000	 64.815
5.582000	 64.8488
5.600000	 64.8133
5.618000	 64.7436
5.636000	 64.8325
5.654000	 64.8129
5.672000	 64.7419
5.690000	 64.7272
5.708000	 64.7166
5.726000	 64.6012
5.744000	 64.5745
5.762000	 64.6126
5.780000	 64.5855
5.798000	 64.5759
5.816000	 64.6938
5.834000	 64.7055
5.852000	 64.7076
5.870000	 64.883
5.888000	 64.9979
5.906000	 64.8132
5.923999	 64.729
5.942000	 64.7838
5.960000	 64.8329
5.978000	 64.8032
5.996000	 64.6903
6.014000	 64.7014
6.032000	 64.7907
6.050000	 64.8197
6.068000	 64.7292
6.086000	 64.7038
6.104000	 64.7728
6.122000	 64.7765
6.140000	 64.7033
6.158000	 64.6955
6.176000	 64.6798
6.194000	 64.6351
6.212000	 64.6468
6.230000	 64.6931
6.248000	 64.7062
6.266000	 64.7061
6.284000	 64.6829
6.302000	 64.6318
6.320000	 64.6131
6.338000	 64.6254
6.356000	 64.6252
6.374000	 64.6186
6.392000	 64.6692
6.410000	 64.7753
6.428000	 64.7905
6.446000	 64.6853
6.464000	 64.6445
6.482000	 64.7176
6.500000	 64.6866
6.518000	 64.558
6.536000	 64.5633
6.554000	 64.6594
6.572000	 64.7105
6.590000	 64.7055
6.608000	 64.6849
6.626000	 64.6655
6.644000	 64.6452
6.662000	 64.6482
6.680000	 64.7048
6.698000	 64.7297
6.716000	 64.6993
6.734000	 64.6802
6.752000	 64.6669
6.770000	 64.6737
6.788000	 64.6577
6.806000	 64.5498
6.824000	 64.4543
6.842000	 64.5303
6.860000	 64.6616
6.878000	 64.6531
6.896000	 64.6288
6.914000	 64.7
6.932000	 64.7565
6.950000	 64.7462
6.968000	 64.6997
6.986000	 64.6478
7.004000	 64.6025
7.022000	 64.6105
7.040000	 64.6912
7.058000	 64.746
7.076000	 64.6946
7.094000	 64.5745
7.112000	 64.4952
7.130000	 64.514
7.148000	 64.5431
7.166000	 64.522
7.184000	 64.5046
7.202000	 64.4938
7.220000	 64.453
7.238000	 64.412
7.256000	 64.4216
7.274000	 64.4782
7.292000	 64.5367
7.310000	 64.5742
7.328000	 64.5811
7.346000	 64.5445
7.364000	 64.497
7.382000	 64.4826
7.400000	 64.4916
7.418000	 64.51
7.436000	 64.5422
7.454000	 64.5655
7.472000	 64.5517
7.490000	 64.5054
7.508000	 64.4459
7.526000	 64.3993
7.544000	 64.3929
7.562000	 64.432
7.580000	 64.4879
7.598000	 64.5241
7.616000	 64.5241
7.634000	 64.493
7.652000	 64.4631
7.670000	 64.4703
7.688000	 64.4988
7.706000	 64.5019
7.724000	 64.4825
7.742000	 64.4718
7.760000	 64.4575
7.778000	 64.4116
7.796000	 64.3565
7.814000	 64.3348
7.832000	 64.3441
7.850000	 64.3544
7.868000	 64.3552
7.886000	 64.3538
7.904000	 64.3556
7.922000	 64.3654
7.940000	 64.3845
7.958000	 64.4022
7.976000	 64.4017
7.994000	 64.376
8.012000	 64.3356
8.030000	 64.3139
8.048000	 64.3348
8.065999	 64.3803
8.084000	 64.408
8.102000	 64.3959
8.120000	 64.3618
8.138000	 64.3392
8.155999	 64.3344
8.173999	 64.3277
8.192000	 64.3237
8.210000	 64.361
8.228000	 64.4436
8.246000	 64.508
8.263999	 64.5018
8.282000	 64.4555
8.300000	 64.4372
8.318000	 64.4616
8.336000	 64.483
8.353999	 64.4632
8.372000	 64.413
8.390000	 64.3676
8.408000	 64.3417
8.426000	 64.3185
8.443999	 64.2766
8.462000	 64.2161
8.480000	 64.1586
8.498000	 64.13
8.516000	 64.136
8.533999	 64.1621
8.552000	 64.1956
8.570000	 64.2376
8.588000	 64.289
8.606000	 64.335
8.624000	 64.3562
8.641999	 64.3459
8.660000	 64.3139
8.678000	 64.2751
8.696000	 64.2424
8.714000	 64.2308
8.731999	 64.254
8.750000	 64.309
8.768000	 64.3715
8.786000	 64.416
8.804000	 64.4388
8.821999	 64.4548
8.840000	 64.4754
8.858000	 64.4941
8.876000	 64.4951
8.894000	 64.4668
8.911999	 64.4127
8.930000	 64.3518
8.948000	 64.3086
8.966000	 64.2906
8.984000	 64.2824
9.001999	 64.2658
9.020000	 64.2409
9.038000	 64.2251
9.056000	 64.233
9.074000	 64.264
9.092000	 64.3116
9.109999	 64.3792
9.128000	 64.4699
9.146000	 64.5606
9.164000	 64.605
9.182000	 64.5813
9.199999	 64.5238
9.218000	 64.4931
9.236000	 64.5182
9.254000	 64.5724
9.272000	 64.6056
9.289999	 64.5896
9.308000	 64.5298
9.326000	 64.4459
9.344000	 64.3558
9.362000	 64.2734
9.379999	 64.2073
9.398000	 64.159
9.416000	 64.127
9.434000	 64.1122
9.452000	 64.1199
9.469999	 64.1529
9.488000	 64.2027
9.506000	 64.2469
9.524000	 64.2594
9.542000	 64.2286
9.560000	 64.1688
9.577999	 64.1129
9.596000	 64.0903
9.614000	 64.1058
9.632000	 64.138
9.650000	 64.1605
9.667999	 64.1656
9.686000	 64.1673
9.704000	 64.1831
9.722000	 64.2149
9.740000	 64.2471
9.757999	 64.2627
9.776000	 64.2612
9.794000	 64.2602
9.812000	 64.2792
9.830000	 64.3198
9.847999	 64.3622
9.866000	 64.3796
9.884000	 64.3586
9.902000	 64.3096
9.920000	 64.2593
9.937999	 64.2314
9.956000	 64.2301
9.974000	 64.2413
9.992000	 64.2476
10.01	64.2421
10.028	64.2299
10.046	64.2199
10.064	64.2147
10.082	64.2105
10.1	64.2006
10.118	64.1833
10.136	64.1645
10.154	64.1531
10.172	64.1563
10.19	64.1752
10.208	64.2046
10.226	64.2366
10.244	64.2639
10.262	64.2834
10.28	64.2967
10.298	64.3072
10.316	64.318
10.334	64.3308
10.352	64.3463
10.37	64.3645
10.388	64.384
10.406	64.4023
10.424	64.4166
10.442	64.4263
10.46	64.4327
10.478	64.4382
10.496	64.4423
10.514	64.4398
10.532	64.4231
10.55	64.3888
10.568	64.3424
10.586	64.2985
10.604	64.2726
10.622	64.2736
10.64	64.2972
10.658	64.3298
10.676	64.3537
10.694	64.3569
10.712	64.3371
10.73	64.3007
10.748	64.2584
10.766	64.221
10.784	64.1954
10.802	64.1843
10.82	64.1866
10.838	64.1986
10.856	64.2161
10.874	64.2358
10.892	64.2556
10.91	64.2745
10.928	64.2917
10.946	64.3052
10.964	64.3133
10.982	64.3144
11	64.3095
11.018	64.3024
11.036	64.298
11.054	64.3005
11.072	64.311
11.09	64.3264
11.108	64.3418
11.126	64.3514
11.144	64.3517
11.162	64.343
11.18	64.3303
11.198	64.3214
11.216	64.3233
11.234	64.3387
11.252	64.3636
11.27	64.3883
11.288	64.3996
11.306	64.3882
11.324	64.352
11.342	64.2986
11.36	64.2421
11.378	64.1983
11.396	64.1767
11.414	64.1789
11.432	64.1987
11.45	64.2264
11.468	64.2516
11.486	64.2671
11.504	64.2689
11.522	64.256
11.54	64.2307
11.558	64.1971
11.576	64.1617
11.594	64.1318
11.612	64.1145
11.63	64.1145
11.648	64.1323
11.666	64.1646
11.684	64.2058
11.702	64.2507
11.72	64.2956
11.738	64.3384
11.756	64.3777
11.774	64.4119
11.792	64.4386
11.81	64.4552
11.828	64.4599
11.846	64.4528
11.864	64.4361
11.882	64.4132
11.9	64.3882
11.918	64.3643
11.936	64.3428
11.954	64.3236
11.972	64.3054
11.99	64.2859
12.008	64.2629
12.026	64.235
12.044	64.2017
12.062	64.166
12.08	64.1332
12.098	64.1097
12.116	64.1006
12.134	64.1067
12.152	64.1231
12.17	64.1412
12.188	64.151
12.206	64.145
12.224	64.1208
12.242	64.0823
12.26	64.0379
12.278	63.9988
12.296	63.9749
12.314	63.9727
12.332	63.9926
12.35	64.03
12.368	64.0757
12.386	64.1193
12.404	64.1519
12.422	64.1684
12.44	64.1683
12.458	64.1553
12.476	64.1354
12.494	64.1148
12.512	64.098
12.53	64.0869
12.548	64.0804
12.566	64.0765
12.584	64.0729
12.602	64.0689
12.62	64.066
12.638	64.0667
12.656	64.0742
12.674	64.09
12.692	64.1136
12.71	64.1429
12.728	64.1745
12.746	64.2049
12.764	64.2315
12.782	64.2533
12.8	64.2706
12.818	64.2846
12.836	64.2969
12.854	64.3079
12.872	64.317
12.89	64.3216
12.908	64.3189
12.926	64.3057
12.944	64.2801
12.962	64.2424
12.98	64.1953
12.998	64.1439
13.016	64.0945
13.034	64.053
13.052	64.024
13.07	64.0091
13.088	64.0071
13.106	64.0147
13.124	64.0268
13.142	64.0387
13.16	64.0471
13.178	64.0504
13.196	64.0492
13.214	64.0453
13.232	64.0405
13.25	64.0356
13.268	64.0301
13.286	64.0218
13.304	64.0085
13.322	63.9883
13.34	63.9607
13.358	63.9276
13.376	63.8926
13.394	63.8603
13.412	63.8352
13.43	63.8205
13.448	63.817
13.466	63.8228
13.484	63.8341
13.502	63.846
13.52	63.8542
13.538	63.8556
13.556	63.8501
13.574	63.8398
13.592	63.8295
13.61	63.8245
13.628	63.8301
13.646	63.8496
13.664	63.884
13.682	63.9316
13.7	63.9879
13.718	64.047
13.736	64.1026
13.754	64.1492
13.772	64.1828
13.79	64.2018
13.808	64.2068
13.826	64.2006
13.844	64.1868
13.862	64.1695
13.88	64.1523
13.898	64.1378
13.916	64.1276
13.934	64.1219
13.952	64.12
13.97	64.1208
13.988	64.1226
14.006	64.1236
14.024	64.1224
14.042	64.1176
14.06	64.1083
14.078	64.0943
14.096	64.0758
14.114	64.0537
14.132	64.0292
14.15	64.0038
14.168	63.9792
14.186	63.9568
14.204	63.9379
14.222	63.9233
14.24	63.9134
14.258	63.9079
14.276	63.9065
14.294	63.9088
14.312	63.9142
14.33	63.9222
14.348	63.9322
14.366	63.9436
14.384	63.9554
14.402	63.9664
14.42	63.9752
14.438	63.9801
14.456	63.9795
14.474	63.9723
14.492	63.9578
14.51	63.9367
14.528	63.9107
14.546	63.8822
14.564	63.8541
14.582	63.8293
14.6	63.8103
14.618	63.7992
14.636	63.7967
14.654	63.8026
14.672	63.8154
14.69	63.8333
14.708	63.8541
14.726	63.8756
14.744	63.8962
14.762	63.9149
14.78	63.9318
14.798	63.9478
14.816	63.9639
14.834	63.982
14.852	64.0036
14.87	64.0296
14.888	64.0603
14.906	64.0952
14.924	64.133
14.942	64.1715
14.96	64.208
14.978	64.2403
14.996	64.2663
15.014	64.2845
15.032	64.294
15.05	64.2955
15.068	64.2901
15.086	64.2799
15.104	64.2672
15.122	64.2549
15.14	64.2451
15.158	64.2395
15.176	64.2391
15.194	64.244
15.212	64.2534
15.23	64.266
15.248	64.2799
15.266	64.2934
15.284	64.3044
15.302	64.3113
15.32	64.3134
15.338	64.3105
15.356	64.3029
15.374	64.2916
15.392	64.2779
15.41	64.2628
15.428	64.2477
15.446	64.2333
15.464	64.22
15.482	64.2078
15.5	64.1961
15.518	64.1845
15.536	64.1721
15.554	64.1585
15.572	64.1431
15.59	64.1257
15.608	64.1064
15.626	64.0855
15.644	64.0636
15.662	64.0416
15.68	64.0206
15.698	64.0015
15.716	63.9857
15.734	63.9745
15.752	63.969
15.77	63.9701
15.788	63.9783
15.806	63.993
15.824	64.0132
15.842	64.0376
15.86	64.0632
15.878	64.0878
15.896	64.1088
15.914	64.1229
15.932	64.1282
15.95	64.1234
15.968	64.1078
15.986	64.0824
16.004	64.0493
16.022	64.0107
16.04	63.9711
16.058	63.9339
16.076	63.9023
16.094	63.8803
16.112	63.8698
16.13	63.8715
16.148	63.8857
16.166	63.91
16.184	63.9422
16.202	63.9792
16.22	64.0161
16.238	64.0499
16.256	64.0775
16.274	64.0962
16.292	64.1054
16.31	64.105
16.328	64.0971
16.346	64.0846
16.364	64.0703
16.382	64.0597
16.4	64.0567
16.418	64.0644
16.436	64.0872
16.454	64.1261
16.472	64.1819
16.49	64.2535
16.508	64.3376
16.526	64.4317
16.544	64.5293
16.562	64.6253
16.58	64.7155
16.598	64.7928
16.616	64.8541
16.634	64.8964
16.652	64.9174
16.67	64.9177
16.688	64.8976
16.706	64.8609
16.724	64.8106
16.742	64.7503
16.76	64.6858
16.778	64.6196
16.796	64.5562
16.814	64.4984
16.832	64.4476
16.85	64.4051
16.868	64.3704
16.886	64.3434
16.904	64.3221
16.922	64.3054
16.94	64.2918
16.958	64.2797
16.976	64.2686
16.994	64.2574
17.012	64.2467
17.03	64.2366
17.048	64.2284
17.066	64.2228
17.084	64.221
17.102	64.2238
17.12	64.2314
17.138	64.2441
17.156	64.2615
17.174	64.2833
17.192	64.3079
17.21	64.3345
17.228	64.3611
17.246	64.3863
17.264	64.409
17.282	64.4275
17.3	64.4415
17.318	64.4501
17.336	64.4534
17.354	64.4512
17.372	64.4441
17.39	64.4324
17.408	64.417
17.426	64.3986
17.444	64.3776
17.462	64.3551
17.48	64.3312
17.498	64.3069
17.516	64.2827
17.534	64.2588
17.552	64.2362
17.57	64.215
17.588	64.1959
17.606	64.179
17.624	64.1647
17.642	64.1531
17.66	64.1442
17.678	64.138
17.696	64.1344
17.714	64.1329
17.732	64.1326
17.75	64.1329
17.768	64.1322
17.786	64.1301
17.804	64.1251
17.822	64.1171
17.84	64.1049
17.858	64.088
17.876	64.066
17.894	64.0385
17.912	64.0054
17.93	63.9671
17.948	63.9238
17.966	63.8761
17.984	63.8244
18.002	63.7696
18.02	63.7125
18.038	63.6535
18.056	63.5938
18.074	63.5336
18.092	63.4743
18.11	63.4162
18.128	63.3605
18.146	63.3078
18.164	63.2594
18.182	63.216
18.2	63.1787
18.218	63.1483
18.236	63.1256
18.254	63.1112
18.272	63.1054
18.29	63.1083
18.308	63.1198
18.326	63.1393
18.344	63.1664
18.362	63.1993
18.38	63.2373
18.398	63.2787
18.416	63.3223
18.434	63.3657
18.452	63.408
18.47	63.4482
18.488	63.4857
18.506	63.5199
18.524	63.5522
18.542	63.5827
18.56	63.6135
18.578	63.6449
18.596	63.6802
18.614	63.7197
18.632	63.767
18.65	63.8223
18.668	63.8879
18.686	63.9636
18.704	64.0501
18.722	64.1466
18.74	64.2512
18.758	64.3626
18.776	64.4768
18.794	64.5922
18.812	64.7034
18.83	64.8087
18.848	64.9031
18.866	64.9849
18.884	65.0496
18.902	65.0967
18.92	65.1229
18.938	65.1291
18.956	65.1142
18.974	65.0802
18.992	65.0281
19.01	64.9613
19.028	64.8833
19.046	64.7975
19.064	64.7092
19.082	64.6216
19.1	64.5412
19.118	64.4698
19.136	64.4134
19.154	64.3725
19.172	64.3516
19.19	64.3497
19.208	64.3679
19.226	64.4048
19.244	64.4582
19.262	64.5265
19.28	64.6031
19.298	64.6875
19.316	64.7707
19.334	64.8529
19.352	64.9238
19.37	64.9839
19.388	65.0247
19.406	65.0464
19.424	65.0433
19.442	65.0153
19.46	64.9601
19.478	64.8769
19.496	64.7678
19.514	64.6323
19.532	64.4747
19.55	64.2954
19.568	64.0997
19.586	63.8921
19.604	63.6758
19.622	63.4587
19.64	63.2418
19.658	63.0361
19.676	62.8406
19.694	62.6668
19.712	62.5133
19.73	62.3887
19.748	62.293
19.766	62.23
19.784	62.2013
19.802	62.2054
19.82	62.2435
19.838	62.3121
19.856	62.4081
19.874	62.5296
19.892	62.6677
19.91	62.8231
19.928	62.9831
19.946	63.1494
19.964	63.3093
19.982	63.4623
20	63.6005
20.018	63.7191
20.036	63.8169
20.054	63.8875
20.072	63.9326
20.09	63.9496
20.108	63.9388
20.126	63.9034
20.144	63.8423
20.162	63.7617
20.18	63.6626
20.198	63.5493
20.216	63.4278
20.234	63.2982
20.252	63.1694
20.27	63.0398
20.288	62.9169
20.306	62.8011
20.324	62.6952
20.342	62.6019
20.36	62.5205
20.378	62.453
20.396	62.3989
20.414	62.3573
20.432	62.3286
20.45	62.3111
20.468	62.3044
20.486	62.3076
20.504	62.319
20.522	62.339
20.54	62.3655
20.558	62.3987
20.576	62.4379
20.594	62.4828
20.612	62.5333
20.63	62.5888
20.648	62.6495
20.666	62.7151
20.684	62.7859
20.702	62.8611
20.72	62.9407
20.738	63.0242
20.756	63.1104
20.774	63.1999
20.792	63.2901
20.81	63.3811
20.828	63.4713
20.846	63.5586
20.864	63.6434
20.882	63.722
20.9	63.7951
20.918	63.8605
20.936	63.9164
20.954	63.9634
20.972	63.9996
20.99	64.0255
21.008	64.0404
21.026	64.0439
21.044	64.0366
21.062	64.0186
21.08	63.9897
21.098	63.9515
21.116	63.904
21.134	63.8481
21.152	63.7858
21.17	63.7164
21.188	63.6428
21.206	63.565
21.224	63.4841
21.242	63.4025
21.26	63.3194
21.278	63.2374
21.296	63.1568
21.314	63.0784
21.332	63.0042
21.35	62.9336
21.368	62.8683
21.386	62.8085
21.404	62.7546
21.422	62.7078
21.44	62.6679
21.458	62.6352
21.476	62.61
21.494	62.5923
21.512	62.5824
21.53	62.5802
21.548	62.5857
21.566	62.5991
21.584	62.6202
21.602	62.649
21.62	62.6855
21.638	62.7296
21.656	62.781
21.674	62.84
21.692	62.9054
21.71	62.9773
21.728	63.0552
21.746	63.1368
21.764	63.2233
21.782	63.312
21.8	63.4013
21.818	63.4918
21.836	63.579
21.854	63.6634
21.872	63.7433
21.89	63.8149
21.908	63.8796
21.926	63.9347
21.944	63.978
21.962	64.0107
21.98	64.0307
21.998	64.0377
22.016	64.0323
22.034	64.0144
22.052	63.9834
22.07	63.9418
22.088	63.8907
22.106	63.8294
22.124	63.7628
22.142	63.6911
22.16	63.6152
22.178	63.5409
22.196	63.4667
22.214	63.3955
22.232	63.3318
22.25	63.2735
22.268	63.2245
22.286	63.187
22.304	63.1598
22.322	63.1453
22.34	63.1443
22.358	63.1562
22.376	63.1811
22.394	63.2197
22.412	63.2706
22.43	63.3321
22.448	63.4055
22.466	63.4879
22.484	63.5776
22.502	63.6757
22.52	63.7784
22.538	63.8846
22.556	63.9948
22.574	64.1053
22.592	64.2157
22.61	64.326
22.628	64.4328
22.646	64.5368
22.664	64.637
22.682	64.7309
22.7	64.8194
22.718	64.9013
22.736	64.975
22.754	65.0414
22.772	65.0993
22.79	65.1476
22.808	65.187
22.826	65.2168
22.844	65.2366
22.862	65.2466
22.88	65.2473
22.898	65.2383
22.916	65.2199
22.934	65.1933
22.952	65.1582
22.97	65.1149
22.988	65.0663
23.006	65.0126
23.024	64.9537
23.042	64.8929
23.06	64.8302
23.078	64.7656
23.096	64.7022
23.114	64.6399
23.132	64.5788
23.15	64.5204
23.168	64.4648
23.186	64.4119
23.204	64.3631
23.222	64.3188
23.24	64.2783
23.258	64.2411
23.276	64.2078
23.294	64.1775
23.312	64.1479
23.33	64.12
23.348	64.0927
23.366	64.0629
23.384	64.0312
23.402	63.9971
23.42	63.9577
23.438	63.913
23.456	63.8632
23.474	63.8064
23.492	63.742
23.51	63.6706
23.528	63.5922
23.546	63.5064
23.564	63.4135
23.582	63.3151
23.6	63.2113
23.618	63.1018
23.636	62.9891
23.654	62.8739
23.672	62.7552
23.69	62.6364
23.708	62.5197
23.726	62.403
23.744	62.2901
23.762	62.184
23.78	62.0826
23.798	61.9883
23.816	61.9039
23.834	61.8283
23.852	61.7621
23.87	61.7067
23.888	61.662
23.906	61.6277
23.924	61.604
23.942	61.5913
23.96	61.5891
23.978	61.5961
23.996	61.6122
24.014	61.6379
24.032	61.6705
24.05	61.7086
24.068	61.7539
24.086	61.8034
24.104	61.8545
24.122	61.9094
24.14	61.9654
24.158	62.0187
24.176	62.0705
24.194	62.1201
24.212	62.1643
24.23	62.2027
24.248	62.2361
24.266	62.2619
24.284	62.2785
24.302	62.2868
24.32	62.2871
24.338	62.2795
24.356	62.2632
24.374	62.2397
24.392	62.2104
24.41	62.1735
24.428	62.1305
24.446	62.0866
24.464	62.0428
24.482	61.9965
24.5	61.9546
24.518	61.9222
24.536	61.8939
24.554	61.8759
24.572	61.8766
24.59	61.8932
24.608	61.9264
24.626	61.9844
24.644	62.0708
24.662	62.181
24.68	62.3204
24.698	62.4939
24.716	62.6991
24.734	62.9365
24.752	63.2078
24.77	63.5151
24.788	63.8564
24.806	64.2279
24.824	64.6276
24.842	65.0594
24.86	65.5164
24.878	65.9907
24.896	66.4883
24.914	67.0052
24.932	67.5277
24.95	68.0502
24.968	68.582
24.986	69.1083
25.004	69.6138
25.022	70.1081
25.04	70.5858
25.058	71.0297
25.076	71.4327
25.094	71.8051
25.112	72.1346
25.13	72.4088
25.148	72.634
25.166	72.8083
25.184	72.9223
25.202	72.9713
25.22	72.9608
25.238	72.8878
25.256	72.7492
25.274	72.5436
25.292	72.2743
25.31	71.945
25.328	71.5562
25.346	71.1043
25.364	70.5981
25.382	70.0473
25.4	69.4456
25.418	68.7954
25.436	68.113
25.454	67.4095
25.472	66.67
25.49	65.9099
25.508	65.1503
25.526	64.3949
25.544	63.6336
25.562	62.8817
25.58	62.1538
25.598	61.4428
25.616	60.7497
25.634	60.0839
25.652	59.4498
25.67	58.8396
25.688	58.262
25.706	57.7279
25.724	57.2373
25.742	56.786
25.76	56.3811
25.778	56.029
25.796	55.7199
25.814	55.461
25.832	55.2675
25.85	55.1482
25.868	55.0901
25.886	55.1045
25.904	55.2063
25.922	55.413
25.94	55.7173
25.958	56.0874
25.976	56.4919
25.994	56.9515
26.012	57.4617
26.03	57.981
26.048	58.4733
26.066	58.9644
26.084	59.446
26.102	59.8934
26.12	60.2893
26.138	60.649
26.156	60.9686
26.174	61.2403
26.192	61.4396
26.21	61.5603
26.228	61.6686
26.246	61.832
26.264	62.0421
26.282	62.2725
26.3	62.5821
26.318	63.0289
26.336	63.6115
26.354	64.3072
26.372	65.1154
26.39	66.0376
26.408	67.098
26.426	68.2707
26.444	69.5117
26.462	70.7965
26.48	72.2291
26.498	73.7009
26.516	75.0491
26.534	76.1575
26.552	77.1618
26.57	77.9881
26.588	78.5159
26.606	78.6545
26.624	78.4676
26.642	77.9722
26.66	77.1724
26.678	76.0508
26.696	74.572
26.714	72.8221
26.732	70.8961
26.75	68.7859
26.768	66.3439
26.786	63.826
26.804	61.5149
26.822	59.5433
26.84	57.6908
26.858	56.0984
26.876	54.935
26.894	54.3193
26.912	54.1651
26.93	54.4147
26.948	55.0177
26.966	56.0747
26.984	57.8113
27.002	59.7266
27.02	61.2733
27.028	61.6596