File: Bakgrunnsmateriale/MATLAB/FTIR/ftir_data/subAa/Mapping_121/BZ1503107-1_t76.asc
PE IR       SPECTRUM    SPECTRUM    ASCII       PEDS        1.60
  -1
BZ216F~1.ASC
17/04/07
19:29:37.00
17/04/07
19:30:03.00
tln
$BZ1503107-1_t0076$<tbV0>[-10.4,2.6,8.0,0.0,27,1,0]
27.028
64

2002,4.07
MIRTGS : RIGHTBACK : INTERNAL 2
MIR : ON : INTERNAL 2
OPTKBR

0.200000
8
8.000000
FILLER
RATIO
SPECTRUM
UNLOCKED 256

DOUBLE
64
COMBINED
1
0
0

0.002000
RATIO

1
0
TRUE
51149
0
LEFT NOT FITTED RIGHT NOT FITTED 0
NONE
NONE
15600
12
4.427000
51148
TRUE
1 0 8 72 0 0 0 0

15798

#HDR
-1
-1
#GR
µM
%T
2.38419e-05
0.0
2.000000
0.002000
12515
8
95.0537
47.269
#DATA
2.000000	 64.4641
2.018000	 64.5744
2.036000	 65.071
2.054000	 64.7329
2.072000	 65.0055
2.090000	 64.6819
2.108000	 64.609
2.126000	 64.4745
2.144000	 64.7364
2.162000	 64.9483
2.180000	 64.7091
2.198000	 64.7339
2.216000	 64.6068
2.234000	 64.1885
2.252000	 65.2265
2.270000	 66.0688
2.288000	 64.3339
2.306000	 65.0556
2.324000	 64.5785
2.342000	 65.0124
2.360000	 65.1164
2.378000	 64.7308
2.396000	 64.8104
2.414000	 64.6723
2.432000	 64.89
2.450000	 64.9326
2.468000	 64.6807
2.486000	 64.9355
2.504000	 65.0419
2.522000	 64.9287
2.540000	 64.6366
2.558000	 65.0796
2.576000	 64.961
2.594000	 64.924
2.612000	 64.7426
2.630000	 65.0156
2.648000	 65.0437
2.666000	 64.8222
2.684000	 65.0444
2.702000	 65.1226
2.720000	 64.9402
2.738000	 65.052
2.756000	 64.7987
2.774000	 65.0676
2.792000	 64.8406
2.810000	 64.9741
2.828000	 65.0547
2.846000	 65.1175
2.864000	 65.034
2.882000	 64.924
2.900000	 65.1013
2.918000	 64.9349
2.936000	 64.8355
2.954000	 64.8924
2.972000	 64.9846
2.990000	 64.889
3.008000	 65.0348
3.026000	 64.9872
3.044000	 64.7661
3.062000	 64.8787
3.080000	 64.9506
3.098000	 64.9317
3.116000	 64.8221
3.134000	 65.1407
3.152000	 64.8499
3.170000	 65.0115
3.188000	 64.8481
3.206000	 64.9909
3.224000	 64.9644
3.242000	 64.7458
3.260000	 64.985
3.278000	 64.9312
3.296000	 64.7427
3.314000	 64.981
3.332000	 64.8801
3.350000	 64.8616
3.368000	 64.7349
3.386000	 64.6283
3.404000	 64.5864
3.422000	 64.7627
3.440000	 64.8798
3.458000	 64.7168
3.476000	 64.796
3.494000	 64.8051
3.512000	 64.7578
3.530000	 64.7755
3.548000	 64.9356
3.566000	 64.868
3.584000	 64.8452
3.602000	 64.8733
3.620000	 64.913
3.638000	 64.8626
3.656000	 64.9997
3.674000	 64.8968
3.692000	 64.868
3.710000	 64.8108
3.728000	 64.8403
3.746000	 64.8462
3.764000	 64.8171
3.782000	 64.634
3.800000	 64.8359
3.818000	 64.8003
3.836000	 64.7347
3.854000	 64.783
3.872000	 64.7357
3.890000	 64.6747
3.908000	 64.6646
3.926000	 64.684
3.944000	 64.7656
3.962000	 64.8258
3.980000	 64.6534
3.998000	 64.8016
4.016000	 64.781
4.034000	 64.7578
4.052000	 64.6915
4.070000	 64.6673
4.088000	 64.7021
4.106000	 64.572
4.124000	 64.7009
4.141999	 64.7022
4.160000	 64.6959
4.178000	 64.5646
4.196000	 64.5427
4.214000	 64.6782
4.232000	 64.5346
4.250000	 64.6556
4.268000	 64.6031
4.286000	 64.7691
4.304000	 64.6338
4.322000	 64.5797
4.340000	 64.646
4.358000	 64.5428
4.375999	 64.497
4.394000	 64.5497
4.412000	 64.6611
4.430000	 64.6354
4.448000	 64.6571
4.466000	 64.5444
4.484000	 64.5822
4.502000	 64.5532
4.520000	 64.5478
4.538000	 64.5136
4.556000	 64.4975
4.574000	 64.505
4.592000	 64.5578
4.609999	 64.4685
4.628000	 64.4642
4.646000	 64.4204
4.664000	 64.4646
4.682000	 64.4603
4.700000	 64.5085
4.718000	 64.5537
4.736000	 64.4948
4.754000	 64.5164
4.772000	 64.442
4.790000	 64.4272
4.808000	 64.3523
4.826000	 64.3691
4.843999	 64.3106
4.862000	 64.326
4.880000	 64.3512
4.898000	 64.3552
4.916000	 64.4328
4.934000	 64.4149
4.952000	 64.4662
4.970000	 64.4381
4.988000	 64.3775
5.006000	 64.3455
5.024000	 64.2808
5.042000	 64.4536
5.060000	 64.4337
5.077999	 64.4058
5.096000	 64.4134
5.114000	 64.4267
5.132000	 64.3977
5.150000	 64.3191
5.168000	 64.2856
5.186000	 64.32
5.204000	 64.3271
5.222000	 64.3804
5.240000	 64.3413
5.258000	 64.2804
5.276000	 64.284
5.294000	 64.3615
5.312000	 64.3463
5.330000	 64.2459
5.348000	 64.2383
5.366000	 64.2744
5.384000	 64.3111
5.402000	 64.3764
5.420000	 64.294
5.438000	 64.2415
5.456000	 64.2581
5.474000	 64.1812
5.492000	 64.1695
5.510000	 64.2822
5.528000	 64.2572
5.546000	 64.2206
5.564000	 64.192
5.582000	 64.136
5.600000	 64.1328
5.618000	 64.1677
5.636000	 64.187
5.654000	 64.1889
5.672000	 64.2387
5.690000	 64.2347
5.708000	 64.0211
5.726000	 63.929
5.744000	 63.8956
5.762000	 63.8377
5.780000	 63.9103
5.798000	 63.909
5.816000	 63.9111
5.834000	 64.0199
5.852000	 64.0235
5.870000	 63.9551
5.888000	 64.0443
5.906000	 64.1059
5.923999	 64.0411
5.942000	 64.0195
5.960000	 64.0891
5.978000	 64.0513
5.996000	 64.0137
6.014000	 63.9917
6.032000	 63.9607
6.050000	 63.9235
6.068000	 63.9535
6.086000	 64.0363
6.104000	 64.0473
6.122000	 64.015
6.140000	 64.0271
6.158000	 64.0246
6.176000	 64.0087
6.194000	 64.0212
6.212000	 63.9408
6.230000	 63.8794
6.248000	 63.9678
6.266000	 64.0112
6.284000	 63.9775
6.302000	 64.0194
6.320000	 64.0159
6.338000	 63.9153
6.356000	 63.9004
6.374000	 63.8854
6.392000	 63.835
6.410000	 63.8922
6.428000	 63.9585
6.446000	 63.9489
6.464000	 63.9585
6.482000	 64.0457
6.500000	 64.0718
6.518000	 64.008
6.536000	 63.9843
6.554000	 63.9955
6.572000	 64.0204
6.590000	 64.0478
6.608000	 64.0556
6.626000	 64.0123
6.644000	 63.9542
6.662000	 63.8698
6.680000	 63.7845
6.698000	 63.8805
6.716000	 63.9983
6.734000	 63.981
6.752000	 63.9276
6.770000	 63.8568
6.788000	 63.7828
6.806000	 63.7356
6.824000	 63.7169
6.842000	 63.7846
6.860000	 63.913
6.878000	 63.9674
6.896000	 63.9418
6.914000	 63.9121
6.932000	 63.8772
6.950000	 63.8285
6.968000	 63.8273
6.986000	 63.8989
7.004000	 63.972
7.022000	 64.0014
7.040000	 63.9725
7.058000	 63.8777
7.076000	 63.7657
7.094000	 63.6849
7.112000	 63.6475
7.130000	 63.6665
7.148000	 63.7464
7.166000	 63.8423
7.184000	 63.8556
7.202000	 63.7642
7.220000	 63.6898
7.238000	 63.701
7.256000	 63.7348
7.274000	 63.7498
7.292000	 63.7381
7.310000	 63.701
7.328000	 63.6795
7.346000	 63.6903
7.364000	 63.6993
7.382000	 63.694
7.400000	 63.6893
7.418000	 63.6913
7.436000	 63.694
7.454000	 63.7066
7.472000	 63.7418
7.490000	 63.7746
7.508000	 63.7699
7.526000	 63.7454
7.544000	 63.744
7.562000	 63.7582
7.580000	 63.7429
7.598000	 63.7058
7.616000	 63.7046
7.634000	 63.7257
7.652000	 63.6971
7.670000	 63.6366
7.688000	 63.6279
7.706000	 63.6699
7.724000	 63.701
7.742000	 63.6965
7.760000	 63.6482
7.778000	 63.5594
7.796000	 63.4893
7.814000	 63.4883
7.832000	 63.5197
7.850000	 63.5306
7.868000	 63.5278
7.886000	 63.5305
7.904000	 63.5358
7.922000	 63.5371
7.940000	 63.5323
7.958000	 63.5293
7.976000	 63.5354
7.994000	 63.5411
8.012000	 63.5407
8.030000	 63.5481
8.048000	 63.5665
8.065999	 63.5732
8.084000	 63.5587
8.102000	 63.5408
8.120000	 63.5311
8.138000	 63.5251
8.155999	 63.5198
8.173999	 63.509
8.192000	 63.4801
8.210000	 63.4402
8.228000	 63.4215
8.246000	 63.4385
8.263999	 63.4673
8.282000	 63.4827
8.300000	 63.4891
8.318000	 63.5044
8.336000	 63.5356
8.353999	 63.5609
8.372000	 63.5403
8.390000	 63.4639
8.408000	 63.3775
8.426000	 63.3375
8.443999	 63.3486
8.462000	 63.3704
8.480000	 63.3778
8.498000	 63.3832
8.516000	 63.4037
8.533999	 63.4321
8.552000	 63.4441
8.570000	 63.4282
8.588000	 63.3988
8.606000	 63.3807
8.624000	 63.388
8.641999	 63.4191
8.660000	 63.4591
8.678000	 63.486
8.696000	 63.4829
8.714000	 63.4543
8.731999	 63.4256
8.750000	 63.4194
8.768000	 63.4343
8.786000	 63.451
8.804000	 63.4588
8.821999	 63.463
8.840000	 63.4649
8.858000	 63.4578
8.876000	 63.4454
8.894000	 63.438
8.911999	 63.4308
8.930000	 63.4071
8.948000	 63.3609
8.966000	 63.3035
8.984000	 63.256
9.001999	 63.2367
9.020000	 63.2489
9.038000	 63.278
9.056000	 63.3043
9.074000	 63.3187
9.092000	 63.3267
9.109999	 63.3419
9.128000	 63.3729
9.146000	 63.4166
9.164000	 63.4608
9.182000	 63.4937
9.199999	 63.5088
9.218000	 63.5038
9.236000	 63.4796
9.254000	 63.4426
9.272000	 63.4044
9.289999	 63.3767
9.308000	 63.3649
9.326000	 63.3645
9.344000	 63.3655
9.362000	 63.3589
9.379999	 63.3436
9.398000	 63.3253
9.416000	 63.3117
9.434000	 63.3077
9.452000	 63.314
9.469999	 63.3294
9.488000	 63.3528
9.506000	 63.3792
9.524000	 63.3986
9.542000	 63.4
9.560000	 63.3805
9.577999	 63.3466
9.596000	 63.3086
9.614000	 63.2752
9.632000	 63.2541
9.650000	 63.2525
9.667999	 63.272
9.686000	 63.3003
9.704000	 63.3122
9.722000	 63.285
9.740000	 63.2193
9.757999	 63.1447
9.776000	 63.1002
9.794000	 63.1051
9.812000	 63.1437
9.830000	 63.1826
9.847999	 63.2027
9.866000	 63.2166
9.884000	 63.2546
9.902000	 63.3325
9.920000	 63.4312
9.937999	 63.508
9.956000	 63.5309
9.974000	 63.5017
9.992000	 63.4495
10.01	63.4074
10.028	63.3903
10.046	63.3906
10.064	63.3906
10.082	63.3773
10.1	63.3496
10.118	63.3172
10.136	63.293
10.154	63.2864
10.172	63.2985
10.19	63.3206
10.208	63.3396
10.226	63.3476
10.244	63.3462
10.262	63.3442
10.28	63.3492
10.298	63.3625
10.316	63.3784
10.334	63.389
10.352	63.3887
10.37	63.3775
10.388	63.3602
10.406	63.344
10.424	63.3345
10.442	63.3336
10.46	63.3373
10.478	63.3379
10.496	63.3297
10.514	63.3135
10.532	63.2986
10.55	63.2966
10.568	63.3129
10.586	63.3414
10.604	63.3678
10.622	63.3762
10.64	63.3602
10.658	63.3255
10.676	63.2883
10.694	63.2653
10.712	63.2672
10.73	63.2923
10.748	63.3307
10.766	63.3691
10.784	63.398
10.802	63.4149
10.82	63.423
10.838	63.4297
10.856	63.4416
10.874	63.4633
10.892	63.4934
10.91	63.5252
10.928	63.5483
10.946	63.5519
10.964	63.5303
10.982	63.4866
11	63.4331
11.018	63.3874
11.036	63.3618
11.054	63.3595
11.072	63.373
11.09	63.3893
11.108	63.3994
11.126	63.4022
11.144	63.4038
11.162	63.4118
11.18	63.4296
11.198	63.4533
11.216	63.4745
11.234	63.4852
11.252	63.4822
11.27	63.4685
11.288	63.4514
11.306	63.4374
11.324	63.4307
11.342	63.433
11.36	63.4447
11.378	63.4663
11.396	63.4979
11.414	63.5389
11.432	63.5842
11.45	63.6255
11.468	63.6512
11.486	63.6518
11.504	63.6224
11.522	63.5661
11.54	63.4931
11.558	63.4175
11.576	63.3533
11.594	63.3086
11.612	63.2846
11.63	63.2757
11.648	63.2739
11.666	63.2715
11.684	63.2663
11.702	63.2618
11.72	63.2661
11.738	63.2866
11.756	63.3258
11.774	63.3801
11.792	63.4396
11.81	63.4919
11.828	63.5259
11.846	63.5344
11.864	63.5158
11.882	63.4735
11.9	63.4142
11.918	63.346
11.936	63.2757
11.954	63.2085
11.972	63.1484
11.99	63.0984
12.008	63.0608
12.026	63.0383
12.044	63.0337
12.062	63.0497
12.08	63.0873
12.098	63.1449
12.116	63.2176
12.134	63.2969
12.152	63.3723
12.17	63.4339
12.188	63.4741
12.206	63.4897
12.224	63.4818
12.242	63.4544
12.26	63.413
12.278	63.3632
12.296	63.3096
12.314	63.2554
12.332	63.2031
12.35	63.154
12.368	63.1092
12.386	63.0696
12.404	63.0361
12.422	63.0091
12.44	62.9888
12.458	62.975
12.476	62.967
12.494	62.9633
12.512	62.9623
12.53	62.9629
12.548	62.9641
12.566	62.9658
12.584	62.9686
12.602	62.9741
12.62	62.9837
12.638	62.9984
12.656	63.0184
12.674	63.0428
12.692	63.07
12.71	63.0977
12.728	63.1246
12.746	63.1503
12.764	63.1753
12.782	63.2008
12.8	63.2282
12.818	63.2578
12.836	63.2887
12.854	63.3181
12.872	63.3422
12.89	63.3565
12.908	63.3577
12.926	63.3437
12.944	63.3149
12.962	63.2736
12.98	63.2235
12.998	63.1691
13.016	63.115
13.034	63.0656
13.052	63.0239
13.07	62.9919
13.088	62.9706
13.106	62.96
13.124	62.9588
13.142	62.9656
13.16	62.9791
13.178	62.9987
13.196	63.024
13.214	63.0543
13.232	63.0885
13.25	63.1243
13.268	63.1582
13.286	63.1857
13.304	63.2019
13.322	63.2029
13.34	63.1864
13.358	63.1529
13.376	63.1059
13.394	63.0513
13.412	62.9965
13.43	62.9492
13.448	62.9152
13.466	62.8978
13.484	62.8968
13.502	62.9087
13.52	62.9268
13.538	62.943
13.556	62.9492
13.574	62.9386
13.592	62.9077
13.61	62.8566
13.628	62.7895
13.646	62.7141
13.664	62.6405
13.682	62.5791
13.7	62.539
13.718	62.5263
13.736	62.5427
13.754	62.5851
13.772	62.6467
13.79	62.7177
13.808	62.7884
13.826	62.8497
13.844	62.8966
13.862	62.9273
13.88	62.9447
13.898	62.9542
13.916	62.9625
13.934	62.9756
13.952	62.997
13.97	63.027
13.988	63.0621
14.006	63.0961
14.024	63.1211
14.042	63.1299
14.06	63.1183
14.078	63.085
14.096	63.0328
14.114	62.9674
14.132	62.8971
14.15	62.8302
14.168	62.7742
14.186	62.7344
14.204	62.7132
14.222	62.7099
14.24	62.7212
14.258	62.7428
14.276	62.77
14.294	62.799
14.312	62.8272
14.33	62.8536
14.348	62.8787
14.366	62.9032
14.384	62.9282
14.402	62.9538
14.42	62.9794
14.438	63.0034
14.456	63.0237
14.474	63.0383
14.492	63.0457
14.51	63.0456
14.528	63.0389
14.546	63.0282
14.564	63.0171
14.582	63.0098
14.6	63.0098
14.618	63.0205
14.636	63.0441
14.654	63.0812
14.672	63.1315
14.69	63.1931
14.708	63.2634
14.726	63.3395
14.744	63.417
14.762	63.492
14.78	63.5601
14.798	63.617
14.816	63.658
14.834	63.679
14.852	63.6762
14.87	63.6485
14.888	63.5967
14.906	63.5241
14.924	63.4362
14.942	63.3419
14.96	63.251
14.978	63.1738
14.996	63.119
15.014	63.0937
15.032	63.1018
15.05	63.141
15.068	63.2054
15.086	63.2859
15.104	63.3709
15.122	63.4456
15.14	63.4979
15.158	63.5191
15.176	63.5037
15.194	63.45
15.212	63.3629
15.23	63.2508
15.248	63.1238
15.266	62.9932
15.284	62.872
15.302	62.7702
15.32	62.6939
15.338	62.6472
15.356	62.631
15.374	62.6426
15.392	62.6771
15.41	62.7285
15.428	62.7902
15.446	62.8533
15.464	62.9113
15.482	62.9586
15.5	62.9898
15.518	63.0003
15.536	62.9884
15.554	62.953
15.572	62.894
15.59	62.814
15.608	62.7163
15.626	62.6051
15.644	62.4863
15.662	62.3681
15.68	62.2571
15.698	62.1595
15.716	62.0822
15.734	62.0295
15.752	62.0035
15.77	62.0059
15.788	62.0348
15.806	62.0865
15.824	62.157
15.842	62.2403
15.86	62.3292
15.878	62.419
15.896	62.5053
15.914	62.5846
15.932	62.6557
15.95	62.7183
15.968	62.7732
15.986	62.8234
16.004	62.8709
16.022	62.9184
16.04	62.9687
16.058	63.0224
16.076	63.0798
16.094	63.1399
16.112	63.1997
16.13	63.2569
16.148	63.308
16.166	63.3493
16.184	63.379
16.202	63.3949
16.22	63.3972
16.238	63.3871
16.256	63.3662
16.274	63.3398
16.292	63.3125
16.31	63.2885
16.328	63.275
16.346	63.2764
16.364	63.2962
16.382	63.3384
16.4	63.4029
16.418	63.4899
16.436	63.5964
16.454	63.7178
16.472	63.8501
16.49	63.9849
16.508	64.1148
16.526	64.2341
16.544	64.3331
16.562	64.4068
16.58	64.4507
16.598	64.4602
16.616	64.4352
16.634	64.3752
16.652	64.2836
16.67	64.1646
16.688	64.0223
16.706	63.8662
16.724	63.7013
16.742	63.5352
16.76	63.3764
16.778	63.2287
16.796	63.0984
16.814	62.9885
16.832	62.9008
16.85	62.8361
16.868	62.793
16.886	62.7704
16.904	62.7644
16.922	62.7725
16.94	62.7914
16.958	62.8173
16.976	62.8485
16.994	62.8813
17.012	62.9146
17.03	62.9474
17.048	62.9786
17.066	63.0083
17.084	63.0366
17.102	63.0632
17.12	63.0882
17.138	63.1115
17.156	63.1328
17.174	63.1518
17.192	63.1676
17.21	63.1799
17.228	63.1875
17.246	63.1898
17.264	63.1865
17.282	63.177
17.3	63.1615
17.318	63.1401
17.336	63.1137
17.354	63.083
17.372	63.0497
17.39	63.0148
17.408	62.9802
17.426	62.9474
17.444	62.9177
17.462	62.8929
17.48	62.8736
17.498	62.8614
17.516	62.8566
17.534	62.8596
17.552	62.8704
17.57	62.8889
17.588	62.9143
17.606	62.9457
17.624	62.9819
17.642	63.0213
17.66	63.063
17.678	63.1047
17.696	63.1459
17.714	63.1846
17.732	63.2204
17.75	63.252
17.768	63.279
17.786	63.301
17.804	63.3183
17.822	63.3308
17.84	63.3391
17.858	63.3433
17.876	63.3438
17.894	63.3407
17.912	63.3341
17.93	63.324
17.948	63.3101
17.966	63.2924
17.984	63.2709
18.002	63.2454
18.02	63.2163
18.038	63.1839
18.056	63.1494
18.074	63.1129
18.092	63.0772
18.11	63.0426
18.128	63.0127
18.146	62.988
18.164	62.9717
18.182	62.9647
18.2	62.9687
18.218	62.9842
18.236	63.0118
18.254	63.0503
18.272	63.0997
18.29	63.1564
18.308	63.22
18.326	63.2855
18.344	63.352
18.362	63.4143
18.38	63.4714
18.398	63.5188
18.416	63.5559
18.434	63.5799
18.452	63.591
18.47	63.588
18.488	63.5726
18.506	63.5447
18.524	63.5075
18.542	63.4614
18.56	63.4106
18.578	63.3556
18.596	63.3005
18.614	63.2458
18.632	63.1951
18.65	63.1485
18.668	63.1081
18.686	63.074
18.704	63.047
18.722	63.0268
18.74	63.013
18.758	63.0052
18.776	63.0026
18.794	63.0047
18.812	63.01
18.83	63.0181
18.848	63.028
18.866	63.0389
18.884	63.0497
18.902	63.0596
18.92	63.0675
18.938	63.0726
18.956	63.0737
18.974	63.0704
18.992	63.0613
19.01	63.0464
19.028	63.0248
19.046	62.9968
19.064	62.962
19.082	62.9213
19.1	62.8753
19.118	62.8251
19.136	62.7724
19.154	62.718
19.172	62.6643
19.19	62.6118
19.208	62.5632
19.226	62.5184
19.244	62.4796
19.262	62.4464
19.28	62.4197
19.298	62.3992
19.316	62.3844
19.334	62.3749
19.352	62.3689
19.37	62.3663
19.388	62.3644
19.406	62.3632
19.424	62.3599
19.442	62.3546
19.46	62.3453
19.478	62.3318
19.496	62.3135
19.514	62.29
19.532	62.2618
19.55	62.2288
19.568	62.192
19.586	62.1524
19.604	62.1108
19.622	62.0689
19.64	62.0271
19.658	61.988
19.676	61.9515
19.694	61.9199
19.712	61.8929
19.73	61.8723
19.748	61.8582
19.766	61.8508
19.784	61.8503
19.802	61.8564
19.82	61.8691
19.838	61.8878
19.856	61.9118
19.874	61.9409
19.892	61.9738
19.91	62.0106
19.928	62.0498
19.946	62.0915
19.964	62.1344
19.982	62.1784
20	62.223
20.018	62.2678
20.036	62.3125
20.054	62.3569
20.072	62.4009
20.09	62.4442
20.108	62.4868
20.126	62.5286
20.144	62.5695
20.162	62.6094
20.18	62.6482
20.198	62.6855
20.216	62.7208
20.234	62.7542
20.252	62.7842
20.27	62.8111
20.288	62.8336
20.306	62.8519
20.324	62.865
20.342	62.8723
20.36	62.874
20.378	62.8695
20.396	62.859
20.414	62.8426
20.432	62.8202
20.45	62.7929
20.468	62.7611
20.486	62.7255
20.504	62.6877
20.522	62.6474
20.54	62.6071
20.558	62.5663
20.576	62.5268
20.594	62.4894
20.612	62.4542
20.63	62.4224
20.648	62.3937
20.666	62.3688
20.684	62.3478
20.702	62.3305
20.72	62.3171
20.738	62.3073
20.756	62.3008
20.774	62.2977
20.792	62.2973
20.81	62.2997
20.828	62.3045
20.846	62.3113
20.864	62.3201
20.882	62.3304
20.9	62.3422
20.918	62.3551
20.936	62.369
20.954	62.3838
20.972	62.3991
20.99	62.4151
21.008	62.4314
21.026	62.4481
21.044	62.4652
21.062	62.4826
21.08	62.5002
21.098	62.5183
21.116	62.5367
21.134	62.5557
21.152	62.5755
21.17	62.596
21.188	62.6177
21.206	62.6406
21.224	62.6648
21.242	62.6907
21.26	62.7181
21.278	62.7474
21.296	62.7786
21.314	62.8116
21.332	62.8465
21.35	62.8832
21.368	62.9215
21.386	62.9614
21.404	63.0026
21.422	63.0444
21.44	63.0872
21.458	63.1297
21.476	63.1719
21.494	63.2134
21.512	63.2528
21.53	63.2905
21.548	63.3253
21.566	63.3567
21.584	63.3848
21.602	63.4081
21.62	63.4267
21.638	63.4402
21.656	63.4478
21.674	63.4498
21.692	63.4456
21.71	63.4349
21.728	63.4179
21.746	63.3943
21.764	63.364
21.782	63.3276
21.8	63.285
21.818	63.2364
21.836	63.183
21.854	63.1245
21.872	63.0618
21.89	62.9966
21.908	62.9282
21.926	62.8585
21.944	62.7889
21.962	62.7187
21.98	62.6509
21.998	62.5852
22.016	62.5227
22.034	62.4657
22.052	62.4136
22.07	62.3678
22.088	62.3297
22.106	62.2987
22.124	62.2757
22.142	62.2613
22.16	62.2551
22.178	62.2567
22.196	62.2668
22.214	62.2841
22.232	62.3075
22.25	62.3377
22.268	62.3727
22.286	62.4115
22.304	62.4547
22.322	62.4998
22.34	62.5466
22.358	62.5949
22.376	62.643
22.394	62.691
22.412	62.7387
22.43	62.7852
22.448	62.8305
22.466	62.8748
22.484	62.918
22.502	62.96
22.52	63.0015
22.538	63.0426
22.556	63.0832
22.574	63.1238
22.592	63.1647
22.61	63.2056
22.628	63.2465
22.646	63.2877
22.664	63.3285
22.682	63.3683
22.7	63.4076
22.718	63.4452
22.736	63.4796
22.754	63.5118
22.772	63.5398
22.79	63.5618
22.808	63.5789
22.826	63.589
22.844	63.5908
22.862	63.585
22.88	63.5705
22.898	63.5461
22.916	63.5126
22.934	63.4704
22.952	63.4191
22.97	63.359
22.988	63.2927
23.006	63.2199
23.024	63.1409
23.042	63.0605
23.06	62.9779
23.078	62.894
23.096	62.8145
23.114	62.7387
23.132	62.6675
23.15	62.6063
23.168	62.5546
23.186	62.5127
23.204	62.4849
23.222	62.4711
23.24	62.4709
23.258	62.4858
23.276	62.5165
23.294	62.5617
23.312	62.62
23.33	62.6926
23.348	62.7778
23.366	62.8712
23.384	62.9741
23.402	63.0852
23.42	63.1981
23.438	63.3137
23.456	63.4313
23.474	63.5444
23.492	63.6526
23.51	63.7566
23.528	63.8508
23.546	63.9339
23.564	64.0073
23.582	64.068
23.6	64.1145
23.618	64.148
23.636	64.1681
23.654	64.1741
23.672	64.166
23.69	64.1466
23.708	64.1172
23.726	64.076
23.744	64.0276
23.762	63.9758
23.78	63.9175
23.798	63.8569
23.816	63.799
23.834	63.7411
23.852	63.6857
23.87	63.6369
23.888	63.5939
23.906	63.5568
23.924	63.5275
23.942	63.5068
23.96	63.4938
23.978	63.4874
23.996	63.4884
24.014	63.4967
24.032	63.5087
24.05	63.5225
24.068	63.5404
24.086	63.5579
24.104	63.5705
24.122	63.5813
24.14	63.5874
24.158	63.5849
24.176	63.5747
24.194	63.5567
24.212	63.5288
24.23	63.4901
24.248	63.4416
24.266	63.3837
24.284	63.3162
24.302	63.2386
24.32	63.1535
24.338	63.0633
24.356	62.9656
24.374	62.8633
24.392	62.7609
24.41	62.6569
24.428	62.5519
24.446	62.4508
24.464	62.3551
24.482	62.2627
24.5	62.1771
24.518	62.1014
24.536	62.0337
24.554	61.9752
24.572	61.9276
24.59	61.8919
24.608	61.8667
24.626	61.8503
24.644	61.8422
24.662	61.8435
24.68	61.8512
24.698	61.8626
24.716	61.8793
24.734	61.9002
24.752	61.9233
24.77	61.9485
24.788	61.9763
24.806	62.0052
24.824	62.0339
24.842	62.0635
24.86	62.0931
24.878	62.1217
24.896	62.1494
24.914	62.1763
24.932	62.2024
24.95	62.227
24.968	62.25
24.986	62.273
25.004	62.2977
25.022	62.324
25.04	62.3514
25.058	62.3799
25.076	62.4102
25.094	62.4426
25.112	62.4747
25.13	62.5044
25.148	62.5343
25.166	62.5623
25.184	62.5833
25.202	62.5962
25.22	62.6042
25.238	62.6013
25.256	62.5812
25.274	62.5469
25.292	62.4976
25.31	62.428
25.328	62.3347
25.346	62.2211
25.364	62.0853
25.382	61.9251
25.4	61.7394
25.418	61.5299
25.436	61.2987
25.454	61.0466
25.472	60.7705
25.49	60.4753
25.508	60.1671
25.526	59.846
25.544	59.5091
25.562	59.164
25.58	58.8174
25.598	58.4648
25.616	58.1083
25.634	57.7544
25.652	57.4075
25.67	57.0633
25.688	56.7243
25.706	56.3939
25.724	56.0733
25.742	55.7606
25.76	55.4559
25.778	55.1593
25.796	54.8728
25.814	54.5941
25.832	54.3189
25.85	54.0451
25.868	53.7762
25.886	53.5086
25.904	53.2378
25.922	52.9629
25.94	52.6865
25.958	52.4051
25.976	52.115
25.994	51.8151
26.012	51.5075
26.03	51.1943
26.048	50.8768
26.066	50.5513
26.084	50.2216
26.102	49.8935
26.12	49.5691
26.138	49.2403
26.156	48.9183
26.174	48.6165
26.192	48.3373
26.21	48.0707
26.228	47.8315
26.246	47.6353
26.264	47.4776
26.282	47.353
26.3	47.2801
26.318	47.2775
26.336	47.3367
26.354	47.4559
26.372	47.6493
26.39	47.9296
26.408	48.2877
26.426	48.7251
26.444	49.2512
26.462	49.874
26.48	50.5874
26.498	51.3918
26.516	52.2909
26.534	53.2882
26.552	54.3849
26.57	55.5746
26.588	56.8502
26.606	58.2096
26.624	59.6639
26.642	61.1975
26.66	62.7915
26.678	64.439
26.696	66.1605
26.714	67.932
26.732	69.7256
26.75	71.5312
26.768	73.3757
26.786	75.2304
26.804	77.0624
26.822	78.8593
26.84	80.6509
26.858	82.409
26.876	84.1014
26.894	85.714
26.912	87.2742
26.93	88.7617
26.948	90.1528
26.966	91.4643
26.984	92.7585
27.002	93.9164
27.02	94.8068
27.028	95.0537