File: Bakgrunnsmateriale/MATLAB/FTIR/ftir_data/subAa/Mapping_121/BZ1503107-1_t13_cm-1.asc
PE IR       SPECTRUM    SPECTRUM    ASCII       PEDS        1.60
  -1
BZ6BA1~1.ASC
17/04/07
14:16:31.00
17/04/07
14:16:31.00
tln
$BZ1503107-1_t0013$<tbV0>[10.4,-10.4,8.0,0.0,27,1,0]
370
64

2002,4.07
MIRTGS : RIGHTBACK : INTERNAL 2
MIR : ON : INTERNAL 2
OPTKBR

0.200000
8
8.000000
FILLER
RATIO
SPECTRUM
UNLOCKED 256

DOUBLE
64
COMBINED
1
0
0

1.000000
RATIO

1
0
TRUE
51149
0
LEFT NOT FITTED RIGHT NOT FITTED 0
NONE
NONE
15600
12
4.427000
51148
TRUE
1 0 8 72 0 0 0 0

15798

#HDR
-1
-1
#GR
CM-1
%T
2.38419e-05
0.0
5000
-1.000000
4631
8
76.6097
46.3449
#DATA
5000	64.1522
4996	63.601
4992	62.8753
4988	63.3492
4984	65.3542
4980	66.9913
4976	66.2632
4972	64.5801
4968	64.2061
4964	64.7562
4960	65.4335
4956	65.2452
4952	64.2106
4948	64.0352
4944	64.0939
4940	63.6993
4936	63.747
4932	63.785
4928	64.077
4924	64.9941
4920	64.9419
4916	63.9597
4912	63.7228
4908	64.1825
4904	64.5355
4900	64.8123
4896	65.0723
4892	65.1913
4888	65.1926
4884	65.1096
4880	64.9554
4876	64.7274
4872	64.7166
4868	65.0231
4864	65.1556
4860	64.9531
4856	64.6582
4852	64.609
4848	65.0132
4844	65.3554
4840	65.2595
4836	65.0473
4832	64.888
4828	65.0269
4824	65.205
4820	64.96
4816	65.0255
4812	65.0968
4808	64.7174
4804	65.1475
4800	65.8212
4796	65.5426
4792	65.2063
4788	65.2873
4784	65.297
4780	65.0084
4776	64.8128
4772	64.6567
4768	64.159
4764	64.3023
4760	65.1801
4756	65.2326
4752	64.7914
4748	64.884
4744	65.0845
4740	64.9683
4736	64.7519
4732	64.799
4728	64.8507
4724	64.4757
4720	64.0484
4716	64.0761
4712	64.1446
4708	64.0168
4704	64.2161
4700	64.4704
4696	64.4095
4692	64.5199
4688	64.7249
4684	64.7098
4680	64.7482
4676	64.8724
4672	64.9648
4668	65.0989
4664	65.1374
4660	64.9427
4656	64.6701
4652	64.6856
4648	65.0434
4644	65.0422
4640	64.5379
4636	64.2497
4632	64.2113
4628	64.2536
4624	64.487
4620	64.5206
4616	64.3651
4612	64.4544
4608	64.6826
4604	64.8938
4600	64.9851
4596	64.8802
4592	64.8794
4588	65.0406
4584	64.9503
4580	64.7325
4576	64.7726
4572	64.6847
4568	64.318
4564	64.0867
4560	64.1482
4556	64.2262
4552	64.1435
4548	64.1644
4544	64.3424
4540	64.4824
4536	64.5783
4532	64.5018
4528	64.3681
4524	64.1877
4520	63.9903
4516	64.0709
4512	64.4639
4508	64.9573
4504	65.2384
4500	65.3379
4496	65.877
4492	66.9901
4488	67.3808
4484	68.2822
4480	69.5134
4476	67.6453
4472	65.1518
4468	64.4066
4464	63.5533
4460	63.3098
4456	63.4359
4452	63.1197
4448	61.2286
4444	60.5744
4440	62.4394
4436	59.9217
4432	59.4479
4428	63.9586
4424	65.1287
4420	64.9871
4416	65.2605
4412	65.1345
4408	65.1658
4404	65.2019
4400	65.2328
4396	65.2803
4392	65.3972
4388	65.2584
4384	65.0855
4380	65.1635
4376	65.1534
4372	65.0086
4368	64.9943
4364	64.9602
4360	64.7896
4356	64.6921
4352	64.6455
4348	64.5416
4344	64.5323
4340	64.6397
4336	64.7527
4332	64.8561
4328	64.8835
4324	64.7416
4320	64.5646
4316	64.5611
4312	64.6701
4308	64.8219
4304	64.9946
4300	65.0251
4296	64.9253
4292	64.7656
4288	64.6712
4284	64.7418
4280	64.8272
4276	64.8981
4272	64.9352
4268	64.8523
4264	64.6301
4260	64.3695
4256	64.4013
4252	64.6923
4248	64.8461
4244	64.8516
4240	64.9197
4236	64.9896
4232	64.9586
4228	64.8486
4224	64.7301
4220	64.7353
4216	64.73
4212	64.6556
4208	64.6545
4204	64.719
4200	64.819
4196	64.7744
4192	64.657
4188	64.5967
4184	64.3692
4180	64.2344
4176	64.5572
4172	65.0442
4168	65.2153
4164	65.1299
4160	65.0714
4156	64.9707
4152	64.8345
4148	64.7995
4144	64.9605
4140	65.2043
4136	65.2851
4132	65.146
4128	64.8953
4124	64.7959
4120	64.8967
4116	65.0561
4112	65.2678
4108	65.3865
4104	65.3273
4100	65.249
4096	65.1311
4092	65.0584
4088	65.0491
4084	64.9747
4080	64.9739
4076	65.0103
4072	64.91
4068	64.7821
4064	64.8773
4060	65.1694
4056	65.3733
4052	65.3283
4048	65.1366
4044	65.0418
4040	65.0391
4036	65.001
4032	65.0217
4028	65.1001
4024	65.1234
4020	65.0474
4016	64.9048
4012	64.8606
4008	64.9834
4004	65.1071
4000	65.1122
3996	64.9945
3992	64.8465
3988	64.8784
3984	65.0302
3980	65.0466
3976	64.9449
3972	64.9175
3968	65.0434
3964	65.1299
3960	65.0124
3956	64.8777
3952	64.8137
3948	64.8041
3944	64.9853
3940	65.185
3936	65.1176
3932	64.9653
3928	64.8908
3924	64.8251
3920	64.8857
3916	65.0156
3912	64.9701
3908	64.8267
3904	64.8252
3900	65.0401
3896	65.1412
3892	64.9155
3888	64.8609
3884	65.0567
3880	65.0536
3876	65.0239
3872	65.0585
3868	65.0555
3864	65.0756
3860	65.1069
3856	65.2153
3852	65.2098
3848	65.0652
3844	65.0844
3840	65.1711
3836	65.1886
3832	65.1712
3828	65.066
3824	64.9755
3820	65.0396
3816	65.1457
3812	65.1516
3808	65.1179
3804	65.1403
3800	65.0594
3796	64.8865
3792	64.8412
3788	64.8949
3784	64.9046
3780	64.8988
3776	64.9795
3772	65.104
3768	65.1852
3764	65.1261
3760	65.0351
3756	65.1041
3752	65.2257
3748	65.317
3744	65.3405
3740	65.2648
3736	65.1966
3732	65.124
3728	65.0687
3724	65.0805
3720	65.12
3716	65.1746
3712	65.1987
3708	65.2199
3704	65.2622
3700	65.2133
3696	65.1488
3692	65.2195
3688	65.3231
3684	65.3155
3680	65.2969
3676	65.3702
3672	65.3956
3668	65.2503
3664	65.0832
3660	65.0867
3656	65.1649
3652	65.2522
3648	65.3163
3644	65.2429
3640	65.1272
3636	65.0788
3632	65.1254
3628	65.1864
3624	65.1478
3620	65.0682
3616	65.082
3612	65.2299
3608	65.3185
3604	65.2572
3600	65.1455
3596	65.0818
3592	65.1412
3588	65.1897
3584	65.182
3580	65.1957
3576	65.1451
3572	65.0534
3568	65.0258
3564	65.0141
3560	65.0184
3556	65.065
3552	65.0968
3548	65.1338
3544	65.176
3540	65.1359
3536	65.0186
3532	64.9204
3528	64.9373
3524	65.0389
3520	65.088
3516	65.0438
3512	65.0324
3508	65.1761
3504	65.3434
3500	65.2671
3496	64.9992
3492	64.8056
3488	64.7869
3484	64.8415
3480	64.912
3476	65.0192
3472	65.0224
3468	64.8935
3464	64.8408
3460	64.9116
3456	65.013
3452	65.0578
3448	65.0484
3444	65.1265
3440	65.239
3436	65.2173
3432	65.133
3428	65.1048
3424	65.046
3420	64.9785
3416	65.0604
3412	65.1245
3408	65.0705
3404	65.0785
3400	65.0482
3396	64.9313
3392	64.9275
3388	64.98
3384	65.0476
3380	65.1304
3376	65.0942
3372	64.9717
3368	64.8522
3364	64.788
3360	64.8568
3356	64.98
3352	64.9699
3348	64.896
3344	64.9327
3340	65.0077
3336	65.0398
3332	65.0723
3328	65.0787
3324	65.0335
3320	65.0389
3316	65.0983
3312	65.1202
3308	65.0921
3304	65.0565
3300	65.056
3296	65.0389
3292	64.9847
3288	64.9951
3284	65.1041
3280	65.1641
3276	65.1032
3272	65.0583
3268	65.0409
3264	65.0386
3260	65.1055
3256	65.1489
3252	65.0698
3248	64.972
3244	64.9363
3240	64.8651
3236	64.85
3232	64.9129
3228	64.9272
3224	64.978
3220	65.0669
3216	65.1027
3212	65.0934
3208	65.0687
3204	65.0863
3200	65.1685
3196	65.1917
3192	65.1057
3188	65.0262
3184	65.0442
3180	65.1265
3176	65.1872
3172	65.2222
3168	65.2088
3164	65.184
3160	65.2177
3156	65.1942
3152	65.1478
3148	65.1515
3144	65.0738
3140	64.9675
3136	65.0028
3132	65.1391
3128	65.1828
3124	65.1369
3120	65.1274
3116	65.0949
3112	65.0614
3108	65.1384
3104	65.1989
3100	65.1772
3096	65.1613
3092	65.139
3088	65.1066
3084	65.081
3080	65.0342
3076	65.0485
3072	65.1047
3068	65.0268
3064	64.9275
3060	64.9702
3056	65.0608
3052	65.1027
3048	65.0935
3044	65.0536
3040	65.0332
3036	64.9982
3032	64.9489
3028	64.9366
3024	64.9075
3020	64.9242
3016	64.9982
3012	65.0641
3008	65.1494
3004	65.1636
3000	65.0638
2996	64.9966
2992	65.0133
2988	65.0446
2984	65.0392
2980	65.0038
2976	64.994
2972	64.994
2968	64.9037
2964	64.8089
2960	64.8667
2956	64.9316
2952	64.9108
2948	64.8865
2944	64.9103
2940	65.0138
2936	65.065
2932	64.9989
2928	64.9447
2924	64.9352
2920	64.9155
2916	64.8858
2912	64.9226
2908	65.0208
2904	65.0397
2900	64.9727
2896	64.9209
2892	64.8895
2888	64.857
2884	64.8052
2880	64.8
2876	64.8993
2872	65.0315
2868	65.1247
2864	65.119
2860	65.0681
2856	65.051
2852	64.9846
2848	64.9318
2844	64.9528
2840	64.9251
2836	64.8953
2832	64.9228
2828	64.9395
2824	64.92
2820	64.8965
2816	64.9101
2812	64.9782
2808	65.0619
2804	65.0734
2800	64.9974
2796	64.9229
2792	64.9123
2788	64.9708
2784	65.0536
2780	65.0455
2776	64.9214
2772	64.8344
2768	64.8721
2764	64.9699
2760	65.0181
2756	64.9707
2752	64.9239
2748	64.9356
2744	64.9494
2740	64.9561
2736	65.0142
2732	65.1155
2728	65.1533
2724	65.0918
2720	64.9936
2716	64.9381
2712	64.8866
2708	64.8544
2704	64.9489
2700	65.0218
2696	64.964
2692	64.9349
2688	64.9884
2684	64.9895
2680	64.9763
2676	65.0285
2672	65.0131
2668	64.9524
2664	64.9928
2660	65.0787
2656	65.0594
2652	64.963
2648	64.9213
2644	64.9246
2640	64.9644
2636	65.0203
2632	65.0267
2628	65.0129
2624	64.9851
2620	64.9023
2616	64.8209
2612	64.8515
2608	64.9324
2604	64.9391
2600	64.956
2596	65.0631
2592	65.1255
2588	65.0603
2584	64.9609
2580	64.9111
2576	64.9304
2572	64.976
2568	65.0026
2564	65.0093
2560	65.001
2556	65.0167
2552	65.0522
2548	65.0432
2544	65.0174
2540	65.0152
2536	65.0305
2532	65.0586
2528	65.0305
2524	64.9453
2520	64.9284
2516	64.9709
2512	64.948
2508	64.8613
2504	64.793
2500	64.7748
2496	64.8147
2492	64.9073
2488	65.0203
2484	65.0677
2480	65.0481
2476	65.0269
2472	64.9919
2468	64.9328
2464	64.8684
2460	64.8758
2456	64.9434
2452	64.9411
2448	64.8991
2444	64.8661
2440	64.8383
2436	64.8609
2432	64.869
2428	64.8823
2424	64.9614
2420	64.9556
2416	64.863
2412	64.823
2408	64.8181
2404	64.8215
2400	64.8603
2396	64.9163
2392	64.9567
2388	64.9637
2384	64.9269
2380	64.9147
2376	64.9596
2372	64.9877
2368	65.015
2364	65.0449
2360	65.0082
2356	64.9362
2352	64.9279
2348	64.9705
2344	64.9485
2340	64.8727
2336	64.8312
2332	64.8359
2328	64.8503
2324	64.8651
2320	64.872
2316	64.8684
2312	64.8909
2308	64.9087
2304	64.8906
2300	64.8709
2296	64.8776
2292	64.8758
2288	64.8224
2284	64.7856
2280	64.8213
2276	64.8502
2272	64.8348
2268	64.8517
2264	64.9045
2260	64.9367
2256	64.9415
2252	64.9234
2248	64.8885
2244	64.8697
2240	64.8699
2236	64.8539
2232	64.8414
2228	64.8318
2224	64.8118
2220	64.8553
2216	64.9102
2212	64.8885
2208	64.8763
2204	64.8729
2200	64.8535
2196	64.8602
2192	64.8666
2188	64.8646
2184	64.8522
2180	64.8319
2176	64.8526
2172	64.913
2168	64.9465
2164	64.8816
2160	64.7201
2156	64.6127
2152	64.6216
2148	64.6857
2144	64.7481
2140	64.7327
2136	64.7036
2132	64.7613
2128	64.864
2124	64.9135
2120	64.8607
2116	64.7394
2112	64.6966
2108	64.7528
2104	64.7667
2100	64.7629
2096	64.7853
2092	64.7959
2088	64.7857
2084	64.7853
2080	64.8206
2076	64.8023
2072	64.7429
2068	64.7216
2064	64.7273
2060	64.7704
2056	64.8143
2052	64.8403
2048	64.8931
2044	64.9265
2040	64.8787
2036	64.8103
2032	64.8118
2028	64.84
2024	64.863
2020	64.8749
2016	64.8361
2012	64.8236
2008	64.8491
2004	64.837
2000	64.8059
1996	64.7837
1992	64.7885
1988	64.8278
1984	64.8226
1980	64.7876
1976	64.8113
1972	64.8339
1968	64.8121
1964	64.784
1960	64.7624
1956	64.7532
1952	64.7639
1948	64.7577
1944	64.734
1940	64.7119
1936	64.6804
1932	64.6688
1928	64.6762
1924	64.6784
1920	64.7234
1916	64.8139
1912	64.8385
1908	64.7859
1904	64.7714
1900	64.8024
1896	64.827
1892	64.8116
1888	64.7145
1884	64.6305
1880	64.6644
1876	64.7516
1872	64.8315
1868	64.8778
1864	64.8425
1860	64.7748
1856	64.7341
1852	64.7371
1848	64.7966
1844	64.8323
1840	64.8099
1836	64.7599
1832	64.6982
1828	64.6971
1824	64.7662
1820	64.8288
1816	64.8383
1812	64.7948
1808	64.7683
1804	64.786
1800	64.8082
1796	64.8072
1792	64.7658
1788	64.7298
1784	64.6952
1780	64.6823
1776	64.791
1772	64.9328
1768	64.9526
1764	64.888
1760	64.7854
1756	64.6949
1752	64.7034
1748	64.6824
1744	64.5902
1740	64.5602
1736	64.5548
1732	64.4902
1728	64.3941
1724	64.4112
1720	64.599
1716	64.75
1712	64.7205
1708	64.6275
1704	64.6262
1700	64.7132
1696	64.7032
1692	64.6263
1688	64.6638
1684	64.7127
1680	64.6962
1676	64.6598
1672	64.5922
1668	64.5576
1664	64.5969
1660	64.6769
1656	64.8098
1652	64.8626
1648	64.7723
1644	64.675
1640	64.6091
1636	64.5998
1632	64.6612
1628	64.7177
1624	64.6757
1620	64.5937
1616	64.5559
1612	64.5364
1608	64.557
1604	64.5727
1600	64.5292
1596	64.5026
1592	64.4898
1588	64.4629
1584	64.5143
1580	64.6329
1576	64.6812
1572	64.641
1568	64.5926
1564	64.6115
1560	64.6934
1556	64.7076
1552	64.6527
1548	64.607
1544	64.6241
1540	64.6513
1536	64.5799
1532	64.4949
1528	64.4914
1524	64.5832
1520	64.6993
1516	64.7251
1512	64.667
1508	64.6267
1504	64.6443
1500	64.6431
1496	64.6016
1492	64.5845
1488	64.5945
1484	64.572
1480	64.5331
1476	64.5333
1472	64.5571
1468	64.5426
1464	64.5058
1460	64.5561
1456	64.5774
1452	64.4805
1448	64.4568
1444	64.5184
1440	64.6078
1436	64.6775
1432	64.6525
1428	64.5886
1424	64.5653
1420	64.5791
1416	64.5354
1412	64.4212
1408	64.3838
1404	64.447
1400	64.4486
1396	64.4068
1392	64.3994
1388	64.3835
1384	64.382
1380	64.3981
1376	64.3767
1372	64.3887
1368	64.4808
1364	64.5233
1360	64.4886
1356	64.4835
1352	64.4752
1348	64.4483
1344	64.4689
1340	64.4691
1336	64.3884
1332	64.2961
1328	64.3043
1324	64.3815
1320	64.37
1316	64.2864
1312	64.2622
1308	64.2812
1304	64.3132
1300	64.3865
1296	64.4211
1292	64.4137
1288	64.4502
1284	64.4482
1280	64.3671
1276	64.2938
1272	64.2717
1268	64.2844
1264	64.3117
1260	64.3263
1256	64.3114
1252	64.3063
1248	64.2762
1244	64.2216
1240	64.2357
1236	64.2935
1232	64.3298
1228	64.3685
1224	64.4063
1220	64.3853
1216	64.3251
1212	64.2399
1208	64.1637
1204	64.1695
1200	64.2117
1196	64.2594
1192	64.3146
1188	64.2975
1184	64.2122
1180	64.1402
1176	64.1086
1172	64.14
1168	64.201
1164	64.1908
1160	64.1443
1156	64.122
1152	64.0638
1148	63.997
1144	64.0038
1140	64.0768
1136	64.1446
1132	64.1873
1128	64.1706
1124	64.1192
1120	64.1545
1116	64.2357
1112	64.2112
1108	64.0998
1104	64.1289
1100	64.3336
1096	64.4815
1092	64.4979
1088	64.4358
1084	64.4259
1080	64.4088
1076	64.2738
1072	64.2117
1068	64.1762
1064	64.0778
1060	64.0715
1056	64.1798
1052	64.2652
1048	64.2232
1044	64.1363
1040	64.1753
1036	64.2975
1032	64.2969
1028	64.1451
1024	64.0784
1020	64.2025
1016	64.2996
1012	64.2836
1008	64.2341
1004	64.2298
1000	64.24
996	 64.1859
992	 64.1684
988	 64.2301
984	 64.3211
980	 64.3917
976	 64.3851
972	 64.3199
968	 64.2585
964	 64.1844
960	 64.0723
956	 64.0585
952	 64.2515
948	 64.4697
944	 64.4666
940	 64.3534
936	 64.325
932	 64.3312
928	 64.3454
924	 64.3474
920	 64.3487
916	 64.4243
912	 64.4217
908	 64.2573
904	 64.1464
900	 64.1806
896	 64.1871
892	 64.0536
888	 63.9358
884	 63.9392
880	 64.0617
876	 64.3
872	 64.3699
868	 64.2167
864	 64.1104
860	 64.05
856	 64.0119
852	 64.0967
848	 64.2199
844	 64.2876
840	 64.3288
836	 64.2226
832	 64.0157
828	 63.991
824	 64.1013
820	 64.1117
816	 64.0579
812	 64.0635
808	 64.0936
804	 64.0448
800	 64.0533
796	 64.2236
792	 64.3509
788	 64.394
784	 64.3574
780	 64.1678
776	 64.028
772	 64.019
768	 63.945
764	 63.9335
760	 64.1019
756	 64.224
752	 64.1172
748	 63.8467
744	 63.7379
740	 63.8652
736	 63.9609
732	 63.9855
728	 64.0221
724	 63.9626
720	 63.8458
716	 63.806
712	 63.8017
708	 63.783
704	 63.7919
700	 63.8101
696	 63.7952
692	 63.8223
688	 63.8296
684	 63.7879
680	 63.8875
676	 64.0893
672	 64.1939
668	 64.1423
664	 64.1093
660	 64.1491
656	 63.9565
652	 63.7281
648	 63.9403
644	 64.3085
640	 64.4537
636	 64.4376
632	 64.3349
628	 64.2614
624	 64.0881
620	 63.8369
616	 63.9631
612	 64.1959
608	 64.1739
604	 64.1686
600	 64.0049
596	 63.7861
592	 63.9875
588	 64.1888
584	 64.1463
580	 64.1437
576	 64.0097
572	 63.5587
568	 63.215
564	 63.4239
560	 63.4294
556	 62.7311
552	 62.2208
548	 62.8268
544	 63.964
540	 63.7456
536	 62.8731
532	 63.0536
528	 63.6382
524	 63.7322
520	 63.6111
516	 64.3438
512	 65.1651
508	 64.7088
504	 64.1736
500	 64.6373
496	 65.1263
492	 64.7035
488	 63.9391
484	 63.6269
480	 63.5095
476	 63.7188
472	 64.0204
468	 63.5194
464	 63.297
460	 63.9029
456	 63.9156
452	 63.1512
448	 62.2356
444	 61.6799
440	 61.8072
436	 62.6041
432	 63.8219
428	 64.7191
424	 64.4844
420	 63.1785
416	 62.4464
412	 64.2913
408	 67.2969
404	 67.3381
400	 64.9801
396	 61.2266
392	 55.5527
388	 49.6462
384	 46.3449
380	 55.175
376	 64.2718
372	 76.6097
370	 68.8387