File: Bakgrunnsmateriale/MATLAB/FTIR/ftir_data/subAa/Mapping_121/BZ1503107-1_t77.asc
PE IR       SPECTRUM    SPECTRUM    ASCII       PEDS        1.60
  -1
BZ256F~1.ASC
17/04/07
19:34:14.00
17/04/07
19:34:40.00
tln
$BZ1503107-1_t0077$<tbV0>[-13.0,2.6,8.0,0.0,27,1,0]
27.028
64

2002,4.07
MIRTGS : RIGHTBACK : INTERNAL 2
MIR : ON : INTERNAL 2
OPTKBR

0.200000
8
8.000000
FILLER
RATIO
SPECTRUM
UNLOCKED 256

DOUBLE
64
COMBINED
1
0
0

0.002000
RATIO

1
0
TRUE
51149
0
LEFT NOT FITTED RIGHT NOT FITTED 0
NONE
NONE
15600
12
4.427000
51148
TRUE
1 0 8 72 0 0 0 0

15798

#HDR
-1
-1
#GR
µM
%T
2.38419e-05
0.0
2.000000
0.002000
12515
8
75.2989
54.7334
#DATA
2.000000	 66.1398
2.018000	 65.5587
2.036000	 65.0957
2.054000	 65.0011
2.072000	 65.0058
2.090000	 65.5138
2.108000	 65.3347
2.126000	 65.0844
2.144000	 65.2079
2.162000	 65.5277
2.180000	 65.6424
2.198000	 65.0432
2.216000	 65.4566
2.234000	 65.0173
2.252000	 61.1445
2.270000	 66.4748
2.288000	 64.7429
2.306000	 65.5453
2.324000	 65.315
2.342000	 65.2883
2.360000	 65.1848
2.378000	 65.3465
2.396000	 65.1422
2.414000	 65.0202
2.432000	 65.6037
2.450000	 65.3063
2.468000	 65.4767
2.486000	 65.3025
2.504000	 65.2038
2.522000	 65.2116
2.540000	 65.1156
2.558000	 65.4105
2.576000	 65.3693
2.594000	 65.2514
2.612000	 65.1554
2.630000	 65.1783
2.648000	 65.5558
2.666000	 65.3668
2.684000	 65.4986
2.702000	 65.4443
2.720000	 65.4242
2.738000	 65.4365
2.756000	 65.4018
2.774000	 65.55
2.792000	 65.2782
2.810000	 65.4594
2.828000	 65.4038
2.846000	 65.5164
2.864000	 65.4036
2.882000	 65.4632
2.900000	 65.3561
2.918000	 65.1736
2.936000	 65.303
2.954000	 65.1966
2.972000	 65.1818
2.990000	 65.3195
3.008000	 65.4209
3.026000	 65.3911
3.044000	 65.3553
3.062000	 65.1817
3.080000	 65.3958
3.098000	 65.3361
3.116000	 65.2499
3.134000	 65.2246
3.152000	 65.1648
3.170000	 65.2682
3.188000	 65.1465
3.206000	 65.3152
3.224000	 65.2337
3.242000	 65.2149
3.260000	 65.1875
3.278000	 65.3166
3.296000	 65.1111
3.314000	 65.1329
3.332000	 65.2068
3.350000	 64.9407
3.368000	 64.675
3.386000	 64.5135
3.404000	 64.7213
3.422000	 64.7799
3.440000	 64.9214
3.458000	 64.9682
3.476000	 64.9006
3.494000	 64.9167
3.512000	 64.9909
3.530000	 65.0085
3.548000	 65.0544
3.566000	 65.1361
3.584000	 65.106
3.602000	 65.1489
3.620000	 65.2423
3.638000	 65.2228
3.656000	 65.1594
3.674000	 65.2362
3.692000	 65.1867
3.710000	 65.0236
3.728000	 65.2748
3.746000	 65.0424
3.764000	 64.9834
3.782000	 65.0039
3.800000	 64.9885
3.818000	 65.0489
3.836000	 65.0072
3.854000	 65.0615
3.872000	 64.993
3.890000	 65.0186
3.908000	 64.9003
3.926000	 64.9483
3.944000	 65.089
3.962000	 65.1036
3.980000	 65.006
3.998000	 64.9864
4.016000	 64.9195
4.034000	 64.9294
4.052000	 64.9906
4.070000	 64.9626
4.088000	 64.9017
4.106000	 64.8832
4.124000	 64.9321
4.141999	 64.9034
4.160000	 64.846
4.178000	 64.8905
4.196000	 64.8394
4.214000	 64.9406
4.232000	 64.8585
4.250000	 64.8479
4.268000	 64.8239
4.286000	 64.9207
4.304000	 64.8711
4.322000	 64.8833
4.340000	 64.7853
4.358000	 64.7721
4.375999	 64.7369
4.394000	 64.8185
4.412000	 64.847
4.430000	 64.8789
4.448000	 64.8745
4.466000	 64.6864
4.484000	 64.8766
4.502000	 64.7948
4.520000	 64.8212
4.538000	 64.7473
4.556000	 64.6544
4.574000	 64.8728
4.592000	 64.7417
4.609999	 64.6388
4.628000	 64.8004
4.646000	 64.7759
4.664000	 64.6526
4.682000	 64.7674
4.700000	 64.7837
4.718000	 64.7024
4.736000	 64.7104
4.754000	 64.7522
4.772000	 64.6908
4.790000	 64.6273
4.808000	 64.6135
4.826000	 64.6765
4.843999	 64.7209
4.862000	 64.666
4.880000	 64.6599
4.898000	 64.6243
4.916000	 64.6464
4.934000	 64.6791
4.952000	 64.6959
4.970000	 64.6448
4.988000	 64.5611
5.006000	 64.5335
5.024000	 64.5228
5.042000	 64.5612
5.060000	 64.5928
5.077999	 64.6155
5.096000	 64.5374
5.114000	 64.5636
5.132000	 64.5073
5.150000	 64.5451
5.168000	 64.568
5.186000	 64.5709
5.204000	 64.5693
5.222000	 64.5873
5.240000	 64.5663
5.258000	 64.5644
5.276000	 64.555
5.294000	 64.5568
5.312000	 64.5251
5.330000	 64.5677
5.348000	 64.4522
5.366000	 64.4484
5.384000	 64.5048
5.402000	 64.5152
5.420000	 64.4645
5.438000	 64.3577
5.456000	 64.4246
5.474000	 64.4445
5.492000	 64.4857
5.510000	 64.5468
5.528000	 64.4433
5.546000	 64.4235
5.564000	 64.418
5.582000	 64.3335
5.600000	 64.3109
5.618000	 64.3775
5.636000	 64.4232
5.654000	 64.3627
5.672000	 64.2569
5.690000	 64.211
5.708000	 63.9692
5.726000	 63.6272
5.744000	 63.2005
5.762000	 62.8809
5.780000	 63.0401
5.798000	 63.4547
5.816000	 63.78
5.834000	 64.0657
5.852000	 64.1558
5.870000	 64.1307
5.888000	 64.1638
5.906000	 64.244
5.923999	 64.2322
5.942000	 64.1963
5.960000	 64.2281
5.978000	 64.2339
5.996000	 64.1912
6.014000	 64.1767
6.032000	 64.1872
6.050000	 64.1466
6.068000	 64.1942
6.086000	 64.2225
6.104000	 64.1502
6.122000	 64.1532
6.140000	 64.2384
6.158000	 64.2277
6.176000	 64.2208
6.194000	 64.2887
6.212000	 64.2507
6.230000	 64.1671
6.248000	 64.1574
6.266000	 64.1421
6.284000	 64.1115
6.302000	 64.1359
6.320000	 64.1736
6.338000	 64.1608
6.356000	 64.1407
6.374000	 64.0784
6.392000	 63.9756
6.410000	 63.9796
6.428000	 64.0213
6.446000	 63.9936
6.464000	 64.0166
6.482000	 64.1914
6.500000	 64.2886
6.518000	 64.1581
6.536000	 64.0424
6.554000	 64.0662
6.572000	 64.1486
6.590000	 64.2404
6.608000	 64.3281
6.626000	 64.3472
6.644000	 64.2516
6.662000	 64.1109
6.680000	 64.0688
6.698000	 64.1084
6.716000	 64.0861
6.734000	 64.027
6.752000	 64.0055
6.770000	 64.0201
6.788000	 64.0013
6.806000	 63.9218
6.824000	 63.868
6.842000	 63.9075
6.860000	 63.9437
6.878000	 63.9262
6.896000	 63.9039
6.914000	 63.8285
6.932000	 63.749
6.950000	 63.7502
6.968000	 63.8087
6.986000	 63.9023
7.004000	 63.9994
7.022000	 64.0382
7.040000	 64.0024
7.058000	 63.9639
7.076000	 63.9548
7.094000	 63.9435
7.112000	 63.9388
7.130000	 63.93
7.148000	 63.9092
7.166000	 63.9314
7.184000	 63.9897
7.202000	 64.0089
7.220000	 63.9649
7.238000	 63.8991
7.256000	 63.8635
7.274000	 63.8662
7.292000	 63.8657
7.310000	 63.8329
7.328000	 63.8007
7.346000	 63.819
7.364000	 63.8794
7.382000	 63.9222
7.400000	 63.9193
7.418000	 63.9042
7.436000	 63.9027
7.454000	 63.9094
7.472000	 63.9188
7.490000	 63.9212
7.508000	 63.9124
7.526000	 63.9114
7.544000	 63.9162
7.562000	 63.9059
7.580000	 63.8813
7.598000	 63.8544
7.616000	 63.8326
7.634000	 63.8126
7.652000	 63.792
7.670000	 63.7828
7.688000	 63.7862
7.706000	 63.7803
7.724000	 63.7615
7.742000	 63.7369
7.760000	 63.6925
7.778000	 63.6294
7.796000	 63.5844
7.814000	 63.5753
7.832000	 63.5831
7.850000	 63.5903
7.868000	 63.5847
7.886000	 63.5507
7.904000	 63.4959
7.922000	 63.456
7.940000	 63.4531
7.958000	 63.4712
7.976000	 63.4865
7.994000	 63.4916
8.012000	 63.4856
8.030000	 63.4629
8.048000	 63.4261
8.065999	 63.3923
8.084000	 63.3837
8.102000	 63.4135
8.120000	 63.478
8.138000	 63.5553
8.155999	 63.6133
8.173999	 63.6223
8.192000	 63.5747
8.210000	 63.501
8.228000	 63.4597
8.246000	 63.4841
8.263999	 63.5469
8.282000	 63.595
8.300000	 63.6085
8.318000	 63.6076
8.336000	 63.6104
8.353999	 63.596
8.372000	 63.5276
8.390000	 63.4119
8.408000	 63.3021
8.426000	 63.2378
8.443999	 63.2078
8.462000	 63.1865
8.480000	 63.173
8.498000	 63.1741
8.516000	 63.1799
8.533999	 63.1748
8.552000	 63.1541
8.570000	 63.125
8.588000	 63.1036
8.606000	 63.1062
8.624000	 63.1457
8.641999	 63.2286
8.660000	 63.3361
8.678000	 63.428
8.696000	 63.4798
8.714000	 63.5027
8.731999	 63.5193
8.750000	 63.5413
8.768000	 63.5659
8.786000	 63.581
8.804000	 63.58
8.821999	 63.5721
8.840000	 63.5711
8.858000	 63.5812
8.876000	 63.5976
8.894000	 63.6112
8.911999	 63.608
8.930000	 63.5783
8.948000	 63.526
8.966000	 63.4716
8.984000	 63.4426
9.001999	 63.4534
9.020000	 63.494
9.038000	 63.534
9.056000	 63.5468
9.074000	 63.5277
9.092000	 63.4932
9.109999	 63.4605
9.128000	 63.4358
9.146000	 63.421
9.164000	 63.4257
9.182000	 63.4619
9.199999	 63.5248
9.218000	 63.5857
9.236000	 63.6087
9.254000	 63.5786
9.272000	 63.5149
9.289999	 63.459
9.308000	 63.4441
9.326000	 63.4741
9.344000	 63.5276
9.362000	 63.5788
9.379999	 63.6155
9.398000	 63.6395
9.416000	 63.6527
9.434000	 63.6506
9.452000	 63.6278
9.469999	 63.5883
9.488000	 63.5465
9.506000	 63.5194
9.524000	 63.5172
9.542000	 63.5384
9.560000	 63.5708
9.577999	 63.5975
9.596000	 63.6047
9.614000	 63.5904
9.632000	 63.5663
9.650000	 63.5493
9.667999	 63.5484
9.686000	 63.5569
9.704000	 63.5588
9.722000	 63.5435
9.740000	 63.5157
9.757999	 63.4911
9.776000	 63.4813
9.794000	 63.4821
9.812000	 63.4756
9.830000	 63.4467
9.847999	 63.3989
9.866000	 63.3566
9.884000	 63.3516
9.902000	 63.401
9.920000	 63.4932
9.937999	 63.5923
9.956000	 63.6599
9.974000	 63.6754
9.992000	 63.6442
10.01	63.5892
10.028	63.5361
10.046	63.5004
10.064	63.4854
10.082	63.4897
10.1	63.5138
10.118	63.5627
10.136	63.64
10.154	63.7401
10.172	63.8439
10.19	63.9217
10.208	63.9477
10.226	63.9124
10.244	63.8279
10.262	63.7235
10.28	63.6289
10.298	63.5635
10.316	63.5316
10.334	63.5263
10.352	63.5383
10.37	63.5593
10.388	63.5823
10.406	63.6007
10.424	63.6105
10.442	63.6127
10.46	63.6126
10.478	63.6157
10.496	63.6228
10.514	63.6303
10.532	63.6316
10.55	63.6231
10.568	63.6051
10.586	63.5812
10.604	63.5558
10.622	63.5332
10.64	63.5175
10.658	63.5127
10.676	63.521
10.694	63.5409
10.712	63.5661
10.73	63.5898
10.748	63.6065
10.766	63.6133
10.784	63.6086
10.802	63.5907
10.82	63.5585
10.838	63.5146
10.856	63.4674
10.874	63.4308
10.892	63.4177
10.91	63.4337
10.928	63.4725
10.946	63.5177
10.964	63.5512
10.982	63.5605
11	63.5448
11.018	63.5127
11.036	63.4755
11.054	63.4421
11.072	63.4149
11.09	63.3921
11.108	63.3713
11.126	63.3533
11.144	63.3416
11.162	63.3409
11.18	63.3537
11.198	63.3794
11.216	63.4146
11.234	63.4545
11.252	63.4942
11.27	63.5288
11.288	63.5521
11.306	63.558
11.324	63.5417
11.342	63.5033
11.36	63.4491
11.378	63.393
11.396	63.3505
11.414	63.336
11.432	63.3561
11.45	63.4077
11.468	63.4784
11.486	63.5507
11.504	63.6067
11.522	63.6323
11.54	63.6217
11.558	63.5775
11.576	63.5112
11.594	63.4392
11.612	63.38
11.63	63.349
11.648	63.3525
11.666	63.3879
11.684	63.444
11.702	63.506
11.72	63.5586
11.738	63.5909
11.756	63.5991
11.774	63.5856
11.792	63.5581
11.81	63.527
11.828	63.5013
11.846	63.4882
11.864	63.4904
11.882	63.5061
11.9	63.5307
11.918	63.5573
11.936	63.5797
11.954	63.5937
11.972	63.5978
11.99	63.5938
12.008	63.5851
12.026	63.576
12.044	63.5706
12.062	63.572
12.08	63.5816
12.098	63.599
12.116	63.6214
12.134	63.6437
12.152	63.6592
12.17	63.6617
12.188	63.6467
12.206	63.6137
12.224	63.5662
12.242	63.5118
12.26	63.4596
12.278	63.4185
12.296	63.3949
12.314	63.3911
12.332	63.4053
12.35	63.4324
12.368	63.4655
12.386	63.4979
12.404	63.5239
12.422	63.5402
12.44	63.5449
12.458	63.5377
12.476	63.5191
12.494	63.4898
12.512	63.4517
12.53	63.4068
12.548	63.3588
12.566	63.3118
12.584	63.27
12.602	63.2373
12.62	63.216
12.638	63.206
12.656	63.2057
12.674	63.2118
12.692	63.2216
12.71	63.2331
12.728	63.2465
12.746	63.2634
12.764	63.2864
12.782	63.3174
12.8	63.3561
12.818	63.4
12.836	63.4443
12.854	63.4825
12.872	63.5088
12.89	63.5189
12.908	63.5116
12.926	63.4889
12.944	63.456
12.962	63.4192
12.98	63.3853
12.998	63.3596
13.016	63.3453
13.034	63.3431
13.052	63.3511
13.07	63.366
13.088	63.383
13.106	63.3973
13.124	63.4042
13.142	63.4007
13.16	63.3854
13.178	63.3589
13.196	63.3235
13.214	63.2828
13.232	63.2408
13.25	63.2011
13.268	63.1661
13.286	63.1372
13.304	63.1145
13.322	63.0976
13.34	63.0856
13.358	63.078
13.376	63.0749
13.394	63.0763
13.412	63.0823
13.43	63.092
13.448	63.1037
13.466	63.1147
13.484	63.1219
13.502	63.123
13.52	63.1166
13.538	63.1032
13.556	63.0845
13.574	63.0634
13.592	63.0428
13.61	63.0247
13.628	63.0104
13.646	62.9996
13.664	62.9915
13.682	62.9849
13.7	62.979
13.718	62.9739
13.736	62.9707
13.754	62.9714
13.772	62.9785
13.79	62.9938
13.808	63.0186
13.826	63.053
13.844	63.0956
13.862	63.1441
13.88	63.1954
13.898	63.246
13.916	63.2923
13.934	63.3306
13.952	63.3571
13.97	63.3686
13.988	63.3628
14.006	63.338
14.024	63.2943
14.042	63.2336
14.06	63.1603
14.078	63.08
14.096	62.9997
14.114	62.9264
14.132	62.8667
14.15	62.8252
14.168	62.8042
14.186	62.8036
14.204	62.8202
14.222	62.8492
14.24	62.8843
14.258	62.9203
14.276	62.9522
14.294	62.9769
14.312	62.9932
14.33	63.0015
14.348	63.004
14.366	63.0029
14.384	63.0012
14.402	63.0009
14.42	63.0037
14.438	63.0107
14.456	63.0222
14.474	63.0383
14.492	63.0592
14.51	63.085
14.528	63.1163
14.546	63.1535
14.564	63.1974
14.582	63.248
14.6	63.3053
14.618	63.3679
14.636	63.4334
14.654	63.4981
14.672	63.5581
14.69	63.6091
14.708	63.6474
14.726	63.6698
14.744	63.6743
14.762	63.6613
14.78	63.6321
14.798	63.589
14.816	63.5348
14.834	63.4723
14.852	63.4045
14.87	63.3339
14.888	63.2626
14.906	63.1928
14.924	63.1265
14.942	63.0656
14.96	63.0118
14.978	62.9666
14.996	62.931
15.014	62.9057
15.032	62.8904
15.05	62.8836
15.068	62.8837
15.086	62.8885
15.104	62.8956
15.122	62.9026
15.14	62.9078
15.158	62.9102
15.176	62.9095
15.194	62.9057
15.212	62.8994
15.23	62.8917
15.248	62.8836
15.266	62.8764
15.284	62.871
15.302	62.8682
15.32	62.8686
15.338	62.8726
15.356	62.8804
15.374	62.8925
15.392	62.9089
15.41	62.9289
15.428	62.9514
15.446	62.9736
15.464	62.9924
15.482	63.0048
15.5	63.0069
15.518	62.9942
15.536	62.9643
15.554	62.916
15.572	62.8491
15.59	62.7668
15.608	62.674
15.626	62.5763
15.644	62.4815
15.662	62.3988
15.68	62.3348
15.698	62.2954
15.716	62.2857
15.734	62.306
15.752	62.3543
15.77	62.4268
15.788	62.5146
15.806	62.6089
15.824	62.7017
15.842	62.783
15.86	62.8448
15.878	62.8837
15.896	62.8975
15.914	62.8889
15.932	62.8638
15.95	62.8286
15.968	62.7927
15.986	62.7672
16.004	62.7592
16.022	62.7756
16.04	62.8217
16.058	62.897
16.076	63.0002
16.094	63.1268
16.112	63.2687
16.13	63.4195
16.148	63.5706
16.166	63.7125
16.184	63.8402
16.202	63.9482
16.22	64.0326
16.238	64.093
16.256	64.1294
16.274	64.1438
16.292	64.1382
16.31	64.1147
16.328	64.076
16.346	64.024
16.364	63.9604
16.382	63.8864
16.4	63.8027
16.418	63.7097
16.436	63.6083
16.454	63.5002
16.472	63.3868
16.49	63.2704
16.508	63.1536
16.526	63.0381
16.544	62.9274
16.562	62.8235
16.58	62.7282
16.598	62.644
16.616	62.5717
16.634	62.5119
16.652	62.4644
16.67	62.4278
16.688	62.401
16.706	62.3802
16.724	62.3633
16.742	62.347
16.76	62.3264
16.778	62.2991
16.796	62.2617
16.814	62.2124
16.832	62.1504
16.85	62.0766
16.868	61.9935
16.886	61.9026
16.904	61.8108
16.922	61.7217
16.94	61.6404
16.958	61.5743
16.976	61.5261
16.994	61.5013
17.012	61.5018
17.03	61.5294
17.048	61.584
17.066	61.6641
17.084	61.7681
17.102	61.8909
17.12	62.0301
17.138	62.1797
17.156	62.336
17.174	62.4954
17.192	62.6528
17.21	62.8067
17.228	62.9533
17.246	63.091
17.264	63.2185
17.282	63.3335
17.3	63.4355
17.318	63.5233
17.336	63.5961
17.354	63.6534
17.372	63.6948
17.39	63.7204
17.408	63.7298
17.426	63.7246
17.444	63.7056
17.462	63.6752
17.48	63.6343
17.498	63.5857
17.516	63.5309
17.534	63.4714
17.552	63.4096
17.57	63.3461
17.588	63.2831
17.606	63.2212
17.624	63.1615
17.642	63.1052
17.66	63.0531
17.678	63.007
17.696	62.9676
17.714	62.9371
17.732	62.9164
17.75	62.9069
17.768	62.9101
17.786	62.9266
17.804	62.9568
17.822	63.0005
17.84	63.057
17.858	63.1246
17.876	63.2019
17.894	63.285
17.912	63.3728
17.93	63.4597
17.948	63.5446
17.966	63.6221
17.984	63.6912
18.002	63.7481
18.02	63.7918
18.038	63.8207
18.056	63.8349
18.074	63.8342
18.092	63.8205
18.11	63.7944
18.128	63.7596
18.146	63.7171
18.164	63.6706
18.182	63.6216
18.2	63.5727
18.218	63.526
18.236	63.483
18.254	63.4452
18.272	63.4133
18.29	63.388
18.308	63.3693
18.326	63.3567
18.344	63.3499
18.362	63.3478
18.38	63.3499
18.398	63.3552
18.416	63.3627
18.434	63.3713
18.452	63.3805
18.47	63.3895
18.488	63.3983
18.506	63.4066
18.524	63.415
18.542	63.4234
18.56	63.4329
18.578	63.4434
18.596	63.456
18.614	63.4708
18.632	63.4884
18.65	63.5089
18.668	63.5322
18.686	63.5582
18.704	63.5859
18.722	63.615
18.74	63.6441
18.758	63.6728
18.776	63.6997
18.794	63.7245
18.812	63.7457
18.83	63.7632
18.848	63.7763
18.866	63.785
18.884	63.7892
18.902	63.7892
18.92	63.7854
18.938	63.7783
18.956	63.7687
18.974	63.7571
18.992	63.7444
19.01	63.7308
19.028	63.7172
19.046	63.7039
19.064	63.6914
19.082	63.6796
19.1	63.669
19.118	63.6594
19.136	63.6508
19.154	63.6429
19.172	63.6357
19.19	63.629
19.208	63.6223
19.226	63.6156
19.244	63.6086
19.262	63.6014
19.28	63.5935
19.298	63.5849
19.316	63.5751
19.334	63.564
19.352	63.5507
19.37	63.5354
19.388	63.517
19.406	63.4956
19.424	63.4703
19.442	63.4411
19.46	63.4072
19.478	63.3685
19.496	63.3248
19.514	63.2759
19.532	63.2221
19.55	63.1636
19.568	63.1011
19.586	63.0351
19.604	62.9663
19.622	62.896
19.64	62.8243
19.658	62.7534
19.676	62.6831
19.694	62.6154
19.712	62.5501
19.73	62.4888
19.748	62.4317
19.766	62.3794
19.784	62.3323
19.802	62.2905
19.82	62.2542
19.838	62.2232
19.856	62.1972
19.874	62.1761
19.892	62.1595
19.91	62.1473
19.928	62.1388
19.946	62.134
19.964	62.1324
19.982	62.134
20	62.1384
20.018	62.1455
20.036	62.1553
20.054	62.1676
20.072	62.1823
20.09	62.1995
20.108	62.219
20.126	62.2407
20.144	62.2645
20.162	62.2902
20.18	62.3176
20.198	62.3464
20.216	62.376
20.234	62.4065
20.252	62.4369
20.27	62.4676
20.288	62.4973
20.306	62.5262
20.324	62.5537
20.342	62.5794
20.36	62.6035
20.378	62.6256
20.396	62.6458
20.414	62.6644
20.432	62.6813
20.45	62.6972
20.468	62.7122
20.486	62.7267
20.504	62.7415
20.522	62.7563
20.54	62.772
20.558	62.7886
20.576	62.8064
20.594	62.8254
20.612	62.8457
20.63	62.8672
20.648	62.8898
20.666	62.9128
20.684	62.9365
20.702	62.9598
20.72	62.9825
20.738	63.0043
20.756	63.024
20.774	63.0419
20.792	63.0571
20.81	63.0697
20.828	63.0792
20.846	63.0854
20.864	63.0882
20.882	63.0875
20.9	63.0832
20.918	63.0756
20.936	63.0648
20.954	63.051
20.972	63.035
20.99	63.0166
21.008	62.9969
21.026	62.9765
21.044	62.9555
21.062	62.9355
21.08	62.9161
21.098	62.8988
21.116	62.8841
21.134	62.8722
21.152	62.8644
21.17	62.8605
21.188	62.8611
21.206	62.8666
21.224	62.8766
21.242	62.8912
21.26	62.9105
21.278	62.933
21.296	62.959
21.314	62.9874
21.332	63.0164
21.35	63.0467
21.368	63.0754
21.386	63.1021
21.404	63.1262
21.422	63.1449
21.44	63.1591
21.458	63.1667
21.476	63.1667
21.494	63.1594
21.512	63.1436
21.53	63.1191
21.548	63.0867
21.566	63.0462
21.584	62.9978
21.602	62.9436
21.62	62.8829
21.638	62.8177
21.656	62.7502
21.674	62.6793
21.692	62.6087
21.71	62.5389
21.728	62.4704
21.746	62.4064
21.764	62.346
21.782	62.2909
21.8	62.2429
21.818	62.2012
21.836	62.167
21.854	62.1406
21.872	62.1217
21.89	62.1103
21.908	62.1067
21.926	62.1098
21.944	62.119
21.962	62.1346
21.98	62.1547
21.998	62.1794
22.016	62.2081
22.034	62.2393
22.052	62.2735
22.07	62.3096
22.088	62.3466
22.106	62.3851
22.124	62.4238
22.142	62.4627
22.16	62.5016
22.178	62.5399
22.196	62.5777
22.214	62.6146
22.232	62.6501
22.25	62.6844
22.268	62.7169
22.286	62.7473
22.304	62.7756
22.322	62.801
22.34	62.8235
22.358	62.8428
22.376	62.8581
22.394	62.8695
22.412	62.8769
22.43	62.8793
22.448	62.8773
22.466	62.8704
22.484	62.8585
22.502	62.8416
22.52	62.8201
22.538	62.7938
22.556	62.7628
22.574	62.7283
22.592	62.6903
22.61	62.649
22.628	62.6062
22.646	62.5616
22.664	62.5157
22.682	62.4703
22.7	62.4248
22.718	62.38
22.736	62.337
22.754	62.2953
22.772	62.2555
22.79	62.2181
22.808	62.1827
22.826	62.1494
22.844	62.1183
22.862	62.0893
22.88	62.0619
22.898	62.0356
22.916	62.0108
22.934	61.9868
22.952	61.9634
22.97	61.9407
22.988	61.9183
23.006	61.8957
23.024	61.8732
23.042	61.8514
23.06	61.8298
23.078	61.8088
23.096	61.79
23.114	61.7726
23.132	61.7574
23.15	61.7466
23.168	61.7398
23.186	61.7374
23.204	61.7416
23.222	61.7521
23.24	61.7692
23.258	61.7946
23.276	61.8283
23.294	61.8702
23.312	61.9211
23.33	61.9814
23.348	62.0503
23.366	62.1271
23.384	62.2124
23.402	62.3053
23.42	62.403
23.438	62.5063
23.456	62.6144
23.474	62.7232
23.492	62.8329
23.51	62.9434
23.528	63.0502
23.546	63.1525
23.564	63.2513
23.582	63.3423
23.6	63.4242
23.618	63.4984
23.636	63.5619
23.654	63.6132
23.672	63.6534
23.69	63.682
23.708	63.6983
23.726	63.7022
23.744	63.6954
23.762	63.679
23.78	63.6515
23.798	63.6159
23.816	63.5757
23.834	63.5283
23.852	63.477
23.87	63.4267
23.888	63.3754
23.906	63.3248
23.924	63.2802
23.942	63.2414
23.96	63.208
23.978	63.1838
23.996	63.1704
24.014	63.1661
24.032	63.1732
24.05	63.1935
24.068	63.226
24.086	63.2705
24.104	63.3274
24.122	63.3974
24.14	63.4784
24.158	63.5681
24.176	63.6682
24.194	63.777
24.212	63.8896
24.23	64.0061
24.248	64.1272
24.266	64.2479
24.284	64.3657
24.302	64.4834
24.32	64.5968
24.338	64.7016
24.356	64.8006
24.374	64.8917
24.392	64.9712
24.41	65.0397
24.428	65.0974
24.446	65.1422
24.464	65.1727
24.482	65.1903
24.5	65.1944
24.518	65.1849
24.536	65.1614
24.554	65.1248
24.572	65.0762
24.59	65.0147
24.608	64.941
24.626	64.8574
24.644	64.7646
24.662	64.6615
24.68	64.5504
24.698	64.4334
24.716	64.3089
24.734	64.1783
24.752	64.0435
24.77	63.9048
24.788	63.7615
24.806	63.6153
24.824	63.4669
24.842	63.3154
24.86	63.162
24.878	63.0083
24.896	62.854
24.914	62.6991
24.932	62.5442
24.95	62.39
24.968	62.236
24.986	62.0823
25.004	61.9293
25.022	61.7769
25.04	61.625
25.058	61.4739
25.076	61.3237
25.094	61.1742
25.112	61.0257
25.13	60.8788
25.148	60.7327
25.166	60.588
25.184	60.4461
25.202	60.3069
25.22	60.1697
25.238	60.0365
25.256	59.9096
25.274	59.7881
25.292	59.6721
25.31	59.5635
25.328	59.4635
25.346	59.3711
25.364	59.2864
25.382	59.2098
25.4	59.1403
25.418	59.0785
25.436	59.0259
25.454	58.9835
25.472	58.9494
25.49	58.9258
25.508	58.9155
25.526	58.9187
25.544	58.9339
25.562	58.964
25.58	59.0113
25.598	59.0744
25.616	59.1536
25.634	59.251
25.652	59.3678
25.67	59.502
25.688	59.6554
25.706	59.8304
25.724	60.027
25.742	60.2442
25.76	60.4832
25.778	60.745
25.796	61.0303
25.814	61.3376
25.832	61.6653
25.85	62.0129
25.868	62.3829
25.886	62.7712
25.904	63.173
25.922	63.5886
25.94	64.0204
25.958	64.4621
25.976	64.9074
25.994	65.3604
26.012	65.8202
26.03	66.2785
26.048	66.7283
26.066	67.1768
26.084	67.6196
26.102	68.0479
26.12	68.4564
26.138	68.8529
26.156	69.231
26.174	69.5819
26.192	69.9032
26.21	70.2007
26.228	70.4686
26.246	70.7007
26.264	70.8973
26.282	71.0611
26.3	71.1883
26.318	71.2751
26.336	71.3209
26.354	71.3279
26.372	71.2978
26.39	71.2318
26.408	71.1282
26.426	70.9885
26.444	70.8156
26.462	70.6118
26.48	70.3733
26.498	70.1036
26.516	69.8079
26.534	69.4902
26.552	69.146
26.57	68.7781
26.588	68.3907
26.606	67.9867
26.624	67.5638
26.642	67.1222
26.66	66.6627
26.678	66.1855
26.696	65.6896
26.714	65.1765
26.732	64.6478
26.75	64.1047
26.768	63.5466
26.786	62.9728
26.804	62.3828
26.822	61.7738
26.84	61.1435
26.858	60.5004
26.876	59.8535
26.894	59.2038
26.912	58.5397
26.93	57.8782
26.948	57.2378
26.966	56.6092
26.984	55.9489
27.002	55.3373
27.02	54.8626
27.028	54.7334