File: Bakgrunnsmateriale/MATLAB/FTIR/ftir_data/subAa/Mapping_121/BZ1503107-1_t110_cm-1.asc
PE IR       SPECTRUM    SPECTRUM    ASCII       PEDS        1.60
  -1
BZ3C70~1.ASC
17/04/07
22:14:24.00
17/04/07
22:14:24.00
tln
$BZ1503107-1_t0110$<tbV0>[-13.0,10.4,8.0,0.0,27,1,0]
370
64

2002,4.07
MIRTGS : RIGHTBACK : INTERNAL 2
MIR : ON : INTERNAL 2
OPTKBR

0.200000
8
8.000000
FILLER
RATIO
SPECTRUM
UNLOCKED 256

DOUBLE
64
COMBINED
1
0
0

1.000000
RATIO

1
0
TRUE
51149
0
LEFT NOT FITTED RIGHT NOT FITTED 0
NONE
NONE
15600
12
4.427000
51148
TRUE
1 0 8 72 0 0 0 0

15798

#HDR
-1
-1
#GR
CM-1
%T
2.38419e-05
0.0
5000
-1.000000
4631
8
91.1319
57.7039
#DATA
5000	64.329
4996	64.3214
4992	63.6913
4988	63.6819
4984	64.822
4980	64.8089
4976	63.5461
4972	63.1288
4968	63.972
4964	64.8181
4960	64.6718
4956	64.335
4952	65.052
4948	65.5071
4944	64.4187
4940	64.0147
4936	64.5776
4932	64.5122
4928	64.5007
4924	64.6336
4920	64.4805
4916	64.267
4912	64.4279
4908	65.081
4904	64.9331
4900	64.1971
4896	64.2856
4892	64.756
4888	64.8102
4884	64.7795
4880	64.8344
4876	64.8086
4872	64.8108
4868	64.7979
4864	64.62
4860	64.3811
4856	64.3486
4852	64.3669
4848	64.3421
4844	64.5784
4840	64.8906
4836	65.1173
4832	65.2724
4828	65.1214
4824	64.906
4820	64.9947
4816	65.1694
4812	65.0942
4808	64.9486
4804	64.9821
4800	64.9508
4796	64.8308
4792	65.0024
4788	65.3695
4784	65.5121
4780	65.394
4776	65.1399
4772	64.9577
4768	64.9824
4764	64.974
4760	64.9294
4756	64.8978
4752	64.8819
4748	65.1372
4744	65.4394
4740	65.3824
4736	65.1691
4732	65.1364
4728	65.1947
4724	65.1755
4720	65.0653
4716	65.0376
4712	65.1982
4708	65.3018
4704	65.225
4700	65.1671
4696	65.152
4692	65.2463
4688	65.6152
4684	65.7751
4680	65.4837
4676	65.2609
4672	65.2898
4668	65.3393
4664	65.2537
4660	65.0098
4656	64.9135
4652	65.0719
4648	65.1321
4644	65.1216
4640	65.0457
4636	64.9086
4632	64.9985
4628	65.0482
4624	64.9369
4620	64.9067
4616	64.783
4612	64.4874
4608	64.2956
4604	64.176
4600	64.1028
4596	64.134
4592	64.0963
4588	64.1526
4584	64.2771
4580	64.2459
4576	64.1484
4572	64.0721
4568	64.0371
4564	64.0197
4560	63.9683
4556	63.8673
4552	63.9086
4548	63.9375
4544	63.6999
4540	63.5183
4536	63.5283
4532	63.5276
4528	63.61
4524	63.8199
4520	63.9693
4516	64.0925
4512	64.1024
4508	64.011
4504	64.0723
4500	64.0943
4496	63.8574
4492	63.359
4488	62.944
4484	62.8994
4480	63.0402
4476	63.0087
4472	63.0612
4468	63.26
4464	63.4039
4460	64.0612
4456	64.6141
4452	65.6422
4448	72.5022
4444	86.5177
4440	90.7985
4436	84.8121
4432	75.9818
4428	68.4501
4424	67.5493
4420	67.2073
4416	65.4817
4412	64.3625
4408	63.9989
4404	64.0095
4400	63.7207
4396	63.3916
4392	63.1498
4388	63.2675
4384	63.584
4380	63.6501
4376	63.6864
4372	63.8419
4368	63.9613
4364	64.0812
4360	64.2164
4356	64.2603
4352	64.1936
4348	64.0863
4344	63.8969
4340	63.8265
4336	63.9408
4332	63.9474
4328	63.9727
4324	64.228
4320	64.3877
4316	64.2287
4312	64.0134
4308	63.9779
4304	64.0804
4300	64.2658
4296	64.4783
4292	64.6213
4288	64.6456
4284	64.5535
4280	64.4119
4276	64.3406
4272	64.377
4268	64.3453
4264	64.2488
4260	64.3261
4256	64.5538
4252	64.8179
4248	64.9771
4244	64.8944
4240	64.7799
4236	64.7902
4232	64.8114
4228	64.7685
4224	64.7263
4220	64.7677
4216	64.8889
4212	64.9823
4208	64.9923
4204	65.0126
4200	65.0222
4196	65.009
4192	65.0558
4188	65.0725
4184	65.0543
4180	65.123
4176	65.1705
4172	65.124
4168	65.0055
4164	64.8568
4160	64.83
4156	65.0061
4152	65.2066
4148	65.1472
4144	65.0235
4140	65.088
4136	65.1366
4132	65.1041
4128	65.0835
4124	65.1009
4120	65.22
4116	65.346
4112	65.2565
4108	65.0582
4104	65.0944
4100	65.2385
4096	65.2936
4092	65.3367
4088	65.303
4084	65.1959
4080	65.1498
4076	65.1772
4072	65.2269
4068	65.2207
4064	65.1277
4060	65.0259
4056	65.0059
4052	64.9525
4048	64.8709
4044	65.0104
4040	65.2178
4036	65.2729
4032	65.3237
4028	65.3306
4024	65.1339
4020	64.9541
4016	64.9501
4012	64.9304
4008	64.8415
4004	64.8615
4000	64.9436
3996	64.899
3992	64.8684
3988	64.9051
3984	64.8686
3980	64.8176
3976	64.8268
3972	64.9176
3968	65.0143
3964	64.9855
3960	64.8433
3956	64.776
3952	64.901
3948	64.9799
3944	64.9668
3940	65.1017
3936	65.3003
3932	65.3445
3928	65.1564
3924	64.9223
3920	64.8162
3916	64.6827
3912	64.641
3908	64.8302
3904	64.9273
3900	64.8222
3896	64.6927
3892	64.6726
3888	64.7462
3884	64.7773
3880	64.8212
3876	64.9208
3872	64.9522
3868	64.9713
3864	65.0061
3860	64.9513
3856	65.0387
3852	65.2858
3848	65.3288
3844	65.2454
3840	65.217
3836	65.1255
3832	64.9302
3828	64.8697
3824	65.0724
3820	65.1479
3816	64.8941
3812	64.7476
3808	64.8424
3804	64.933
3800	64.9792
3796	64.9941
3792	64.9724
3788	64.9859
3784	65.0627
3780	65.1388
3776	65.1372
3772	65.0242
3768	64.9143
3764	64.8643
3760	64.8329
3756	64.8475
3752	64.8607
3748	64.8079
3744	64.798
3740	64.8881
3736	64.9441
3732	64.9353
3728	64.9739
3724	65.0712
3720	65.1351
3716	65.1022
3712	65.0366
3708	65.0632
3704	65.2221
3700	65.3443
3696	65.2225
3692	65.0091
3688	64.9899
3684	65.0909
3680	65.1526
3676	65.2135
3672	65.2262
3668	65.1875
3664	65.0863
3660	64.9188
3656	64.901
3652	65.0185
3648	65.1077
3644	65.1573
3640	65.2165
3636	65.2651
3632	65.2387
3628	65.1304
3624	65.0016
3620	64.9048
3616	64.9157
3612	65.0438
3608	65.0492
3604	64.9832
3600	65.0837
3596	65.2209
3592	65.1968
3588	65.0667
3584	64.9873
3580	64.934
3576	64.9945
3572	65.1622
3568	65.195
3564	65.1091
3560	64.9849
3556	64.9125
3552	64.9335
3548	64.9882
3544	65.0549
3540	65.0826
3536	65.0815
3532	65.0847
3528	65.0231
3524	64.9177
3520	64.9207
3516	65.016
3512	65.0696
3508	65.079
3504	65.0661
3500	65.0009
3496	64.8962
3492	64.8539
3488	64.9218
3484	65.0085
3480	65.0742
3476	65.1178
3472	65.1392
3468	65.0913
3464	64.9662
3460	64.9344
3456	64.9439
3452	64.8868
3448	64.8257
3444	64.8365
3440	64.9874
3436	65.1007
3432	64.9971
3428	64.8527
3424	64.8873
3420	65.0223
3416	65.0834
3412	65.0588
3408	64.9854
3404	64.8709
3400	64.7862
3396	64.7946
3392	64.8366
3388	64.8785
3384	64.9919
3380	65.0974
3376	65.0367
3372	64.9332
3368	64.8879
3364	64.8489
3360	64.8759
3356	64.9404
3352	64.914
3348	64.8298
3344	64.8442
3340	64.9181
3336	64.9242
3332	64.9085
3328	64.9112
3324	64.9408
3320	65.018
3316	65.0186
3312	64.8584
3308	64.7632
3304	64.9074
3300	65.0661
3296	65.0271
3292	64.918
3288	64.8944
3284	64.9272
3280	64.902
3276	64.8422
3272	64.8492
3268	64.8996
3264	64.9913
3260	65.1217
3256	65.2295
3252	65.2419
3248	65.1571
3244	65.0958
3240	65.053
3236	64.9517
3232	64.8331
3228	64.7534
3224	64.7512
3220	64.8197
3216	64.868
3212	64.8519
3208	64.8597
3204	64.9468
3200	65.0178
3196	64.9841
3192	64.9011
3188	64.835
3184	64.8224
3180	64.9012
3176	65.003
3172	65.0432
3168	65.0169
3164	64.9389
3160	64.8641
3156	64.8087
3152	64.7449
3148	64.7235
3144	64.741
3140	64.7823
3136	64.8744
3132	64.8803
3128	64.8054
3124	64.7977
3120	64.8028
3116	64.7833
3112	64.7693
3108	64.7571
3104	64.7428
3100	64.7623
3096	64.8772
3092	65.0023
3088	64.9858
3084	64.8694
3080	64.8038
3076	64.7586
3072	64.683
3068	64.6954
3064	64.8181
3060	64.9422
3056	64.9711
3052	64.9865
3048	65.0236
3044	64.9596
3040	64.8926
3036	64.8595
3032	64.7675
3028	64.748
3024	64.826
3020	64.8708
3016	64.9135
3012	64.9032
3008	64.7771
3004	64.7081
3000	64.7581
2996	64.8176
2992	64.8197
2988	64.7327
2984	64.6639
2980	64.72
2976	64.7771
2972	64.7837
2968	64.7684
2964	64.69
2960	64.6096
2956	64.617
2952	64.6175
2948	64.5774
2944	64.6061
2940	64.636
2936	64.635
2932	64.6574
2928	64.6558
2924	64.6325
2920	64.6354
2916	64.6152
2912	64.5588
2908	64.5565
2904	64.6169
2900	64.6766
2896	64.6994
2892	64.6718
2888	64.6805
2884	64.6831
2880	64.5643
2876	64.4686
2872	64.5219
2868	64.6245
2864	64.6861
2860	64.7084
2856	64.6597
2852	64.5074
2848	64.4432
2844	64.5479
2840	64.6135
2836	64.627
2832	64.6589
2828	64.6962
2824	64.7263
2820	64.7446
2816	64.7939
2812	64.8307
2808	64.8012
2804	64.7334
2800	64.6681
2796	64.6704
2792	64.7247
2788	64.7648
2784	64.7638
2780	64.7223
2776	64.6941
2772	64.6961
2768	64.7658
2764	64.88
2760	64.8532
2756	64.7655
2752	64.7718
2748	64.7809
2744	64.7691
2740	64.7678
2736	64.7493
2732	64.7404
2728	64.7928
2724	64.8683
2720	64.8632
2716	64.8218
2712	64.8165
2708	64.7652
2704	64.7
2700	64.7251
2696	64.7939
2692	64.7842
2688	64.7313
2684	64.6974
2680	64.6619
2676	64.6741
2672	64.7016
2668	64.6703
2664	64.6067
2660	64.5794
2656	64.6316
2652	64.7377
2648	64.7956
2644	64.769
2640	64.7394
2636	64.727
2632	64.7137
2628	64.7072
2624	64.6881
2620	64.639
2616	64.605
2612	64.5854
2608	64.5345
2604	64.5088
2600	64.5466
2596	64.59
2592	64.6117
2588	64.6198
2584	64.6394
2580	64.6711
2576	64.6788
2572	64.643
2568	64.5875
2564	64.5722
2560	64.5908
2556	64.5977
2552	64.5645
2548	64.4796
2544	64.4401
2540	64.5035
2536	64.5796
2532	64.6186
2528	64.6092
2524	64.5599
2520	64.5296
2516	64.5432
2512	64.5791
2508	64.578
2504	64.5511
2500	64.6013
2496	64.6903
2492	64.6826
2488	64.6147
2484	64.58
2480	64.585
2476	64.6016
2472	64.6057
2468	64.6113
2464	64.6254
2460	64.6633
2456	64.6991
2452	64.6474
2448	64.5504
2444	64.4971
2440	64.4995
2436	64.5357
2432	64.6006
2428	64.66
2424	64.6372
2420	64.596
2416	64.5644
2412	64.5022
2408	64.5075
2404	64.5802
2400	64.6377
2396	64.6519
2392	64.5898
2388	64.5173
2384	64.5463
2380	64.6085
2376	64.5739
2372	64.5177
2368	64.517
2364	64.5244
2360	64.5524
2356	64.587
2352	64.5314
2348	64.4185
2344	64.3746
2340	64.4095
2336	64.4902
2332	64.5564
2328	64.5416
2324	64.5225
2320	64.5078
2316	64.4741
2312	64.4903
2308	64.5141
2304	64.5028
2300	64.5059
2296	64.4963
2292	64.4484
2288	64.3891
2284	64.3363
2280	64.3362
2276	64.3841
2272	64.4163
2268	64.3942
2264	64.3903
2260	64.4406
2256	64.428
2252	64.3874
2248	64.4081
2244	64.3826
2240	64.3336
2236	64.3704
2232	64.399
2228	64.4021
2224	64.4171
2220	64.3794
2216	64.3393
2212	64.3636
2208	64.3535
2204	64.263
2200	64.2165
2196	64.2449
2192	64.2708
2188	64.3076
2184	64.3719
2180	64.3646
2176	64.3083
2172	64.3615
2168	64.412
2164	64.3258
2160	64.2431
2156	64.2282
2152	64.2279
2148	64.2519
2144	64.2941
2140	64.2901
2136	64.2653
2132	64.279
2128	64.2726
2124	64.236
2120	64.2669
2116	64.3205
2112	64.2911
2108	64.2735
2104	64.3309
2100	64.3569
2096	64.3118
2092	64.2564
2088	64.2272
2084	64.2303
2080	64.2566
2076	64.2624
2072	64.2248
2068	64.2057
2064	64.2625
2060	64.3264
2056	64.331
2052	64.3125
2048	64.2738
2044	64.1828
2040	64.1232
2036	64.1702
2032	64.2071
2028	64.188
2024	64.1818
2020	64.1852
2016	64.2162
2012	64.2393
2008	64.2099
2004	64.1872
2000	64.1791
1996	64.1905
1992	64.2166
1988	64.1833
1984	64.1323
1980	64.1402
1976	64.175
1972	64.1752
1968	64.1257
1964	64.1035
1960	64.157
1956	64.2416
1952	64.2524
1948	64.1733
1944	64.1095
1940	64.0994
1936	64.0677
1932	64.0188
1928	64.0204
1924	64.0532
1920	64.0557
1916	64.0247
1912	64.0718
1908	64.1546
1904	64.1425
1900	64.109
1896	64.0973
1892	64.0815
1888	64.0496
1884	63.9857
1880	63.9805
1876	64.045
1872	64.0887
1868	64.0762
1864	64.0515
1860	64.0872
1856	64.1175
1852	64.0743
1848	63.9968
1844	63.9584
1840	64.0281
1836	64.1019
1832	64.0836
1828	64.0393
1824	64.0254
1820	64.0259
1816	64.0091
1812	63.9994
1808	64.0216
1804	64.0215
1800	63.986
1796	63.9755
1792	63.9618
1788	63.8685
1784	63.7743
1780	63.7959
1776	63.854
1772	63.8601
1768	63.8748
1764	63.8824
1760	63.8294
1756	63.7382
1752	63.6502
1748	63.6259
1744	63.6513
1740	63.6284
1736	63.5481
1732	63.5173
1728	63.5922
1724	63.7064
1720	63.7751
1716	63.7466
1712	63.6635
1708	63.6754
1704	63.7657
1700	63.7552
1696	63.696
1692	63.7087
1688	63.7371
1684	63.756
1680	63.7344
1676	63.6512
1672	63.6161
1668	63.6746
1664	63.745
1660	63.7535
1656	63.7375
1652	63.7747
1648	63.7963
1644	63.7506
1640	63.735
1636	63.7238
1632	63.6539
1628	63.6415
1624	63.7194
1620	63.7721
1616	63.7549
1612	63.749
1608	63.7815
1604	63.7327
1600	63.6387
1596	63.6584
1592	63.7287
1588	63.707
1584	63.6021
1580	63.5093
1576	63.4903
1572	63.5239
1568	63.5622
1564	63.543
1560	63.5129
1556	63.5236
1552	63.4871
1548	63.452
1544	63.4993
1540	63.5304
1536	63.5144
1532	63.5288
1528	63.5726
1524	63.5547
1520	63.4894
1516	63.4864
1512	63.5142
1508	63.52
1504	63.536
1500	63.5899
1496	63.6627
1492	63.6715
1488	63.6066
1484	63.5162
1480	63.4547
1476	63.4405
1472	63.4351
1468	63.4294
1464	63.4049
1460	63.3788
1456	63.3614
1452	63.3848
1448	63.4752
1444	63.4835
1440	63.4233
1436	63.41
1432	63.3706
1428	63.3301
1424	63.3617
1420	63.3816
1416	63.368
1412	63.4048
1408	63.4459
1404	63.4257
1400	63.3705
1396	63.295
1392	63.2707
1388	63.3236
1384	63.3872
1380	63.3738
1376	63.2667
1372	63.2219
1368	63.306
1364	63.3569
1360	63.3167
1356	63.2905
1352	63.3034
1348	63.3195
1344	63.3167
1340	63.2922
1336	63.2849
1332	63.3273
1328	63.3446
1324	63.3007
1320	63.2919
1316	63.3141
1312	63.2859
1308	63.2327
1304	63.1864
1300	63.1243
1296	63.0958
1292	63.1269
1288	63.1545
1284	63.1723
1280	63.1714
1276	63.1331
1272	63.0959
1268	63.0592
1264	63.0538
1260	63.1151
1256	63.2039
1252	63.2601
1248	63.2188
1244	63.1497
1240	63.1271
1236	63.0794
1232	63.0354
1228	63.0718
1224	63.17
1220	63.2189
1216	63.1517
1212	63.0759
1208	63.0516
1204	63.0846
1200	63.1375
1196	63.1168
1192	63.072
1188	63.0399
1184	63.0024
1180	63.0136
1176	62.9989
1172	62.9055
1168	62.8783
1164	62.9543
1160	63.0383
1156	63.0722
1152	63.0523
1148	63.0718
1144	63.1202
1140	63.0779
1136	63.0105
1132	63.0059
1128	63.0188
1124	63.0554
1120	63.0812
1116	63.0105
1112	62.9318
1108	62.9549
1104	63.0522
1100	63.1064
1096	63.0718
1092	62.9881
1088	62.9066
1084	62.8894
1080	62.8778
1076	62.8675
1072	62.9404
1068	63.0016
1064	63.0065
1060	63.0153
1056	62.9631
1052	62.8386
1048	62.8162
1044	62.9293
1040	62.9565
1036	62.8814
1032	62.8909
1028	62.9515
1024	62.9323
1020	62.844
1016	62.802
1012	62.8306
1008	62.8467
1004	62.8793
1000	62.9098
996	 62.9164
992	 62.9334
988	 62.918
984	 62.9003
980	 62.903
976	 62.9267
972	 62.9362
968	 62.8556
964	 62.7646
960	 62.7502
956	 62.8167
952	 62.9296
948	 62.9992
944	 63.0375
940	 63.0393
936	 62.9545
932	 62.9489
928	 63.052
924	 63.0701
920	 63.0331
916	 63.0057
912	 62.9385
908	 62.8054
904	 62.6398
900	 62.5299
896	 62.478
892	 62.5642
888	 62.7315
884	 62.7306
880	 62.6665
876	 62.776
872	 62.9565
868	 62.9812
864	 62.8411
860	 62.6862
856	 62.6429
852	 62.6776
848	 62.7072
844	 62.7078
840	 62.6687
836	 62.6611
832	 62.7084
828	 62.7416
824	 62.87
820	 63.0487
816	 63.0266
812	 62.8819
808	 62.8077
804	 62.8296
800	 62.9298
796	 63.0409
792	 63.0377
788	 62.9844
784	 62.9012
780	 62.7333
776	 62.608
772	 62.5905
768	 62.603
764	 62.6348
760	 62.6821
756	 62.6994
752	 62.7525
748	 62.8647
744	 62.8712
740	 62.7371
736	 62.6228
732	 62.6266
728	 62.6704
724	 62.677
720	 62.5862
716	 62.3469
712	 62.2067
708	 62.223
704	 62.2001
700	 62.1227
696	 62.0673
692	 62.1435
688	 62.2597
684	 62.2506
680	 62.2158
676	 62.3585
672	 62.5271
668	 62.4756
664	 62.4438
660	 62.5302
656	 62.5227
652	 62.4756
648	 62.5334
644	 62.6837
640	 62.7705
636	 62.6229
632	 62.2846
628	 61.972
624	 61.9257
620	 62.0229
616	 61.8371
612	 61.677
608	 62.062
604	 62.2954
600	 62.1785
596	 62.4364
592	 62.5602
588	 62.4023
584	 62.4136
580	 62.2555
576	 62.3443
572	 62.7794
568	 62.8345
564	 62.7814
560	 62.6753
556	 62.3087
552	 62.2983
548	 62.4347
544	 62.0197
540	 61.6258
536	 62.0942
532	 62.7686
528	 62.7407
524	 62.4632
520	 62.3173
516	 61.9618
512	 61.9862
508	 62.4603
504	 62.217
500	 61.4071
496	 61.2525
492	 61.8263
488	 62.3588
484	 62.3061
480	 61.8801
476	 61.8032
472	 61.2019
468	 59.8419
464	 59.7005
460	 60.532
456	 60.9527
452	 60.8546
448	 59.9131
444	 59.5453
440	 60.4826
436	 61.294
432	 61.2815
428	 60.6713
424	 60.6289
420	 61.4178
416	 61.2149
412	 59.1371
408	 57.711
404	 59.04
400	 60.7006
396	 62.678
392	 64.7473
388	 64.5055
384	 64.6401
380	 64.1146
376	 60.6427
372	 57.7039
370	 59.7376