File: Bakgrunnsmateriale/MATLAB/FTIR/ftir_data/subAa/Mapping_121/BZ1503107-1_t13.asc
PE IR       SPECTRUM    SPECTRUM    ASCII       PEDS        1.60
  -1
BZ255B~1.ASC
17/04/07
14:16:31.00
17/04/07
14:16:57.00
tln
$BZ1503107-1_t0013$<tbV0>[10.4,-10.4,8.0,0.0,27,1,0]
27.028
64

2002,4.07
MIRTGS : RIGHTBACK : INTERNAL 2
MIR : ON : INTERNAL 2
OPTKBR

0.200000
8
8.000000
FILLER
RATIO
SPECTRUM
UNLOCKED 256

DOUBLE
64
COMBINED
1
0
0

0.002000
RATIO

1
0
TRUE
51149
0
LEFT NOT FITTED RIGHT NOT FITTED 0
NONE
NONE
15600
12
4.427000
51148
TRUE
1 0 8 72 0 0 0 0

15798

#HDR
-1
-1
#GR
µM
%T
2.38419e-05
0.0
2.000000
0.002000
12515
8
76.6111
46.3107
#DATA
2.000000	 64.1522
2.018000	 65.1032
2.036000	 63.7551
2.054000	 64.9792
2.072000	 65.151
2.090000	 65.3186
2.108000	 65.0863
2.126000	 64.2456
2.144000	 65.1407
2.162000	 64.405
2.180000	 65.0529
2.198000	 64.1271
2.216000	 64.3844
2.234000	 67.8534
2.252000	 62.363
2.270000	 65.1941
2.288000	 64.9869
2.306000	 64.7387
2.324000	 65.0209
2.342000	 64.9076
2.360000	 64.9769
2.378000	 64.6924
2.396000	 64.8638
2.414000	 65.0573
2.432000	 65.2758
2.450000	 64.9587
2.468000	 65.3229
2.486000	 65.1078
2.504000	 64.8954
2.522000	 65.1262
2.540000	 65.1562
2.558000	 64.8685
2.576000	 65.0831
2.594000	 65.2354
2.612000	 65.0823
2.630000	 65.1278
2.648000	 64.967
2.666000	 65.2524
2.684000	 65.0694
2.702000	 65.2343
2.720000	 65.3599
2.738000	 65.2448
2.756000	 65.1838
2.774000	 65.279
2.792000	 65.1908
2.810000	 65.0311
2.828000	 65.0208
2.846000	 65.0222
2.864000	 64.7969
2.882000	 64.9555
2.900000	 65.0476
2.918000	 65.0977
2.936000	 65.0645
2.954000	 65.0208
2.972000	 64.7914
2.990000	 64.9231
3.008000	 65.0383
3.026000	 65.0605
3.044000	 65.069
3.062000	 65.0327
3.080000	 64.9584
3.098000	 64.9276
3.116000	 65.0756
3.134000	 65.0753
3.152000	 65.2189
3.170000	 65.1713
3.188000	 64.9831
3.206000	 65.1259
3.224000	 65.1904
3.242000	 65.0855
3.260000	 65.0095
3.278000	 65.105
3.296000	 64.9692
3.314000	 64.9704
3.332000	 65.0977
3.350000	 65.0453
3.368000	 64.9387
3.386000	 64.9218
3.404000	 65.06
3.422000	 64.9301
3.440000	 65.0378
3.458000	 64.8884
3.476000	 64.8715
3.494000	 65.0909
3.512000	 64.9328
3.530000	 64.9152
3.548000	 64.8955
3.566000	 65.0759
3.584000	 64.9314
3.602000	 64.9294
3.620000	 65.0002
3.638000	 64.9312
3.656000	 65.0331
3.674000	 65.0366
3.692000	 64.8519
3.710000	 64.9534
3.728000	 64.9766
3.746000	 64.9689
3.764000	 65.0731
3.782000	 64.9242
3.800000	 65.0253
3.818000	 64.881
3.836000	 64.9422
3.854000	 65.0965
3.872000	 64.9363
3.890000	 64.9872
3.908000	 65.001
3.926000	 65.0366
3.944000	 65.0339
3.962000	 64.9449
3.980000	 64.9569
3.998000	 64.7744
4.016000	 64.965
4.034000	 65.0418
4.052000	 64.9313
4.070000	 64.9291
4.088000	 64.8848
4.106000	 64.8649
4.124000	 64.9459
4.141999	 64.8371
4.160000	 64.8222
4.178000	 64.9445
4.196000	 64.9195
4.214000	 64.9831
4.232000	 65.043
4.250000	 64.9216
4.268000	 64.931
4.286000	 64.8319
4.304000	 64.8672
4.322000	 64.8779
4.340000	 64.8915
4.358000	 64.8815
4.375999	 64.7888
4.394000	 64.8501
4.412000	 64.8702
4.430000	 64.9424
4.448000	 64.8902
4.466000	 64.8682
4.484000	 64.8394
4.502000	 64.8339
4.520000	 64.8919
4.538000	 64.871
4.556000	 64.8635
4.574000	 64.8616
4.592000	 64.8366
4.609999	 64.9436
4.628000	 64.752
4.646000	 64.6175
4.664000	 64.7475
4.682000	 64.7041
4.700000	 64.8714
4.718000	 64.8484
4.736000	 64.7013
4.754000	 64.7651
4.772000	 64.7876
4.790000	 64.7846
4.808000	 64.8213
4.826000	 64.7441
4.843999	 64.7252
4.862000	 64.8084
4.880000	 64.8754
4.898000	 64.9074
4.916000	 64.8021
4.934000	 64.8466
4.952000	 64.8716
4.970000	 64.8233
4.988000	 64.8427
5.006000	 64.7909
5.024000	 64.8026
5.042000	 64.8157
5.060000	 64.8084
5.077999	 64.8217
5.096000	 64.7743
5.114000	 64.754
5.132000	 64.7604
5.150000	 64.7223
5.168000	 64.6742
5.186000	 64.6759
5.204000	 64.6968
5.222000	 64.8306
5.240000	 64.7911
5.258000	 64.7867
5.276000	 64.8287
5.294000	 64.742
5.312000	 64.63
5.330000	 64.7479
5.348000	 64.8644
5.366000	 64.8354
5.384000	 64.7443
5.402000	 64.7462
5.420000	 64.8298
5.438000	 64.7988
5.456000	 64.7091
5.474000	 64.7135
5.492000	 64.8192
5.510000	 64.8295
5.528000	 64.7697
5.546000	 64.7916
5.564000	 64.8122
5.582000	 64.7598
5.600000	 64.7122
5.618000	 64.6824
5.636000	 64.8591
5.654000	 64.9579
5.672000	 64.8671
5.690000	 64.7182
5.708000	 64.7038
5.726000	 64.6462
5.744000	 64.5606
5.762000	 64.5506
5.780000	 64.4417
5.798000	 64.3932
5.816000	 64.6309
5.834000	 64.7552
5.852000	 64.643
5.870000	 64.6337
5.888000	 64.7286
5.906000	 64.6411
5.923999	 64.6629
5.942000	 64.7125
5.960000	 64.6798
5.978000	 64.6066
5.996000	 64.5582
6.014000	 64.6162
6.032000	 64.7468
6.050000	 64.8661
6.068000	 64.772
6.086000	 64.6579
6.104000	 64.5953
6.122000	 64.6338
6.140000	 64.7137
6.158000	 64.6737
6.176000	 64.5825
6.194000	 64.5463
6.212000	 64.5422
6.230000	 64.5747
6.248000	 64.5357
6.266000	 64.5025
6.284000	 64.4846
6.302000	 64.4665
6.320000	 64.5649
6.338000	 64.6742
6.356000	 64.6589
6.374000	 64.6001
6.392000	 64.6043
6.410000	 64.6924
6.428000	 64.7047
6.446000	 64.6431
6.464000	 64.6043
6.482000	 64.6388
6.500000	 64.635
6.518000	 64.5351
6.536000	 64.4811
6.554000	 64.5321
6.572000	 64.6584
6.590000	 64.7291
6.608000	 64.6894
6.626000	 64.6317
6.644000	 64.6373
6.662000	 64.6489
6.680000	 64.6124
6.698000	 64.5843
6.716000	 64.5931
6.734000	 64.5816
6.752000	 64.5408
6.770000	 64.5288
6.788000	 64.5512
6.806000	 64.554
6.824000	 64.5131
6.842000	 64.5268
6.860000	 64.5863
6.878000	 64.5307
6.896000	 64.4526
6.914000	 64.4779
6.932000	 64.5469
6.950000	 64.6348
6.968000	 64.6802
6.986000	 64.6434
7.004000	 64.5855
7.022000	 64.5652
7.040000	 64.5784
7.058000	 64.5531
7.076000	 64.456
7.094000	 64.3815
7.112000	 64.4119
7.130000	 64.4597
7.148000	 64.4367
7.166000	 64.4043
7.184000	 64.3993
7.202000	 64.386
7.220000	 64.3785
7.238000	 64.3944
7.256000	 64.392
7.274000	 64.371
7.292000	 64.3999
7.310000	 64.4811
7.328000	 64.5241
7.346000	 64.5004
7.364000	 64.4805
7.382000	 64.4854
7.400000	 64.4699
7.418000	 64.4484
7.436000	 64.4624
7.454000	 64.4784
7.472000	 64.4436
7.490000	 64.3647
7.508000	 64.295
7.526000	 64.2935
7.544000	 64.3542
7.562000	 64.3927
7.580000	 64.3555
7.598000	 64.2887
7.616000	 64.261
7.634000	 64.2715
7.652000	 64.2871
7.670000	 64.3163
7.688000	 64.3726
7.706000	 64.4167
7.724000	 64.4173
7.742000	 64.4151
7.760000	 64.4432
7.778000	 64.4609
7.796000	 64.4272
7.814000	 64.3615
7.832000	 64.3047
7.850000	 64.276
7.868000	 64.2728
7.886000	 64.284
7.904000	 64.303
7.922000	 64.3221
7.940000	 64.3253
7.958000	 64.3137
7.976000	 64.3072
7.994000	 64.3036
8.012000	 64.278
8.030000	 64.2359
8.048000	 64.2166
8.065999	 64.2387
8.084000	 64.2798
8.102000	 64.312
8.120000	 64.3335
8.138000	 64.3591
8.155999	 64.3909
8.173999	 64.4076
8.192000	 64.3933
8.210000	 64.358
8.228000	 64.3135
8.246000	 64.2568
8.263999	 64.1959
8.282000	 64.1592
8.300000	 64.1625
8.318000	 64.1885
8.336000	 64.2155
8.353999	 64.2448
8.372000	 64.2833
8.390000	 64.3154
8.408000	 64.3144
8.426000	 64.275
8.443999	 64.2182
8.462000	 64.1674
8.480000	 64.1308
8.498000	 64.1106
8.516000	 64.1136
8.533999	 64.1435
8.552000	 64.1848
8.570000	 64.2076
8.588000	 64.1956
8.606000	 64.1643
8.624000	 64.1413
8.641999	 64.1294
8.660000	 64.1091
8.678000	 64.0703
8.696000	 64.0246
8.714000	 63.9933
8.731999	 63.992
8.750000	 64.021
8.768000	 64.0665
8.786000	 64.1109
8.804000	 64.1467
8.821999	 64.1749
8.840000	 64.1904
8.858000	 64.1815
8.876000	 64.1504
8.894000	 64.1215
8.911999	 64.1223
8.930000	 64.1583
8.948000	 64.209
8.966000	 64.2419
8.984000	 64.2326
9.001999	 64.1803
9.020000	 64.1148
9.038000	 64.0832
9.056000	 64.1205
9.074000	 64.2206
9.092000	 64.3404
9.109999	 64.4359
9.128000	 64.4898
9.146000	 64.5053
9.164000	 64.4887
9.182000	 64.4531
9.199999	 64.4241
9.218000	 64.4213
9.236000	 64.4325
9.254000	 64.4207
9.272000	 64.3649
9.289999	 64.288
9.308000	 64.2324
9.326000	 64.2127
9.344000	 64.2053
9.362000	 64.1791
9.379999	 64.1293
9.398000	 64.0789
9.416000	 64.0557
9.434000	 64.0715
9.452000	 64.1192
9.469999	 64.1809
9.488000	 64.2358
9.506000	 64.2654
9.524000	 64.2599
9.542000	 64.2232
9.560000	 64.1736
9.577999	 64.1369
9.596000	 64.1344
9.614000	 64.1712
9.632000	 64.2324
9.650000	 64.2911
9.667999	 64.3209
9.686000	 64.3062
9.704000	 64.2488
9.722000	 64.1694
9.740000	 64.1009
9.757999	 64.0737
9.776000	 64.0991
9.794000	 64.1625
9.812000	 64.2329
9.830000	 64.2827
9.847999	 64.3027
9.866000	 64.2986
9.884000	 64.2805
9.902000	 64.2565
9.920000	 64.2347
9.937999	 64.224
9.956000	 64.2275
9.974000	 64.2383
9.992000	 64.2429
10.01	64.2312
10.028	64.2051
10.046	64.178
10.064	64.1642
10.082	64.1694
10.1	64.1912
10.118	64.2232
10.136	64.261
10.154	64.3017
10.172	64.3413
10.19	64.3743
10.208	64.3949
10.226	64.399
10.244	64.3871
10.262	64.3632
10.28	64.3334
10.298	64.3039
10.316	64.2778
10.334	64.2539
10.352	64.2274
10.37	64.1923
10.388	64.1474
10.406	64.0984
10.424	64.0577
10.442	64.0403
10.46	64.0579
10.478	64.1149
10.496	64.2042
10.514	64.3093
10.532	64.4064
10.55	64.4737
10.568	64.4984
10.586	64.4819
10.604	64.4385
10.622	64.3891
10.64	64.3506
10.658	64.3302
10.676	64.3247
10.694	64.3264
10.712	64.329
10.73	64.3313
10.748	64.3351
10.766	64.3415
10.784	64.3483
10.802	64.3511
10.82	64.3481
10.838	64.3423
10.856	64.3412
10.874	64.353
10.892	64.3789
10.91	64.4121
10.928	64.4393
10.946	64.4458
10.964	64.4236
10.982	64.3742
11	64.3078
11.018	64.2401
11.036	64.1854
11.054	64.1529
11.072	64.1446
11.09	64.1558
11.108	64.177
11.126	64.1955
11.144	64.2009
11.162	64.1853
11.18	64.148
11.198	64.095
11.216	64.0369
11.234	63.9852
11.252	63.9481
11.27	63.9284
11.288	63.9244
11.306	63.9333
11.324	63.9546
11.342	63.9914
11.36	64.0478
11.378	64.1235
11.396	64.2107
11.414	64.2938
11.432	64.3549
11.45	64.3812
11.468	64.3698
11.486	64.3281
11.504	64.2705
11.522	64.213
11.54	64.1656
11.558	64.1318
11.576	64.1082
11.594	64.089
11.612	64.0692
11.63	64.0474
11.648	64.027
11.666	64.0134
11.684	64.0125
11.702	64.0276
11.72	64.0579
11.738	64.0989
11.756	64.1438
11.774	64.1853
11.792	64.2191
11.81	64.2452
11.828	64.266
11.846	64.2852
11.864	64.3041
11.882	64.3206
11.9	64.3289
11.918	64.3221
11.936	64.2956
11.954	64.2483
11.972	64.1847
11.99	64.1144
12.008	64.049
12.026	63.9997
12.044	63.9741
12.062	63.9739
12.08	63.9952
12.098	64.0297
12.116	64.0672
12.134	64.0986
12.152	64.1181
12.17	64.1236
12.188	64.1169
12.206	64.1019
12.224	64.0837
12.242	64.067
12.26	64.0553
12.278	64.0507
12.296	64.0536
12.314	64.0627
12.332	64.0751
12.35	64.0867
12.368	64.0933
12.386	64.0915
12.404	64.0802
12.422	64.0621
12.44	64.0426
12.458	64.0289
12.476	64.0279
12.494	64.044
12.512	64.0775
12.53	64.1247
12.548	64.1789
12.566	64.2327
12.584	64.2798
12.602	64.3168
12.62	64.3436
12.638	64.3624
12.656	64.3759
12.674	64.3867
12.692	64.3945
12.71	64.3973
12.728	64.391
12.746	64.3723
12.764	64.3391
12.782	64.2924
12.8	64.236
12.818	64.176
12.836	64.1198
12.854	64.0741
12.872	64.0426
12.89	64.0258
12.908	64.0206
12.926	64.0213
12.944	64.0212
12.962	64.0149
12.98	64
12.998	63.9775
13.016	63.9516
13.034	63.9288
13.052	63.9153
13.07	63.9157
13.088	63.9322
13.106	63.9638
13.124	64.0071
13.142	64.0569
13.16	64.1076
13.178	64.1536
13.196	64.1906
13.214	64.2152
13.232	64.2249
13.25	64.218
13.268	64.1938
13.286	64.1527
13.304	64.0966
13.322	64.0297
13.34	63.9574
13.358	63.8864
13.376	63.8238
13.394	63.7753
13.412	63.7451
13.43	63.7349
13.448	63.7434
13.466	63.7674
13.484	63.8016
13.502	63.8404
13.52	63.8784
13.538	63.9112
13.556	63.9362
13.574	63.9531
13.592	63.9632
13.61	63.969
13.628	63.9735
13.646	63.9791
13.664	63.9869
13.682	63.9971
13.7	64.0079
13.718	64.0171
13.736	64.0221
13.754	64.0204
13.772	64.0108
13.79	63.9932
13.808	63.9689
13.826	63.9403
13.844	63.9102
13.862	63.8815
13.88	63.8564
13.898	63.8364
13.916	63.822
13.934	63.8129
13.952	63.8078
13.97	63.8057
13.988	63.8052
14.006	63.8049
14.024	63.8041
14.042	63.8021
14.06	63.7988
14.078	63.7944
14.096	63.7895
14.114	63.785
14.132	63.7818
14.15	63.7807
14.168	63.7822
14.186	63.786
14.204	63.7917
14.222	63.7982
14.24	63.8041
14.258	63.8084
14.276	63.8102
14.294	63.8093
14.312	63.8062
14.33	63.8018
14.348	63.7977
14.366	63.7952
14.384	63.7957
14.402	63.7996
14.42	63.8066
14.438	63.8155
14.456	63.8249
14.474	63.8329
14.492	63.8375
14.51	63.8375
14.528	63.8326
14.546	63.8235
14.564	63.8119
14.582	63.8004
14.6	63.7915
14.618	63.7879
14.636	63.7917
14.654	63.8043
14.672	63.8258
14.69	63.8556
14.708	63.8921
14.726	63.9333
14.744	63.9767
14.762	64.0201
14.78	64.0617
14.798	64.0996
14.816	64.1324
14.834	64.1589
14.852	64.1784
14.87	64.1903
14.888	64.1947
14.906	64.1919
14.924	64.1826
14.942	64.1686
14.96	64.152
14.978	64.135
14.996	64.12
15.014	64.1091
15.032	64.1043
15.05	64.1058
15.068	64.113
15.086	64.1243
15.104	64.137
15.122	64.1473
15.14	64.1512
15.158	64.1458
15.176	64.1287
15.194	64.0982
15.212	64.0552
15.23	64.0022
15.248	63.9427
15.266	63.8815
15.284	63.8245
15.302	63.7772
15.32	63.7438
15.338	63.7279
15.356	63.7319
15.374	63.7558
15.392	63.7977
15.41	63.855
15.428	63.9237
15.446	63.9987
15.464	64.0755
15.482	64.15
15.5	64.2188
15.518	64.2791
15.536	64.33
15.554	64.3712
15.572	64.4029
15.59	64.4266
15.608	64.4434
15.626	64.4542
15.644	64.4601
15.662	64.4618
15.68	64.4594
15.698	64.453
15.716	64.4428
15.734	64.4289
15.752	64.4119
15.77	64.3926
15.788	64.3725
15.806	64.3525
15.824	64.3337
15.842	64.3171
15.86	64.3028
15.878	64.2905
15.896	64.2796
15.914	64.2683
15.932	64.2545
15.95	64.2367
15.968	64.2129
15.986	64.1817
16.004	64.1433
16.022	64.0978
16.04	64.0475
16.058	63.9953
16.076	63.944
16.094	63.898
16.112	63.8612
16.13	63.8359
16.148	63.8252
16.166	63.8298
16.184	63.8492
16.202	63.8823
16.22	63.9253
16.238	63.975
16.256	64.0274
16.274	64.0773
16.292	64.1218
16.31	64.1581
16.328	64.1842
16.346	64.2002
16.364	64.2064
16.382	64.2049
16.4	64.1983
16.418	64.1886
16.436	64.1791
16.454	64.1715
16.472	64.1668
16.49	64.1656
16.508	64.1666
16.526	64.169
16.544	64.1699
16.562	64.167
16.58	64.1586
16.598	64.142
16.616	64.117
16.634	64.0834
16.652	64.0424
16.67	63.9962
16.688	63.947
16.706	63.8995
16.724	63.8564
16.742	63.8212
16.76	63.7974
16.778	63.7863
16.796	63.7895
16.814	63.8061
16.832	63.8355
16.85	63.8748
16.868	63.9208
16.886	63.9712
16.904	64.0208
16.922	64.0678
16.94	64.109
16.958	64.1424
16.976	64.1672
16.994	64.1828
17.012	64.1901
17.03	64.1899
17.048	64.1847
17.066	64.1759
17.084	64.1657
17.102	64.156
17.12	64.1475
17.138	64.1416
17.156	64.1383
17.174	64.1378
17.192	64.1391
17.21	64.1414
17.228	64.1434
17.246	64.1433
17.264	64.1402
17.282	64.1317
17.3	64.1171
17.318	64.0949
17.336	64.065
17.354	64.027
17.372	63.9807
17.39	63.9263
17.408	63.8645
17.426	63.7965
17.444	63.723
17.462	63.6469
17.48	63.5693
17.498	63.4936
17.516	63.4222
17.534	63.3573
17.552	63.3026
17.57	63.2593
17.588	63.23
17.606	63.2149
17.624	63.2151
17.642	63.2289
17.66	63.2559
17.678	63.2921
17.696	63.336
17.714	63.3822
17.732	63.4274
17.75	63.468
17.768	63.4986
17.786	63.5176
17.804	63.5207
17.822	63.5074
17.84	63.4758
17.858	63.4267
17.876	63.3601
17.894	63.279
17.912	63.1842
17.93	63.0804
17.948	62.9688
17.966	62.8551
17.984	62.741
18.002	62.6311
18.02	62.5283
18.038	62.4356
18.056	62.3566
18.074	62.2927
18.092	62.2483
18.11	62.2237
18.128	62.2225
18.146	62.2446
18.164	62.2924
18.182	62.3648
18.2	62.4624
18.218	62.5821
18.236	62.723
18.254	62.8785
18.272	63.0475
18.29	63.2198
18.308	63.394
18.326	63.5587
18.344	63.7124
18.362	63.844
18.38	63.9523
18.398	64.0294
18.416	64.0754
18.434	64.0866
18.452	64.0656
18.47	64.0121
18.488	63.9324
18.506	63.8277
18.524	63.7079
18.542	63.5745
18.56	63.4394
18.578	63.3038
18.596	63.1787
18.614	63.0648
18.632	62.9703
18.65	62.8952
18.668	62.8434
18.686	62.8142
18.704	62.8078
18.722	62.8229
18.74	62.8562
18.758	62.9062
18.776	62.9684
18.794	63.0411
18.812	63.1192
18.83	63.2014
18.848	63.2837
18.866	63.3649
18.884	63.4418
18.902	63.5135
18.92	63.5778
18.938	63.6343
18.956	63.6813
18.974	63.7187
18.992	63.7456
19.01	63.7623
19.028	63.7686
19.046	63.7656
19.064	63.7537
19.082	63.7345
19.1	63.7101
19.118	63.6823
19.136	63.6543
19.154	63.6279
19.172	63.6077
19.19	63.5947
19.208	63.5938
19.226	63.6053
19.244	63.6333
19.262	63.6773
19.28	63.7389
19.298	63.8175
19.316	63.9119
19.334	64.0215
19.352	64.1413
19.37	64.2716
19.388	64.4042
19.406	64.5398
19.424	64.6693
19.442	64.7927
19.46	64.9025
19.478	64.998
19.496	65.0748
19.514	65.1312
19.532	65.1661
19.55	65.1779
19.568	65.1683
19.586	65.1373
19.604	65.0874
19.622	65.0217
19.64	64.9414
19.658	64.8533
19.676	64.757
19.694	64.6609
19.712	64.5641
19.73	64.4742
19.748	64.3911
19.766	64.3195
19.784	64.2607
19.802	64.216
19.82	64.1874
19.838	64.1743
19.856	64.1776
19.874	64.1965
19.892	64.2295
19.91	64.2764
19.928	64.3337
19.946	64.4018
19.964	64.4758
19.982	64.5557
20	64.6373
20.018	64.7188
20.036	64.7985
20.054	64.8723
20.072	64.9406
20.09	64.9994
20.108	65.0492
20.126	65.0872
20.144	65.1133
20.162	65.1266
20.18	65.1265
20.198	65.1134
20.216	65.0874
20.234	65.0488
20.252	64.9992
20.27	64.9384
20.288	64.8694
20.306	64.7921
20.324	64.7091
20.342	64.6219
20.36	64.5314
20.378	64.4413
20.396	64.3508
20.414	64.2635
20.432	64.1791
20.45	64.0997
20.468	64.0265
20.486	63.9593
20.504	63.8993
20.522	63.8463
20.54	63.8
20.558	63.7607
20.576	63.7272
20.594	63.6993
20.612	63.6762
20.63	63.6558
20.648	63.6386
20.666	63.6226
20.684	63.6078
20.702	63.5937
20.72	63.5794
20.738	63.5654
20.756	63.552
20.774	63.539
20.792	63.5277
20.81	63.518
20.828	63.5108
20.846	63.5077
20.864	63.5082
20.882	63.5143
20.9	63.526
20.918	63.5436
20.936	63.5677
20.954	63.5979
20.972	63.6331
20.99	63.674
21.008	63.7178
21.026	63.7641
21.044	63.8119
21.062	63.8574
21.08	63.9017
21.098	63.9408
21.116	63.9738
21.134	64
21.152	64.0162
21.17	64.0232
21.188	64.0197
21.206	64.0047
21.224	63.9794
21.242	63.9441
21.26	63.8985
21.278	63.8458
21.296	63.7858
21.314	63.7204
21.332	63.6538
21.35	63.5845
21.368	63.5177
21.386	63.4545
21.404	63.3957
21.422	63.3458
21.44	63.3036
21.458	63.2719
21.476	63.2521
21.494	63.2435
21.512	63.2472
21.53	63.2633
21.548	63.2902
21.566	63.3275
21.584	63.375
21.602	63.4285
21.62	63.489
21.638	63.5537
21.656	63.6192
21.674	63.6868
21.692	63.7519
21.71	63.8134
21.728	63.8711
21.746	63.921
21.764	63.964
21.782	63.9985
21.8	64.0228
21.818	64.0376
21.836	64.0425
21.854	64.0372
21.872	64.0223
21.89	63.9986
21.908	63.9657
21.926	63.9251
21.944	63.8775
21.962	63.8228
21.98	63.7628
21.998	63.6977
22.016	63.6278
22.034	63.5549
22.052	63.4784
22.07	63.3992
22.088	63.3183
22.106	63.235
22.124	63.1507
22.142	63.0655
22.16	62.9795
22.178	62.8934
22.196	62.807
22.214	62.7209
22.232	62.6359
22.25	62.5516
22.268	62.4688
22.286	62.388
22.304	62.3091
22.322	62.2332
22.34	62.1606
22.358	62.0912
22.376	62.0263
22.394	61.9655
22.412	61.9092
22.43	61.8582
22.448	61.8121
22.466	61.7714
22.484	61.7364
22.502	61.7068
22.52	61.6828
22.538	61.6645
22.556	61.6518
22.574	61.6447
22.592	61.6431
22.61	61.6471
22.628	61.6567
22.646	61.672
22.664	61.6927
22.682	61.7187
22.7	61.75
22.718	61.7865
22.736	61.8279
22.754	61.8744
22.772	61.9258
22.79	61.982
22.808	62.0429
22.826	62.1085
22.844	62.1788
22.862	62.2538
22.88	62.3331
22.898	62.4164
22.916	62.5039
22.934	62.5949
22.952	62.6893
22.97	62.7871
22.988	62.8873
23.006	62.9897
23.024	63.0943
23.042	63.1998
23.06	63.3061
23.078	63.4131
23.096	63.5193
23.114	63.6251
23.132	63.7299
23.15	63.8323
23.168	63.9323
23.186	64.0297
23.204	64.123
23.222	64.2126
23.24	64.298
23.258	64.3776
23.276	64.4514
23.294	64.5195
23.312	64.5806
23.33	64.6351
23.348	64.6827
23.366	64.7221
23.384	64.7535
23.402	64.7768
23.42	64.791
23.438	64.7959
23.456	64.7918
23.474	64.7779
23.492	64.754
23.51	64.7204
23.528	64.6777
23.546	64.6259
23.564	64.565
23.582	64.4961
23.6	64.4195
23.618	64.3348
23.636	64.2437
23.654	64.1468
23.672	64.0434
23.69	63.9357
23.708	63.8253
23.726	63.7105
23.744	63.5944
23.762	63.4793
23.78	63.3634
23.798	63.2492
23.816	63.1395
23.834	63.0327
23.852	62.9306
23.87	62.8359
23.888	62.7473
23.906	62.666
23.924	62.5958
23.942	62.5361
23.96	62.4869
23.978	62.452
23.996	62.4324
24.014	62.4267
24.032	62.4378
24.05	62.4675
24.068	62.5143
24.086	62.5793
24.104	62.6638
24.122	62.7675
24.14	62.8897
24.158	63.0298
24.176	63.1891
24.194	63.3658
24.212	63.5569
24.23	63.7629
24.248	63.984
24.266	64.215
24.284	64.4536
24.302	64.7029
24.32	64.9569
24.338	65.21
24.356	65.467
24.374	65.7228
24.392	65.9696
24.41	66.2097
24.428	66.4425
24.446	66.6605
24.464	66.8609
24.482	67.0471
24.5	67.2148
24.518	67.3605
24.536	67.4863
24.554	67.5912
24.572	67.6733
24.59	67.7323
24.608	67.769
24.626	67.7845
24.644	67.7787
24.662	67.7511
24.68	67.7041
24.698	67.6397
24.716	67.5554
24.734	67.4543
24.752	67.3412
24.77	67.2162
24.788	67.0782
24.806	66.9311
24.824	66.7774
24.842	66.6149
24.86	66.4457
24.878	66.2724
24.896	66.095
24.914	65.9129
24.932	65.7262
24.95	65.5353
24.968	65.3403
24.986	65.1401
25.004	64.9337
25.022	64.7223
25.04	64.5048
25.058	64.2789
25.076	64.0433
25.094	63.7993
25.112	63.5462
25.13	63.2833
25.148	63.0111
25.166	62.7294
25.184	62.4372
25.202	62.134
25.22	61.8204
25.238	61.4962
25.256	61.161
25.274	60.8145
25.292	60.4572
25.31	60.0903
25.328	59.7139
25.346	59.3267
25.364	58.9315
25.382	58.531
25.4	58.1242
25.418	57.7112
25.436	57.2945
25.454	56.8759
25.472	56.4537
25.49	56.0292
25.508	55.6046
25.526	55.1801
25.544	54.7547
25.562	54.3302
25.58	53.9084
25.598	53.4876
25.616	53.0689
25.634	52.6547
25.652	52.2467
25.67	51.8435
25.688	51.4455
25.706	51.0538
25.724	50.6675
25.742	50.2864
25.76	49.9132
25.778	49.5504
25.796	49.1951
25.814	48.8492
25.832	48.5164
25.85	48.1987
25.868	47.8914
25.886	47.6003
25.904	47.3323
25.922	47.0846
25.94	46.8527
25.958	46.6533
25.976	46.5033
25.994	46.3941
26.012	46.3257
26.03	46.3142
26.048	46.3738
26.066	46.4931
26.084	46.6762
26.102	46.9339
26.12	47.274
26.138	47.6903
26.156	48.1824
26.174	48.7515
26.192	49.4098
26.21	50.1621
26.228	50.9708
26.246	51.797
26.264	52.6481
26.282	53.5383
26.3	54.4274
26.318	55.2762
26.336	56.0938
26.354	56.8893
26.372	57.6473
26.39	58.3534
26.408	59.0106
26.426	59.6239
26.444	60.1947
26.462	60.7199
26.48	61.1742
26.498	61.5909
26.516	62.0165
26.534	62.4843
26.552	62.9565
26.57	63.4532
26.588	64.0075
26.606	64.645
26.624	65.3506
26.642	66.1155
26.66	66.934
26.678	67.8111
26.696	68.7645
26.714	69.7579
26.732	70.7508
26.75	71.7419
26.768	72.7883
26.786	73.7989
26.804	74.6731
26.822	75.3661
26.84	75.9604
26.858	76.3962
26.876	76.6032
26.894	76.5401
26.912	76.2535
26.93	75.7384
26.948	74.9845
26.966	73.8778
26.984	72.2668
27.002	70.5568
27.02	69.1869
27.028	68.8387