File: Bakgrunnsmateriale/MATLAB/FTIR/ftir_data/subAa/Mapping_121/BZ1503107-1_t117_cm-1.asc
PE IR       SPECTRUM    SPECTRUM    ASCII       PEDS        1.60
  -1
BZ4CFC~1.ASC
17/04/07
22:52:59.00
17/04/07
22:52:59.00
tln
$BZ1503107-1_t0117$<tbV0>[-2.6,13.0,8.0,0.0,27,1,0]
370
64

2002,4.07
MIRTGS : RIGHTBACK : INTERNAL 2
MIR : ON : INTERNAL 2
OPTKBR

0.200000
8
8.000000
FILLER
RATIO
SPECTRUM
UNLOCKED 256

DOUBLE
64
COMBINED
1
0
0

1.000000
RATIO

1
0
TRUE
51149
0
LEFT NOT FITTED RIGHT NOT FITTED 0
NONE
NONE
15600
12
4.427000
51148
TRUE
1 0 8 72 0 0 0 0

15798

#HDR
-1
-1
#GR
CM-1
%T
2.38419e-05
0.0
5000
-1.000000
4631
8
86.4435
38.889
#DATA
5000	65.3796
4996	64.8359
4992	65.1087
4988	65.8925
4984	65.7146
4980	64.4235
4976	63.5844
4972	64.1106
4968	65.0338
4964	65.4509
4960	65.7863
4956	65.8457
4952	65.4511
4948	65.2198
4944	64.9204
4940	64.7382
4936	65.2142
4932	65.8372
4928	66.0957
4924	65.9333
4920	65.5306
4916	65.4242
4912	65.4917
4908	65.3253
4904	65.1725
4900	65.1594
4896	65.2678
4892	65.3705
4888	65.2976
4884	65.2086
4880	65.1444
4876	65.1984
4872	65.3793
4868	65.239
4864	65.0198
4860	64.9821
4856	64.8314
4852	64.7503
4848	64.8938
4844	65.152
4840	65.2565
4836	65.1975
4832	65.1648
4828	64.9598
4824	64.6804
4820	64.6954
4816	64.8732
4812	64.9966
4808	65.0856
4804	65.0045
4800	64.817
4796	64.7434
4792	64.7061
4788	64.622
4784	64.5754
4780	64.6392
4776	64.7111
4772	64.6833
4768	64.728
4764	64.8677
4760	64.9444
4756	64.9902
4752	65.0554
4748	65.0932
4744	65.0328
4740	65.1237
4736	65.351
4732	65.3222
4728	65.1804
4724	65.1195
4720	65.1009
4716	65.1206
4712	65.0677
4708	65.0442
4704	65.1652
4700	65.0979
4696	64.7863
4692	64.77
4688	64.982
4684	64.8847
4680	64.634
4676	64.6178
4672	64.7108
4668	64.8127
4664	64.9581
4660	64.9186
4656	64.7339
4652	64.6118
4648	64.5034
4644	64.5239
4640	64.7812
4636	64.9743
4632	65.0034
4628	65.0803
4624	65.2126
4620	65.3368
4616	65.4611
4612	65.5205
4608	65.3502
4604	65.0787
4600	65.0975
4596	65.201
4592	65.164
4588	65.1713
4584	65.0623
4580	64.8734
4576	64.9435
4572	65.1511
4568	65.2551
4564	65.4012
4560	65.4499
4556	65.17
4552	64.8171
4548	64.7722
4544	65.0114
4540	64.9777
4536	64.7284
4532	64.7968
4528	65.1023
4524	65.2687
4520	65.0603
4516	64.7952
4512	64.8736
4508	65.0372
4504	65.18
4500	65.2794
4496	65.061
4492	64.8006
4488	64.6487
4484	64.5618
4480	64.6318
4476	64.5562
4472	64.5431
4468	64.9098
4464	65.5659
4460	65.9222
4456	65.7949
4452	65.289
4448	65.2836
4444	64.62
4440	60.1886
4436	50.7993
4432	47.2641
4428	66.0295
4424	85.4366
4420	81.1496
4416	70.469
4412	66.6704
4408	66.0097
4404	65.6152
4400	65.3114
4396	65.5118
4392	65.4851
4388	65.3179
4384	65.4288
4380	65.6506
4376	65.6306
4372	65.4149
4368	65.1686
4364	65.0623
4360	65.2879
4356	65.4399
4352	65.2438
4348	64.9231
4344	64.7176
4340	64.9325
4336	65.2145
4332	65.1374
4328	64.8992
4324	64.8273
4320	64.9655
4316	64.9192
4312	64.6887
4308	64.7638
4304	65.0477
4300	65.0898
4296	64.8647
4292	64.7638
4288	64.9508
4284	65.043
4280	64.9546
4276	65.0787
4272	65.3002
4268	65.308
4264	65.1606
4260	64.8746
4256	64.6482
4252	64.6528
4248	64.7025
4244	64.7109
4240	64.7156
4236	64.7921
4232	64.9196
4228	64.9446
4224	64.8754
4220	64.9084
4216	65.0886
4212	65.2181
4208	65.0983
4204	64.8764
4200	64.8793
4196	65.0311
4192	65.0781
4188	64.9659
4184	64.889
4180	64.9034
4176	64.8638
4172	64.8708
4168	64.9945
4164	65.0995
4160	65.0914
4156	65.057
4152	65.0125
4148	64.9512
4144	65.012
4140	65.1316
4136	65.1625
4132	65.193
4128	65.2474
4124	65.2452
4120	65.1748
4116	65.0704
4112	65.0748
4108	65.1242
4104	65.0775
4100	65.0281
4096	65.0257
4092	65.0154
4088	64.9398
4084	64.8156
4080	64.8697
4076	65.1271
4072	65.2931
4068	65.2761
4064	65.2375
4060	65.2755
4056	65.2534
4052	65.1632
4048	65.1129
4044	65.0791
4040	65.0271
4036	65.0062
4032	65.1133
4028	65.1489
4024	65.0803
4020	65.118
4016	65.1568
4012	65.1199
4008	65.0504
4004	65.0059
4000	64.9838
3996	64.9625
3992	65.0139
3988	65.0003
3984	64.8943
3980	64.8758
3976	64.8641
3972	64.8003
3968	64.8237
3964	64.995
3960	65.095
3956	65.0686
3952	65.0906
3948	65.1746
3944	65.2833
3940	65.308
3936	65.2462
3932	65.0944
3928	64.8949
3924	64.9139
3920	65.0934
3916	65.1622
3912	65.0891
3908	65.0266
3904	65.0686
3900	65.099
3896	65.0343
3892	65.0043
3888	65.0735
3884	65.12
3880	65.1597
3876	65.2646
3872	65.2808
3868	65.211
3864	65.1914
3860	65.2043
3856	65.1495
3852	64.969
3848	64.8428
3844	64.9188
3840	65.1341
3836	65.2864
3832	65.2146
3828	65.1038
3824	65.0524
3820	64.9563
3816	64.8396
3812	64.8906
3808	65.1145
3804	65.1578
3800	65.0563
3796	65.0598
3792	65.1026
3788	65.0718
3784	65.0205
3780	65.0961
3776	65.175
3772	65.1476
3768	65.1014
3764	65.0702
3760	65.0135
3756	64.9493
3752	65.0503
3748	65.2956
3744	65.3649
3740	65.1724
3736	65.0713
3732	65.1608
3728	65.2033
3724	65.2051
3720	65.2611
3716	65.221
3712	65.0115
3708	64.9515
3704	65.1028
3700	65.156
3696	65.1252
3692	65.148
3688	65.157
3684	65.1323
3680	65.1119
3676	65.0717
3672	65.0554
3668	65.1335
3664	65.2143
3660	65.2391
3656	65.2439
3652	65.2081
3648	65.1048
3644	65.0386
3640	65.0994
3636	65.152
3632	65.163
3628	65.1818
3624	65.1252
3620	65.0449
3616	65.0974
3612	65.2402
3608	65.1971
3604	64.9864
3600	64.8976
3596	64.9307
3592	64.9356
3588	64.8921
3584	64.9335
3580	64.9791
3576	64.9275
3572	64.9961
3568	65.1588
3564	65.1932
3560	65.1271
3556	65.0483
3552	64.9912
3548	65.0031
3544	65.0442
3540	65.0458
3536	65.0048
3532	64.9989
3528	65.0703
3524	65.1159
3520	65.0784
3516	65.061
3512	65.0894
3508	65.0581
3504	65.05
3500	65.0852
3496	65.055
3492	65.0409
3488	65.0214
3484	64.9673
3480	65.0098
3476	65.0573
3472	65.0059
3468	64.9709
3464	64.9869
3460	64.9878
3456	64.9929
3452	64.9966
3448	64.9383
3444	64.8726
3440	64.8647
3436	64.9094
3432	65.0145
3428	65.105
3424	65.0999
3420	65.1128
3416	65.1866
3412	65.1645
3408	65.0293
3404	64.9476
3400	64.9886
3396	65.0626
3392	65.0524
3388	64.9469
3384	64.8126
3380	64.7487
3376	64.8326
3372	64.9347
3368	64.9662
3364	64.9508
3360	64.8828
3356	64.9029
3352	65.0536
3348	65.1298
3344	65.0519
3340	64.9607
3336	64.9783
3332	65.0748
3328	65.1016
3324	64.9909
3320	64.8926
3316	64.9161
3312	64.9294
3308	64.8861
3304	64.8434
3300	64.7211
3296	64.6382
3292	64.7427
3288	64.8718
3284	64.92
3280	64.9446
3276	64.9849
3272	65.0261
3268	64.9792
3264	64.9079
3260	64.9278
3256	64.938
3252	64.8926
3248	64.877
3244	64.8937
3240	64.8627
3236	64.829
3232	64.8388
3228	64.7923
3224	64.6838
3220	64.62
3216	64.6476
3212	64.742
3208	64.8724
3204	64.9404
3200	64.9099
3196	64.8907
3192	64.8973
3188	64.901
3184	64.9071
3180	64.9093
3176	64.9532
3172	65.0304
3168	65.0416
3164	64.9539
3160	64.8596
3156	64.8559
3152	64.9247
3148	64.9295
3144	64.8253
3140	64.7334
3136	64.7452
3132	64.7839
3128	64.7231
3124	64.6969
3120	64.826
3116	64.9415
3112	64.9182
3108	64.8014
3104	64.7396
3100	64.7566
3096	64.7642
3092	64.7711
3088	64.7929
3084	64.8511
3080	64.8818
3076	64.8453
3072	64.8648
3068	64.9195
3064	64.9219
3060	64.8858
3056	64.848
3052	64.8026
3048	64.7452
3044	64.7491
3040	64.8205
3036	64.8907
3032	64.9162
3028	64.8822
3024	64.8037
3020	64.733
3016	64.7545
3012	64.8289
3008	64.8407
3004	64.8258
3000	64.8742
2996	64.8987
2992	64.7984
2988	64.6823
2984	64.6754
2980	64.6958
2976	64.617
2972	64.5045
2968	64.4282
2964	64.4218
2960	64.4908
2956	64.5414
2952	64.5593
2948	64.578
2944	64.5676
2940	64.5055
2936	64.4541
2932	64.4403
2928	64.4531
2924	64.4773
2920	64.487
2916	64.5107
2912	64.5172
2908	64.4987
2904	64.4877
2900	64.4983
2896	64.5498
2892	64.6579
2888	64.8016
2884	64.8139
2880	64.6727
2876	64.5929
2872	64.5603
2868	64.4994
2864	64.5435
2860	64.6511
2856	64.6675
2852	64.6213
2848	64.5987
2844	64.6247
2840	64.6347
2836	64.622
2832	64.6397
2828	64.6865
2824	64.7281
2820	64.7236
2816	64.7024
2812	64.7525
2808	64.8067
2804	64.7474
2800	64.6701
2796	64.6409
2792	64.5974
2788	64.5799
2784	64.6479
2780	64.7041
2776	64.6899
2772	64.707
2768	64.7585
2764	64.7396
2760	64.6802
2756	64.6327
2752	64.625
2748	64.6745
2744	64.7095
2740	64.7294
2736	64.7292
2732	64.6935
2728	64.677
2724	64.6701
2720	64.6383
2716	64.5955
2712	64.5976
2708	64.6657
2704	64.7101
2700	64.6725
2696	64.6374
2692	64.6545
2688	64.6988
2684	64.7279
2680	64.6917
2676	64.6249
2672	64.6061
2668	64.6226
2664	64.6389
2660	64.6246
2656	64.582
2652	64.6057
2648	64.6526
2644	64.6372
2640	64.6417
2636	64.6998
2632	64.7051
2628	64.6693
2624	64.64
2620	64.5563
2616	64.4893
2612	64.5617
2608	64.6684
2604	64.6178
2600	64.495
2596	64.4578
2592	64.4731
2588	64.5004
2584	64.5442
2580	64.6002
2576	64.594
2572	64.5248
2568	64.5041
2564	64.537
2560	64.5587
2556	64.5539
2552	64.5349
2548	64.5167
2544	64.5316
2540	64.5821
2536	64.588
2532	64.5362
2528	64.5177
2524	64.573
2520	64.5897
2516	64.5076
2512	64.4696
2508	64.4807
2504	64.453
2500	64.4298
2496	64.4378
2492	64.4644
2488	64.4628
2484	64.4463
2480	64.4715
2476	64.5007
2472	64.4909
2468	64.4577
2464	64.4477
2460	64.4861
2456	64.5203
2452	64.4974
2448	64.4505
2444	64.4284
2440	64.4327
2436	64.3982
2432	64.3484
2428	64.3555
2424	64.3458
2420	64.2683
2416	64.179
2412	64.2168
2408	64.3725
2404	64.4854
2400	64.5191
2396	64.4567
2392	64.3565
2388	64.3603
2384	64.4315
2380	64.4422
2376	64.4008
2372	64.3795
2368	64.376
2364	64.3768
2360	64.3602
2356	64.3291
2352	64.3467
2348	64.3936
2344	64.4005
2340	64.3783
2336	64.3397
2332	64.3044
2328	64.3095
2324	64.3067
2320	64.2799
2316	64.2595
2312	64.2476
2308	64.2692
2304	64.2563
2300	64.1997
2296	64.2006
2292	64.2259
2288	64.2568
2284	64.2851
2280	64.2792
2276	64.2757
2272	64.2992
2268	64.3084
2264	64.2759
2260	64.2611
2256	64.2755
2252	64.2731
2248	64.2527
2244	64.2447
2240	64.2066
2236	64.124
2232	64.096
2228	64.1567
2224	64.2547
2220	64.2971
2216	64.2745
2212	64.2504
2208	64.2156
2204	64.1825
2200	64.1894
2196	64.2191
2192	64.2152
2188	64.1902
2184	64.2271
2180	64.2875
2176	64.2674
2172	64.2097
2168	64.1923
2164	64.1787
2160	64.1487
2156	64.1375
2152	64.1438
2148	64.1819
2144	64.2474
2140	64.2772
2136	64.2067
2132	64.0983
2128	64.1202
2124	64.188
2120	64.1791
2116	64.1998
2112	64.2016
2108	64.1361
2104	64.1019
2100	64.056
2096	63.9874
2092	64.0157
2088	64.0704
2084	64.0758
2080	64.0922
2076	64.0907
2072	64.0718
2068	64.0379
2064	63.969
2060	63.9805
2056	64.0787
2052	64.0994
2048	64.031
2044	64.0048
2040	64.0238
2036	64.0488
2032	64.0614
2028	64.0434
2024	64.0493
2020	64.0553
2016	64.0183
2012	64.0132
2008	64.0444
2004	64.034
2000	63.9949
1996	63.9321
1992	63.8469
1988	63.8217
1984	63.8773
1980	63.9287
1976	63.9321
1972	63.917
1968	63.8756
1964	63.8297
1960	63.8055
1956	63.7841
1952	63.7971
1948	63.8397
1944	63.8685
1940	63.8915
1936	63.9179
1932	63.9383
1928	63.9043
1924	63.8443
1920	63.8519
1916	63.9024
1912	63.9208
1908	63.913
1904	63.8807
1900	63.8276
1896	63.8117
1892	63.7972
1888	63.7668
1884	63.7886
1880	63.8431
1876	63.865
1872	63.8424
1868	63.8173
1864	63.8272
1860	63.8386
1856	63.8166
1852	63.7945
1848	63.7837
1844	63.7564
1840	63.73
1836	63.7406
1832	63.7487
1828	63.7447
1824	63.7593
1820	63.7666
1816	63.758
1812	63.7596
1808	63.7687
1804	63.7565
1800	63.713
1796	63.6322
1792	63.5608
1788	63.5786
1784	63.6495
1780	63.6971
1776	63.6926
1772	63.6305
1768	63.5545
1764	63.5122
1760	63.499
1756	63.4801
1752	63.4143
1748	63.2798
1744	63.1002
1740	62.8967
1736	62.7537
1732	62.7938
1728	62.9669
1724	63.139
1720	63.248
1716	63.2866
1712	63.31
1708	63.3821
1704	63.4712
1700	63.5401
1696	63.6002
1692	63.6299
1688	63.6075
1684	63.5685
1680	63.5529
1676	63.5689
1672	63.5795
1668	63.5473
1664	63.5246
1660	63.5601
1656	63.5589
1652	63.4694
1648	63.4158
1644	63.4299
1640	63.4468
1636	63.4266
1632	63.39
1628	63.3886
1624	63.3716
1620	63.3261
1616	63.2958
1612	63.2896
1608	63.2717
1604	63.2512
1600	63.259
1596	63.302
1592	63.3855
1588	63.4147
1584	63.4012
1580	63.3875
1576	63.3438
1572	63.3284
1568	63.3836
1564	63.4336
1560	63.3835
1556	63.3112
1552	63.3127
1548	63.3245
1544	63.3028
1540	63.2999
1536	63.3003
1532	63.251
1528	63.2303
1524	63.2956
1520	63.3336
1516	63.2832
1512	63.2471
1508	63.2775
1504	63.294
1500	63.2502
1496	63.2257
1492	63.2533
1488	63.2339
1484	63.1567
1480	63.1029
1476	63.1103
1472	63.1557
1468	63.2091
1464	63.2172
1460	63.1453
1456	63.0752
1452	63.0491
1448	63.0465
1444	63.0804
1440	63.0973
1436	63.0722
1432	63.0509
1428	63.0386
1424	63.0524
1420	63.1026
1416	63.1514
1412	63.1289
1408	63.0461
1404	62.9945
1400	62.9662
1396	62.9554
1392	62.9868
1388	63.0247
1384	63.0427
1380	63.0356
1376	63.007
1372	62.9805
1368	62.9887
1364	63.0468
1360	63.071
1356	63.0353
1352	63.0788
1348	63.1499
1344	63.1396
1340	63.1036
1336	63.0755
1332	63.0637
1328	63.0508
1324	62.9987
1320	62.8999
1316	62.8562
1312	62.8938
1308	62.9259
1304	62.9792
1300	63.0058
1296	62.939
1292	62.8626
1288	62.8548
1284	62.8915
1280	62.8812
1276	62.8404
1272	62.8237
1268	62.7648
1264	62.6598
1260	62.5995
1256	62.5694
1252	62.5449
1248	62.582
1244	62.6534
1240	62.6765
1236	62.6609
1232	62.6429
1228	62.6562
1224	62.7147
1220	62.7436
1216	62.7656
1212	62.8252
1208	62.7843
1204	62.669
1200	62.6527
1196	62.6731
1192	62.6155
1188	62.5209
1184	62.4728
1180	62.4491
1176	62.3954
1172	62.385
1168	62.4308
1164	62.4631
1160	62.4773
1156	62.4821
1152	62.506
1148	62.5333
1144	62.5548
1140	62.5749
1136	62.5669
1132	62.5979
1128	62.6546
1124	62.6195
1120	62.5375
1116	62.5103
1112	62.5641
1108	62.6257
1104	62.6839
1100	62.7173
1096	62.6258
1092	62.4715
1088	62.4132
1084	62.5153
1080	62.6548
1076	62.6619
1072	62.5509
1068	62.4582
1064	62.4585
1060	62.4845
1056	62.4737
1052	62.4701
1048	62.5237
1044	62.5432
1040	62.4048
1036	62.2488
1032	62.2935
1028	62.4335
1024	62.4777
1020	62.4307
1016	62.3808
1012	62.4182
1008	62.4913
1004	62.4641
1000	62.3852
996	 62.3563
992	 62.3829
988	 62.4488
984	 62.4626
980	 62.3884
976	 62.3725
972	 62.4083
968	 62.3229
964	 62.1886
960	 62.1523
956	 62.2046
952	 62.3612
948	 62.5542
944	 62.5695
940	 62.413
936	 62.3499
932	 62.3801
928	 62.3155
924	 62.2738
920	 62.3955
916	 62.4836
912	 62.357
908	 62.2063
904	 62.2691
900	 62.4384
896	 62.4877
892	 62.3927
888	 62.3053
884	 62.3255
880	 62.3099
876	 62.2133
872	 62.2059
868	 62.2625
864	 62.2684
860	 62.254
856	 62.3856
852	 62.5404
848	 62.4371
844	 62.2407
840	 62.1686
836	 62.2084
832	 62.3202
828	 62.3685
824	 62.2809
820	 62.2635
816	 62.3139
812	 62.2804
808	 62.2626
804	 62.3197
800	 62.3214
796	 62.2422
792	 62.1734
788	 62.12
784	 62.065
780	 61.9534
776	 61.9053
772	 61.9623
768	 61.9392
764	 61.9162
760	 62.0005
756	 62.0956
752	 62.0758
748	 61.9224
744	 61.8465
740	 61.9181
736	 61.9584
732	 61.9365
728	 61.9283
724	 61.8551
720	 61.7088
716	 61.6632
712	 61.6047
708	 61.5158
704	 61.5711
700	 61.5307
696	 61.5152
692	 61.725
688	 61.8328
684	 61.8706
680	 61.7364
676	 61.3254
672	 61.1843
668	 61.3381
664	 61.5155
660	 61.8712
656	 62.1403
652	 61.9775
648	 61.569
644	 61.2339
640	 61.1291
636	 61.2539
632	 61.5453
628	 61.8348
624	 61.9347
620	 61.5536
616	 61.3949
612	 61.8555
608	 61.8672
604	 61.5728
600	 61.2839
596	 60.7708
592	 60.7873
588	 61.1868
584	 60.9398
580	 60.534
576	 60.3704
572	 60.2553
568	 60.9441
564	 61.8862
560	 61.7828
556	 61.1372
552	 60.9457
548	 61.1815
544	 61.5176
540	 61.9393
536	 61.8145
532	 60.9425
528	 60.4947
524	 60.6353
520	 60.5598
516	 60.4294
512	 60.7865
508	 61.0416
504	 60.8833
500	 60.7188
496	 60.6758
492	 60.7896
488	 60.6676
484	 60.2885
480	 60.2401
476	 60.598
472	 60.8841
468	 60.9166
464	 60.7094
460	 60.3658
456	 60.115
452	 60.31
448	 60.3613
444	 59.3989
440	 58.7107
436	 58.7208
432	 58.8607
428	 59.5884
424	 60.1512
420	 59.763
416	 59.5684
412	 60.7131
408	 62.2004
404	 61.4293
400	 59.1426
396	 57.3076
392	 53.9402
388	 49.4397
384	 43.2236
380	 40.5288
376	 44.331
372	 41.816
370	 38.889