File: Bakgrunnsmateriale/MATLAB/FTIR/ftir_data/subAa/Mapping_121/BZ1503107-1_t113_cm-1.asc
PE IR       SPECTRUM    SPECTRUM    ASCII       PEDS        1.60
  -1
BZ4CFA~1.ASC
17/04/07
22:34:29.00
17/04/07
22:34:29.00
tln
$BZ1503107-1_t0113$<tbV0>[7.8,13.0,8.0,0.0,27,1,0]
370
64

2002,4.07
MIRTGS : RIGHTBACK : INTERNAL 2
MIR : ON : INTERNAL 2
OPTKBR

0.200000
8
8.000000
FILLER
RATIO
SPECTRUM
UNLOCKED 256

DOUBLE
64
COMBINED
1
0
0

1.000000
RATIO

1
0
TRUE
51149
0
LEFT NOT FITTED RIGHT NOT FITTED 0
NONE
NONE
15600
12
4.427000
51148
TRUE
1 0 8 72 0 0 0 0

15798

#HDR
-1
-1
#GR
CM-1
%T
2.38419e-05
0.0
5000
-1.000000
4631
8
68.8773
50.346
#DATA
5000	65.4717
4996	64.7441
4992	64.9326
4988	65.6155
4984	65.4577
4980	64.3538
4976	63.6253
4972	64.0812
4968	64.8572
4964	65.1523
4960	65.4989
4956	65.6728
4952	65.2935
4948	65.0195
4944	64.8583
4940	64.7489
4936	64.9033
4932	64.9271
4928	64.6728
4924	64.5244
4920	64.6082
4916	64.9052
4912	65.2349
4908	65.2477
4904	65.036
4900	64.9729
4896	65.1193
4892	65.1938
4888	65.0508
4884	64.8366
4880	64.7032
4876	64.646
4872	64.6468
4868	64.5897
4864	64.5925
4860	64.8802
4856	65.0623
4852	64.9436
4848	64.8176
4844	64.9648
4840	65.2566
4836	65.3024
4832	65.1803
4828	64.9802
4824	64.7279
4820	64.6629
4816	64.6768
4812	64.6386
4808	64.6995
4804	64.7898
4800	64.8225
4796	64.8092
4792	64.7203
4788	64.5346
4784	64.3248
4780	64.2272
4776	64.3151
4772	64.4311
4768	64.3893
4764	64.4221
4760	64.6854
4756	64.9587
4752	64.9639
4748	64.8102
4744	64.7766
4740	64.7154
4736	64.6249
4732	64.7687
4728	64.9038
4724	64.7872
4720	64.6543
4716	64.6344
4712	64.6983
4708	64.7447
4704	64.7037
4700	64.6308
4696	64.4724
4692	64.4503
4688	64.7063
4684	64.7877
4680	64.6053
4676	64.5365
4672	64.5996
4668	64.5979
4664	64.6239
4660	64.7055
4656	64.7022
4652	64.768
4648	64.9538
4644	65.0388
4640	64.9735
4636	64.8937
4632	64.8808
4628	64.8423
4624	64.8514
4620	64.915
4616	64.9622
4612	65.0523
4608	65.048
4604	65.0539
4600	65.1619
4596	65.1008
4592	64.9731
4588	65.0575
4584	65.0675
4580	64.8943
4576	64.9627
4572	65.147
4568	65.2309
4564	65.3256
4560	65.3812
4556	65.363
4552	65.2181
4548	65.1801
4544	65.4526
4540	65.5231
4536	65.2706
4532	65.2326
4528	65.2575
4524	65.1083
4520	65.0864
4516	65.1583
4512	65.1089
4508	64.9533
4504	64.9864
4500	65.3306
4496	65.4395
4492	65.2579
4488	65.2085
4484	65.2752
4480	65.1914
4476	64.9484
4472	64.9774
4468	65.4262
4464	66.1711
4460	66.9099
4456	67.0424
4452	66.439
4448	65.5201
4444	63.5178
4440	59.0791
4436	52.4332
4432	53.2667
4428	62.4656
4424	63.6132
4420	60.5258
4416	62.8429
4412	65.2752
4408	65.777
4404	65.6156
4400	65.5649
4396	65.6335
4392	65.578
4388	65.4833
4384	65.5287
4380	65.8545
4376	65.9188
4372	65.722
4368	65.7408
4364	65.6187
4360	65.1205
4356	64.921
4352	65.1412
4348	65.2477
4344	65.1539
4340	65.1441
4336	65.2878
4332	65.316
4328	65.1636
4324	65.0699
4320	65.1736
4316	65.3098
4312	65.1817
4308	64.8816
4304	64.7855
4300	64.9323
4296	65.016
4292	65.0346
4288	65.158
4284	65.1869
4280	65.0539
4276	65.0192
4272	65.1109
4268	65.0949
4264	64.9904
4260	64.9734
4256	65.0745
4252	65.166
4248	65.0479
4244	64.8363
4240	64.7011
4236	64.6334
4232	64.6529
4228	64.7457
4224	64.8299
4220	64.8707
4216	64.967
4212	65.1029
4208	65.0878
4204	65.0159
4200	65.0235
4196	64.9572
4192	64.8651
4188	64.9309
4184	64.9654
4180	64.8666
4176	64.8884
4172	65.0236
4168	65.0292
4164	64.9212
4160	64.8596
4156	64.8407
4152	64.8261
4148	64.7376
4144	64.6274
4140	64.6566
4136	64.7469
4132	64.8407
4128	64.8537
4124	64.793
4120	64.8209
4116	64.86
4112	64.9489
4108	65.1456
4104	65.2086
4100	65.1024
4096	64.9846
4092	64.8813
4088	64.777
4084	64.8078
4080	65.005
4076	65.1502
4072	65.0789
4068	64.865
4064	64.7948
4060	64.9844
4056	65.1622
4052	65.1141
4048	64.9275
4044	64.7712
4040	64.7311
4036	64.7823
4032	64.8837
4028	64.9651
4024	64.9354
4020	64.917
4016	65.0841
4012	65.1911
4008	65.0467
4004	64.9063
4000	64.8601
3996	64.8578
3992	64.9002
3988	64.9375
3984	64.9523
3980	64.9122
3976	64.9007
3972	64.9548
3968	64.973
3964	64.9971
3960	64.9943
3956	64.9177
3952	64.9027
3948	64.9868
3944	65.0301
3940	65.0189
3936	65.0411
3932	65.0084
3928	64.9191
3924	64.8832
3920	64.8748
3916	64.8778
3912	64.8373
3908	64.813
3904	64.8956
3900	64.905
3896	64.8026
3892	64.8108
3888	64.9654
3884	65.1751
3880	65.349
3876	65.3612
3872	65.2524
3868	65.0601
3864	64.9388
3860	65.0414
3856	65.0916
3852	64.9438
3848	64.8124
3844	64.8118
3840	64.8648
3836	64.9111
3832	65.0225
3828	65.0476
3824	64.8892
3820	64.8537
3816	64.9539
3812	65.071
3808	65.1883
3804	65.2072
3800	65.193
3796	65.1356
3792	65.0542
3788	65.0149
3784	64.9269
3780	64.9193
3776	65.0015
3772	64.9868
3768	64.9198
3764	64.9307
3760	64.9931
3756	64.9189
3752	64.8112
3748	64.8896
3744	65.0171
3740	65.0374
3736	65.0081
3732	65.0198
3728	65.0736
3724	65.0699
3720	64.9658
3716	64.9133
3712	64.9319
3708	64.9158
3704	64.8857
3700	64.8401
3696	64.8322
3692	64.9718
3688	65.0639
3684	64.9125
3680	64.8131
3676	64.9544
3672	65.0567
3668	64.985
3664	64.9441
3660	64.9845
3656	64.9749
3652	64.8578
3648	64.7586
3644	64.8119
3640	64.9182
3636	64.9768
3632	65.0389
3628	65.0856
3624	65.0356
3620	64.9705
3616	64.9432
3612	64.9783
3608	65.0628
3604	65.0177
3600	64.9338
3596	64.9487
3592	64.9375
3588	64.9251
3584	64.9519
3580	64.9188
3576	64.868
3572	64.9466
3568	65.0831
3564	65.0706
3560	64.9811
3556	64.9521
3552	64.9277
3548	64.9159
3544	64.9006
3540	64.8637
3536	64.8758
3532	64.8607
3528	64.8157
3524	64.8179
3520	64.8051
3516	64.8558
3512	64.9899
3508	65.006
3504	64.968
3500	64.9601
3496	64.8983
3492	64.8432
3488	64.8495
3484	64.9347
3480	65.068
3476	65.1043
3472	65.1082
3468	65.1685
3464	65.108
3460	64.9552
3456	64.9073
3452	64.9076
3448	64.8655
3444	64.8134
3440	64.7712
3436	64.8149
3432	64.953
3428	65.0398
3424	64.9852
3420	64.9085
3416	64.9591
3412	65.0422
3408	65.0351
3404	65.0128
3400	65.0505
3396	65.0978
3392	65.0754
3388	64.9682
3384	64.8894
3380	64.8829
3376	64.8756
3372	64.8719
3368	64.8992
3364	64.9218
3360	64.8916
3356	64.8702
3352	64.928
3348	64.9417
3344	64.9178
3340	64.9679
3336	65.0021
3332	65.0283
3328	65.061
3324	64.9866
3320	64.8365
3316	64.7677
3312	64.7977
3308	64.8461
3304	64.8614
3300	64.7868
3296	64.733
3292	64.8007
3288	64.8917
3284	64.9277
3280	64.9228
3276	64.9093
3272	64.8876
3268	64.8675
3264	64.8856
3260	64.9235
3256	64.8964
3252	64.8296
3248	64.8238
3244	64.8792
3240	64.9245
3236	64.8976
3232	64.7922
3228	64.691
3224	64.6924
3220	64.6821
3216	64.6061
3212	64.642
3208	64.7647
3204	64.784
3200	64.7002
3196	64.653
3192	64.6963
3188	64.7559
3184	64.7195
3180	64.6837
3176	64.7691
3172	64.8112
3168	64.8175
3164	64.8913
3160	64.9245
3156	64.8897
3152	64.8273
3148	64.7462
3144	64.6878
3140	64.6813
3136	64.7445
3132	64.7998
3128	64.7786
3124	64.8292
3120	64.929
3116	64.94
3112	64.9086
3108	64.8126
3104	64.7356
3100	64.805
3096	64.8603
3092	64.8769
3088	64.9741
3084	65.0104
3080	64.9405
3076	64.8655
3072	64.7614
3068	64.7237
3064	64.8375
3060	64.9177
3056	64.8718
3052	64.8069
3048	64.7576
3044	64.7299
3040	64.7264
3036	64.7501
3032	64.8219
3028	64.8198
3024	64.7131
3020	64.7056
3016	64.8226
3012	64.8548
3008	64.7871
3004	64.744
3000	64.7266
2996	64.7319
2992	64.7483
2988	64.7152
2984	64.7155
2980	64.7797
2976	64.7705
2972	64.6976
2968	64.6184
2964	64.5512
2960	64.54
2956	64.5994
2952	64.6673
2948	64.664
2944	64.6964
2940	64.8139
2936	64.851
2932	64.7578
2928	64.659
2924	64.6637
2920	64.7524
2916	64.7654
2912	64.6379
2908	64.5332
2904	64.4936
2900	64.46
2896	64.5029
2892	64.6417
2888	64.7923
2884	64.8182
2880	64.7136
2876	64.6462
2872	64.6549
2868	64.6545
2864	64.6655
2860	64.6907
2856	64.6668
2852	64.6671
2848	64.7064
2844	64.7195
2840	64.7146
2836	64.6914
2832	64.6594
2828	64.6475
2824	64.664
2820	64.6446
2816	64.5975
2812	64.6332
2808	64.7007
2804	64.6845
2800	64.6207
2796	64.5977
2792	64.6402
2788	64.7191
2784	64.7803
2780	64.7738
2776	64.7331
2772	64.7377
2768	64.7672
2764	64.7483
2760	64.7058
2756	64.6331
2752	64.5195
2748	64.4836
2744	64.5539
2740	64.6468
2736	64.6913
2732	64.6688
2728	64.6385
2724	64.6471
2720	64.6652
2716	64.6642
2712	64.676
2708	64.7037
2704	64.7201
2700	64.6913
2696	64.6108
2692	64.5243
2688	64.512
2684	64.5731
2680	64.5865
2676	64.5726
2672	64.5893
2668	64.576
2664	64.5688
2660	64.5613
2656	64.5651
2652	64.6311
2648	64.637
2644	64.574
2640	64.5258
2636	64.5004
2632	64.5095
2628	64.5401
2624	64.5027
2620	64.4568
2616	64.5224
2612	64.6106
2608	64.6286
2604	64.6031
2600	64.6146
2596	64.6195
2592	64.5943
2588	64.5663
2584	64.4945
2580	64.4763
2576	64.5354
2572	64.566
2568	64.5509
2564	64.5046
2560	64.5031
2556	64.556
2552	64.5569
2548	64.5391
2544	64.5653
2540	64.6007
2536	64.6109
2532	64.5869
2528	64.538
2524	64.4722
2520	64.4274
2516	64.4211
2512	64.4522
2508	64.5352
2504	64.5705
2500	64.503
2496	64.4493
2492	64.4293
2488	64.4014
2484	64.405
2480	64.4329
2476	64.4376
2472	64.4195
2468	64.4094
2464	64.4309
2460	64.4818
2456	64.5111
2452	64.4835
2448	64.45
2444	64.4388
2440	64.4533
2436	64.4266
2432	64.3111
2428	64.2332
2424	64.2282
2420	64.2503
2416	64.2767
2412	64.3008
2408	64.3437
2404	64.3677
2400	64.4147
2396	64.5141
2392	64.5537
2388	64.5223
2384	64.4927
2380	64.4562
2376	64.3845
2372	64.3594
2368	64.4068
2364	64.4295
2360	64.3907
2356	64.3466
2352	64.3476
2348	64.346
2344	64.3173
2340	64.3072
2336	64.3341
2332	64.3626
2328	64.3683
2324	64.3535
2320	64.3276
2316	64.2716
2312	64.2051
2308	64.2237
2304	64.2731
2300	64.3067
2296	64.3553
2292	64.3473
2288	64.3221
2284	64.3619
2280	64.3907
2276	64.3696
2272	64.3565
2268	64.3222
2264	64.2659
2260	64.2862
2256	64.3152
2252	64.271
2248	64.2816
2244	64.3621
2240	64.3574
2236	64.2616
2232	64.2009
2228	64.2166
2224	64.2562
2220	64.2778
2216	64.2841
2212	64.292
2208	64.293
2204	64.3108
2200	64.3403
2196	64.2979
2192	64.1967
2188	64.186
2184	64.2845
2180	64.3338
2176	64.2856
2172	64.1956
2168	64.1454
2164	64.1618
2160	64.213
2156	64.2506
2152	64.2057
2148	64.128
2144	64.0775
2140	64.0876
2136	64.142
2132	64.1402
2128	64.1476
2124	64.1805
2120	64.1608
2116	64.1714
2112	64.1874
2108	64.1441
2104	64.0897
2100	64.0678
2096	64.0853
2092	64.0964
2088	64.1076
2084	64.1728
2080	64.2304
2076	64.2132
2072	64.1443
2068	64.0535
2064	64.0115
2060	64.0445
2056	64.0973
2052	64.087
2048	64.0084
2044	63.9778
2040	64.0363
2036	64.0943
2032	64.0764
2028	64.0384
2024	64.0381
2020	64.0161
2016	63.9818
2012	63.967
2008	63.9515
2004	63.9662
2000	64.0233
1996	64.0893
1992	64.0809
1988	64.0034
1984	63.9723
1980	63.989
1976	64.0098
1972	64.0131
1968	63.9912
1964	63.9982
1960	64.0232
1956	63.9918
1952	63.9287
1948	63.9218
1944	63.9627
1940	63.9979
1936	64.0182
1932	64.021
1928	64.0153
1924	64.011
1920	63.9719
1916	63.9151
1912	63.9191
1908	63.9492
1904	63.9329
1900	63.9346
1896	63.9633
1892	63.9477
1888	63.9132
1884	63.8836
1880	63.8737
1876	63.898
1872	63.8848
1868	63.8208
1864	63.8333
1860	63.9204
1856	63.9534
1852	63.9357
1848	63.8989
1844	63.8509
1840	63.8576
1836	63.8928
1832	63.8576
1828	63.8194
1824	63.8489
1820	63.8409
1816	63.8138
1812	63.865
1808	63.9151
1804	63.8823
1800	63.8105
1796	63.7872
1792	63.8216
1788	63.8817
1784	63.9315
1780	63.931
1776	63.9133
1772	63.8733
1768	63.7982
1764	63.7494
1760	63.7113
1756	63.6725
1752	63.6851
1748	63.708
1744	63.7053
1740	63.6724
1736	63.622
1732	63.6121
1728	63.6106
1724	63.5797
1720	63.547
1716	63.5378
1712	63.5551
1708	63.5759
1704	63.6174
1700	63.6806
1696	63.6768
1692	63.6438
1688	63.6951
1684	63.7274
1680	63.6786
1676	63.6726
1672	63.655
1668	63.581
1664	63.5587
1660	63.5685
1656	63.5482
1652	63.5106
1648	63.52
1644	63.5689
1640	63.5674
1636	63.5354
1632	63.5061
1628	63.4595
1624	63.4118
1620	63.3888
1616	63.3933
1612	63.4033
1608	63.4237
1604	63.4615
1600	63.4742
1596	63.4918
1592	63.5403
1588	63.5126
1584	63.4288
1580	63.3835
1576	63.3787
1572	63.4088
1568	63.4419
1564	63.4446
1560	63.4253
1556	63.4084
1552	63.3932
1548	63.4162
1544	63.4714
1540	63.4614
1536	63.4225
1532	63.423
1528	63.4333
1524	63.4187
1520	63.4068
1516	63.4335
1512	63.4495
1508	63.4466
1504	63.436
1500	63.3806
1496	63.329
1492	63.3571
1488	63.3749
1484	63.33
1480	63.2814
1476	63.2808
1472	63.3468
1468	63.3745
1464	63.3016
1460	63.2343
1456	63.2734
1452	63.3556
1448	63.3676
1444	63.3005
1440	63.2111
1436	63.1735
1432	63.1448
1428	63.1083
1424	63.1454
1420	63.2148
1416	63.2345
1412	63.2031
1408	63.2045
1404	63.2409
1400	63.208
1396	63.1449
1392	63.123
1388	63.1165
1384	63.1082
1380	63.1073
1376	63.1094
1372	63.1136
1368	63.1192
1364	63.1338
1360	63.1691
1356	63.195
1352	63.2027
1348	63.1879
1344	63.1589
1340	63.1458
1336	63.1498
1332	63.1708
1328	63.1946
1324	63.2438
1320	63.2398
1316	63.1364
1312	63.0755
1308	63.0749
1304	63.0891
1300	63.1119
1296	63.0986
1292	63.055
1288	63.0547
1284	63.0829
1280	63.0503
1276	62.9855
1272	62.9652
1268	62.9606
1264	62.9251
1260	62.8781
1256	62.8543
1252	62.86
1248	62.8865
1244	62.9444
1240	62.9849
1236	62.9705
1232	62.9639
1228	62.986
1224	62.989
1220	62.968
1216	62.9981
1212	63.0325
1208	62.9792
1204	62.9619
1200	63.0072
1196	62.9954
1192	62.9432
1188	62.9125
1184	62.8965
1180	62.8694
1176	62.8275
1172	62.8037
1168	62.8311
1164	62.8792
1160	62.8932
1156	62.8634
1152	62.8505
1148	62.8819
1144	62.8814
1140	62.8145
1136	62.7399
1132	62.7108
1128	62.7336
1124	62.7918
1120	62.7945
1116	62.6884
1112	62.6132
1108	62.675
1104	62.8287
1100	62.91
1096	62.8047
1092	62.6324
1088	62.5869
1084	62.6442
1080	62.6201
1076	62.5012
1072	62.4902
1068	62.6369
1064	62.7541
1060	62.7551
1056	62.6454
1052	62.5137
1048	62.5716
1044	62.7506
1040	62.7633
1036	62.6402
1032	62.584
1028	62.5885
1024	62.5864
1020	62.5584
1016	62.5057
1012	62.5099
1008	62.6231
1004	62.7032
1000	62.6322
996	 62.5379
992	 62.5275
988	 62.6117
984	 62.7492
980	 62.7687
976	 62.6483
972	 62.5746
968	 62.5932
964	 62.5655
960	 62.4719
956	 62.5201
952	 62.7371
948	 62.8593
944	 62.732
940	 62.5159
936	 62.4678
932	 62.5692
928	 62.6762
924	 62.7532
920	 62.7752
916	 62.7316
912	 62.6971
908	 62.7072
904	 62.7135
900	 62.7118
896	 62.7087
892	 62.6492
888	 62.5376
884	 62.4684
880	 62.4534
876	 62.4748
872	 62.5188
868	 62.5613
864	 62.5339
860	 62.4158
856	 62.3736
852	 62.4087
848	 62.4619
844	 62.4851
840	 62.4054
836	 62.4488
832	 62.5932
828	 62.5612
824	 62.5328
820	 62.6511
816	 62.6891
812	 62.5727
808	 62.4288
804	 62.4582
800	 62.665
796	 62.7928
792	 62.6693
788	 62.4595
784	 62.3741
780	 62.3153
776	 62.2063
772	 62.1664
768	 62.1913
764	 62.1335
760	 62.0462
756	 62.0227
752	 62.0575
748	 62.1497
744	 62.1654
740	 62.1103
736	 62.1636
732	 62.2519
728	 62.1605
724	 62.0615
720	 62.212
716	 62.2788
712	 62.0324
708	 61.8263
704	 61.8711
700	 62.0553
696	 62.186
692	 62.2907
688	 62.5114
684	 62.5946
680	 62.407
676	 62.1272
672	 61.8912
668	 61.7149
664	 61.6379
660	 61.9055
656	 62.1791
652	 61.8185
648	 61.3395
644	 61.4501
640	 61.7731
636	 61.4794
632	 60.6049
628	 60.1958
624	 60.5686
620	 60.9962
616	 61.273
612	 61.564
608	 61.3052
604	 60.8849
600	 61.4787
596	 62.4109
592	 62.5285
588	 62.0927
584	 61.749
580	 61.4595
576	 61.0197
572	 60.512
568	 60.658
564	 61.3963
560	 61.6168
556	 61.6773
552	 61.967
548	 61.9382
544	 61.8776
540	 61.9889
536	 61.5998
532	 60.8256
528	 60.5646
524	 60.6894
520	 60.9383
516	 61.3894
512	 61.8824
508	 61.8795
504	 61.2639
500	 60.6128
496	 60.2876
492	 60.3062
488	 60.6456
484	 61.0043
480	 61.4
476	 61.6887
472	 61.5916
468	 61.7563
464	 62.0074
460	 61.7746
456	 61.0735
452	 60.5996
448	 60.81
444	 60.4013
440	 59.4717
436	 59.7941
432	 61.0013
428	 61.3045
424	 60.7574
420	 60.5232
416	 59.7517
412	 58.4431
408	 59.1964
404	 61.2675
400	 63.1407
396	 65.4019
392	 67.1247
388	 68.822
384	 65.6708
380	 54.538
376	 50.9231
372	 60.6631
370	 67.7303