File: Bakgrunnsmateriale/MATLAB/FTIR/ftir_data/subAa/Mapping_121/BZ1503107-1_t34_cm-1.asc
PE IR       SPECTRUM    SPECTRUM    ASCII       PEDS        1.60
  -1
BZ6CA0~1.ASC
17/04/07
16:01:17.00
17/04/07
16:01:17.00
tln
$BZ1503107-1_t0034$<tbV0>[13.0,-5.2,8.0,0.0,27,1,0]
370
64

2002,4.07
MIRTGS : RIGHTBACK : INTERNAL 2
MIR : ON : INTERNAL 2
OPTKBR

0.200000
8
8.000000
FILLER
RATIO
SPECTRUM
UNLOCKED 256

DOUBLE
64
COMBINED
1
0
0

1.000000
RATIO

1
0
TRUE
51149
0
LEFT NOT FITTED RIGHT NOT FITTED 0
NONE
NONE
15600
12
4.427000
51148
TRUE
1 0 8 72 0 0 0 0

15798

#HDR
-1
-1
#GR
CM-1
%T
2.38419e-05
0.0
5000
-1.000000
4631
8
85.1394
46.0164
#DATA
5000	65.551
4996	65.1822
4992	64.995
4988	64.9145
4984	64.8336
4980	64.6392
4976	64.4124
4972	64.3861
4968	64.6226
4964	64.9562
4960	64.9972
4956	64.6701
4952	64.5112
4948	64.5592
4944	64.6077
4940	64.8072
4936	64.8105
4932	64.76
4928	65.0515
4924	65.1275
4920	64.8953
4916	64.6363
4912	64.523
4908	64.8738
4904	65.205
4900	65.071
4896	64.7516
4892	64.5553
4888	64.6503
4884	64.9976
4880	65.3841
4876	65.5012
4872	65.2924
4868	65.1824
4864	65.3529
4860	65.291
4856	64.9902
4852	64.8645
4848	64.8264
4844	64.8721
4840	65.0597
4836	65.0604
4832	64.8721
4828	64.8334
4824	64.954
4820	65.144
4816	65.3107
4812	65.2895
4808	65.0107
4804	64.8455
4800	64.9943
4796	65.0177
4792	64.9109
4788	64.8887
4784	64.8098
4780	64.7427
4776	64.8864
4772	65.0949
4768	65.1496
4764	65.097
4760	65.0782
4756	65.3243
4752	65.5115
4748	65.1662
4744	64.7219
4740	64.7369
4736	64.9963
4732	65.0595
4728	65.0056
4724	64.9724
4720	65.046
4716	65.3386
4712	65.8512
4708	66.048
4704	65.5963
4700	65.2119
4696	65.1248
4692	65.0281
4688	64.9121
4684	64.8626
4680	64.9023
4676	64.9028
4672	64.828
4668	64.9078
4664	65.1478
4660	65.3421
4656	65.4657
4652	65.4361
4648	65.2709
4644	65.0368
4640	64.8761
4636	64.8503
4632	64.7187
4628	64.6659
4624	64.8585
4620	64.9573
4616	64.9457
4612	64.9836
4608	64.9275
4604	64.6253
4600	64.3233
4596	64.3988
4592	64.6339
4588	64.6587
4584	64.6774
4580	64.8131
4576	64.8474
4572	64.9049
4568	65.0483
4564	65.045
4560	64.8679
4556	64.7266
4552	64.7067
4548	64.8184
4544	65.1289
4540	65.3079
4536	65.1072
4532	64.8187
4528	64.6749
4524	64.3909
4520	64.0734
4516	64.3399
4512	64.8477
4508	64.89
4504	64.7095
4500	64.576
4496	64.4789
4492	64.5558
4488	64.7672
4484	64.9782
4480	64.8757
4476	64.4311
4472	64.2768
4468	64.3539
4464	64.6416
4460	65.3199
4456	65.5715
4452	65.0177
4448	64.8
4444	65.2891
4440	66.5815
4436	68.244
4432	70.3958
4428	73.4651
4424	73.2203
4420	70.8838
4416	65.276
4412	57.7128
4408	60.0544
4404	66.7104
4400	67.1816
4396	66.18
4392	66.0796
4388	65.9571
4384	65.7345
4380	65.2193
4376	64.8669
4372	64.8392
4368	65.0892
4364	65.1397
4360	64.9849
4356	64.801
4352	64.7562
4348	64.929
4344	65.0066
4340	65.0946
4336	65.2787
4332	65.1772
4328	64.8558
4324	64.6422
4320	64.5966
4316	64.5911
4312	64.589
4308	64.6418
4304	64.7794
4300	64.9587
4296	65.0083
4292	64.8954
4288	64.8145
4284	64.8164
4280	64.8169
4276	64.9314
4272	65.0957
4268	65.2195
4264	65.3147
4260	65.1236
4256	64.8406
4252	64.8298
4248	64.8377
4244	64.8188
4240	64.9055
4236	64.9791
4232	65.0462
4228	65.177
4224	65.3378
4220	65.3347
4216	65.1512
4212	65.0381
4208	65.0702
4204	65.1423
4200	65.1433
4196	65.1003
4192	65.1473
4188	65.2647
4184	65.3914
4180	65.4211
4176	65.2813
4172	65.1215
4168	65.0895
4164	65.1388
4160	65.1375
4156	65.1111
4152	65.0156
4148	65.0729
4144	65.4269
4140	65.561
4136	65.4194
4132	65.3253
4128	65.2933
4124	65.2911
4120	65.2914
4116	65.2963
4112	65.4303
4108	65.5927
4104	65.4449
4100	65.1422
4096	65.0192
4092	64.9748
4088	64.9775
4084	65.0353
4080	65.0764
4076	65.1552
4072	65.1974
4068	65.2084
4064	65.2139
4060	65.2356
4056	65.3136
4052	65.2798
4048	65.1988
4044	65.2092
4040	65.2979
4036	65.3644
4032	65.2352
4028	65.1033
4024	65.2074
4020	65.3166
4016	65.2521
4012	65.1675
4008	65.1524
4004	65.1273
4000	65.1342
3996	65.2396
3992	65.2342
3988	65.1014
3984	65.0296
3980	65.0054
3976	65.025
3972	65.0418
3968	65.1147
3964	65.2957
3960	65.2937
3956	65.1061
3952	64.9996
3948	64.9726
3944	64.991
3940	65.0517
3936	65.1226
3932	65.1741
3928	65.1848
3924	65.2051
3920	65.2806
3916	65.3652
3912	65.3181
3908	65.1973
3904	65.1749
3900	65.2436
3896	65.368
3892	65.4047
3888	65.1813
3884	64.8412
3880	64.7503
3876	65.0439
3872	65.3727
3868	65.3518
3864	65.1126
3860	65.047
3856	65.1766
3852	65.1964
3848	65.0987
3844	65.1751
3840	65.2888
3836	65.1986
3832	65.051
3828	65.0064
3824	65.0959
3820	65.1563
3816	65.0693
3812	65.0002
3808	65.1449
3804	65.3973
3800	65.4478
3796	65.3109
3792	65.2129
3788	65.1134
3784	64.9315
3780	64.9184
3776	65.1242
3772	65.2684
3768	65.2364
3764	65.0697
3760	64.9591
3756	64.9937
3752	65.0656
3748	65.1707
3744	65.235
3740	65.1801
3736	65.1632
3732	65.2434
3728	65.2832
3724	65.1973
3720	65.1012
3716	65.1277
3712	65.2283
3708	65.3477
3704	65.3904
3700	65.1996
3696	64.941
3692	64.966
3688	65.1413
3684	65.1314
3680	65.049
3676	65.1159
3672	65.2212
3668	65.2992
3664	65.3829
3660	65.3228
3656	65.196
3652	65.1647
3648	65.1756
3644	65.2523
3640	65.3024
3636	65.2418
3632	65.2442
3628	65.2755
3624	65.2322
3620	65.1742
3616	65.1401
3612	65.1449
3608	65.2282
3604	65.3186
3600	65.2633
3596	65.1766
3592	65.2459
3588	65.356
3584	65.3012
3580	65.1854
3576	65.1537
3572	65.1545
3568	65.1618
3564	65.1712
3560	65.1824
3556	65.1739
3552	65.1247
3548	65.1124
3544	65.1746
3540	65.1848
3536	65.1072
3532	65.0783
3528	65.0791
3524	65.0868
3520	65.1542
3516	65.1836
3512	65.1525
3508	65.1266
3504	65.1404
3500	65.1819
3496	65.1852
3492	65.1405
3488	65.0755
3484	65.0059
3480	65.0012
3476	65.132
3472	65.248
3468	65.2258
3464	65.1471
3460	65.1411
3456	65.2241
3452	65.2792
3448	65.2304
3444	65.1388
3440	65.1336
3436	65.1319
3432	65.122
3428	65.1796
3424	65.174
3420	65.0566
3416	64.9722
3412	65.0389
3408	65.1247
3404	65.127
3400	65.1291
3396	65.1835
3392	65.2264
3388	65.2261
3384	65.2211
3380	65.2054
3376	65.2106
3372	65.2108
3368	65.1879
3364	65.1311
3360	65.0725
3356	65.1173
3352	65.1764
3348	65.1843
3344	65.2005
3340	65.2103
3336	65.1644
3332	65.1194
3328	65.1586
3324	65.2299
3320	65.2613
3316	65.1931
3312	65.0923
3308	65.08
3304	65.0318
3300	64.9398
3296	64.9379
3292	64.9254
3288	64.8629
3284	64.9194
3280	65.0667
3276	65.1471
3272	65.1502
3268	65.1649
3264	65.2413
3260	65.1904
3256	64.9843
3252	64.9549
3248	65.096
3244	65.1294
3240	65.0439
3236	64.9665
3232	65.0157
3228	65.1481
3224	65.1749
3220	65.1125
3216	65.0372
3212	64.9536
3208	64.9645
3204	65.0575
3200	65.0998
3196	65.0809
3192	65.0772
3188	65.1057
3184	65.1087
3180	65.1085
3176	65.1438
3172	65.1119
3168	65.0605
3164	65.1364
3160	65.1742
3156	65.0788
3152	65.0253
3148	65.0125
3144	64.9585
3140	64.9066
3136	64.9143
3132	65.0476
3128	65.1886
3124	65.1515
3120	65.0519
3116	65.0356
3112	65.1168
3108	65.2415
3104	65.2987
3100	65.2915
3096	65.2264
3092	65.0651
3088	64.9271
3084	64.9662
3080	65.079
3076	65.1006
3072	65.0489
3068	64.9682
3064	64.9549
3060	65.0846
3056	65.1914
3052	65.1307
3048	65.0343
3044	65.0444
3040	65.0503
3036	64.9565
3032	64.9409
3028	65.0359
3024	65.0268
3020	64.9464
3016	64.9733
3012	65.0676
3008	65.1
3004	65.0708
3000	65.0744
2996	65.1025
2992	65.1398
2988	65.2085
2984	65.1964
2980	65.0772
2976	64.9935
2972	64.9382
2968	64.8223
2964	64.7941
2960	64.9279
2956	65.0149
2952	65.0302
2948	65.048
2944	65.0532
2940	65.0544
2936	64.9776
2932	64.8844
2928	64.8855
2924	64.9239
2920	64.9807
2916	65.0375
2912	65.0229
2908	64.947
2904	64.9335
2900	64.99
2896	64.9691
2892	64.9072
2888	64.9676
2884	65.0819
2880	65.1069
2876	65.0559
2872	65.0205
2868	65.0331
2864	65.0383
2860	65.0015
2856	64.9467
2852	64.9296
2848	64.9555
2844	64.9551
2840	64.9176
2836	64.9081
2832	64.9291
2828	64.9566
2824	64.9613
2820	64.9179
2816	64.9174
2812	64.9814
2808	65.0139
2804	65.0293
2800	65.1186
2796	65.2529
2792	65.2602
2788	65.123
2784	64.9766
2780	64.9452
2776	65.0785
2772	65.1859
2768	65.1574
2764	65.1149
2760	65.1091
2756	65.1103
2752	65.1078
2748	65.0945
2744	65.0551
2740	65.026
2736	64.9939
2732	64.9228
2728	64.8903
2724	64.9413
2720	65.0074
2716	65.0113
2712	64.9682
2708	64.981
2704	65.1
2700	65.2144
2696	65.2259
2692	65.1318
2688	65.0213
2684	64.9852
2680	64.9539
2676	64.9349
2672	64.9631
2668	65.0009
2664	65.0431
2660	65.0709
2656	65.0904
2652	65.088
2648	65.0752
2644	65.1057
2640	65.1265
2636	65.082
2632	65.0309
2628	65.0093
2624	64.9984
2620	64.9883
2616	64.9383
2612	64.8739
2608	64.8752
2604	64.8986
2600	64.9299
2596	64.9616
2592	64.9744
2588	65.0239
2584	65.0542
2580	64.991
2576	64.9309
2572	64.9578
2568	65.0232
2564	65.0774
2560	65.0485
2556	64.925
2552	64.8432
2548	64.8548
2544	64.9292
2540	65.0285
2536	65.0934
2532	65.133
2528	65.1274
2524	65.0501
2520	64.9994
2516	65.0291
2512	65.0361
2508	64.9829
2504	64.9689
2500	65.0295
2496	65.0878
2492	65.0653
2488	64.9925
2484	64.9088
2480	64.8349
2476	64.8448
2472	64.9211
2468	64.9285
2464	64.8934
2460	64.9322
2456	64.9687
2452	64.9694
2448	64.9649
2444	64.9476
2440	64.9699
2436	64.9884
2432	64.9615
2428	64.9686
2424	64.9855
2420	64.9608
2416	64.9726
2412	65.0018
2408	64.9906
2404	64.9828
2400	64.9849
2396	65.0126
2392	65.0453
2388	65.0228
2384	64.9583
2380	64.8734
2376	64.8158
2372	64.854
2368	64.9291
2364	64.9416
2360	64.9335
2356	64.9467
2352	64.9569
2348	64.9679
2344	64.9728
2340	64.975
2336	64.98
2332	64.9765
2328	64.9853
2324	64.9913
2320	64.9862
2316	64.9965
2312	64.9925
2308	64.969
2304	64.9266
2300	64.8522
2296	64.8216
2292	64.8555
2288	64.9045
2284	64.9377
2280	64.945
2276	64.9502
2272	64.9413
2268	64.9138
2264	64.91
2260	64.9282
2256	64.903
2252	64.8498
2248	64.8274
2244	64.7878
2240	64.741
2236	64.7732
2232	64.8315
2228	64.8263
2224	64.8087
2220	64.8104
2216	64.7941
2212	64.8075
2208	64.8653
2204	64.9196
2200	64.9441
2196	64.9081
2192	64.8761
2188	64.8812
2184	64.881
2180	64.8953
2176	64.9012
2172	64.891
2168	64.8967
2164	64.8938
2160	64.8743
2156	64.8521
2152	64.8111
2148	64.7627
2144	64.7424
2140	64.7566
2136	64.8056
2132	64.8224
2128	64.798
2124	64.8413
2120	64.9286
2116	64.9644
2112	64.9302
2108	64.8673
2104	64.8167
2100	64.8025
2096	64.7843
2092	64.7158
2088	64.7165
2084	64.785
2080	64.8132
2076	64.8155
2072	64.8238
2068	64.8097
2064	64.7419
2060	64.7133
2056	64.7672
2052	64.8106
2048	64.8048
2044	64.7557
2040	64.7118
2036	64.7104
2032	64.7387
2028	64.8158
2024	64.888
2020	64.8813
2016	64.8406
2012	64.8231
2008	64.8495
2004	64.9022
2000	64.898
1996	64.8139
1992	64.7647
1988	64.7896
1984	64.7927
1980	64.7685
1976	64.7959
1972	64.8562
1968	64.8244
1964	64.7083
1960	64.669
1956	64.7157
1952	64.774
1948	64.7836
1944	64.7767
1940	64.8049
1936	64.7783
1932	64.7148
1928	64.7029
1924	64.6906
1920	64.6448
1916	64.6386
1912	64.6716
1908	64.702
1904	64.7092
1900	64.6928
1896	64.6721
1892	64.6468
1888	64.6726
1884	64.7016
1880	64.6538
1876	64.6429
1872	64.6741
1868	64.6847
1864	64.6394
1860	64.5602
1856	64.5868
1852	64.6627
1848	64.6851
1844	64.7048
1840	64.6961
1836	64.6793
1832	64.7065
1828	64.7291
1824	64.7447
1820	64.7616
1816	64.7333
1812	64.6303
1808	64.5404
1804	64.579
1800	64.6663
1796	64.6837
1792	64.6443
1788	64.61
1784	64.6045
1780	64.6051
1776	64.6208
1772	64.6364
1768	64.6098
1764	64.5762
1760	64.5519
1756	64.4835
1752	64.4171
1748	64.4319
1744	64.4499
1740	64.3932
1736	64.2907
1732	64.2239
1728	64.26
1724	64.3679
1720	64.4795
1716	64.5192
1712	64.4824
1708	64.4824
1704	64.5094
1700	64.4783
1696	64.4522
1692	64.4671
1688	64.4356
1684	64.398
1680	64.4776
1676	64.5832
1672	64.5808
1668	64.5356
1664	64.5068
1660	64.5001
1656	64.5277
1652	64.5623
1648	64.5606
1644	64.4874
1640	64.4125
1636	64.4139
1632	64.4263
1628	64.4071
1624	64.3832
1620	64.3804
1616	64.3959
1612	64.397
1608	64.3997
1604	64.4078
1600	64.3692
1596	64.3333
1592	64.3613
1588	64.3519
1584	64.2837
1580	64.222
1576	64.1534
1572	64.1717
1568	64.3364
1564	64.426
1560	64.334
1556	64.2824
1552	64.3242
1548	64.3718
1544	64.3954
1540	64.3696
1536	64.3269
1532	64.3167
1528	64.3364
1524	64.3426
1520	64.3811
1516	64.4942
1512	64.5782
1508	64.5637
1504	64.5562
1500	64.5531
1496	64.4713
1492	64.3925
1488	64.3476
1484	64.3552
1480	64.3993
1476	64.3835
1472	64.3521
1468	64.3593
1464	64.3752
1460	64.3927
1456	64.4105
1452	64.4212
1448	64.3824
1444	64.3509
1440	64.4195
1436	64.4854
1432	64.4516
1428	64.4061
1424	64.4496
1420	64.5289
1416	64.5436
1412	64.4819
1408	64.4212
1404	64.3815
1400	64.331
1396	64.2836
1392	64.2209
1388	64.1896
1384	64.204
1380	64.1914
1376	64.1862
1372	64.2149
1368	64.2395
1364	64.246
1360	64.2605
1356	64.2859
1352	64.2737
1348	64.2724
1344	64.3224
1340	64.3765
1336	64.4022
1332	64.3718
1328	64.3093
1324	64.2608
1320	64.2383
1316	64.2198
1312	64.1959
1308	64.1988
1304	64.2036
1300	64.1576
1296	64.073
1292	64.0309
1288	64.0707
1284	64.0954
1280	64.0802
1276	64.1163
1272	64.1868
1268	64.2346
1264	64.2301
1260	64.149
1256	64.0837
1252	64.1401
1248	64.222
1244	64.2205
1240	64.1927
1236	64.1954
1232	64.1716
1228	64.0963
1224	64.0781
1220	64.1349
1216	64.18
1212	64.1632
1208	64.1
1204	64.0596
1200	64.0426
1196	64.0321
1192	64.0289
1188	64.0109
1184	64.0042
1180	64.0657
1176	64.0807
1172	63.9994
1168	63.9709
1164	64.0359
1160	64.1134
1156	64.0678
1152	63.9274
1148	63.865
1144	63.9205
1140	63.9669
1136	63.8993
1132	63.799
1128	63.7724
1124	63.8335
1120	63.9354
1116	63.9816
1112	63.9735
1108	63.9887
1104	64.0197
1100	63.9727
1096	63.9016
1092	63.9236
1088	63.9523
1084	63.9096
1080	63.9173
1076	64.0172
1072	64.0251
1068	63.9777
1064	64.0309
1060	64.0727
1056	64.0411
1052	63.9742
1048	63.9311
1044	63.9789
1040	64.019
1036	64.0357
1032	64.107
1028	64.1543
1024	64.1327
1020	64.0715
1016	64.0182
1012	64.023
1008	64.0418
1004	64.0411
1000	64.0608
996	 64.1357
992	 64.1304
988	 64.0104
984	 64.0378
980	 64.1686
976	 64.1201
972	 64.0097
968	 63.9795
964	 63.9644
960	 64.0043
956	 64.0509
952	 64.1297
948	 64.1967
944	 64.0702
940	 63.963
936	 64.0491
932	 64.1148
928	 64.0966
924	 64.0947
920	 64.0115
916	 63.9441
912	 64.0403
908	 64.1051
904	 63.9968
900	 63.8564
896	 63.9597
892	 64.1287
888	 64.0555
884	 63.9987
880	 64.0635
876	 63.9835
872	 63.904
868	 64.0524
864	 64.2011
860	 64.1944
856	 64.1685
852	 64.1109
848	 63.9789
844	 63.9512
840	 64.0208
836	 64.0361
832	 63.9569
828	 63.8687
824	 63.8598
820	 63.7705
816	 63.7072
812	 63.8407
808	 63.9409
804	 63.9504
800	 63.9189
796	 63.8405
792	 63.8946
788	 64.0412
784	 64.0677
780	 64.0878
776	 64.1063
772	 63.8855
768	 63.6774
764	 63.7162
760	 63.7028
756	 63.6339
752	 63.5875
748	 63.6524
744	 63.977
740	 64.1838
736	 63.8496
732	 63.3759
728	 63.448
724	 63.6742
720	 63.561
716	 63.45
712	 63.4631
708	 63.5688
704	 63.8228
700	 64.0782
696	 64.276
692	 64.3327
688	 64.0604
684	 63.6439
680	 63.4278
676	 63.4391
672	 63.4944
668	 63.5745
664	 63.5029
660	 63.3222
656	 63.295
652	 63.2037
648	 63.0813
644	 63.1417
640	 63.1925
636	 63.289
632	 63.7645
628	 64.2926
624	 64.2161
620	 63.6247
616	 63.1917
612	 63.2003
608	 63.4693
604	 63.9057
600	 64.3479
596	 64.3864
592	 63.979
588	 63.6918
584	 63.6942
580	 63.7612
576	 63.8547
572	 63.8497
568	 63.6373
564	 63.5528
560	 63.9696
556	 64.5451
552	 64.7437
548	 64.2791
544	 63.7106
540	 63.6185
536	 63.7774
532	 63.6907
528	 63.4369
524	 63.305
520	 63.1203
516	 62.8713
512	 62.7118
508	 62.7974
504	 63.2284
500	 63.6415
496	 63.5161
492	 63.198
488	 63.0674
484	 63.2205
480	 63.65
476	 63.646
472	 63.1517
468	 62.6091
464	 62.1833
460	 62.4531
456	 63.2699
452	 63.4211
448	 63.0678
444	 63.1614
440	 63.2242
436	 62.5271
432	 61.6732
428	 61.8267
424	 62.6501
420	 63.4661
416	 65.204
412	 67.411
408	 67.2198
404	 64.392
400	 63.6623
396	 70.7802
392	 81.6226
388	 84.7939
384	 76.2552
380	 62.0326
376	 49.2281
372	 47.5433
370	 54.7713