File: Bakgrunnsmateriale/MATLAB/FTIR/ftir_data/subAa/Mapping_121/BZ1503107-1_t67_cm-1.asc
PE IR       SPECTRUM    SPECTRUM    ASCII       PEDS        1.60
  -1
BZ6F21~1.ASC
17/04/07
18:48:03.00
17/04/07
18:48:03.00
tln
$BZ1503107-1_t0067$<tbV0>[13.0,2.6,8.0,0.0,27,1,0]
370
64

2002,4.07
MIRTGS : RIGHTBACK : INTERNAL 2
MIR : ON : INTERNAL 2
OPTKBR

0.200000
8
8.000000
FILLER
RATIO
SPECTRUM
UNLOCKED 256

DOUBLE
64
COMBINED
1
0
0

1.000000
RATIO

1
0
TRUE
51149
0
LEFT NOT FITTED RIGHT NOT FITTED 0
NONE
NONE
15600
12
4.427000
51148
TRUE
1 0 8 72 0 0 0 0

15798

#HDR
-1
-1
#GR
CM-1
%T
2.38419e-05
0.0
5000
-1.000000
4631
8
72.4642
34.9017
#DATA
5000	63.6259
4996	63.5346
4992	63.4856
4988	63.723
4984	63.4652
4980	62.9737
4976	62.8238
4972	62.91
4968	63.0872
4964	63.1571
4960	63.1897
4956	63.1981
4952	62.9689
4948	62.7038
4944	62.605
4940	62.4973
4936	62.4466
4932	62.3656
4928	62.2467
4924	62.2766
4920	62.3454
4916	62.4544
4912	62.5512
4908	62.695
4904	62.924
4900	62.9653
4896	62.9981
4892	63.2721
4888	63.3577
4884	63.1856
4880	63.2542
4876	63.4014
4872	63.3537
4868	63.273
4864	63.0409
4860	62.7229
4856	62.7695
4852	63.0702
4848	63.2478
4844	63.3338
4840	63.3565
4836	63.3256
4832	63.3147
4828	63.2184
4824	63.0986
4820	63.1114
4816	63.2817
4812	63.4159
4808	63.2306
4804	63.0199
4800	63.0319
4796	63.1651
4792	63.3913
4788	63.4445
4784	63.2285
4780	63.1117
4776	63.2253
4772	63.3652
4768	63.4583
4764	63.4012
4760	63.1343
4756	62.9827
4752	63.1459
4748	63.3113
4744	63.2942
4740	63.1929
4736	63.1082
4732	63.1471
4728	63.3146
4724	63.4926
4720	63.481
4716	63.2957
4712	63.0784
4708	62.9459
4704	63.0009
4700	63.149
4696	63.3311
4692	63.3712
4688	63.1542
4684	63.0606
4680	63.0809
4676	62.9058
4672	62.8358
4668	63.0965
4664	63.2906
4660	63.3575
4656	63.3935
4652	63.2013
4648	63.0219
4644	63.0497
4640	63.1406
4636	63.2138
4632	63.1804
4628	63.1063
4624	63.0941
4620	63.1394
4616	63.3
4612	63.5051
4608	63.5096
4604	63.3417
4600	63.3124
4596	63.4728
4592	63.5339
4588	63.4112
4584	63.4179
4580	63.5806
4576	63.6062
4572	63.4887
4568	63.4641
4564	63.5277
4560	63.475
4556	63.3317
4552	63.0586
4548	62.86
4544	62.9341
4540	62.9741
4536	62.899
4532	62.7376
4528	62.5298
4524	62.5738
4520	62.9039
4516	63.1122
4512	63.1615
4508	63.2335
4504	63.124
4500	63.0469
4496	63.0765
4492	63.0715
4488	63.2032
4484	63.0865
4480	62.7049
4476	62.6257
4472	62.7267
4468	62.7171
4464	62.5408
4460	62.0403
4456	61.5639
4452	61.5213
4448	61.1926
4444	60.4795
4440	60.1434
4436	61.0493
4432	64.6318
4428	68.3945
4424	66.0445
4420	61.4436
4416	65.2075
4412	72.2646
4408	69.17
4404	63.4851
4400	61.581
4396	62.1474
4392	63.2987
4388	63.7156
4384	63.3809
4380	62.8287
4376	62.6676
4372	62.9197
4368	63.3291
4364	63.516
4360	63.5024
4356	63.3284
4352	63.2378
4348	63.2507
4344	63.1339
4340	63.2453
4336	63.4748
4332	63.2977
4328	63.0116
4324	62.9847
4320	63.0735
4316	63.065
4312	62.9294
4308	62.8436
4304	63.006
4300	63.2243
4296	63.2472
4292	63.269
4288	63.3357
4284	63.2967
4280	63.2634
4276	63.3384
4272	63.4473
4268	63.4486
4264	63.3089
4260	63.2308
4256	63.2261
4252	63.2102
4248	63.2574
4244	63.3251
4240	63.2399
4236	62.9959
4232	62.8961
4228	63.0643
4224	63.2994
4220	63.3919
4216	63.2992
4212	63.2618
4208	63.4389
4204	63.5643
4200	63.5354
4196	63.5259
4192	63.5118
4188	63.4371
4184	63.286
4180	63.1258
4176	63.0615
4172	63.1384
4168	63.4048
4164	63.613
4160	63.6003
4156	63.4818
4152	63.3828
4148	63.422
4144	63.4402
4140	63.3764
4136	63.4093
4132	63.5779
4128	63.7016
4124	63.6765
4120	63.5857
4116	63.5643
4112	63.6151
4108	63.5949
4104	63.5601
4100	63.5671
4096	63.5768
4092	63.5878
4088	63.565
4084	63.5551
4080	63.6121
4076	63.6601
4072	63.6708
4068	63.5874
4064	63.3897
4060	63.3936
4056	63.5838
4052	63.6897
4048	63.6937
4044	63.6297
4040	63.6155
4036	63.6813
4032	63.7668
4028	63.7948
4024	63.7229
4020	63.6464
4016	63.5892
4012	63.5929
4008	63.6883
4004	63.7335
4000	63.665
3996	63.5811
3992	63.6067
3988	63.7115
3984	63.7597
3980	63.6837
3976	63.5637
3972	63.5753
3968	63.664
3964	63.6958
3960	63.6803
3956	63.6336
3952	63.6429
3948	63.6586
3944	63.5405
3940	63.4624
3936	63.5558
3932	63.6352
3928	63.5449
3924	63.4423
3920	63.442
3916	63.4125
3912	63.4724
3908	63.5884
3904	63.6374
3900	63.7242
3896	63.7106
3892	63.596
3888	63.4924
3884	63.4267
3880	63.4284
3876	63.397
3872	63.3446
3868	63.4374
3864	63.5429
3860	63.4999
3856	63.4577
3852	63.4123
3848	63.3248
3844	63.3287
3840	63.4385
3836	63.5257
3832	63.4925
3828	63.5075
3824	63.6212
3820	63.6571
3816	63.6919
3812	63.6608
3808	63.5505
3804	63.5076
3800	63.4146
3796	63.3786
3792	63.5211
3788	63.658
3784	63.7188
3780	63.7524
3776	63.7526
3772	63.7454
3768	63.6809
3764	63.488
3760	63.3505
3756	63.3441
3752	63.3443
3748	63.4007
3744	63.6006
3740	63.7161
3736	63.5722
3732	63.5102
3728	63.5598
3724	63.4423
3720	63.3996
3716	63.5363
3712	63.6181
3708	63.6366
3704	63.6585
3700	63.6514
3696	63.6468
3692	63.6609
3688	63.6453
3684	63.6496
3680	63.6928
3676	63.6961
3672	63.681
3668	63.7398
3664	63.7699
3660	63.6869
3656	63.6837
3652	63.7663
3648	63.7553
3644	63.7417
3640	63.797
3636	63.8391
3632	63.8408
3628	63.7701
3624	63.6779
3620	63.6712
3616	63.7386
3612	63.7424
3608	63.7073
3604	63.7542
3600	63.7723
3596	63.6713
3592	63.4926
3588	63.3845
3584	63.431
3580	63.4753
3576	63.4697
3572	63.6002
3568	63.7975
3564	63.8129
3560	63.7291
3556	63.7252
3552	63.74
3548	63.6188
3544	63.473
3540	63.5123
3536	63.6845
3532	63.7866
3528	63.7469
3524	63.7079
3520	63.7575
3516	63.7947
3512	63.7327
3508	63.6417
3504	63.6045
3500	63.5165
3496	63.3655
3492	63.354
3488	63.5122
3484	63.6425
3480	63.6974
3476	63.7332
3472	63.7018
3468	63.6573
3464	63.6691
3460	63.6788
3456	63.6615
3452	63.6632
3448	63.6823
3444	63.6468
3440	63.518
3436	63.4373
3432	63.5178
3428	63.5933
3424	63.5726
3420	63.5773
3416	63.6328
3412	63.6267
3408	63.5878
3404	63.5982
3400	63.6263
3396	63.7034
3392	63.7548
3388	63.6646
3384	63.5945
3380	63.6394
3376	63.6752
3372	63.6796
3368	63.7237
3364	63.7602
3360	63.7823
3356	63.8365
3352	63.7943
3348	63.6978
3344	63.67
3340	63.6234
3336	63.5904
3332	63.6135
3328	63.5949
3324	63.5857
3320	63.6465
3316	63.6498
3312	63.5763
3308	63.5531
3304	63.579
3300	63.5977
3296	63.5539
3292	63.5172
3288	63.5875
3284	63.5838
3280	63.4746
3276	63.4114
3272	63.396
3268	63.4712
3264	63.5576
3260	63.5278
3256	63.5532
3252	63.6364
3248	63.6149
3244	63.568
3240	63.5448
3236	63.5583
3232	63.6225
3228	63.6764
3224	63.6912
3220	63.6325
3216	63.5743
3212	63.601
3208	63.601
3204	63.5561
3200	63.5604
3196	63.6122
3192	63.6346
3188	63.62
3184	63.6787
3180	63.7432
3176	63.7067
3172	63.6426
3168	63.5946
3164	63.6156
3160	63.6376
3156	63.5836
3152	63.5596
3148	63.5485
3144	63.5653
3140	63.5903
3136	63.5091
3132	63.4516
3128	63.576
3124	63.7909
3120	63.8914
3116	63.8647
3112	63.8221
3108	63.7341
3104	63.5939
3100	63.4804
3096	63.4423
3092	63.4944
3088	63.5488
3084	63.5995
3080	63.6734
3076	63.6758
3072	63.6865
3068	63.7697
3064	63.807
3060	63.811
3056	63.7829
3052	63.7357
3048	63.7687
3044	63.7783
3040	63.7016
3036	63.6251
3032	63.6258
3028	63.7087
3024	63.7406
3020	63.6984
3016	63.6507
3012	63.5824
3008	63.5596
3004	63.6265
3000	63.6287
2996	63.5998
2992	63.67
2988	63.7204
2984	63.6993
2980	63.6578
2976	63.5664
2972	63.4423
2968	63.3991
2964	63.4598
2960	63.5352
2956	63.5609
2952	63.5286
2948	63.5277
2944	63.5675
2940	63.5452
2936	63.5262
2932	63.6026
2928	63.6468
2924	63.6239
2920	63.6549
2916	63.6601
2912	63.6016
2908	63.6132
2904	63.6371
2900	63.5737
2896	63.5154
2892	63.5062
2888	63.544
2884	63.6416
2880	63.7068
2876	63.7158
2872	63.7061
2868	63.6361
2864	63.6049
2860	63.6781
2856	63.7091
2852	63.6665
2848	63.6266
2844	63.6279
2840	63.6836
2836	63.7069
2832	63.622
2828	63.5487
2824	63.5757
2820	63.6536
2816	63.7553
2812	63.786
2808	63.7228
2804	63.6738
2800	63.6217
2796	63.5525
2792	63.5893
2788	63.7245
2784	63.797
2780	63.7811
2776	63.7476
2772	63.7332
2768	63.7362
2764	63.746
2760	63.7472
2756	63.6853
2752	63.6093
2748	63.5772
2744	63.5815
2740	63.703
2736	63.8505
2732	63.8452
2728	63.7568
2724	63.699
2720	63.662
2716	63.6499
2712	63.6626
2708	63.6469
2704	63.6126
2700	63.6081
2696	63.6298
2692	63.6513
2688	63.6959
2684	63.7402
2680	63.7348
2676	63.7229
2672	63.7122
2668	63.6767
2664	63.6367
2660	63.6331
2656	63.6732
2652	63.6905
2648	63.6605
2644	63.6343
2640	63.6383
2636	63.6312
2632	63.6014
2628	63.5752
2624	63.5501
2620	63.5371
2616	63.5256
2612	63.5395
2608	63.62
2604	63.6732
2600	63.6233
2596	63.604
2592	63.6669
2588	63.6441
2584	63.5594
2580	63.5746
2576	63.6161
2572	63.6008
2568	63.5988
2564	63.5931
2560	63.5769
2556	63.5811
2552	63.5641
2548	63.5671
2544	63.5986
2540	63.6
2536	63.6199
2532	63.6904
2528	63.7188
2524	63.6415
2520	63.5553
2516	63.5296
2512	63.5336
2508	63.6015
2504	63.6584
2500	63.6102
2496	63.596
2492	63.6639
2488	63.7061
2484	63.708
2480	63.6764
2476	63.6423
2472	63.6552
2468	63.7026
2464	63.7464
2460	63.7601
2456	63.7501
2452	63.7385
2448	63.7832
2444	63.805
2440	63.7011
2436	63.5887
2432	63.5642
2428	63.6401
2424	63.7358
2420	63.7511
2416	63.7581
2412	63.7574
2408	63.6866
2404	63.6453
2400	63.6601
2396	63.6232
2392	63.5829
2388	63.6533
2384	63.735
2380	63.7198
2376	63.7111
2372	63.7504
2368	63.7092
2364	63.6111
2360	63.6157
2356	63.6742
2352	63.6803
2348	63.6365
2344	63.595
2340	63.6467
2336	63.7196
2332	63.691
2328	63.6217
2324	63.5729
2320	63.5771
2316	63.6771
2312	63.753
2308	63.7137
2304	63.6504
2300	63.5827
2296	63.5447
2292	63.5898
2288	63.6061
2284	63.5776
2280	63.6155
2276	63.6837
2272	63.6916
2268	63.6758
2264	63.6561
2260	63.6065
2256	63.5787
2252	63.5877
2248	63.6007
2244	63.6029
2240	63.5786
2236	63.5643
2232	63.6363
2228	63.7519
2224	63.7461
2220	63.6534
2216	63.6351
2212	63.6599
2208	63.6587
2204	63.609
2200	63.571
2196	63.6012
2192	63.6255
2188	63.6106
2184	63.5754
2180	63.5676
2176	63.5697
2172	63.5323
2168	63.5318
2164	63.5686
2160	63.5681
2156	63.5784
2152	63.6156
2148	63.5957
2144	63.5537
2140	63.5492
2136	63.5567
2132	63.5772
2128	63.6074
2124	63.5837
2120	63.4838
2116	63.4394
2112	63.4851
2108	63.522
2104	63.5508
2100	63.5591
2096	63.5487
2092	63.5401
2088	63.5023
2084	63.4804
2080	63.505
2076	63.5648
2072	63.6094
2068	63.5483
2064	63.4181
2060	63.3507
2056	63.3832
2052	63.3968
2048	63.3769
2044	63.4225
2040	63.5156
2036	63.5436
2032	63.4532
2028	63.4001
2024	63.4638
2020	63.5399
2016	63.5669
2012	63.5247
2008	63.4724
2004	63.4883
2000	63.4924
1996	63.4403
1992	63.4293
1988	63.4731
1984	63.5101
1980	63.4863
1976	63.422
1972	63.4119
1968	63.4577
1964	63.4862
1960	63.4898
1956	63.5138
1952	63.5253
1948	63.4775
1944	63.4173
1940	63.3832
1936	63.414
1932	63.515
1928	63.5954
1924	63.6227
1920	63.6185
1916	63.5847
1912	63.5736
1908	63.5547
1904	63.5102
1900	63.4576
1896	63.4303
1892	63.4833
1888	63.5115
1884	63.4558
1880	63.4011
1876	63.3905
1872	63.4429
1868	63.4948
1864	63.4923
1860	63.4504
1856	63.4094
1852	63.4273
1848	63.4446
1844	63.4324
1840	63.441
1836	63.4029
1832	63.3482
1828	63.3439
1824	63.3339
1820	63.3888
1816	63.4897
1812	63.5037
1808	63.4801
1804	63.4674
1800	63.4745
1796	63.5008
1792	63.5079
1788	63.5013
1784	63.4794
1780	63.4254
1776	63.3686
1772	63.3829
1768	63.4654
1764	63.5131
1760	63.4898
1756	63.4162
1752	63.3124
1748	63.2558
1744	63.2248
1740	63.1499
1736	63.0783
1732	63.0762
1728	63.1615
1724	63.2174
1720	63.2257
1716	63.3039
1712	63.3821
1708	63.3841
1704	63.3916
1700	63.4547
1696	63.4764
1692	63.4241
1688	63.4179
1684	63.427
1680	63.4015
1676	63.3808
1672	63.3851
1668	63.4006
1664	63.379
1660	63.3243
1656	63.2484
1652	63.2147
1648	63.2474
1644	63.2717
1640	63.2173
1636	63.1721
1632	63.2652
1628	63.3557
1624	63.3814
1620	63.4477
1616	63.4926
1612	63.4401
1608	63.4094
1604	63.4104
1600	63.368
1596	63.3084
1592	63.2551
1588	63.279
1584	63.3164
1580	63.3028
1576	63.3031
1572	63.2931
1568	63.2562
1564	63.2688
1560	63.3467
1556	63.3523
1552	63.2782
1548	63.2643
1544	63.338
1540	63.4005
1536	63.3457
1532	63.2583
1528	63.2213
1524	63.2219
1520	63.2577
1516	63.3051
1512	63.3157
1508	63.271
1504	63.2168
1500	63.1965
1496	63.1632
1492	63.1455
1488	63.2327
1484	63.3602
1480	63.4315
1476	63.3681
1472	63.2018
1468	63.0829
1464	63.0767
1460	63.1192
1456	63.1755
1452	63.2191
1448	63.1764
1444	63.1308
1440	63.1299
1436	63.1056
1432	63.1171
1428	63.1773
1424	63.1865
1420	63.1428
1416	63.1444
1412	63.1586
1408	63.16
1404	63.1853
1400	63.1593
1396	63.1064
1392	63.0984
1388	63.1197
1384	63.1071
1380	63.0567
1376	63.0665
1372	63.123
1368	63.1556
1364	63.1334
1360	63.0499
1356	62.9939
1352	63.0101
1348	63.0634
1344	63.1404
1340	63.2068
1336	63.2442
1332	63.266
1328	63.2803
1324	63.2947
1320	63.2796
1316	63.2037
1312	63.1056
1308	63.0728
1304	63.1058
1300	63.1018
1296	63.0975
1292	63.1435
1288	63.1441
1284	63.0671
1280	62.9928
1276	62.9803
1272	63.033
1268	63.0548
1264	62.993
1260	62.9944
1256	63.0963
1252	63.1377
1248	63.081
1244	63.0499
1240	63.0676
1236	63.0642
1232	63.0635
1228	63.0999
1224	63.0904
1220	62.983
1216	62.9344
1212	63.019
1208	63.0955
1204	63.0945
1200	63.0907
1196	63.1253
1192	63.0904
1188	63.023
1184	63.0544
1180	63.102
1176	63.1154
1172	63.095
1168	62.9904
1164	62.8889
1160	62.91
1156	62.9827
1152	62.9973
1148	63.0131
1144	63.11
1140	63.1946
1136	63.1506
1132	63.0274
1128	63.0048
1124	63.096
1120	63.1025
1116	63.0025
1112	62.9042
1108	62.8554
1104	62.8515
1100	62.8775
1096	62.9107
1092	62.8858
1088	62.8814
1084	62.9663
1080	63.0684
1076	63.1865
1072	63.2383
1068	63.158
1064	63.0468
1060	63.0059
1056	63.0349
1052	63.0561
1048	63.074
1044	63.0779
1040	63.0217
1036	63.0117
1032	63.1214
1028	63.1762
1024	63.0866
1020	62.9965
1016	62.9413
1012	62.9089
1008	63.0149
1004	63.1805
1000	63.1865
996	 63.1109
992	 63.0876
988	 63.0574
984	 63.0464
980	 63.1207
976	 63.1623
972	 63.1295
968	 63.1191
964	 63.136
960	 63.1189
956	 63.0852
952	 63.0456
948	 62.9885
944	 62.9811
940	 62.9317
936	 62.8412
932	 62.8901
928	 63.0223
924	 63.0446
920	 62.934
916	 62.9296
912	 62.9893
908	 62.933
904	 62.9264
900	 62.9707
896	 63.0492
892	 63.2229
888	 63.3401
884	 63.295
880	 63.1715
876	 63.1531
872	 63.2021
868	 63.1263
864	 62.9541
860	 62.9158
856	 62.9991
852	 62.9763
848	 62.9557
844	 63.0758
840	 63.1869
836	 63.1449
832	 63.0268
828	 62.9936
824	 63.105
820	 63.2529
816	 63.2469
812	 63.1163
808	 62.9673
804	 62.8595
800	 62.8585
796	 62.9537
792	 62.9705
788	 62.9206
784	 63.0033
780	 63.1528
776	 63.1193
772	 62.8933
768	 62.761
764	 62.7449
760	 62.8535
756	 63.0592
752	 63.149
748	 63.1202
744	 63.0323
740	 62.9984
736	 62.9406
732	 62.7071
728	 62.4287
724	 62.375
720	 62.5615
716	 62.7885
712	 62.777
708	 62.2226
704	 61.8435
700	 62.0468
696	 62.2637
692	 62.733
688	 63.1826
684	 63.2153
680	 63.313
676	 63.128
672	 62.4493
668	 61.7917
664	 61.8974
660	 62.5444
656	 62.5725
652	 62.5682
648	 62.9332
644	 62.7931
640	 62.2606
636	 62.0497
632	 62.3377
628	 62.4051
624	 62.1865
620	 62.4565
616	 62.9748
612	 63.1302
608	 63.2076
604	 63.4825
600	 63.1931
596	 62.3484
592	 61.8918
588	 61.9668
584	 62.6055
580	 63.4381
576	 63.6708
572	 63.3523
568	 63.0284
564	 62.8285
560	 62.6882
556	 62.7856
552	 63.0795
548	 63.2234
544	 63.1466
540	 63.038
536	 62.8792
532	 62.608
528	 62.3672
524	 62.4231
520	 62.5402
516	 62.4938
512	 62.551
508	 62.7468
504	 62.8493
500	 62.7484
496	 62.9263
492	 63.3135
488	 63.4186
484	 63.452
480	 63.3898
476	 62.9643
472	 62.3929
468	 62.4358
464	 63.1721
460	 63.5488
456	 63.2932
452	 63.0392
448	 62.9373
444	 62.625
440	 61.9505
436	 61.1014
432	 60.4876
428	 61.2033
424	 62.8202
420	 62.5582
416	 61.6481
412	 63.973
408	 66.9427
404	 65.7581
400	 63.4621
396	 61.5961
392	 58.1797
388	 58.1822
384	 57.942
380	 52.0843
376	 45.5573
372	 37.7822
370	 34.9017