File: Bakgrunnsmateriale/MATLAB/FTIR/ftir_data/subAa/Mapping_121/BZ1503107-1_t51.asc
PE IR       SPECTRUM    SPECTRUM    ASCII       PEDS        1.60
  -1
BZ2D43~1.ASC
17/04/07
17:26:46.00
17/04/07
17:27:12.00
tln
$BZ1503107-1_t0051$<tbV0>[-2.6,-2.6,8.0,0.0,27,1,0]
27.028
64

2002,4.07
MIRTGS : RIGHTBACK : INTERNAL 2
MIR : ON : INTERNAL 2
OPTKBR

0.200000
8
8.000000
FILLER
RATIO
SPECTRUM
UNLOCKED 256

DOUBLE
64
COMBINED
1
0
0

0.002000
RATIO

1
0
TRUE
51149
0
LEFT NOT FITTED RIGHT NOT FITTED 0
NONE
NONE
15600
12
4.427000
51148
TRUE
1 0 8 72 0 0 0 0

15798

#HDR
-1
-1
#GR
µM
%T
2.38419e-05
0.0
2.000000
0.002000
12515
8
70.1771
39.9292
#DATA
2.000000	 64.8716
2.018000	 65.3687
2.036000	 64.949
2.054000	 64.7245
2.072000	 64.6011
2.090000	 64.4801
2.108000	 64.7219
2.126000	 64.1647
2.144000	 64.3002
2.162000	 65.1124
2.180000	 65.1499
2.198000	 65.3874
2.216000	 65.4418
2.234000	 65.477
2.252000	 70.1771
2.270000	 65.852
2.288000	 65.7217
2.306000	 65.6047
2.324000	 65.0636
2.342000	 65.2344
2.360000	 65.3564
2.378000	 64.8595
2.396000	 64.849
2.414000	 64.8432
2.432000	 64.8826
2.450000	 64.7216
2.468000	 64.752
2.486000	 64.992
2.504000	 65.007
2.522000	 65.1445
2.540000	 65.2813
2.558000	 65.1144
2.576000	 65.3233
2.594000	 65.0903
2.612000	 65.0348
2.630000	 64.9017
2.648000	 65.0442
2.666000	 65.1269
2.684000	 64.9767
2.702000	 65.0889
2.720000	 64.9694
2.738000	 65.0568
2.756000	 65.109
2.774000	 65.185
2.792000	 65.05
2.810000	 65.2039
2.828000	 65.2612
2.846000	 65.1283
2.864000	 65.1844
2.882000	 65.0089
2.900000	 65.1328
2.918000	 65.1593
2.936000	 65.2671
2.954000	 64.8794
2.972000	 65.1121
2.990000	 64.9351
3.008000	 65.1479
3.026000	 65.1122
3.044000	 65.0027
3.062000	 65.037
3.080000	 64.8884
3.098000	 64.9089
3.116000	 64.8686
3.134000	 65.0941
3.152000	 65.0595
3.170000	 65.0236
3.188000	 65.0593
3.206000	 65.1187
3.224000	 64.8795
3.242000	 64.9636
3.260000	 64.9804
3.278000	 64.935
3.296000	 65.1174
3.314000	 65.0264
3.332000	 64.9986
3.350000	 64.9511
3.368000	 64.7808
3.386000	 65.0197
3.404000	 64.7308
3.422000	 64.8618
3.440000	 64.9919
3.458000	 64.789
3.476000	 64.9002
3.494000	 64.9007
3.512000	 65.0282
3.530000	 64.7677
3.548000	 64.9306
3.566000	 65.0123
3.584000	 64.9632
3.602000	 64.9753
3.620000	 64.8527
3.638000	 64.8452
3.656000	 64.8751
3.674000	 64.9609
3.692000	 65.0714
3.710000	 64.9314
3.728000	 64.9804
3.746000	 64.9147
3.764000	 64.9575
3.782000	 64.9844
3.800000	 64.8746
3.818000	 65.0149
3.836000	 64.8989
3.854000	 65.0368
3.872000	 64.9202
3.890000	 64.8722
3.908000	 64.6721
3.926000	 64.9304
3.944000	 64.8126
3.962000	 64.8958
3.980000	 65.0512
3.998000	 64.9037
4.016000	 64.885
4.034000	 64.9114
4.052000	 64.7299
4.070000	 64.8582
4.088000	 64.8886
4.106000	 64.7884
4.124000	 64.7971
4.141999	 64.7922
4.160000	 64.7507
4.178000	 64.8021
4.196000	 64.8405
4.214000	 64.8032
4.232000	 64.7835
4.250000	 64.7782
4.268000	 64.7759
4.286000	 64.7315
4.304000	 64.7314
4.322000	 64.7935
4.340000	 64.8017
4.358000	 64.7634
4.375999	 64.7123
4.394000	 64.714
4.412000	 64.8365
4.430000	 64.9098
4.448000	 64.7215
4.466000	 64.7704
4.484000	 64.8352
4.502000	 64.7586
4.520000	 64.6597
4.538000	 64.7182
4.556000	 64.7665
4.574000	 64.6541
4.592000	 64.7412
4.609999	 64.6141
4.628000	 64.5939
4.646000	 64.5454
4.664000	 64.6563
4.682000	 64.6335
4.700000	 64.7543
4.718000	 64.7681
4.736000	 64.7838
4.754000	 64.751
4.772000	 64.8068
4.790000	 64.6337
4.808000	 64.6334
4.826000	 64.6122
4.843999	 64.7632
4.862000	 64.7443
4.880000	 64.6501
4.898000	 64.6577
4.916000	 64.7231
4.934000	 64.7141
4.952000	 64.6208
4.970000	 64.673
4.988000	 64.5653
5.006000	 64.6088
5.024000	 64.6728
5.042000	 64.6821
5.060000	 64.6984
5.077999	 64.6336
5.096000	 64.5606
5.114000	 64.4809
5.132000	 64.5388
5.150000	 64.5956
5.168000	 64.5182
5.186000	 64.4621
5.204000	 64.5282
5.222000	 64.5147
5.240000	 64.5853
5.258000	 64.5724
5.276000	 64.4571
5.294000	 64.5165
5.312000	 64.5576
5.330000	 64.5464
5.348000	 64.5267
5.366000	 64.5323
5.384000	 64.5293
5.402000	 64.592
5.420000	 64.5688
5.438000	 64.5516
5.456000	 64.5195
5.474000	 64.5294
5.492000	 64.5517
5.510000	 64.5077
5.528000	 64.5787
5.546000	 64.5402
5.564000	 64.4852
5.582000	 64.5408
5.600000	 64.4836
5.618000	 64.454
5.636000	 64.4693
5.654000	 64.4173
5.672000	 64.3947
5.690000	 64.4182
5.708000	 64.3894
5.726000	 64.2773
5.744000	 64.1423
5.762000	 64.1374
5.780000	 64.2116
5.798000	 64.2251
5.816000	 64.2661
5.834000	 64.3322
5.852000	 64.3198
5.870000	 64.2332
5.888000	 64.1214
5.906000	 64.2512
5.923999	 64.341
5.942000	 64.2682
5.960000	 64.3596
5.978000	 64.4122
5.996000	 64.3386
6.014000	 64.3076
6.032000	 64.2738
6.050000	 64.2546
6.068000	 64.2807
6.086000	 64.2714
6.104000	 64.1774
6.122000	 64.1984
6.140000	 64.3011
6.158000	 64.2579
6.176000	 64.1406
6.194000	 64.1567
6.212000	 64.2113
6.230000	 64.2254
6.248000	 64.2093
6.266000	 64.1709
6.284000	 64.1707
6.302000	 64.2122
6.320000	 64.218
6.338000	 64.1641
6.356000	 64.1222
6.374000	 64.1362
6.392000	 64.21
6.410000	 64.2705
6.428000	 64.271
6.446000	 64.2098
6.464000	 64.1341
6.482000	 64.1152
6.500000	 64.0793
6.518000	 64.0841
6.536000	 64.1749
6.554000	 64.2246
6.572000	 64.2226
6.590000	 64.2064
6.608000	 64.139
6.626000	 64.0878
6.644000	 64.1377
6.662000	 64.1496
6.680000	 64.0699
6.698000	 64.0567
6.716000	 64.1224
6.734000	 64.1841
6.752000	 64.1721
6.770000	 64.0712
6.788000	 64.0346
6.806000	 64.1153
6.824000	 64.1546
6.842000	 64.1376
6.860000	 64.1191
6.878000	 64.0439
6.896000	 63.951
6.914000	 63.9693
6.932000	 64.0616
6.950000	 64.0976
6.968000	 64.0889
6.986000	 64.087
7.004000	 64.0911
7.022000	 64.135
7.040000	 64.1826
7.058000	 64.1411
7.076000	 64.0542
7.094000	 64.0222
7.112000	 64.0369
7.130000	 64.0674
7.148000	 64.1147
7.166000	 64.1497
7.184000	 64.141
7.202000	 64.0909
7.220000	 64.0416
7.238000	 64.0449
7.256000	 64.0781
7.274000	 64.0905
7.292000	 64.0943
7.310000	 64.1121
7.328000	 64.1298
7.346000	 64.1286
7.364000	 64.105
7.382000	 64.0538
7.400000	 63.9748
7.418000	 63.9258
7.436000	 63.9539
7.454000	 63.9853
7.472000	 63.951
7.490000	 63.9191
7.508000	 63.9591
7.526000	 64.0364
7.544000	 64.0901
7.562000	 64.0935
7.580000	 64.0534
7.598000	 64.0077
7.616000	 63.9935
7.634000	 64.0069
7.652000	 64.0254
7.670000	 64.0605
7.688000	 64.1279
7.706000	 64.1832
7.724000	 64.1734
7.742000	 64.1188
7.760000	 64.0756
7.778000	 64.0539
7.796000	 64.0297
7.814000	 64.0088
7.832000	 64.0179
7.850000	 64.0541
7.868000	 64.085
7.886000	 64.0891
7.904000	 64.0703
7.922000	 64.0333
7.940000	 63.982
7.958000	 63.9431
7.976000	 63.9405
7.994000	 63.9551
8.012000	 63.9524
8.030000	 63.9324
8.048000	 63.9127
8.065999	 63.8972
8.084000	 63.8901
8.102000	 63.8968
8.120000	 63.91
8.138000	 63.9229
8.155999	 63.9383
8.173999	 63.9481
8.192000	 63.9334
8.210000	 63.9
8.228000	 63.8796
8.246000	 63.8895
8.263999	 63.9188
8.282000	 63.9519
8.300000	 63.9801
8.318000	 63.9889
8.336000	 63.9599
8.353999	 63.8972
8.372000	 63.8335
8.390000	 63.8009
8.408000	 63.8083
8.426000	 63.8435
8.443999	 63.8841
8.462000	 63.9076
8.480000	 63.9041
8.498000	 63.8799
8.516000	 63.8445
8.533999	 63.8002
8.552000	 63.7511
8.570000	 63.7066
8.588000	 63.6705
8.606000	 63.6445
8.624000	 63.6414
8.641999	 63.6747
8.660000	 63.7305
8.678000	 63.7689
8.696000	 63.7632
8.714000	 63.7256
8.731999	 63.6872
8.750000	 63.6684
8.768000	 63.6739
8.786000	 63.6985
8.804000	 63.7278
8.821999	 63.7441
8.840000	 63.744
8.858000	 63.7484
8.876000	 63.7791
8.894000	 63.8301
8.911999	 63.8684
8.930000	 63.8673
8.948000	 63.8297
8.966000	 63.7816
8.984000	 63.7513
9.001999	 63.7591
9.020000	 63.8128
9.038000	 63.9007
9.056000	 63.9916
9.074000	 64.0511
9.092000	 64.0667
9.109999	 64.0489
9.128000	 64.0116
9.146000	 63.9564
9.164000	 63.8812
9.182000	 63.7965
9.199999	 63.7252
9.218000	 63.6851
9.236000	 63.6731
9.254000	 63.67
9.272000	 63.6609
9.289999	 63.6483
9.308000	 63.6481
9.326000	 63.672
9.344000	 63.7174
9.362000	 63.7709
9.379999	 63.8176
9.398000	 63.8453
9.416000	 63.8446
9.434000	 63.8118
9.452000	 63.7553
9.469999	 63.6941
9.488000	 63.6464
9.506000	 63.6193
9.524000	 63.6072
9.542000	 63.6023
9.560000	 63.6021
9.577999	 63.6082
9.596000	 63.6212
9.614000	 63.6361
9.632000	 63.6454
9.650000	 63.643
9.667999	 63.6287
9.686000	 63.6125
9.704000	 63.6136
9.722000	 63.6458
9.740000	 63.704
9.757999	 63.7592
9.776000	 63.7757
9.794000	 63.7376
9.812000	 63.6654
9.830000	 63.6053
9.847999	 63.599
9.866000	 63.6583
9.884000	 63.7622
9.902000	 63.8739
9.920000	 63.9628
9.937999	 64.0158
9.956000	 64.036
9.974000	 64.0338
9.992000	 64.0195
10.01	64.0011
10.028	63.9833
10.046	63.9673
10.064	63.9518
10.082	63.9352
10.1	63.9198
10.118	63.911
10.136	63.912
10.154	63.9186
10.172	63.9191
10.19	63.9016
10.208	63.8644
10.226	63.8196
10.244	63.785
10.262	63.7723
10.28	63.7778
10.298	63.7864
10.316	63.7828
10.334	63.763
10.352	63.7351
10.37	63.7119
10.388	63.6979
10.406	63.687
10.424	63.6678
10.442	63.6341
10.46	63.5901
10.478	63.5473
10.496	63.5166
10.514	63.5025
10.532	63.5015
10.55	63.5053
10.568	63.5066
10.586	63.5032
10.604	63.5004
10.622	63.507
10.64	63.5301
10.658	63.571
10.676	63.6233
10.694	63.6777
10.712	63.7253
10.73	63.7608
10.748	63.783
10.766	63.7915
10.784	63.7857
10.802	63.7652
10.82	63.7332
10.838	63.6979
10.856	63.6688
10.874	63.6537
10.892	63.6543
10.91	63.6667
10.928	63.6842
10.946	63.7005
10.964	63.7126
10.982	63.7217
11	63.7324
11.018	63.7507
11.036	63.7807
11.054	63.8223
11.072	63.87
11.09	63.9147
11.108	63.9476
11.126	63.9619
11.144	63.9569
11.162	63.9371
11.18	63.91
11.198	63.8835
11.216	63.8627
11.234	63.8496
11.252	63.8434
11.27	63.8429
11.288	63.8469
11.306	63.8552
11.324	63.8667
11.342	63.879
11.36	63.8878
11.378	63.8878
11.396	63.8756
11.414	63.8505
11.432	63.8154
11.45	63.776
11.468	63.7387
11.486	63.7089
11.504	63.6888
11.522	63.6781
11.54	63.6751
11.558	63.6776
11.576	63.6842
11.594	63.6946
11.612	63.7088
11.63	63.7271
11.648	63.7485
11.666	63.7717
11.684	63.794
11.702	63.8132
11.72	63.8276
11.738	63.837
11.756	63.8423
11.774	63.8446
11.792	63.8444
11.81	63.8413
11.828	63.8339
11.846	63.821
11.864	63.803
11.882	63.782
11.9	63.7615
11.918	63.7448
11.936	63.7333
11.954	63.7256
11.972	63.7179
11.99	63.7059
12.008	63.6881
12.026	63.667
12.044	63.6488
12.062	63.6407
12.08	63.6477
12.098	63.6696
12.116	63.7006
12.134	63.7311
12.152	63.7508
12.17	63.7529
12.188	63.7359
12.206	63.7043
12.224	63.6669
12.242	63.6327
12.26	63.6086
12.278	63.5974
12.296	63.5973
12.314	63.6033
12.332	63.6092
12.35	63.6091
12.368	63.5992
12.386	63.5788
12.404	63.5499
12.422	63.5175
12.44	63.4875
12.458	63.4652
12.476	63.4539
12.494	63.454
12.512	63.4631
12.53	63.4777
12.548	63.4943
12.566	63.5104
12.584	63.5247
12.602	63.5372
12.62	63.5483
12.638	63.5584
12.656	63.5685
12.674	63.5797
12.692	63.5935
12.71	63.6115
12.728	63.635
12.746	63.665
12.764	63.7007
12.782	63.7402
12.8	63.7804
12.818	63.8172
12.836	63.8473
12.854	63.8679
12.872	63.8785
12.89	63.8797
12.908	63.8731
12.926	63.8606
12.944	63.844
12.962	63.824
12.98	63.8008
12.998	63.7742
13.016	63.7442
13.034	63.7114
13.052	63.6776
13.07	63.6448
13.088	63.6156
13.106	63.5923
13.124	63.5759
13.142	63.5661
13.16	63.5605
13.178	63.5561
13.196	63.5486
13.214	63.535
13.232	63.5131
13.25	63.4837
13.268	63.4492
13.286	63.4149
13.304	63.3876
13.322	63.3738
13.34	63.3786
13.358	63.4043
13.376	63.4493
13.394	63.5085
13.412	63.5737
13.43	63.6354
13.448	63.685
13.466	63.7156
13.484	63.724
13.502	63.7107
13.52	63.6796
13.538	63.6371
13.556	63.5903
13.574	63.5461
13.592	63.5096
13.61	63.4841
13.628	63.4711
13.646	63.4701
13.664	63.4798
13.682	63.4983
13.7	63.5233
13.718	63.5525
13.736	63.5832
13.754	63.6126
13.772	63.6379
13.79	63.6568
13.808	63.6679
13.826	63.6704
13.844	63.6643
13.862	63.6504
13.88	63.6294
13.898	63.6024
13.916	63.5698
13.934	63.5315
13.952	63.4871
13.97	63.4362
13.988	63.3792
14.006	63.3175
14.024	63.2536
14.042	63.1916
14.06	63.1359
14.078	63.0907
14.096	63.0589
14.114	63.0417
14.132	63.0385
14.15	63.0471
14.168	63.0638
14.186	63.0843
14.204	63.1046
14.222	63.1212
14.24	63.132
14.258	63.1359
14.276	63.1323
14.294	63.1216
14.312	63.1045
14.33	63.0824
14.348	63.0569
14.366	63.0296
14.384	63.0029
14.402	62.9789
14.42	62.9596
14.438	62.947
14.456	62.9425
14.474	62.9464
14.492	62.9581
14.51	62.9761
14.528	62.9988
14.546	63.0247
14.564	63.0526
14.582	63.0826
14.6	63.1156
14.618	63.1537
14.636	63.1992
14.654	63.2536
14.672	63.3171
14.69	63.3887
14.708	63.4654
14.726	63.5426
14.744	63.6133
14.762	63.671
14.78	63.7103
14.798	63.7267
14.816	63.7179
14.834	63.6835
14.852	63.6265
14.87	63.5517
14.888	63.4651
14.906	63.3736
14.924	63.2844
14.942	63.2041
14.96	63.1379
14.978	63.0897
14.996	63.0618
15.014	63.0559
15.032	63.072
15.05	63.1095
15.068	63.1665
15.086	63.2411
15.104	63.3302
15.122	63.4298
15.14	63.5358
15.158	63.6443
15.176	63.7515
15.194	63.8532
15.212	63.9454
15.23	64.026
15.248	64.0938
15.266	64.1483
15.284	64.1905
15.302	64.222
15.32	64.2449
15.338	64.2613
15.356	64.2731
15.374	64.2821
15.392	64.2886
15.41	64.2923
15.428	64.2923
15.446	64.2863
15.464	64.272
15.482	64.2476
15.5	64.2115
15.518	64.1636
15.536	64.1054
15.554	64.0394
15.572	63.9687
15.59	63.8987
15.608	63.834
15.626	63.7787
15.644	63.737
15.662	63.7116
15.68	63.7027
15.698	63.7092
15.716	63.7279
15.734	63.753
15.752	63.7789
15.77	63.7995
15.788	63.8061
15.806	63.7925
15.824	63.7542
15.842	63.6865
15.86	63.589
15.878	63.4642
15.896	63.3155
15.914	63.1524
15.932	62.9851
15.95	62.8231
15.968	62.6783
15.986	62.5636
16.004	62.4858
16.022	62.4513
16.04	62.4635
16.058	62.5186
16.076	62.6126
16.094	62.7351
16.112	62.8725
16.13	63.0136
16.148	63.1434
16.166	63.2471
16.184	63.3167
16.202	63.3435
16.22	63.3245
16.238	63.2618
16.256	63.158
16.274	63.0242
16.292	62.8703
16.31	62.7054
16.328	62.5454
16.346	62.3998
16.364	62.2765
16.382	62.1854
16.4	62.1294
16.418	62.1108
16.436	62.1297
16.454	62.1828
16.472	62.2673
16.49	62.3767
16.508	62.5053
16.526	62.6484
16.544	62.7978
16.562	62.9484
16.58	63.0959
16.598	63.2341
16.616	63.3603
16.634	63.4719
16.652	63.5661
16.67	63.642
16.688	63.6988
16.706	63.7369
16.724	63.7571
16.742	63.76
16.76	63.7486
16.778	63.7242
16.796	63.6892
16.814	63.6464
16.832	63.5971
16.85	63.5438
16.868	63.4885
16.886	63.4328
16.904	63.3792
16.922	63.3291
16.94	63.284
16.958	63.2461
16.976	63.216
16.994	63.196
17.012	63.1867
17.03	63.1887
17.048	63.2021
17.066	63.2259
17.084	63.2592
17.102	63.2988
17.12	63.3432
17.138	63.3876
17.156	63.4289
17.174	63.464
17.192	63.488
17.21	63.4996
17.228	63.4955
17.246	63.4755
17.264	63.4386
17.282	63.3859
17.3	63.3187
17.318	63.2393
17.336	63.151
17.354	63.0555
17.372	62.9573
17.39	62.8575
17.408	62.7597
17.426	62.6644
17.444	62.5727
17.462	62.4848
17.48	62.4008
17.498	62.3207
17.516	62.2446
17.534	62.1729
17.552	62.1061
17.57	62.0445
17.588	61.9904
17.606	61.9448
17.624	61.9097
17.642	61.8881
17.66	61.8812
17.678	61.8914
17.696	61.919
17.714	61.9656
17.732	62.0303
17.75	62.1129
17.768	62.2106
17.786	62.3227
17.804	62.4443
17.822	62.5742
17.84	62.7067
17.858	62.839
17.876	62.9669
17.894	63.086
17.912	63.1945
17.93	63.2883
17.948	63.3668
17.966	63.4278
17.984	63.4716
18.002	63.4977
18.02	63.5078
18.038	63.5027
18.056	63.4859
18.074	63.4583
18.092	63.4247
18.11	63.386
18.128	63.3465
18.146	63.3069
18.164	63.2706
18.182	63.238
18.2	63.2104
18.218	63.1874
18.236	63.1694
18.254	63.154
18.272	63.141
18.29	63.1269
18.308	63.1113
18.326	63.0905
18.344	63.064
18.362	63.0288
18.38	62.9847
18.398	62.9303
18.416	62.8661
18.434	62.7921
18.452	62.7104
18.47	62.6219
18.488	62.5301
18.506	62.4358
18.524	62.3439
18.542	62.2551
18.56	62.1739
18.578	62.1007
18.596	62.0397
18.614	61.991
18.632	61.9566
18.65	61.9366
18.668	61.932
18.686	61.9424
18.704	61.9669
18.722	62.0052
18.74	62.0561
18.758	62.1192
18.776	62.1932
18.794	62.2777
18.812	62.3716
18.83	62.4744
18.848	62.5851
18.866	62.703
18.884	62.8271
18.902	62.9565
18.92	63.09
18.938	63.2261
18.956	63.3631
18.974	63.499
18.992	63.6312
19.01	63.7577
19.028	63.8756
19.046	63.9832
19.064	64.0772
19.082	64.1568
19.1	64.2193
19.118	64.2648
19.136	64.2914
19.154	64.3001
19.172	64.2908
19.19	64.2646
19.208	64.2233
19.226	64.1681
19.244	64.1027
19.262	64.0279
19.28	63.9485
19.298	63.8648
19.316	63.782
19.334	63.7
19.352	63.6229
19.37	63.5505
19.388	63.4858
19.406	63.4287
19.424	63.3801
19.442	63.3402
19.46	63.3085
19.478	63.2854
19.496	63.2691
19.514	63.2596
19.532	63.2553
19.55	63.2556
19.568	63.2593
19.586	63.2651
19.604	63.2724
19.622	63.2793
19.64	63.286
19.658	63.2908
19.676	63.2939
19.694	63.2939
19.712	63.291
19.73	63.2849
19.748	63.2755
19.766	63.2628
19.784	63.2467
19.802	63.2278
19.82	63.2063
19.838	63.1828
19.856	63.158
19.874	63.1321
19.892	63.1065
19.91	63.0809
19.928	63.0568
19.946	63.0341
19.964	63.0137
19.982	62.9956
20	62.9803
20.018	62.9679
20.036	62.9582
20.054	62.9516
20.072	62.9477
20.09	62.9466
20.108	62.9481
20.126	62.9519
20.144	62.9579
20.162	62.9656
20.18	62.9747
20.198	62.9853
20.216	62.997
20.234	63.0099
20.252	63.0238
20.27	63.0387
20.288	63.0543
20.306	63.0707
20.324	63.0873
20.342	63.104
20.36	63.1205
20.378	63.1359
20.396	63.1504
20.414	63.1624
20.432	63.1723
20.45	63.1786
20.468	63.1807
20.486	63.1782
20.504	63.1699
20.522	63.156
20.54	63.1358
20.558	63.1091
20.576	63.0764
20.594	63.0377
20.612	62.9937
20.63	62.946
20.648	62.8941
20.666	62.8416
20.684	62.7878
20.702	62.7355
20.72	62.6864
20.738	62.6407
20.756	62.6021
20.774	62.5697
20.792	62.5462
20.81	62.5321
20.828	62.5277
20.846	62.5342
20.864	62.5514
20.882	62.5787
20.9	62.6167
20.918	62.6638
20.936	62.7193
20.954	62.7829
20.972	62.8515
20.99	62.926
21.008	63.0032
21.026	63.082
21.044	63.1617
21.062	63.2389
21.08	63.3145
21.098	63.3854
21.116	63.4511
21.134	63.5111
21.152	63.5635
21.17	63.6087
21.188	63.6458
21.206	63.6746
21.224	63.6952
21.242	63.7075
21.26	63.7117
21.278	63.7087
21.296	63.6986
21.314	63.682
21.332	63.6605
21.35	63.6334
21.368	63.6025
21.386	63.5682
21.404	63.5307
21.422	63.4913
21.44	63.4496
21.458	63.4066
21.476	63.3628
21.494	63.3181
21.512	63.2732
21.53	63.2278
21.548	63.1822
21.566	63.1366
21.584	63.0909
21.602	63.045
21.62	62.9989
21.638	62.9527
21.656	62.9064
21.674	62.8601
21.692	62.814
21.71	62.768
21.728	62.7225
21.746	62.6777
21.764	62.6335
21.782	62.5904
21.8	62.549
21.818	62.509
21.836	62.4714
21.854	62.436
21.872	62.4032
21.89	62.3738
21.908	62.3477
21.926	62.325
21.944	62.306
21.962	62.2906
21.98	62.279
21.998	62.2712
22.016	62.2671
22.034	62.2663
22.052	62.269
22.07	62.2747
22.088	62.2832
22.106	62.2946
22.124	62.3082
22.142	62.3239
22.16	62.3417
22.178	62.3608
22.196	62.3815
22.214	62.4032
22.232	62.4254
22.25	62.4484
22.268	62.4716
22.286	62.4948
22.304	62.5181
22.322	62.5414
22.34	62.5646
22.358	62.5877
22.376	62.6106
22.394	62.6333
22.412	62.6558
22.43	62.6778
22.448	62.6994
22.466	62.7206
22.484	62.7417
22.502	62.7624
22.52	62.7832
22.538	62.8041
22.556	62.8251
22.574	62.8468
22.592	62.8691
22.61	62.8922
22.628	62.9166
22.646	62.9422
22.664	62.9691
22.682	62.9978
22.7	63.0282
22.718	63.0602
22.736	63.0942
22.754	63.13
22.772	63.1674
22.79	63.2061
22.808	63.2464
22.826	63.2873
22.844	63.3286
22.862	63.3706
22.88	63.4123
22.898	63.4535
22.916	63.4945
22.934	63.5344
22.952	63.5734
22.97	63.6114
22.988	63.6477
23.006	63.682
23.024	63.7146
23.042	63.7455
23.06	63.7743
23.078	63.8014
23.096	63.8277
23.114	63.8529
23.132	63.8774
23.15	63.9027
23.168	63.9282
23.186	63.9546
23.204	63.9837
23.222	64.0152
23.24	64.0494
23.258	64.0874
23.276	64.1293
23.294	64.1749
23.312	64.2248
23.33	64.2795
23.348	64.3382
23.366	64.3997
23.384	64.4646
23.402	64.5322
23.42	64.6005
23.438	64.6704
23.456	64.741
23.474	64.8084
23.492	64.873
23.51	64.9346
23.528	64.9888
23.546	65.0351
23.564	65.0743
23.582	65.1017
23.6	65.1158
23.618	65.1182
23.636	65.1053
23.654	65.0751
23.672	65.0292
23.69	64.9663
23.708	64.8851
23.726	64.786
23.744	64.6704
23.762	64.5393
23.78	64.3911
23.798	64.2292
23.816	64.0571
23.834	63.872
23.852	63.6776
23.87	63.4798
23.888	63.2754
23.906	63.0675
23.924	62.8637
23.942	62.6631
23.96	62.4657
23.978	62.2792
23.996	62.1058
24.014	61.9427
24.032	61.7956
24.05	61.6685
24.068	61.5584
24.086	61.4674
24.104	61.3977
24.122	61.3488
24.14	61.3198
24.158	61.31
24.176	61.3212
24.194	61.3511
24.212	61.3948
24.23	61.4534
24.248	61.5269
24.266	61.6073
24.284	61.6908
24.302	61.7824
24.32	61.873
24.338	61.9543
24.356	62.0324
24.374	62.1016
24.392	62.1524
24.41	62.1865
24.428	62.2041
24.446	62.1982
24.464	62.1661
24.482	62.111
24.5	62.0292
24.518	61.9172
24.536	61.7758
24.554	61.6069
24.572	61.412
24.59	61.1886
24.608	60.9392
24.626	60.6699
24.644	60.3819
24.662	60.0715
24.68	59.749
24.698	59.4233
24.716	59.0867
24.734	58.7465
24.752	58.4156
24.77	58.093
24.788	57.7761
24.806	57.4778
24.824	57.2065
24.842	56.954
24.86	56.7277
24.878	56.5373
24.896	56.3809
24.914	56.2575
24.932	56.1717
24.95	56.1264
24.968	56.1193
24.986	56.1502
25.004	56.2192
25.022	56.3295
25.04	56.477
25.058	56.6541
25.076	56.8597
25.094	57.0989
25.112	57.3589
25.13	57.6272
25.148	57.913
25.166	58.2103
25.184	58.5029
25.202	58.7843
25.22	59.0646
25.238	59.3307
25.256	59.5687
25.274	59.7853
25.292	59.9787
25.31	60.1371
25.328	60.2536
25.346	60.336
25.364	60.3784
25.382	60.3741
25.4	60.3222
25.418	60.2258
25.436	60.085
25.454	59.899
25.472	59.6655
25.49	59.39
25.508	59.079
25.526	58.7315
25.544	58.3449
25.562	57.9304
25.58	57.4981
25.598	57.04
25.616	56.5607
25.634	56.0731
25.652	55.5846
25.67	55.0856
25.688	54.5849
25.706	54.0935
25.724	53.6121
25.742	53.1362
25.76	52.6726
25.778	52.2277
25.796	51.7991
25.814	51.3862
25.832	50.9909
25.85	50.6151
25.868	50.2587
25.886	49.9193
25.904	49.594
25.922	49.2831
25.94	48.9881
25.958	48.7048
25.976	48.4294
25.994	48.164
26.012	47.9083
26.03	47.6578
26.048	47.4084
26.066	47.1639
26.084	46.9222
26.102	46.6789
26.12	46.4312
26.138	46.1817
26.156	45.9295
26.174	45.6729
26.192	45.4115
26.21	45.1465
26.228	44.8763
26.246	44.5994
26.264	44.3141
26.282	44.0216
26.3	43.7247
26.318	43.4262
26.336	43.1229
26.354	42.816
26.372	42.5112
26.39	42.2138
26.408	41.9168
26.426	41.6242
26.444	41.3458
26.462	41.0891
26.48	40.8449
26.498	40.6186
26.516	40.4203
26.534	40.2568
26.552	40.1181
26.57	40.0111
26.588	39.9459
26.606	39.9295
26.624	39.9548
26.642	40.0236
26.66	40.1386
26.678	40.3013
26.696	40.5089
26.714	40.7632
26.732	41.0666
26.75	41.4215
26.768	41.8272
26.786	42.2803
26.804	42.7773
26.822	43.3156
26.84	43.8966
26.858	44.5214
26.876	45.1911
26.894	45.9047
26.912	46.6593
26.93	47.4603
26.948	48.3135
26.966	49.2777
26.984	50.4296
27.002	51.5637
27.02	52.457
27.028	52.6925