File: Bakgrunnsmateriale/MATLAB/FTIR/ftir_data/subAa/Mapping_121/BZ1503107-1_t99.asc
PE IR       SPECTRUM    SPECTRUM    ASCII       PEDS        1.60
  -1
BZ3D6B~1.ASC
17/04/07
21:22:58.00
17/04/07
21:23:24.00
tln
$BZ1503107-1_t0099$<tbV0>[-13.0,7.8,8.0,0.0,27,1,0]
27.028
64

2002,4.07
MIRTGS : RIGHTBACK : INTERNAL 2
MIR : ON : INTERNAL 2
OPTKBR

0.200000
8
8.000000
FILLER
RATIO
SPECTRUM
UNLOCKED 256

DOUBLE
64
COMBINED
1
0
0

0.002000
RATIO

1
0
TRUE
51149
0
LEFT NOT FITTED RIGHT NOT FITTED 0
NONE
NONE
15600
12
4.427000
51148
TRUE
1 0 8 72 0 0 0 0

15798

#HDR
-1
-1
#GR
µM
%T
2.38419e-05
0.0
2.000000
0.002000
12515
8
84.6274
26.0184
#DATA
2.000000	 65.2714
2.018000	 64.1782
2.036000	 64.6647
2.054000	 64.5778
2.072000	 65.1286
2.090000	 65.028
2.108000	 65.1307
2.126000	 64.8612
2.144000	 65.1209
2.162000	 65.2379
2.180000	 64.4873
2.198000	 64.1864
2.216000	 64.1414
2.234000	 63.3323
2.252000	 77.7235
2.270000	 64.5795
2.288000	 64.5503
2.306000	 64.0833
2.324000	 64.337
2.342000	 64.3297
2.360000	 64.6212
2.378000	 64.7617
2.396000	 65.2563
2.414000	 64.8922
2.432000	 65.1531
2.450000	 64.8784
2.468000	 64.9182
2.486000	 64.852
2.504000	 64.987
2.522000	 64.9066
2.540000	 64.7569
2.558000	 64.7607
2.576000	 64.778
2.594000	 65.1993
2.612000	 64.8715
2.630000	 64.8178
2.648000	 64.97
2.666000	 64.784
2.684000	 65.0622
2.702000	 65.361
2.720000	 64.8918
2.738000	 64.9654
2.756000	 65.0783
2.774000	 65.0724
2.792000	 64.9478
2.810000	 64.8334
2.828000	 64.7974
2.846000	 64.8853
2.864000	 64.8822
2.882000	 64.9923
2.900000	 64.8758
2.918000	 64.7882
2.936000	 64.8418
2.954000	 64.9201
2.972000	 64.8118
2.990000	 64.9061
3.008000	 64.7906
3.026000	 64.948
3.044000	 64.8703
3.062000	 64.8523
3.080000	 65.038
3.098000	 64.8639
3.116000	 64.8574
3.134000	 64.8267
3.152000	 64.8277
3.170000	 64.8417
3.188000	 64.9175
3.206000	 64.8071
3.224000	 64.8322
3.242000	 64.8204
3.260000	 64.7524
3.278000	 64.9561
3.296000	 64.6895
3.314000	 64.7497
3.332000	 64.8228
3.350000	 64.6988
3.368000	 64.7101
3.386000	 64.5463
3.404000	 64.7584
3.422000	 64.6582
3.440000	 64.7041
3.458000	 64.5838
3.476000	 64.6304
3.494000	 64.6371
3.512000	 64.5858
3.530000	 64.5996
3.548000	 64.762
3.566000	 64.6243
3.584000	 64.6853
3.602000	 64.8048
3.620000	 64.7354
3.638000	 64.6496
3.656000	 64.6009
3.674000	 64.6776
3.692000	 64.6801
3.710000	 64.6035
3.728000	 64.6185
3.746000	 64.6612
3.764000	 64.697
3.782000	 64.7747
3.800000	 64.6792
3.818000	 64.5994
3.836000	 64.6636
3.854000	 64.6648
3.872000	 64.689
3.890000	 64.6864
3.908000	 64.6406
3.926000	 64.5559
3.944000	 64.5963
3.962000	 64.6205
3.980000	 64.6152
3.998000	 64.495
4.016000	 64.7531
4.034000	 64.6349
4.052000	 64.6749
4.070000	 64.6729
4.088000	 64.5207
4.106000	 64.532
4.124000	 64.671
4.141999	 64.5922
4.160000	 64.5023
4.178000	 64.5882
4.196000	 64.6083
4.214000	 64.5358
4.232000	 64.5608
4.250000	 64.4902
4.268000	 64.5095
4.286000	 64.4597
4.304000	 64.5967
4.322000	 64.5833
4.340000	 64.4141
4.358000	 64.4507
4.375999	 64.4703
4.394000	 64.5126
4.412000	 64.4798
4.430000	 64.5202
4.448000	 64.5503
4.466000	 64.3958
4.484000	 64.3673
4.502000	 64.336
4.520000	 64.3833
4.538000	 64.2939
4.556000	 64.3543
4.574000	 64.3689
4.592000	 64.3737
4.609999	 64.3267
4.628000	 64.2877
4.646000	 64.2426
4.664000	 64.2265
4.682000	 64.3359
4.700000	 64.2637
4.718000	 64.3485
4.736000	 64.2933
4.754000	 64.3577
4.772000	 64.2518
4.790000	 64.1852
4.808000	 64.2236
4.826000	 64.1908
4.843999	 64.2481
4.862000	 64.3566
4.880000	 64.2682
4.898000	 64.2247
4.916000	 64.2622
4.934000	 64.1835
4.952000	 64.1919
4.970000	 64.2016
4.988000	 64.2783
5.006000	 64.3373
5.024000	 64.2301
5.042000	 64.1756
5.060000	 64.2296
5.077999	 64.3212
5.096000	 64.2786
5.114000	 64.2087
5.132000	 64.1294
5.150000	 64.1105
5.168000	 64.1321
5.186000	 64.1206
5.204000	 64.1838
5.222000	 64.1926
5.240000	 64.2035
5.258000	 64.1228
5.276000	 64.0755
5.294000	 64.2006
5.312000	 64.0961
5.330000	 64.0891
5.348000	 64.1762
5.366000	 64.187
5.384000	 64.1872
5.402000	 64.1108
5.420000	 64.0009
5.438000	 64.0203
5.456000	 64.0859
5.474000	 64.094
5.492000	 64.0542
5.510000	 64.048
5.528000	 64.1023
5.546000	 64.1179
5.564000	 64.1191
5.582000	 64.045
5.600000	 63.9035
5.618000	 63.8922
5.636000	 63.9154
5.654000	 63.9516
5.672000	 63.9343
5.690000	 63.8191
5.708000	 63.7018
5.726000	 63.7591
5.744000	 63.7405
5.762000	 63.6669
5.780000	 63.6531
5.798000	 63.6822
5.816000	 63.7118
5.834000	 63.8116
5.852000	 63.8148
5.870000	 63.8478
5.888000	 63.9173
5.906000	 63.8766
5.923999	 63.8117
5.942000	 63.8188
5.960000	 63.8173
5.978000	 63.7837
5.996000	 63.8396
6.014000	 63.913
6.032000	 63.9131
6.050000	 63.8434
6.068000	 63.859
6.086000	 63.873
6.104000	 63.8087
6.122000	 63.7862
6.140000	 63.8118
6.158000	 63.8318
6.176000	 63.8371
6.194000	 63.8366
6.212000	 63.8076
6.230000	 63.7606
6.248000	 63.7361
6.266000	 63.7357
6.284000	 63.7564
6.302000	 63.7292
6.320000	 63.6516
6.338000	 63.6763
6.356000	 63.7699
6.374000	 63.7503
6.392000	 63.686
6.410000	 63.7266
6.428000	 63.8103
6.446000	 63.7878
6.464000	 63.7394
6.482000	 63.725
6.500000	 63.7032
6.518000	 63.6933
6.536000	 63.6893
6.554000	 63.6713
6.572000	 63.6876
6.590000	 63.7219
6.608000	 63.7252
6.626000	 63.7523
6.644000	 63.7861
6.662000	 63.7785
6.680000	 63.7716
6.698000	 63.7886
6.716000	 63.7882
6.734000	 63.7267
6.752000	 63.6673
6.770000	 63.6739
6.788000	 63.6818
6.806000	 63.6723
6.824000	 63.6732
6.842000	 63.6565
6.860000	 63.6098
6.878000	 63.5537
6.896000	 63.5361
6.914000	 63.566
6.932000	 63.6043
6.950000	 63.6805
6.968000	 63.7583
6.986000	 63.7181
7.004000	 63.6385
7.022000	 63.6364
7.040000	 63.6293
7.058000	 63.567
7.076000	 63.5194
7.094000	 63.5209
7.112000	 63.5512
7.130000	 63.5642
7.148000	 63.5168
7.166000	 63.4401
7.184000	 63.4023
7.202000	 63.4119
7.220000	 63.4451
7.238000	 63.4863
7.256000	 63.5064
7.274000	 63.4921
7.292000	 63.4809
7.310000	 63.4996
7.328000	 63.5236
7.346000	 63.5247
7.364000	 63.4969
7.382000	 63.4636
7.400000	 63.4804
7.418000	 63.5436
7.436000	 63.5731
7.454000	 63.532
7.472000	 63.4572
7.490000	 63.4169
7.508000	 63.461
7.526000	 63.5309
7.544000	 63.5313
7.562000	 63.4813
7.580000	 63.4537
7.598000	 63.4607
7.616000	 63.4882
7.634000	 63.5214
7.652000	 63.5311
7.670000	 63.5106
7.688000	 63.4837
7.706000	 63.4601
7.724000	 63.4394
7.742000	 63.4207
7.760000	 63.393
7.778000	 63.3648
7.796000	 63.3696
7.814000	 63.4019
7.832000	 63.4095
7.850000	 63.3742
7.868000	 63.3298
7.886000	 63.3053
7.904000	 63.3059
7.922000	 63.3244
7.940000	 63.3394
7.958000	 63.3338
7.976000	 63.322
7.994000	 63.3282
8.012000	 63.3512
8.030000	 63.3746
8.048000	 63.3793
8.065999	 63.3438
8.084000	 63.269
8.102000	 63.1975
8.120000	 63.1796
8.138000	 63.2242
8.155999	 63.2997
8.173999	 63.3666
8.192000	 63.4027
8.210000	 63.4108
8.228000	 63.4053
8.246000	 63.3914
8.263999	 63.3635
8.282000	 63.3279
8.300000	 63.3119
8.318000	 63.3315
8.336000	 63.3605
8.353999	 63.3611
8.372000	 63.3315
8.390000	 63.3003
8.408000	 63.2825
8.426000	 63.2663
8.443999	 63.2406
8.462000	 63.2142
8.480000	 63.2016
8.498000	 63.2029
8.516000	 63.201
8.533999	 63.181
8.552000	 63.1481
8.570000	 63.1222
8.588000	 63.1152
8.606000	 63.1285
8.624000	 63.1559
8.641999	 63.1844
8.660000	 63.1999
8.678000	 63.2021
8.696000	 63.203
8.714000	 63.2066
8.731999	 63.1996
8.750000	 63.1752
8.768000	 63.1479
8.786000	 63.1345
8.804000	 63.1337
8.821999	 63.1329
8.840000	 63.125
8.858000	 63.1198
8.876000	 63.1399
8.894000	 63.1979
8.911999	 63.273
8.930000	 63.3189
8.948000	 63.3032
8.966000	 63.2362
8.984000	 63.1561
9.001999	 63.091
9.020000	 63.0523
9.038000	 63.0475
9.056000	 63.0786
9.074000	 63.131
9.092000	 63.1795
9.109999	 63.2063
9.128000	 63.2105
9.146000	 63.1997
9.164000	 63.1777
9.182000	 63.1414
9.199999	 63.0862
9.218000	 63.0122
9.236000	 62.9287
9.254000	 62.8583
9.272000	 62.8275
9.289999	 62.8481
9.308000	 62.9042
9.326000	 62.9616
9.344000	 62.992
9.362000	 62.993
9.379999	 62.9865
9.398000	 62.9953
9.416000	 63.0214
9.434000	 63.0461
9.452000	 63.0478
9.469999	 63.0226
9.488000	 62.9871
9.506000	 62.9653
9.524000	 62.9715
9.542000	 63.0048
9.560000	 63.0527
9.577999	 63.0974
9.596000	 63.121
9.614000	 63.1129
9.632000	 63.078
9.650000	 63.0358
9.667999	 63.0111
9.686000	 63.019
9.704000	 63.0554
9.722000	 63.0983
9.740000	 63.12
9.757999	 63.1022
9.776000	 63.046
9.794000	 62.9698
9.812000	 62.8996
9.830000	 62.8547
9.847999	 62.8402
9.866000	 62.8506
9.884000	 62.8761
9.902000	 62.9093
9.920000	 62.9446
9.937999	 62.9779
9.956000	 63.0073
9.974000	 63.0331
9.992000	 63.0576
10.01	63.0823
10.028	63.1071
10.046	63.1298
10.064	63.15
10.082	63.1702
10.1	63.1955
10.118	63.2313
10.136	63.2778
10.154	63.3289
10.172	63.3727
10.19	63.3957
10.208	63.3905
10.226	63.3598
10.244	63.3143
10.262	63.2671
10.28	63.2244
10.298	63.185
10.316	63.144
10.334	63.1008
10.352	63.0625
10.37	63.0401
10.388	63.0408
10.406	63.0629
10.424	63.0971
10.442	63.1321
10.46	63.1601
10.478	63.1774
10.496	63.1811
10.514	63.1685
10.532	63.1372
10.55	63.0909
10.568	63.0408
10.586	63.0028
10.604	62.9892
10.622	63.0036
10.64	63.0386
10.658	63.0816
10.676	63.1215
10.694	63.1531
10.712	63.1758
10.73	63.1905
10.748	63.1965
10.766	63.1904
10.784	63.1698
10.802	63.1345
10.82	63.0868
10.838	63.0307
10.856	62.9706
10.874	62.9122
10.892	62.8638
10.91	62.8359
10.928	62.8372
10.946	62.8688
10.964	62.9202
10.982	62.971
11	63
11.018	62.9938
11.036	62.9545
11.054	62.899
11.072	62.8496
11.09	62.826
11.108	62.8354
11.126	62.8722
11.144	62.9229
11.162	62.9714
11.18	63.0067
11.198	63.0231
11.216	63.0216
11.234	63.0066
11.252	62.9841
11.27	62.9587
11.288	62.9329
11.306	62.9067
11.324	62.8787
11.342	62.8482
11.36	62.8164
11.378	62.7874
11.396	62.7662
11.414	62.7572
11.432	62.7624
11.45	62.7808
11.468	62.8099
11.486	62.847
11.504	62.8907
11.522	62.9391
11.54	62.9883
11.558	63.0309
11.576	63.057
11.594	63.0583
11.612	63.0311
11.63	62.9797
11.648	62.9144
11.666	62.8504
11.684	62.8005
11.702	62.771
11.72	62.7609
11.738	62.7622
11.756	62.7653
11.774	62.7632
11.792	62.755
11.81	62.7453
11.828	62.7416
11.846	62.7507
11.864	62.7746
11.882	62.8101
11.9	62.8493
11.918	62.8832
11.936	62.9046
11.954	62.9107
11.972	62.9032
11.99	62.887
12.008	62.8686
12.026	62.8543
12.044	62.8493
12.062	62.8568
12.08	62.8786
12.098	62.915
12.116	62.9637
12.134	63.0196
12.152	63.0756
12.17	63.1237
12.188	63.1565
12.206	63.1692
12.224	63.1613
12.242	63.1362
12.26	63.1002
12.278	63.0606
12.296	63.024
12.314	62.9944
12.332	62.9727
12.35	62.9568
12.368	62.9429
12.386	62.9266
12.404	62.9053
12.422	62.8799
12.44	62.8532
12.458	62.8301
12.476	62.8158
12.494	62.8141
12.512	62.8262
12.53	62.8509
12.548	62.8847
12.566	62.923
12.584	62.961
12.602	62.9946
12.62	63.0205
12.638	63.0372
12.656	63.045
12.674	63.0454
12.692	63.0414
12.71	63.0367
12.728	63.0346
12.746	63.0382
12.764	63.0482
12.782	63.0628
12.8	63.0784
12.818	63.09
12.836	63.092
12.854	63.0805
12.872	63.0535
12.89	63.0118
12.908	62.9586
12.926	62.8989
12.944	62.8383
12.962	62.7821
12.98	62.7346
12.998	62.6984
13.016	62.675
13.034	62.6643
13.052	62.6654
13.07	62.6764
13.088	62.6953
13.106	62.7203
13.124	62.7491
13.142	62.78
13.16	62.8116
13.178	62.843
13.196	62.8736
13.214	62.9029
13.232	62.9305
13.25	62.9556
13.268	62.9773
13.286	62.9948
13.304	63.0069
13.322	63.0132
13.34	63.0142
13.358	63.0111
13.376	63.006
13.394	63.0014
13.412	62.9998
13.43	63.0032
13.448	63.0126
13.466	63.0279
13.484	63.0479
13.502	63.0704
13.52	63.0931
13.538	63.1136
13.556	63.1302
13.574	63.1413
13.592	63.1459
13.61	63.1432
13.628	63.1326
13.646	63.1139
13.664	63.0867
13.682	63.0516
13.7	63.0094
13.718	62.9624
13.736	62.9135
13.754	62.8663
13.772	62.8246
13.79	62.7916
13.808	62.7694
13.826	62.7581
13.844	62.7561
13.862	62.7603
13.88	62.7665
13.898	62.7705
13.916	62.7685
13.934	62.7582
13.952	62.7391
13.97	62.7125
13.988	62.6811
14.006	62.6486
14.024	62.6192
14.042	62.5963
14.06	62.5817
14.078	62.5761
14.096	62.5784
14.114	62.5865
14.132	62.5972
14.15	62.6077
14.168	62.6154
14.186	62.6186
14.204	62.6167
14.222	62.6101
14.24	62.5999
14.258	62.587
14.276	62.5726
14.294	62.5574
14.312	62.5415
14.33	62.5244
14.348	62.5055
14.366	62.4845
14.384	62.4616
14.402	62.4375
14.42	62.4137
14.438	62.3921
14.456	62.3748
14.474	62.3632
14.492	62.358
14.51	62.359
14.528	62.3642
14.546	62.3713
14.564	62.3773
14.582	62.3797
14.6	62.3764
14.618	62.3663
14.636	62.3495
14.654	62.3274
14.672	62.3024
14.69	62.2772
14.708	62.2547
14.726	62.2378
14.744	62.2286
14.762	62.2284
14.78	62.2376
14.798	62.2556
14.816	62.2813
14.834	62.3129
14.852	62.3483
14.87	62.3854
14.888	62.4219
14.906	62.456
14.924	62.4858
14.942	62.51
14.96	62.5278
14.978	62.539
14.996	62.5437
15.014	62.5427
15.032	62.5371
15.05	62.5279
15.068	62.5163
15.086	62.5029
15.104	62.4883
15.122	62.4729
15.14	62.457
15.158	62.4408
15.176	62.4245
15.194	62.4087
15.212	62.3941
15.23	62.3813
15.248	62.3709
15.266	62.3636
15.284	62.3594
15.302	62.3581
15.32	62.3592
15.338	62.3622
15.356	62.3666
15.374	62.372
15.392	62.3782
15.41	62.3856
15.428	62.3948
15.446	62.4066
15.464	62.4218
15.482	62.4409
15.5	62.4641
15.518	62.4909
15.536	62.5197
15.554	62.5489
15.572	62.5764
15.59	62.5993
15.608	62.6157
15.626	62.6241
15.644	62.6235
15.662	62.6144
15.68	62.5985
15.698	62.5775
15.716	62.5543
15.734	62.5322
15.752	62.5131
15.77	62.4993
15.788	62.4922
15.806	62.4918
15.824	62.4976
15.842	62.5084
15.86	62.5214
15.878	62.5348
15.896	62.5462
15.914	62.5529
15.932	62.5535
15.95	62.547
15.968	62.5327
15.986	62.5111
16.004	62.4829
16.022	62.4491
16.04	62.4113
16.058	62.3707
16.076	62.3283
16.094	62.2852
16.112	62.2424
16.13	62.2004
16.148	62.1594
16.166	62.121
16.184	62.0863
16.202	62.0568
16.22	62.0357
16.238	62.0251
16.256	62.0272
16.274	62.045
16.292	62.0797
16.31	62.1323
16.328	62.2024
16.346	62.2875
16.364	62.3854
16.382	62.4905
16.4	62.5969
16.418	62.7002
16.436	62.7924
16.454	62.8687
16.472	62.9255
16.49	62.9586
16.508	62.968
16.526	62.9536
16.544	62.9184
16.562	62.8669
16.58	62.8026
16.598	62.7329
16.616	62.6621
16.634	62.5945
16.652	62.5355
16.67	62.487
16.688	62.451
16.706	62.4284
16.724	62.4186
16.742	62.4206
16.76	62.4322
16.778	62.4523
16.796	62.4778
16.814	62.5059
16.832	62.5349
16.85	62.561
16.868	62.5819
16.886	62.5955
16.904	62.5987
16.922	62.5903
16.94	62.5684
16.958	62.5325
16.976	62.4827
16.994	62.4198
17.012	62.3462
17.03	62.2634
17.048	62.1759
17.066	62.0865
17.084	61.9988
17.102	61.9177
17.12	61.8452
17.138	61.7855
17.156	61.7401
17.174	61.7106
17.192	61.6975
17.21	61.7002
17.228	61.7176
17.246	61.7472
17.264	61.7876
17.282	61.8349
17.3	61.8876
17.318	61.942
17.336	61.9962
17.354	62.0486
17.372	62.0972
17.39	62.142
17.408	62.1822
17.426	62.2185
17.444	62.2507
17.462	62.2799
17.48	62.3063
17.498	62.3306
17.516	62.3531
17.534	62.374
17.552	62.3934
17.57	62.4112
17.588	62.4274
17.606	62.4417
17.624	62.4539
17.642	62.464
17.66	62.4718
17.678	62.4781
17.696	62.483
17.714	62.4872
17.732	62.4916
17.75	62.497
17.768	62.5042
17.786	62.5135
17.804	62.5255
17.822	62.54
17.84	62.5568
17.858	62.5753
17.876	62.5948
17.894	62.6141
17.912	62.6326
17.93	62.6486
17.948	62.6619
17.966	62.6712
17.984	62.6765
18.002	62.6775
18.02	62.6747
18.038	62.6683
18.056	62.66
18.074	62.6502
18.092	62.6404
18.11	62.6309
18.128	62.6228
18.146	62.6159
18.164	62.6103
18.182	62.6054
18.2	62.6007
18.218	62.5947
18.236	62.5866
18.254	62.5746
18.272	62.558
18.29	62.5354
18.308	62.5064
18.326	62.4709
18.344	62.429
18.362	62.3822
18.38	62.3316
18.398	62.2796
18.416	62.228
18.434	62.1797
18.452	62.137
18.47	62.1017
18.488	62.0758
18.506	62.0602
18.524	62.0549
18.542	62.0601
18.56	62.0737
18.578	62.0954
18.596	62.1208
18.614	62.1497
18.632	62.1767
18.65	62.2016
18.668	62.2194
18.686	62.23
18.704	62.2293
18.722	62.2178
18.74	62.1937
18.758	62.158
18.776	62.1115
18.794	62.0553
18.812	61.9924
18.83	61.9243
18.848	61.8541
18.866	61.7841
18.884	61.7182
18.902	61.6581
18.92	61.6077
18.938	61.5683
18.956	61.5432
18.974	61.5328
18.992	61.5393
19.01	61.5621
19.028	61.6017
19.046	61.6565
19.064	61.7252
19.082	61.8057
19.1	61.8948
19.118	61.9906
19.136	62.0888
19.154	62.1878
19.172	62.282
19.19	62.3707
19.208	62.449
19.226	62.5169
19.244	62.5707
19.262	62.611
19.28	62.6372
19.298	62.65
19.316	62.6518
19.334	62.6429
19.352	62.6287
19.37	62.6089
19.388	62.5909
19.406	62.5745
19.424	62.5658
19.442	62.5649
19.46	62.576
19.478	62.6
19.496	62.6364
19.514	62.686
19.532	62.7457
19.55	62.8156
19.568	62.8906
19.586	62.9668
19.604	63.041
19.622	63.1059
19.64	63.1604
19.658	63.1947
19.676	63.2097
19.694	63.1972
19.712	63.158
19.73	63.0886
19.748	62.9883
19.766	62.8593
19.784	62.7006
19.802	62.5184
19.82	62.3144
19.838	62.0941
19.856	61.8646
19.874	61.6279
19.892	61.3971
19.91	61.171
19.928	60.9642
19.946	60.7751
19.964	60.6153
19.982	60.4858
20	60.3914
20.018	60.3358
20.036	60.3183
20.054	60.3418
20.072	60.4046
20.09	60.5042
20.108	60.641
20.126	60.807
20.144	61.0034
20.162	61.2208
20.18	61.4569
20.198	61.7063
20.216	61.9601
20.234	62.2187
20.252	62.47
20.27	62.7161
20.288	62.9464
20.306	63.1607
20.324	63.3543
20.342	63.5236
20.36	63.6688
20.378	63.786
20.396	63.8762
20.414	63.9395
20.432	63.9752
20.45	63.9865
20.468	63.9738
20.486	63.9394
20.504	63.8875
20.522	63.8176
20.54	63.7372
20.558	63.6451
20.576	63.5473
20.594	63.4459
20.612	63.3427
20.63	63.2438
20.648	63.1477
20.666	63.0598
20.684	62.9796
20.702	62.9096
20.72	62.8521
20.738	62.8064
20.756	62.7734
20.774	62.7531
20.792	62.7446
20.81	62.7486
20.828	62.763
20.846	62.7858
20.864	62.8172
20.882	62.853
20.9	62.8939
20.918	62.9361
20.936	62.9768
20.954	63.0162
20.972	63.0483
20.99	63.0746
21.008	63.091
21.026	63.096
21.044	63.0895
21.062	63.0689
21.08	63.0346
21.098	62.9868
21.116	62.9247
21.134	62.8498
21.152	62.7639
21.17	62.6663
21.188	62.5615
21.206	62.4495
21.224	62.3327
21.242	62.2158
21.26	62.0972
21.278	61.9831
21.296	61.874
21.314	61.7715
21.332	61.6806
21.35	61.5998
21.368	61.5327
21.386	61.4804
21.404	61.4425
21.422	61.4209
21.44	61.4152
21.458	61.4246
21.476	61.4494
21.494	61.4888
21.512	61.5397
21.53	61.6035
21.548	61.6765
21.566	61.7567
21.584	61.8447
21.602	61.935
21.62	62.0288
21.638	62.1231
21.656	62.2138
21.674	62.3026
21.692	62.3852
21.71	62.4607
21.728	62.5291
21.746	62.588
21.764	62.6378
21.782	62.678
21.8	62.7079
21.818	62.7277
21.836	62.7383
21.854	62.7396
21.872	62.732
21.89	62.7166
21.908	62.693
21.926	62.662
21.944	62.6245
21.962	62.5801
21.98	62.5291
21.998	62.4715
22.016	62.4075
22.034	62.3369
22.052	62.26
22.07	62.1763
22.088	62.0853
22.106	61.9873
22.124	61.8818
22.142	61.7683
22.16	61.6472
22.178	61.519
22.196	61.383
22.214	61.2408
22.232	61.0938
22.25	60.9409
22.268	60.7857
22.286	60.6296
22.304	60.4717
22.322	60.3174
22.34	60.1666
22.358	60.0203
22.376	59.8839
22.394	59.756
22.412	59.6389
22.43	59.5366
22.448	59.4474
22.466	59.3738
22.484	59.3182
22.502	59.2794
22.52	59.2586
22.538	59.2567
22.556	59.273
22.574	59.3064
22.592	59.3575
22.61	59.4251
22.628	59.5059
22.646	59.6012
22.664	59.7085
22.682	59.823
22.7	59.9471
22.718	60.0769
22.736	60.2077
22.754	60.342
22.772	60.4753
22.79	60.6037
22.808	60.7293
22.826	60.8483
22.844	60.9579
22.862	61.0599
22.88	61.1512
22.898	61.2302
22.916	61.2981
22.934	61.3537
22.952	61.3964
22.97	61.4268
22.988	61.4455
23.006	61.4521
23.024	61.447
23.042	61.4328
23.06	61.409
23.078	61.3762
23.096	61.3377
23.114	61.2927
23.132	61.2422
23.15	61.19
23.168	61.1356
23.186	61.0796
23.204	61.0254
23.222	60.9721
23.24	60.9206
23.258	60.8741
23.276	60.8317
23.294	60.7945
23.312	60.766
23.33	60.7457
23.348	60.7341
23.366	60.7338
23.384	60.7447
23.402	60.7667
23.42	60.8012
23.438	60.8487
23.456	60.9086
23.474	60.9805
23.492	61.0649
23.51	61.1613
23.528	61.2677
23.546	61.3847
23.564	61.5121
23.582	61.6457
23.6	61.7848
23.618	61.9306
23.636	62.0777
23.654	62.2242
23.672	62.3723
23.69	62.5159
23.708	62.651
23.726	62.7813
23.744	62.9006
23.762	63.0038
23.78	63.0943
23.798	63.1686
23.816	63.2219
23.834	63.2562
23.852	63.2706
23.87	63.2632
23.888	63.2338
23.906	63.1833
23.924	63.1124
23.942	63.0203
23.96	62.9078
23.978	62.7786
23.996	62.6327
24.014	62.4693
24.032	62.2945
24.05	62.1116
24.068	61.9167
24.086	61.7168
24.104	61.5178
24.122	61.3153
24.14	61.1141
24.158	60.9211
24.176	60.7341
24.194	60.5542
24.212	60.3874
24.23	60.2348
24.248	60.0946
24.266	59.9699
24.284	59.863
24.302	59.7722
24.32	59.6978
24.338	59.6401
24.356	59.5991
24.374	59.5742
24.392	59.5651
24.41	59.5727
24.428	59.596
24.446	59.6323
24.464	59.6811
24.482	59.7436
24.5	59.816
24.518	59.8955
24.536	59.9855
24.554	60.0816
24.572	60.1779
24.59	60.2763
24.608	60.3763
24.626	60.4722
24.644	60.5622
24.662	60.6496
24.68	60.7278
24.698	60.7913
24.716	60.8449
24.734	60.8843
24.752	60.9014
24.77	60.8967
24.788	60.8719
24.806	60.8202
24.824	60.7368
24.842	60.6261
24.86	60.4849
24.878	60.3091
24.896	60.0985
24.914	59.8548
24.932	59.5779
24.95	59.2672
24.968	58.9221
24.986	58.5463
25.004	58.1431
25.022	57.7075
25.04	57.2443
25.058	56.7636
25.076	56.2678
25.094	55.7504
25.112	55.2247
25.13	54.7036
25.148	54.177
25.166	53.6516
25.184	53.1451
25.202	52.6639
25.22	52.1967
25.238	51.7597
25.256	51.3697
25.274	51.0184
25.292	50.7081
25.31	50.453
25.328	50.2615
25.346	50.1247
25.364	50.0481
25.382	50.0387
25.4	50.0969
25.418	50.2198
25.436	50.4077
25.454	50.6616
25.472	50.9837
25.49	51.3683
25.508	51.8084
25.526	52.3058
25.544	52.8631
25.562	53.4669
25.58	54.1048
25.598	54.7884
25.616	55.51
25.634	56.2514
25.652	57.0027
25.67	57.7786
25.688	58.5634
25.706	59.3379
25.724	60.1038
25.742	60.8678
25.76	61.6116
25.778	62.3187
25.796	63.001
25.814	63.6538
25.832	64.2611
25.85	64.813
25.868	65.3218
25.886	65.7785
25.904	66.1708
25.922	66.4957
25.94	66.7604
25.958	66.9582
25.976	67.0822
25.994	67.1338
26.012	67.115
26.03	67.0237
26.048	66.8577
26.066	66.6163
26.084	66.3027
26.102	65.9207
26.12	65.472
26.138	64.9523
26.156	64.3679
26.174	63.7264
26.192	63.0283
26.21	62.268
26.228	61.4571
26.246	60.6073
26.264	59.7165
26.282	58.7805
26.3	57.8121
26.318	56.8233
26.336	55.8061
26.354	54.7617
26.372	53.7049
26.39	52.6494
26.408	51.5852
26.426	50.5151
26.444	49.4507
26.462	48.4015
26.48	47.3588
26.498	46.3261
26.516	45.3117
26.534	44.3215
26.552	43.35
26.57	42.3989
26.588	41.4718
26.606	40.5719
26.624	39.6971
26.642	38.8465
26.66	38.0192
26.678	37.2151
26.696	36.4347
26.714	35.677
26.732	34.941
26.75	34.2265
26.768	33.5348
26.786	32.8636
26.804	32.2106
26.822	31.5731
26.84	30.9512
26.858	30.3487
26.876	29.7694
26.894	29.2135
26.912	28.6758
26.93	28.164
26.948	27.6865
26.966	27.2379
26.984	26.7974
27.002	26.4043
27.02	26.1023
27.028	26.0184