File: Bakgrunnsmateriale/MATLAB/FTIR/ftir_data/subAa/Mapping_121/BZ1503107-1_t63_cm-1.asc
PE IR       SPECTRUM    SPECTRUM    ASCII       PEDS        1.60
  -1
BZ6B21~1.ASC
17/04/07
18:22:50.00
17/04/07
18:22:50.00
tln
$BZ1503107-1_t0063$<tbV0>[-5.2,0.0,8.0,0.0,27,1,0]
370
64

2002,4.07
MIRTGS : RIGHTBACK : INTERNAL 2
MIR : ON : INTERNAL 2
OPTKBR

0.200000
8
8.000000
FILLER
RATIO
SPECTRUM
UNLOCKED 256

DOUBLE
64
COMBINED
1
0
0

1.000000
RATIO

1
0
TRUE
51149
0
LEFT NOT FITTED RIGHT NOT FITTED 0
NONE
NONE
15600
12
4.427000
51148
TRUE
1 0 8 72 0 0 0 0

15798

#HDR
-1
-1
#GR
CM-1
%T
2.38419e-05
0.0
5000
-1.000000
4631
8
75.2188
53.7136
#DATA
5000	64.8516
4996	65.5697
4992	65.8761
4988	65.7783
4984	65.7259
4980	64.8489
4976	63.9271
4972	64.1793
4968	65.0049
4964	65.3712
4960	65.4647
4956	65.3914
4952	65.0947
4948	65.0041
4944	64.8983
4940	64.8135
4936	64.7467
4932	64.6783
4928	64.817
4924	64.8675
4920	64.7286
4916	64.8111
4912	64.9374
4908	64.8629
4904	64.9443
4900	64.9372
4896	64.7803
4892	64.7162
4888	64.7134
4884	64.7666
4880	64.7834
4876	64.9324
4872	65.1892
4868	65.2206
4864	65.0853
4860	64.9655
4856	64.8046
4852	64.5373
4848	64.3291
4844	64.4278
4840	64.6691
4836	64.7625
4832	64.8067
4828	64.7561
4824	64.5716
4820	64.5998
4816	64.7519
4812	64.781
4808	64.7228
4804	64.6433
4800	64.756
4796	64.8607
4792	64.5215
4788	64.1436
4784	64.2297
4780	64.6184
4776	64.8818
4772	64.8371
4768	64.8619
4764	64.9558
4760	64.8515
4756	64.7175
4752	64.5947
4748	64.6337
4744	64.9353
4740	65.0552
4736	64.7905
4732	64.5281
4728	64.6329
4724	64.907
4720	65.0568
4716	65.0442
4712	65.0319
4708	65.047
4704	64.8588
4700	64.643
4696	64.544
4692	64.5754
4688	64.7238
4684	64.9189
4680	65.1472
4676	65.0732
4672	64.8595
4668	64.8578
4664	64.8868
4660	64.8734
4656	64.7737
4652	64.7133
4648	64.8122
4644	64.8213
4640	64.8341
4636	65.0301
4632	65.1628
4628	65.085
4624	64.9249
4620	64.7674
4616	64.6039
4612	64.5486
4608	64.7253
4604	65.0885
4600	65.3883
4596	65.3429
4592	65.2071
4588	65.2502
4584	65.1761
4580	65.0425
4576	65.0697
4572	64.9513
4568	64.6298
4564	64.4884
4560	64.6351
4556	64.8272
4552	64.897
4548	64.8496
4544	64.7647
4540	64.6645
4536	64.6843
4532	64.9961
4528	65.321
4524	65.3155
4520	65.2421
4516	65.367
4512	65.3832
4508	65.1766
4504	65.0737
4500	64.9374
4496	64.6332
4492	64.5824
4488	64.8394
4484	65.068
4480	65.1123
4476	65.0072
4472	64.9308
4468	65.1894
4464	65.0951
4460	64.888
4456	65.0278
4452	65.1737
4448	64.6348
4444	63.1442
4440	62.4705
4436	63.5153
4432	63.5646
4428	60.6227
4424	58.8002
4420	60.1234
4416	62.5171
4412	64.6667
4408	65.5429
4404	65.3138
4400	65.1232
4396	65.2426
4392	65.3966
4388	65.1825
4384	65.1312
4380	65.1768
4376	64.9614
4372	64.9158
4368	64.9622
4364	65.0305
4360	65.3946
4356	65.5467
4352	65.2322
4348	65.0485
4344	64.9893
4340	64.9561
4336	65.2267
4332	65.3668
4328	65.2035
4324	65.0841
4320	65.0049
4316	65.0054
4312	65.0336
4308	64.9196
4304	64.8917
4300	65.1385
4296	65.2188
4292	65.0534
4288	65.0567
4284	65.19
4280	65.3217
4276	65.3694
4272	65.2931
4268	65.2155
4264	65.1398
4260	65.0559
4256	64.9309
4252	64.7607
4248	64.7051
4244	64.8262
4240	64.9985
4236	65.0783
4232	65.0674
4228	65.0717
4224	65.1446
4220	65.1885
4216	65.1119
4212	65.0383
4208	65.0057
4204	65.064
4200	65.1917
4196	65.1971
4192	65.2489
4188	65.3327
4184	65.1977
4180	64.9129
4176	64.6802
4172	64.6532
4168	64.781
4164	64.8957
4160	64.9003
4156	64.8869
4152	64.9134
4148	64.903
4144	64.9241
4140	65.0031
4136	65.0681
4132	65.0105
4128	64.8368
4124	64.8389
4120	64.9226
4116	64.8909
4112	65.0542
4108	65.2198
4104	65.1088
4100	65.09
4096	65.1251
4092	64.9538
4088	64.8066
4084	64.7654
4080	64.7671
4076	64.9114
4072	65.0529
4068	65.0456
4064	65.0582
4060	65.1689
4056	65.1594
4052	65.0151
4048	65.017
4044	65.1019
4040	65.0887
4036	65.1527
4032	65.2247
4028	65.0971
4024	64.9808
4020	64.9657
4016	64.9229
4012	64.8703
4008	64.942
4004	65.1223
4000	65.2337
3996	65.2577
3992	65.2679
3988	65.3079
3984	65.3549
3980	65.3461
3976	65.2804
3972	65.1803
3968	65.133
3964	65.1854
3960	65.1586
3956	64.9635
3952	64.8025
3948	64.8206
3944	64.8703
3940	64.9091
3936	65.0476
3932	65.0473
3928	64.8696
3924	64.888
3920	65.0576
3916	65.0975
3912	65.0888
3908	65.1696
3904	65.2775
3900	65.28
3896	65.2557
3892	65.3541
3888	65.3863
3884	65.2763
3880	65.1717
3876	65.0596
3872	64.9755
3868	64.9957
3864	65.0952
3860	65.1492
3856	65.0987
3852	65.0779
3848	65.0948
3844	65.0912
3840	65.1433
3836	65.1302
3832	65.0191
3828	64.9837
3824	65.0514
3820	65.1953
3816	65.1688
3812	64.9444
3808	64.8602
3804	64.9337
3800	65.0339
3796	65.0192
3792	64.9637
3788	65.1663
3784	65.4524
3780	65.5059
3776	65.4307
3772	65.3184
3768	65.1577
3764	65.0651
3760	65.0488
3756	65.0714
3752	65.0611
3748	64.9953
3744	65.0336
3740	65.0788
3736	65.001
3732	64.9893
3728	65.0015
3724	64.9393
3720	64.9691
3716	65.0912
3712	65.1512
3708	65.1843
3704	65.2432
3700	65.2502
3696	65.1621
3692	64.9909
3688	64.9229
3684	65.005
3680	65.0497
3676	65.0252
3672	64.9554
3668	64.8899
3664	64.9419
3660	65.089
3656	65.1825
3652	65.1948
3648	65.1853
3644	65.1488
3640	65.1443
3636	65.1474
3632	65.054
3628	65.0352
3624	65.1171
3620	65.0827
3616	64.9823
3612	64.9605
3608	65.0017
3604	65.0194
3600	65.0408
3596	65.0825
3592	65.0645
3588	65.0517
3584	65.0929
3580	65.1103
3576	65.0924
3572	65.1226
3568	65.1699
3564	65.1027
3560	65.0007
3556	65.0018
3552	65.0693
3548	65.1254
3544	65.1226
3540	65.0809
3536	65.0412
3532	64.972
3528	64.8369
3524	64.8048
3520	65.0184
3516	65.1837
3512	65.1217
3508	65.0932
3504	65.1682
3500	65.246
3496	65.313
3492	65.2989
3488	65.1883
3484	65.1133
3480	65.1081
3476	65.0749
3472	65.0223
3468	65.0233
3464	65.0988
3460	65.2034
3456	65.2997
3452	65.3195
3448	65.2105
3444	65.1
3440	65.0693
3436	65.0316
3432	64.9451
3428	64.9048
3424	64.9633
3420	65.0351
3416	65.0495
3412	65.0821
3408	65.1162
3404	65.0423
3400	64.9333
3396	64.8463
3392	64.8458
3388	64.9759
3384	65.0984
3380	65.1161
3376	65.0596
3372	65.0349
3368	65.0213
3364	65.02
3360	65.0628
3356	65.0009
3352	64.9744
3348	65.1006
3344	65.1402
3340	65.0948
3336	65.0497
3332	65.0134
3328	65.022
3324	65.0173
3320	65.0087
3316	65.0444
3312	65.0732
3308	65.0501
3304	65.0443
3300	65.0382
3296	64.958
3292	64.8807
3288	64.8796
3284	64.9129
3280	64.9041
3276	64.9123
3272	65.0256
3268	65.134
3264	65.1045
3260	65.0522
3256	65.0739
3252	65.063
3248	64.9982
3244	65.0078
3240	65.0161
3236	64.9388
3232	64.9668
3228	65.0759
3224	65.0893
3220	65.0366
3216	64.9905
3212	64.9298
3208	64.9346
3204	65.0491
3200	65.0866
3196	65.0596
3192	65.0783
3188	65.0653
3184	65.0271
3180	65.0449
3176	65.0423
3172	64.9867
3168	64.9797
3164	65.0255
3160	65.0662
3156	65.0689
3152	65.0306
3148	65.0312
3144	65.1125
3140	65.2161
3136	65.2458
3132	65.2112
3128	65.2182
3124	65.1944
3120	65.0925
3116	65.0336
3112	65.0192
3108	64.9904
3104	65.0372
3100	65.1559
3096	65.1099
3092	64.8942
3088	64.7439
3084	64.7353
3080	64.8216
3076	64.9593
3072	65.0344
3068	64.9922
3064	64.9841
3060	64.9943
3056	64.9399
3052	64.9414
3048	64.9662
3044	64.951
3040	64.9307
3036	64.8785
3032	64.8589
3028	64.8752
3024	64.8678
3020	64.862
3016	64.8875
3012	65.0054
3008	65.169
3004	65.1884
3000	65.0871
2996	65.0793
2992	65.0809
2988	64.993
2984	64.9277
2980	64.8734
2976	64.8241
2972	64.7871
2968	64.774
2964	64.7928
2960	64.7816
2956	64.8131
2952	64.8814
2948	64.8832
2944	64.8891
2940	64.9147
2936	64.9015
2932	64.9077
2928	64.946
2924	64.9561
2920	64.9562
2916	64.9796
2912	64.9978
2908	64.9904
2904	64.9528
2900	64.8697
2896	64.8008
2892	64.8099
2888	64.8694
2884	64.8947
2880	64.8691
2876	64.883
2872	64.9311
2868	64.975
2864	64.9865
2860	64.9248
2856	64.8839
2852	64.933
2848	64.9625
2844	64.9645
2840	64.9998
2836	64.977
2832	64.9436
2828	64.9992
2824	65.0295
2820	64.946
2816	64.8413
2812	64.8183
2808	64.8601
2804	64.8887
2800	64.8697
2796	64.8555
2792	64.8679
2788	64.8826
2784	64.9101
2780	64.9254
2776	64.9144
2772	64.8979
2768	64.8715
2764	64.9056
2760	64.9319
2756	64.8765
2752	64.8797
2748	64.9215
2744	64.9263
2740	64.8865
2736	64.8388
2732	64.8615
2728	64.8975
2724	64.8906
2720	64.9118
2716	64.9586
2712	64.9599
2708	64.9849
2704	65.025
2700	64.9869
2696	64.9682
2692	65.0125
2688	64.9854
2684	64.9168
2680	64.902
2676	64.8865
2672	64.8744
2668	64.905
2664	64.9435
2660	64.9536
2656	64.9575
2652	64.9758
2648	64.9663
2644	64.9277
2640	64.9127
2636	64.9188
2632	64.8759
2628	64.8225
2624	64.8481
2620	64.9194
2616	64.9627
2612	64.9315
2608	64.8937
2604	64.9012
2600	64.9091
2596	64.9285
2592	64.9422
2588	64.9403
2584	64.9196
2580	64.852
2576	64.8108
2572	64.8092
2568	64.761
2564	64.7183
2560	64.7378
2556	64.7798
2552	64.7867
2548	64.7713
2544	64.803
2540	64.8438
2536	64.868
2532	64.8948
2528	64.8848
2524	64.839
2520	64.8102
2516	64.8181
2512	64.8006
2508	64.7107
2504	64.6479
2500	64.7475
2496	64.9178
2492	64.9793
2488	64.974
2484	64.981
2480	64.9482
2476	64.8516
2472	64.7546
2468	64.7024
2464	64.7214
2460	64.7922
2456	64.8248
2452	64.8259
2448	64.8558
2444	64.8427
2440	64.7665
2436	64.7605
2432	64.8324
2428	64.8571
2424	64.866
2420	64.9255
2416	64.9011
2412	64.7868
2408	64.7521
2404	64.7684
2400	64.7659
2396	64.7884
2392	64.8116
2388	64.7894
2384	64.7387
2380	64.7053
2376	64.7404
2372	64.7828
2368	64.716
2364	64.6439
2360	64.6346
2356	64.6026
2352	64.6371
2348	64.7122
2344	64.7076
2340	64.7072
2336	64.7275
2332	64.7241
2328	64.7043
2324	64.6498
2320	64.6258
2316	64.6777
2312	64.7513
2308	64.7933
2304	64.8079
2300	64.8325
2296	64.8085
2292	64.712
2288	64.6368
2284	64.6338
2280	64.647
2276	64.6561
2272	64.6777
2268	64.7022
2264	64.7371
2260	64.7514
2256	64.7354
2252	64.72
2248	64.7034
2244	64.6877
2240	64.6612
2236	64.6157
2232	64.5779
2228	64.5693
2224	64.6298
2220	64.7109
2216	64.715
2212	64.6663
2208	64.6628
2204	64.7073
2200	64.7206
2196	64.7505
2192	64.7812
2188	64.6944
2184	64.5873
2180	64.5999
2176	64.6382
2172	64.5991
2168	64.571
2164	64.5874
2160	64.6456
2156	64.6911
2152	64.6835
2148	64.7003
2144	64.7081
2140	64.6336
2136	64.554
2132	64.5452
2128	64.6071
2124	64.6545
2120	64.6551
2116	64.6924
2112	64.7151
2108	64.6818
2104	64.641
2100	64.5847
2096	64.546
2092	64.5362
2088	64.5276
2084	64.5546
2080	64.5858
2076	64.5766
2072	64.5815
2068	64.5811
2064	64.5713
2060	64.5797
2056	64.5583
2052	64.5132
2048	64.4722
2044	64.4885
2040	64.5758
2036	64.5875
2032	64.5152
2028	64.4982
2024	64.5393
2020	64.5848
2016	64.6054
2012	64.594
2008	64.5807
2004	64.5679
2000	64.5575
1996	64.5689
1992	64.5722
1988	64.5443
1984	64.4912
1980	64.4344
1976	64.4334
1972	64.5019
1968	64.5806
1964	64.6077
1960	64.5612
1956	64.4921
1952	64.4588
1948	64.4557
1944	64.4892
1940	64.5211
1936	64.5093
1932	64.4889
1928	64.5018
1924	64.5173
1920	64.4773
1916	64.4547
1912	64.4957
1908	64.5285
1904	64.522
1900	64.4698
1896	64.406
1892	64.4051
1888	64.436
1884	64.4135
1880	64.365
1876	64.3756
1872	64.4368
1868	64.4765
1864	64.465
1860	64.4353
1856	64.4427
1852	64.4743
1848	64.4687
1844	64.413
1840	64.3593
1836	64.3817
1832	64.4134
1828	64.3843
1824	64.3852
1820	64.4026
1816	64.3908
1812	64.3844
1808	64.4024
1804	64.4429
1800	64.4634
1796	64.4533
1792	64.4135
1788	64.3754
1784	64.3883
1780	64.4157
1776	64.4122
1772	64.3554
1768	64.2725
1764	64.2279
1760	64.2469
1756	64.2731
1752	64.2461
1748	64.2171
1744	64.1914
1740	64.1284
1736	64.0491
1732	64.0152
1728	64.0568
1724	64.1025
1720	64.1217
1716	64.1353
1712	64.1584
1708	64.1778
1704	64.1276
1700	64.0502
1696	64.0781
1692	64.1588
1688	64.1653
1684	64.1363
1680	64.111
1676	64.0985
1672	64.1098
1668	64.1669
1664	64.251
1660	64.2508
1656	64.223
1652	64.275
1648	64.3562
1644	64.3405
1640	64.1868
1636	64.0729
1632	64.1171
1628	64.1978
1624	64.1742
1620	64.1085
1616	64.1567
1612	64.2479
1608	64.2519
1604	64.2089
1600	64.1788
1596	64.1541
1592	64.098
1588	64.0606
1584	64.0981
1580	64.1385
1576	64.1409
1572	64.1085
1568	64.0417
1564	64.0379
1560	64.1684
1556	64.291
1552	64.2336
1548	64.0935
1544	64.0599
1540	64.0969
1536	64.0503
1532	63.9764
1528	64.0073
1524	64.0865
1520	64.1466
1516	64.2082
1512	64.222
1508	64.1798
1504	64.1804
1500	64.1788
1496	64.1261
1492	64.0831
1488	64.0342
1484	64.0485
1480	64.0947
1476	64.0803
1472	64.0969
1468	64.1186
1464	64.1069
1460	64.164
1456	64.2238
1452	64.1809
1448	64.0534
1444	63.9203
1440	63.8828
1436	63.956
1432	63.9786
1428	63.8923
1424	63.9233
1420	64.0809
1416	64.1082
1412	64.0191
1408	63.987
1404	63.9861
1400	63.9405
1396	63.9254
1392	63.9789
1388	63.9885
1384	63.9283
1380	63.8884
1376	63.8834
1372	63.9409
1368	64.0095
1364	63.9634
1360	63.8586
1356	63.7838
1352	63.7592
1348	63.7632
1344	63.784
1340	63.8301
1336	63.8843
1332	63.9232
1328	63.9115
1324	63.8906
1320	63.918
1316	63.9728
1312	63.9625
1308	63.8898
1304	63.8852
1300	63.9384
1296	63.9284
1292	63.8567
1288	63.8373
1284	63.8528
1280	63.8391
1276	63.8658
1272	63.9306
1268	63.963
1264	63.9446
1260	63.8993
1256	63.8453
1252	63.7894
1248	63.7694
1244	63.8014
1240	63.7949
1236	63.7221
1232	63.7062
1228	63.7264
1224	63.7206
1220	63.7091
1216	63.7018
1212	63.7322
1208	63.7967
1204	63.8045
1200	63.7196
1196	63.6495
1192	63.6673
1188	63.7326
1184	63.7818
1180	63.7759
1176	63.7493
1172	63.7609
1168	63.7817
1164	63.7231
1160	63.5755
1156	63.4392
1152	63.4073
1148	63.4454
1144	63.4961
1140	63.6058
1136	63.6991
1132	63.6348
1128	63.5443
1124	63.6209
1120	63.7702
1116	63.7853
1112	63.6799
1108	63.6294
1104	63.6554
1100	63.6523
1096	63.6471
1092	63.6635
1088	63.6377
1084	63.6101
1080	63.6289
1076	63.6487
1072	63.6534
1068	63.6135
1064	63.6116
1060	63.6974
1056	63.6579
1052	63.544
1048	63.5486
1044	63.5927
1040	63.6414
1036	63.6292
1032	63.5935
1028	63.6845
1024	63.7064
1020	63.5935
1016	63.521
1012	63.4894
1008	63.5449
1004	63.6222
1000	63.6303
996	 63.6712
992	 63.7017
988	 63.6744
984	 63.673
980	 63.7122
976	 63.7155
972	 63.6678
968	 63.5994
964	 63.5673
960	 63.5635
956	 63.5063
952	 63.5302
948	 63.5782
944	 63.4021
940	 63.2569
936	 63.376
932	 63.5606
928	 63.675
924	 63.6326
920	 63.4538
916	 63.3334
912	 63.3818
908	 63.5124
904	 63.5309
900	 63.4248
896	 63.3751
892	 63.3823
888	 63.4075
884	 63.5254
880	 63.659
876	 63.7253
872	 63.6951
868	 63.6007
864	 63.594
860	 63.7045
856	 63.8243
852	 63.7805
848	 63.611
844	 63.5607
840	 63.59
836	 63.6004
832	 63.6891
828	 63.8719
824	 63.8693
820	 63.6119
816	 63.4875
812	 63.5215
808	 63.4855
804	 63.3984
800	 63.3681
796	 63.3788
792	 63.3547
788	 63.3133
784	 63.3565
780	 63.4724
776	 63.5367
772	 63.537
768	 63.5283
764	 63.5114
760	 63.5366
756	 63.603
752	 63.5311
748	 63.3643
744	 63.31
740	 63.3206
736	 63.3478
732	 63.4139
728	 63.5036
724	 63.4797
720	 63.3206
716	 63.3127
712	 63.3737
708	 63.3181
704	 63.2679
700	 63.2281
696	 63.1585
692	 63.2985
688	 63.6313
684	 63.6663
680	 63.5632
676	 63.4439
672	 63.1819
668	 63.2262
664	 63.5935
660	 63.8412
656	 63.6458
652	 63.2264
648	 63.0976
644	 62.8313
640	 62.4048
636	 62.3701
632	 62.5101
628	 62.8406
624	 63.2318
620	 63.3513
616	 63.6268
612	 64.0123
608	 63.7766
604	 62.9817
600	 62.6738
596	 62.9489
592	 63.0383
588	 62.9813
584	 63.1403
580	 63.4607
576	 63.4046
572	 62.987
568	 62.9542
564	 63.4125
560	 63.809
556	 63.6079
552	 63.0531
548	 62.5676
544	 61.9505
540	 61.5175
536	 62.0843
532	 63.1901
528	 63.801
524	 64.183
520	 64.2318
516	 63.5603
512	 63.0628
508	 63.0067
504	 63.0211
500	 63.1129
496	 63.2188
492	 63.2425
488	 63.1604
484	 62.9956
480	 62.7422
476	 62.7215
472	 62.8441
468	 62.9823
464	 63.1998
460	 63.0035
456	 62.4785
452	 61.9668
448	 62.2395
444	 62.9924
440	 62.5522
436	 61.6676
432	 62.799
428	 65.225
424	 65.3173
420	 63.0335
416	 62.0046
412	 62.7545
408	 61.3897
404	 58.4054
400	 59.5803
396	 61.1479
392	 56.6308
388	 53.7136
384	 57.4656
380	 66.7774
376	 75.2188
372	 67.9441
370	 63.061