File: Bakgrunnsmateriale/MATLAB/FTIR/ftir_data/subAa/Mapping_121/BZ1503107-1_t97.asc
PE IR       SPECTRUM    SPECTRUM    ASCII       PEDS        1.60
  -1
BZ356B~1.ASC
17/04/07
21:13:43.00
17/04/07
21:14:09.00
tln
$BZ1503107-1_t0097$<tbV0>[-7.8,7.8,8.0,0.0,27,1,0]
27.028
64

2002,4.07
MIRTGS : RIGHTBACK : INTERNAL 2
MIR : ON : INTERNAL 2
OPTKBR

0.200000
8
8.000000
FILLER
RATIO
SPECTRUM
UNLOCKED 256

DOUBLE
64
COMBINED
1
0
0

0.002000
RATIO

1
0
TRUE
51149
0
LEFT NOT FITTED RIGHT NOT FITTED 0
NONE
NONE
15600
12
4.427000
51148
TRUE
1 0 8 72 0 0 0 0

15798

#HDR
-1
-1
#GR
µM
%T
2.38419e-05
0.0
2.000000
0.002000
12515
8
71.0618
40.1491
#DATA
2.000000	 63.5048
2.018000	 64.4444
2.036000	 64.8561
2.054000	 63.1749
2.072000	 63.6933
2.090000	 63.8063
2.108000	 63.8393
2.126000	 63.6987
2.144000	 64.4255
2.162000	 64.0864
2.180000	 63.8839
2.198000	 63.8226
2.216000	 63.8206
2.234000	 63.4072
2.252000	 62.3768
2.270000	 64.5776
2.288000	 64.0703
2.306000	 63.9201
2.324000	 63.7889
2.342000	 63.6813
2.360000	 64.0566
2.378000	 63.7745
2.396000	 64.4069
2.414000	 63.7808
2.432000	 64.0882
2.450000	 64.1043
2.468000	 63.9709
2.486000	 63.9894
2.504000	 63.9885
2.522000	 64.1119
2.540000	 64.2502
2.558000	 64.0943
2.576000	 63.8519
2.594000	 64.0834
2.612000	 64.2878
2.630000	 63.7514
2.648000	 64.1909
2.666000	 64.2205
2.684000	 64.1832
2.702000	 64.1912
2.720000	 64.3217
2.738000	 64.151
2.756000	 64.1365
2.774000	 64.2892
2.792000	 64.1904
2.810000	 63.9733
2.828000	 64.1503
2.846000	 63.942
2.864000	 64.1874
2.882000	 64.3751
2.900000	 64.0771
2.918000	 64.1385
2.936000	 64.1563
2.954000	 64.1569
2.972000	 64.0977
2.990000	 64.1243
3.008000	 63.9713
3.026000	 64.1479
3.044000	 64.1174
3.062000	 64.043
3.080000	 64.1118
3.098000	 64.0934
3.116000	 63.9459
3.134000	 64.0502
3.152000	 64.0366
3.170000	 63.9744
3.188000	 63.9955
3.206000	 64.0118
3.224000	 64.0182
3.242000	 63.9634
3.260000	 64.0346
3.278000	 64.1049
3.296000	 63.9684
3.314000	 64.0992
3.332000	 64.1099
3.350000	 63.9501
3.368000	 63.8646
3.386000	 63.7823
3.404000	 63.8966
3.422000	 63.915
3.440000	 63.8427
3.458000	 64.0022
3.476000	 63.8778
3.494000	 63.8569
3.512000	 63.8764
3.530000	 63.9164
3.548000	 63.9665
3.566000	 63.9754
3.584000	 64.0003
3.602000	 64.1114
3.620000	 64.0974
3.638000	 63.9454
3.656000	 63.8768
3.674000	 64.0795
3.692000	 64.0299
3.710000	 64.0613
3.728000	 63.9824
3.746000	 63.973
3.764000	 63.969
3.782000	 63.9964
3.800000	 63.9276
3.818000	 63.9268
3.836000	 63.886
3.854000	 63.9633
3.872000	 63.923
3.890000	 63.9276
3.908000	 63.7736
3.926000	 63.834
3.944000	 63.8448
3.962000	 63.8077
3.980000	 63.8405
3.998000	 63.8581
4.016000	 63.9203
4.034000	 63.7775
4.052000	 63.8377
4.070000	 63.8252
4.088000	 63.8026
4.106000	 63.8159
4.124000	 63.8088
4.141999	 63.8191
4.160000	 63.73
4.178000	 63.8018
4.196000	 63.8796
4.214000	 63.6783
4.232000	 63.8566
4.250000	 63.8936
4.268000	 63.6698
4.286000	 63.698
4.304000	 63.8358
4.322000	 63.665
4.340000	 63.7458
4.358000	 63.842
4.375999	 63.7755
4.394000	 63.7441
4.412000	 63.7293
4.430000	 63.8255
4.448000	 63.9145
4.466000	 63.7491
4.484000	 63.6761
4.502000	 63.6268
4.520000	 63.7157
4.538000	 63.704
4.556000	 63.6433
4.574000	 63.5928
4.592000	 63.7558
4.609999	 63.7191
4.628000	 63.6611
4.646000	 63.6128
4.664000	 63.6445
4.682000	 63.7023
4.700000	 63.6085
4.718000	 63.6213
4.736000	 63.6077
4.754000	 63.6683
4.772000	 63.7603
4.790000	 63.6262
4.808000	 63.4763
4.826000	 63.5284
4.843999	 63.6196
4.862000	 63.7347
4.880000	 63.716
4.898000	 63.5815
4.916000	 63.5119
4.934000	 63.4675
4.952000	 63.603
4.970000	 63.5445
4.988000	 63.5453
5.006000	 63.5832
5.024000	 63.5884
5.042000	 63.5498
5.060000	 63.5529
5.077999	 63.4936
5.096000	 63.5206
5.114000	 63.542
5.132000	 63.4769
5.150000	 63.4725
5.168000	 63.5708
5.186000	 63.4086
5.204000	 63.4429
5.222000	 63.4458
5.240000	 63.4766
5.258000	 63.445
5.276000	 63.4838
5.294000	 63.5232
5.312000	 63.4431
5.330000	 63.4082
5.348000	 63.4558
5.366000	 63.4673
5.384000	 63.5032
5.402000	 63.461
5.420000	 63.3564
5.438000	 63.4283
5.456000	 63.5095
5.474000	 63.4533
5.492000	 63.4877
5.510000	 63.4314
5.528000	 63.4593
5.546000	 63.4233
5.564000	 63.3791
5.582000	 63.3977
5.600000	 63.3769
5.618000	 63.3665
5.636000	 63.3534
5.654000	 63.3376
5.672000	 63.2798
5.690000	 63.2267
5.708000	 63.1445
5.726000	 63.0642
5.744000	 62.9772
5.762000	 62.9031
5.780000	 62.9739
5.798000	 63.081
5.816000	 63.0791
5.834000	 63.1186
5.852000	 63.2024
5.870000	 63.1881
5.888000	 63.1382
5.906000	 63.1908
5.923999	 63.1626
5.942000	 63.1262
5.960000	 63.1141
5.978000	 63.0887
5.996000	 63.1114
6.014000	 63.2018
6.032000	 63.254
6.050000	 63.2583
6.068000	 63.3158
6.086000	 63.2586
6.104000	 63.2046
6.122000	 63.1959
6.140000	 63.1517
6.158000	 63.1854
6.176000	 63.195
6.194000	 63.1539
6.212000	 63.162
6.230000	 63.1775
6.248000	 63.1913
6.266000	 63.221
6.284000	 63.2612
6.302000	 63.2588
6.320000	 63.1831
6.338000	 63.126
6.356000	 63.1384
6.374000	 63.2061
6.392000	 63.2282
6.410000	 63.2159
6.428000	 63.2079
6.446000	 63.1516
6.464000	 63.1225
6.482000	 63.1124
6.500000	 63.0464
6.518000	 62.998
6.536000	 63.0554
6.554000	 63.1368
6.572000	 63.1405
6.590000	 63.1266
6.608000	 63.1237
6.626000	 63.1037
6.644000	 63.0573
6.662000	 63.0259
6.680000	 63.082
6.698000	 63.115
6.716000	 63.0502
6.734000	 62.9971
6.752000	 62.997
6.770000	 63.0206
6.788000	 63.0349
6.806000	 62.9867
6.824000	 62.871
6.842000	 62.824
6.860000	 62.8908
6.878000	 62.9379
6.896000	 62.9079
6.914000	 62.8741
6.932000	 62.9022
6.950000	 62.9919
6.968000	 63.0465
6.986000	 62.988
7.004000	 62.917
7.022000	 62.9299
7.040000	 62.9584
7.058000	 62.9419
7.076000	 62.9037
7.094000	 62.8867
7.112000	 62.9132
7.130000	 62.9344
7.148000	 62.9194
7.166000	 62.9157
7.184000	 62.9301
7.202000	 62.9341
7.220000	 62.938
7.238000	 62.9385
7.256000	 62.904
7.274000	 62.8397
7.292000	 62.8109
7.310000	 62.8426
7.328000	 62.87
7.346000	 62.8565
7.364000	 62.8391
7.382000	 62.8496
7.400000	 62.8871
7.418000	 62.9103
7.436000	 62.8917
7.454000	 62.8576
7.472000	 62.8315
7.490000	 62.8286
7.508000	 62.8675
7.526000	 62.9115
7.544000	 62.9136
7.562000	 62.897
7.580000	 62.8959
7.598000	 62.9081
7.616000	 62.9263
7.634000	 62.9318
7.652000	 62.8989
7.670000	 62.8397
7.688000	 62.7832
7.706000	 62.7387
7.724000	 62.7167
7.742000	 62.7212
7.760000	 62.7198
7.778000	 62.6893
7.796000	 62.654
7.814000	 62.6369
7.832000	 62.6326
7.850000	 62.6359
7.868000	 62.6434
7.886000	 62.6482
7.904000	 62.6584
7.922000	 62.6888
7.940000	 62.7298
7.958000	 62.7601
7.976000	 62.7816
7.994000	 62.8074
8.012000	 62.8296
8.030000	 62.8262
8.048000	 62.7932
8.065999	 62.747
8.084000	 62.7051
8.102000	 62.6783
8.120000	 62.6784
8.138000	 62.7156
8.155999	 62.7817
8.173999	 62.843
8.192000	 62.8638
8.210000	 62.8381
8.228000	 62.7907
8.246000	 62.752
8.263999	 62.7354
8.282000	 62.7298
8.300000	 62.7167
8.318000	 62.6961
8.336000	 62.6862
8.353999	 62.6957
8.372000	 62.71
8.390000	 62.7117
8.408000	 62.6993
8.426000	 62.6821
8.443999	 62.6676
8.462000	 62.6599
8.480000	 62.6606
8.498000	 62.6675
8.516000	 62.672
8.533999	 62.6605
8.552000	 62.6246
8.570000	 62.5712
8.588000	 62.5242
8.606000	 62.5109
8.624000	 62.5382
8.641999	 62.5856
8.660000	 62.6253
8.678000	 62.649
8.696000	 62.669
8.714000	 62.6916
8.731999	 62.7057
8.750000	 62.7007
8.768000	 62.6847
8.786000	 62.6706
8.804000	 62.6571
8.821999	 62.6341
8.840000	 62.6039
8.858000	 62.5849
8.876000	 62.589
8.894000	 62.6053
8.911999	 62.6116
8.930000	 62.6025
8.948000	 62.5929
8.966000	 62.5948
8.984000	 62.5992
9.001999	 62.5876
9.020000	 62.564
9.038000	 62.5598
9.056000	 62.6043
9.074000	 62.6915
9.092000	 62.7806
9.109999	 62.825
9.128000	 62.804
9.146000	 62.7317
9.164000	 62.6425
9.182000	 62.5655
9.199999	 62.5086
9.218000	 62.4614
9.236000	 62.4129
9.254000	 62.3678
9.272000	 62.3447
9.289999	 62.3578
9.308000	 62.4022
9.326000	 62.4557
9.344000	 62.4978
9.362000	 62.5238
9.379999	 62.5423
9.398000	 62.5607
9.416000	 62.5758
9.434000	 62.5774
9.452000	 62.5599
9.469999	 62.5301
9.488000	 62.5029
9.506000	 62.4889
9.524000	 62.4858
9.542000	 62.4836
9.560000	 62.4781
9.577999	 62.4781
9.596000	 62.4978
9.614000	 62.5405
9.632000	 62.5923
9.650000	 62.6304
9.667999	 62.6391
9.686000	 62.6188
9.704000	 62.582
9.722000	 62.5447
9.740000	 62.519
9.757999	 62.5099
9.776000	 62.515
9.794000	 62.5242
9.812000	 62.5241
9.830000	 62.5078
9.847999	 62.4801
9.866000	 62.4544
9.884000	 62.4416
9.902000	 62.4442
9.920000	 62.4568
9.937999	 62.4724
9.956000	 62.485
9.974000	 62.4891
9.992000	 62.4792
10.01	62.4538
10.028	62.421
10.046	62.3981
10.064	62.4022
10.082	62.4389
10.1	62.5005
10.118	62.5714
10.136	62.639
10.154	62.698
10.172	62.7469
10.19	62.7831
10.208	62.801
10.226	62.7972
10.244	62.7745
10.262	62.7417
10.28	62.7078
10.298	62.6781
10.316	62.6529
10.334	62.6308
10.352	62.6117
10.37	62.5971
10.388	62.5883
10.406	62.5836
10.424	62.5769
10.442	62.5595
10.46	62.5261
10.478	62.478
10.496	62.4251
10.514	62.3826
10.532	62.3652
10.55	62.3797
10.568	62.4226
10.586	62.48
10.604	62.5348
10.622	62.5723
10.64	62.5853
10.658	62.5758
10.676	62.5545
10.694	62.5351
10.712	62.5305
10.73	62.5463
10.748	62.5797
10.766	62.6198
10.784	62.6534
10.802	62.6702
10.82	62.6673
10.838	62.649
10.856	62.6225
10.874	62.5942
10.892	62.5671
10.91	62.5421
10.928	62.5206
10.946	62.5062
10.964	62.504
10.982	62.5162
11	62.5395
11.018	62.5649
11.036	62.5822
11.054	62.5843
11.072	62.5718
11.09	62.5507
11.108	62.5279
11.126	62.5083
11.144	62.4919
11.162	62.4758
11.18	62.457
11.198	62.4346
11.216	62.411
11.234	62.3904
11.252	62.3764
11.27	62.3703
11.288	62.3697
11.306	62.3714
11.324	62.3729
11.342	62.375
11.36	62.3808
11.378	62.3945
11.396	62.4177
11.414	62.4476
11.432	62.4779
11.45	62.5019
11.468	62.516
11.486	62.522
11.504	62.5266
11.522	62.5373
11.54	62.558
11.558	62.5868
11.576	62.6167
11.594	62.6399
11.612	62.6511
11.63	62.6502
11.648	62.6407
11.666	62.6274
11.684	62.6129
11.702	62.5954
11.72	62.5707
11.738	62.5352
11.756	62.4892
11.774	62.4382
11.792	62.3915
11.81	62.3585
11.828	62.3447
11.846	62.3503
11.864	62.3699
11.882	62.3956
11.9	62.4199
11.918	62.4384
11.936	62.4507
11.954	62.4594
11.972	62.4679
11.99	62.4784
12.008	62.4915
12.026	62.5055
12.044	62.5181
12.062	62.5264
12.08	62.5288
12.098	62.5247
12.116	62.5151
12.134	62.5025
12.152	62.4904
12.17	62.4822
12.188	62.4808
12.206	62.4879
12.224	62.5033
12.242	62.5249
12.26	62.5496
12.278	62.5732
12.296	62.5921
12.314	62.6036
12.332	62.6056
12.35	62.5976
12.368	62.5794
12.386	62.5521
12.404	62.5179
12.422	62.4809
12.44	62.4463
12.458	62.4199
12.476	62.4073
12.494	62.4122
12.512	62.4359
12.53	62.4766
12.548	62.53
12.566	62.5901
12.584	62.6499
12.602	62.7024
12.62	62.7419
12.638	62.7637
12.656	62.7646
12.674	62.7434
12.692	62.7011
12.71	62.6406
12.728	62.5669
12.746	62.4871
12.764	62.4087
12.782	62.3389
12.8	62.2834
12.818	62.2455
12.836	62.2257
12.854	62.2224
12.872	62.232
12.89	62.25
12.908	62.2716
12.926	62.2927
12.944	62.3095
12.962	62.32
12.98	62.323
12.998	62.3187
13.016	62.3084
13.034	62.2942
13.052	62.2791
13.07	62.2661
13.088	62.2579
13.106	62.2567
13.124	62.2634
13.142	62.2777
13.16	62.2979
13.178	62.322
13.196	62.3475
13.214	62.3725
13.232	62.3955
13.25	62.4161
13.268	62.4348
13.286	62.4522
13.304	62.4688
13.322	62.4844
13.34	62.4982
13.358	62.5083
13.376	62.5125
13.394	62.5082
13.412	62.4941
13.43	62.4699
13.448	62.4374
13.466	62.3995
13.484	62.3605
13.502	62.3244
13.52	62.2949
13.538	62.2741
13.556	62.2626
13.574	62.2594
13.592	62.2626
13.61	62.2697
13.628	62.278
13.646	62.2851
13.664	62.2892
13.682	62.2888
13.7	62.2836
13.718	62.2737
13.736	62.2601
13.754	62.244
13.772	62.2272
13.79	62.2117
13.808	62.1994
13.826	62.192
13.844	62.1903
13.862	62.1941
13.88	62.2025
13.898	62.2137
13.916	62.2256
13.934	62.2358
13.952	62.2427
13.97	62.245
13.988	62.2426
14.006	62.2356
14.024	62.2249
14.042	62.2116
14.06	62.197
14.078	62.1827
14.096	62.1704
14.114	62.1622
14.132	62.1598
14.15	62.1644
14.168	62.1761
14.186	62.194
14.204	62.2155
14.222	62.2373
14.24	62.2556
14.258	62.2669
14.276	62.2686
14.294	62.2595
14.312	62.2398
14.33	62.2109
14.348	62.1756
14.366	62.1372
14.384	62.0993
14.402	62.0652
14.42	62.0374
14.438	62.0176
14.456	62.0064
14.474	62.0038
14.492	62.0087
14.51	62.0194
14.528	62.0337
14.546	62.0495
14.564	62.0644
14.582	62.0762
14.6	62.0832
14.618	62.0839
14.636	62.0775
14.654	62.0642
14.672	62.045
14.69	62.0212
14.708	61.995
14.726	61.9686
14.744	61.9445
14.762	61.9249
14.78	61.9114
14.798	61.9048
14.816	61.9056
14.834	61.9133
14.852	61.9266
14.87	61.9439
14.888	61.9631
14.906	61.9824
14.924	61.9998
14.942	62.0134
14.96	62.0221
14.978	62.0256
14.996	62.0239
15.014	62.0177
15.032	62.0086
15.05	61.9983
15.068	61.9887
15.086	61.9815
15.104	61.9784
15.122	61.9805
15.14	61.9876
15.158	61.9991
15.176	62.0133
15.194	62.0282
15.212	62.0408
15.23	62.0491
15.248	62.0514
15.266	62.047
15.284	62.0358
15.302	62.0193
15.32	61.9995
15.338	61.9788
15.356	61.96
15.374	61.9456
15.392	61.9374
15.41	61.9361
15.428	61.942
15.446	61.9542
15.464	61.9711
15.482	61.9911
15.5	62.0119
15.518	62.0311
15.536	62.0471
15.554	62.0587
15.572	62.065
15.59	62.0658
15.608	62.0614
15.626	62.0523
15.644	62.0395
15.662	62.0244
15.68	62.0082
15.698	61.9922
15.716	61.9775
15.734	61.9655
15.752	61.9567
15.77	61.9518
15.788	61.9508
15.806	61.953
15.824	61.9578
15.842	61.9637
15.86	61.969
15.878	61.9721
15.896	61.9717
15.914	61.9661
15.932	61.9547
15.95	61.9373
15.968	61.9143
15.986	61.887
16.004	61.8569
16.022	61.826
16.04	61.7964
16.058	61.77
16.076	61.7479
16.094	61.7314
16.112	61.7206
16.13	61.7156
16.148	61.7156
16.166	61.7195
16.184	61.7265
16.202	61.7359
16.22	61.7471
16.238	61.7603
16.256	61.7754
16.274	61.7934
16.292	61.8152
16.31	61.8414
16.328	61.873
16.346	61.9099
16.364	61.9519
16.382	61.9979
16.4	62.0462
16.418	62.0953
16.436	62.1424
16.454	62.1855
16.472	62.2231
16.49	62.2531
16.508	62.2754
16.526	62.2897
16.544	62.297
16.562	62.2987
16.58	62.2962
16.598	62.2918
16.616	62.2866
16.634	62.2818
16.652	62.2782
16.67	62.2755
16.688	62.2736
16.706	62.271
16.724	62.2668
16.742	62.2594
16.76	62.2477
16.778	62.2313
16.796	62.2095
16.814	62.1828
16.832	62.1516
16.85	62.117
16.868	62.0801
16.886	62.0422
16.904	62.0049
16.922	61.9688
16.94	61.9347
16.958	61.9028
16.976	61.8729
16.994	61.8449
17.012	61.818
17.03	61.7918
17.048	61.7655
17.066	61.7387
17.084	61.711
17.102	61.6825
17.12	61.6532
17.138	61.6239
17.156	61.5951
17.174	61.5678
17.192	61.543
17.21	61.5212
17.228	61.503
17.246	61.4888
17.264	61.4788
17.282	61.4733
17.3	61.4722
17.318	61.4755
17.336	61.4827
17.354	61.4938
17.372	61.5085
17.39	61.5266
17.408	61.5481
17.426	61.5729
17.444	61.6008
17.462	61.6317
17.48	61.6656
17.498	61.7022
17.516	61.741
17.534	61.7818
17.552	61.824
17.57	61.8673
17.588	61.911
17.606	61.9546
17.624	61.9973
17.642	62.0387
17.66	62.0784
17.678	62.1165
17.696	62.153
17.714	62.188
17.732	62.222
17.75	62.2555
17.768	62.2888
17.786	62.3221
17.804	62.3561
17.822	62.3908
17.84	62.4259
17.858	62.4607
17.876	62.4949
17.894	62.5263
17.912	62.5545
17.93	62.5765
17.948	62.592
17.966	62.5979
17.984	62.5937
18.002	62.5774
18.02	62.549
18.038	62.5076
18.056	62.4543
18.074	62.3891
18.092	62.3151
18.11	62.2329
18.128	62.1469
18.146	62.0582
18.164	61.9715
18.182	61.8885
18.2	61.8126
18.218	61.746
18.236	61.6902
18.254	61.6471
18.272	61.6171
18.29	61.5999
18.308	61.5953
18.326	61.6018
18.344	61.6188
18.362	61.6437
18.38	61.676
18.398	61.7138
18.416	61.7563
18.434	61.8021
18.452	61.8511
18.47	61.9028
18.488	61.9576
18.506	62.0153
18.524	62.0766
18.542	62.1417
18.56	62.211
18.578	62.2846
18.596	62.3619
18.614	62.4428
18.632	62.5255
18.65	62.6095
18.668	62.6916
18.686	62.7713
18.704	62.8444
18.722	62.9105
18.74	62.9654
18.758	63.0087
18.776	63.0377
18.794	63.0524
18.812	63.0511
18.83	63.0345
18.848	63.0028
18.866	62.9572
18.884	62.8993
18.902	62.8309
18.92	62.755
18.938	62.6733
18.956	62.5891
18.974	62.5041
18.992	62.4211
19.01	62.3411
19.028	62.2666
19.046	62.1976
19.064	62.1355
19.082	62.0798
19.1	62.0308
19.118	61.9877
19.136	61.9498
19.154	61.9161
19.172	61.8847
19.19	61.8553
19.208	61.8257
19.226	61.796
19.244	61.7643
19.262	61.7311
19.28	61.6964
19.298	61.6603
19.316	61.6242
19.334	61.588
19.352	61.5552
19.37	61.5255
19.388	61.5028
19.406	61.4868
19.424	61.4815
19.442	61.4869
19.46	61.5058
19.478	61.5387
19.496	61.586
19.514	61.6485
19.532	61.7246
19.55	61.8147
19.568	61.9159
19.586	62.0261
19.604	62.1429
19.622	62.2616
19.64	62.381
19.658	62.4934
19.676	62.5993
19.694	62.6904
19.712	62.7676
19.73	62.824
19.748	62.8596
19.766	62.8711
19.784	62.8574
19.802	62.8188
19.82	62.7541
19.838	62.6657
19.856	62.5549
19.874	62.4231
19.892	62.2755
19.91	62.1118
19.928	61.9396
19.946	61.7582
19.964	61.5753
19.982	61.3913
20	61.2114
20.018	61.0383
20.036	60.8742
20.054	60.724
20.072	60.5874
20.09	60.4697
20.108	60.3699
20.126	60.2919
20.144	60.2357
20.162	60.2025
20.18	60.1932
20.198	60.207
20.216	60.2439
20.234	60.3033
20.252	60.3822
20.27	60.4813
20.288	60.5945
20.306	60.7226
20.324	60.8598
20.342	61.0034
20.36	61.1512
20.378	61.2953
20.396	61.4373
20.414	61.5687
20.432	61.6904
20.45	61.7973
20.468	61.8866
20.486	61.9586
20.504	62.0103
20.522	62.0426
20.54	62.0561
20.558	62.0499
20.576	62.0285
20.594	61.9923
20.612	61.9442
20.63	61.8901
20.648	61.8287
20.666	61.769
20.684	61.71
20.702	61.6575
20.72	61.6158
20.738	61.5844
20.756	61.5692
20.774	61.5689
20.792	61.5858
20.81	61.6212
20.828	61.6731
20.846	61.7407
20.864	61.8239
20.882	61.9173
20.9	62.0225
20.918	62.1334
20.936	62.2462
20.954	62.3608
20.972	62.4686
20.99	62.5717
21.008	62.6632
21.026	62.7403
21.044	62.803
21.062	62.8457
21.08	62.8697
21.098	62.8729
21.116	62.8542
21.134	62.8148
21.152	62.7553
21.17	62.6753
21.188	62.5792
21.206	62.4666
21.224	62.3403
21.242	62.2055
21.26	62.0603
21.278	61.9125
21.296	61.7623
21.314	61.6121
21.332	61.4685
21.35	61.3292
21.368	61.1998
21.386	61.0817
21.404	60.975
21.422	60.8832
21.44	60.8054
21.458	60.7427
21.476	60.6958
21.494	60.6641
21.512	60.6466
21.53	60.644
21.548	60.6541
21.566	60.6755
21.584	60.7086
21.602	60.7495
21.62	60.799
21.638	60.8547
21.656	60.9135
21.674	60.9765
21.692	61.0403
21.71	61.1041
21.728	61.1677
21.746	61.2286
21.764	61.2872
21.782	61.3427
21.8	61.394
21.818	61.4415
21.836	61.4844
21.854	61.5225
21.872	61.5559
21.89	61.5842
21.908	61.6077
21.926	61.626
21.944	61.639
21.962	61.6469
21.98	61.6493
21.998	61.6464
22.016	61.6381
22.034	61.6245
22.052	61.6055
22.07	61.5815
22.088	61.5525
22.106	61.5185
22.124	61.4803
22.142	61.4378
22.16	61.3913
22.178	61.3425
22.196	61.2904
22.214	61.2369
22.232	61.1841
22.25	61.131
22.268	61.0795
22.286	61.0307
22.304	60.984
22.322	60.9409
22.34	60.9016
22.358	60.8658
22.376	60.8339
22.394	60.8061
22.412	60.7818
22.43	60.7605
22.448	60.7426
22.466	60.727
22.484	60.7129
22.502	60.7007
22.52	60.6891
22.538	60.6775
22.556	60.6662
22.574	60.6546
22.592	60.6423
22.61	60.6296
22.628	60.617
22.646	60.604
22.664	60.5913
22.682	60.5801
22.7	60.5697
22.718	60.5613
22.736	60.5562
22.754	60.5538
22.772	60.555
22.79	60.5608
22.808	60.5708
22.826	60.5852
22.844	60.6044
22.862	60.6284
22.88	60.6559
22.898	60.6868
22.916	60.7214
22.934	60.7572
22.952	60.7941
22.97	60.8323
22.988	60.8683
23.006	60.902
23.024	60.9336
23.042	60.96
23.06	60.9813
23.078	60.9974
23.096	61.0065
23.114	61.008
23.132	61.0026
23.15	60.9905
23.168	60.971
23.186	60.9451
23.204	60.9145
23.222	60.878
23.24	60.8372
23.258	60.7961
23.276	60.7535
23.294	60.7108
23.312	60.673
23.33	60.6388
23.348	60.6096
23.366	60.5909
23.384	60.5823
23.402	60.5839
23.42	60.5997
23.438	60.6296
23.456	60.6733
23.474	60.7339
23.492	60.8118
23.51	60.9063
23.528	61.0183
23.546	61.1483
23.564	61.2959
23.582	61.46
23.6	61.641
23.618	61.8389
23.636	62.0511
23.654	62.2768
23.672	62.5171
23.69	62.7683
23.708	63.0285
23.726	63.2997
23.744	63.5778
23.762	63.8596
23.78	64.1477
23.798	64.4384
23.816	64.7275
23.834	65.0175
23.852	65.3058
23.87	65.5876
23.888	65.8648
23.906	66.1359
23.924	66.3965
23.942	66.6469
23.96	66.8874
23.978	67.1138
23.996	67.3249
24.014	67.5222
24.032	67.703
24.05	67.8655
24.068	68.0112
24.086	68.1387
24.104	68.2466
24.122	68.3357
24.14	68.4056
24.158	68.4553
24.176	68.4849
24.194	68.4947
24.212	68.4845
24.23	68.4539
24.248	68.4033
24.266	68.3345
24.284	68.248
24.302	68.1429
24.32	68.0219
24.338	67.8875
24.356	67.7371
24.374	67.574
24.392	67.4029
24.41	67.2221
24.428	67.0325
24.446	66.8394
24.464	66.6444
24.482	66.4449
24.5	66.2465
24.518	66.0536
24.536	65.8628
24.554	65.677
24.572	65.5007
24.59	65.3325
24.608	65.1726
24.626	65.0251
24.644	64.8921
24.662	64.7715
24.68	64.6644
24.698	64.5721
24.716	64.4949
24.734	64.4313
24.752	64.3792
24.77	64.3396
24.788	64.3124
24.806	64.2931
24.824	64.2791
24.842	64.2735
24.86	64.2725
24.878	64.2713
24.896	64.2718
24.914	64.2733
24.932	64.271
24.95	64.2625
24.968	64.2511
24.986	64.2325
25.004	64.2022
25.022	64.1616
25.04	64.1109
25.058	64.0484
25.076	63.9726
25.094	63.8844
25.112	63.7851
25.13	63.6761
25.148	63.555
25.166	63.4242
25.184	63.2881
25.202	63.1479
25.22	63.0005
25.238	62.8517
25.256	62.7073
25.274	62.5641
25.292	62.4233
25.31	62.2908
25.328	62.1697
25.346	62.0564
25.364	61.9539
25.382	61.8661
25.4	61.7928
25.418	61.7329
25.436	61.6873
25.454	61.6572
25.472	61.6428
25.49	61.6424
25.508	61.6542
25.526	61.6777
25.544	61.7139
25.562	61.7612
25.58	61.8183
25.598	61.8854
25.616	61.9628
25.634	62.0501
25.652	62.1468
25.67	62.2528
25.688	62.369
25.706	62.4961
25.724	62.6339
25.742	62.7819
25.76	62.9419
25.778	63.1154
25.796	63.3011
25.814	63.4994
25.832	63.7122
25.85	63.9405
25.868	64.1837
25.886	64.4414
25.904	64.713
25.922	64.9993
25.94	65.3005
25.958	65.6141
25.976	65.938
25.994	66.2754
26.012	66.6245
26.03	66.9791
26.048	67.3342
26.066	67.6963
26.084	68.0606
26.102	68.4179
26.12	68.7633
26.138	69.1064
26.156	69.4371
26.174	69.7432
26.192	70.0216
26.21	70.2808
26.228	70.5106
26.246	70.7003
26.264	70.8516
26.282	70.9689
26.3	71.042
26.318	71.0609
26.336	71.0295
26.354	70.9493
26.372	70.8142
26.39	70.6186
26.408	70.3657
26.426	70.0558
26.444	69.6865
26.462	69.255
26.48	68.7608
26.498	68.2073
26.516	67.5983
26.534	66.9359
26.552	66.2152
26.57	65.4418
26.588	64.6235
26.606	63.7646
26.624	62.8578
26.642	61.9096
26.66	60.9287
26.678	59.9181
26.696	58.8688
26.714	57.7914
26.732	56.6983
26.75	55.5942
26.768	54.4672
26.786	53.3297
26.804	52.196
26.822	51.0702
26.84	49.9384
26.858	48.8164
26.876	47.7222
26.894	46.6617
26.912	45.6176
26.93	44.6075
26.948	43.6514
26.966	42.7363
26.984	41.8121
27.002	40.974
27.02	40.3271
27.028	40.1491