File: Bakgrunnsmateriale/MATLAB/FTIR/ftir_data/subAa/Mapping_121/BZ1503107-1_t18_cm-1.asc
PE IR       SPECTRUM    SPECTRUM    ASCII       PEDS        1.60
  -1
BZ60B1~1.ASC
17/04/07
14:39:36.00
17/04/07
14:39:36.00
tln
$BZ1503107-1_t0018$<tbV0>[-2.6,-10.4,8.0,0.0,27,1,0]
370
64

2002,4.07
MIRTGS : RIGHTBACK : INTERNAL 2
MIR : ON : INTERNAL 2
OPTKBR

0.200000
8
8.000000
FILLER
RATIO
SPECTRUM
UNLOCKED 256

DOUBLE
64
COMBINED
1
0
0

1.000000
RATIO

1
0
TRUE
51149
0
LEFT NOT FITTED RIGHT NOT FITTED 0
NONE
NONE
15600
12
4.427000
51148
TRUE
1 0 8 72 0 0 0 0

15798

#HDR
-1
-1
#GR
CM-1
%T
2.38419e-05
0.0
5000
-1.000000
4631
8
70.4983
47.9527
#DATA
5000	66.1167
4996	64.9779
4992	63.562
4988	62.7793
4984	61.7428
4980	60.9265
4976	61.7807
4972	63.9743
4968	65.4749
4964	65.4742
4960	65.2261
4956	65.2347
4952	64.8317
4948	64.583
4944	65.046
4940	65.6457
4936	65.8178
4932	65.4117
4928	65.0131
4924	64.7531
4920	64.3135
4916	64.072
4912	64.3812
4908	64.7743
4904	64.8087
4900	64.826
4896	65.0903
4892	65.4152
4888	65.524
4884	65.536
4880	65.5571
4876	65.3136
4872	64.9729
4868	64.9493
4864	65.2373
4860	65.482
4856	65.3087
4852	64.9443
4848	65.0241
4844	65.2239
4840	65.0463
4836	64.7938
4832	64.592
4828	64.6511
4824	64.9463
4820	64.9768
4816	65.0478
4812	65.0125
4808	64.8224
4804	65.4381
4800	66.0407
4796	65.6509
4792	65.2091
4788	65.1739
4784	64.9946
4780	64.6649
4776	64.7518
4772	64.9213
4768	64.5332
4764	64.5366
4760	65.2737
4756	65.2874
4752	64.7122
4748	64.5649
4744	64.6054
4740	64.5738
4736	64.5777
4732	64.6504
4728	64.5541
4724	64.2954
4720	64.3064
4716	64.6665
4712	64.8454
4708	64.6505
4704	64.5988
4700	64.5934
4696	64.4021
4692	64.4284
4688	64.6834
4684	64.9484
4680	65.1235
4676	65.0644
4672	64.8948
4668	64.8361
4664	64.9112
4660	64.9652
4656	64.9132
4652	64.917
4648	65.151
4644	65.3674
4640	65.1304
4636	64.7752
4632	64.6921
4628	64.695
4624	64.6531
4620	64.5528
4616	64.4959
4612	64.5845
4608	64.8418
4604	65.0825
4600	65.0473
4596	64.8374
4592	64.8739
4588	65.1404
4584	65.1815
4580	65.0046
4576	64.9086
4572	64.8701
4568	64.7631
4564	64.6366
4560	64.5508
4556	64.413
4552	64.2773
4548	64.4815
4544	64.8926
4540	65.0234
4536	64.9522
4532	64.9503
4528	65.1083
4524	65.2185
4520	65.1493
4516	65.1043
4512	65.2419
4508	65.4199
4504	65.4659
4500	65.7239
4496	66.6585
4492	68.0809
4488	68.6191
4484	69.5461
4480	70.4983
4476	68.3409
4472	65.5649
4468	64.1499
4464	63.4274
4460	63.6558
4456	63.9869
4452	63.8175
4448	63.7486
4444	61.7845
4440	56.9327
4436	53.2734
4432	55.2574
4428	59.5814
4424	61.0077
4420	62.9202
4416	65.7447
4412	66.4081
4408	66.1098
4404	65.6768
4400	65.234
4396	65.0249
4392	64.8744
4388	64.9079
4384	65.1387
4380	65.3541
4376	65.3881
4372	65.3273
4368	65.5146
4364	65.6479
4360	65.5176
4356	65.4153
4352	65.3624
4348	65.4405
4344	65.6814
4340	65.6546
4336	65.3268
4332	65.1191
4328	65.1433
4324	65.2392
4320	65.3075
4316	65.4818
4312	65.6292
4308	65.5627
4304	65.4788
4300	65.3563
4296	65.1676
4292	65.0717
4288	65.0786
4284	65.1163
4280	65.0818
4276	65.0256
4272	65.025
4268	64.9978
4264	64.9347
4260	64.7777
4256	64.6602
4252	64.8288
4248	65.0559
4244	65.1638
4240	65.2516
4236	65.237
4232	65.0956
4228	65.0744
4224	65.1317
4220	65.1275
4216	65.0908
4212	65.0483
4208	65.1409
4204	65.3197
4200	65.2881
4196	64.9802
4192	64.7738
4188	64.757
4184	64.7572
4180	64.8696
4176	65.1063
4172	65.2749
4168	65.1914
4164	65.0566
4160	65.0721
4156	65.1053
4152	65.0195
4148	64.7722
4144	64.6788
4140	64.8524
4136	64.9627
4132	64.95
4128	64.9479
4124	64.9944
4120	64.9692
4116	64.922
4112	65.046
4108	65.2195
4104	65.2456
4100	65.1327
4096	64.9343
4092	64.8771
4088	65.029
4084	65.1404
4080	65.1234
4076	65.0567
4072	64.9381
4068	64.8565
4064	64.99
4060	65.1784
4056	65.2905
4052	65.3835
4048	65.367
4044	65.1985
4040	65.0824
4036	65.1475
4032	65.2235
4028	65.125
4024	64.949
4020	64.8418
4016	64.702
4012	64.5881
4008	64.662
4004	64.7639
4000	64.806
3996	64.8468
3992	64.8854
3988	64.969
3984	65.0736
3980	65.1078
3976	65.1489
3972	65.3683
3968	65.5753
3964	65.5082
3960	65.2957
3956	65.1597
3952	65.1577
3948	65.1575
3944	65.0869
3940	65.001
3936	64.9894
3932	64.9743
3928	64.8491
3924	64.8016
3920	64.9869
3916	65.222
3912	65.2315
3908	65.1434
3904	65.0914
3900	65.0499
3896	65.1158
3892	65.1648
3888	65.2005
3884	65.2963
3880	65.1791
3876	64.9295
3872	64.8503
3868	64.9678
3864	65.1343
3860	65.2597
3856	65.4153
3852	65.4085
3848	65.1971
3844	65.1023
3840	65.2508
3836	65.3919
3832	65.243
3828	65.0211
3824	64.9686
3820	64.9711
3816	64.9357
3812	64.9233
3808	65.0059
3804	65.1992
3800	65.2704
3796	65.1033
3792	64.9673
3788	65.0009
3784	65.0267
3780	64.9491
3776	64.9325
3772	64.9399
3768	64.9602
3764	65.1001
3760	65.2039
3756	65.2717
3752	65.396
3748	65.4541
3744	65.3216
3740	65.18
3736	65.2071
3732	65.1654
3728	65.0381
3724	65.0691
3720	65.1736
3716	65.2077
3712	65.2311
3708	65.2426
3704	65.187
3700	65.1212
3696	65.1276
3692	65.1886
3688	65.2313
3684	65.2502
3680	65.2885
3676	65.397
3672	65.4404
3668	65.2526
3664	65.0653
3660	65.079
3656	65.1538
3652	65.2208
3648	65.2515
3644	65.2041
3640	65.1552
3636	65.1346
3632	65.1947
3628	65.2955
3624	65.2905
3620	65.2084
3616	65.2096
3612	65.2961
3608	65.3311
3604	65.2962
3600	65.218
3596	65.1556
3592	65.1714
3588	65.2378
3584	65.2959
3580	65.2901
3576	65.2588
3572	65.2552
3568	65.1986
3564	65.0608
3560	64.9553
3556	64.949
3552	65.0339
3548	65.1213
3544	65.1498
3540	65.1718
3536	65.1502
3532	65.017
3528	64.9487
3524	65.0346
3520	65.0785
3516	65.0642
3512	65.141
3508	65.2143
3504	65.1642
3500	65.0905
3496	65.0773
3492	65.1084
3488	65.1946
3484	65.2746
3480	65.2259
3476	65.1193
3472	65.0644
3468	64.9863
3464	64.8993
3460	64.9593
3456	65.1088
3452	65.1785
3448	65.1695
3444	65.1735
3440	65.1885
3436	65.1834
3432	65.1827
3428	65.1964
3424	65.2207
3420	65.2404
3416	65.213
3412	65.0828
3408	64.9682
3404	65.0022
3400	65.0787
3396	65.1104
3392	65.1083
3388	65.1225
3384	65.1747
3380	65.1063
3376	64.9432
3372	64.9737
3368	65.1205
3364	65.1398
3360	65.1235
3356	65.1329
3352	65.0803
3348	65.0533
3344	65.1074
3340	65.1314
3336	65.1385
3332	65.2408
3328	65.357
3324	65.3477
3320	65.2893
3316	65.2574
3312	65.2431
3308	65.2196
3304	65.0903
3300	64.9095
3296	64.8911
3292	65.0151
3288	65.0925
3284	65.1261
3280	65.1817
3276	65.1594
3272	65.016
3268	64.8982
3264	64.9067
3260	64.9497
3256	64.9729
3252	64.9649
3248	64.9127
3244	64.8825
3240	64.8805
3236	64.9554
3232	65.0508
3228	65.0566
3224	65.0548
3220	65.0666
3216	65.0252
3212	64.998
3208	65.0704
3204	65.1123
3200	65.0846
3196	65.0666
3192	65.0239
3188	65.0133
3184	65.0466
3180	65.0677
3176	65.1263
3172	65.2502
3168	65.3666
3164	65.388
3160	65.3292
3156	65.2446
3152	65.1881
3148	65.1801
3144	65.1235
3140	65.0444
3136	65.0548
3132	65.0987
3128	65.1213
3124	65.1612
3120	65.1885
3116	65.0965
3112	64.9915
3108	65.0388
3104	65.1216
3100	65.1115
3096	65.0702
3092	65.1075
3088	65.1533
3084	65.117
3080	65.0742
3076	65.0977
3072	65.1733
3068	65.1685
3064	65.0746
3060	65.0055
3056	64.9874
3052	65.0138
3048	65.0697
3044	65.186
3040	65.2887
3036	65.213
3032	65.0688
3028	65.0542
3024	65.111
3020	65.1789
3016	65.2148
3012	65.1726
3008	65.1787
3004	65.247
3000	65.2465
2996	65.1499
2992	65.0226
2988	64.9609
2984	64.9624
2980	64.9059
2976	64.8263
2972	64.8691
2968	64.9738
2964	64.9979
2960	64.9685
2956	64.9651
2952	64.9542
2948	64.9218
2944	64.9768
2940	65.0231
2936	64.929
2932	64.8837
2928	64.9183
2924	64.9181
2920	64.9346
2916	64.9534
2912	64.9328
2908	64.8866
2904	64.8265
2900	64.8276
2896	64.8941
2892	64.9603
2888	64.9864
2884	64.9357
2880	64.8695
2876	64.8704
2872	64.9131
2868	64.9421
2864	64.9484
2860	64.9162
2856	64.8808
2852	64.9392
2848	65.0293
2844	65.0534
2840	65.0638
2836	65.0627
2832	65.0481
2828	65.0349
2824	64.9615
2820	64.9028
2816	64.9359
2812	64.97
2808	64.9792
2804	65.0154
2800	65.04
2796	64.9953
2792	64.9385
2788	64.9249
2784	64.9357
2780	64.9527
2776	64.9503
2772	64.9335
2768	64.9529
2764	65.0122
2760	65.0134
2756	64.9593
2752	64.9547
2748	64.9928
2744	65.0102
2740	65.0181
2736	65.0583
2732	65.0683
2728	65.0535
2724	65.0359
2720	64.9979
2716	65.0141
2712	65.0084
2708	64.949
2704	64.9877
2700	65.0726
2696	65.0699
2692	65.0276
2688	64.9977
2684	64.9668
2680	64.9695
2676	64.9778
2672	64.9395
2668	64.9242
2664	64.9293
2660	64.9256
2656	64.9224
2652	64.8777
2648	64.8136
2644	64.7828
2640	64.8599
2636	64.9634
2632	64.9544
2628	64.9433
2624	64.9699
2620	64.9627
2616	64.9543
2612	64.9619
2608	64.9331
2604	64.9039
2600	64.9406
2596	64.9991
2592	65.0264
2588	65.0239
2584	65.0041
2580	64.9613
2576	64.9702
2572	65.0311
2568	65.0467
2564	65.0356
2560	65.0429
2556	65.0758
2552	65.0639
2548	64.9807
2544	64.9166
2540	64.9192
2536	64.9998
2532	65.1094
2528	65.1573
2524	65.0968
2520	65.0356
2516	65.0713
2512	65.1162
2508	65.1448
2504	65.1052
2500	64.9448
2496	64.8347
2492	64.9076
2488	65.0434
2484	65.0924
2480	65.1015
2476	65.0927
2472	65.0551
2468	65.0632
2464	65.0875
2460	65.0504
2456	65.0044
2452	65.0125
2448	65.0223
2444	64.9976
2440	65.0027
2436	65.0364
2432	65.0564
2428	65.0855
2424	65.1123
2420	65.1323
2416	65.1535
2412	65.1286
2408	65.0113
2404	64.8863
2400	64.8896
2396	64.9651
2392	64.9981
2388	65.017
2384	65.029
2380	64.9837
2376	64.9356
2372	64.9209
2368	64.9034
2364	64.9057
2360	64.942
2356	64.9679
2352	64.9708
2348	64.9584
2344	64.9162
2340	64.8716
2336	64.8792
2332	64.8959
2328	64.8605
2324	64.834
2320	64.9018
2316	65.0054
2312	65.0463
2308	65.0175
2304	64.9253
2300	64.861
2296	64.8776
2292	64.8686
2288	64.8369
2284	64.8509
2280	64.9076
2276	64.9299
2272	64.8949
2268	64.89
2264	64.8855
2260	64.8589
2256	64.8678
2252	64.9091
2248	64.9545
2244	64.9638
2240	64.9127
2236	64.8398
2232	64.826
2228	64.8448
2224	64.8203
2220	64.8285
2216	64.8563
2212	64.8159
2208	64.7997
2204	64.8247
2200	64.8345
2196	64.876
2192	64.924
2188	64.8986
2184	64.829
2180	64.7947
2176	64.8304
2172	64.8877
2168	64.936
2164	64.9433
2160	64.8351
2156	64.7365
2152	64.7181
2148	64.7283
2144	64.7757
2140	64.8116
2136	64.8381
2132	64.8392
2128	64.8087
2124	64.8096
2120	64.8188
2116	64.8156
2112	64.8328
2108	64.8152
2104	64.7742
2100	64.7743
2096	64.7633
2092	64.7331
2088	64.7317
2084	64.7736
2080	64.8091
2076	64.8004
2072	64.8038
2068	64.8316
2064	64.8606
2060	64.8463
2056	64.7725
2052	64.7568
2048	64.8499
2044	64.8967
2040	64.8372
2036	64.8007
2032	64.794
2028	64.7864
2024	64.82
2020	64.8178
2016	64.7694
2012	64.798
2008	64.8611
2004	64.8518
2000	64.7888
1996	64.7183
1992	64.6586
1988	64.6473
1984	64.6939
1980	64.7552
1976	64.7984
1972	64.8277
1968	64.8113
1964	64.7457
1960	64.7294
1956	64.7867
1952	64.852
1948	64.8723
1944	64.8617
1940	64.8046
1936	64.7271
1932	64.7152
1928	64.7285
1924	64.7331
1920	64.7482
1916	64.7634
1912	64.7519
1908	64.7375
1904	64.7844
1900	64.8411
1896	64.8531
1892	64.8569
1888	64.8152
1884	64.7159
1880	64.677
1876	64.7493
1872	64.8271
1868	64.8134
1864	64.7296
1860	64.6744
1856	64.7167
1852	64.8006
1848	64.8307
1844	64.7951
1840	64.7397
1836	64.7153
1832	64.75
1828	64.7691
1824	64.7352
1820	64.7379
1816	64.7891
1812	64.8037
1808	64.7523
1804	64.7382
1800	64.801
1796	64.8011
1792	64.728
1788	64.7071
1784	64.7224
1780	64.6906
1776	64.6549
1772	64.6919
1768	64.745
1764	64.7515
1760	64.7379
1756	64.7403
1752	64.6902
1748	64.508
1744	64.3118
1740	64.2052
1736	64.1569
1732	64.1429
1728	64.1667
1724	64.2457
1720	64.4057
1716	64.562
1712	64.5767
1708	64.5774
1704	64.7386
1700	64.9282
1696	64.8858
1692	64.7035
1688	64.7059
1684	64.7629
1680	64.6546
1676	64.5984
1672	64.6817
1668	64.7027
1664	64.6478
1660	64.6578
1656	64.7207
1652	64.7023
1648	64.6299
1644	64.6263
1640	64.7203
1636	64.779
1632	64.6713
1628	64.5884
1624	64.6389
1620	64.6988
1616	64.6673
1612	64.5488
1608	64.5188
1604	64.5763
1600	64.5868
1596	64.5979
1592	64.6386
1588	64.6565
1584	64.6504
1580	64.716
1576	64.7889
1572	64.7152
1568	64.6239
1564	64.6962
1560	64.8635
1556	64.8553
1552	64.7036
1548	64.6386
1544	64.6627
1540	64.6793
1536	64.6479
1532	64.6432
1528	64.7032
1524	64.7524
1520	64.7295
1516	64.674
1512	64.7138
1508	64.7994
1504	64.7363
1500	64.6474
1496	64.6572
1492	64.6285
1488	64.5923
1484	64.5825
1480	64.6339
1476	64.7669
1472	64.7914
1468	64.6791
1464	64.577
1460	64.5161
1456	64.4318
1452	64.3284
1448	64.3081
1444	64.3858
1440	64.4675
1436	64.4375
1432	64.3549
1428	64.3452
1424	64.3722
1420	64.4025
1416	64.4085
1412	64.3523
1408	64.2658
1404	64.2363
1400	64.293
1396	64.3187
1392	64.2997
1388	64.3239
1384	64.3332
1380	64.2826
1376	64.2048
1372	64.1293
1368	64.1368
1364	64.2296
1360	64.3204
1356	64.3662
1352	64.3578
1348	64.3514
1344	64.3836
1340	64.3738
1336	64.3308
1332	64.3351
1328	64.3306
1324	64.2806
1320	64.2378
1316	64.216
1312	64.2263
1308	64.2632
1304	64.2771
1300	64.2302
1296	64.184
1292	64.2291
1288	64.2995
1284	64.2882
1280	64.2444
1276	64.2133
1272	64.1383
1268	64.0637
1264	64.0817
1260	64.1515
1256	64.1978
1252	64.1974
1248	64.1406
1244	64.078
1240	64.0948
1236	64.1067
1232	64.0426
1228	64.0653
1224	64.177
1220	64.2049
1216	64.172
1212	64.1701
1208	64.206
1204	64.2503
1200	64.264
1196	64.2209
1192	64.1722
1188	64.1606
1184	64.0704
1180	63.9225
1176	63.8894
1172	63.9027
1168	63.8655
1164	63.8533
1160	63.8846
1156	63.9544
1152	64.052
1148	64.1127
1144	64.1349
1140	64.1592
1136	64.1435
1132	64.1294
1128	64.1777
1124	64.2065
1120	64.1821
1116	64.1539
1112	64.1363
1108	64.0763
1104	64.0854
1100	64.249
1096	64.4108
1092	64.5111
1088	64.4537
1084	64.3472
1080	64.4316
1076	64.492
1072	64.3107
1068	64.0638
1064	63.9429
1060	63.9472
1056	64.0517
1052	64.1686
1048	64.1281
1044	63.9657
1040	63.9066
1036	63.975
1032	64.0369
1028	64.0547
1024	64.0781
1020	64.083
1016	64.0516
1012	64.0649
1008	64.1236
1004	64.1261
1000	64.0602
996	 64.0682
992	 64.1283
988	 64.1338
984	 64.1186
980	 64.1017
976	 64.1194
972	 64.1946
968	 64.266
964	 64.3001
960	 64.2707
956	 64.1856
952	 64.1793
948	 64.2163
944	 64.1636
940	 64.0951
936	 64.0983
932	 64.0859
928	 64.0587
924	 64.0982
920	 64.1282
916	 64.1298
912	 64.1651
908	 64.2146
904	 64.1962
900	 64.1486
896	 64.1285
892	 64.067
888	 64.0571
884	 64.1255
880	 64.1695
876	 64.161
872	 64.0987
868	 64.1165
864	 64.1619
860	 64.1547
856	 64.1774
852	 64.1876
848	 64.191
844	 64.2075
840	 64.1406
836	 64.0258
832	 63.8868
828	 63.7878
824	 63.8726
820	 63.9056
816	 63.7929
812	 63.7984
808	 63.8807
804	 63.8585
800	 63.8685
796	 64.0279
792	 64.138
788	 64.2125
784	 64.2852
780	 64.1792
776	 64.0095
772	 63.9525
768	 63.9173
764	 63.9115
760	 63.9348
756	 63.7929
752	 63.6583
748	 63.8612
744	 64.1253
740	 64.1556
736	 64.1232
732	 64.1221
728	 64.1288
724	 64.1692
720	 64.1326
716	 64.0057
712	 63.9508
708	 63.8241
704	 63.5195
700	 63.2618
696	 63.1659
692	 63.244
688	 63.4361
684	 63.5482
680	 63.5575
676	 63.6831
672	 63.9303
668	 64.0349
664	 64.0705
660	 64.0739
656	 63.8647
652	 63.6369
648	 63.59
644	 63.7116
640	 63.7146
636	 63.6387
632	 63.7654
628	 63.7236
624	 63.494
620	 63.4377
616	 63.4972
612	 63.5652
608	 63.4917
604	 63.3447
600	 63.4011
596	 63.518
592	 63.6183
588	 63.6997
584	 63.6441
580	 63.6776
576	 64.0603
572	 64.4115
568	 64.189
564	 64.0814
560	 64.6841
556	 64.7417
552	 63.6743
548	 63.2919
544	 64.2639
540	 64.9497
536	 64.1456
532	 62.8883
528	 62.7273
524	 63.378
520	 64.2034
516	 64.7753
512	 64.2364
508	 63.6047
504	 63.9186
500	 64.1197
496	 63.9385
492	 64.0571
488	 64.0276
484	 63.6606
480	 63.745
476	 64.229
472	 64.0633
468	 63.2431
464	 62.8537
460	 62.9228
456	 62.8176
452	 63.2292
448	 64.171
444	 64.1015
440	 62.989
436	 62.198
432	 62.4673
428	 62.9553
424	 62.1031
420	 60.8871
416	 61.6931
412	 62.9026
408	 63.4826
404	 63.8858
400	 61.5844
396	 57.8214
392	 57.4529
388	 56.0848
384	 54.0355
380	 56.2572
376	 69.9927
372	 47.9527
370	 61.4735