File: Bakgrunnsmateriale/MATLAB/FTIR/ftir_data/subAa/Mapping_121/BZ1503107-1_t83.asc
PE IR       SPECTRUM    SPECTRUM    ASCII       PEDS        1.60
  -1
BZ2555~1.ASC
17/04/07
20:02:34.00
17/04/07
20:03:00.00
tln
$BZ1503107-1_t0083$<tbV0>[0.0,5.2,8.0,0.0,27,1,0]
27.028
64

2002,4.07
MIRTGS : RIGHTBACK : INTERNAL 2
MIR : ON : INTERNAL 2
OPTKBR

0.200000
8
8.000000
FILLER
RATIO
SPECTRUM
UNLOCKED 256

DOUBLE
64
COMBINED
1
0
0

0.002000
RATIO

1
0
TRUE
51149
0
LEFT NOT FITTED RIGHT NOT FITTED 0
NONE
NONE
15600
12
4.427000
51148
TRUE
1 0 8 72 0 0 0 0

15798

#HDR
-1
-1
#GR
µM
%T
2.38419e-05
0.0
2.000000
0.002000
12515
8
77.4987
47.3621
#DATA
2.000000	 64.054
2.018000	 66.0864
2.036000	 65.2587
2.054000	 65.1416
2.072000	 64.7349
2.090000	 65.0243
2.108000	 65.2375
2.126000	 64.9018
2.144000	 64.7609
2.162000	 65.2797
2.180000	 64.8587
2.198000	 64.4417
2.216000	 64.5524
2.234000	 63.9631
2.252000	 66.4475
2.270000	 65.3469
2.288000	 63.9559
2.306000	 64.9005
2.324000	 64.4184
2.342000	 65.0513
2.360000	 64.8261
2.378000	 64.6636
2.396000	 64.9379
2.414000	 64.5727
2.432000	 65.1617
2.450000	 64.9447
2.468000	 65.2325
2.486000	 64.9359
2.504000	 64.6111
2.522000	 65.0925
2.540000	 64.7546
2.558000	 65.0411
2.576000	 64.9521
2.594000	 64.9911
2.612000	 64.6823
2.630000	 64.9805
2.648000	 65.0907
2.666000	 64.9119
2.684000	 65.0979
2.702000	 65.113
2.720000	 65.0688
2.738000	 65.1751
2.756000	 64.9211
2.774000	 65.1173
2.792000	 64.9551
2.810000	 64.9144
2.828000	 65.0864
2.846000	 65.124
2.864000	 64.9958
2.882000	 64.9984
2.900000	 65.1917
2.918000	 64.8367
2.936000	 64.8654
2.954000	 64.8958
2.972000	 64.9456
2.990000	 65.0624
3.008000	 64.8307
3.026000	 64.9487
3.044000	 64.9147
3.062000	 64.8049
3.080000	 64.9674
3.098000	 65.0424
3.116000	 64.9613
3.134000	 64.8492
3.152000	 64.966
3.170000	 65.0537
3.188000	 64.8589
3.206000	 64.8558
3.224000	 64.781
3.242000	 64.8335
3.260000	 64.9401
3.278000	 64.9357
3.296000	 64.8111
3.314000	 64.8588
3.332000	 64.9446
3.350000	 64.6968
3.368000	 64.7777
3.386000	 64.5989
3.404000	 64.6999
3.422000	 64.7748
3.440000	 64.7301
3.458000	 64.654
3.476000	 64.7164
3.494000	 64.7593
3.512000	 64.5503
3.530000	 64.742
3.548000	 64.8865
3.566000	 64.7999
3.584000	 64.7764
3.602000	 64.8703
3.620000	 64.8476
3.638000	 64.8369
3.656000	 64.8877
3.674000	 64.8794
3.692000	 64.7655
3.710000	 64.7688
3.728000	 64.8395
3.746000	 64.7974
3.764000	 64.7621
3.782000	 64.661
3.800000	 64.7354
3.818000	 64.7231
3.836000	 64.7545
3.854000	 64.7861
3.872000	 64.7035
3.890000	 64.7564
3.908000	 64.7327
3.926000	 64.6188
3.944000	 64.6624
3.962000	 64.6469
3.980000	 64.6451
3.998000	 64.6292
4.016000	 64.6006
4.034000	 64.6565
4.052000	 64.5296
4.070000	 64.7079
4.088000	 64.6377
4.106000	 64.5812
4.124000	 64.6176
4.141999	 64.6062
4.160000	 64.6271
4.178000	 64.5252
4.196000	 64.5353
4.214000	 64.6189
4.232000	 64.4628
4.250000	 64.4427
4.268000	 64.5154
4.286000	 64.5352
4.304000	 64.5472
4.322000	 64.5359
4.340000	 64.4763
4.358000	 64.4197
4.375999	 64.4342
4.394000	 64.5157
4.412000	 64.4788
4.430000	 64.5362
4.448000	 64.4149
4.466000	 64.4448
4.484000	 64.6004
4.502000	 64.5566
4.520000	 64.4222
4.538000	 64.4904
4.556000	 64.4904
4.574000	 64.3807
4.592000	 64.3414
4.609999	 64.4338
4.628000	 64.3863
4.646000	 64.3201
4.664000	 64.4288
4.682000	 64.3719
4.700000	 64.3808
4.718000	 64.3954
4.736000	 64.4599
4.754000	 64.3612
4.772000	 64.2827
4.790000	 64.281
4.808000	 64.2453
4.826000	 64.3991
4.843999	 64.2697
4.862000	 64.2174
4.880000	 64.2737
4.898000	 64.3324
4.916000	 64.3541
4.934000	 64.3391
4.952000	 64.4922
4.970000	 64.3604
4.988000	 64.2615
5.006000	 64.1443
5.024000	 64.1797
5.042000	 64.3187
5.060000	 64.2574
5.077999	 64.2196
5.096000	 64.3216
5.114000	 64.3174
5.132000	 64.2663
5.150000	 64.2064
5.168000	 64.1311
5.186000	 64.2271
5.204000	 64.2728
5.222000	 64.3476
5.240000	 64.31
5.258000	 64.2272
5.276000	 64.2851
5.294000	 64.3716
5.312000	 64.3153
5.330000	 64.2765
5.348000	 64.2602
5.366000	 64.1496
5.384000	 64.1276
5.402000	 64.1991
5.420000	 64.165
5.438000	 64.1428
5.456000	 64.1707
5.474000	 64.1719
5.492000	 64.0653
5.510000	 64.1528
5.528000	 64.1927
5.546000	 64.0835
5.564000	 64.0828
5.582000	 64.1515
5.600000	 64.1248
5.618000	 64.0928
5.636000	 64.0314
5.654000	 64.0663
5.672000	 64.0859
5.690000	 64.0314
5.708000	 63.8868
5.726000	 63.8052
5.744000	 63.7859
5.762000	 63.8111
5.780000	 63.8514
5.798000	 63.8434
5.816000	 63.8329
5.834000	 63.8648
5.852000	 63.8237
5.870000	 63.8392
5.888000	 63.8844
5.906000	 63.9137
5.923999	 63.9321
5.942000	 63.8776
5.960000	 63.7873
5.978000	 63.7715
5.996000	 63.8417
6.014000	 63.954
6.032000	 63.9082
6.050000	 63.776
6.068000	 63.8368
6.086000	 63.8667
6.104000	 63.7734
6.122000	 63.7858
6.140000	 63.9227
6.158000	 64.0091
6.176000	 64.03
6.194000	 63.9566
6.212000	 63.7672
6.230000	 63.6944
6.248000	 63.7841
6.266000	 63.806
6.284000	 63.7367
6.302000	 63.8439
6.320000	 63.9663
6.338000	 63.9733
6.356000	 63.9478
6.374000	 63.827
6.392000	 63.7324
6.410000	 63.8163
6.428000	 63.8563
6.446000	 63.781
6.464000	 63.7132
6.482000	 63.7329
6.500000	 63.8505
6.518000	 63.8621
6.536000	 63.8124
6.554000	 63.8451
6.572000	 63.9018
6.590000	 63.9123
6.608000	 63.9021
6.626000	 63.9004
6.644000	 63.8903
6.662000	 63.8388
6.680000	 63.7809
6.698000	 63.7008
6.716000	 63.6531
6.734000	 63.6705
6.752000	 63.6875
6.770000	 63.6947
6.788000	 63.651
6.806000	 63.5551
6.824000	 63.4767
6.842000	 63.5056
6.860000	 63.6105
6.878000	 63.649
6.896000	 63.6338
6.914000	 63.6493
6.932000	 63.7104
6.950000	 63.7839
6.968000	 63.8138
6.986000	 63.7813
7.004000	 63.7356
7.022000	 63.7354
7.040000	 63.7419
7.058000	 63.7034
7.076000	 63.6233
7.094000	 63.5286
7.112000	 63.4819
7.130000	 63.5051
7.148000	 63.5483
7.166000	 63.5844
7.184000	 63.6065
7.202000	 63.5895
7.220000	 63.5455
7.238000	 63.5271
7.256000	 63.5375
7.274000	 63.5568
7.292000	 63.579
7.310000	 63.5645
7.328000	 63.5178
7.346000	 63.4938
7.364000	 63.4669
7.382000	 63.431
7.400000	 63.4694
7.418000	 63.5618
7.436000	 63.6069
7.454000	 63.6139
7.472000	 63.6293
7.490000	 63.6333
7.508000	 63.6261
7.526000	 63.6402
7.544000	 63.6646
7.562000	 63.6641
7.580000	 63.6215
7.598000	 63.5468
7.616000	 63.4792
7.634000	 63.4552
7.652000	 63.4818
7.670000	 63.5385
7.688000	 63.5653
7.706000	 63.5153
7.724000	 63.4429
7.742000	 63.429
7.760000	 63.4448
7.778000	 63.4237
7.796000	 63.3859
7.814000	 63.3674
7.832000	 63.3507
7.850000	 63.3392
7.868000	 63.3696
7.886000	 63.4275
7.904000	 63.4486
7.922000	 63.4095
7.940000	 63.3511
7.958000	 63.3249
7.976000	 63.3494
7.994000	 63.4097
8.012000	 63.4727
8.030000	 63.4996
8.048000	 63.4823
8.065999	 63.4572
8.084000	 63.4552
8.102000	 63.456
8.120000	 63.4327
8.138000	 63.4102
8.155999	 63.4272
8.173999	 63.472
8.192000	 63.5029
8.210000	 63.5016
8.228000	 63.4737
8.246000	 63.4252
8.263999	 63.3721
8.282000	 63.3405
8.300000	 63.3421
8.318000	 63.3674
8.336000	 63.4025
8.353999	 63.4281
8.372000	 63.4157
8.390000	 63.3596
8.408000	 63.2989
8.426000	 63.2768
8.443999	 63.2912
8.462000	 63.308
8.480000	 63.3094
8.498000	 63.3032
8.516000	 63.3014
8.533999	 63.3076
8.552000	 63.3169
8.570000	 63.3176
8.588000	 63.3024
8.606000	 63.2814
8.624000	 63.2737
8.641999	 63.2862
8.660000	 63.3091
8.678000	 63.3313
8.696000	 63.3479
8.714000	 63.3544
8.731999	 63.3477
8.750000	 63.3393
8.768000	 63.3464
8.786000	 63.3623
8.804000	 63.3602
8.821999	 63.3304
8.840000	 63.2981
8.858000	 63.3015
8.876000	 63.3571
8.894000	 63.4376
8.911999	 63.4863
8.930000	 63.4671
8.948000	 63.3936
8.966000	 63.3073
8.984000	 63.2401
9.001999	 63.2001
9.020000	 63.182
9.038000	 63.1805
9.056000	 63.193
9.074000	 63.2135
9.092000	 63.2306
9.109999	 63.2377
9.128000	 63.241
9.146000	 63.2544
9.164000	 63.2843
9.182000	 63.3228
9.199999	 63.3508
9.218000	 63.3494
9.236000	 63.3156
9.254000	 63.2701
9.272000	 63.2461
9.289999	 63.2639
9.308000	 63.3152
9.326000	 63.3685
9.344000	 63.3959
9.362000	 63.3924
9.379999	 63.3755
9.398000	 63.3664
9.416000	 63.3728
9.434000	 63.3837
9.452000	 63.3794
9.469999	 63.3504
9.488000	 63.3061
9.506000	 63.2645
9.524000	 63.2343
9.542000	 63.2079
9.560000	 63.1733
9.577999	 63.1299
9.596000	 63.0896
9.614000	 63.0646
9.632000	 63.0564
9.650000	 63.0588
9.667999	 63.0676
9.686000	 63.0817
9.704000	 63.0976
9.722000	 63.1081
9.740000	 63.1105
9.757999	 63.1132
9.776000	 63.1307
9.794000	 63.1681
9.812000	 63.2117
9.830000	 63.2387
9.847999	 63.2383
9.866000	 63.2219
9.884000	 63.2144
9.902000	 63.2335
9.920000	 63.2766
9.937999	 63.3254
9.956000	 63.3607
9.974000	 63.3751
9.992000	 63.373
10.01	63.3622
10.028	63.3478
10.046	63.3302
10.064	63.3097
10.082	63.2903
10.1	63.2797
10.118	63.2866
10.136	63.3153
10.154	63.3624
10.172	63.4158
10.19	63.4566
10.208	63.4658
10.226	63.4312
10.244	63.353
10.262	63.2462
10.28	63.1362
10.298	63.0507
10.316	63.0106
10.334	63.0188
10.352	63.0615
10.37	63.1141
10.388	63.1571
10.406	63.1837
10.424	63.1983
10.442	63.2073
10.46	63.2096
10.478	63.1967
10.496	63.163
10.514	63.1162
10.532	63.0788
10.55	63.0751
10.568	63.1161
10.586	63.1891
10.604	63.2656
10.622	63.3149
10.64	63.3201
10.658	63.2844
10.676	63.2281
10.694	63.1756
10.712	63.1472
10.73	63.1514
10.748	63.1852
10.766	63.2366
10.784	63.2903
10.802	63.3312
10.82	63.3506
10.838	63.3474
10.856	63.3271
10.874	63.2996
10.892	63.2725
10.91	63.2495
10.928	63.2297
10.946	63.2118
10.964	63.1972
10.982	63.1903
11	63.1964
11.018	63.2167
11.036	63.2446
11.054	63.2679
11.072	63.2757
11.09	63.2627
11.108	63.2336
11.126	63.2013
11.144	63.1788
11.162	63.1741
11.18	63.1871
11.198	63.2117
11.216	63.2393
11.234	63.2638
11.252	63.2814
11.27	63.2905
11.288	63.2899
11.306	63.278
11.324	63.2559
11.342	63.229
11.36	63.2071
11.378	63.2025
11.396	63.2237
11.414	63.272
11.432	63.3394
11.45	63.4116
11.468	63.4714
11.486	63.5064
11.504	63.5113
11.522	63.4888
11.54	63.4466
11.558	63.3955
11.576	63.3448
11.594	63.2992
11.612	63.2598
11.63	63.224
11.648	63.1882
11.666	63.1496
11.684	63.1091
11.702	63.0711
11.72	63.0423
11.738	63.0288
11.756	63.0321
11.774	63.0488
11.792	63.0711
11.81	63.0905
11.828	63.1011
11.846	63.1018
11.864	63.0972
11.882	63.0938
11.9	63.0983
11.918	63.1133
11.936	63.1361
11.954	63.1597
11.972	63.1756
11.99	63.1776
12.008	63.1649
12.026	63.1423
12.044	63.1182
12.062	63.1016
12.08	63.0981
12.098	63.1081
12.116	63.1267
12.134	63.1461
12.152	63.1584
12.17	63.159
12.188	63.147
12.206	63.1257
12.224	63.1002
12.242	63.0749
12.26	63.0528
12.278	63.0344
12.296	63.019
12.314	63.006
12.332	62.9944
12.35	62.9838
12.368	62.9733
12.386	62.9613
12.404	62.9454
12.422	62.9232
12.44	62.8935
12.458	62.8573
12.476	62.8178
12.494	62.7805
12.512	62.7509
12.53	62.7335
12.548	62.7303
12.566	62.7403
12.584	62.7599
12.602	62.7843
12.62	62.809
12.638	62.8304
12.656	62.8466
12.674	62.8576
12.692	62.8643
12.71	62.8682
12.728	62.8714
12.746	62.8758
12.764	62.883
12.782	62.8942
12.8	62.9099
12.818	62.9301
12.836	62.9541
12.854	62.9801
12.872	63.0059
12.89	63.0292
12.908	63.0475
12.926	63.0588
12.944	63.0621
12.962	63.0568
12.98	63.0436
12.998	63.0232
13.016	62.9976
13.034	62.9689
13.052	62.9397
13.07	62.9126
13.088	62.8896
13.106	62.8725
13.124	62.8621
13.142	62.8584
13.16	62.8611
13.178	62.8695
13.196	62.8828
13.214	62.9
13.232	62.9198
13.25	62.9408
13.268	62.9615
13.286	62.9803
13.304	62.9961
13.322	63.0086
13.34	63.0179
13.358	63.0247
13.376	63.0299
13.394	63.0342
13.412	63.0377
13.43	63.0395
13.448	63.0379
13.466	63.031
13.484	63.0171
13.502	62.9958
13.52	62.9679
13.538	62.936
13.556	62.9037
13.574	62.8749
13.592	62.8529
13.61	62.84
13.628	62.8367
13.646	62.8416
13.664	62.8522
13.682	62.8653
13.7	62.8774
13.718	62.8855
13.736	62.8874
13.754	62.8817
13.772	62.8685
13.79	62.8488
13.808	62.8249
13.826	62.7999
13.844	62.7776
13.862	62.7617
13.88	62.7556
13.898	62.7618
13.916	62.7815
13.934	62.8138
13.952	62.856
13.97	62.9035
13.988	62.9504
14.006	62.9903
14.024	63.0174
14.042	63.0276
14.06	63.0193
14.078	62.9935
14.096	62.9539
14.114	62.9061
14.132	62.8566
14.15	62.8118
14.168	62.7768
14.186	62.7547
14.204	62.7461
14.222	62.7493
14.24	62.761
14.258	62.7774
14.276	62.7946
14.294	62.81
14.312	62.8228
14.33	62.8337
14.348	62.845
14.366	62.8594
14.384	62.8796
14.402	62.9068
14.42	62.9406
14.438	62.9792
14.456	63.0194
14.474	63.057
14.492	63.0878
14.51	63.1085
14.528	63.1175
14.546	63.1155
14.564	63.1052
14.582	63.0905
14.6	63.076
14.618	63.0661
14.636	63.0647
14.654	63.0729
14.672	63.0903
14.69	63.1146
14.708	63.142
14.726	63.1686
14.744	63.1896
14.762	63.202
14.78	63.2033
14.798	63.1918
14.816	63.1666
14.834	63.1275
14.852	63.0745
14.87	63.0092
14.888	62.9335
14.906	62.8504
14.924	62.7643
14.942	62.6809
14.96	62.6066
14.978	62.5478
14.996	62.5098
15.014	62.497
15.032	62.5116
15.05	62.5519
15.068	62.6139
15.086	62.6916
15.104	62.777
15.122	62.86
15.14	62.932
15.158	62.9864
15.176	63.018
15.194	63.024
15.212	63.0052
15.23	62.9649
15.248	62.9074
15.266	62.8379
15.284	62.7627
15.302	62.6869
15.32	62.6143
15.338	62.5478
15.356	62.489
15.374	62.4394
15.392	62.3989
15.41	62.3675
15.428	62.3454
15.446	62.3319
15.464	62.3266
15.482	62.329
15.5	62.3381
15.518	62.3521
15.536	62.3689
15.554	62.3866
15.572	62.4024
15.59	62.414
15.608	62.4199
15.626	62.4192
15.644	62.412
15.662	62.4
15.68	62.386
15.698	62.3726
15.716	62.3638
15.734	62.3631
15.752	62.3726
15.77	62.3939
15.788	62.427
15.806	62.4696
15.824	62.519
15.842	62.5711
15.86	62.62
15.878	62.6618
15.896	62.6928
15.914	62.7095
15.932	62.7113
15.95	62.6982
15.968	62.6717
15.986	62.6358
16.004	62.5939
16.022	62.5501
16.04	62.5095
16.058	62.4753
16.076	62.45
16.094	62.4355
16.112	62.4317
16.13	62.4383
16.148	62.4544
16.166	62.4779
16.184	62.5074
16.202	62.541
16.22	62.577
16.238	62.6145
16.256	62.6528
16.274	62.6914
16.292	62.7299
16.31	62.7681
16.328	62.8057
16.346	62.842
16.364	62.8765
16.382	62.9086
16.4	62.9377
16.418	62.9634
16.436	62.9856
16.454	63.0044
16.472	63.0197
16.49	63.0316
16.508	63.0402
16.526	63.0453
16.544	63.046
16.562	63.0413
16.58	63.0303
16.598	63.0109
16.616	62.9821
16.634	62.9429
16.652	62.8921
16.67	62.8303
16.688	62.7579
16.706	62.6776
16.724	62.5918
16.742	62.5039
16.76	62.4195
16.778	62.3415
16.796	62.2756
16.814	62.2259
16.832	62.1949
16.85	62.1864
16.868	62.2005
16.886	62.2378
16.904	62.2961
16.922	62.3726
16.94	62.464
16.958	62.5637
16.976	62.6687
16.994	62.7717
17.012	62.8684
17.03	62.9554
17.048	63.0275
17.066	63.0837
17.084	63.1217
17.102	63.1419
17.12	63.1444
17.138	63.1312
17.156	63.1045
17.174	63.0663
17.192	63.0204
17.21	62.9682
17.228	62.913
17.246	62.8563
17.264	62.7996
17.282	62.7444
17.3	62.6912
17.318	62.6408
17.336	62.5934
17.354	62.5494
17.372	62.5094
17.39	62.4735
17.408	62.4425
17.426	62.4171
17.444	62.398
17.462	62.3862
17.48	62.3817
17.498	62.3844
17.516	62.3934
17.534	62.4085
17.552	62.4267
17.57	62.4474
17.588	62.4678
17.606	62.4868
17.624	62.5024
17.642	62.5142
17.66	62.5217
17.678	62.5255
17.696	62.5259
17.714	62.5251
17.732	62.5247
17.75	62.5268
17.768	62.534
17.786	62.5471
17.804	62.5679
17.822	62.5963
17.84	62.6321
17.858	62.674
17.876	62.721
17.894	62.7695
17.912	62.8184
17.93	62.8625
17.948	62.9009
17.966	62.9286
17.984	62.9449
18.002	62.9468
18.02	62.9342
18.038	62.906
18.056	62.8638
18.074	62.8079
18.092	62.742
18.11	62.6671
18.128	62.5888
18.146	62.5087
18.164	62.4326
18.182	62.363
18.2	62.3041
18.218	62.2595
18.236	62.2317
18.254	62.2235
18.272	62.2358
18.29	62.2701
18.308	62.3265
18.326	62.4034
18.344	62.4998
18.362	62.6114
18.38	62.7356
18.398	62.8661
18.416	62.9989
18.434	63.1281
18.452	63.2477
18.47	63.3533
18.488	63.4383
18.506	63.5
18.524	63.5332
18.542	63.5363
18.56	63.5081
18.578	63.4482
18.596	63.3584
18.614	63.239
18.632	63.0952
18.65	62.9276
18.668	62.7433
18.686	62.5432
18.704	62.3352
18.722	62.1205
18.74	61.9065
18.758	61.6943
18.776	61.4906
18.794	61.2963
18.812	61.1166
18.83	60.9523
18.848	60.8072
18.866	60.6817
18.884	60.5781
18.902	60.4961
18.92	60.4367
18.938	60.3987
18.956	60.3816
18.974	60.3835
18.992	60.4026
19.01	60.4364
19.028	60.4816
19.046	60.5357
19.064	60.595
19.082	60.657
19.1	60.7171
19.118	60.7741
19.136	60.8241
19.154	60.867
19.172	60.8998
19.19	60.9238
19.208	60.9388
19.226	60.9459
19.244	60.9479
19.262	60.9457
19.28	60.9446
19.298	60.9447
19.316	60.9524
19.334	60.9672
19.352	60.9949
19.37	61.035
19.388	61.0905
19.406	61.1615
19.424	61.2476
19.442	61.3491
19.46	61.4627
19.478	61.5887
19.496	61.7219
19.514	61.8617
19.532	62.0034
19.55	62.145
19.568	62.2833
19.586	62.4148
19.604	62.5388
19.622	62.6514
19.64	62.7531
19.658	62.8415
19.676	62.917
19.694	62.9797
19.712	63.0294
19.73	63.0681
19.748	63.0956
19.766	63.1146
19.784	63.1255
19.802	63.1306
19.82	63.1311
19.838	63.1283
19.856	63.1242
19.874	63.119
19.892	63.1146
19.91	63.1109
19.928	63.1091
19.946	63.109
19.964	63.1111
19.982	63.1154
20	63.1218
20.018	63.1304
20.036	63.1409
20.054	63.1529
20.072	63.1662
20.09	63.1802
20.108	63.1949
20.126	63.2095
20.144	63.224
20.162	63.2381
20.18	63.2515
20.198	63.2639
20.216	63.275
20.234	63.2847
20.252	63.2926
20.27	63.2987
20.288	63.3028
20.306	63.3048
20.324	63.305
20.342	63.3031
20.36	63.2996
20.378	63.2951
20.396	63.2894
20.414	63.2841
20.432	63.2788
20.45	63.2749
20.468	63.2728
20.486	63.2729
20.504	63.2765
20.522	63.2832
20.54	63.2947
20.558	63.3108
20.576	63.3319
20.594	63.3584
20.612	63.3901
20.63	63.4269
20.648	63.4688
20.666	63.5143
20.684	63.5637
20.702	63.6152
20.72	63.6682
20.738	63.7221
20.756	63.7736
20.774	63.8236
20.792	63.8687
20.81	63.9089
20.828	63.9423
20.846	63.9663
20.864	63.9815
20.882	63.9849
20.9	63.9768
20.918	63.9558
20.936	63.9206
20.954	63.8717
20.972	63.8082
20.99	63.73
21.008	63.6385
21.026	63.5333
21.044	63.4159
21.062	63.2889
21.08	63.1514
21.098	63.0085
21.116	62.8603
21.134	62.7093
21.152	62.5608
21.17	62.413
21.188	62.273
21.206	62.1412
21.224	62.0199
21.242	61.9145
21.26	61.8233
21.278	61.7513
21.296	61.6993
21.314	61.6675
21.332	61.6581
21.35	61.6707
21.368	61.7042
21.386	61.7593
21.404	61.8341
21.422	61.9249
21.44	62.0334
21.458	62.153
21.476	62.282
21.494	62.4196
21.512	62.5571
21.53	62.6971
21.548	62.833
21.566	62.9599
21.584	63.0797
21.602	63.1849
21.62	63.2761
21.638	63.3515
21.656	63.4073
21.674	63.4446
21.692	63.4632
21.71	63.4622
21.728	63.4428
21.746	63.4077
21.764	63.3552
21.782	63.2901
21.8	63.2154
21.818	63.1299
21.836	63.0413
21.854	62.9492
21.872	62.856
21.89	62.7688
21.908	62.6849
21.926	62.6095
21.944	62.5462
21.962	62.4935
21.98	62.455
21.998	62.4314
22.016	62.4221
22.034	62.4284
22.052	62.4507
22.07	62.4864
22.088	62.5345
22.106	62.5956
22.124	62.6646
22.142	62.7417
22.16	62.8254
22.178	62.909
22.196	62.9946
22.214	63.0782
22.232	63.1544
22.25	63.2255
22.268	63.2871
22.286	63.3359
22.304	63.3738
22.322	63.3977
22.34	63.4065
22.358	63.4012
22.376	63.382
22.394	63.3478
22.412	63.3009
22.43	63.2437
22.448	63.1743
22.466	63.0974
22.484	63.0162
22.502	62.9285
22.52	62.8406
22.538	62.7546
22.556	62.6694
22.574	62.5912
22.592	62.5206
22.61	62.4576
22.628	62.4066
22.646	62.3673
22.664	62.3397
22.682	62.3258
22.7	62.3255
22.718	62.3376
22.736	62.3614
22.754	62.3978
22.772	62.4439
22.79	62.4973
22.808	62.5599
22.826	62.6268
22.844	62.6957
22.862	62.7683
22.88	62.8396
22.898	62.9077
22.916	62.974
22.934	63.0346
22.952	63.0883
22.97	63.136
22.988	63.1756
23.006	63.206
23.024	63.2283
23.042	63.2424
23.06	63.2477
23.078	63.2451
23.096	63.2368
23.114	63.2223
23.132	63.2024
23.15	63.1806
23.168	63.1562
23.186	63.13
23.204	63.1053
23.222	63.0818
23.24	63.0596
23.258	63.0411
23.276	63.0264
23.294	63.0151
23.312	63.0082
23.33	63.006
23.348	63.0079
23.366	63.0127
23.384	63.0212
23.402	63.0324
23.42	63.0444
23.438	63.0577
23.456	63.0716
23.474	63.0835
23.492	63.0931
23.51	63.1008
23.528	63.104
23.546	63.102
23.564	63.0957
23.582	63.0834
23.6	63.0645
23.618	63.0394
23.636	63.0084
23.654	62.9711
23.672	62.9276
23.69	62.8791
23.708	62.8263
23.726	62.7684
23.744	62.7072
23.762	62.6444
23.78	62.5787
23.798	62.5119
23.816	62.446
23.834	62.3799
23.852	62.3148
23.87	62.2524
23.888	62.1924
23.906	62.135
23.924	62.0809
23.942	62.0307
23.96	61.9838
23.978	61.9399
23.996	61.8993
24.014	61.8619
24.032	61.827
24.05	61.7943
24.068	61.7642
24.086	61.7358
24.104	61.7083
24.122	61.6822
24.14	61.6568
24.158	61.631
24.176	61.6052
24.194	61.5792
24.212	61.5519
24.23	61.523
24.248	61.4929
24.266	61.4607
24.284	61.426
24.302	61.3891
24.32	61.3495
24.338	61.3065
24.356	61.2603
24.374	61.211
24.392	61.1584
24.41	61.1024
24.428	61.0432
24.446	60.9808
24.464	60.9154
24.482	60.8472
24.5	60.7753
24.518	60.6991
24.536	60.6191
24.554	60.5349
24.572	60.4463
24.59	60.3531
24.608	60.2554
24.626	60.1539
24.644	60.0485
24.662	59.9388
24.68	59.8262
24.698	59.7121
24.716	59.595
24.734	59.4764
24.752	59.3586
24.77	59.2412
24.788	59.1239
24.806	59.0098
24.824	58.9007
24.842	58.7945
24.86	58.6936
24.878	58.6007
24.896	58.5148
24.914	58.4361
24.932	58.367
24.95	58.3087
24.968	58.2598
24.986	58.2216
25.004	58.1959
25.022	58.1825
25.04	58.1808
25.058	58.1907
25.076	58.2127
25.094	58.2472
25.112	58.2918
25.13	58.3445
25.148	58.4071
25.166	58.4782
25.184	58.5544
25.202	58.6345
25.22	58.7207
25.238	58.8096
25.256	58.8974
25.274	58.9859
25.292	59.0746
25.31	59.1605
25.328	59.2418
25.346	59.3203
25.364	59.3948
25.382	59.4635
25.4	59.5259
25.418	59.5829
25.436	59.6354
25.454	59.6839
25.472	59.7267
25.49	59.7662
25.508	59.8055
25.526	59.8439
25.544	59.8802
25.562	59.9195
25.58	59.9666
25.598	60.0178
25.616	60.075
25.634	60.1435
25.652	60.2264
25.67	60.3197
25.688	60.4267
25.706	60.5515
25.724	60.6951
25.742	60.8555
25.76	61.033
25.778	61.2279
25.796	61.4422
25.814	61.6733
25.832	61.9172
25.85	62.1724
25.868	62.4442
25.886	62.7247
25.904	63.0047
25.922	63.2842
25.94	63.5687
25.958	63.8458
25.976	64.1033
25.994	64.3484
26.012	64.5803
26.03	64.785
26.048	64.9508
26.066	65.089
26.084	65.1936
26.102	65.2514
26.12	65.254
26.138	65.2114
26.156	65.1178
26.174	64.9651
26.192	64.7493
26.21	64.4753
26.228	64.1429
26.246	63.7512
26.264	63.2967
26.282	62.7811
26.3	62.213
26.318	61.6008
26.336	60.9363
26.354	60.2225
26.372	59.4749
26.39	58.7074
26.408	57.9044
26.426	57.0742
26.444	56.2386
26.462	55.4145
26.48	54.5815
26.498	53.7518
26.516	52.9488
26.534	52.1886
26.552	51.4498
26.57	50.7462
26.588	50.0986
26.606	49.5204
26.624	48.9943
26.642	48.5297
26.66	48.1401
26.678	47.8337
26.696	47.6002
26.714	47.4434
26.732	47.3682
26.75	47.3786
26.768	47.4721
26.786	47.6454
26.804	47.8951
26.822	48.2221
26.84	48.6313
26.858	49.1121
26.876	49.6529
26.894	50.251
26.912	50.9184
26.93	51.6394
26.948	52.396
26.966	53.221
26.984	54.1903
27.002	55.1384
27.02	55.884
27.028	56.0812