File: Bakgrunnsmateriale/MATLAB/FTIR/ftir_data/subAa/Mapping_121/BZ1503107-1_e123_cm-1.asc
PE IR       SPECTRUM    SPECTRUM    ASCII       PEDS        1.60
  -1
BZ09FA~1.ASC
17/04/07
15:04:00.00
17/04/07
15:04:00.00
tln
$BZ1503107-1_e0123$<ebV0>[-23.3,12.1,10.0,0.0,27,1,0]
370
64

2002,4.07
MIRTGS : RIGHTBACK : INTERNAL 2
MIR : ON : INTERNAL 2
OPTKBR

0.200000
8
8.000000
FILLER
SINGLE
SPECTRUM
UNLOCKED 256

DOUBLE

COMBINED
1
0
0

1.000000
BACKG

1
0
TRUE
51149
0
LEFT NOT FITTED RIGHT NOT FITTED 0
NONE
NONE
15600
12
4.427000
51148
TRUE
1 0 8 72 0 0 0 0

15798

#HDR
-1
-1
#GR
CM-1
EGY
2.38419e-05
0.0
5000
-1.000000
4631
8
2.463483
0.008559
#DATA
5000	0.770044
4996	0.777816
4992	0.784158
4988	0.786399
4984	0.786471
4980	0.787806
4976	0.789952
4972	0.792908
4968	0.796604
4964	0.797748
4960	0.797748
4956	0.799441
4952	0.800919
4948	0.801563
4944	0.801229
4940	0.801348
4936	0.806093
4932	0.810599
4928	0.809216
4924	0.807738
4920	0.809764
4916	0.812578
4912	0.813484
4908	0.813150
4904	0.814890
4900	0.817990
4896	0.820636
4892	0.822210
4888	0.822591
4884	0.822448
4880	0.822710
4876	0.824689
4872	0.828528
4868	0.831818
4864	0.832223
4860	0.832533
4856	0.834989
4852	0.838756
4848	0.842595
4844	0.844502
4840	0.845813
4836	0.849080
4832	0.852751
4828	0.854825
4824	0.856924
4820	0.860524
4816	0.864243
4812	0.866913
4808	0.869870
4804	0.872755
4800	0.874972
4796	0.878381
4792	0.880861
4788	0.881695
4784	0.883793
4780	0.886845
4776	0.888872
4772	0.890493
4768	0.892758
4764	0.894165
4760	0.894284
4756	0.894141
4752	0.894904
4748	0.897645
4744	0.901365
4740	0.903463
4736	0.903487
4732	0.903844
4728	0.905966
4724	0.908946
4720	0.909185
4716	0.906467
4712	0.903701
4708	0.903487
4704	0.907635
4700	0.912213
4696	0.913429
4692	0.913119
4688	0.913596
4684	0.914931
4680	0.916957
4676	0.918006
4672	0.918316
4668	0.919413
4664	0.920414
4660	0.920605
4656	0.920677
4652	0.921440
4648	0.921940
4644	0.922656
4640	0.925779
4636	0.928711
4632	0.930404
4628	0.932741
4624	0.934982
4620	0.936555
4616	0.938677
4612	0.941228
4608	0.943136
4604	0.946021
4600	0.949788
4596	0.951218
4592	0.952529
4588	0.956916
4584	0.960755
4580	0.961494
4576	0.963377
4572	0.968050
4568	0.971603
4564	0.973486
4560	0.976848
4556	0.981831
4552	0.985574
4548	0.987172
4544	0.987696
4540	0.990128
4536	0.994753
4532	0.998401
4528	1.001191
4524	1.004719
4520	1.006793
4516	1.005721
4512	1.004171
4508	1.005578
4504	1.010441
4500	1.015520
4496	1.017832
4492	1.018023
4488	1.016855
4484	1.014590
4480	1.015830
4476	1.020193
4472	1.021122
4468	1.019549
4464	1.019692
4460	1.017355
4456	1.014947
4452	1.014876
4448	1.012086
4444	1.010656
4440	0.995516
4436	0.971078
4432	0.934290
4428	0.861096
4424	0.831365
4420	0.898098
4416	0.988483
4412	1.039934
4408	1.047158
4404	1.042580
4400	1.044654
4396	1.048946
4392	1.052498
4388	1.052904
4384	1.051712
4380	1.052474
4376	1.056647
4372	1.059794
4368	1.062202
4364	1.066040
4360	1.068472
4356	1.070809
4352	1.075530
4348	1.080322
4344	1.083326
4340	1.084995
4336	1.088142
4332	1.094579
4328	1.102042
4324	1.106953
4320	1.110219
4316	1.114511
4312	1.118755
4308	1.121711
4304	1.124835
4300	1.129555
4296	1.134037
4292	1.137590
4288	1.141309
4284	1.144766
4280	1.149773
4276	1.155471
4272	1.158547
4268	1.160740
4264	1.163959
4260	1.168131
4256	1.173162
4252	1.178073
4248	1.181650
4244	1.182699
4240	1.183319
4236	1.185536
4232	1.187396
4228	1.188898
4224	1.191186
4220	1.193261
4216	1.195287
4212	1.197481
4208	1.198458
4204	1.199197
4200	1.201677
4196	1.204419
4192	1.206159
4188	1.208019
4184	1.209998
4180	1.212048
4176	1.213955
4172	1.215243
4168	1.215744
4164	1.216864
4160	1.219367
4156	1.222753
4152	1.226162
4148	1.227927
4144	1.228928
4140	1.231598
4136	1.235699
4132	1.239967
4128	1.243782
4124	1.247501
4120	1.250839
4116	1.253509
4112	1.256537
4108	1.260375
4104	1.266407
4100	1.273369
4096	1.277875
4092	1.281547
4088	1.287460
4084	1.294445
4080	1.299786
4076	1.303720
4072	1.308965
4068	1.315617
4064	1.322436
4060	1.328206
4056	1.332688
4052	1.337814
4048	1.343441
4044	1.349186
4040	1.354527
4036	1.359534
4032	1.365756
4028	1.371169
4024	1.374244
4020	1.377844
4016	1.382756
4012	1.386570
4008	1.388907
4004	1.392436
4000	1.396656
3996	1.399111
3992	1.401615
3988	1.405978
3984	1.410913
3980	1.414108
3976	1.415181
3972	1.417064
3968	1.419496
3964	1.420640
3960	1.422309
3956	1.424694
3952	1.425814
3948	1.426362
3944	1.427531
3940	1.429581
3936	1.431155
3932	1.431465
3928	1.432085
3924	1.432609
3920	1.432824
3916	1.434469
3912	1.436781
3908	1.435971
3904	1.433181
3900	1.435089
3896	1.439595
3892	1.441740
3888	1.444101
3884	1.448440
3880	1.452231
3876	1.452302
3872	1.450681
3868	1.452946
3864	1.459074
3860	1.461076
3856	1.456212
3852	1.458573
3848	1.471948
3844	1.479125
3840	1.478052
3836	1.481413
3832	1.490068
3828	1.496481
3824	1.498484
3820	1.499652
3816	1.505756
3812	1.515436
3808	1.518559
3804	1.516079
3800	1.519131
3796	1.529145
3792	1.539134
3788	1.545715
3784	1.549887
3780	1.552677
3776	1.555609
3772	1.558494
3768	1.560759
3764	1.562595
3760	1.563286
3756	1.561117
3752	1.556181
3748	1.553559
3744	1.557016
3740	1.563549
3736	1.568031
3732	1.572608
3728	1.577806
3724	1.580429
3720	1.580858
3716	1.578783
3712	1.577019
3708	1.579403
3704	1.582932
3700	1.584577
3696	1.583838
3692	1.579689
3688	1.577901
3684	1.580691
3680	1.578998
3676	1.573133
3672	1.571750
3668	1.576113
3664	1.580977
3660	1.581645
3656	1.578402
3652	1.574015
3648	1.575183
3644	1.582551
3640	1.588177
3636	1.588273
3632	1.583552
3628	1.582336
3624	1.585650
3620	1.586627
3616	1.587462
3612	1.589226
3608	1.592159
3604	1.597046
3600	1.601243
3596	1.602792
3592	1.601552
3588	1.602196
3584	1.608228
3580	1.615118
3576	1.618957
3572	1.619362
3568	1.619076
3564	1.622056
3560	1.625919
3556	1.628112
3552	1.630616
3548	1.633048
3544	1.634049
3540	1.634621
3536	1.635289
3532	1.635742
3528	1.636624
3524	1.637840
3520	1.638126
3516	1.637530
3512	1.637125
3508	1.636338
3504	1.635074
3500	1.634216
3496	1.633119
3492	1.631712
3488	1.630258
3484	1.628160
3480	1.625204
3476	1.621818
3472	1.619267
3468	1.617693
3464	1.616764
3460	1.615190
3456	1.611423
3452	1.607465
3448	1.604723
3444	1.602578
3440	1.599860
3436	1.596689
3432	1.594448
3428	1.593017
3424	1.591658
3420	1.592445
3416	1.596140
3412	1.598644
3408	1.599383
3404	1.601004
3400	1.604008
3396	1.606988
3392	1.609325
3388	1.611232
3384	1.613068
3380	1.616644
3376	1.621127
3372	1.625084
3368	1.630425
3364	1.637101
3360	1.642465
3356	1.647305
3352	1.653933
3348	1.660871
3344	1.665973
3340	1.670885
3336	1.677846
3332	1.685261
3328	1.690888
3324	1.696014
3320	1.702737
3316	1.710319
3312	1.716637
3308	1.721858
3304	1.728153
3300	1.734471
3296	1.738953
3292	1.743912
3288	1.749777
3284	1.754331
3280	1.757884
3276	1.761078
3272	1.764774
3268	1.768851
3264	1.772189
3260	1.776576
3256	1.781272
3252	1.783084
3248	1.783990
3244	1.786160
3240	1.788759
3236	1.791429
3232	1.794219
3228	1.795864
3224	1.796531
3220	1.797866
3216	1.799774
3212	1.800227
3208	1.799345
3204	1.799464
3200	1.800584
3196	1.802062
3192	1.803660
3188	1.804447
3184	1.805496
3180	1.806521
3176	1.806807
3172	1.807904
3168	1.810073
3164	1.812124
3160	1.813840
3156	1.816010
3152	1.819634
3148	1.824998
3144	1.829981
3140	1.833391
3136	1.836895
3132	1.839661
3128	1.842522
3124	1.848340
3120	1.854801
3116	1.860690
3112	1.867055
3108	1.873111
3104	1.879072
3100	1.885461
3096	1.893210
3092	1.903796
3088	1.914787
3084	1.921796
3080	1.925873
3076	1.931262
3072	1.937675
3068	1.941967
3064	1.945543
3060	1.951575
3056	1.959395
3052	1.967239
3048	1.974797
3044	1.980805
3040	1.984858
3036	1.988530
3032	1.990437
3028	1.986956
3024	1.978754
3020	1.972055
3016	1.975822
3012	1.992487
3008	2.012419
3004	2.026200
3000	2.033662
2996	2.038216
2992	2.039766
2988	2.037930
2984	2.033352
2980	2.026033
2976	2.013874
2972	1.994514
2968	1.970934
2964	1.949739
2960	1.936221
2956	1.930952
2952	1.927542
2948	1.916861
2944	1.893162
2940	1.858592
2936	1.823115
2932	1.793622
2928	1.773548
2924	1.776027
2920	1.809859
2916	1.860260
2912	1.904654
2908	1.935458
2904	1.955342
2900	1.968979
2896	1.981711
2892	1.994490
2888	2.004599
2884	2.011990
2880	2.015805
2876	2.011060
2872	1.992464
2868	1.958775
2864	1.923155
2860	1.911878
2856	1.934051
2852	1.974582
2848	2.017760
2844	2.053928
2840	2.080082
2836	2.099323
2832	2.114725
2828	2.127051
2824	2.138924
2820	2.152037
2816	2.162599
2812	2.169895
2808	2.176928
2804	2.184081
2800	2.190232
2796	2.195191
2792	2.201151
2788	2.210044
2784	2.220845
2780	2.229690
2776	2.234339
2772	2.237868
2768	2.243089
2764	2.248835
2760	2.253365
2756	2.256321
2752	2.258348
2748	2.259731
2744	2.261066
2740	2.263975
2736	2.267169
2732	2.267789
2728	2.266454
2724	2.264857
2720	2.263307
2716	2.262520
2712	2.262163
2708	2.259898
2704	2.255725
2700	2.252459
2696	2.251052
2692	2.250480
2688	2.248787
2684	2.246046
2680	2.244091
2676	2.242159
2672	2.239775
2668	2.237367
2664	2.234053
2660	2.230024
2656	2.227187
2652	2.225971
2648	2.225756
2644	2.226209
2640	2.226090
2636	2.225613
2632	2.225923
2628	2.226257
2624	2.226924
2620	2.228546
2616	2.230954
2612	2.233290
2608	2.234864
2604	2.235507
2600	2.235102
2596	2.236318
2592	2.239680
2588	2.243518
2584	2.248692
2580	2.255797
2576	2.263259
2572	2.269291
2568	2.274060
2564	2.278208
2560	2.282524
2556	2.287650
2552	2.293634
2548	2.300167
2544	2.305293
2540	2.308630
2536	2.311897
2532	2.315306
2528	2.319502
2524	2.324295
2520	2.327704
2516	2.329611
2512	2.330732
2508	2.331781
2504	2.333045
2500	2.334165
2496	2.335143
2492	2.335405
2488	2.334523
2484	2.333259
2480	2.331781
2476	2.329301
2472	2.326941
2468	2.325415
2464	2.322411
2460	2.318477
2456	2.315044
2452	2.310657
2448	2.305722
2444	2.301526
2440	2.296638
2436	2.291560
2432	2.286887
2428	2.282500
2424	2.279233
2420	2.276372
2416	2.272891
2412	2.269244
2408	2.265715
2404	2.262759
2400	2.260828
2396	2.258253
2392	2.254915
2388	2.253317
2384	2.253365
2380	2.253007
2376	2.250647
2372	2.246332
2368	2.242517
2364	2.241086
2360	2.242994
2356	2.249836
2352	2.259898
2348	2.266860
2344	2.268815
2340	2.271032
2336	2.276611
2332	2.283883
2328	2.291750
2324	2.300238
2320	2.308392
2316	2.316379
2312	2.324938
2308	2.332901
2304	2.339291
2300	2.345967
2296	2.352809
2292	2.357697
2288	2.361559
2284	2.366018
2280	2.370834
2276	2.374815
2272	2.378058
2268	2.381253
2264	2.383875
2260	2.386021
2256	2.388191
2252	2.389287
2248	2.389311
2244	2.389883
2240	2.390289
2236	2.388501
2232	2.385377
2228	2.383971
2224	2.383327
2220	2.381086
2216	2.378749
2212	2.376604
2208	2.373313
2204	2.368760
2200	2.363824
2196	2.360010
2192	2.357411
2188	2.354717
2184	2.351546
2180	2.349233
2176	2.347612
2172	2.345371
2168	2.343535
2164	2.342677
2160	2.341985
2156	2.341556
2152	2.341628
2148	2.342295
2144	2.342700
2140	2.342271
2136	2.341032
2132	2.339935
2128	2.340531
2124	2.341723
2120	2.342128
2116	2.342486
2112	2.343392
2108	2.344536
2104	2.345561
2100	2.345728
2096	2.345132
2092	2.344989
2088	2.345776
2084	2.348947
2080	2.353167
2076	2.357220
2072	2.363753
2068	2.372503
2064	2.381324
2060	2.389979
2056	2.397847
2052	2.405595
2048	2.414298
2044	2.423095
2040	2.430748
2036	2.437067
2032	2.441692
2028	2.444481
2024	2.446866
2020	2.450156
2016	2.453708
2012	2.456617
2008	2.458477
2004	2.459502
2000	2.461147
1996	2.463150
1992	2.463221
1988	2.461171
1984	2.458238
1980	2.455210
1976	2.451896
1972	2.446818
1968	2.441811
1964	2.438974
1960	2.436828
1956	2.433538
1952	2.429366
1948	2.426004
1944	2.423262
1940	2.420115
1936	2.417325
1932	2.414655
1928	2.410340
1924	2.404212
1920	2.399420
1916	2.396917
1912	2.393054
1908	2.388119
1904	2.384614
1900	2.381587
1896	2.378749
1892	2.376365
1888	2.375459
1884	2.377986
1880	2.382087
1876	2.383732
1872	2.382516
1868	2.382898
1864	2.388215
1860	2.394318
1856	2.396965
1852	2.397918
1848	2.398467
1844	2.400422
1840	2.406167
1836	2.411532
1832	2.413439
1828	2.415084
1824	2.419567
1820	2.425622
1816	2.430033
1812	2.433252
1808	2.435994
1804	2.436256
1800	2.435278
1796	2.433395
1792	2.432489
1788	2.434635
1784	2.435779
1780	2.433085
1776	2.425551
1772	2.418947
1768	2.419352
1764	2.419400
1760	2.415037
1756	2.406549
1752	2.393865
1748	2.381706
1744	2.369236
1740	2.352023
1736	2.335238
1732	2.330183
1728	2.333498
1724	2.329421
1720	2.314925
1716	2.305102
1712	2.305054
1708	2.298283
1704	2.278661
1700	2.259445
1696	2.256011
1692	2.260327
1688	2.252125
1684	2.242565
1680	2.242970
1676	2.238297
1672	2.228474
1668	2.222418
1664	2.217912
1660	2.207398
1656	2.184939
1652	2.167010
1648	2.165913
1644	2.167987
1640	2.160239
1636	2.146720
1632	2.138280
1628	2.128911
1624	2.110743
1620	2.082371
1616	2.044177
1612	2.003526
1608	1.976823
1604	1.978683
1600	1.997876
1596	2.013802
1592	2.020931
1588	2.020502
1584	2.013301
1580	2.000737
1576	1.990580
1572	1.986551
1568	1.978945
1564	1.957130
1560	1.933741
1556	1.936221
1552	1.955962
1548	1.963567
1544	1.962804
1540	1.985383
1536	2.037405
1532	2.086353
1528	2.110815
1524	2.115726
1520	2.111554
1516	2.104115
1512	2.090930
1508	2.063655
1504	1.995849
1500	1.853156
1496	1.704192
1492	1.686120
1488	1.792001
1484	1.903557
1480	1.960802
1476	1.976132
1472	1.976108
1468	1.967000
1464	1.939153
1460	1.881885
1456	1.805877
1452	1.761484
1448	1.783823
1444	1.833033
1440	1.857590
1436	1.864075
1432	1.869750
1428	1.871347
1424	1.866483
1420	1.857686
1416	1.845645
1412	1.817989
1408	1.768636
1404	1.729655
1400	1.733565
1396	1.765799
1392	1.790642
1388	1.791620
1384	1.788496
1380	1.799511
1376	1.810860
1372	1.814889
1368	1.817297
1364	1.819133
1360	1.820135
1356	1.819586
1352	1.818346
1348	1.816940
1344	1.815462
1340	1.817440
1336	1.826620
1332	1.838970
1328	1.847600
1324	1.852679
1320	1.856017
1316	1.857185
1312	1.857471
1308	1.857304
1304	1.856923
1300	1.857852
1296	1.858687
1292	1.857709
1288	1.856017
1284	1.854276
1280	1.849222
1276	1.835250
1272	1.807236
1268	1.763486
1264	1.723384
1260	1.721620
1256	1.758933
1252	1.799869
1248	1.823782
1244	1.833963
1240	1.836585
1236	1.835227
1232	1.831221
1228	1.825404
1224	1.816129
1220	1.800465
1216	1.779866
1212	1.761078
1208	1.750779
1204	1.747751
1200	1.747274
1196	1.746106
1192	1.741695
1188	1.734423
1184	1.724195
1180	1.711916
1176	1.700401
1172	1.687479
1168	1.669597
1164	1.648664
1160	1.630306
1156	1.619338
1152	1.613831
1148	1.607656
1144	1.598715
1140	1.588821
1136	1.576757
1132	1.561212
1128	1.543426
1124	1.523208
1120	1.500725
1116	1.478767
1112	1.459479
1108	1.443672
1104	1.432943
1100	1.428031
1096	1.426386
1092	1.426410
1088	1.428341
1084	1.430082
1080	1.428794
1076	1.428008
1072	1.432156
1068	1.436853
1064	1.436519
1060	1.420474
1056	1.369690
1052	1.309895
1048	1.306152
1044	1.350593
1040	1.381778
1036	1.385688
1032	1.378202
1028	1.368260
1024	1.360702
1020	1.359581
1016	1.365852
1012	1.376533
1008	1.387596
1004	1.395416
1000	1.398420
996	 1.397800
992	 1.395082
988	 1.390695
984	 1.383447
980	 1.374316
976	 1.365828
972	 1.356244
968	 1.344203
964	 1.330542
960	 1.315212
956	 1.300144
952	 1.286673
948	 1.275300
944	 1.267433
940	 1.260852
936	 1.252198
932	 1.242518
928	 1.233553
924	 1.224470
920	 1.214241
916	 1.201200
912	 1.185703
908	 1.171731
904	 1.162219
900	 1.156234
896	 1.149797
892	 1.139307
888	 1.119756
884	 1.086664
880	 1.049351
876	 1.029062
872	 1.037001
868	 1.061201
864	 1.082611
860	 1.092958
856	 1.092815
852	 1.088333
848	 1.083803
844	 1.076412
840	 1.060199
836	 1.025700
832	 0.962638
828	 0.885653
824	 0.847387
820	 0.874042
816	 0.921416
812	 0.945854
808	 0.949478
804	 0.946664
800	 0.944924
796	 0.948286
792	 0.957846
788	 0.969004
784	 0.976204
780	 0.979256
776	 0.978779
772	 0.975275
768	 0.971460
764	 0.968265
760	 0.964927
756	 0.961828
752	 0.958037
748	 0.951147
744	 0.942564
740	 0.934433
736	 0.925397
732	 0.914168
728	 0.902152
724	 0.890660
720	 0.879907
716	 0.870013
712	 0.859165
708	 0.845766
704	 0.831079
700	 0.814747
696	 0.791978
692	 0.760507
688	 0.735688
684	 0.732517
680	 0.737237
676	 0.734305
672	 0.726103
668	 0.716161
664	 0.707101
660	 0.699186
656	 0.689196
652	 0.678730
648	 0.669145
644	 0.657510
640	 0.644111
636	 0.632047
632	 0.620818
628	 0.609803
624	 0.599431
620	 0.590419
616	 0.579667
612	 0.560569
608	 0.537800
604	 0.524353
600	 0.520610
596	 0.518488
592	 0.515961
588	 0.513195
584	 0.509285
580	 0.504159
576	 0.498914
572	 0.495004
568	 0.492191
564	 0.487732
560	 0.480079
556	 0.471210
552	 0.463247
548	 0.457668
544	 0.453281
540	 0.447368
536	 0.439095
532	 0.429987
528	 0.419998
524	 0.409364
520	 0.400066
516	 0.391840
512	 0.382804
508	 0.372171
504	 0.360131
500	 0.347304
496	 0.334167
492	 0.320386
488	 0.305986
484	 0.290465
480	 0.274920
476	 0.262808
472	 0.252890
468	 0.241518
464	 0.227856
460	 0.212574
456	 0.197219
452	 0.183224
448	 0.170850
444	 0.160670
440	 0.151467
436	 0.140047
432	 0.126099
428	 0.112438
424	 0.099873
420	 0.087523
416	 0.075793
412	 0.065135
408	 0.055623
404	 0.047659
400	 0.040411
396	 0.032782
392	 0.025725
388	 0.019907
384	 0.015735
380	 0.013613
376	 0.012063
372	 0.009846
370	 0.008559