File: Bakgrunnsmateriale/MATLAB/FTIR/ftir_data/subAa/Mapping_121/BZ1503107-1_t92.asc
PE IR       SPECTRUM    SPECTRUM    ASCII       PEDS        1.60
  -1
BZ315B~1.ASC
17/04/07
20:50:37.00
17/04/07
20:51:03.00
tln
$BZ1503107-1_t0092$<tbV0>[5.2,7.8,8.0,0.0,27,1,0]
27.028
64

2002,4.07
MIRTGS : RIGHTBACK : INTERNAL 2
MIR : ON : INTERNAL 2
OPTKBR

0.200000
8
8.000000
FILLER
RATIO
SPECTRUM
UNLOCKED 256

DOUBLE
64
COMBINED
1
0
0

0.002000
RATIO

1
0
TRUE
51149
0
LEFT NOT FITTED RIGHT NOT FITTED 0
NONE
NONE
15600
12
4.427000
51148
TRUE
1 0 8 72 0 0 0 0

15798

#HDR
-1
-1
#GR
µM
%T
2.38419e-05
0.0
2.000000
0.002000
12515
8
78.5294
60.0703
#DATA
2.000000	 64.8235
2.018000	 65.422
2.036000	 64.4059
2.054000	 65.3473
2.072000	 64.4517
2.090000	 65.3086
2.108000	 65.0946
2.126000	 65.0447
2.144000	 65.1898
2.162000	 65.2048
2.180000	 65.1423
2.198000	 64.617
2.216000	 64.8037
2.234000	 64.1654
2.252000	 68.3599
2.270000	 65.1631
2.288000	 64.8117
2.306000	 64.6269
2.324000	 64.6676
2.342000	 64.6844
2.360000	 65.1766
2.378000	 65.0672
2.396000	 65.2608
2.414000	 64.7738
2.432000	 65.4382
2.450000	 64.9693
2.468000	 64.9722
2.486000	 65.2031
2.504000	 65.1096
2.522000	 65.0761
2.540000	 65.3804
2.558000	 65.1402
2.576000	 64.854
2.594000	 65.1737
2.612000	 65.0902
2.630000	 64.9853
2.648000	 65.1369
2.666000	 65.1673
2.684000	 65.1655
2.702000	 65.0943
2.720000	 65.1188
2.738000	 65.0416
2.756000	 65.2011
2.774000	 64.9409
2.792000	 65.0519
2.810000	 65.1045
2.828000	 65.1356
2.846000	 64.91
2.864000	 65.0161
2.882000	 65.2251
2.900000	 65.0896
2.918000	 64.9741
2.936000	 65.1725
2.954000	 64.9936
2.972000	 65.0257
2.990000	 64.8474
3.008000	 64.8212
3.026000	 65.095
3.044000	 64.8763
3.062000	 64.9698
3.080000	 65.057
3.098000	 64.989
3.116000	 65.0376
3.134000	 64.8286
3.152000	 65.0265
3.170000	 64.8173
3.188000	 64.9232
3.206000	 64.7438
3.224000	 64.9967
3.242000	 64.9772
3.260000	 64.7729
3.278000	 64.9931
3.296000	 64.9475
3.314000	 64.9152
3.332000	 64.7976
3.350000	 64.782
3.368000	 64.7585
3.386000	 64.5432
3.404000	 64.8033
3.422000	 64.8781
3.440000	 64.9521
3.458000	 64.7424
3.476000	 64.7369
3.494000	 64.7487
3.512000	 64.7547
3.530000	 64.7065
3.548000	 64.7568
3.566000	 64.7733
3.584000	 64.7231
3.602000	 64.9176
3.620000	 64.8034
3.638000	 64.6932
3.656000	 64.7921
3.674000	 64.8865
3.692000	 64.7788
3.710000	 64.7907
3.728000	 64.8643
3.746000	 64.8148
3.764000	 64.7954
3.782000	 64.8467
3.800000	 64.7232
3.818000	 64.7527
3.836000	 64.8181
3.854000	 64.6113
3.872000	 64.761
3.890000	 64.7355
3.908000	 64.5904
3.926000	 64.6
3.944000	 64.6506
3.962000	 64.6606
3.980000	 64.6485
3.998000	 64.6348
4.016000	 64.7714
4.034000	 64.6564
4.052000	 64.7795
4.070000	 64.686
4.088000	 64.5788
4.106000	 64.5854
4.124000	 64.6251
4.141999	 64.6751
4.160000	 64.5076
4.178000	 64.546
4.196000	 64.5299
4.214000	 64.5084
4.232000	 64.6577
4.250000	 64.6263
4.268000	 64.5416
4.286000	 64.5415
4.304000	 64.5988
4.322000	 64.5266
4.340000	 64.4915
4.358000	 64.5542
4.375999	 64.4516
4.394000	 64.5535
4.412000	 64.4841
4.430000	 64.4653
4.448000	 64.482
4.466000	 64.3995
4.484000	 64.4295
4.502000	 64.4886
4.520000	 64.4706
4.538000	 64.423
4.556000	 64.319
4.574000	 64.3112
4.592000	 64.3799
4.609999	 64.4292
4.628000	 64.3909
4.646000	 64.3807
4.664000	 64.3295
4.682000	 64.3619
4.700000	 64.4009
4.718000	 64.3139
4.736000	 64.378
4.754000	 64.3711
4.772000	 64.3956
4.790000	 64.3182
4.808000	 64.261
4.826000	 64.2634
4.843999	 64.3846
4.862000	 64.4759
4.880000	 64.355
4.898000	 64.3026
4.916000	 64.3446
4.934000	 64.2602
4.952000	 64.267
4.970000	 64.3002
4.988000	 64.2581
5.006000	 64.3171
5.024000	 64.4083
5.042000	 64.2906
5.060000	 64.2956
5.077999	 64.2388
5.096000	 64.2165
5.114000	 64.1798
5.132000	 64.1414
5.150000	 64.1718
5.168000	 64.2196
5.186000	 64.1447
5.204000	 64.0793
5.222000	 64.098
5.240000	 64.2392
5.258000	 64.2577
5.276000	 64.2521
5.294000	 64.1954
5.312000	 64.1324
5.330000	 64.1122
5.348000	 64.0961
5.366000	 64.1539
5.384000	 64.2626
5.402000	 64.1376
5.420000	 64.0171
5.438000	 64.1586
5.456000	 64.2171
5.474000	 64.1288
5.492000	 64.1616
5.510000	 64.1835
5.528000	 64.1234
5.546000	 64.1235
5.564000	 64.0909
5.582000	 64.1146
5.600000	 64.0622
5.618000	 63.994
5.636000	 63.9794
5.654000	 64.0312
5.672000	 64.0194
5.690000	 63.9135
5.708000	 63.8073
5.726000	 63.733
5.744000	 63.7054
5.762000	 63.7068
5.780000	 63.7039
5.798000	 63.738
5.816000	 63.8201
5.834000	 63.9082
5.852000	 63.9297
5.870000	 63.8881
5.888000	 63.8287
5.906000	 63.8489
5.923999	 63.8436
5.942000	 63.8487
5.960000	 63.8434
5.978000	 63.864
5.996000	 63.94
6.014000	 63.9339
6.032000	 63.8634
6.050000	 63.8395
6.068000	 63.9434
6.086000	 64.0077
6.104000	 63.9611
6.122000	 63.8625
6.140000	 63.8263
6.158000	 63.8288
6.176000	 63.8884
6.194000	 63.9135
6.212000	 63.8689
6.230000	 63.8561
6.248000	 63.8528
6.266000	 63.9054
6.284000	 63.9476
6.302000	 63.8603
6.320000	 63.7175
6.338000	 63.667
6.356000	 63.7678
6.374000	 63.7968
6.392000	 63.6746
6.410000	 63.6295
6.428000	 63.6759
6.446000	 63.6292
6.464000	 63.6184
6.482000	 63.6592
6.500000	 63.6195
6.518000	 63.5976
6.536000	 63.6243
6.554000	 63.6813
6.572000	 63.6971
6.590000	 63.6614
6.608000	 63.7091
6.626000	 63.7909
6.644000	 63.8379
6.662000	 63.8284
6.680000	 63.7516
6.698000	 63.7024
6.716000	 63.7246
6.734000	 63.7435
6.752000	 63.7479
6.770000	 63.7529
6.788000	 63.7372
6.806000	 63.7063
6.824000	 63.6544
6.842000	 63.6068
6.860000	 63.5708
6.878000	 63.5158
6.896000	 63.5537
6.914000	 63.6635
6.932000	 63.6726
6.950000	 63.6362
6.968000	 63.6416
6.986000	 63.6281
7.004000	 63.5771
7.022000	 63.5633
7.040000	 63.6055
7.058000	 63.6315
7.076000	 63.6399
7.094000	 63.6894
7.112000	 63.7422
7.130000	 63.708
7.148000	 63.5793
7.166000	 63.444
7.184000	 63.388
7.202000	 63.407
7.220000	 63.4481
7.238000	 63.4832
7.256000	 63.5077
7.274000	 63.5287
7.292000	 63.5633
7.310000	 63.599
7.328000	 63.613
7.346000	 63.6256
7.364000	 63.6414
7.382000	 63.6311
7.400000	 63.6042
7.418000	 63.5644
7.436000	 63.4948
7.454000	 63.4307
7.472000	 63.4151
7.490000	 63.4488
7.508000	 63.5082
7.526000	 63.532
7.544000	 63.5033
7.562000	 63.5102
7.580000	 63.5813
7.598000	 63.6173
7.616000	 63.5726
7.634000	 63.504
7.652000	 63.4499
7.670000	 63.4186
7.688000	 63.4335
7.706000	 63.495
7.724000	 63.5565
7.742000	 63.5658
7.760000	 63.5181
7.778000	 63.4598
7.796000	 63.4268
7.814000	 63.3995
7.832000	 63.355
7.850000	 63.3114
7.868000	 63.2929
7.886000	 63.3003
7.904000	 63.3208
7.922000	 63.3381
7.940000	 63.3455
7.958000	 63.3561
7.976000	 63.3772
7.994000	 63.3929
8.012000	 63.3894
8.030000	 63.3723
8.048000	 63.3476
8.065999	 63.3164
8.084000	 63.2901
8.102000	 63.2835
8.120000	 63.2913
8.138000	 63.3028
8.155999	 63.331
8.173999	 63.3864
8.192000	 63.4383
8.210000	 63.447
8.228000	 63.4142
8.246000	 63.3704
8.263999	 63.3305
8.282000	 63.2923
8.300000	 63.2637
8.318000	 63.2618
8.336000	 63.2908
8.353999	 63.3236
8.372000	 63.3214
8.390000	 63.2753
8.408000	 63.2162
8.426000	 63.1743
8.443999	 63.1429
8.462000	 63.0995
8.480000	 63.0472
8.498000	 63.0101
8.516000	 63.0006
8.533999	 63.0108
8.552000	 63.0272
8.570000	 63.0416
8.588000	 63.0495
8.606000	 63.0541
8.624000	 63.0687
8.641999	 63.1026
8.660000	 63.1465
8.678000	 63.1797
8.696000	 63.1938
8.714000	 63.2012
8.731999	 63.2146
8.750000	 63.2273
8.768000	 63.2235
8.786000	 63.2027
8.804000	 63.1818
8.821999	 63.1718
8.840000	 63.1674
8.858000	 63.1633
8.876000	 63.1687
8.894000	 63.1916
8.911999	 63.2205
8.930000	 63.2358
8.948000	 63.2356
8.966000	 63.2348
8.984000	 63.2374
9.001999	 63.2246
9.020000	 63.1806
9.038000	 63.1181
9.056000	 63.0678
9.074000	 63.0478
9.092000	 63.0532
9.109999	 63.0704
9.128000	 63.09
9.146000	 63.107
9.164000	 63.1154
9.182000	 63.1126
9.199999	 63.1049
9.218000	 63.104
9.236000	 63.1185
9.254000	 63.149
9.272000	 63.1871
9.289999	 63.2188
9.308000	 63.2308
9.326000	 63.2202
9.344000	 63.1962
9.362000	 63.1725
9.379999	 63.1563
9.398000	 63.1454
9.416000	 63.1363
9.434000	 63.1292
9.452000	 63.1226
9.469999	 63.109
9.488000	 63.0791
9.506000	 63.0365
9.524000	 63.0025
9.542000	 63.0012
9.560000	 63.0371
9.577999	 63.0909
9.596000	 63.1364
9.614000	 63.1572
9.632000	 63.1535
9.650000	 63.1373
9.667999	 63.124
9.686000	 63.1229
9.704000	 63.1312
9.722000	 63.1374
9.740000	 63.1295
9.757999	 63.103
9.776000	 63.0622
9.794000	 63.0158
9.812000	 62.9727
9.830000	 62.9425
9.847999	 62.9372
9.866000	 62.9643
9.884000	 63.017
9.902000	 63.0727
9.920000	 63.1035
9.937999	 63.0936
9.956000	 63.0504
9.974000	 62.9972
9.992000	 62.9578
10.01	62.943
10.028	62.9493
10.046	62.9663
10.064	62.986
10.082	63.0062
10.1	63.0319
10.118	63.0718
10.136	63.1321
10.154	63.2099
10.172	63.291
10.19	63.352
10.208	63.3731
10.226	63.348
10.244	63.288
10.262	63.2157
10.28	63.1523
10.298	63.1097
10.316	63.0892
10.334	63.0844
10.352	63.0851
10.37	63.0818
10.388	63.0688
10.406	63.0466
10.424	63.0216
10.442	63.0033
10.46	62.9986
10.478	63.0086
10.496	63.0269
10.514	63.0442
10.532	63.0532
10.55	63.0532
10.568	63.0489
10.586	63.0477
10.604	63.0539
10.622	63.0668
10.64	63.0802
10.658	63.0865
10.676	63.0817
10.694	63.0676
10.712	63.0511
10.73	63.0402
10.748	63.0389
10.766	63.045
10.784	63.0514
10.802	63.0512
10.82	63.0424
10.838	63.0282
10.856	63.0138
10.874	63.0028
10.892	62.9946
10.91	62.9864
10.928	62.9776
10.946	62.9711
10.964	62.9717
10.982	62.9815
11	62.9971
11.018	63.0097
11.036	63.0108
11.054	62.9972
11.072	62.9728
11.09	62.9443
11.108	62.9159
11.126	62.8869
11.144	62.8539
11.162	62.8159
11.18	62.7782
11.198	62.7522
11.216	62.7489
11.234	62.7731
11.252	62.8183
11.27	62.8688
11.288	62.9043
11.306	62.9117
11.324	62.8906
11.342	62.8544
11.36	62.8235
11.378	62.8174
11.396	62.8443
11.414	62.8988
11.432	62.9655
11.45	63.0268
11.468	63.0694
11.486	63.0892
11.504	63.0901
11.522	63.0789
11.54	63.0602
11.558	63.0352
11.576	63.0032
11.594	62.9652
11.612	62.9269
11.63	62.8974
11.648	62.8846
11.666	62.8923
11.684	62.917
11.702	62.9498
11.72	62.9793
11.738	62.9976
11.756	63.0028
11.774	62.9988
11.792	62.9922
11.81	62.9878
11.828	62.987
11.846	62.9872
11.864	62.9844
11.882	62.9759
11.9	62.962
11.918	62.946
11.936	62.9323
11.954	62.9237
11.972	62.9205
11.99	62.9198
12.008	62.9175
12.026	62.9099
12.044	62.8962
12.062	62.8782
12.08	62.8606
12.098	62.8484
12.116	62.8447
12.134	62.8493
12.152	62.8586
12.17	62.8683
12.188	62.8742
12.206	62.8747
12.224	62.8706
12.242	62.8646
12.26	62.8596
12.278	62.858
12.296	62.861
12.314	62.8681
12.332	62.8781
12.35	62.8889
12.368	62.8987
12.386	62.9058
12.404	62.9105
12.422	62.9147
12.44	62.9221
12.458	62.9365
12.476	62.9612
12.494	62.9974
12.512	63.0431
12.53	63.0933
12.548	63.1414
12.566	63.1806
12.584	63.206
12.602	63.2159
12.62	63.2119
12.638	63.1983
12.656	63.1798
12.674	63.1608
12.692	63.1429
12.71	63.1264
12.728	63.109
12.746	63.0879
12.764	63.0599
12.782	63.0225
12.8	62.9738
12.818	62.914
12.836	62.845
12.854	62.7714
12.872	62.699
12.89	62.6349
12.908	62.5861
12.926	62.5581
12.944	62.5531
12.962	62.5698
12.98	62.6032
12.998	62.6455
13.016	62.688
13.034	62.7229
13.052	62.7451
13.07	62.7526
13.088	62.7467
13.106	62.7314
13.124	62.7112
13.142	62.6909
13.16	62.6741
13.178	62.6631
13.196	62.6591
13.214	62.6616
13.232	62.6696
13.25	62.6814
13.268	62.6951
13.286	62.709
13.304	62.7216
13.322	62.7324
13.34	62.7417
13.358	62.7504
13.376	62.7601
13.394	62.7729
13.412	62.791
13.43	62.8156
13.448	62.8467
13.466	62.8834
13.484	62.9232
13.502	62.963
13.52	62.9992
13.538	63.0287
13.556	63.0491
13.574	63.0596
13.592	63.0604
13.61	63.053
13.628	63.0391
13.646	63.0208
13.664	62.9997
13.682	62.9768
13.7	62.9525
13.718	62.9267
13.736	62.8991
13.754	62.8697
13.772	62.8387
13.79	62.8073
13.808	62.7769
13.826	62.7492
13.844	62.7259
13.862	62.7083
13.88	62.6967
13.898	62.6908
13.916	62.6893
13.934	62.6904
13.952	62.6923
13.97	62.6931
13.988	62.6915
14.006	62.6872
14.024	62.6806
14.042	62.6729
14.06	62.6657
14.078	62.6609
14.096	62.6603
14.114	62.665
14.132	62.6751
14.15	62.6895
14.168	62.7063
14.186	62.7224
14.204	62.7346
14.222	62.7396
14.24	62.7349
14.258	62.7195
14.276	62.6941
14.294	62.6607
14.312	62.623
14.33	62.5856
14.348	62.5533
14.366	62.5302
14.384	62.5193
14.402	62.5215
14.42	62.5357
14.438	62.5595
14.456	62.5889
14.474	62.6196
14.492	62.6469
14.51	62.6668
14.528	62.6767
14.546	62.6752
14.564	62.662
14.582	62.6377
14.6	62.6038
14.618	62.5621
14.636	62.5151
14.654	62.4652
14.672	62.4153
14.69	62.3682
14.708	62.327
14.726	62.2946
14.744	62.2733
14.762	62.265
14.78	62.2702
14.798	62.2882
14.816	62.3166
14.834	62.3518
14.852	62.3885
14.87	62.4217
14.888	62.4468
14.906	62.4599
14.924	62.4587
14.942	62.4428
14.96	62.4142
14.978	62.3761
14.996	62.3325
15.014	62.2878
15.032	62.2468
15.05	62.2125
15.068	62.1866
15.086	62.1695
15.104	62.1603
15.122	62.1566
15.14	62.1556
15.158	62.1554
15.176	62.1541
15.194	62.1504
15.212	62.1446
15.23	62.1382
15.248	62.1332
15.266	62.1321
15.284	62.1379
15.302	62.1529
15.32	62.1789
15.338	62.2166
15.356	62.2661
15.374	62.3261
15.392	62.3945
15.41	62.4688
15.428	62.5459
15.446	62.6218
15.464	62.6932
15.482	62.7575
15.5	62.812
15.518	62.855
15.536	62.8859
15.554	62.9045
15.572	62.9118
15.59	62.9093
15.608	62.8984
15.626	62.8808
15.644	62.8578
15.662	62.8311
15.68	62.8012
15.698	62.7686
15.716	62.7333
15.734	62.6949
15.752	62.6534
15.77	62.6086
15.788	62.5608
15.806	62.5111
15.824	62.4606
15.842	62.4108
15.86	62.3641
15.878	62.322
15.896	62.2862
15.914	62.2581
15.932	62.2379
15.95	62.2255
15.968	62.22
15.986	62.2199
16.004	62.2236
16.022	62.2296
16.04	62.2357
16.058	62.2408
16.076	62.2439
16.094	62.2441
16.112	62.2418
16.13	62.2372
16.148	62.2306
16.166	62.2234
16.184	62.2166
16.202	62.2115
16.22	62.2099
16.238	62.2128
16.256	62.2212
16.274	62.2362
16.292	62.2585
16.31	62.2883
16.328	62.3256
16.346	62.3692
16.364	62.4183
16.382	62.4705
16.4	62.5231
16.418	62.5743
16.436	62.6203
16.454	62.6586
16.472	62.6874
16.49	62.7043
16.508	62.7089
16.526	62.7011
16.544	62.6822
16.562	62.6548
16.58	62.6206
16.598	62.5837
16.616	62.5465
16.634	62.5112
16.652	62.4808
16.67	62.4561
16.688	62.4384
16.706	62.4273
16.724	62.4224
16.742	62.4228
16.76	62.4271
16.778	62.4346
16.796	62.4439
16.814	62.4547
16.832	62.4668
16.85	62.48
16.868	62.4946
16.886	62.5109
16.904	62.529
16.922	62.549
16.94	62.5706
16.958	62.5927
16.976	62.6146
16.994	62.6346
17.012	62.6507
17.03	62.6617
17.048	62.665
17.066	62.6598
17.084	62.6448
17.102	62.6197
17.12	62.5848
17.138	62.5411
17.156	62.4904
17.174	62.4342
17.192	62.3761
17.21	62.3179
17.228	62.2631
17.246	62.2146
17.264	62.1742
17.282	62.1453
17.3	62.1287
17.318	62.1263
17.336	62.138
17.354	62.164
17.372	62.2032
17.39	62.2545
17.408	62.3161
17.426	62.385
17.444	62.4596
17.462	62.5352
17.48	62.6101
17.498	62.6799
17.516	62.7424
17.534	62.7951
17.552	62.8351
17.57	62.8614
17.588	62.8726
17.606	62.869
17.624	62.8505
17.642	62.8194
17.66	62.7766
17.678	62.7261
17.696	62.6692
17.714	62.6105
17.732	62.5524
17.75	62.4978
17.768	62.45
17.786	62.4102
17.804	62.3812
17.822	62.3631
17.84	62.3569
17.858	62.362
17.876	62.3782
17.894	62.404
17.912	62.4387
17.93	62.4798
17.948	62.5269
17.966	62.577
17.984	62.6296
18.002	62.6824
18.02	62.734
18.038	62.7833
18.056	62.8283
18.074	62.8684
18.092	62.9016
18.11	62.9278
18.128	62.9449
18.146	62.953
18.164	62.9507
18.182	62.9378
18.2	62.9136
18.218	62.8783
18.236	62.8318
18.254	62.7746
18.272	62.7067
18.29	62.6302
18.308	62.5452
18.326	62.454
18.344	62.3572
18.362	62.2575
18.38	62.1554
18.398	62.0534
18.416	61.9525
18.434	61.8543
18.452	61.76
18.47	61.6708
18.488	61.5876
18.506	61.5109
18.524	61.4416
18.542	61.3801
18.56	61.3266
18.578	61.2811
18.596	61.2442
18.614	61.2158
18.632	61.1961
18.65	61.1852
18.668	61.1834
18.686	61.1905
18.704	61.2063
18.722	61.2304
18.74	61.2624
18.758	61.3019
18.776	61.3476
18.794	61.3991
18.812	61.4545
18.83	61.513
18.848	61.5722
18.866	61.6311
18.884	61.6872
18.902	61.7394
18.92	61.7855
18.938	61.8245
18.956	61.8544
18.974	61.875
18.992	61.885
19.01	61.8843
19.028	61.8723
19.046	61.8495
19.064	61.816
19.082	61.7726
19.1	61.7204
19.118	61.6605
19.136	61.5948
19.154	61.5245
19.172	61.4521
19.19	61.3784
19.208	61.3067
19.226	61.2375
19.244	61.1746
19.262	61.1181
19.28	61.0715
19.298	61.0348
19.316	61.0108
19.334	60.9991
19.352	61.0012
19.37	61.0169
19.388	61.0457
19.406	61.0878
19.424	61.1409
19.442	61.2051
19.46	61.2769
19.478	61.3566
19.496	61.4398
19.514	61.5259
19.532	61.6113
19.55	61.6946
19.568	61.7733
19.586	61.8443
19.604	61.9067
19.622	61.9569
19.64	61.9949
19.658	62.0173
19.676	62.0245
19.694	62.0148
19.712	61.9882
19.73	61.945
19.748	61.8848
19.766	61.8095
19.784	61.7187
19.802	61.6155
19.82	61.5009
19.838	61.3772
19.856	61.248
19.874	61.1139
19.892	60.9808
19.91	60.8482
19.928	60.7227
19.946	60.6035
19.964	60.4966
19.982	60.4023
20	60.3237
20.018	60.2628
20.036	60.2204
20.054	60.1993
20.072	60.1988
20.09	60.2207
20.108	60.2647
20.126	60.33
20.144	60.4173
20.162	60.5237
20.18	60.649
20.198	60.7908
20.216	60.9459
20.234	61.1139
20.252	61.2882
20.27	61.47
20.288	61.6516
20.306	61.8332
20.324	62.0094
20.342	62.1764
20.36	62.3332
20.378	62.4729
20.396	62.5967
20.414	62.6988
20.432	62.7792
20.45	62.8359
20.468	62.8671
20.486	62.8738
20.504	62.8555
20.522	62.8126
20.54	62.7485
20.558	62.6621
20.576	62.5591
20.594	62.4405
20.612	62.3094
20.63	62.1728
20.648	62.029
20.666	61.888
20.684	61.7485
20.702	61.617
20.72	61.498
20.738	61.3912
20.756	61.3036
20.774	61.2336
20.792	61.1849
20.81	61.1588
20.828	61.1544
20.846	61.1724
20.864	61.2124
20.882	61.2713
20.9	61.3505
20.918	61.4449
20.936	61.5522
20.954	61.6718
20.972	61.7958
20.99	61.9265
21.008	62.0561
21.026	62.1823
21.044	62.3037
21.062	62.4129
21.08	62.5119
21.098	62.5951
21.116	62.661
21.134	62.7095
21.152	62.7376
21.17	62.7462
21.188	62.7358
21.206	62.7056
21.224	62.6579
21.242	62.5955
21.26	62.5173
21.278	62.4301
21.296	62.3337
21.314	62.2313
21.332	62.1295
21.35	62.0261
21.368	61.9284
21.386	61.838
21.404	61.7556
21.422	61.6868
21.44	61.6302
21.458	61.5881
21.476	61.5624
21.494	61.5519
21.512	61.5565
21.53	61.5769
21.548	61.6105
21.566	61.6562
21.584	61.714
21.602	61.7791
21.62	61.8524
21.638	61.9309
21.656	62.0106
21.674	62.093
21.692	62.1735
21.71	62.2512
21.728	62.3259
21.746	62.3951
21.764	62.459
21.782	62.5173
21.8	62.569
21.818	62.6147
21.836	62.6546
21.854	62.6887
21.872	62.7173
21.89	62.7415
21.908	62.761
21.926	62.7761
21.944	62.7872
21.962	62.7943
21.98	62.7971
21.998	62.7959
22.016	62.7904
22.034	62.7796
22.052	62.7639
22.07	62.7427
22.088	62.7153
22.106	62.6822
22.124	62.6431
22.142	62.5977
22.16	62.5465
22.178	62.491
22.196	62.4302
22.214	62.3663
22.232	62.3019
22.25	62.2354
22.268	62.1707
22.286	62.1095
22.304	62.0509
22.322	61.9993
22.34	61.9551
22.358	61.9182
22.376	61.8915
22.394	61.8749
22.412	61.868
22.43	61.8715
22.448	61.8855
22.466	61.9086
22.484	61.9399
22.502	61.9801
22.52	62.0259
22.538	62.0764
22.556	62.132
22.574	62.1882
22.592	62.245
22.61	62.3019
22.628	62.3547
22.646	62.4042
22.664	62.4494
22.682	62.488
22.7	62.5205
22.718	62.5466
22.736	62.5657
22.754	62.5776
22.772	62.5836
22.79	62.5841
22.808	62.5785
22.826	62.569
22.844	62.5567
22.862	62.5408
22.88	62.5235
22.898	62.5057
22.916	62.4867
22.934	62.4683
22.952	62.4509
22.97	62.4343
22.988	62.419
23.006	62.4055
23.024	62.3934
23.042	62.3824
23.06	62.3727
23.078	62.3641
23.096	62.3556
23.114	62.3474
23.132	62.3393
23.15	62.3302
23.168	62.3202
23.186	62.3094
23.204	62.2973
23.222	62.2838
23.24	62.2692
23.258	62.2539
23.276	62.2375
23.294	62.2206
23.312	62.2043
23.33	62.1884
23.348	62.1733
23.366	62.1606
23.384	62.1502
23.402	62.1421
23.42	62.1379
23.438	62.1378
23.456	62.1414
23.474	62.1495
23.492	62.1626
23.51	62.1802
23.528	62.2016
23.546	62.2272
23.564	62.2567
23.582	62.2888
23.6	62.323
23.618	62.3599
23.636	62.3977
23.654	62.436
23.672	62.4754
23.69	62.5136
23.708	62.5492
23.726	62.5837
23.744	62.6146
23.762	62.6398
23.78	62.6607
23.798	62.6759
23.816	62.6831
23.834	62.6834
23.852	62.6762
23.87	62.6604
23.888	62.6364
23.906	62.604
23.924	62.5624
23.942	62.5115
23.96	62.4517
23.978	62.3829
23.996	62.3048
24.014	62.2177
24.032	62.1226
24.05	62.0202
24.068	61.9096
24.086	61.793
24.104	61.6728
24.122	61.5469
24.14	61.4178
24.158	61.2888
24.176	61.1581
24.194	61.0272
24.212	60.9003
24.23	60.7773
24.248	60.6575
24.266	60.5455
24.284	60.4438
24.302	60.3496
24.32	60.2667
24.338	60.1985
24.356	60.1428
24.374	60.1012
24.392	60.0771
24.41	60.0704
24.428	60.0803
24.446	60.108
24.464	60.1545
24.482	60.2193
24.5	60.3005
24.518	60.3969
24.536	60.5106
24.554	60.6381
24.572	60.775
24.59	60.9236
24.608	61.0824
24.626	61.2452
24.644	61.4097
24.662	61.5794
24.68	61.748
24.698	61.91
24.716	62.0697
24.734	62.2235
24.752	62.3644
24.77	62.492
24.788	62.6083
24.806	62.7095
24.824	62.7926
24.842	62.8595
24.86	62.91
24.878	62.9435
24.896	62.9582
24.914	62.9562
24.932	62.9414
24.95	62.9149
24.968	62.8739
24.986	62.8243
25.004	62.7723
25.022	62.7128
25.04	62.6495
25.058	62.5914
25.076	62.5419
25.094	62.4953
25.112	62.4602
25.13	62.4452
25.148	62.4454
25.166	62.4629
25.184	62.5055
25.202	62.5767
25.22	62.6721
25.238	62.7953
25.256	62.9499
25.274	63.1358
25.292	63.3516
25.31	63.5969
25.328	63.8725
25.346	64.1794
25.364	64.5136
25.382	64.8708
25.4	65.2538
25.418	65.6617
25.436	66.0867
25.454	66.5235
25.472	66.9787
25.49	67.4459
25.508	67.9157
25.526	68.387
25.544	68.8641
25.562	69.3394
25.58	69.8055
25.598	70.2665
25.616	70.7214
25.634	71.1649
25.652	71.5935
25.67	72.0103
25.688	72.4144
25.706	72.8047
25.724	73.1801
25.742	73.5417
25.76	73.8906
25.778	74.2279
25.796	74.5528
25.814	74.8657
25.832	75.1681
25.85	75.4612
25.868	75.7444
25.886	76.0174
25.904	76.2796
25.922	76.5314
25.94	76.7732
25.958	77.0036
25.976	77.2213
25.994	77.4286
26.012	77.6243
26.03	77.8045
26.048	77.9659
26.066	78.1128
26.084	78.2422
26.102	78.3487
26.12	78.4293
26.138	78.4893
26.156	78.5237
26.174	78.5261
26.192	78.4943
26.21	78.4326
26.228	78.3377
26.246	78.2061
26.264	78.0374
26.282	77.8334
26.3	77.5933
26.318	77.3158
26.336	76.9991
26.354	76.6454
26.372	76.2585
26.39	75.8416
26.408	75.3901
26.426	74.9072
26.444	74.4
26.462	73.8739
26.48	73.3221
26.498	72.7491
26.516	72.1635
26.534	71.5707
26.552	70.9621
26.57	70.3446
26.588	69.7277
26.606	69.1169
26.624	68.5026
26.642	67.8928
26.66	67.2978
26.678	66.7227
26.696	66.1584
26.714	65.612
26.732	65.0919
26.75	64.6021
26.768	64.1357
26.786	63.6973
26.804	63.2928
26.822	62.9252
26.84	62.5903
26.858	62.2894
26.876	62.0243
26.894	61.7966
26.912	61.6051
26.93	61.4487
26.948	61.326
26.966	61.2409
26.984	61.201
27.002	61.1883
27.02	61.1833
27.028	61.1791