File: Bakgrunnsmateriale/MATLAB/FTIR/ftir_data/subAa/Mapping_121/BZ1503107-1_t10_cm-1.asc
PE IR       SPECTRUM    SPECTRUM    ASCII       PEDS        1.60
  -1
BZ68A1~1.ASC
17/04/07
14:02:02.00
17/04/07
14:02:02.00
tln
$BZ1503107-1_t0010$<tbV0>[-10.4,-13.0,8.0,0.0,27,1,0]
370
64

2002,4.07
MIRTGS : RIGHTBACK : INTERNAL 2
MIR : ON : INTERNAL 2
OPTKBR

0.200000
8
8.000000
FILLER
RATIO
SPECTRUM
UNLOCKED 256

DOUBLE
64
COMBINED
1
0
0

1.000000
RATIO

1
0
TRUE
51149
0
LEFT NOT FITTED RIGHT NOT FITTED 0
NONE
NONE
15600
12
4.427000
51148
TRUE
1 0 8 72 0 0 0 0

15798

#HDR
-1
-1
#GR
CM-1
%T
2.38419e-05
0.0
5000
-1.000000
4631
8
78.6213
50.9288
#DATA
5000	65.6181
4996	65.3729
4992	65.0739
4988	64.6454
4984	63.9537
4980	63.0059
4976	62.8227
4972	63.8901
4968	64.9447
4964	65.947
4960	66.6055
4956	65.5786
4952	64.1806
4948	63.9515
4944	63.7576
4940	63.5832
4936	64.1444
4932	64.3084
4928	64.3702
4924	64.8164
4920	64.5442
4916	64.1234
4912	64.5555
4908	65.0704
4904	64.8258
4900	64.476
4896	64.6153
4892	64.8575
4888	64.9443
4884	64.8335
4880	64.6911
4876	64.7706
4872	64.9127
4868	64.9134
4864	64.9745
4860	65.1818
4856	65.3017
4852	65.2095
4848	65.3278
4844	65.4598
4840	65.0474
4836	64.6842
4832	64.6429
4828	64.7087
4824	64.7544
4820	64.6524
4816	64.8592
4812	64.9606
4808	64.6954
4804	65.189
4800	65.838
4796	65.5227
4792	65.1007
4788	65.2224
4784	65.2689
4780	64.9606
4776	64.9195
4772	64.9549
4768	64.6037
4764	64.7542
4760	65.4218
4756	65.3765
4752	64.9462
4748	64.8605
4744	64.8869
4740	64.7007
4736	64.4076
4732	64.4525
4728	64.518
4724	64.2553
4720	64.1161
4716	64.5597
4712	64.968
4708	64.6488
4704	64.4168
4700	64.5771
4696	64.6519
4692	64.9265
4688	65.379
4684	65.4538
4680	65.2456
4676	65.0803
4672	64.9193
4668	64.7414
4664	64.8239
4660	65.0866
4656	65.0842
4652	64.977
4648	64.9826
4644	64.9739
4640	64.9101
4636	64.785
4632	64.7676
4628	64.8594
4624	64.824
4620	64.7747
4616	64.7921
4612	64.7569
4608	64.7246
4604	64.7534
4600	64.7182
4596	64.6994
4592	64.9317
4588	65.1476
4584	65.1082
4580	64.9865
4576	64.8372
4572	64.7213
4568	64.7593
4564	64.8096
4560	64.7416
4556	64.6359
4552	64.5513
4548	64.5113
4544	64.6554
4540	64.7691
4536	64.6106
4532	64.3815
4528	64.3354
4524	64.3563
4520	64.3378
4516	64.332
4512	64.4964
4508	64.705
4504	64.7816
4500	65.0334
4496	65.9191
4492	67.5248
4488	68.4481
4484	69.3148
4480	69.8812
4476	67.7877
4472	65.3306
4468	63.6454
4464	62.0704
4460	61.1936
4456	59.6233
4452	55.4769
4448	50.9288
4444	57.5645
4440	71.3888
4436	72.2041
4432	65.117
4428	63.7831
4424	65.1405
4420	65.364
4416	65.1992
4412	65.2794
4408	65.2689
4404	65.2663
4400	65.3537
4396	65.2296
4392	65.0132
4388	64.8566
4384	64.91
4380	65.1276
4376	65.2025
4372	65.1182
4368	65.0647
4364	65.2054
4360	65.3793
4356	65.2679
4352	64.9795
4348	64.8134
4344	64.8999
4340	65.0182
4336	65.1266
4332	65.3034
4328	65.2935
4324	65.0341
4320	64.7115
4316	64.6689
4312	64.9625
4308	65.1128
4304	64.9825
4300	64.8647
4296	64.8472
4292	64.8601
4288	64.8853
4284	64.9292
4280	65.028
4276	65.1282
4272	65.1128
4268	64.944
4264	64.7205
4260	64.5477
4256	64.4577
4252	64.65
4248	65.0071
4244	65.0747
4240	64.9229
4236	64.857
4232	64.9917
4228	65.1598
4224	65.0721
4220	64.9419
4216	64.8727
4212	64.7738
4208	64.9251
4204	65.1457
4200	65.123
4196	64.958
4192	64.8158
4188	64.7735
4184	64.6634
4180	64.6529
4176	64.9661
4172	65.169
4168	64.9467
4164	64.709
4160	64.7707
4156	64.8838
4152	64.9142
4148	64.9396
4144	65.0949
4140	65.3107
4136	65.2477
4132	64.9723
4128	64.8748
4124	65.0002
4120	65.0448
4116	65.0738
4112	65.2868
4108	65.4756
4104	65.4808
4100	65.3193
4096	65.1474
4092	65.1498
4088	65.1874
4084	65.1109
4080	65.0525
4076	65.1037
4072	65.229
4068	65.3007
4064	65.2726
4060	65.2901
4056	65.3337
4052	65.242
4048	65.1113
4044	65.0693
4040	65.081
4036	65.0825
4032	65.029
4028	65.0023
4024	65.0299
4020	65.0221
4016	64.974
4012	64.9306
4008	64.8975
4004	64.9091
4000	64.9272
3996	64.853
3992	64.8385
3988	64.9424
3984	65.0212
3980	65.022
3976	65.0041
3972	65.1379
3968	65.2731
3964	65.2316
3960	65.1768
3956	65.1052
3952	65.0074
3948	65.0591
3944	65.2797
3940	65.4196
3936	65.3186
3932	65.1487
3928	64.9911
3924	64.9056
3920	65.0308
3916	65.2026
3912	65.2298
3908	65.1337
3904	64.9957
3900	64.9436
3896	65.0102
3892	65.0903
3888	65.1837
3884	65.2331
3880	65.1441
3876	65.0771
3872	65.0773
3868	65.0395
3864	64.9765
3860	64.9962
3856	65.1431
3852	65.2947
3848	65.3471
3844	65.2916
3840	65.2551
3836	65.3264
3832	65.4352
3828	65.4587
3824	65.3538
3820	65.3163
3816	65.3549
3812	65.3127
3808	65.2563
3804	65.2798
3800	65.2406
3796	65.0874
3792	64.9617
3788	64.9025
3784	64.9528
3780	65.0689
3776	65.1413
3772	65.1359
3768	65.0704
3764	65.0505
3760	65.1335
3756	65.2715
3752	65.4216
3748	65.5431
3744	65.5372
3740	65.4247
3736	65.2553
3732	65.0644
3728	65.0393
3724	65.1575
3720	65.1913
3716	65.1211
3712	65.0992
3708	65.1303
3704	65.1214
3700	65.0845
3696	65.0945
3692	65.211
3688	65.3728
3684	65.4533
3680	65.4546
3676	65.4546
3672	65.4068
3668	65.2835
3664	65.2705
3660	65.3778
3656	65.3732
3652	65.2884
3648	65.2409
3644	65.2071
3640	65.2095
3636	65.2577
3632	65.3583
3628	65.3949
3624	65.313
3620	65.2468
3616	65.2072
3612	65.2325
3608	65.3275
3604	65.3253
3600	65.197
3596	65.0922
3592	65.0882
3588	65.1381
3584	65.2117
3580	65.2362
3576	65.1894
3572	65.1539
3568	65.117
3564	65.1082
3560	65.1552
3556	65.2074
3552	65.2389
3548	65.2906
3544	65.3512
3540	65.3264
3536	65.1873
3532	64.9907
3528	64.9122
3524	64.9493
3520	64.959
3516	64.9775
3512	65.0789
3508	65.1988
3504	65.2474
3500	65.2498
3496	65.1851
3492	65.0864
3488	65.0998
3484	65.1484
3480	65.1153
3476	65.0476
3472	65.0204
3468	65.0399
3464	65.0479
3460	65.059
3456	65.1304
3452	65.1874
3448	65.119
3444	65.0726
3440	65.1363
3436	65.1783
3432	65.1947
3428	65.2045
3424	65.1867
3420	65.1707
3416	65.1586
3412	65.1306
3408	65.0916
3404	65.0533
3400	65.0292
3396	65.0541
3392	65.0959
3388	65.0902
3384	65.1048
3380	65.1021
3376	65.0282
3372	65.0666
3368	65.1988
3364	65.2532
3360	65.2177
3356	65.0979
3352	64.9695
3348	64.9656
3344	65.071
3340	65.1834
3336	65.254
3332	65.2549
3328	65.2189
3324	65.1901
3320	65.1683
3316	65.1874
3312	65.1978
3308	65.1457
3304	65.1106
3300	65.0936
3296	65.107
3292	65.1911
3288	65.2261
3284	65.1881
3280	65.1508
3276	65.0924
3272	65.0732
3268	65.0614
3264	64.9698
3260	64.9594
3256	65.1277
3252	65.2565
3248	65.2069
3244	65.0756
3240	64.9644
3236	64.9646
3232	65.0133
3228	65.0464
3224	65.0936
3220	65.1295
3216	65.1463
3212	65.1946
3208	65.2508
3204	65.1862
3200	65.1102
3196	65.1574
3192	65.1352
3188	65.0007
3184	64.9768
3180	65.0596
3176	65.102
3172	65.1127
3168	65.1575
3164	65.1811
3160	65.1269
3156	65.0642
3152	65.0486
3148	65.0903
3144	65.1302
3140	65.1391
3136	65.1288
3132	65.0602
3128	65.0335
3124	65.1228
3120	65.163
3116	65.0447
3112	64.9352
3108	64.9998
3104	65.1387
3100	65.1786
3096	65.1801
3092	65.2028
3088	65.1154
3084	65.0091
3080	64.9979
3076	65.0225
3072	65.0881
3068	65.1248
3064	65.1055
3060	65.1177
3056	65.1541
3052	65.1758
3048	65.1417
3044	65.1065
3040	65.151
3036	65.1759
3032	65.1751
3028	65.2033
3024	65.2421
3020	65.2966
3016	65.2859
3012	65.2252
3008	65.2205
3004	65.2107
3000	65.1266
2996	65.065
2992	65.0982
2988	65.0883
2984	65.0162
2980	65.0239
2976	65.092
2972	65.1169
2968	65.0682
2964	65.0439
2960	65.0547
2956	65.0305
2952	65.0377
2948	65.0387
2944	64.9859
2940	64.9794
2936	65.0059
2932	65.01
2928	65.0383
2924	65.1077
2920	65.1621
2916	65.1355
2912	65.0814
2908	65.1085
2904	65.1099
2900	65.0478
2896	65.0582
2892	65.1307
2888	65.1128
2884	64.9868
2880	64.9461
2876	65.0401
2872	65.1387
2868	65.1724
2864	65.1809
2860	65.21
2856	65.2146
2852	65.1837
2848	65.1533
2844	65.1366
2840	65.1314
2836	65.0986
2832	65.0784
2828	65.0955
2824	65.0897
2820	65.1007
2816	65.1107
2812	65.0611
2808	65.0533
2804	65.1353
2800	65.1672
2796	65.132
2792	65.135
2788	65.1658
2784	65.1754
2780	65.1566
2776	65.1421
2772	65.1328
2768	65.1236
2764	65.1266
2760	65.106
2756	65.0657
2752	65.0439
2748	65.0453
2744	65.0341
2740	65.0635
2736	65.1856
2732	65.2689
2728	65.2588
2724	65.2056
2720	65.1454
2716	65.1337
2712	65.1008
2708	65.0191
2704	65.0526
2700	65.1837
2696	65.2177
2692	65.1525
2688	65.1189
2684	65.131
2680	65.1349
2676	65.1233
2672	65.0956
2668	65.0621
2664	65.0673
2660	65.0963
2656	65.0773
2652	65.0326
2648	65.0231
2644	65.0319
2640	65.0699
2636	65.1192
2632	65.1132
2628	65.0886
2624	65.0553
2620	64.9946
2616	64.9844
2612	65.0355
2608	65.0323
2604	64.9649
2600	64.9569
2596	65.0288
2592	65.0817
2588	65.0678
2584	65.0546
2580	65.0632
2576	65.036
2572	64.9877
2568	65.0141
2564	65.1108
2560	65.1167
2556	65.0406
2552	65.0062
2548	65.0039
2544	65.0195
2540	65.0424
2536	65.0838
2532	65.1486
2528	65.1584
2524	65.123
2520	65.1217
2516	65.1268
2512	65.1196
2508	65.1126
2504	65.0659
2500	64.9991
2496	64.9827
2492	65.0239
2488	65.062
2484	65.046
2480	65.0318
2476	65.0591
2472	65.0767
2468	65.1126
2464	65.1428
2460	65.0608
2456	65.0068
2452	65.0778
2448	65.1079
2444	65.0403
2440	64.9626
2436	64.9095
2432	64.8851
2428	64.901
2424	64.9597
2420	65.0279
2416	65.064
2412	65.1167
2408	65.1435
2404	65.0891
2400	65.0195
2396	64.9576
2392	64.9577
2388	65.0052
2384	65.0036
2380	65.0211
2376	65.0962
2372	65.0937
2368	65.0248
2364	65.0578
2360	65.1507
2356	65.1573
2352	65.1206
2348	65.1185
2344	65.0961
2340	65.0338
2336	64.982
2332	64.9647
2328	64.9866
2324	64.977
2320	64.9341
2316	64.9497
2312	65.0218
2308	65.0666
2304	65.0449
2300	64.9789
2296	64.9167
2292	64.9164
2288	64.9692
2284	65.0158
2280	65.0169
2276	64.981
2272	64.9701
2268	65.0045
2264	65.032
2260	65.0417
2256	65.0489
2252	65.0784
2248	65.0931
2244	65.0359
2240	64.9685
2236	64.9135
2232	64.882
2228	64.8937
2224	64.8933
2220	64.9013
2216	64.9448
2212	64.977
2208	64.9838
2204	64.9726
2200	64.9465
2196	64.9084
2192	64.8982
2188	64.9069
2184	64.8797
2180	64.8502
2176	64.876
2172	64.9525
2168	65.0224
2164	65.0373
2160	64.9443
2156	64.804
2152	64.7559
2148	64.7576
2144	64.7328
2140	64.7446
2136	64.8404
2132	64.9162
2128	64.9078
2124	64.8978
2120	64.9287
2116	64.9604
2112	64.9581
2108	64.9117
2104	64.8606
2100	64.8507
2096	64.8589
2092	64.8743
2088	64.9203
2084	64.981
2080	65.0173
2076	64.9662
2072	64.856
2068	64.8193
2064	64.8634
2060	64.8655
2056	64.8323
2052	64.8893
2048	64.975
2044	64.93
2040	64.847
2036	64.8663
2032	64.927
2028	64.9678
2024	64.9765
2020	64.9371
2016	64.8994
2012	64.9039
2008	64.9172
2004	64.9311
2000	64.9165
1996	64.8577
1992	64.8186
1988	64.8086
1984	64.7816
1980	64.7724
1976	64.8155
1972	64.8642
1968	64.9217
1964	64.9559
1960	64.9231
1956	64.8961
1952	64.8964
1948	64.8896
1944	64.8803
1940	64.8712
1936	64.884
1932	64.9123
1928	64.8873
1924	64.8433
1920	64.8895
1916	64.9673
1912	64.9731
1908	64.9298
1904	64.8723
1900	64.8335
1896	64.8761
1892	64.9888
1888	65.01
1884	64.8933
1880	64.8149
1876	64.8381
1872	64.8748
1868	64.8791
1864	64.8012
1860	64.6871
1856	64.6958
1852	64.808
1848	64.8946
1844	64.9039
1840	64.8666
1836	64.8207
1832	64.7938
1828	64.7812
1824	64.7525
1820	64.7506
1816	64.806
1812	64.8288
1808	64.792
1804	64.7774
1800	64.7994
1796	64.822
1792	64.8462
1788	64.8444
1784	64.7813
1780	64.7436
1776	64.8031
1772	64.8476
1768	64.8022
1764	64.7493
1760	64.7285
1756	64.7297
1752	64.7174
1748	64.636
1744	64.5705
1740	64.5816
1736	64.6109
1732	64.6035
1728	64.5671
1724	64.5868
1720	64.6805
1716	64.7224
1712	64.6857
1708	64.7264
1704	64.8664
1700	64.9915
1696	64.9396
1692	64.7675
1688	64.7295
1684	64.7749
1680	64.8098
1676	64.8426
1672	64.7835
1668	64.693
1664	64.6883
1660	64.7471
1656	64.8195
1652	64.8072
1648	64.7293
1644	64.6995
1640	64.7444
1636	64.7933
1632	64.7526
1628	64.6983
1624	64.6954
1620	64.6862
1616	64.6477
1612	64.6311
1608	64.6664
1604	64.6995
1600	64.7063
1596	64.7062
1592	64.6891
1588	64.6443
1584	64.6147
1580	64.6185
1576	64.6282
1572	64.6217
1568	64.6218
1564	64.6793
1560	64.7765
1556	64.7947
1552	64.7022
1548	64.6398
1544	64.6959
1540	64.7198
1536	64.6063
1532	64.5395
1528	64.6083
1524	64.69
1520	64.713
1516	64.6984
1512	64.6786
1508	64.6596
1504	64.6414
1500	64.6592
1496	64.7181
1492	64.7243
1488	64.6928
1484	64.6765
1480	64.6662
1476	64.676
1472	64.6341
1468	64.5064
1464	64.4607
1460	64.5931
1456	64.6746
1452	64.629
1448	64.6621
1444	64.7434
1440	64.7551
1436	64.7118
1432	64.6558
1428	64.6046
1424	64.6119
1420	64.7021
1416	64.744
1412	64.6565
1408	64.5263
1404	64.4975
1400	64.5403
1396	64.5264
1392	64.5046
1388	64.4899
1384	64.4378
1380	64.4088
1376	64.4549
1372	64.5272
1368	64.5741
1364	64.5774
1360	64.5242
1356	64.484
1352	64.4891
1348	64.5106
1344	64.5503
1340	64.564
1336	64.5204
1332	64.4475
1328	64.3935
1324	64.4076
1320	64.4754
1316	64.5248
1312	64.5163
1308	64.4712
1304	64.4686
1300	64.503
1296	64.4914
1292	64.4725
1288	64.4503
1284	64.3783
1280	64.335
1276	64.3479
1272	64.3556
1268	64.3538
1264	64.3584
1260	64.3804
1256	64.404
1252	64.3885
1248	64.334
1244	64.3187
1240	64.3767
1236	64.4081
1232	64.3677
1228	64.3367
1224	64.33
1220	64.328
1216	64.4224
1212	64.5135
1208	64.4651
1204	64.4417
1200	64.482
1196	64.4448
1192	64.3691
1188	64.3307
1184	64.2707
1180	64.1739
1176	64.1286
1172	64.1595
1168	64.2167
1164	64.2977
1160	64.3548
1156	64.3325
1152	64.2698
1148	64.2306
1144	64.2795
1140	64.3833
1136	64.4377
1132	64.468
1128	64.4975
1124	64.4598
1120	64.3563
1116	64.294
1112	64.2759
1108	64.2344
1104	64.2354
1100	64.3082
1096	64.4488
1092	64.5968
1088	64.5524
1084	64.4968
1080	64.5864
1076	64.5804
1072	64.4341
1068	64.2681
1064	64.1579
1060	64.1122
1056	64.1521
1052	64.2464
1048	64.2286
1044	64.1117
1040	64.108
1036	64.1621
1032	64.1691
1028	64.226
1024	64.2634
1020	64.2676
1016	64.3507
1012	64.3638
1008	64.2578
1004	64.2323
1000	64.2465
996	 64.2225
992	 64.211
988	 64.1796
984	 64.1526
980	 64.1977
976	 64.2663
972	 64.3016
968	 64.3282
964	 64.3682
960	 64.4113
956	 64.4328
952	 64.4425
948	 64.3922
944	 64.2852
940	 64.2944
936	 64.358
932	 64.3015
928	 64.2052
924	 64.1878
920	 64.2308
916	 64.2815
912	 64.3135
908	 64.3043
904	 64.3042
900	 64.344
896	 64.3438
892	 64.3213
888	 64.3771
884	 64.3784
880	 64.2319
876	 64.18
872	 64.2515
868	 64.2574
864	 64.1653
860	 64.1135
856	 64.2015
852	 64.3363
848	 64.4391
844	 64.4512
840	 64.3817
836	 64.3158
832	 64.2462
828	 64.1376
824	 64.108
820	 64.1508
816	 64.0504
812	 63.9734
808	 64.0965
804	 64.1691
800	 64.1086
796	 64.0771
792	 64.0657
788	 64.1112
784	 64.219
780	 64.2864
776	 64.3213
772	 64.2619
768	 64.0824
764	 64.0073
760	 64.0464
756	 64.0417
752	 64.0138
748	 63.9062
744	 63.8171
740	 63.852
736	 63.832
732	 63.8777
728	 64.1034
724	 64.2063
720	 64.1447
716	 64.1205
712	 64.1164
708	 64.0399
704	 63.9374
700	 63.9073
696	 63.9447
692	 63.9803
688	 63.9
684	 63.7985
680	 63.8517
676	 63.9433
672	 64.0477
668	 64.2267
664	 64.2932
660	 64.2409
656	 64.2768
652	 64.3107
648	 64.2443
644	 64.1778
640	 64.0867
636	 63.9806
632	 64.0117
628	 64.127
624	 64.0028
620	 63.8711
616	 64.0426
612	 64.0892
608	 64.1097
604	 64.5956
600	 64.9191
596	 64.6177
592	 64.3358
588	 64.2498
584	 64.2333
580	 64.3801
576	 64.449
572	 64.3278
568	 64.1793
564	 64.1326
560	 64.089
556	 63.8196
552	 63.3976
548	 63.1149
544	 63.2424
540	 63.5426
536	 63.8455
532	 64.6108
528	 65.1288
524	 64.6127
520	 64.4172
516	 65.0088
512	 64.4816
508	 62.7506
504	 62.3272
500	 63.6005
496	 63.7651
492	 62.6886
488	 62.3103
484	 62.6969
480	 63.4974
476	 64.0406
472	 63.6493
468	 62.8699
464	 62.5878
460	 63.1052
456	 63.9448
452	 63.7632
448	 63.1455
444	 63.793
440	 64.9402
436	 65.1902
432	 64.5263
428	 64.0656
424	 63.2988
420	 61.9331
416	 61.6834
412	 62.2683
408	 61.9361
404	 63.2154
400	 69.5035
396	 72.7812
392	 65.0584
388	 56.118
384	 58.3029
380	 62.9651
376	 78.6213
372	 54.6822
370	 61.6596