File: Bakgrunnsmateriale/MATLAB/FTIR/ftir_data/subAa/Mapping_121/BZ1503107-1_t60.asc
PE IR       SPECTRUM    SPECTRUM    ASCII       PEDS        1.60
  -1
BZ2941~1.ASC
17/04/07
18:08:58.00
17/04/07
18:09:24.00
tln
$BZ1503107-1_t0060$<tbV0>[2.6,0.0,8.0,0.0,27,1,0]
27.028
64

2002,4.07
MIRTGS : RIGHTBACK : INTERNAL 2
MIR : ON : INTERNAL 2
OPTKBR

0.200000
8
8.000000
FILLER
RATIO
SPECTRUM
UNLOCKED 256

DOUBLE
64
COMBINED
1
0
0

0.002000
RATIO

1
0
TRUE
51149
0
LEFT NOT FITTED RIGHT NOT FITTED 0
NONE
NONE
15600
12
4.427000
51148
TRUE
1 0 8 72 0 0 0 0

15798

#HDR
-1
-1
#GR
µM
%T
2.38419e-05
0.0
2.000000
0.002000
12515
8
81.2887
57.2527
#DATA
2.000000	 65.3455
2.018000	 65.2455
2.036000	 63.8825
2.054000	 64.9203
2.072000	 64.7612
2.090000	 64.445
2.108000	 64.7495
2.126000	 64.5324
2.144000	 64.7775
2.162000	 65.0706
2.180000	 65.4673
2.198000	 65.645
2.216000	 65.5518
2.234000	 65.5721
2.252000	 60.9209
2.270000	 65.1348
2.288000	 65.6
2.306000	 65.3473
2.324000	 65.6463
2.342000	 65.5617
2.360000	 65.1029
2.378000	 65.1979
2.396000	 64.5933
2.414000	 64.5514
2.432000	 64.6418
2.450000	 65.1799
2.468000	 64.9196
2.486000	 65.0985
2.504000	 65.0405
2.522000	 65.0852
2.540000	 65.0613
2.558000	 65.1195
2.576000	 65.0456
2.594000	 65.1947
2.612000	 65.0436
2.630000	 65.0297
2.648000	 65.2131
2.666000	 65.0291
2.684000	 65.0376
2.702000	 65.0412
2.720000	 65.1513
2.738000	 65.0425
2.756000	 65.1061
2.774000	 65.0502
2.792000	 64.9274
2.810000	 65.2132
2.828000	 65.1601
2.846000	 65.0803
2.864000	 65.1229
2.882000	 65.1876
2.900000	 65.2348
2.918000	 64.9081
2.936000	 65.0984
2.954000	 64.9915
2.972000	 65.134
2.990000	 65.0058
3.008000	 65.0375
3.026000	 64.9646
3.044000	 65.1713
3.062000	 64.8571
3.080000	 64.9025
3.098000	 65.1329
3.116000	 65.0289
3.134000	 65.0471
3.152000	 65.085
3.170000	 65.0198
3.188000	 64.9474
3.206000	 65.0906
3.224000	 65.0118
3.242000	 64.9577
3.260000	 64.9643
3.278000	 65.0046
3.296000	 64.9637
3.314000	 65.0643
3.332000	 64.9523
3.350000	 64.9104
3.368000	 64.7911
3.386000	 64.7927
3.404000	 64.7876
3.422000	 64.8531
3.440000	 64.8593
3.458000	 64.9183
3.476000	 64.8098
3.494000	 65.001
3.512000	 65.0575
3.530000	 64.9242
3.548000	 64.8906
3.566000	 64.9441
3.584000	 64.8851
3.602000	 64.9816
3.620000	 64.8685
3.638000	 64.9145
3.656000	 64.9346
3.674000	 64.8776
3.692000	 65.0784
3.710000	 64.8483
3.728000	 64.9994
3.746000	 64.9026
3.764000	 64.8765
3.782000	 64.8653
3.800000	 64.874
3.818000	 64.9237
3.836000	 64.8654
3.854000	 65.0573
3.872000	 64.9821
3.890000	 64.9124
3.908000	 64.755
3.926000	 64.8584
3.944000	 64.7939
3.962000	 64.849
3.980000	 64.9443
3.998000	 64.7822
4.016000	 64.9381
4.034000	 64.8234
4.052000	 64.7127
4.070000	 64.7337
4.088000	 64.8199
4.106000	 64.9187
4.124000	 64.7212
4.141999	 64.6749
4.160000	 64.7566
4.178000	 64.7575
4.196000	 64.7023
4.214000	 64.6627
4.232000	 64.7068
4.250000	 64.7841
4.268000	 64.655
4.286000	 64.7038
4.304000	 64.7297
4.322000	 64.6496
4.340000	 64.7773
4.358000	 64.6574
4.375999	 64.6815
4.394000	 64.7141
4.412000	 64.728
4.430000	 64.7515
4.448000	 64.6765
4.466000	 64.5474
4.484000	 64.6264
4.502000	 64.7192
4.520000	 64.7001
4.538000	 64.6677
4.556000	 64.7182
4.574000	 64.6978
4.592000	 64.7075
4.609999	 64.65
4.628000	 64.6801
4.646000	 64.652
4.664000	 64.7293
4.682000	 64.6738
4.700000	 64.6669
4.718000	 64.5964
4.736000	 64.6509
4.754000	 64.6108
4.772000	 64.6218
4.790000	 64.6021
4.808000	 64.6564
4.826000	 64.5636
4.843999	 64.4943
4.862000	 64.6655
4.880000	 64.6507
4.898000	 64.5096
4.916000	 64.5391
4.934000	 64.5941
4.952000	 64.5657
4.970000	 64.5747
4.988000	 64.4844
5.006000	 64.5307
5.024000	 64.6188
5.042000	 64.6359
5.060000	 64.5084
5.077999	 64.5061
5.096000	 64.3931
5.114000	 64.3558
5.132000	 64.4828
5.150000	 64.572
5.168000	 64.537
5.186000	 64.4967
5.204000	 64.4608
5.222000	 64.4333
5.240000	 64.4889
5.258000	 64.4825
5.276000	 64.4206
5.294000	 64.407
5.312000	 64.4161
5.330000	 64.4282
5.348000	 64.3401
5.366000	 64.373
5.384000	 64.4359
5.402000	 64.4144
5.420000	 64.4436
5.438000	 64.4105
5.456000	 64.3903
5.474000	 64.4553
5.492000	 64.4561
5.510000	 64.4641
5.528000	 64.4586
5.546000	 64.4019
5.564000	 64.3419
5.582000	 64.3973
5.600000	 64.4592
5.618000	 64.4287
5.636000	 64.4392
5.654000	 64.3727
5.672000	 64.3099
5.690000	 64.2977
5.708000	 64.2252
5.726000	 64.2195
5.744000	 64.1922
5.762000	 64.1583
5.780000	 64.1491
5.798000	 64.169
5.816000	 64.2859
5.834000	 64.3041
5.852000	 64.2651
5.870000	 64.2419
5.888000	 64.2134
5.906000	 64.2415
5.923999	 64.1993
5.942000	 64.136
5.960000	 64.2214
5.978000	 64.2344
5.996000	 64.1928
6.014000	 64.1822
6.032000	 64.2071
6.050000	 64.2265
6.068000	 64.2812
6.086000	 64.3294
6.104000	 64.2432
6.122000	 64.1534
6.140000	 64.1569
6.158000	 64.1384
6.176000	 64.0827
6.194000	 64.1413
6.212000	 64.2004
6.230000	 64.2053
6.248000	 64.1587
6.266000	 64.0976
6.284000	 64.1208
6.302000	 64.1909
6.320000	 64.1871
6.338000	 64.1021
6.356000	 64.0936
6.374000	 64.1145
6.392000	 64.0895
6.410000	 64.1312
6.428000	 64.1679
6.446000	 64.1171
6.464000	 64.118
6.482000	 64.1485
6.500000	 64.1172
6.518000	 64.0678
6.536000	 64.0768
6.554000	 64.0886
6.572000	 64.075
6.590000	 64.0837
6.608000	 64.1189
6.626000	 64.1468
6.644000	 64.1632
6.662000	 64.1705
6.680000	 64.1065
6.698000	 64.0202
6.716000	 64.0396
6.734000	 64.1243
6.752000	 64.1892
6.770000	 64.1712
6.788000	 64.0955
6.806000	 64.075
6.824000	 64.109
6.842000	 64.1233
6.860000	 64.0812
6.878000	 63.9955
6.896000	 63.946
6.914000	 63.9645
6.932000	 63.9911
6.950000	 64.0021
6.968000	 63.9984
6.986000	 63.979
7.004000	 63.9677
7.022000	 63.9989
7.040000	 64.064
7.058000	 64.0913
7.076000	 64.0707
7.094000	 64.0725
7.112000	 64.0924
7.130000	 64.0669
7.148000	 64.0093
7.166000	 63.9921
7.184000	 64.0161
7.202000	 64.0063
7.220000	 63.9544
7.238000	 63.9244
7.256000	 63.916
7.274000	 63.8828
7.292000	 63.8259
7.310000	 63.7992
7.328000	 63.8453
7.346000	 63.929
7.364000	 63.9759
7.382000	 63.9584
7.400000	 63.8929
7.418000	 63.8275
7.436000	 63.8126
7.454000	 63.8497
7.472000	 63.8947
7.490000	 63.9073
7.508000	 63.881
7.526000	 63.8361
7.544000	 63.7938
7.562000	 63.7785
7.580000	 63.8077
7.598000	 63.8521
7.616000	 63.8636
7.634000	 63.8469
7.652000	 63.8413
7.670000	 63.8627
7.688000	 63.8959
7.706000	 63.9172
7.724000	 63.9195
7.742000	 63.9159
7.760000	 63.9099
7.778000	 63.8901
7.796000	 63.8652
7.814000	 63.8595
7.832000	 63.8679
7.850000	 63.8744
7.868000	 63.8959
7.886000	 63.939
7.904000	 63.9586
7.922000	 63.9249
7.940000	 63.8723
7.958000	 63.8364
7.976000	 63.8187
7.994000	 63.8181
8.012000	 63.8332
8.030000	 63.8557
8.048000	 63.8741
8.065999	 63.8708
8.084000	 63.8316
8.102000	 63.7734
8.120000	 63.7359
8.138000	 63.7279
8.155999	 63.7141
8.173999	 63.6695
8.192000	 63.6173
8.210000	 63.5975
8.228000	 63.6255
8.246000	 63.6889
8.263999	 63.7618
8.282000	 63.814
8.300000	 63.8282
8.318000	 63.8159
8.336000	 63.8016
8.353999	 63.7963
8.372000	 63.7973
8.390000	 63.8052
8.408000	 63.8218
8.426000	 63.8347
8.443999	 63.821
8.462000	 63.773
8.480000	 63.715
8.498000	 63.6864
8.516000	 63.702
8.533999	 63.7321
8.552000	 63.7343
8.570000	 63.6976
8.588000	 63.6525
8.606000	 63.6343
8.624000	 63.6522
8.641999	 63.6951
8.660000	 63.7451
8.678000	 63.78
8.696000	 63.7747
8.714000	 63.7175
8.731999	 63.6256
8.750000	 63.5395
8.768000	 63.4985
8.786000	 63.5148
8.804000	 63.5641
8.821999	 63.6034
8.840000	 63.6076
8.858000	 63.5915
8.876000	 63.5904
8.894000	 63.6202
8.911999	 63.6598
8.930000	 63.6792
8.948000	 63.6758
8.966000	 63.6775
8.984000	 63.7082
9.001999	 63.7617
9.020000	 63.8078
9.038000	 63.824
9.056000	 63.815
9.074000	 63.8034
9.092000	 63.8042
9.109999	 63.8082
9.128000	 63.7931
9.146000	 63.7484
9.164000	 63.6888
9.182000	 63.6408
9.199999	 63.6221
9.218000	 63.6364
9.236000	 63.6784
9.254000	 63.738
9.272000	 63.7993
9.289999	 63.8433
9.308000	 63.8567
9.326000	 63.8411
9.344000	 63.8094
9.362000	 63.7776
9.379999	 63.7559
9.398000	 63.745
9.416000	 63.7352
9.434000	 63.7114
9.452000	 63.6649
9.469999	 63.6028
9.488000	 63.5461
9.506000	 63.5151
9.524000	 63.5144
9.542000	 63.5345
9.560000	 63.5627
9.577999	 63.5916
9.596000	 63.6169
9.614000	 63.6329
9.632000	 63.6331
9.650000	 63.6156
9.667999	 63.5869
9.686000	 63.562
9.704000	 63.5584
9.722000	 63.586
9.740000	 63.639
9.757999	 63.6961
9.776000	 63.731
9.794000	 63.7303
9.812000	 63.7027
9.830000	 63.6737
9.847999	 63.6652
9.866000	 63.6799
9.884000	 63.7005
9.902000	 63.7037
9.920000	 63.6788
9.937999	 63.6371
9.956000	 63.6052
9.974000	 63.6066
9.992000	 63.6485
10.01	63.7172
10.028	63.7866
10.046	63.8327
10.064	63.8442
10.082	63.8249
10.1	63.789
10.118	63.7537
10.136	63.7305
10.154	63.7225
10.172	63.7257
10.19	63.7312
10.208	63.7312
10.226	63.7209
10.244	63.6984
10.262	63.6643
10.28	63.6207
10.298	63.5728
10.316	63.5291
10.334	63.4988
10.352	63.4879
10.37	63.4948
10.388	63.5119
10.406	63.5311
10.424	63.5487
10.442	63.569
10.46	63.5988
10.478	63.6413
10.496	63.6902
10.514	63.7318
10.532	63.7515
10.55	63.7413
10.568	63.7022
10.586	63.6429
10.604	63.5732
10.622	63.5025
10.64	63.4373
10.658	63.3842
10.676	63.3507
10.694	63.3438
10.712	63.3665
10.73	63.4153
10.748	63.4791
10.766	63.5436
10.784	63.596
10.802	63.6279
10.82	63.6381
10.838	63.6302
10.856	63.6111
10.874	63.5887
10.892	63.5704
10.91	63.5624
10.928	63.5686
10.946	63.5895
10.964	63.6221
10.982	63.6622
11	63.7057
11.018	63.749
11.036	63.7875
11.054	63.8137
11.072	63.8187
11.09	63.7953
11.108	63.7434
11.126	63.6721
11.144	63.5959
11.162	63.5307
11.18	63.4857
11.198	63.4618
11.216	63.453
11.234	63.4518
11.252	63.4542
11.27	63.4609
11.288	63.4759
11.306	63.5015
11.324	63.5362
11.342	63.5746
11.36	63.6104
11.378	63.6382
11.396	63.6568
11.414	63.6679
11.432	63.674
11.45	63.6766
11.468	63.6755
11.486	63.6696
11.504	63.6594
11.522	63.6471
11.54	63.6359
11.558	63.6294
11.576	63.63
11.594	63.6377
11.612	63.651
11.63	63.6671
11.648	63.6833
11.666	63.6968
11.684	63.7061
11.702	63.7104
11.72	63.71
11.738	63.7067
11.756	63.7032
11.774	63.7021
11.792	63.7054
11.81	63.7127
11.828	63.722
11.846	63.7306
11.864	63.7357
11.882	63.7361
11.9	63.7327
11.918	63.7272
11.936	63.7219
11.954	63.7183
11.972	63.7166
11.99	63.7154
12.008	63.7123
12.026	63.7043
12.044	63.6884
12.062	63.6618
12.08	63.6234
12.098	63.5738
12.116	63.517
12.134	63.4595
12.152	63.4097
12.17	63.3746
12.188	63.358
12.206	63.3584
12.224	63.3696
12.242	63.383
12.26	63.3902
12.278	63.386
12.296	63.3699
12.314	63.3462
12.332	63.3218
12.35	63.3043
12.368	63.2995
12.386	63.3097
12.404	63.3333
12.422	63.3652
12.44	63.3994
12.458	63.43
12.476	63.453
12.494	63.4672
12.512	63.4741
12.53	63.4764
12.548	63.4779
12.566	63.4814
12.584	63.4887
12.602	63.4996
12.62	63.5133
12.638	63.5277
12.656	63.5408
12.674	63.5508
12.692	63.5568
12.71	63.5591
12.728	63.5586
12.746	63.5568
12.764	63.5551
12.782	63.5542
12.8	63.5539
12.818	63.5527
12.836	63.5489
12.854	63.5407
12.872	63.5273
12.89	63.5089
12.908	63.4869
12.926	63.4641
12.944	63.4436
12.962	63.4287
12.98	63.4221
12.998	63.4249
13.016	63.4366
13.034	63.4555
13.052	63.4787
13.07	63.5026
13.088	63.5239
13.106	63.5405
13.124	63.5511
13.142	63.5555
13.16	63.5549
13.178	63.55
13.196	63.5418
13.214	63.5301
13.232	63.5139
13.25	63.4914
13.268	63.4616
13.286	63.4243
13.304	63.3815
13.322	63.3368
13.34	63.2955
13.358	63.2627
13.376	63.2426
13.394	63.2366
13.412	63.2432
13.43	63.2581
13.448	63.2749
13.466	63.2868
13.484	63.2883
13.502	63.2761
13.52	63.2501
13.538	63.213
13.556	63.1694
13.574	63.125
13.592	63.0851
13.61	63.0536
13.628	63.0329
13.646	63.024
13.664	63.0269
13.682	63.041
13.7	63.0656
13.718	63.0999
13.736	63.1427
13.754	63.1924
13.772	63.2468
13.79	63.3027
13.808	63.3563
13.826	63.4041
13.844	63.4426
13.862	63.4693
13.88	63.4826
13.898	63.4826
13.916	63.4704
13.934	63.4479
13.952	63.4172
13.97	63.3804
13.988	63.3395
14.006	63.2957
14.024	63.2495
14.042	63.2015
14.06	63.1524
14.078	63.1031
14.096	63.0547
14.114	63.009
14.132	62.9678
14.15	62.9332
14.168	62.9069
14.186	62.8906
14.204	62.8844
14.222	62.8882
14.24	62.9007
14.258	62.92
14.276	62.9438
14.294	62.9695
14.312	62.9955
14.33	63.0207
14.348	63.0452
14.366	63.0695
14.384	63.095
14.402	63.1228
14.42	63.1541
14.438	63.1893
14.456	63.228
14.474	63.2689
14.492	63.3101
14.51	63.3498
14.528	63.3867
14.546	63.4204
14.564	63.4511
14.582	63.48
14.6	63.5089
14.618	63.5396
14.636	63.5732
14.654	63.6092
14.672	63.646
14.69	63.6807
14.708	63.7094
14.726	63.7278
14.744	63.7314
14.762	63.7179
14.78	63.6865
14.798	63.6384
14.816	63.5761
14.834	63.5038
14.852	63.4269
14.87	63.35
14.888	63.2772
14.906	63.2115
14.924	63.1549
14.942	63.108
14.96	63.0708
14.978	63.0432
14.996	63.0255
15.014	63.0182
15.032	63.0225
15.05	63.04
15.068	63.0724
15.086	63.1202
15.104	63.1836
15.122	63.26
15.14	63.3453
15.158	63.4345
15.176	63.5218
15.194	63.6006
15.212	63.6644
15.23	63.7096
15.248	63.7341
15.266	63.7374
15.284	63.7222
15.302	63.6934
15.32	63.6556
15.338	63.614
15.356	63.5733
15.374	63.5372
15.392	63.507
15.41	63.4829
15.428	63.4639
15.446	63.4471
15.464	63.4303
15.482	63.4116
15.5	63.3892
15.518	63.3633
15.536	63.3353
15.554	63.3068
15.572	63.2803
15.59	63.2586
15.608	63.2431
15.626	63.2345
15.644	63.2327
15.662	63.2355
15.68	63.24
15.698	63.2435
15.716	63.2419
15.734	63.2324
15.752	63.2136
15.77	63.1847
15.788	63.1466
15.806	63.1024
15.824	63.055
15.842	63.0087
15.86	62.9689
15.878	62.9395
15.896	62.9243
15.914	62.9277
15.932	62.9511
15.95	62.9953
15.968	63.0597
15.986	63.142
16.004	63.239
16.022	63.3471
16.04	63.46
16.058	63.5723
16.076	63.6791
16.094	63.7738
16.112	63.8512
16.13	63.9079
16.148	63.9405
16.166	63.947
16.184	63.9277
16.202	63.8826
16.22	63.8147
16.238	63.7276
16.256	63.6248
16.274	63.513
16.292	63.3969
16.31	63.2811
16.328	63.1722
16.346	63.074
16.364	62.9899
16.382	62.9232
16.4	62.8749
16.418	62.8454
16.436	62.8341
16.454	62.8391
16.472	62.8588
16.49	62.8893
16.508	62.9274
16.526	62.9702
16.544	63.0129
16.562	63.0526
16.58	63.0869
16.598	63.1123
16.616	63.128
16.634	63.1328
16.652	63.1264
16.67	63.1094
16.688	63.0827
16.706	63.048
16.724	63.0065
16.742	62.9601
16.76	62.9113
16.778	62.8611
16.796	62.8119
16.814	62.7657
16.832	62.7238
16.85	62.6884
16.868	62.6604
16.886	62.6408
16.904	62.6302
16.922	62.6286
16.94	62.636
16.958	62.6515
16.976	62.6744
16.994	62.7024
17.012	62.7341
17.03	62.7682
17.048	62.8025
17.066	62.8364
17.084	62.8691
17.102	62.9007
17.12	62.9313
17.138	62.9619
17.156	62.9934
17.174	63.0266
17.192	63.0631
17.21	63.1031
17.228	63.1478
17.246	63.1963
17.264	63.2485
17.282	63.3021
17.3	63.3561
17.318	63.4078
17.336	63.455
17.354	63.4962
17.372	63.5291
17.39	63.5534
17.408	63.5681
17.426	63.5743
17.444	63.5723
17.462	63.5645
17.48	63.5517
17.498	63.5372
17.516	63.5219
17.534	63.5076
17.552	63.4953
17.57	63.4851
17.588	63.4765
17.606	63.4684
17.624	63.4596
17.642	63.4475
17.66	63.431
17.678	63.4077
17.696	63.3773
17.714	63.3383
17.732	63.2911
17.75	63.2356
17.768	63.174
17.786	63.1068
17.804	63.038
17.822	62.9685
17.84	62.9028
17.858	62.8427
17.876	62.791
17.894	62.75
17.912	62.7212
17.93	62.7057
17.948	62.7038
17.966	62.7153
17.984	62.7395
18.002	62.7751
18.02	62.8204
18.038	62.8741
18.056	62.933
18.074	62.9964
18.092	63.0607
18.11	63.1254
18.128	63.1874
18.146	63.2463
18.164	63.2996
18.182	63.3466
18.2	63.3856
18.218	63.4158
18.236	63.4365
18.254	63.4466
18.272	63.4462
18.29	63.4345
18.308	63.4115
18.326	63.3775
18.344	63.3329
18.362	63.279
18.38	63.2167
18.398	63.1484
18.416	63.076
18.434	63.0017
18.452	62.9289
18.47	62.8596
18.488	62.7977
18.506	62.7449
18.524	62.7049
18.542	62.6785
18.56	62.6683
18.578	62.6749
18.596	62.6984
18.614	62.7387
18.632	62.7936
18.65	62.8626
18.668	62.9409
18.686	63.0279
18.704	63.1175
18.722	63.2088
18.74	63.2956
18.758	63.377
18.776	63.4477
18.794	63.5072
18.812	63.5521
18.83	63.5825
18.848	63.5971
18.866	63.597
18.884	63.5827
18.902	63.5561
18.92	63.5191
18.938	63.4739
18.956	63.4234
18.974	63.3692
18.992	63.3146
19.01	63.2605
19.028	63.2092
19.046	63.1609
19.064	63.1167
19.082	63.0759
19.1	63.0385
19.118	63.0034
19.136	62.9692
19.154	62.9352
19.172	62.8993
19.19	62.8613
19.208	62.8194
19.226	62.7738
19.244	62.7238
19.262	62.67
19.28	62.6132
19.298	62.5538
19.316	62.494
19.334	62.4338
19.352	62.3767
19.37	62.3225
19.388	62.2739
19.406	62.2308
19.424	62.1953
19.442	62.1674
19.46	62.1478
19.478	62.1365
19.496	62.1331
19.514	62.1375
19.532	62.1485
19.55	62.1654
19.568	62.1871
19.586	62.2121
19.604	62.24
19.622	62.2688
19.64	62.2984
19.658	62.3271
19.676	62.3551
19.694	62.381
19.712	62.4051
19.73	62.4267
19.748	62.446
19.766	62.4628
19.784	62.4772
19.802	62.4891
19.82	62.4988
19.838	62.5061
19.856	62.5112
19.874	62.5138
19.892	62.5137
19.91	62.5108
19.928	62.5044
19.946	62.4945
19.964	62.4801
19.982	62.4611
20	62.4371
20.018	62.4075
20.036	62.3726
20.054	62.3325
20.072	62.2875
20.09	62.2391
20.108	62.1873
20.126	62.1351
20.144	62.0821
20.162	62.032
20.18	61.9855
20.198	61.9448
20.216	61.9131
20.234	61.8901
20.252	61.8798
20.27	61.8815
20.288	61.8975
20.306	61.9283
20.324	61.9731
20.342	62.0324
20.36	62.1047
20.378	62.1876
20.396	62.2813
20.414	62.3797
20.432	62.4839
20.45	62.5876
20.468	62.6888
20.486	62.7852
20.504	62.8708
20.522	62.9466
20.54	63.0062
20.558	63.05
20.576	63.0756
20.594	63.0812
20.612	63.0681
20.63	63.0356
20.648	62.984
20.666	62.9177
20.684	62.8356
20.702	62.7427
20.72	62.6416
20.738	62.5336
20.756	62.4265
20.774	62.3185
20.792	62.2177
20.81	62.1252
20.828	62.0434
20.846	61.9777
20.864	61.9267
20.882	61.8944
20.9	61.8811
20.918	61.8861
20.936	61.9103
20.954	61.9524
20.972	62.0093
20.99	62.0824
21.008	62.1657
21.026	62.2579
21.044	62.3573
21.062	62.4567
21.08	62.5584
21.098	62.6546
21.116	62.7442
21.134	62.8253
21.152	62.8922
21.17	62.9464
21.188	62.9841
21.206	63.0042
21.224	63.0072
21.242	62.992
21.26	62.9588
21.278	62.9099
21.296	62.8446
21.314	62.7654
21.332	62.676
21.35	62.575
21.368	62.4686
21.386	62.3577
21.404	62.2439
21.422	62.1333
21.44	62.0241
21.458	61.9213
21.476	61.8272
21.494	61.7412
21.512	61.6676
21.53	61.6057
21.548	61.5562
21.566	61.5204
21.584	61.4976
21.602	61.4871
21.62	61.4895
21.638	61.5031
21.656	61.5258
21.674	61.5585
21.692	61.5981
21.71	61.6441
21.728	61.696
21.746	61.7507
21.764	61.8088
21.782	61.8693
21.8	61.9309
21.818	61.9942
21.836	62.0586
21.854	62.1235
21.872	62.1897
21.89	62.258
21.908	62.3279
21.926	62.4008
21.944	62.4778
21.962	62.5584
21.98	62.6441
21.998	62.7352
22.016	62.8313
22.034	62.9329
22.052	63.0402
22.07	63.1515
22.088	63.266
22.106	63.3841
22.124	63.5017
22.142	63.6189
22.16	63.7346
22.178	63.8432
22.196	63.9464
22.214	64.041
22.232	64.1222
22.25	64.1922
22.268	64.2472
22.286	64.2844
22.304	64.3054
22.322	64.308
22.34	64.2912
22.358	64.2561
22.376	64.2039
22.394	64.1331
22.412	64.0467
22.43	63.9483
22.448	63.8354
22.466	63.7136
22.484	63.5867
22.502	63.4523
22.52	63.3172
22.538	63.1841
22.556	63.0514
22.574	62.9256
22.592	62.8073
22.61	62.6964
22.628	62.5968
22.646	62.5084
22.664	62.4311
22.682	62.366
22.7	62.3133
22.718	62.2719
22.736	62.2406
22.754	62.2204
22.772	62.2087
22.79	62.2032
22.808	62.2053
22.826	62.2117
22.844	62.2201
22.862	62.232
22.88	62.2444
22.898	62.2559
22.916	62.2675
22.934	62.2777
22.952	62.2856
22.97	62.2919
22.988	62.297
23.006	62.3006
23.024	62.3031
23.042	62.3061
23.06	62.3096
23.078	62.3137
23.096	62.3195
23.114	62.327
23.132	62.3362
23.15	62.3475
23.168	62.3613
23.186	62.3771
23.204	62.3941
23.222	62.4129
23.24	62.4328
23.258	62.4518
23.276	62.4707
23.294	62.4886
23.312	62.5027
23.33	62.5136
23.348	62.5207
23.366	62.5214
23.384	62.5158
23.402	62.5039
23.42	62.4846
23.438	62.4573
23.456	62.4228
23.474	62.3808
23.492	62.331
23.51	62.2739
23.528	62.2109
23.546	62.1417
23.564	62.0665
23.582	61.9879
23.6	61.9065
23.618	61.8216
23.636	61.7367
23.654	61.6535
23.672	61.5704
23.69	61.4904
23.708	61.4156
23.726	61.3446
23.744	61.279
23.762	61.2203
23.78	61.1678
23.798	61.122
23.816	61.0839
23.834	61.0533
23.852	61.03
23.87	61.0136
23.888	61.0046
23.906	61.0025
23.924	61.0064
23.942	61.0166
23.96	61.0329
23.978	61.0538
23.996	61.0793
24.014	61.1098
24.032	61.1429
24.05	61.1774
24.068	61.2147
24.086	61.2522
24.104	61.2876
24.122	61.3227
24.14	61.3555
24.158	61.3828
24.176	61.4055
24.194	61.4233
24.212	61.4338
24.23	61.4367
24.248	61.4328
24.266	61.4197
24.284	61.3958
24.302	61.362
24.32	61.3186
24.338	61.2655
24.356	61.2017
24.374	61.1292
24.392	61.0507
24.41	60.964
24.428	60.8709
24.446	60.7771
24.464	60.6838
24.482	60.5882
24.5	60.4982
24.518	60.4201
24.536	60.3483
24.554	60.2885
24.572	60.2494
24.59	60.2288
24.608	60.2268
24.626	60.2495
24.644	60.3001
24.662	60.3753
24.68	60.4773
24.698	60.6085
24.716	60.769
24.734	60.9568
24.752	61.1698
24.77	61.4096
24.788	61.6756
24.806	61.9614
24.824	62.2636
24.842	62.5878
24.86	62.9253
24.878	63.2661
24.896	63.6141
24.914	63.9681
24.932	64.3179
24.95	64.6588
24.968	64.9968
24.986	65.3247
25.004	65.6346
25.022	65.9286
25.04	66.2074
25.058	66.4683
25.076	66.7091
25.094	66.9305
25.112	67.1361
25.13	67.3288
25.148	67.5045
25.166	67.6671
25.184	67.8245
25.202	67.9794
25.22	68.1262
25.238	68.2742
25.256	68.4327
25.274	68.5974
25.292	68.7693
25.31	68.956
25.328	69.1623
25.346	69.3837
25.364	69.6223
25.382	69.8807
25.4	70.1617
25.418	70.4623
25.436	70.7769
25.454	71.1027
25.472	71.4469
25.49	71.7998
25.508	72.1487
25.526	72.4942
25.544	72.842
25.562	73.1758
25.58	73.4806
25.598	73.7674
25.616	74.031
25.634	74.255
25.652	74.4294
25.67	74.5657
25.688	74.6559
25.706	74.6893
25.724	74.664
25.742	74.5849
25.76	74.4498
25.778	74.2564
25.796	74.0036
25.814	73.6944
25.832	73.332
25.85	72.9176
25.868	72.4461
25.886	71.9262
25.904	71.368
25.922	70.7713
25.94	70.1306
25.958	69.4599
25.976	68.7732
25.994	68.0618
26.012	67.3272
26.03	66.5875
26.048	65.8576
26.066	65.1223
26.084	64.3906
26.102	63.6811
26.12	63.0047
26.138	62.3452
26.156	61.7162
26.174	61.135
26.192	60.6068
26.21	60.1196
26.228	59.6857
26.246	59.3183
26.264	59.0171
26.282	58.7762
26.3	58.6034
26.318	58.5062
26.336	58.4831
26.354	58.5317
26.372	58.6533
26.39	58.8497
26.408	59.1232
26.426	59.4697
26.444	59.8839
26.462	60.362
26.48	60.9118
26.498	61.5258
26.516	62.192
26.534	62.9029
26.552	63.6717
26.57	64.4866
26.588	65.331
26.606	66.1959
26.624	67.0978
26.642	68.022
26.66	68.9493
26.678	69.8708
26.696	70.8041
26.714	71.7337
26.732	72.6406
26.75	73.5165
26.768	74.3773
26.786	75.2104
26.804	76.0011
26.822	76.743
26.84	77.4492
26.858	78.1092
26.876	78.7114
26.894	79.2503
26.912	79.7357
26.93	80.1616
26.948	80.5206
26.966	80.8034
26.984	81.008
27.002	81.1524
27.02	81.2555
27.028	81.2887