File: Bakgrunnsmateriale/MATLAB/FTIR/ftir_data/subAa/Mapping_121/BZ1503107-1_t54_cm-1.asc
PE IR       SPECTRUM    SPECTRUM    ASCII       PEDS        1.60
  -1
BZ6CA3~1.ASC
17/04/07
17:40:37.00
17/04/07
17:40:37.00
tln
$BZ1503107-1_t0054$<tbV0>[-10.4,-2.6,8.0,0.0,27,1,0]
370
64

2002,4.07
MIRTGS : RIGHTBACK : INTERNAL 2
MIR : ON : INTERNAL 2
OPTKBR

0.200000
8
8.000000
FILLER
RATIO
SPECTRUM
UNLOCKED 256

DOUBLE
64
COMBINED
1
0
0

1.000000
RATIO

1
0
TRUE
51149
0
LEFT NOT FITTED RIGHT NOT FITTED 0
NONE
NONE
15600
12
4.427000
51148
TRUE
1 0 8 72 0 0 0 0

15798

#HDR
-1
-1
#GR
CM-1
%T
2.38419e-05
0.0
5000
-1.000000
4631
8
67.1367
45.0945
#DATA
5000	64.8395
4996	64.868
4992	65.0602
4988	64.9393
4984	65.3744
4980	66.2458
4976	66.5688
4972	65.5295
4968	64.2222
4964	64.0742
4960	64.6018
4956	65.0758
4952	65.3199
4948	65.5186
4944	65.3536
4940	64.8634
4936	64.5595
4932	64.4392
4928	64.4267
4924	64.3521
4920	64.4648
4916	64.8313
4912	65.0191
4908	65.0323
4904	65.0977
4900	65.2937
4896	65.4068
4892	65.3168
4888	65.047
4884	64.7201
4880	64.6194
4876	64.7049
4872	64.6462
4868	64.4437
4864	64.4355
4860	64.6389
4856	64.765
4852	64.7203
4848	64.569
4844	64.4948
4840	64.554
4836	64.6432
4832	64.8612
4828	65.096
4824	65.1186
4820	65.1405
4816	65.1395
4812	64.7822
4808	64.4629
4804	64.6207
4800	64.8846
4796	64.9285
4792	64.8878
4788	64.9378
4784	64.9509
4780	64.8407
4776	64.6656
4772	64.5687
4768	64.7176
4764	64.8305
4760	64.8028
4756	64.8561
4752	64.852
4748	64.6962
4744	64.7123
4740	64.9598
4736	65.0708
4732	64.9683
4728	64.8342
4724	64.6985
4720	64.6424
4716	64.761
4712	64.7977
4708	64.7048
4704	64.6733
4700	64.6481
4696	64.8142
4692	65.2261
4688	65.3487
4684	65.1496
4680	65.0666
4676	65.0635
4672	65.0469
4668	64.9993
4664	64.9673
4660	65.1804
4656	65.3735
4652	65.2266
4648	64.9467
4644	64.8098
4640	64.9045
4636	64.933
4632	64.9189
4628	64.9793
4624	64.8748
4620	64.7329
4616	64.6279
4612	64.5409
4608	64.71
4604	65.0719
4600	65.1898
4596	65.0919
4592	65.0562
4588	64.9829
4584	64.7826
4580	64.6386
4576	64.5677
4572	64.5254
4568	64.6601
4564	64.8325
4560	64.8525
4556	64.7991
4552	64.835
4548	64.8193
4544	64.6657
4540	64.6466
4536	64.8106
4532	64.9587
4528	64.8915
4524	64.7321
4520	64.8277
4516	65.0751
4512	65.1083
4508	64.9864
4504	64.8675
4500	64.7515
4496	64.708
4492	64.6245
4488	64.5697
4484	64.7792
4480	64.9913
4476	64.8514
4472	64.4333
4468	64.2832
4464	64.5321
4460	65.1686
4456	66.0217
4452	65.8139
4448	64.9948
4444	66.3647
4440	67.0261
4436	65.5149
4432	61.9968
4428	56.1606
4424	56.9427
4420	61.5137
4416	61.64
4412	62.0633
4408	63.9814
4404	64.639
4400	64.6992
4396	64.9114
4392	65.0603
4388	64.9569
4384	64.7592
4380	64.6639
4376	64.9453
4372	65.1319
4368	65.0277
4364	65.0787
4360	65.4259
4356	65.6443
4352	65.3616
4348	65.0017
4344	64.8563
4340	64.7092
4336	64.6925
4332	64.8821
4328	65.0921
4324	65.0985
4320	64.9192
4316	64.7964
4312	64.7593
4308	64.8798
4304	65.1095
4300	65.1306
4296	65.0113
4292	64.993
4288	64.9703
4284	64.9407
4280	64.9596
4276	64.9267
4272	64.9248
4268	65.0368
4264	65.1119
4260	65.1336
4256	65.1094
4252	64.9142
4248	64.8178
4244	65.0099
4240	65.1623
4236	65.0889
4232	64.943
4228	64.9563
4224	65.1423
4220	65.2703
4216	65.2311
4212	65.133
4208	65.0246
4204	64.9302
4200	64.878
4196	64.8287
4192	64.8501
4188	65.0005
4184	65.1914
4180	65.1297
4176	64.9154
4172	64.9126
4168	64.9242
4164	64.8349
4160	64.8544
4156	64.9517
4152	64.9823
4148	64.9227
4144	64.7934
4140	64.7421
4136	64.8803
4132	64.9986
4128	65.0295
4124	65.1086
4120	65.0566
4116	64.878
4112	64.8579
4108	64.9011
4104	64.9716
4100	65.0788
4096	65.0252
4092	64.9172
4088	64.906
4084	64.9856
4080	65.0739
4076	64.9886
4072	64.8024
4068	64.7433
4064	64.8487
4060	65.0225
4056	65.0608
4052	64.9292
4048	64.9311
4044	65.1106
4040	65.24
4036	65.2937
4032	65.279
4028	65.1817
4024	65.0367
4020	64.9077
4016	64.8581
4012	64.8529
4008	64.8468
4004	64.806
4000	64.8209
3996	64.9866
3992	65.2032
3988	65.2979
3984	65.2205
3980	65.1237
3976	65.1351
3972	65.2031
3968	65.206
3964	65.1148
3960	64.9674
3956	64.8532
3952	64.8481
3948	64.9635
3944	65.1188
3940	65.199
3936	65.1734
3932	64.9638
3928	64.7455
3924	64.7818
3920	64.9523
3916	65.0754
3912	65.0871
3908	65.0208
3904	64.8861
3900	64.77
3896	64.8616
3892	65.1032
3888	65.1955
3884	65.0575
3880	64.9879
3876	65.0311
3872	65.0395
3868	65.0724
3864	65.1871
3860	65.2008
3856	65.0158
3852	64.8926
3848	64.9038
3844	64.8812
3840	64.8419
3836	64.9107
3832	65.0426
3828	65.1738
3824	65.207
3820	65.0847
3816	64.9349
3812	64.8064
3808	64.7986
3804	64.9045
3800	64.9751
3796	64.9311
3792	64.8223
3788	64.9038
3784	65.1357
3780	65.188
3776	65.1001
3772	65.0313
3768	64.9552
3764	65.0246
3760	65.2237
3756	65.2913
3752	65.1978
3748	65.0535
3744	64.9513
3740	64.9354
3736	65.009
3732	65.1082
3728	65.0912
3724	65.0218
3720	65.1059
3716	65.2624
3712	65.2948
3708	65.2272
3704	65.1839
3700	65.1882
3696	65.1905
3692	65.1314
3688	65.071
3684	65.0741
3680	65.0624
3676	65.0285
3672	64.9749
3668	64.9236
3664	64.9581
3660	65.0409
3656	65.1043
3652	65.1117
3648	65.099
3644	65.1453
3640	65.2404
3636	65.272
3632	65.1489
3628	65.0262
3624	64.9616
3620	64.9175
3616	64.9757
3612	65.0027
3608	64.9557
3604	64.9818
3600	65.0571
3596	65.0854
3592	65.0079
3588	64.9725
3584	65.0651
3580	65.0763
3576	65.0058
3572	65.0212
3568	65.0958
3564	65.1212
3560	65.0673
3556	65.0283
3552	65.0542
3548	65.0517
3544	65.0709
3540	65.1588
3536	65.1393
3532	64.9869
3528	64.8779
3524	64.9201
3520	65.0593
3516	65.1226
3512	65.1083
3508	65.0851
3504	65.0106
3500	64.9522
3496	64.9306
3492	64.9609
3488	65.0373
3484	65.0415
3480	65.0503
3476	65.0754
3472	65.0424
3468	65.0596
3464	65.1359
3460	65.1721
3456	65.158
3452	65.1102
3448	64.9904
3444	64.833
3440	64.8015
3436	64.8491
3432	64.7964
3428	64.7868
3424	64.9341
3420	65.0535
3416	65.0485
3412	65.0072
3408	65.0331
3404	65.0424
3400	64.9442
3396	64.8231
3392	64.7855
3388	64.8726
3384	64.9774
3380	65.0368
3376	65.1208
3372	65.2272
3368	65.2451
3364	65.1773
3360	65.114
3356	65.0187
3352	64.9872
3348	65.0654
3344	65.0881
3340	65.1031
3336	65.1371
3332	65.1346
3328	65.1573
3324	65.1616
3320	65.0839
3316	65.003
3312	65.0647
3308	65.2205
3304	65.2131
3300	65.0134
3296	64.8454
3292	64.8647
3288	65.0009
3284	65.0837
3280	65.0855
3276	65.0837
3272	65.0919
3268	65.0515
3264	64.9939
3260	65.0128
3256	65.0645
3252	64.9943
3248	64.8798
3244	64.9725
3240	65.1128
3236	65.0551
3232	64.9791
3228	65.0459
3224	65.0764
3220	64.993
3216	64.9543
3212	64.9759
3208	65.0487
3204	65.1396
3200	65.1102
3196	65.0422
3192	65.0419
3188	65.0295
3184	64.9853
3180	64.9594
3176	64.983
3172	65.0631
3168	65.077
3164	64.958
3160	64.8708
3156	64.9323
3152	65.0293
3148	65.0544
3144	65.0822
3140	65.1429
3136	65.1224
3132	65.016
3128	64.974
3124	64.972
3120	64.9028
3116	64.8532
3112	64.8631
3108	64.897
3104	65.0009
3100	65.1285
3096	65.1073
3092	64.9353
3088	64.8684
3084	64.9695
3080	65.0396
3076	65.0679
3072	65.1115
3068	65.0871
3064	65.0424
3060	65.0442
3056	65.0115
3052	64.9854
3048	64.9932
3044	64.9669
3040	64.9298
3036	64.9204
3032	64.9554
3028	64.9893
3024	64.9785
3020	64.9513
3016	64.9296
3012	64.9765
3008	65.1078
3004	65.1751
3000	65.1145
2996	65.0634
2992	65.0557
2988	65.0275
2984	64.9995
2980	64.9563
2976	64.8473
2972	64.7537
2968	64.7424
2964	64.7418
2960	64.7628
2956	64.8656
2952	64.9784
2948	64.9719
2944	64.8574
2940	64.788
2936	64.8098
2932	64.8684
2928	64.9111
2924	64.8745
2920	64.7989
2916	64.7566
2912	64.7759
2908	64.8263
2904	64.804
2900	64.7201
2896	64.7245
2892	64.8521
2888	64.9743
2884	65.022
2880	64.9967
2876	64.935
2872	64.9418
2868	64.9786
2864	64.9814
2860	64.9984
2856	65.0219
2852	65.0163
2848	64.94
2844	64.8955
2840	64.9363
2836	64.9197
2832	64.8865
2828	64.9348
2824	64.998
2820	64.9964
2816	64.941
2812	64.9224
2808	65.0187
2804	65.1132
2800	65.0376
2796	64.9166
2792	64.9317
2788	64.9868
2784	64.9779
2780	64.9808
2776	65.0072
2772	64.9782
2768	64.9312
2764	64.9427
2760	64.9803
2756	65.0162
2752	65.0708
2748	65.1092
2744	65.09
2740	65.0456
2736	65.0252
2732	65.0315
2728	65.0059
2724	64.945
2720	64.9345
2716	64.9648
2712	64.9922
2708	65.0355
2704	65.0182
2700	64.9231
2696	64.8919
2692	64.9522
2688	65.0019
2684	64.998
2680	64.9801
2676	64.9585
2672	64.9385
2668	64.9476
2664	64.96
2660	64.9268
2656	64.8901
2652	64.9098
2648	64.9532
2644	64.9648
2640	64.9465
2636	64.9621
2632	64.98
2628	64.9695
2624	64.9308
2620	64.861
2616	64.8548
2612	64.9165
2608	64.9733
2604	64.9672
2600	64.9099
2596	64.9077
2592	64.9704
2588	64.9775
2584	64.8977
2580	64.8711
2576	64.9221
2572	64.9035
2568	64.8226
2564	64.8115
2560	64.838
2556	64.8308
2552	64.8419
2548	64.8792
2544	64.8872
2540	64.8584
2536	64.8087
2532	64.7763
2528	64.7796
2524	64.7989
2520	64.851
2516	64.9229
2512	64.9384
2508	64.9117
2504	64.8923
2500	64.8826
2496	64.9351
2492	64.989
2488	64.9597
2484	64.9763
2480	65.0377
2476	64.9606
2472	64.8145
2468	64.7441
2464	64.7424
2460	64.8179
2456	64.8909
2452	64.89
2448	64.9093
2444	64.9193
2440	64.8761
2436	64.9154
2432	64.9996
2428	64.9817
2424	64.9145
2420	64.8849
2416	64.8403
2412	64.7908
2408	64.8512
2404	64.9428
2400	64.9528
2396	64.9193
2392	64.8782
2388	64.8455
2384	64.8137
2380	64.8015
2376	64.8318
2372	64.8627
2368	64.8368
2364	64.801
2360	64.8133
2356	64.8105
2352	64.7998
2348	64.8109
2344	64.7924
2340	64.7382
2336	64.6879
2332	64.682
2328	64.72
2324	64.76
2320	64.7902
2316	64.7923
2312	64.7444
2308	64.732
2304	64.7933
2300	64.8406
2296	64.8269
2292	64.8093
2288	64.8514
2284	64.8844
2280	64.8253
2276	64.7822
2272	64.8156
2268	64.7985
2264	64.7539
2260	64.7891
2256	64.8223
2252	64.7858
2248	64.7538
2244	64.7277
2240	64.7217
2236	64.7674
2232	64.8029
2228	64.846
2224	64.8907
2220	64.8321
2216	64.7356
2212	64.7548
2208	64.8305
2204	64.8344
2200	64.7968
2196	64.7732
2192	64.7353
2188	64.6528
2184	64.596
2180	64.6879
2176	64.7842
2172	64.7245
2168	64.6818
2164	64.7157
2160	64.748
2156	64.7851
2152	64.7876
2148	64.7492
2144	64.7327
2140	64.7606
2136	64.7576
2132	64.7278
2128	64.7667
2124	64.806
2120	64.7884
2116	64.7845
2112	64.7822
2108	64.7314
2104	64.7063
2100	64.7695
2096	64.8303
2092	64.7904
2088	64.7103
2084	64.7126
2080	64.7413
2076	64.6932
2072	64.6399
2068	64.6389
2064	64.6922
2060	64.7318
2056	64.6972
2052	64.6653
2048	64.6258
2044	64.5889
2040	64.6158
2036	64.6316
2032	64.6295
2028	64.6443
2024	64.6476
2020	64.6695
2016	64.6887
2012	64.6903
2008	64.72
2004	64.7377
2000	64.7058
1996	64.6409
1992	64.5945
1988	64.6017
1984	64.6452
1980	64.6649
1976	64.616
1972	64.5814
1968	64.574
1964	64.5277
1960	64.4887
1956	64.4967
1952	64.5239
1948	64.5438
1944	64.5775
1940	64.6214
1936	64.6515
1932	64.6661
1928	64.6567
1924	64.6483
1920	64.6481
1916	64.6501
1912	64.6451
1908	64.6257
1904	64.6096
1900	64.5743
1896	64.5614
1892	64.592
1888	64.5689
1884	64.5193
1880	64.5194
1876	64.5457
1872	64.5707
1868	64.5659
1864	64.551
1860	64.5752
1856	64.5918
1852	64.5971
1848	64.6272
1844	64.6311
1840	64.6014
1836	64.5521
1832	64.489
1828	64.4861
1824	64.5198
1820	64.502
1816	64.4956
1812	64.5121
1808	64.492
1804	64.4711
1800	64.4638
1796	64.459
1792	64.4619
1788	64.4519
1784	64.4374
1780	64.4692
1776	64.5215
1772	64.5341
1768	64.5042
1764	64.4603
1760	64.4289
1756	64.3975
1752	64.3547
1748	64.2806
1744	64.1739
1740	64.1097
1736	64.0902
1732	64.09
1728	64.1096
1724	64.1067
1720	64.1171
1716	64.1888
1712	64.2777
1708	64.349
1704	64.3907
1700	64.4211
1696	64.4428
1692	64.4233
1688	64.3963
1684	64.368
1680	64.3004
1676	64.2431
1672	64.2754
1668	64.3706
1664	64.4185
1660	64.3977
1656	64.3667
1652	64.3392
1648	64.3431
1644	64.3602
1640	64.3248
1636	64.2742
1632	64.2497
1628	64.2672
1624	64.2661
1620	64.1896
1616	64.1801
1612	64.2711
1608	64.3039
1604	64.3125
1600	64.3506
1596	64.3338
1592	64.3008
1588	64.2911
1584	64.2531
1580	64.1786
1576	64.1257
1572	64.1428
1568	64.1936
1564	64.2237
1560	64.2304
1556	64.1992
1552	64.1485
1548	64.1736
1544	64.2628
1540	64.3106
1536	64.2736
1532	64.2311
1528	64.2319
1524	64.2133
1520	64.208
1516	64.248
1512	64.2669
1508	64.2514
1504	64.2272
1500	64.1964
1496	64.2058
1492	64.26
1488	64.235
1484	64.1899
1480	64.1827
1476	64.1587
1472	64.1367
1468	64.1375
1464	64.1368
1460	64.1348
1456	64.1357
1452	64.1285
1448	64.0636
1444	63.9572
1440	63.9264
1436	63.9871
1432	64.0692
1428	64.1616
1424	64.2538
1420	64.2851
1416	64.2344
1412	64.158
1408	64.1087
1404	64.1258
1400	64.1732
1396	64.1587
1392	64.096
1388	64.0419
1384	64.0155
1380	63.9992
1376	64.0089
1372	64.0604
1368	64.0948
1364	64.131
1360	64.1913
1356	64.186
1352	64.1027
1348	64.0105
1344	63.9651
1340	63.9716
1336	64.0014
1332	64.0371
1328	64.0561
1324	64.075
1320	64.1036
1316	64.1051
1312	64.1125
1308	64.1419
1304	64.1411
1300	64.1243
1296	64.1335
1292	64.1487
1288	64.1299
1284	64.0772
1280	64.0256
1276	64.0044
1272	63.988
1268	63.9988
1264	64.0388
1260	64.0239
1256	63.9649
1252	63.9417
1248	63.9823
1244	64.04
1240	64.0357
1236	63.9601
1232	63.8867
1228	63.8419
1224	63.8304
1220	63.8762
1216	63.9252
1212	63.9606
1208	63.9953
1204	63.9227
1200	63.799
1196	63.8026
1192	63.8906
1188	63.9767
1184	64.0119
1180	63.9703
1176	63.977
1172	64.0355
1168	63.9493
1164	63.7691
1160	63.7067
1156	63.7256
1152	63.7163
1148	63.7037
1144	63.7485
1140	63.8943
1136	63.9879
1132	63.9398
1128	63.8762
1124	63.8863
1120	63.8717
1116	63.817
1112	63.8276
1108	63.7972
1104	63.7261
1100	63.7907
1096	63.8858
1092	63.8312
1088	63.7144
1084	63.6938
1080	63.7686
1076	63.8495
1072	63.8394
1068	63.7678
1064	63.7603
1060	63.7901
1056	63.7888
1052	63.7622
1048	63.7044
1044	63.6326
1040	63.6613
1036	63.7615
1032	63.7828
1028	63.7671
1024	63.7574
1020	63.7151
1016	63.6943
1012	63.773
1008	63.9087
1004	63.9232
1000	63.8524
996	 63.8879
992	 63.9242
988	 63.874
984	 63.8999
980	 63.9716
976	 63.9541
972	 63.9164
968	 63.8448
964	 63.727
960	 63.6354
956	 63.5824
952	 63.5704
948	 63.5381
944	 63.5278
940	 63.5952
936	 63.6738
932	 63.7555
928	 63.8254
924	 63.8424
920	 63.8709
916	 63.8586
912	 63.7322
908	 63.6594
904	 63.69
900	 63.7311
896	 63.7575
892	 63.76
888	 63.7886
884	 63.865
880	 63.9539
876	 64.0142
872	 63.9492
868	 63.783
864	 63.6688
860	 63.7132
856	 63.8381
852	 63.8271
848	 63.7437
844	 63.786
840	 63.8305
836	 63.798
832	 63.751
828	 63.6886
824	 63.6979
820	 63.7516
816	 63.6965
812	 63.6137
808	 63.6211
804	 63.645
800	 63.5952
796	 63.5806
792	 63.6793
788	 63.7935
784	 63.9086
780	 63.8907
776	 63.7202
772	 63.6617
768	 63.6947
764	 63.6482
760	 63.5036
756	 63.2973
752	 63.1989
748	 63.3398
744	 63.5658
740	 63.707
736	 63.6549
732	 63.5145
728	 63.6063
724	 63.852
720	 63.895
716	 63.7902
712	 63.7516
708	 63.6097
704	 63.3918
700	 63.4061
696	 63.4461
692	 63.4289
688	 63.5673
684	 63.5721
680	 63.4776
676	 63.4661
672	 63.2649
668	 63.0316
664	 63.1423
660	 63.597
656	 63.8829
652	 63.8328
648	 63.7751
644	 63.3926
640	 62.9145
636	 62.8224
632	 62.7054
628	 62.5749
624	 62.8668
620	 63.3496
616	 63.2739
612	 62.7427
608	 62.9414
604	 63.7339
600	 63.863
596	 63.7945
592	 63.8262
588	 63.244
584	 62.9977
580	 63.5396
576	 63.921
572	 63.8622
568	 63.5204
564	 63.1043
560	 62.786
556	 62.8858
552	 63.1974
548	 63.4303
544	 63.4869
540	 62.863
536	 62.5014
532	 62.9454
528	 63.5184
524	 64.0983
520	 64.2725
516	 63.8727
512	 63.4956
508	 63.4993
504	 63.498
500	 63.294
496	 63.2868
492	 63.2988
488	 63.2583
484	 63.2932
480	 63.0516
476	 62.3553
472	 62.0441
468	 62.6608
464	 63.303
460	 63.3589
456	 62.9912
452	 61.9989
448	 61.0939
444	 61.2054
440	 61.8217
436	 62.2367
432	 62.1425
428	 62.4769
424	 63.2115
420	 62.8986
416	 61.4673
412	 60.7224
408	 59.6001
404	 54.2989
400	 51.8029
396	 58.4107
392	 62.1227
388	 57.5909
384	 54.9963
380	 57.2115
376	 57.5622
372	 50.2761
370	 45.0945