File: Bakgrunnsmateriale/MATLAB/FTIR/ftir_data/subAa/Mapping_121/BZ1503107-1_t29_cm-1.asc
PE IR       SPECTRUM    SPECTRUM    ASCII       PEDS        1.60
  -1
BZ6133~1.ASC
17/04/07
15:37:34.00
17/04/07
15:37:34.00
tln
$BZ1503107-1_t0029$<tbV0>[-2.6,-7.8,8.0,0.0,27,1,0]
370
64

2002,4.07
MIRTGS : RIGHTBACK : INTERNAL 2
MIR : ON : INTERNAL 2
OPTKBR

0.200000
8
8.000000
FILLER
RATIO
SPECTRUM
UNLOCKED 256

DOUBLE
64
COMBINED
1
0
0

1.000000
RATIO

1
0
TRUE
51149
0
LEFT NOT FITTED RIGHT NOT FITTED 0
NONE
NONE
15600
12
4.427000
51148
TRUE
1 0 8 72 0 0 0 0

15798

#HDR
-1
-1
#GR
CM-1
%T
2.38419e-05
0.0
5000
-1.000000
4631
8
77.1468
49.0199
#DATA
5000	65.9522
4996	65.539
4992	64.9996
4988	64.6027
4984	64.5982
4980	64.7421
4976	64.7011
4972	64.6038
4968	64.5597
4964	64.4905
4960	64.3036
4956	64.2442
4952	64.7003
4948	65.2342
4944	65.2041
4940	65.0245
4936	64.9945
4932	64.9974
4928	65.1517
4924	65.3224
4920	65.3204
4916	64.9917
4912	64.6484
4908	64.6226
4904	64.546
4900	64.4972
4896	64.6926
4892	64.8222
4888	64.8585
4884	64.9739
4880	64.9901
4876	64.8486
4872	64.7633
4868	64.8367
4864	64.9654
4860	65.0133
4856	65.0065
4852	64.8187
4848	64.6106
4844	64.78
4840	65.0154
4836	65.029
4832	65.0667
4828	65.1903
4824	65.1747
4820	64.943
4816	64.6955
4812	64.4882
4808	64.385
4804	64.5344
4800	64.5924
4796	64.4885
4792	64.714
4788	65.0631
4784	65.0549
4780	64.9918
4776	65.13
4772	65.056
4768	64.7291
4764	64.709
4760	65.0716
4756	65.3211
4752	65.1176
4748	64.7636
4744	64.673
4740	64.7542
4736	64.8633
4732	64.9133
4728	64.7876
4724	64.6837
4720	64.7811
4716	64.9315
4712	65.1335
4708	65.3295
4704	65.22
4700	64.8936
4696	64.7565
4692	64.8223
4688	64.9148
4684	64.9779
4680	64.8533
4676	64.7567
4672	64.85
4668	64.8411
4664	64.6771
4660	64.5088
4656	64.5072
4652	64.6759
4648	64.9331
4644	65.0346
4640	64.7423
4636	64.5308
4632	64.6389
4628	64.721
4624	64.759
4620	64.899
4616	65.0701
4612	65.0642
4608	65.0116
4604	64.993
4600	64.9256
4596	65.0353
4592	65.0382
4588	64.6821
4584	64.5732
4580	64.9491
4576	65.2226
4572	65.0871
4568	64.9363
4564	64.9649
4560	65.0161
4556	65.055
4552	65.0864
4548	65.1204
4544	65.1581
4540	65.1311
4536	65.0971
4532	65.1393
4528	65.071
4524	64.8642
4520	64.8482
4516	65.1049
4512	65.4257
4508	65.5827
4504	65.334
4500	64.8902
4496	64.7063
4492	64.9476
4488	65.3738
4484	65.534
4480	65.3339
4476	64.8514
4472	64.4013
4468	64.3587
4464	64.5805
4460	64.9765
4456	65.3211
4452	65.2852
4448	65.2405
4444	65.3308
4440	66.2816
4436	67.4287
4432	68.7717
4428	69.4395
4424	58.9927
4420	49.0199
4416	56.7822
4412	67.0639
4408	68.9883
4404	67.6077
4400	66.8882
4396	66.215
4392	65.3894
4388	65.1957
4384	65.5496
4380	65.6209
4376	65.2938
4372	65.1103
4368	65.0396
4364	64.9117
4360	64.9508
4356	64.9736
4352	64.8188
4348	64.6432
4344	64.6076
4340	64.7632
4336	64.9235
4332	64.8245
4328	64.6255
4324	64.6592
4320	64.8283
4316	65.0105
4312	65.0846
4308	65.0786
4304	65.1495
4300	65.1932
4296	65.151
4292	65.0602
4288	65.0036
4284	65.0031
4280	64.9261
4276	64.8559
4272	64.9583
4268	65.0347
4264	64.9813
4260	64.9033
4256	64.8133
4252	64.7719
4248	64.7856
4244	64.8512
4240	64.976
4236	65.0656
4232	65.0749
4228	65.06
4224	65.0557
4220	65.0603
4216	65.0757
4212	65.1049
4208	65.1147
4204	65.0908
4200	65.0938
4196	65.0978
4192	65.0513
4188	65.0001
4184	64.9389
4180	64.8334
4176	64.8115
4172	65.0061
4168	65.2314
4164	65.1464
4160	64.935
4156	64.9485
4152	64.972
4148	65.0103
4144	65.1644
4140	65.2213
4136	65.2074
4132	65.1576
4128	65.0693
4124	64.9912
4120	64.9741
4116	65.0275
4112	64.9819
4108	64.8742
4104	64.9093
4100	65.0142
4096	65.0646
4092	65.0342
4088	64.8638
4084	64.6552
4080	64.6173
4076	64.763
4072	64.8991
4068	64.943
4064	64.9906
4060	65.0499
4056	65.0851
4052	65.0745
4048	65.0096
4044	64.9775
4040	64.9899
4036	64.9717
4032	64.9668
4028	65.0034
4024	65.0319
4020	64.9782
4016	64.8205
4012	64.7769
4008	64.9691
4004	65.1394
4000	65.1025
3996	65.0505
3992	65.1099
3988	65.1589
3984	65.1613
3980	65.1107
3976	65.0303
3972	64.9961
3968	64.9932
3964	64.9648
3960	64.9193
3956	64.9295
3952	65.0126
3948	65.0877
3944	65.0614
3940	64.9584
3936	64.8939
3932	64.9874
3928	65.211
3924	65.3496
3920	65.278
3916	65.2403
3912	65.4192
3908	65.5029
3904	65.4274
3900	65.3246
3896	65.1271
3892	64.997
3888	65.0283
3884	65.1062
3880	65.1416
3876	65.1386
3872	65.1779
3868	65.1919
3864	65.1525
3860	65.1742
3856	65.2291
3852	65.2597
3848	65.279
3844	65.3071
3840	65.2881
3836	65.147
3832	65.0885
3828	65.168
3824	65.1259
3820	65.058
3816	65.0827
3812	65.0202
3808	65.0031
3804	65.23
3800	65.4724
3796	65.4301
3792	65.1574
3788	64.9351
3784	64.9367
3780	65.1168
3776	65.2489
3772	65.2826
3768	65.3453
3764	65.359
3760	65.2303
3756	65.103
3752	65.068
3748	65.0542
3744	65.0766
3740	65.1298
3736	65.145
3732	65.1516
3728	65.1959
3724	65.2624
3720	65.3416
3716	65.4194
3712	65.4526
3708	65.434
3704	65.3027
3700	65.1419
3696	65.1133
3692	65.1092
3688	65.0667
3684	65.0691
3680	65.0901
3676	65.1212
3672	65.1876
3668	65.2724
3664	65.3049
3660	65.2691
3656	65.3052
3652	65.3669
3648	65.3461
3644	65.299
3640	65.2076
3636	65.0919
3632	65.0895
3628	65.177
3624	65.2144
3620	65.2057
3616	65.2189
3612	65.266
3608	65.3294
3604	65.3276
3600	65.2316
3596	65.1614
3592	65.1961
3588	65.2381
3584	65.1338
3580	64.9703
3576	64.9342
3572	64.9974
3568	65.0931
3564	65.1353
3560	65.1106
3556	65.1569
3552	65.2098
3548	65.147
3544	65.0527
3540	65.0196
3536	65.0196
3532	64.973
3528	64.919
3524	64.9738
3520	65.1035
3516	65.1954
3512	65.1981
3508	65.1655
3504	65.1488
3500	65.1218
3496	65.1283
3492	65.1157
3488	65.0282
3484	65.0097
3480	65.0821
3476	65.1458
3472	65.174
3468	65.1643
3464	65.0905
3460	65.0411
3456	65.0813
3452	65.0868
3448	65.013
3444	64.9174
3440	64.9102
3436	65.0278
3432	65.1181
3428	65.1009
3424	65.1119
3420	65.1347
3416	65.042
3412	64.9709
3408	65.0115
3404	65.1256
3400	65.2367
3396	65.3043
3392	65.365
3388	65.3861
3384	65.3414
3380	65.2214
3376	65.0957
3372	65.021
3368	64.9604
3364	64.9262
3360	65.0466
3356	65.3109
3352	65.3876
3348	65.1977
3344	65.0443
3340	65.067
3336	65.0849
3332	65.0134
3328	65.0268
3324	65.1556
3320	65.1513
3316	64.9454
3312	64.8646
3308	64.9743
3304	64.9718
3300	64.9169
3296	64.9816
3292	65.0076
3288	64.9648
3284	65.0087
3280	65.1446
3276	65.2468
3272	65.1749
3268	65.0377
3264	65.0039
3260	64.9841
3256	64.9546
3252	65.0072
3248	65.0525
3244	65.0172
3240	65.0244
3236	65.0454
3232	64.9897
3228	64.9821
3224	65.0796
3220	65.1643
3216	65.1738
3212	65.1335
3208	65.0789
3204	65.0972
3200	65.1604
3196	65.077
3192	64.9399
3188	64.9977
3184	65.0918
3180	65.0813
3176	65.1107
3172	65.1348
3168	65.0797
3164	65.0131
3160	64.9989
3156	65.0746
3152	65.1654
3148	65.1465
3144	65.0792
3140	65.0944
3136	65.0572
3132	64.9747
3128	65.0361
3124	65.125
3120	65.1432
3116	65.1119
3112	65.0429
3108	64.9574
3104	64.9318
3100	65.013
3096	65.056
3092	64.9825
3088	64.9116
3084	64.9731
3080	65.1256
3076	65.2226
3072	65.1856
3068	65.1057
3064	65.1541
3060	65.2698
3056	65.2529
3052	65.1204
3048	65.0534
3044	65.0881
3040	65.1214
3036	65.0967
3032	65.1016
3028	65.204
3024	65.2133
3020	65.0806
3016	65.0133
3012	64.9911
3008	64.9527
3004	64.9534
3000	64.9619
2996	64.9635
2992	65.0033
2988	65.0335
2984	64.9966
2980	64.9501
2976	64.8963
2972	64.7826
2968	64.7155
2964	64.7881
2960	64.8926
2956	64.9468
2952	64.953
2948	64.9668
2944	64.9803
2940	64.9261
2936	64.8719
2932	64.9442
2928	65.074
2924	65.0778
2920	65.0026
2916	64.98
2912	64.988
2908	64.9613
2904	64.9292
2900	64.9127
2896	64.8943
2892	64.8916
2888	64.9271
2884	64.9554
2880	64.9091
2876	64.8819
2872	64.96
2868	65.0598
2864	65.0938
2860	65.0576
2856	65.0132
2852	64.9847
2848	64.9503
2844	64.9358
2840	64.9531
2836	64.9915
2832	65.0443
2828	65.059
2824	65.0072
2820	64.9344
2816	64.9161
2812	64.9768
2808	65.0581
2804	65.0998
2800	65.1052
2796	65.1239
2792	65.1595
2788	65.1578
2784	65.1024
2780	65.0621
2776	65.0947
2772	65.1332
2768	65.1188
2764	65.1154
2760	65.1044
2756	65.0944
2752	65.1211
2748	65.1176
2744	65.1138
2740	65.103
2736	65.0187
2732	64.955
2728	64.9927
2724	65.0408
2720	65.0297
2716	65.002
2712	64.9823
2708	64.9976
2704	65.0547
2700	65.0872
2696	65.1104
2692	65.1366
2688	65.122
2684	65.0471
2680	64.9353
2676	64.91
2672	64.9677
2668	64.9817
2664	65.0022
2660	65.1097
2656	65.133
2652	65.0013
2648	64.9094
2644	64.9069
2640	64.9326
2636	64.9477
2632	64.956
2628	65.0115
2624	65.0458
2620	64.9876
2616	64.9262
2612	64.928
2608	64.9441
2604	64.933
2600	64.9629
2596	65.002
2592	64.9546
2588	64.9
2584	64.9217
2580	64.9639
2576	64.9519
2572	64.942
2568	64.9636
2564	64.986
2560	64.9598
2556	64.8861
2552	64.8786
2548	64.9151
2544	64.9493
2540	64.9714
2536	64.9703
2532	64.9891
2528	65.0162
2524	65.0454
2520	65.0752
2516	65.0646
2512	65.0505
2508	65.036
2504	64.9885
2500	64.9939
2496	64.9992
2492	64.901
2488	64.8582
2484	64.9371
2480	64.9996
2476	65.0021
2472	64.9543
2468	64.8908
2464	64.8852
2460	64.8909
2456	64.8462
2452	64.8258
2448	64.8606
2444	64.9103
2440	64.9743
2436	65.0125
2432	64.968
2428	64.905
2424	64.9028
2420	64.9245
2416	64.9485
2412	64.9844
2408	64.9883
2404	64.9316
2400	64.8952
2396	64.9534
2392	65.0449
2388	65.0717
2384	65.0388
2380	64.9718
2376	64.861
2372	64.7877
2368	64.7741
2364	64.7463
2360	64.7625
2356	64.8576
2352	64.9391
2348	64.9938
2344	65.0301
2340	64.985
2336	64.9049
2332	64.9247
2328	64.993
2324	65.0229
2320	65.0382
2316	65.0219
2312	64.9788
2308	64.954
2304	64.9544
2300	64.9336
2296	64.8798
2292	64.8602
2288	64.8993
2284	64.9102
2280	64.8582
2276	64.8365
2272	64.8461
2268	64.8286
2264	64.8217
2260	64.8642
2256	64.8923
2252	64.8684
2248	64.8614
2244	64.8651
2240	64.8326
2236	64.8379
2232	64.8936
2228	64.9115
2224	64.8755
2220	64.842
2216	64.8386
2212	64.8087
2208	64.7762
2204	64.8168
2200	64.8872
2196	64.9402
2192	64.9627
2188	64.906
2184	64.7879
2180	64.7413
2176	64.8104
2172	64.8277
2168	64.7509
2164	64.7385
2160	64.8004
2156	64.8436
2152	64.8502
2148	64.8446
2144	64.815
2140	64.7692
2136	64.7839
2132	64.8256
2128	64.7924
2124	64.735
2120	64.7405
2116	64.7916
2112	64.8014
2108	64.7526
2104	64.7203
2100	64.739
2096	64.7608
2092	64.7674
2088	64.7985
2084	64.8114
2080	64.7845
2076	64.8013
2072	64.8573
2068	64.8718
2064	64.82
2060	64.7521
2056	64.7602
2052	64.8197
2048	64.8681
2044	64.8504
2040	64.7533
2036	64.6982
2032	64.7276
2028	64.7718
2024	64.7697
2020	64.7426
2016	64.7324
2012	64.7294
2008	64.7625
2004	64.8065
2000	64.7436
1996	64.6118
1992	64.5818
1988	64.6699
1984	64.7557
1980	64.7765
1976	64.7681
1972	64.799
1968	64.8402
1964	64.8098
1960	64.753
1956	64.7798
1952	64.8499
1948	64.8348
1944	64.749
1940	64.7086
1936	64.7622
1932	64.794
1928	64.7422
1924	64.6813
1920	64.6178
1916	64.6019
1912	64.6693
1908	64.7135
1904	64.7182
1900	64.7339
1896	64.7316
1892	64.7256
1888	64.7327
1884	64.7405
1880	64.719
1876	64.6637
1872	64.6639
1868	64.685
1864	64.6113
1860	64.5553
1856	64.6257
1852	64.7008
1848	64.725
1844	64.756
1840	64.7522
1836	64.6697
1832	64.607
1828	64.6322
1824	64.6496
1820	64.6254
1816	64.6336
1812	64.6675
1808	64.7104
1804	64.7671
1800	64.7904
1796	64.7424
1792	64.656
1788	64.5963
1784	64.5592
1780	64.5706
1776	64.6366
1772	64.631
1768	64.5658
1764	64.5092
1760	64.437
1756	64.424
1752	64.4533
1748	64.3548
1744	64.1782
1740	64.0269
1736	63.9006
1732	63.9138
1728	64.0818
1724	64.2106
1720	64.2545
1716	64.3218
1712	64.3943
1708	64.4492
1704	64.5263
1700	64.6074
1696	64.6293
1692	64.6043
1688	64.5754
1684	64.481
1680	64.4094
1676	64.4852
1672	64.6019
1668	64.6271
1664	64.5756
1660	64.5236
1656	64.4817
1652	64.4229
1648	64.3404
1644	64.3224
1640	64.415
1636	64.4716
1632	64.4217
1628	64.3739
1624	64.3555
1620	64.3136
1616	64.2983
1612	64.342
1608	64.4052
1604	64.4496
1600	64.396
1596	64.3196
1592	64.3694
1588	64.4411
1584	64.4072
1580	64.339
1576	64.3077
1572	64.3472
1568	64.4394
1564	64.5257
1560	64.5276
1556	64.4052
1552	64.2514
1548	64.204
1544	64.269
1540	64.315
1536	64.3058
1532	64.3123
1528	64.3336
1524	64.3305
1520	64.3679
1516	64.4546
1512	64.5141
1508	64.5084
1504	64.4195
1500	64.339
1496	64.3379
1492	64.3748
1488	64.3887
1484	64.3499
1480	64.3195
1476	64.3275
1472	64.3215
1468	64.3005
1464	64.2478
1460	64.1917
1456	64.2425
1452	64.3033
1448	64.2609
1444	64.2931
1440	64.4538
1436	64.5125
1432	64.4009
1428	64.3054
1424	64.3118
1420	64.324
1416	64.287
1412	64.2668
1408	64.3194
1404	64.3724
1400	64.3532
1396	64.2625
1392	64.1254
1388	64.0452
1384	64.097
1380	64.212
1376	64.3014
1372	64.321
1368	64.2388
1364	64.1555
1360	64.1777
1356	64.1988
1352	64.1389
1348	64.1322
1344	64.2287
1340	64.2676
1336	64.1909
1332	64.1329
1328	64.1493
1324	64.142
1320	64.1292
1316	64.1639
1312	64.142
1308	64.1181
1304	64.1904
1300	64.2403
1296	64.2156
1292	64.1728
1288	64.155
1284	64.1503
1280	64.1337
1276	64.1472
1272	64.1668
1268	64.152
1264	64.1302
1260	64.0748
1256	63.9875
1252	63.9545
1248	64.0022
1244	64.0736
1240	64.0644
1236	63.965
1232	63.8993
1228	63.9002
1224	63.9315
1220	63.9938
1216	64.0623
1212	64.0825
1208	64.03
1204	63.9958
1200	63.9936
1196	63.9887
1192	63.9925
1188	63.9679
1184	63.9719
1180	64.0017
1176	63.924
1172	63.8105
1168	63.7794
1164	63.8208
1160	63.8611
1156	63.8264
1152	63.7991
1148	63.8643
1144	63.9735
1140	64.0131
1136	63.9859
1132	63.947
1128	63.8766
1124	63.8634
1120	63.9334
1116	63.956
1112	63.9536
1108	64.0198
1104	64.0748
1100	64.0051
1096	63.9167
1092	63.9645
1088	64.0496
1084	64.0358
1080	64.0104
1076	64.0325
1072	64.0109
1068	63.9508
1064	63.8819
1060	63.8736
1056	63.9992
1052	64.1063
1048	64.0799
1044	64.0245
1040	63.9846
1036	63.9465
1032	63.9561
1028	64.0218
1024	64.123
1020	64.2301
1016	64.2635
1012	64.1651
1008	63.9945
1004	63.9105
1000	63.97
996	 64.0544
992	 64.0884
988	 64.0854
984	 64.0965
980	 64.1001
976	 64.0054
972	 63.8991
968	 63.8732
964	 63.9365
960	 64.0366
956	 64.0585
952	 64.0712
948	 64.0779
944	 63.9972
940	 63.9369
936	 63.9668
932	 64.0351
928	 64.1638
924	 64.2398
920	 64.1488
916	 64.0714
912	 64.1006
908	 64.1337
904	 64.1141
900	 64.0421
896	 64.0265
892	 64.0474
888	 63.9326
884	 63.912
880	 64.091
876	 64.1538
872	 64.1464
868	 64.1942
864	 64.1033
860	 63.9689
856	 64.0355
852	 64.1005
848	 64.0207
844	 63.9633
840	 63.9644
836	 63.9015
832	 63.8262
828	 63.9541
824	 64.1166
820	 64.0372
816	 63.9958
812	 64.0888
808	 64.0496
804	 63.958
800	 64.0685
796	 64.2795
792	 64.274
788	 64.091
784	 63.9388
780	 63.8814
776	 63.924
772	 63.9298
768	 63.8969
764	 63.9074
760	 63.8363
756	 63.6599
752	 63.5921
748	 63.6356
744	 63.6461
740	 63.7012
736	 63.7599
732	 63.7867
728	 63.9029
724	 63.9213
720	 63.6559
716	 63.326
712	 63.134
708	 63.2732
704	 63.7282
700	 63.9626
696	 64.0759
692	 64.1828
688	 63.4821
684	 62.7528
680	 63.0999
676	 63.6315
672	 63.6811
668	 63.6082
664	 63.5295
660	 63.4578
656	 63.5732
652	 63.6723
648	 63.7287
644	 63.7871
640	 63.5224
636	 63.2662
632	 63.3879
628	 63.5651
624	 63.5786
620	 63.4122
616	 63.0519
612	 62.8956
608	 63.3816
604	 63.8913
600	 64.0873
596	 64.138
592	 63.8483
588	 63.4799
584	 63.4281
580	 63.6856
576	 63.9521
572	 64.0029
568	 63.8579
564	 63.7028
560	 63.6819
556	 63.8693
552	 64.1495
548	 64.0259
544	 63.443
540	 62.9754
536	 62.9157
532	 63.0536
528	 63.4864
524	 64.1371
520	 64.4278
516	 64.1388
512	 63.6542
508	 63.4431
504	 63.5188
500	 63.5629
496	 63.3333
492	 63.121
488	 62.9446
484	 62.9927
480	 63.4472
476	 63.2891
472	 62.7256
468	 62.8851
464	 63.2875
460	 62.9589
456	 62.1204
452	 61.7254
448	 62.2781
444	 63.1363
440	 62.9842
436	 62.0739
432	 61.8627
428	 62.0604
424	 61.3956
420	 60.3352
416	 59.769
412	 60.5332
408	 61.4292
404	 60.2961
400	 60.823
396	 63.6063
392	 62.5215
388	 62.447
384	 65.2544
380	 61.1089
376	 59.9287
372	 70.3059
370	 77.1468