File: Bakgrunnsmateriale/MATLAB/FTIR/ftir_data/subAa/Mapping_121/BZ1503107-1_t98_cm-1.asc
PE IR       SPECTRUM    SPECTRUM    ASCII       PEDS        1.60
  -1
BZ60B5~1.ASC
17/04/07
21:18:20.00
17/04/07
21:18:20.00
tln
$BZ1503107-1_t0098$<tbV0>[-10.4,7.8,8.0,0.0,27,1,0]
370
64

2002,4.07
MIRTGS : RIGHTBACK : INTERNAL 2
MIR : ON : INTERNAL 2
OPTKBR

0.200000
8
8.000000
FILLER
RATIO
SPECTRUM
UNLOCKED 256

DOUBLE
64
COMBINED
1
0
0

1.000000
RATIO

1
0
TRUE
51149
0
LEFT NOT FITTED RIGHT NOT FITTED 0
NONE
NONE
15600
12
4.427000
51148
TRUE
1 0 8 72 0 0 0 0

15798

#HDR
-1
-1
#GR
CM-1
%T
2.38419e-05
0.0
5000
-1.000000
4631
8
74.046
53.075
#DATA
5000	65.9687
4996	66.1598
4992	65.922
4988	64.9357
4984	63.8658
4980	63.5384
4976	64.4158
4972	65.2852
4968	64.7237
4964	64.3692
4960	65.6328
4956	67.3482
4952	68.5
4948	68.1035
4944	66.1714
4940	64.6706
4936	64.2198
4932	64.2251
4928	64.8976
4924	66.0022
4920	66.1313
4916	65.2893
4912	65.156
4908	65.768
4904	65.6359
4900	65.0977
4896	65.1059
4892	65.0476
4888	64.6871
4884	64.8917
4880	65.332
4876	65.2429
4872	65.3064
4868	65.7452
4864	65.7723
4860	65.3674
4856	65.1173
4852	65.2056
4848	65.4288
4844	65.4568
4840	65.2571
4836	65.2617
4832	65.4632
4828	65.5759
4824	65.5783
4820	65.4597
4816	65.326
4812	65.2108
4808	65.1738
4804	65.3584
4800	65.6016
4796	65.5918
4792	65.376
4788	65.2326
4784	65.2276
4780	65.3213
4776	65.3342
4772	65.1794
4768	65.1767
4764	65.4445
4760	65.5582
4756	65.2697
4752	65.0085
4748	65.0686
4744	65.2535
4740	65.2929
4736	65.1467
4732	65.0969
4728	65.1728
4724	65.1737
4720	65.1075
4716	65.0987
4712	65.1805
4708	65.2667
4704	65.2438
4700	65.2342
4696	65.2764
4692	65.1708
4688	65.0801
4684	65.3267
4680	65.7157
4676	65.6769
4672	65.2866
4668	65.2192
4664	65.481
4660	65.5245
4656	65.383
4652	65.43
4648	65.5877
4644	65.6038
4640	65.4541
4636	65.3151
4632	65.3424
4628	65.4313
4624	65.5076
4620	65.4746
4616	65.1653
4612	64.9186
4608	65.0126
4604	65.1723
4600	65.2909
4596	65.4294
4592	65.396
4588	65.0847
4584	64.7389
4580	64.6546
4576	64.776
4572	64.9956
4568	65.113
4564	64.827
4560	64.4749
4556	64.4125
4552	64.5592
4548	64.7969
4544	64.9727
4540	65.0435
4536	65.0829
4532	65.0825
4528	65.0983
4524	65.1781
4520	65.2492
4516	65.262
4512	65.149
4508	64.9254
4504	64.8365
4500	64.8169
4496	64.6764
4492	64.4712
4488	64.45
4484	64.3971
4480	64.1843
4476	63.9736
4472	64.1526
4468	64.593
4464	64.6276
4460	64.0823
4456	63.4151
4452	64.1813
4448	65.0196
4444	69.5031
4440	74.046
4436	69.7208
4432	66.1799
4428	67.267
4424	68.151
4420	67.3567
4416	66.4627
4412	65.9681
4408	65.733
4404	65.8262
4400	65.6794
4396	65.0302
4392	64.6401
4388	64.7431
4384	64.7963
4380	64.7455
4376	64.8625
4372	64.9336
4368	64.9408
4364	65.0675
4360	65.1335
4356	65.0707
4352	65.0803
4348	65.1429
4344	64.9916
4340	64.7727
4336	64.7908
4332	64.9706
4328	65.1038
4324	65.125
4320	65.1188
4316	65.0873
4312	65.0123
4308	64.9971
4304	64.9936
4300	64.9422
4296	65.0151
4292	65.2227
4288	65.2769
4284	65.1635
4280	65.0953
4276	65.1208
4272	65.1244
4268	64.9357
4264	64.7698
4260	64.8679
4256	65.0326
4252	65.0326
4248	64.9349
4244	64.9518
4240	65.0638
4236	65.0449
4232	65.0079
4228	65.1078
4224	65.094
4220	65.0457
4216	65.1562
4212	65.2322
4208	65.3007
4204	65.3863
4200	65.3043
4196	65.1094
4192	64.9062
4188	64.8204
4184	65.0244
4180	65.3522
4176	65.5279
4172	65.5688
4168	65.5273
4164	65.4599
4160	65.4594
4156	65.4784
4152	65.4629
4148	65.3154
4144	65.0309
4140	64.8967
4136	65.0556
4132	65.2759
4128	65.3664
4124	65.3442
4120	65.2621
4116	65.2336
4112	65.3524
4108	65.4169
4104	65.3505
4100	65.3927
4096	65.4423
4092	65.352
4088	65.289
4084	65.3095
4080	65.4024
4076	65.4681
4072	65.4067
4068	65.3375
4064	65.3267
4060	65.2893
4056	65.2316
4052	65.2453
4048	65.2401
4044	65.2352
4040	65.3613
4036	65.4344
4032	65.3952
4028	65.3775
4024	65.3153
4020	65.2
4016	65.1948
4012	65.2421
4008	65.1364
4004	65.1002
4000	65.2951
3996	65.3948
3992	65.2926
3988	65.1637
3984	65.1115
3980	65.0903
3976	65.1306
3972	65.3332
3968	65.447
3964	65.3643
3960	65.2788
3956	65.3572
3952	65.5824
3948	65.4336
3944	65.0568
3940	65.0656
3936	65.2076
3932	65.2562
3928	65.2714
3924	65.2416
3920	65.1791
3916	65.1088
3912	65.1769
3908	65.3385
3904	65.3495
3900	65.2439
3896	65.2372
3892	65.1661
3888	64.8571
3884	64.7711
3880	65.0549
3876	65.2121
3872	65.1715
3868	65.1507
3864	65.111
3860	65.0656
3856	65.1397
3852	65.2965
3848	65.383
3844	65.4056
3840	65.4914
3836	65.5379
3832	65.3785
3828	65.1977
3824	65.2504
3820	65.304
3816	65.2002
3812	65.1908
3808	65.2087
3804	65.1386
3800	65.1003
3796	65.1314
3792	65.201
3788	65.2563
3784	65.2584
3780	65.1913
3776	65.1582
3772	65.2459
3768	65.2767
3764	65.1773
3760	65.181
3756	65.2927
3752	65.333
3748	65.275
3744	65.1747
3740	65.115
3736	65.138
3732	65.2092
3728	65.2913
3724	65.3623
3720	65.3839
3716	65.3905
3712	65.4271
3708	65.4229
3704	65.3605
3700	65.3441
3696	65.358
3692	65.317
3688	65.2792
3684	65.229
3680	65.1868
3676	65.2644
3672	65.3959
3668	65.4575
3664	65.3753
3660	65.241
3656	65.1859
3652	65.197
3648	65.2286
3644	65.214
3640	65.2183
3636	65.2925
3632	65.2908
3628	65.1718
3624	65.0653
3620	65.0814
3616	65.1815
3612	65.2719
3608	65.3306
3604	65.325
3600	65.2653
3596	65.2655
3592	65.2851
3588	65.214
3584	65.1846
3580	65.1883
3576	65.1378
3572	65.1782
3568	65.2813
3564	65.3023
3560	65.2201
3556	65.1049
3552	65.0282
3548	64.9896
3544	65.0194
3540	65.1437
3536	65.2735
3532	65.2955
3528	65.2308
3524	65.1369
3520	65.0542
3516	65.0769
3512	65.1199
3508	65.1093
3504	65.1869
3500	65.3112
3496	65.3587
3492	65.3641
3488	65.3032
3484	65.1899
3480	65.1808
3476	65.2773
3472	65.314
3468	65.2299
3464	65.1186
3460	65.1095
3456	65.1762
3452	65.0974
3448	64.8887
3444	64.8586
3440	65.0037
3436	65.0506
3432	64.9858
3428	65.003
3424	65.0886
3420	65.1078
3416	65.0534
3412	65.0179
3408	65.0432
3404	65.0369
3400	64.9964
3396	65.0136
3392	65.0661
3388	65.1036
3384	65.1194
3380	65.1058
3376	65.1521
3372	65.2371
3368	65.1509
3364	65.0002
3360	64.9701
3356	65.0558
3352	65.1995
3348	65.1823
3344	65.0541
3340	64.9944
3336	64.9614
3332	64.9901
3328	65.0397
3324	65.0469
3320	65.1297
3316	65.2104
3312	65.1529
3308	65.1002
3304	65.1243
3300	65.1693
3296	65.1762
3292	65.1126
3288	65.0398
3284	65.0364
3280	65.1022
3276	65.1304
3272	65.0612
3268	65.0084
3264	65.0443
3260	65.1193
3256	65.1921
3252	65.1856
3248	65.11
3244	65.0496
3240	65.0143
3236	65.0201
3232	65.052
3228	65.0495
3224	65.0056
3220	64.9526
3216	64.9175
3212	64.9422
3208	65.0021
3204	65.0462
3200	65.0778
3196	65.1136
3192	65.1231
3188	65.095
3184	65.1175
3180	65.1335
3176	65.0615
3172	65.0476
3168	65.1472
3164	65.1649
3160	65.076
3156	65.0244
3152	65.0018
3148	64.983
3144	65.0027
3140	65.0607
3136	65.0889
3132	65.0441
3128	64.9907
3124	64.9815
3120	65.0285
3116	65.1365
3112	65.187
3108	65.107
3104	65.0528
3100	65.1285
3096	65.1899
3092	65.1545
3088	65.0504
3084	64.9221
3080	64.9182
3076	65.029
3072	65.1313
3068	65.1539
3064	65.0824
3060	65.0156
3056	64.9847
3052	64.9769
3048	65.0348
3044	65.0756
3040	65.0106
3036	64.9074
3032	64.856
3028	64.8792
3024	64.9201
3020	64.9403
3016	64.9839
3012	65.0309
3008	64.9862
3004	64.9216
3000	64.9425
2996	64.95
2992	64.884
2988	64.7907
2984	64.7344
2980	64.7756
2976	64.7689
2972	64.6293
2968	64.4794
2964	64.3577
2960	64.2879
2956	64.3365
2952	64.452
2948	64.5366
2944	64.5987
2940	64.6038
2936	64.5381
2932	64.5101
2928	64.5764
2924	64.6652
2920	64.707
2916	64.6891
2912	64.6132
2908	64.5682
2904	64.6091
2900	64.6209
2896	64.5783
2892	64.5988
2888	64.6972
2884	64.7506
2880	64.7391
2876	64.7745
2872	64.8226
2868	64.7855
2864	64.7491
2860	64.7513
2856	64.7444
2852	64.7454
2848	64.7701
2844	64.8011
2840	64.7986
2836	64.788
2832	64.8161
2828	64.8504
2824	64.8628
2820	64.8501
2816	64.8041
2812	64.7839
2808	64.8293
2804	64.8881
2800	64.8951
2796	64.8679
2792	64.8282
2788	64.7943
2784	64.8492
2780	64.9515
2776	64.9812
2772	64.9304
2768	64.8908
2764	64.9152
2760	64.9005
2756	64.8211
2752	64.8077
2748	64.8493
2744	64.8526
2740	64.8534
2736	64.8599
2732	64.8599
2728	64.8843
2724	64.8941
2720	64.8296
2716	64.7465
2712	64.759
2708	64.8293
2704	64.8257
2700	64.7397
2696	64.6873
2692	64.6871
2688	64.6795
2684	64.6744
2680	64.685
2676	64.7307
2672	64.8084
2668	64.8366
2664	64.7842
2660	64.7468
2656	64.7727
2652	64.8363
2648	64.8697
2644	64.8101
2640	64.7377
2636	64.7516
2632	64.8224
2628	64.8149
2624	64.7227
2620	64.7079
2616	64.7907
2612	64.8426
2608	64.8176
2604	64.7455
2600	64.6977
2596	64.724
2592	64.7396
2588	64.7429
2584	64.7948
2580	64.8033
2576	64.7438
2572	64.7488
2568	64.8287
2564	64.8519
2560	64.7836
2556	64.7035
2552	64.6791
2548	64.7036
2544	64.7016
2540	64.6814
2536	64.6997
2532	64.7054
2528	64.6741
2524	64.6616
2520	64.7063
2516	64.7468
2512	64.7133
2508	64.6631
2504	64.6745
2500	64.7212
2496	64.7222
2492	64.7219
2488	64.7487
2484	64.7017
2480	64.6715
2476	64.7602
2472	64.7914
2468	64.7118
2464	64.6966
2460	64.7512
2456	64.7697
2452	64.7371
2448	64.6878
2444	64.6534
2440	64.6193
2436	64.5559
2432	64.5447
2428	64.6732
2424	64.7886
2420	64.7727
2416	64.6832
2412	64.5949
2408	64.5897
2404	64.6221
2400	64.6183
2396	64.6134
2392	64.5965
2388	64.5624
2384	64.5739
2380	64.6068
2376	64.6109
2372	64.6173
2368	64.653
2364	64.6574
2360	64.617
2356	64.6282
2352	64.6259
2348	64.5584
2344	64.5513
2340	64.5834
2336	64.5771
2332	64.5602
2328	64.5914
2324	64.6536
2320	64.632
2316	64.5712
2312	64.5536
2308	64.5144
2304	64.4454
2300	64.4325
2296	64.5008
2292	64.5411
2288	64.5072
2284	64.4747
2280	64.4777
2276	64.4964
2272	64.5306
2268	64.5592
2264	64.5399
2260	64.5359
2256	64.5935
2252	64.6152
2248	64.5452
2244	64.4618
2240	64.4604
2236	64.5162
2232	64.5755
2228	64.6067
2224	64.5623
2220	64.5231
2216	64.5444
2212	64.5348
2208	64.4497
2204	64.3526
2200	64.3453
2196	64.4022
2192	64.4047
2188	64.3821
2184	64.3842
2180	64.3796
2176	64.3919
2172	64.4188
2168	64.3993
2164	64.3786
2160	64.4044
2156	64.3899
2152	64.3657
2148	64.3928
2144	64.4126
2140	64.4401
2136	64.4611
2132	64.4502
2128	64.442
2124	64.4421
2120	64.454
2116	64.455
2112	64.4188
2108	64.4081
2104	64.4191
2100	64.3758
2096	64.36
2092	64.3905
2088	64.3687
2084	64.3342
2080	64.3417
2076	64.3554
2072	64.3563
2068	64.3629
2064	64.404
2060	64.4521
2056	64.4935
2052	64.4725
2048	64.3504
2044	64.2809
2040	64.2967
2036	64.2724
2032	64.2306
2028	64.2332
2024	64.2426
2020	64.2524
2016	64.2612
2012	64.2452
2008	64.2405
2004	64.2672
2000	64.306
1996	64.3078
1992	64.2643
1988	64.2215
1984	64.1794
1980	64.1614
1976	64.2101
1972	64.2717
1968	64.2761
1964	64.2803
1960	64.3367
1956	64.3711
1952	64.3029
1948	64.1771
1944	64.1212
1940	64.1702
1936	64.1959
1932	64.1794
1928	64.198
1924	64.1851
1920	64.1292
1916	64.1162
1912	64.1403
1908	64.1497
1904	64.1736
1900	64.2117
1896	64.2154
1892	64.1958
1888	64.1815
1884	64.1595
1880	64.1467
1876	64.167
1872	64.1793
1868	64.1575
1864	64.1575
1860	64.2003
1856	64.1839
1852	64.079
1848	64.0181
1844	64.05
1840	64.1095
1836	64.1323
1832	64.0999
1828	64.1025
1824	64.1194
1820	64.084
1816	64.0892
1812	64.155
1808	64.183
1804	64.1528
1800	64.1138
1796	64.07
1792	64.0099
1788	63.9163
1784	63.8462
1780	63.8557
1776	63.873
1772	63.8817
1768	63.9004
1764	63.8721
1760	63.7733
1756	63.6458
1752	63.5121
1748	63.3567
1744	63.1083
1740	62.7887
1736	62.5994
1732	62.6503
1728	62.8817
1724	63.1626
1720	63.4023
1716	63.5588
1712	63.6399
1708	63.7156
1704	63.7822
1700	63.8162
1696	63.8273
1692	63.8137
1688	63.7636
1684	63.7304
1680	63.7473
1676	63.7635
1672	63.7845
1668	63.8311
1664	63.8683
1660	63.8723
1656	63.854
1652	63.8327
1648	63.8588
1644	63.9019
1640	63.9127
1636	63.9443
1632	63.9597
1628	63.8838
1624	63.7951
1620	63.7806
1616	63.7923
1612	63.809
1608	63.8298
1604	63.8343
1600	63.8172
1596	63.7754
1592	63.7903
1588	63.8588
1584	63.8531
1580	63.7331
1576	63.691
1572	63.8029
1568	63.84
1564	63.7772
1560	63.7312
1556	63.6751
1552	63.6075
1548	63.6033
1544	63.6909
1540	63.7615
1536	63.7156
1532	63.6234
1528	63.5734
1524	63.5739
1520	63.6452
1516	63.7343
1512	63.7424
1508	63.683
1504	63.6128
1500	63.5841
1496	63.6514
1492	63.768
1488	63.7949
1484	63.7071
1480	63.6328
1476	63.6246
1472	63.6141
1468	63.5485
1464	63.4249
1460	63.3655
1456	63.3769
1452	63.387
1448	63.4321
1444	63.4447
1440	63.3955
1436	63.4029
1432	63.4329
1428	63.4101
1424	63.4655
1420	63.5793
1416	63.5818
1412	63.5164
1408	63.4899
1404	63.4724
1400	63.4064
1396	63.2979
1392	63.2657
1388	63.3488
1384	63.4193
1380	63.4377
1376	63.3948
1372	63.3181
1368	63.2908
1364	63.3196
1360	63.3872
1356	63.429
1352	63.4407
1348	63.4411
1344	63.3838
1340	63.3099
1336	63.2991
1332	63.3685
1328	63.3893
1324	63.3103
1320	63.3082
1316	63.3961
1312	63.4141
1308	63.3465
1304	63.3009
1300	63.2823
1296	63.2189
1292	63.1857
1288	63.1811
1284	63.1325
1280	63.1112
1276	63.1124
1272	63.0504
1268	62.9211
1264	62.8698
1260	62.8806
1256	62.8258
1252	62.8165
1248	62.8395
1244	62.8181
1240	62.8007
1236	62.761
1232	62.7546
1228	62.8499
1224	62.945
1220	62.9906
1216	62.9994
1212	62.9886
1208	63.0287
1204	63.0744
1200	63.0218
1196	62.9357
1192	62.8988
1188	62.8364
1184	62.745
1180	62.7046
1176	62.6744
1172	62.5865
1168	62.4739
1164	62.4114
1160	62.4252
1156	62.5094
1152	62.6372
1148	62.776
1144	62.8764
1140	62.922
1136	62.9485
1132	62.9304
1128	62.921
1124	62.9846
1120	63.0321
1116	63.0048
1112	62.9986
1108	63.0419
1104	63.0019
1100	62.9295
1096	62.9703
1092	62.9425
1088	62.7912
1084	62.7317
1080	62.705
1076	62.6147
1072	62.6239
1068	62.759
1064	62.8478
1060	62.8187
1056	62.7737
1052	62.8444
1048	62.9445
1044	62.9457
1040	62.9068
1036	62.8841
1032	62.9193
1028	62.9981
1024	62.9681
1020	62.8222
1016	62.746
1012	62.7476
1008	62.7251
1004	62.7427
1000	62.8353
996	 62.8972
992	 62.9273
988	 63.0044
984	 63.1073
980	 63.1311
976	 63.0025
972	 62.8534
968	 62.8408
964	 62.8916
960	 62.9202
956	 62.9323
952	 62.9113
948	 62.8565
944	 62.8411
940	 62.89
936	 62.9104
932	 62.9149
928	 63.0019
924	 63.0689
920	 62.9997
916	 62.8781
912	 62.8709
908	 62.9149
904	 62.8197
900	 62.7562
896	 62.8418
892	 62.921
888	 62.9071
884	 62.7951
880	 62.7
876	 62.728
872	 62.8091
868	 62.8924
864	 62.9668
860	 62.9302
856	 62.8141
852	 62.7263
848	 62.7039
844	 62.7107
840	 62.6405
836	 62.64
832	 62.7418
828	 62.7188
824	 62.7321
820	 62.8713
816	 62.88
812	 62.8132
808	 62.7519
804	 62.6461
800	 62.6018
796	 62.6799
792	 62.7671
788	 62.7857
784	 62.7179
780	 62.586
776	 62.4627
772	 62.4163
768	 62.4727
764	 62.5603
760	 62.6387
756	 62.7419
752	 62.8101
748	 62.7764
744	 62.6917
740	 62.5867
736	 62.5153
732	 62.555
728	 62.5745
724	 62.5311
720	 62.5862
716	 62.6483
712	 62.5594
708	 62.4792
704	 62.5008
700	 62.4835
696	 62.4451
692	 62.501
688	 62.5655
684	 62.4784
680	 62.2941
676	 62.3203
672	 62.558
668	 62.5201
664	 62.237
660	 62.162
656	 62.2467
652	 62.37
648	 62.5558
644	 62.6364
640	 62.5114
636	 62.3888
632	 62.488
628	 62.6755
624	 62.5857
620	 62.2817
616	 62.11
612	 62.2062
608	 62.5511
604	 62.4584
600	 61.8666
596	 61.621
592	 61.685
588	 61.7473
584	 61.6175
580	 61.4532
576	 61.8383
572	 62.7237
568	 63.2399
564	 62.8915
560	 62.3383
556	 62.1637
552	 62.4318
548	 62.798
544	 62.5329
540	 61.9781
536	 61.6333
532	 61.6152
528	 61.9822
524	 62.4095
520	 62.2467
516	 61.2159
512	 61.2822
508	 62.5917
504	 62.8276
500	 62.4194
496	 62.6026
492	 62.7288
488	 62.1726
484	 61.5543
480	 61.7629
476	 62.4577
472	 62.225
468	 61.439
464	 61.3415
460	 60.8493
456	 59.4988
452	 58.875
448	 59.4343
444	 60.3966
440	 61.3773
436	 61.9971
432	 61.9465
428	 61.05
424	 60.7787
420	 62.7875
416	 63.5744
412	 61.5835
408	 61.5794
404	 64.3514
400	 65.0729
396	 61.8663
392	 58.6895
388	 56.5526
384	 54.5051
380	 53.2929
376	 53.5363
372	 56.9581
370	 58.7471