File: Bakgrunnsmateriale/MATLAB/FTIR/ftir_data/subAa/Mapping_121/BZ1503107-1_t100.asc
PE IR       SPECTRUM    SPECTRUM    ASCII       PEDS        1.60
  -1
BZC6B2~1.ASC
17/04/07
21:28:12.00
17/04/07
21:28:38.00
tln
$BZ1503107-1_t0100$<tbV0>[13.0,10.4,8.0,0.0,27,1,0]
27.028
64

2002,4.07
MIRTGS : RIGHTBACK : INTERNAL 2
MIR : ON : INTERNAL 2
OPTKBR

0.200000
8
8.000000
FILLER
RATIO
SPECTRUM
UNLOCKED 256

DOUBLE
64
COMBINED
1
0
0

0.002000
RATIO

1
0
TRUE
51149
0
LEFT NOT FITTED RIGHT NOT FITTED 0
NONE
NONE
15600
12
4.427000
51148
TRUE
1 0 8 72 0 0 0 0

15798

#HDR
-1
-1
#GR
µM
%T
2.38419e-05
0.0
2.000000
0.002000
12515
8
77.7101
50.8469
#DATA
2.000000	 65.0362
2.018000	 65.8642
2.036000	 64.9912
2.054000	 65.0554
2.072000	 64.6712
2.090000	 65.1806
2.108000	 65.129
2.126000	 64.9327
2.144000	 65.165
2.162000	 65.1944
2.180000	 64.8423
2.198000	 64.8643
2.216000	 64.4077
2.234000	 65.46
2.252000	 67.4284
2.270000	 64.6724
2.288000	 65.2371
2.306000	 65.0399
2.324000	 65.1239
2.342000	 64.7924
2.360000	 64.5995
2.378000	 65.3372
2.396000	 65.044
2.414000	 64.6026
2.432000	 65.1487
2.450000	 65.0613
2.468000	 64.8655
2.486000	 65.0797
2.504000	 65.0499
2.522000	 64.9983
2.540000	 65.0299
2.558000	 65.0806
2.576000	 65.1016
2.594000	 65.198
2.612000	 65.0883
2.630000	 65.0666
2.648000	 65.0374
2.666000	 65.0897
2.684000	 64.9262
2.702000	 64.8078
2.720000	 64.8468
2.738000	 65.0209
2.756000	 65.004
2.774000	 64.9483
2.792000	 64.9647
2.810000	 65.0003
2.828000	 65.0095
2.846000	 65.0385
2.864000	 65.0538
2.882000	 64.9768
2.900000	 64.823
2.918000	 64.9826
2.936000	 64.9679
2.954000	 65.0122
2.972000	 64.9566
2.990000	 64.894
3.008000	 64.9399
3.026000	 64.882
3.044000	 64.9858
3.062000	 64.9605
3.080000	 64.8819
3.098000	 65.0168
3.116000	 64.8117
3.134000	 64.9198
3.152000	 64.9093
3.170000	 64.8057
3.188000	 64.7828
3.206000	 64.871
3.224000	 64.9325
3.242000	 64.755
3.260000	 64.7887
3.278000	 64.92
3.296000	 64.9675
3.314000	 64.8671
3.332000	 64.9502
3.350000	 64.8459
3.368000	 64.8143
3.386000	 64.617
3.404000	 64.6083
3.422000	 64.7152
3.440000	 64.6803
3.458000	 64.6646
3.476000	 64.6248
3.494000	 64.7434
3.512000	 64.6718
3.530000	 64.7167
3.548000	 64.7912
3.566000	 64.7486
3.584000	 64.746
3.602000	 64.7994
3.620000	 64.7716
3.638000	 64.7055
3.656000	 64.6597
3.674000	 64.8966
3.692000	 64.7384
3.710000	 64.7322
3.728000	 64.6481
3.746000	 64.6543
3.764000	 64.6836
3.782000	 64.8038
3.800000	 64.6382
3.818000	 64.5618
3.836000	 64.6635
3.854000	 64.6102
3.872000	 64.6054
3.890000	 64.6509
3.908000	 64.6243
3.926000	 64.6092
3.944000	 64.6937
3.962000	 64.6103
3.980000	 64.6343
3.998000	 64.5496
4.016000	 64.5967
4.034000	 64.5494
4.052000	 64.5594
4.070000	 64.6515
4.088000	 64.4737
4.106000	 64.5519
4.124000	 64.6196
4.141999	 64.5413
4.160000	 64.5204
4.178000	 64.5815
4.196000	 64.5273
4.214000	 64.5134
4.232000	 64.6692
4.250000	 64.4942
4.268000	 64.5972
4.286000	 64.5007
4.304000	 64.5987
4.322000	 64.541
4.340000	 64.3483
4.358000	 64.4901
4.375999	 64.5715
4.394000	 64.5678
4.412000	 64.5291
4.430000	 64.6028
4.448000	 64.5732
4.466000	 64.4615
4.484000	 64.4635
4.502000	 64.4419
4.520000	 64.346
4.538000	 64.3921
4.556000	 64.4154
4.574000	 64.3742
4.592000	 64.3177
4.609999	 64.4457
4.628000	 64.3178
4.646000	 64.2831
4.664000	 64.3385
4.682000	 64.314
4.700000	 64.3248
4.718000	 64.3411
4.736000	 64.274
4.754000	 64.3277
4.772000	 64.2961
4.790000	 64.2712
4.808000	 64.3449
4.826000	 64.2615
4.843999	 64.3396
4.862000	 64.5919
4.880000	 64.4266
4.898000	 64.226
4.916000	 64.3288
4.934000	 64.2638
4.952000	 64.1096
4.970000	 64.2121
4.988000	 64.279
5.006000	 64.2501
5.024000	 64.2201
5.042000	 64.1353
5.060000	 64.18
5.077999	 64.2576
5.096000	 64.235
5.114000	 64.2632
5.132000	 64.2032
5.150000	 64.1581
5.168000	 64.1322
5.186000	 64.1312
5.204000	 64.1637
5.222000	 64.1723
5.240000	 64.2024
5.258000	 64.152
5.276000	 64.1095
5.294000	 64.1631
5.312000	 64.1508
5.330000	 64.1259
5.348000	 64.1459
5.366000	 64.2159
5.384000	 64.2203
5.402000	 64.0843
5.420000	 64.0716
5.438000	 64.1793
5.456000	 64.2117
5.474000	 64.1089
5.492000	 64.1209
5.510000	 64.1212
5.528000	 64.1607
5.546000	 64.2076
5.564000	 64.12
5.582000	 64.0488
5.600000	 64.0206
5.618000	 64.0373
5.636000	 64.0302
5.654000	 64.0303
5.672000	 64.0626
5.690000	 64.0147
5.708000	 63.8924
5.726000	 63.8799
5.744000	 63.8584
5.762000	 63.84
5.780000	 63.8647
5.798000	 63.8419
5.816000	 63.7926
5.834000	 63.8478
5.852000	 63.9139
5.870000	 63.9227
5.888000	 63.8819
5.906000	 63.9167
5.923999	 63.9195
5.942000	 63.8392
5.960000	 63.7553
5.978000	 63.7684
5.996000	 63.8398
6.014000	 63.912
6.032000	 63.8835
6.050000	 63.8854
6.068000	 63.9709
6.086000	 63.9477
6.104000	 63.9127
6.122000	 63.9025
6.140000	 63.8267
6.158000	 63.7768
6.176000	 63.816
6.194000	 63.8665
6.212000	 63.8932
6.230000	 63.8683
6.248000	 63.8391
6.266000	 63.8634
6.284000	 63.9259
6.302000	 63.9339
6.320000	 63.8383
6.338000	 63.7729
6.356000	 63.8317
6.374000	 63.8726
6.392000	 63.8891
6.410000	 63.8508
6.428000	 63.7263
6.446000	 63.6585
6.464000	 63.6969
6.482000	 63.7434
6.500000	 63.7796
6.518000	 63.8373
6.536000	 63.829
6.554000	 63.7678
6.572000	 63.6732
6.590000	 63.5651
6.608000	 63.5663
6.626000	 63.653
6.644000	 63.6839
6.662000	 63.6717
6.680000	 63.7016
6.698000	 63.7327
6.716000	 63.7295
6.734000	 63.6654
6.752000	 63.6167
6.770000	 63.6711
6.788000	 63.7301
6.806000	 63.7273
6.824000	 63.6894
6.842000	 63.6279
6.860000	 63.5398
6.878000	 63.5052
6.896000	 63.5783
6.914000	 63.6024
6.932000	 63.5289
6.950000	 63.4978
6.968000	 63.529
6.986000	 63.549
7.004000	 63.5521
7.022000	 63.5409
7.040000	 63.5177
7.058000	 63.5112
7.076000	 63.5374
7.094000	 63.5729
7.112000	 63.5775
7.130000	 63.5564
7.148000	 63.5291
7.166000	 63.5074
7.184000	 63.5342
7.202000	 63.6027
7.220000	 63.6344
7.238000	 63.6075
7.256000	 63.5751
7.274000	 63.5617
7.292000	 63.534
7.310000	 63.4824
7.328000	 63.4607
7.346000	 63.4974
7.364000	 63.5418
7.382000	 63.5518
7.400000	 63.5521
7.418000	 63.5688
7.436000	 63.5662
7.454000	 63.5024
7.472000	 63.4178
7.490000	 63.4018
7.508000	 63.4671
7.526000	 63.531
7.544000	 63.5409
7.562000	 63.5344
7.580000	 63.5517
7.598000	 63.572
7.616000	 63.5555
7.634000	 63.4826
7.652000	 63.3663
7.670000	 63.2711
7.688000	 63.2678
7.706000	 63.3434
7.724000	 63.4188
7.742000	 63.4325
7.760000	 63.3787
7.778000	 63.3029
7.796000	 63.2613
7.814000	 63.2628
7.832000	 63.2752
7.850000	 63.2808
7.868000	 63.2874
7.886000	 63.3069
7.904000	 63.3443
7.922000	 63.3869
7.940000	 63.3988
7.958000	 63.3533
7.976000	 63.2795
7.994000	 63.2383
8.012000	 63.2469
8.030000	 63.2703
8.048000	 63.2832
8.065999	 63.2914
8.084000	 63.3005
8.102000	 63.3093
8.120000	 63.3302
8.138000	 63.3722
8.155999	 63.4104
8.173999	 63.4085
8.192000	 63.3716
8.210000	 63.3394
8.228000	 63.3357
8.246000	 63.3482
8.263999	 63.3558
8.282000	 63.3496
8.300000	 63.3349
8.318000	 63.3249
8.336000	 63.328
8.353999	 63.3355
8.372000	 63.328
8.390000	 63.2969
8.408000	 63.254
8.426000	 63.2232
8.443999	 63.2246
8.462000	 63.2601
8.480000	 63.309
8.498000	 63.3402
8.516000	 63.3323
8.533999	 63.284
8.552000	 63.2122
8.570000	 63.1426
8.588000	 63.0977
8.606000	 63.0899
8.624000	 63.1146
8.641999	 63.1536
8.660000	 63.1879
8.678000	 63.2116
8.696000	 63.2291
8.714000	 63.2462
8.731999	 63.268
8.750000	 63.2992
8.768000	 63.3358
8.786000	 63.3581
8.804000	 63.3404
8.821999	 63.2786
8.840000	 63.2045
8.858000	 63.1627
8.876000	 63.1677
8.894000	 63.1993
8.911999	 63.2271
8.930000	 63.2286
8.948000	 63.1982
8.966000	 63.153
8.984000	 63.1177
9.001999	 63.0984
9.020000	 63.0879
9.038000	 63.088
9.056000	 63.1105
9.074000	 63.1539
9.092000	 63.1921
9.109999	 63.1947
9.128000	 63.1591
9.146000	 63.1167
9.164000	 63.1036
9.182000	 63.1262
9.199999	 63.1583
9.218000	 63.1671
9.236000	 63.1425
9.254000	 63.103
9.272000	 63.077
9.289999	 63.0788
9.308000	 63.0989
9.326000	 63.1153
9.344000	 63.112
9.362000	 63.0897
9.379999	 63.0621
9.398000	 63.0434
9.416000	 63.0393
9.434000	 63.0462
9.452000	 63.0588
9.469999	 63.0753
9.488000	 63.0972
9.506000	 63.1273
9.524000	 63.166
9.542000	 63.2112
9.560000	 63.2591
9.577999	 63.3043
9.596000	 63.3392
9.614000	 63.3534
9.632000	 63.3393
9.650000	 63.299
9.667999	 63.2475
9.686000	 63.207
9.704000	 63.1944
9.722000	 63.2085
9.740000	 63.2302
9.757999	 63.2342
9.776000	 63.207
9.794000	 63.155
9.812000	 63.1004
9.830000	 63.0659
9.847999	 63.0619
9.866000	 63.0825
9.884000	 63.1109
9.902000	 63.1304
9.920000	 63.1324
9.937999	 63.1213
9.956000	 63.1101
9.974000	 63.1115
9.992000	 63.1303
10.01	63.1618
10.028	63.1948
10.046	63.219
10.064	63.2294
10.082	63.2264
10.1	63.2134
10.118	63.1966
10.136	63.1833
10.154	63.1814
10.172	63.1964
10.19	63.2273
10.208	63.2657
10.226	63.3004
10.244	63.3218
10.262	63.326
10.28	63.3154
10.298	63.295
10.316	63.2687
10.334	63.2385
10.352	63.2052
10.37	63.1701
10.388	63.1373
10.406	63.1131
10.424	63.1034
10.442	63.1094
10.46	63.1247
10.478	63.1361
10.496	63.1312
10.514	63.1069
10.532	63.0737
10.55	63.0509
10.568	63.0555
10.586	63.091
10.604	63.144
10.622	63.1912
10.64	63.2135
10.658	63.2063
10.676	63.1817
10.694	63.1582
10.712	63.1515
10.73	63.1659
10.748	63.1953
10.766	63.2275
10.784	63.2518
10.802	63.2624
10.82	63.2598
10.838	63.2478
10.856	63.2304
10.874	63.2108
10.892	63.1912
10.91	63.1739
10.928	63.1622
10.946	63.1596
10.964	63.1664
10.982	63.1789
11	63.1891
11.018	63.1875
11.036	63.1686
11.054	63.1346
11.072	63.0935
11.09	63.0558
11.108	63.0274
11.126	63.0085
11.144	62.9951
11.162	62.9833
11.18	62.9736
11.198	62.9709
11.216	62.9812
11.234	63.0066
11.252	63.0425
11.27	63.0789
11.288	63.103
11.306	63.1065
11.324	63.0876
11.342	63.0515
11.36	63.0067
11.378	62.9626
11.396	62.9257
11.414	62.9
11.432	62.8878
11.45	62.8911
11.468	62.9117
11.486	62.9499
11.504	63.0029
11.522	63.0639
11.54	63.1242
11.558	63.1742
11.576	63.2076
11.594	63.2226
11.612	63.2219
11.63	63.211
11.648	63.1947
11.666	63.1757
11.684	63.1528
11.702	63.123
11.72	63.0839
11.738	63.0357
11.756	62.983
11.774	62.9336
11.792	62.896
11.81	62.8759
11.828	62.8743
11.846	62.8866
11.864	62.9046
11.882	62.9202
11.9	62.9269
11.918	62.9223
11.936	62.9079
11.954	62.8875
11.972	62.8652
11.99	62.8433
12.008	62.8229
12.026	62.8044
12.044	62.7889
12.062	62.7796
12.08	62.7814
12.098	62.799
12.116	62.8344
12.134	62.8848
12.152	62.9424
12.17	62.9981
12.188	63.0433
12.206	63.0744
12.224	63.0933
12.242	63.1053
12.26	63.1169
12.278	63.1329
12.296	63.1534
12.314	63.1741
12.332	63.1874
12.35	63.1854
12.368	63.1619
12.386	63.1156
12.404	63.0508
12.422	62.9767
12.44	62.9049
12.458	62.8458
12.476	62.8066
12.494	62.7886
12.512	62.7882
12.53	62.7986
12.548	62.8129
12.566	62.8256
12.584	62.8343
12.602	62.8398
12.62	62.8442
12.638	62.85
12.656	62.8584
12.674	62.8694
12.692	62.8812
12.71	62.892
12.728	62.9005
12.746	62.9067
12.764	62.9114
12.782	62.9156
12.8	62.9198
12.818	62.9237
12.836	62.9266
12.854	62.9272
12.872	62.9249
12.89	62.9189
12.908	62.9093
12.926	62.896
12.944	62.8792
12.962	62.8591
12.98	62.8363
12.998	62.8118
13.016	62.7875
13.034	62.766
13.052	62.75
13.07	62.7421
13.088	62.7441
13.106	62.7568
13.124	62.7793
13.142	62.8097
13.16	62.8457
13.178	62.8846
13.196	62.9241
13.214	62.9619
13.232	62.9959
13.25	63.0234
13.268	63.0419
13.286	63.0487
13.304	63.0418
13.322	63.02
13.34	62.9841
13.358	62.9364
13.376	62.8807
13.394	62.8216
13.412	62.7644
13.43	62.7139
13.448	62.6743
13.466	62.6484
13.484	62.6374
13.502	62.6407
13.52	62.6563
13.538	62.6808
13.556	62.7099
13.574	62.7388
13.592	62.7629
13.61	62.7784
13.628	62.7829
13.646	62.7757
13.664	62.7581
13.682	62.7328
13.7	62.7039
13.718	62.6755
13.736	62.6511
13.754	62.6334
13.772	62.6237
13.79	62.6219
13.808	62.6266
13.826	62.6358
13.844	62.6469
13.862	62.6575
13.88	62.6649
13.898	62.667
13.916	62.6624
13.934	62.6498
13.952	62.6289
13.97	62.5999
13.988	62.5643
14.006	62.5241
14.024	62.4821
14.042	62.4411
14.06	62.4044
14.078	62.374
14.096	62.3518
14.114	62.3378
14.132	62.3315
14.15	62.3312
14.168	62.3352
14.186	62.342
14.204	62.3502
14.222	62.3594
14.24	62.3698
14.258	62.3821
14.276	62.3974
14.294	62.4163
14.312	62.4391
14.33	62.4654
14.348	62.4943
14.366	62.5244
14.384	62.5543
14.402	62.5829
14.42	62.6099
14.438	62.6353
14.456	62.6596
14.474	62.6831
14.492	62.7064
14.51	62.729
14.528	62.75
14.546	62.7673
14.564	62.7785
14.582	62.7809
14.6	62.7723
14.618	62.751
14.636	62.7166
14.654	62.6697
14.672	62.6126
14.69	62.5485
14.708	62.4814
14.726	62.4156
14.744	62.356
14.762	62.3068
14.78	62.2711
14.798	62.2512
14.816	62.2482
14.834	62.262
14.852	62.2911
14.87	62.3328
14.888	62.3838
14.906	62.4402
14.924	62.4979
14.942	62.552
14.96	62.5985
14.978	62.6343
14.996	62.6573
15.014	62.6664
15.032	62.6614
15.05	62.6438
15.068	62.6158
15.086	62.5804
15.104	62.5406
15.122	62.5003
15.14	62.4626
15.158	62.4299
15.176	62.4041
15.194	62.3865
15.212	62.3772
15.23	62.3755
15.248	62.3803
15.266	62.3902
15.284	62.4033
15.302	62.418
15.32	62.4333
15.338	62.4487
15.356	62.464
15.374	62.4802
15.392	62.4981
15.41	62.5186
15.428	62.5425
15.446	62.57
15.464	62.6004
15.482	62.6326
15.5	62.6649
15.518	62.6945
15.536	62.7187
15.554	62.7354
15.572	62.7425
15.59	62.7388
15.608	62.7243
15.626	62.6998
15.644	62.6666
15.662	62.6278
15.68	62.5859
15.698	62.5435
15.716	62.5037
15.734	62.4686
15.752	62.4388
15.77	62.415
15.788	62.3964
15.806	62.3813
15.824	62.3682
15.842	62.3551
15.86	62.3401
15.878	62.322
15.896	62.3
15.914	62.2743
15.932	62.2459
15.95	62.2163
15.968	62.1876
15.986	62.1623
16.004	62.1422
16.022	62.129
16.04	62.1241
16.058	62.1272
16.076	62.138
16.094	62.1548
16.112	62.1751
16.13	62.1971
16.148	62.2177
16.166	62.2349
16.184	62.2477
16.202	62.2554
16.22	62.2591
16.238	62.2604
16.256	62.2607
16.274	62.2634
16.292	62.2704
16.31	62.2834
16.328	62.3038
16.346	62.3309
16.364	62.3641
16.382	62.4006
16.4	62.4375
16.418	62.4724
16.436	62.5009
16.454	62.5211
16.472	62.5312
16.49	62.53
16.508	62.519
16.526	62.499
16.544	62.4737
16.562	62.4466
16.58	62.4206
16.598	62.4004
16.616	62.388
16.634	62.3857
16.652	62.3946
16.67	62.4142
16.688	62.444
16.706	62.4817
16.724	62.5255
16.742	62.5727
16.76	62.6206
16.778	62.6677
16.796	62.7115
16.814	62.7507
16.832	62.7843
16.85	62.8113
16.868	62.8313
16.886	62.8438
16.904	62.8484
16.922	62.8452
16.94	62.8339
16.958	62.8146
16.976	62.7877
16.994	62.7542
17.012	62.715
17.03	62.6706
17.048	62.6227
17.066	62.5721
17.084	62.5197
17.102	62.467
17.12	62.4147
17.138	62.3636
17.156	62.314
17.174	62.2662
17.192	62.2201
17.21	62.1757
17.228	62.1331
17.246	62.0926
17.264	62.0545
17.282	62.0201
17.3	61.9902
17.318	61.9661
17.336	61.9493
17.354	61.9405
17.372	61.9417
17.39	61.9531
17.408	61.9758
17.426	62.0085
17.444	62.0509
17.462	62.0997
17.48	62.1536
17.498	62.2085
17.516	62.2613
17.534	62.3094
17.552	62.3485
17.57	62.3774
17.588	62.3932
17.606	62.3962
17.624	62.3852
17.642	62.3628
17.66	62.3299
17.678	62.2915
17.696	62.2492
17.714	62.2097
17.732	62.1761
17.75	62.1527
17.768	62.1446
17.786	62.1535
17.804	62.1835
17.822	62.2345
17.84	62.3077
17.858	62.4014
17.876	62.515
17.894	62.6437
17.912	62.7863
17.93	62.9359
17.948	63.0909
17.966	63.2437
17.984	63.3924
18.002	63.5309
18.02	63.6563
18.038	63.7655
18.056	63.8553
18.074	63.9245
18.092	63.9708
18.11	63.9938
18.128	63.9921
18.146	63.9662
18.164	63.9159
18.182	63.8422
18.2	63.7456
18.218	63.6279
18.236	63.4899
18.254	63.3348
18.272	63.1633
18.29	62.9803
18.308	62.7867
18.326	62.589
18.344	62.3886
18.362	62.1928
18.38	62.004
18.398	61.8293
18.416	61.672
18.434	61.5374
18.452	61.4293
18.47	61.3513
18.488	61.3058
18.506	61.2946
18.524	61.3177
18.542	61.3756
18.56	61.4639
18.578	61.5824
18.596	61.723
18.614	61.8851
18.632	62.0584
18.65	62.2422
18.668	62.4252
18.686	62.6064
18.704	62.7748
18.722	62.9296
18.74	63.0623
18.758	63.1727
18.776	63.2553
18.794	63.3108
18.812	63.3375
18.83	63.337
18.848	63.3102
18.866	63.26
18.884	63.1905
18.902	63.105
18.92	63.0091
18.938	62.9065
18.956	62.804
18.974	62.7044
18.992	62.6143
19.01	62.5353
19.028	62.4725
19.046	62.4259
19.064	62.3984
19.082	62.3886
19.1	62.3964
19.118	62.4198
19.136	62.4561
19.154	62.5028
19.172	62.5548
19.19	62.6103
19.208	62.663
19.226	62.7124
19.244	62.7526
19.262	62.784
19.28	62.8032
19.298	62.811
19.316	62.8071
19.334	62.792
19.352	62.7687
19.37	62.737
19.388	62.7027
19.406	62.6654
19.424	62.6299
19.442	62.5964
19.46	62.5675
19.478	62.5441
19.496	62.5248
19.514	62.5102
19.532	62.4969
19.55	62.4842
19.568	62.4681
19.586	62.4447
19.604	62.412
19.622	62.3639
19.64	62.3005
19.658	62.2159
19.676	62.111
19.694	61.9835
19.712	61.8336
19.73	61.6647
19.748	61.4758
19.766	61.2749
19.784	61.062
19.802	60.8457
19.82	60.6301
19.838	60.4201
19.856	60.2242
19.874	60.0428
19.892	59.8867
19.91	59.7542
19.928	59.6532
19.946	59.5831
19.964	59.5459
19.982	59.5429
20	59.5712
20.018	59.6308
20.036	59.7186
20.054	59.8307
20.072	59.9664
20.09	60.1182
20.108	60.2871
20.126	60.4651
20.144	60.6526
20.162	60.8443
20.18	61.038
20.198	61.2324
20.216	61.4235
20.234	61.612
20.252	61.7944
20.27	61.9713
20.288	62.14
20.306	62.3008
20.324	62.4518
20.342	62.592
20.36	62.7209
20.378	62.8357
20.396	62.9371
20.414	63.0213
20.432	63.0889
20.45	63.1376
20.468	63.1665
20.486	63.1755
20.504	63.163
20.522	63.1296
20.54	63.0767
20.558	63.0035
20.576	62.9135
20.594	62.807
20.612	62.6867
20.63	62.5584
20.648	62.4208
20.666	62.2823
20.684	62.1421
20.702	62.0057
20.72	61.8774
20.738	61.757
20.756	61.6507
20.774	61.5572
20.792	61.4797
20.81	61.4192
20.828	61.375
20.846	61.3473
20.864	61.336
20.882	61.3379
20.9	61.354
20.918	61.3805
20.936	61.415
20.954	61.4575
20.972	61.5024
20.99	61.5511
21.008	61.5993
21.026	61.6452
21.044	61.6887
21.062	61.7264
21.08	61.7591
21.098	61.7854
21.116	61.8046
21.134	61.8173
21.152	61.8235
21.17	61.8231
21.188	61.8175
21.206	61.8065
21.224	61.7909
21.242	61.7719
21.26	61.7491
21.278	61.7239
21.296	61.6967
21.314	61.6676
21.332	61.6375
21.35	61.6061
21.368	61.5742
21.386	61.5418
21.404	61.509
21.422	61.4761
21.44	61.4429
21.458	61.4098
21.476	61.3767
21.494	61.3437
21.512	61.311
21.53	61.2785
21.548	61.2467
21.566	61.216
21.584	61.1862
21.602	61.1585
21.62	61.1327
21.638	61.1094
21.656	61.0889
21.674	61.0712
21.692	61.0569
21.71	61.0462
21.728	61.0392
21.746	61.037
21.764	61.0395
21.782	61.0468
21.8	61.0594
21.818	61.0771
21.836	61.0998
21.854	61.128
21.872	61.1608
21.89	61.1972
21.908	61.2378
21.926	61.2804
21.944	61.324
21.962	61.3689
21.98	61.4113
21.998	61.4517
22.016	61.4888
22.034	61.5186
22.052	61.5425
22.07	61.5583
22.088	61.5637
22.106	61.56
22.124	61.5452
22.142	61.5185
22.16	61.4809
22.178	61.4334
22.196	61.3747
22.214	61.3076
22.232	61.2349
22.25	61.1549
22.268	61.0726
22.286	60.9906
22.304	60.9075
22.322	60.8298
22.34	60.758
22.358	60.6924
22.376	60.6384
22.394	60.5952
22.412	60.5638
22.43	60.5469
22.448	60.5438
22.466	60.5543
22.484	60.5788
22.502	60.6175
22.52	60.6675
22.538	60.7285
22.556	60.8005
22.574	60.8783
22.592	60.9623
22.61	61.0514
22.628	61.1393
22.646	61.2276
22.664	61.3142
22.682	61.3939
22.7	61.4685
22.718	61.536
22.736	61.5931
22.754	61.641
22.772	61.6788
22.79	61.7054
22.808	61.7211
22.826	61.7267
22.844	61.7222
22.862	61.7074
22.88	61.6842
22.898	61.6532
22.916	61.614
22.934	61.5691
22.952	61.519
22.97	61.4634
22.988	61.4044
23.006	61.3424
23.024	61.2772
23.042	61.2102
23.06	61.1416
23.078	61.0713
23.096	60.9997
23.114	60.927
23.132	60.853
23.15	60.7781
23.168	60.7022
23.186	60.6253
23.204	60.5478
23.222	60.4693
23.24	60.3903
23.258	60.3121
23.276	60.2338
23.294	60.1565
23.312	60.0825
23.33	60.0111
23.348	59.9431
23.366	59.8819
23.384	59.827
23.402	59.7788
23.42	59.7406
23.438	59.7121
23.456	59.6933
23.474	59.6871
23.492	59.6938
23.51	59.7128
23.528	59.7457
23.546	59.7932
23.564	59.8546
23.582	59.9293
23.6	60.0175
23.618	60.1192
23.636	60.2314
23.654	60.3531
23.672	60.4858
23.69	60.6243
23.708	60.7659
23.726	60.9135
23.744	61.0613
23.762	61.2046
23.78	61.3472
23.798	61.4839
23.816	61.6091
23.834	61.7258
23.852	61.8311
23.87	61.92
23.888	61.9939
23.906	62.0521
23.924	62.0904
23.942	62.1086
23.96	62.1075
23.978	62.0854
23.996	62.0409
24.014	61.9751
24.032	61.8895
24.05	61.7847
24.068	61.6592
24.086	61.5174
24.104	61.3632
24.122	61.1932
24.14	61.0116
24.158	60.8242
24.176	60.6284
24.194	60.4262
24.212	60.2244
24.23	60.023
24.248	59.8209
24.266	59.6253
24.284	59.4398
24.302	59.2607
24.32	59.093
24.338	58.9421
24.356	58.8046
24.374	58.6828
24.392	58.5808
24.41	58.4986
24.428	58.4351
24.446	58.3916
24.464	58.369
24.482	58.3667
24.5	58.3831
24.518	58.417
24.536	58.4706
24.554	58.5403
24.572	58.6212
24.59	58.7155
24.608	58.822
24.626	58.9347
24.644	59.0517
24.662	59.1761
24.68	59.3015
24.698	59.4217
24.716	59.5414
24.734	59.6568
24.752	59.7606
24.77	59.853
24.788	59.9356
24.806	60.0026
24.824	60.0499
24.842	60.0808
24.86	60.0931
24.878	60.0837
24.896	60.0528
24.914	60.0013
24.932	59.9282
24.95	59.8331
24.968	59.7162
24.986	59.5784
25.004	59.4207
25.022	59.2414
25.04	59.0423
25.058	58.827
25.076	58.5965
25.094	58.3483
25.112	58.0876
25.13	57.8192
25.148	57.5392
25.166	57.2504
25.184	56.9596
25.202	56.6692
25.22	56.3748
25.238	56.0832
25.256	55.8018
25.274	55.5266
25.292	55.2591
25.31	55.0061
25.328	54.7713
25.346	54.5503
25.364	54.3469
25.382	54.1659
25.4	54.0057
25.418	53.8659
25.436	53.7512
25.454	53.665
25.472	53.6035
25.49	53.5695
25.508	53.5674
25.526	53.5971
25.544	53.6565
25.562	53.7502
25.58	53.8824
25.598	54.05
25.616	54.2541
25.634	54.4987
25.652	54.7858
25.67	55.1124
25.688	55.4809
25.706	55.8942
25.724	56.3532
25.742	56.8562
25.76	57.403
25.778	57.9938
25.796	58.6311
25.814	59.3116
25.832	60.0299
25.85	60.7838
25.868	61.5797
25.886	62.4082
25.904	63.2578
25.922	64.129
25.94	65.0282
25.958	65.9394
25.976	66.8467
25.994	67.7599
26.012	68.6774
26.03	69.5796
26.048	70.4502
26.066	71.3048
26.084	72.1351
26.102	72.9227
26.12	73.6567
26.138	74.3522
26.156	74.9978
26.174	75.5785
26.192	76.0889
26.21	76.539
26.228	76.9213
26.246	77.2278
26.264	77.4574
26.282	77.6145
26.3	77.6971
26.318	77.7032
26.336	77.6293
26.354	77.4794
26.372	77.2611
26.39	76.9814
26.408	76.6327
26.426	76.2194
26.444	75.7526
26.462	75.2408
26.48	74.6734
26.498	74.0575
26.516	73.4058
26.534	72.7272
26.552	72.0108
26.57	71.2635
26.588	70.496
26.606	69.7149
26.624	68.912
26.642	68.092
26.66	67.2619
26.678	66.4253
26.696	65.5764
26.714	64.7196
26.732	63.8603
26.75	63.0011
26.768	62.1377
26.786	61.2733
26.804	60.4115
26.822	59.5525
26.84	58.6913
26.858	57.8358
26.876	56.9946
26.894	56.1693
26.912	55.3503
26.93	54.5501
26.948	53.7829
26.966	53.0341
26.984	52.2597
27.002	51.5483
27.02	50.9975
27.028	50.8469