File: Bakgrunnsmateriale/MATLAB/FTIR/ftir_data/subAa/Mapping_121/BZ1503107-1_t53_cm-1.asc
PE IR       SPECTRUM    SPECTRUM    ASCII       PEDS        1.60
  -1
BZ6BA3~1.ASC
17/04/07
17:36:00.00
17/04/07
17:36:00.00
tln
$BZ1503107-1_t0053$<tbV0>[-7.8,-2.6,8.0,0.0,27,1,0]
370
64

2002,4.07
MIRTGS : RIGHTBACK : INTERNAL 2
MIR : ON : INTERNAL 2
OPTKBR

0.200000
8
8.000000
FILLER
RATIO
SPECTRUM
UNLOCKED 256

DOUBLE
64
COMBINED
1
0
0

1.000000
RATIO

1
0
TRUE
51149
0
LEFT NOT FITTED RIGHT NOT FITTED 0
NONE
NONE
15600
12
4.427000
51148
TRUE
1 0 8 72 0 0 0 0

15798

#HDR
-1
-1
#GR
CM-1
%T
2.38419e-05
0.0
5000
-1.000000
4631
8
81.5937
48.8808
#DATA
5000	65.5801
4996	66.4646
4992	66.4179
4988	65.9135
4984	65.3513
4980	64.0755
4976	63.3048
4972	64.3461
4968	65.5932
4964	65.5963
4960	64.7613
4956	64.1752
4952	64.2357
4948	64.2359
4944	63.9413
4940	63.8388
4936	63.9909
4932	64.1766
4928	64.1663
4924	64.1997
4920	64.4672
4916	64.6649
4912	64.8116
4908	64.8103
4904	64.6928
4900	64.6365
4896	64.6348
4892	64.5651
4888	64.438
4884	64.4707
4880	64.3682
4876	64.1994
4872	64.3726
4868	64.571
4864	64.6827
4860	64.9044
4856	64.9347
4852	64.7896
4848	64.6857
4844	64.5114
4840	64.2289
4836	64.0133
4832	64.1862
4828	64.5672
4824	64.6371
4820	64.5063
4816	64.451
4812	64.3994
4808	64.3746
4804	64.42
4800	64.5612
4796	64.6672
4792	64.5418
4788	64.4291
4784	64.5106
4780	64.5634
4776	64.5858
4772	64.7262
4768	64.8926
4764	64.8903
4760	64.662
4756	64.3596
4752	64.147
4748	64.0715
4744	64.1613
4740	64.4866
4736	64.7396
4732	64.6275
4728	64.4501
4724	64.3903
4720	64.426
4716	64.5258
4712	64.5346
4708	64.458
4704	64.3723
4700	64.4382
4696	64.819
4692	65.1176
4688	64.9741
4684	64.8226
4680	64.9594
4676	64.9447
4672	64.6725
4668	64.5352
4664	64.4705
4660	64.4547
4656	64.6363
4652	64.7853
4648	64.854
4644	64.9477
4640	65.024
4636	65.0142
4632	64.9956
4628	65.0472
4624	65.0688
4620	65.0379
4616	65.0548
4612	65.1682
4608	65.1692
4604	65.1347
4600	65.2015
4596	65.1941
4592	65.2151
4588	65.326
4584	65.3547
4580	65.344
4576	65.4376
4572	65.4965
4568	65.4382
4564	65.3907
4560	65.421
4556	65.4972
4552	65.4689
4548	65.3247
4544	65.3257
4540	65.5364
4536	65.6904
4532	65.8391
4528	65.9325
4524	65.7622
4520	65.6305
4516	65.633
4512	65.5742
4508	65.6549
4504	65.9579
4500	66.0616
4496	65.955
4492	66.0464
4488	66.1511
4484	66.0809
4480	66.0547
4476	65.9502
4472	65.7088
4468	65.5585
4464	65.406
4460	64.8066
4456	64.359
4452	64.7783
4448	64.6225
4444	59.6301
4440	52.5958
4436	57.0254
4432	61.4526
4428	52.3143
4424	49.5152
4420	55.7507
4416	60.5958
4412	63.6976
4408	65.2782
4404	65.7102
4400	66.0327
4396	66.7182
4392	67.1228
4388	66.4305
4384	65.5375
4380	65.2171
4376	65.3928
4372	65.5678
4368	65.6386
4364	66.0772
4360	66.5891
4356	66.4651
4352	65.9178
4348	65.4685
4344	65.3073
4340	65.3925
4336	65.5837
4332	65.7129
4328	65.7979
4324	65.7703
4320	65.5651
4316	65.4922
4312	65.5979
4308	65.6485
4304	65.6575
4300	65.6283
4296	65.4745
4292	65.3362
4288	65.2947
4284	65.2327
4280	65.1058
4276	65.0157
4272	65.1441
4268	65.3576
4264	65.3595
4260	65.1931
4256	65.0532
4252	65.0686
4248	65.1996
4244	65.222
4240	65.1414
4236	65.1435
4232	65.1474
4228	65.0632
4224	64.9737
4220	64.9002
4216	64.8187
4212	64.8372
4208	64.9558
4204	65.0355
4200	65.0194
4196	64.9458
4192	64.9215
4188	65.0057
4184	65.1718
4180	65.1513
4176	64.9847
4172	64.8765
4168	64.753
4164	64.7527
4160	64.9242
4156	65.0123
4152	64.8352
4148	64.6317
4144	64.6165
4140	64.6393
4136	64.6388
4132	64.6873
4128	64.8157
4124	64.959
4120	64.963
4116	64.7525
4112	64.5312
4108	64.5073
4104	64.6234
4100	64.7311
4096	64.7252
4092	64.6813
4088	64.7073
4084	64.8277
4080	64.9332
4076	64.8623
4072	64.7658
4068	64.7413
4064	64.741
4060	64.8007
4056	64.7356
4052	64.6321
4048	64.8036
4044	64.9226
4040	64.8318
4036	64.927
4032	65.0941
4028	64.9936
4024	64.8093
4020	64.8261
4016	64.9437
4012	64.9804
4008	64.9971
4004	65.0504
4000	65.0794
3996	65.1431
3992	65.2753
3988	65.3023
3984	65.1954
3980	65.0821
3976	65.0125
3972	64.9841
3968	64.9484
3964	64.9037
3960	64.9217
3956	65.0026
3952	65.1302
3948	65.2804
3944	65.3101
3940	65.1702
3936	65.0938
3932	65.0619
3928	64.9235
3924	64.9764
3920	65.1848
3916	65.1955
3912	65.1531
3908	65.1752
3904	65.2219
3900	65.308
3896	65.3577
3892	65.4002
3888	65.3982
3884	65.3044
3880	65.2005
3876	65.0592
3872	64.9689
3868	65.03
3864	65.0464
3860	64.9601
3856	64.997
3852	65.204
3848	65.3434
3844	65.3211
3840	65.2547
3836	65.2268
3832	65.2491
3828	65.2077
3824	65.0925
3820	65.0789
3816	65.0909
3812	64.9807
3808	64.895
3804	64.9643
3800	65.045
3796	64.9297
3792	64.7825
3788	64.9609
3784	65.3113
3780	65.3641
3776	65.1914
3772	65.0856
3768	65.0835
3764	65.1429
3760	65.1186
3756	64.9695
3752	64.8364
3748	64.8514
3744	64.938
3740	64.9013
3736	64.8445
3732	64.9303
3728	64.9966
3724	65.0076
3720	65.033
3716	65.0139
3712	65.016
3708	65.0833
3704	65.0904
3700	65.0039
3696	65.0074
3692	65.0791
3688	65.0866
3684	65.0406
3680	64.9607
3676	64.9597
3672	65.0027
3668	65.0153
3664	65.0588
3660	65.0947
3656	65.0913
3652	65.0823
3648	65.064
3644	65.0065
3640	65.0109
3636	65.1161
3632	65.173
3628	65.1829
3624	65.1262
3620	64.982
3616	64.9135
3612	64.9472
3608	64.9712
3604	64.9671
3600	64.969
3596	64.9887
3592	65.0508
3588	65.0895
3584	65.0573
3580	65.0247
3576	65.0145
3572	65.0572
3568	65.1513
3564	65.224
3560	65.1866
3556	65.0929
3552	65.1152
3548	65.1803
3544	65.1306
3540	65.0512
3536	65.0227
3532	64.9714
3528	64.9556
3524	65.0138
3520	65.057
3516	65.1022
3512	65.1676
3508	65.1836
3504	65.1526
3500	65.1412
3496	65.1445
3492	65.1537
3488	65.1884
3484	65.215
3480	65.1862
3476	65.1506
3472	65.1424
3468	65.1305
3464	65.127
3460	65.1329
3456	65.1367
3452	65.1832
3448	65.2179
3444	65.1778
3440	65.1008
3436	65.0487
3432	65.0519
3428	65.0301
3424	65.0453
3420	65.0854
3416	65.0308
3412	65.0355
3408	65.104
3404	65.0746
3400	65.0299
3396	65.0487
3392	65.0351
3388	64.9923
3384	65.012
3380	65.0732
3376	65.1597
3372	65.2302
3368	65.1631
3364	65.0594
3360	65.0264
3356	64.9725
3352	64.9737
3348	65.0508
3344	65.0225
3340	64.9634
3336	65.0018
3332	65.0526
3328	65.0655
3324	64.9949
3320	64.8719
3316	64.8681
3312	65.0104
3308	65.1232
3304	65.0851
3300	64.9329
3296	64.8419
3292	64.9268
3288	65.0522
3284	65.0956
3280	65.0937
3276	65.0464
3272	64.9646
3268	64.9078
3264	64.8335
3260	64.8194
3256	64.9206
3252	64.9566
3248	64.9377
3244	64.9681
3240	64.9822
3236	64.9258
3232	64.8802
3228	64.9152
3224	64.9337
3220	64.9233
3216	64.9546
3212	64.9698
3208	64.9588
3204	64.9597
3200	64.9495
3196	64.9642
3192	65.055
3188	65.1365
3184	65.1365
3180	65.1004
3176	65.0347
3172	65.0189
3168	65.1499
3164	65.2667
3160	65.2085
3156	65.0633
3152	64.9624
3148	64.9914
3144	65.0911
3140	65.0599
3136	64.967
3132	64.9841
3128	65.0652
3124	65.1029
3120	65.0815
3116	65.0539
3112	65.0273
3108	65.0298
3104	65.057
3100	65.0629
3096	65.0206
3092	64.9381
3088	64.8917
3084	64.9078
3080	64.9645
3076	65.048
3072	65.0803
3068	65.0656
3064	65.0999
3060	65.1255
3056	65.0912
3052	65.0134
3048	64.9064
3044	64.8787
3040	64.9552
3036	65.0555
3032	65.0912
3028	64.9847
3024	64.8433
3020	64.8173
3016	64.868
3012	64.9487
3008	65.1054
3004	65.2337
3000	65.157
2996	65.0178
2992	64.9861
2988	64.9779
2984	64.9665
2980	64.9823
2976	64.9152
2972	64.7642
2968	64.7533
2964	64.8469
2960	64.8514
2956	64.8051
2952	64.7967
2948	64.8108
2944	64.7979
2940	64.8095
2936	64.8787
2932	64.9417
2928	64.9896
2924	65.0212
2920	65.0331
2916	65.0206
2912	65.0017
2908	65.0032
2904	64.9671
2900	64.9019
2896	64.8768
2892	64.8749
2888	64.8812
2884	64.8583
2880	64.8102
2876	64.8538
2872	64.9481
2868	64.976
2864	65.0012
2860	65.0097
2856	64.9133
2852	64.8484
2848	64.8787
2844	64.9032
2840	64.9066
2836	64.8957
2832	64.8776
2828	64.8736
2824	64.8706
2820	64.872
2816	64.8818
2812	64.9026
2808	64.9436
2804	64.95
2800	64.9336
2796	64.9643
2792	64.9944
2788	64.9499
2784	64.8516
2780	64.817
2776	64.8665
2772	64.8536
2768	64.795
2764	64.8363
2760	64.9144
2756	64.9451
2752	64.9364
2748	64.8875
2744	64.8765
2740	64.8882
2736	64.8414
2732	64.8181
2728	64.8875
2724	64.9608
2720	64.9777
2716	64.997
2712	65.0162
2708	65.028
2704	65.0251
2700	64.9688
2696	64.943
2692	64.9714
2688	64.9802
2684	64.9715
2680	64.9624
2676	64.9379
2672	64.9159
2668	64.9206
2664	64.923
2660	64.9214
2656	64.9537
2652	65.0028
2648	65.0253
2644	65.0203
2640	65.0178
2636	64.9942
2632	64.9115
2628	64.8373
2624	64.8246
2620	64.8926
2616	64.9884
2612	64.9859
2608	64.9225
2604	64.8883
2600	64.8948
2596	64.9648
2592	65.0087
2588	64.9624
2584	64.9204
2580	64.9016
2576	64.8579
2572	64.7943
2568	64.7472
2564	64.7624
2560	64.7902
2556	64.7945
2552	64.8397
2548	64.9462
2544	65.023
2540	64.9701
2536	64.8849
2532	64.8834
2528	64.9437
2524	64.9722
2520	64.9251
2516	64.9314
2512	64.9812
2508	64.9228
2504	64.8204
2500	64.8249
2496	64.8895
2492	64.907
2488	64.9309
2484	65.0028
2480	65.0062
2476	64.9157
2472	64.8468
2468	64.836
2464	64.8643
2460	64.9049
2456	64.9212
2452	64.917
2448	64.9172
2444	64.9031
2440	64.8743
2436	64.8542
2432	64.8084
2428	64.7861
2424	64.8206
2420	64.8383
2416	64.8803
2412	64.9292
2408	64.8778
2404	64.7917
2400	64.7944
2396	64.8532
2392	64.8503
2388	64.7798
2384	64.7117
2380	64.7033
2376	64.7586
2372	64.8093
2368	64.8093
2364	64.7736
2360	64.7471
2356	64.735
2352	64.7074
2348	64.6984
2344	64.7361
2340	64.799
2336	64.8256
2332	64.802
2328	64.8164
2324	64.8264
2320	64.7641
2316	64.7356
2312	64.769
2308	64.7601
2304	64.7392
2300	64.7723
2296	64.7888
2292	64.7766
2288	64.7688
2284	64.7533
2280	64.742
2276	64.714
2272	64.664
2268	64.6801
2264	64.7576
2260	64.7901
2256	64.779
2252	64.7517
2248	64.7108
2244	64.7212
2240	64.7618
2236	64.7436
2232	64.7157
2228	64.7452
2224	64.7879
2220	64.7932
2216	64.7572
2212	64.7379
2208	64.7751
2204	64.7764
2200	64.7185
2196	64.7012
2192	64.7406
2188	64.7761
2184	64.73
2180	64.6631
2176	64.6512
2172	64.6266
2168	64.6327
2164	64.7171
2160	64.7492
2156	64.7032
2152	64.7286
2148	64.8134
2144	64.826
2140	64.7801
2136	64.744
2132	64.7578
2128	64.8018
2124	64.7659
2120	64.689
2116	64.7139
2112	64.7361
2108	64.7016
2104	64.7417
2100	64.8043
2096	64.8031
2092	64.7633
2088	64.695
2084	64.6514
2080	64.6411
2076	64.6053
2072	64.6155
2068	64.6996
2064	64.7785
2060	64.7836
2056	64.7142
2052	64.6624
2048	64.6395
2044	64.6233
2040	64.6286
2036	64.6294
2032	64.6105
2028	64.5797
2024	64.5326
2020	64.5455
2016	64.6103
2012	64.6363
2008	64.6672
2004	64.695
2000	64.7054
1996	64.7404
1992	64.7694
1988	64.7393
1984	64.6595
1980	64.6194
1976	64.6371
1972	64.6494
1968	64.6284
1964	64.5834
1960	64.5249
1956	64.5176
1952	64.6046
1948	64.6616
1944	64.6478
1940	64.6437
1936	64.6563
1932	64.6478
1928	64.609
1924	64.5774
1920	64.5735
1916	64.5795
1912	64.6009
1908	64.6043
1904	64.5774
1900	64.5327
1896	64.5157
1892	64.546
1888	64.5597
1884	64.5554
1880	64.5356
1876	64.4848
1872	64.4607
1868	64.4541
1864	64.4355
1860	64.46
1856	64.5216
1852	64.583
1848	64.6022
1844	64.5547
1840	64.5258
1836	64.5475
1832	64.5374
1828	64.4874
1824	64.4699
1820	64.467
1816	64.4738
1812	64.5086
1808	64.5076
1804	64.5057
1800	64.5504
1796	64.5719
1792	64.5413
1788	64.5076
1784	64.4971
1780	64.5085
1776	64.5225
1772	64.4941
1768	64.4519
1764	64.4187
1760	64.3979
1756	64.3898
1752	64.3205
1748	64.2411
1744	64.2407
1740	64.2519
1736	64.2013
1732	64.1463
1728	64.138
1724	64.1548
1720	64.2437
1716	64.3466
1712	64.3597
1708	64.3389
1704	64.3227
1700	64.3214
1696	64.3574
1692	64.3634
1688	64.3027
1684	64.2888
1680	64.3445
1676	64.3635
1672	64.3278
1668	64.2743
1664	64.2377
1660	64.2384
1656	64.2399
1652	64.2537
1648	64.3347
1644	64.3935
1640	64.3548
1636	64.328
1632	64.3476
1628	64.3232
1624	64.2566
1620	64.2142
1616	64.2371
1612	64.299
1608	64.3032
1604	64.2412
1600	64.2053
1596	64.2182
1592	64.2211
1588	64.1951
1584	64.1953
1580	64.1942
1576	64.1607
1572	64.1279
1568	64.0978
1564	64.1109
1560	64.1639
1556	64.2126
1552	64.2516
1548	64.2637
1544	64.223
1540	64.1658
1536	64.1633
1532	64.2141
1528	64.2687
1524	64.2521
1520	64.1436
1516	64.0789
1512	64.1259
1508	64.1787
1504	64.1839
1500	64.1534
1496	64.1416
1492	64.1927
1488	64.2668
1484	64.3272
1480	64.2829
1476	64.1766
1472	64.1183
1468	64.0706
1464	64.0235
1460	64.0278
1456	64.0507
1452	64.0795
1448	64.095
1444	64.0755
1440	64.0712
1436	64.0822
1432	64.068
1428	64.0384
1424	64.0987
1420	64.2603
1416	64.3095
1412	64.2268
1408	64.1906
1404	64.1736
1400	64.1197
1396	64.0881
1392	64.1039
1388	64.1107
1384	64.0784
1380	64.0483
1376	64.0615
1372	64.1098
1368	64.1195
1364	64.082
1360	64.0652
1356	64.0726
1352	64.0659
1348	64.0587
1344	64.0515
1340	63.9974
1336	63.9306
1332	63.9458
1328	64.0273
1324	64.0671
1320	64.02
1316	63.9498
1312	63.9095
1308	63.8928
1304	63.9156
1300	63.9722
1296	63.9854
1292	63.9554
1288	63.9843
1284	64.0319
1280	64.0511
1276	64.0651
1272	64.0222
1268	63.9833
1264	64.0025
1260	64.0182
1256	64.0055
1252	63.964
1248	63.9153
1244	63.9154
1240	63.9221
1236	63.8908
1232	63.8758
1228	63.8318
1224	63.7887
1220	63.8613
1216	63.9495
1212	63.9472
1208	63.9242
1204	63.9589
1200	63.9563
1196	63.865
1192	63.8004
1188	63.8048
1184	63.824
1180	63.7964
1176	63.7519
1172	63.7536
1168	63.7181
1164	63.6607
1160	63.6634
1156	63.6588
1152	63.6225
1148	63.6422
1144	63.6939
1140	63.7509
1136	63.8239
1132	63.8318
1128	63.7853
1124	63.8435
1120	63.925
1116	63.9176
1112	63.9161
1108	63.9227
1104	63.9012
1100	63.9274
1096	63.9557
1092	63.8625
1088	63.7165
1084	63.6755
1080	63.7733
1076	63.9212
1072	63.9129
1068	63.7649
1064	63.7148
1060	63.7077
1056	63.6902
1052	63.7779
1048	63.915
1044	63.9664
1040	63.9091
1036	63.8029
1032	63.7063
1028	63.6636
1024	63.6305
1020	63.5574
1016	63.5568
1012	63.6527
1008	63.774
1004	63.8627
1000	63.8779
996	 63.8598
992	 63.8263
988	 63.8214
984	 63.8737
980	 63.889
976	 63.8941
972	 63.9064
968	 63.827
964	 63.7703
960	 63.7878
956	 63.7357
952	 63.7113
948	 63.7627
944	 63.6854
940	 63.5459
936	 63.5314
932	 63.6511
928	 63.8018
924	 63.8372
920	 63.758
916	 63.6722
912	 63.7093
908	 63.8318
904	 63.8269
900	 63.7205
896	 63.6652
892	 63.6773
888	 63.8055
884	 63.9385
880	 63.8984
876	 63.8289
872	 63.8026
868	 63.7996
864	 63.8242
860	 63.8675
856	 63.9563
852	 63.97
848	 63.937
844	 63.9599
840	 63.9377
836	 63.9467
832	 63.9762
828	 63.9138
824	 63.8787
820	 63.8194
816	 63.6751
812	 63.5853
808	 63.5436
804	 63.4542
800	 63.4059
796	 63.5294
792	 63.7124
788	 63.7625
784	 63.7049
780	 63.6569
776	 63.6218
772	 63.6425
768	 63.5893
764	 63.344
760	 63.2283
756	 63.3859
752	 63.5771
748	 63.7304
744	 63.87
740	 63.7852
736	 63.5313
732	 63.3988
728	 63.4109
724	 63.5499
720	 63.6664
716	 63.5714
712	 63.3677
708	 63.2593
704	 63.2829
700	 63.2865
696	 63.2446
692	 63.3568
688	 63.469
684	 63.494
680	 63.7432
676	 63.9299
672	 63.6639
668	 63.2895
664	 63.2214
660	 63.5536
656	 63.9087
652	 64.0015
648	 63.8644
644	 63.3908
640	 63.0059
636	 62.8657
632	 62.7802
628	 63.0375
624	 63.5987
620	 63.8918
616	 63.2257
612	 62.4825
608	 62.7728
604	 62.9591
600	 62.6708
596	 63.0208
592	 63.7888
588	 63.9415
584	 63.3694
580	 63.0637
576	 63.4752
572	 63.7451
568	 63.8437
564	 64.3311
560	 64.5852
556	 64.1111
552	 63.5748
548	 63.302
544	 62.8932
540	 62.5299
536	 62.62
532	 62.9872
528	 63.5959
524	 64.2045
520	 64.1013
516	 63.2806
512	 62.6454
508	 62.7392
504	 62.6817
500	 62.4148
496	 62.5996
492	 62.8325
488	 62.8166
484	 62.882
480	 62.9457
476	 62.6134
472	 62.6513
468	 63.3915
464	 63.7424
460	 63.5295
456	 63.6389
452	 63.502
448	 63.1877
444	 63.7415
440	 63.7985
436	 62.9157
432	 62.5927
428	 63.2375
424	 64.2974
420	 64.8906
416	 64.6782
412	 64.6602
408	 62.5393
404	 57.857
400	 58.1918
396	 63.9611
392	 66.884
388	 66.0157
384	 66.9942
380	 71.5176
376	 78.9868
372	 80.9618
370	 77.3476