File: Bakgrunnsmateriale/MATLAB/FTIR/ftir_data/subAa/Mapping_121/BZ1503107-1_t79.asc
PE IR       SPECTRUM    SPECTRUM    ASCII       PEDS        1.60
  -1
BZ2D6F~1.ASC
17/04/07
19:44:05.00
17/04/07
19:44:31.00
tln
$BZ1503107-1_t0079$<tbV0>[10.4,5.2,8.0,0.0,27,1,0]
27.028
64

2002,4.07
MIRTGS : RIGHTBACK : INTERNAL 2
MIR : ON : INTERNAL 2
OPTKBR

0.200000
8
8.000000
FILLER
RATIO
SPECTRUM
UNLOCKED 256

DOUBLE
64
COMBINED
1
0
0

0.002000
RATIO

1
0
TRUE
51149
0
LEFT NOT FITTED RIGHT NOT FITTED 0
NONE
NONE
15600
12
4.427000
51148
TRUE
1 0 8 72 0 0 0 0

15798

#HDR
-1
-1
#GR
µM
%T
2.38419e-05
0.0
2.000000
0.002000
12515
8
77.9144
45.3181
#DATA
2.000000	 64.5756
2.018000	 65.721
2.036000	 65.3429
2.054000	 65.699
2.072000	 64.571
2.090000	 64.9197
2.108000	 64.6147
2.126000	 64.8197
2.144000	 65.085
2.162000	 65.4331
2.180000	 65.342
2.198000	 65.0766
2.216000	 65.5825
2.234000	 65.3774
2.252000	 48.1809
2.270000	 66.6776
2.288000	 65.3434
2.306000	 65.4166
2.324000	 65.0744
2.342000	 65.0615
2.360000	 65.0148
2.378000	 64.9544
2.396000	 64.9007
2.414000	 64.9682
2.432000	 64.8788
2.450000	 64.962
2.468000	 65.0683
2.486000	 65.1657
2.504000	 64.8494
2.522000	 64.8301
2.540000	 64.8396
2.558000	 65.022
2.576000	 64.8932
2.594000	 65.1604
2.612000	 64.8107
2.630000	 65.1377
2.648000	 64.9684
2.666000	 64.8318
2.684000	 65.1383
2.702000	 65.1402
2.720000	 64.9522
2.738000	 65.0569
2.756000	 64.9207
2.774000	 65.0646
2.792000	 64.9837
2.810000	 64.9872
2.828000	 65.1646
2.846000	 65.0888
2.864000	 64.9803
2.882000	 64.993
2.900000	 65.0727
2.918000	 64.8804
2.936000	 64.9221
2.954000	 64.9974
2.972000	 64.9741
2.990000	 65.1065
3.008000	 65.1391
3.026000	 65.0633
3.044000	 64.8826
3.062000	 64.865
3.080000	 65.055
3.098000	 65.0688
3.116000	 64.8308
3.134000	 65.0203
3.152000	 65.0389
3.170000	 64.8007
3.188000	 64.8058
3.206000	 65.0513
3.224000	 64.9418
3.242000	 64.9168
3.260000	 65.0047
3.278000	 64.962
3.296000	 65.0204
3.314000	 64.9996
3.332000	 65.1267
3.350000	 64.8252
3.368000	 64.8262
3.386000	 64.7782
3.404000	 64.788
3.422000	 64.81
3.440000	 64.6918
3.458000	 64.7544
3.476000	 64.7739
3.494000	 64.7233
3.512000	 64.7283
3.530000	 64.6811
3.548000	 64.8891
3.566000	 64.9306
3.584000	 64.8853
3.602000	 64.8842
3.620000	 64.8846
3.638000	 64.8226
3.656000	 64.9223
3.674000	 64.7387
3.692000	 64.8276
3.710000	 64.8507
3.728000	 64.9894
3.746000	 64.7823
3.764000	 64.8649
3.782000	 64.8002
3.800000	 64.7798
3.818000	 64.7427
3.836000	 64.8286
3.854000	 64.9154
3.872000	 64.7549
3.890000	 64.747
3.908000	 64.6303
3.926000	 64.6651
3.944000	 64.7794
3.962000	 64.6903
3.980000	 64.7167
3.998000	 64.668
4.016000	 64.7227
4.034000	 64.7919
4.052000	 64.7162
4.070000	 64.6619
4.088000	 64.6275
4.106000	 64.8356
4.124000	 64.8116
4.141999	 64.5985
4.160000	 64.6313
4.178000	 64.672
4.196000	 64.5714
4.214000	 64.6103
4.232000	 64.577
4.250000	 64.5112
4.268000	 64.5262
4.286000	 64.7599
4.304000	 64.6729
4.322000	 64.6452
4.340000	 64.6188
4.358000	 64.5002
4.375999	 64.5914
4.394000	 64.6117
4.412000	 64.6017
4.430000	 64.6586
4.448000	 64.5073
4.466000	 64.5326
4.484000	 64.5876
4.502000	 64.5775
4.520000	 64.571
4.538000	 64.4948
4.556000	 64.4368
4.574000	 64.4657
4.592000	 64.486
4.609999	 64.4045
4.628000	 64.4794
4.646000	 64.5107
4.664000	 64.4824
4.682000	 64.3841
4.700000	 64.5343
4.718000	 64.4237
4.736000	 64.4128
4.754000	 64.5237
4.772000	 64.4293
4.790000	 64.3933
4.808000	 64.3412
4.826000	 64.3697
4.843999	 64.3931
4.862000	 64.3877
4.880000	 64.4379
4.898000	 64.4699
4.916000	 64.4062
4.934000	 64.3299
4.952000	 64.4527
4.970000	 64.4602
4.988000	 64.4303
5.006000	 64.3112
5.024000	 64.2983
5.042000	 64.334
5.060000	 64.3583
5.077999	 64.4109
5.096000	 64.5157
5.114000	 64.4609
5.132000	 64.3443
5.150000	 64.3576
5.168000	 64.4242
5.186000	 64.4209
5.204000	 64.3317
5.222000	 64.2804
5.240000	 64.2742
5.258000	 64.3586
5.276000	 64.3845
5.294000	 64.3849
5.312000	 64.3366
5.330000	 64.326
5.348000	 64.2665
5.366000	 64.2277
5.384000	 64.2692
5.402000	 64.2988
5.420000	 64.3362
5.438000	 64.2392
5.456000	 64.1811
5.474000	 64.2293
5.492000	 64.1579
5.510000	 64.2021
5.528000	 64.2685
5.546000	 64.1926
5.564000	 64.185
5.582000	 64.1973
5.600000	 64.1334
5.618000	 64.1659
5.636000	 64.3092
5.654000	 64.3213
5.672000	 64.2394
5.690000	 64.2186
5.708000	 64.1241
5.726000	 63.9881
5.744000	 63.904
5.762000	 63.8781
5.780000	 63.87
5.798000	 63.964
5.816000	 64.0582
5.834000	 64.1331
5.852000	 64.0754
5.870000	 64.0021
5.888000	 64.0607
5.906000	 64.083
5.923999	 64.059
5.942000	 64.039
5.960000	 64.0773
5.978000	 64.0525
5.996000	 64.005
6.014000	 64.0204
6.032000	 64.1007
6.050000	 64.0858
6.068000	 64.1127
6.086000	 64.148
6.104000	 64.0913
6.122000	 64.0384
6.140000	 64.1159
6.158000	 64.1175
6.176000	 64.0157
6.194000	 63.9886
6.212000	 63.9795
6.230000	 63.9836
6.248000	 64.004
6.266000	 63.9524
6.284000	 63.8761
6.302000	 63.9272
6.320000	 63.906
6.338000	 63.8017
6.356000	 63.8206
6.374000	 63.8304
6.392000	 63.764
6.410000	 63.7976
6.428000	 63.8832
6.446000	 63.9213
6.464000	 63.9269
6.482000	 63.9475
6.500000	 63.9606
6.518000	 63.9444
6.536000	 63.9114
6.554000	 63.8519
6.572000	 63.8407
6.590000	 63.8935
6.608000	 63.9185
6.626000	 63.8918
6.644000	 63.8781
6.662000	 63.8336
6.680000	 63.7991
6.698000	 63.8235
6.716000	 63.8287
6.734000	 63.8885
6.752000	 63.9691
6.770000	 63.9686
6.788000	 63.9042
6.806000	 63.8253
6.824000	 63.7699
6.842000	 63.7834
6.860000	 63.84
6.878000	 63.8345
6.896000	 63.8055
6.914000	 63.8157
6.932000	 63.8206
6.950000	 63.8013
6.968000	 63.773
6.986000	 63.7918
7.004000	 63.8779
7.022000	 63.9578
7.040000	 63.9704
7.058000	 63.9008
7.076000	 63.7357
7.094000	 63.586
7.112000	 63.6083
7.130000	 63.7243
7.148000	 63.7847
7.166000	 63.7882
7.184000	 63.7578
7.202000	 63.716
7.220000	 63.704
7.238000	 63.7075
7.256000	 63.6912
7.274000	 63.6755
7.292000	 63.6781
7.310000	 63.6565
7.328000	 63.5987
7.346000	 63.5638
7.364000	 63.5677
7.382000	 63.5794
7.400000	 63.627
7.418000	 63.7349
7.436000	 63.8358
7.454000	 63.8833
7.472000	 63.8913
7.490000	 63.8419
7.508000	 63.7463
7.526000	 63.6963
7.544000	 63.7209
7.562000	 63.749
7.580000	 63.7481
7.598000	 63.7572
7.616000	 63.7891
7.634000	 63.7963
7.652000	 63.7592
7.670000	 63.715
7.688000	 63.6788
7.706000	 63.6292
7.724000	 63.5806
7.742000	 63.5765
7.760000	 63.6027
7.778000	 63.5949
7.796000	 63.5392
7.814000	 63.4917
7.832000	 63.4889
7.850000	 63.51
7.868000	 63.5326
7.886000	 63.5597
7.904000	 63.5886
7.922000	 63.6014
7.940000	 63.598
7.958000	 63.604
7.976000	 63.6249
7.994000	 63.6296
8.012000	 63.5991
8.030000	 63.5556
8.048000	 63.5299
8.065999	 63.5242
8.084000	 63.5204
8.102000	 63.5137
8.120000	 63.5204
8.138000	 63.5483
8.155999	 63.5767
8.173999	 63.5803
8.192000	 63.5616
8.210000	 63.5382
8.228000	 63.5173
8.246000	 63.502
8.263999	 63.5056
8.282000	 63.5345
8.300000	 63.5734
8.318000	 63.6033
8.336000	 63.6196
8.353999	 63.6146
8.372000	 63.5744
8.390000	 63.5114
8.408000	 63.4672
8.426000	 63.4632
8.443999	 63.4751
8.462000	 63.4699
8.480000	 63.4441
8.498000	 63.4085
8.516000	 63.3654
8.533999	 63.3215
8.552000	 63.3022
8.570000	 63.326
8.588000	 63.3737
8.606000	 63.4066
8.624000	 63.4136
8.641999	 63.4194
8.660000	 63.444
8.678000	 63.4737
8.696000	 63.481
8.714000	 63.4619
8.731999	 63.4402
8.750000	 63.4392
8.768000	 63.4589
8.786000	 63.4803
8.804000	 63.4863
8.821999	 63.4726
8.840000	 63.4471
8.858000	 63.4229
8.876000	 63.4116
8.894000	 63.4162
8.911999	 63.4275
8.930000	 63.434
8.948000	 63.4321
8.966000	 63.4269
8.984000	 63.4222
9.001999	 63.4144
9.020000	 63.3981
9.038000	 63.3718
9.056000	 63.338
9.074000	 63.3025
9.092000	 63.2753
9.109999	 63.2674
9.128000	 63.2817
9.146000	 63.3109
9.164000	 63.3452
9.182000	 63.3796
9.199999	 63.4112
9.218000	 63.4305
9.236000	 63.4267
9.254000	 63.403
9.272000	 63.3802
9.289999	 63.3783
9.308000	 63.395
9.326000	 63.4094
9.344000	 63.4062
9.362000	 63.3922
9.379999	 63.3859
9.398000	 63.3956
9.416000	 63.413
9.434000	 63.4246
9.452000	 63.4254
9.469999	 63.4196
9.488000	 63.4157
9.506000	 63.4234
9.524000	 63.4529
9.542000	 63.5049
9.560000	 63.5587
9.577999	 63.5769
9.596000	 63.5322
9.614000	 63.4329
9.632000	 63.323
9.650000	 63.2526
9.667999	 63.2447
9.686000	 63.284
9.704000	 63.3342
9.722000	 63.3669
9.740000	 63.3749
9.757999	 63.3685
9.776000	 63.3625
9.794000	 63.3652
9.812000	 63.3771
9.830000	 63.3932
9.847999	 63.4069
9.866000	 63.4124
9.884000	 63.4081
9.902000	 63.3978
9.920000	 63.3879
9.937999	 63.3807
9.956000	 63.3702
9.974000	 63.3451
9.992000	 63.2988
10.01	63.2373
10.028	63.1818
10.046	63.1561
10.064	63.1735
10.082	63.2286
10.1	63.3037
10.118	63.381
10.136	63.4532
10.154	63.5215
10.172	63.5876
10.19	63.6449
10.208	63.6793
10.226	63.6782
10.244	63.6394
10.262	63.5749
10.28	63.505
10.298	63.449
10.316	63.4167
10.334	63.4045
10.352	63.4001
10.37	63.3902
10.388	63.3695
10.406	63.3438
10.424	63.3262
10.442	63.3276
10.46	63.3496
10.478	63.3831
10.496	63.414
10.514	63.4331
10.532	63.4402
10.55	63.4412
10.568	63.4421
10.586	63.4419
10.604	63.4341
10.622	63.4119
10.64	63.3745
10.658	63.3294
10.676	63.2893
10.694	63.2639
10.712	63.2557
10.73	63.2589
10.748	63.264
10.766	63.2641
10.784	63.2584
10.802	63.2522
10.82	63.2532
10.838	63.2682
10.856	63.2996
10.874	63.3452
10.892	63.3989
10.91	63.452
10.928	63.4952
10.946	63.5204
10.964	63.5249
10.982	63.5114
11	63.4876
11.018	63.4639
11.036	63.4466
11.054	63.4364
11.072	63.4293
11.09	63.4193
11.108	63.4045
11.126	63.3893
11.144	63.3811
11.162	63.387
11.18	63.4076
11.198	63.4359
11.216	63.4595
11.234	63.4666
11.252	63.45
11.27	63.4109
11.288	63.3587
11.306	63.3051
11.324	63.2625
11.342	63.2409
11.36	63.2457
11.378	63.2787
11.396	63.338
11.414	63.4182
11.432	63.5104
11.45	63.6032
11.468	63.6829
11.486	63.7377
11.504	63.7605
11.522	63.7508
11.54	63.7145
11.558	63.6634
11.576	63.6098
11.594	63.5616
11.612	63.521
11.63	63.4838
11.648	63.4434
11.666	63.3946
11.684	63.3385
11.702	63.283
11.72	63.2402
11.738	63.2208
11.756	63.2286
11.774	63.2589
11.792	63.3006
11.81	63.3414
11.828	63.3725
11.846	63.392
11.864	63.404
11.882	63.4149
11.9	63.43
11.918	63.4498
11.936	63.4693
11.954	63.4801
11.972	63.474
11.99	63.4466
12.008	63.3989
12.026	63.3368
12.044	63.2697
12.062	63.2074
12.08	63.1577
12.098	63.1245
12.116	63.1076
12.134	63.1036
12.152	63.1071
12.17	63.1132
12.188	63.1183
12.206	63.1206
12.224	63.1195
12.242	63.115
12.26	63.1063
12.278	63.0933
12.296	63.0761
12.314	63.0568
12.332	63.0391
12.35	63.0275
12.368	63.0265
12.386	63.0385
12.404	63.0627
12.422	63.0945
12.44	63.1269
12.458	63.1524
12.476	63.165
12.494	63.162
12.512	63.1451
12.53	63.1191
12.548	63.0906
12.566	63.0665
12.584	63.0517
12.602	63.0488
12.62	63.0575
12.638	63.0757
12.656	63.0999
12.674	63.1267
12.692	63.1533
12.71	63.1786
12.728	63.2023
12.746	63.2255
12.764	63.2491
12.782	63.2736
12.8	63.2986
12.818	63.3224
12.836	63.3424
12.854	63.3558
12.872	63.3603
12.89	63.3548
12.908	63.3402
12.926	63.319
12.944	63.2948
12.962	63.2713
12.98	63.2513
12.998	63.2359
13.016	63.2246
13.034	63.216
13.052	63.208
13.07	63.1994
13.088	63.1898
13.106	63.1797
13.124	63.1704
13.142	63.1634
13.16	63.1601
13.178	63.1614
13.196	63.167
13.214	63.1757
13.232	63.1857
13.25	63.1952
13.268	63.2019
13.286	63.2047
13.304	63.203
13.322	63.1975
13.34	63.1891
13.358	63.1791
13.376	63.169
13.394	63.1596
13.412	63.1518
13.43	63.146
13.448	63.1423
13.466	63.1412
13.484	63.1432
13.502	63.1487
13.52	63.158
13.538	63.1708
13.556	63.1859
13.574	63.2008
13.592	63.2121
13.61	63.2159
13.628	63.2082
13.646	63.1863
13.664	63.1489
13.682	63.0967
13.7	63.0323
13.718	62.9598
13.736	62.8846
13.754	62.8118
13.772	62.7465
13.79	62.6928
13.808	62.6537
13.826	62.6307
13.844	62.6241
13.862	62.6334
13.88	62.6566
13.898	62.6912
13.916	62.7338
13.934	62.7808
13.952	62.8282
13.97	62.8725
13.988	62.9109
14.006	62.9411
14.024	62.9619
14.042	62.9734
14.06	62.9768
14.078	62.9737
14.096	62.9659
14.114	62.9551
14.132	62.9429
14.15	62.9302
14.168	62.9175
14.186	62.9052
14.204	62.8931
14.222	62.8812
14.24	62.8697
14.258	62.8588
14.276	62.849
14.294	62.8402
14.312	62.8327
14.33	62.8264
14.348	62.821
14.366	62.816
14.384	62.8108
14.402	62.8049
14.42	62.7979
14.438	62.79
14.456	62.782
14.474	62.7746
14.492	62.769
14.51	62.7664
14.528	62.7678
14.546	62.7745
14.564	62.7876
14.582	62.8081
14.6	62.8365
14.618	62.8727
14.636	62.9159
14.654	62.9646
14.672	63.0162
14.69	63.0675
14.708	63.1151
14.726	63.1553
14.744	63.1846
14.762	63.2007
14.78	63.2019
14.798	63.1875
14.816	63.1572
14.834	63.1119
14.852	63.053
14.87	62.9828
14.888	62.9045
14.906	62.8217
14.924	62.7387
14.942	62.6608
14.96	62.5929
14.978	62.5398
14.996	62.5053
15.014	62.492
15.032	62.5014
15.05	62.532
15.068	62.5808
15.086	62.6432
15.104	62.7133
15.122	62.7833
15.14	62.846
15.158	62.8957
15.176	62.9276
15.194	62.9381
15.212	62.9259
15.23	62.8925
15.248	62.8405
15.266	62.774
15.284	62.6985
15.302	62.62
15.32	62.5436
15.338	62.474
15.356	62.4156
15.374	62.3718
15.392	62.3438
15.41	62.3319
15.428	62.3354
15.446	62.3515
15.464	62.377
15.482	62.4085
15.5	62.442
15.518	62.4727
15.536	62.4974
15.554	62.5137
15.572	62.5196
15.59	62.515
15.608	62.5011
15.626	62.4795
15.644	62.4533
15.662	62.4265
15.68	62.402
15.698	62.3828
15.716	62.3713
15.734	62.3683
15.752	62.3735
15.77	62.3861
15.788	62.4032
15.806	62.4214
15.824	62.4377
15.842	62.4483
15.86	62.4499
15.878	62.4413
15.896	62.4212
15.914	62.3907
15.932	62.3517
15.95	62.3069
15.968	62.26
15.986	62.2161
16.004	62.179
16.022	62.1526
16.04	62.1413
16.058	62.1469
16.076	62.1711
16.094	62.2146
16.112	62.2761
16.13	62.3538
16.148	62.4452
16.166	62.5452
16.184	62.6499
16.202	62.7546
16.22	62.8526
16.238	62.9399
16.256	63.0121
16.274	63.0648
16.292	63.0969
16.31	63.1072
16.328	63.097
16.346	63.0693
16.364	63.0269
16.382	62.9761
16.4	62.9228
16.418	62.8716
16.436	62.8297
16.454	62.801
16.472	62.7882
16.49	62.7936
16.508	62.816
16.526	62.8544
16.544	62.9045
16.562	62.9615
16.58	63.0218
16.598	63.0787
16.616	63.1291
16.634	63.1697
16.652	63.1977
16.67	63.213
16.688	63.2152
16.706	63.2061
16.724	63.1873
16.742	63.1609
16.76	63.1296
16.778	63.0948
16.796	63.0585
16.814	63.0216
16.832	62.9845
16.85	62.9475
16.868	62.9108
16.886	62.8747
16.904	62.8393
16.922	62.8052
16.94	62.773
16.958	62.7437
16.976	62.7177
16.994	62.6962
17.012	62.6794
17.03	62.6673
17.048	62.659
17.066	62.6533
17.084	62.6487
17.102	62.6422
17.12	62.6324
17.138	62.6164
17.156	62.5934
17.174	62.5621
17.192	62.5227
17.21	62.4758
17.228	62.423
17.246	62.3666
17.264	62.308
17.282	62.2505
17.3	62.1949
17.318	62.1432
17.336	62.0957
17.354	62.0528
17.372	62.014
17.39	61.9787
17.408	61.9462
17.426	61.9158
17.444	61.8868
17.462	61.8595
17.48	61.8342
17.498	61.8123
17.516	61.796
17.534	61.7868
17.552	61.7876
17.57	61.7992
17.588	61.8244
17.606	61.8635
17.624	61.9174
17.642	61.9851
17.66	62.0666
17.678	62.1585
17.696	62.2597
17.714	62.3663
17.732	62.4756
17.75	62.5844
17.768	62.6892
17.786	62.7884
17.804	62.8792
17.822	62.9611
17.84	63.033
17.858	63.0954
17.876	63.1486
17.894	63.194
17.912	63.2321
17.93	63.2652
17.948	63.2936
17.966	63.319
17.984	63.3414
18.002	63.3613
18.02	63.3784
18.038	63.3925
18.056	63.403
18.074	63.4097
18.092	63.4114
18.11	63.408
18.128	63.3982
18.146	63.3822
18.164	63.3596
18.182	63.3307
18.2	63.2958
18.218	63.2549
18.236	63.2081
18.254	63.1552
18.272	63.096
18.29	63.0299
18.308	62.9568
18.326	62.8759
18.344	62.7873
18.362	62.6906
18.38	62.5864
18.398	62.4753
18.416	62.3589
18.434	62.2386
18.452	62.1175
18.47	61.9974
18.488	61.8833
18.506	61.7766
18.524	61.6832
18.542	61.6041
18.56	61.5439
18.578	61.5032
18.596	61.4842
18.614	61.4869
18.632	61.5103
18.65	61.554
18.668	61.6138
18.686	61.6887
18.704	61.7718
18.722	61.8619
18.74	61.9515
18.758	62.0394
18.776	62.1188
18.794	62.1891
18.812	62.2457
18.83	62.289
18.848	62.3164
18.866	62.3299
18.884	62.3304
18.902	62.3206
18.92	62.3041
18.938	62.2841
18.956	62.2657
18.974	62.2518
18.992	62.2474
19.01	62.2545
19.028	62.2777
19.046	62.3171
19.064	62.3755
19.082	62.4515
19.1	62.5456
19.118	62.6552
19.136	62.7777
19.154	62.9107
19.172	63.0489
19.19	63.1902
19.208	63.3276
19.226	63.4602
19.244	63.5809
19.262	63.6895
19.28	63.7802
19.298	63.8534
19.316	63.9053
19.334	63.9365
19.352	63.9462
19.37	63.9345
19.388	63.9037
19.406	63.8538
19.424	63.789
19.442	63.7093
19.46	63.6193
19.478	63.5193
19.496	63.4136
19.514	63.3031
19.532	63.1911
19.55	63.0796
19.568	62.9704
19.586	62.8658
19.604	62.7667
19.622	62.6757
19.64	62.5929
19.658	62.5203
19.676	62.4576
19.694	62.4067
19.712	62.3675
19.73	62.3401
19.748	62.3246
19.766	62.32
19.784	62.3265
19.802	62.3419
19.82	62.3654
19.838	62.395
19.856	62.4279
19.874	62.4635
19.892	62.4974
19.91	62.53
19.928	62.5568
19.946	62.5782
19.964	62.5912
19.982	62.5952
20	62.5894
20.018	62.5726
20.036	62.5458
20.054	62.5088
20.072	62.4624
20.09	62.4093
20.108	62.349
20.126	62.2858
20.144	62.2193
20.162	62.1535
20.18	62.0896
20.198	62.0295
20.216	61.9763
20.234	61.9299
20.252	61.8936
20.27	61.8671
20.288	61.852
20.306	61.8488
20.324	61.8573
20.342	61.878
20.36	61.9101
20.378	61.9528
20.396	62.0062
20.414	62.0678
20.432	62.1383
20.45	62.215
20.468	62.2972
20.486	62.3839
20.504	62.4727
20.522	62.5641
20.54	62.6554
20.558	62.7467
20.576	62.8365
20.594	62.924
20.612	63.0088
20.63	63.0896
20.648	63.1666
20.666	63.2382
20.684	63.3048
20.702	63.3654
20.72	63.4196
20.738	63.4674
20.756	63.5075
20.774	63.5402
20.792	63.5649
20.81	63.5819
20.828	63.5904
20.846	63.59
20.864	63.5808
20.882	63.562
20.9	63.5338
20.918	63.4959
20.936	63.4477
20.954	63.3896
20.972	63.3219
20.99	63.2444
21.008	63.1582
21.026	63.0631
21.044	62.9598
21.062	62.8501
21.08	62.7333
21.098	62.6121
21.116	62.4867
21.134	62.3583
21.152	62.23
21.17	62.1008
21.188	61.9745
21.206	61.8514
21.224	61.7328
21.242	61.622
21.26	61.5179
21.278	61.4237
21.296	61.3399
21.314	61.2667
21.332	61.2064
21.35	61.1582
21.368	61.1228
21.386	61.1008
21.404	61.0916
21.422	61.0949
21.44	61.111
21.458	61.1381
21.476	61.1757
21.494	61.2235
21.512	61.2786
21.53	61.342
21.548	61.411
21.566	61.4838
21.584	61.561
21.602	61.6389
21.62	61.7181
21.638	61.7968
21.656	61.8723
21.674	61.9458
21.692	62.0146
21.71	62.0783
21.728	62.1366
21.746	62.1874
21.764	62.2311
21.782	62.2672
21.8	62.2949
21.818	62.3145
21.836	62.3258
21.854	62.3285
21.872	62.3233
21.89	62.311
21.908	62.2911
21.926	62.2654
21.944	62.2348
21.962	62.199
21.98	62.1612
21.998	62.1208
22.016	62.0792
22.034	62.0396
22.052	62.0008
22.07	61.9652
22.088	61.9347
22.106	61.9084
22.124	61.8884
22.142	61.8755
22.16	61.8692
22.178	61.8702
22.196	61.8789
22.214	61.8945
22.232	61.9165
22.25	61.9454
22.268	61.9791
22.286	62.0169
22.304	62.0592
22.322	62.1027
22.34	62.1475
22.358	62.1931
22.376	62.2366
22.394	62.2785
22.412	62.3179
22.43	62.353
22.448	62.3842
22.466	62.4111
22.484	62.4329
22.502	62.4499
22.52	62.4623
22.538	62.4702
22.556	62.4736
22.574	62.474
22.592	62.4712
22.61	62.4656
22.628	62.4592
22.646	62.4515
22.664	62.4432
22.682	62.4356
22.7	62.4286
22.718	62.4223
22.736	62.4175
22.754	62.414
22.772	62.4117
22.79	62.4107
22.808	62.411
22.826	62.4118
22.844	62.4128
22.862	62.4143
22.88	62.4149
22.898	62.4142
22.916	62.4124
22.934	62.4086
22.952	62.4021
22.97	62.3935
22.988	62.382
23.006	62.3674
23.024	62.3499
23.042	62.3303
23.06	62.308
23.078	62.2837
23.096	62.2595
23.114	62.2349
23.132	62.2105
23.15	62.1893
23.168	62.1709
23.186	62.1557
23.204	62.1459
23.222	62.1415
23.24	62.1425
23.258	62.1506
23.276	62.166
23.294	62.1883
23.312	62.2182
23.33	62.2562
23.348	62.3016
23.366	62.3535
23.384	62.4127
23.402	62.4784
23.42	62.5481
23.438	62.6224
23.456	62.7006
23.474	62.78
23.492	62.8605
23.51	62.9422
23.528	63.0222
23.546	63.0998
23.564	63.1758
23.582	63.2482
23.6	63.3161
23.618	63.3802
23.636	63.4401
23.654	63.4952
23.672	63.5459
23.69	63.5925
23.708	63.6352
23.726	63.6736
23.744	63.7086
23.762	63.7409
23.78	63.7699
23.798	63.7963
23.816	63.8209
23.834	63.8434
23.852	63.8641
23.87	63.8833
23.888	63.9013
23.906	63.9177
23.924	63.9324
23.942	63.9456
23.96	63.9572
23.978	63.9663
23.996	63.9729
24.014	63.9772
24.032	63.9784
24.05	63.9759
24.068	63.9703
24.086	63.9612
24.104	63.948
24.122	63.9306
24.14	63.9098
24.158	63.8865
24.176	63.8598
24.194	63.8305
24.212	63.8004
24.23	63.7693
24.248	63.737
24.266	63.706
24.284	63.6779
24.302	63.6512
24.32	63.6276
24.338	63.6087
24.356	63.5936
24.374	63.5829
24.392	63.5778
24.41	63.579
24.428	63.5854
24.446	63.5959
24.464	63.6104
24.482	63.6297
24.5	63.6504
24.518	63.6698
24.536	63.6913
24.554	63.7105
24.572	63.7218
24.59	63.7274
24.608	63.7264
24.626	63.7123
24.644	63.6822
24.662	63.6399
24.68	63.5801
24.698	63.498
24.716	63.3961
24.734	63.2735
24.752	63.1273
24.77	62.9564
24.788	62.7622
24.806	62.5461
24.824	62.3084
24.842	62.0472
24.86	61.7666
24.878	61.4709
24.896	61.1563
24.914	60.8256
24.932	60.4873
24.95	60.1449
24.968	59.7926
24.986	59.4397
25.004	59.0961
25.022	58.7554
25.04	58.4213
25.058	58.1052
25.076	57.8114
25.094	57.5331
25.112	57.2795
25.13	57.0603
25.148	56.8709
25.166	56.7124
25.184	56.5913
25.202	56.5111
25.22	56.4684
25.238	56.4637
25.256	56.4979
25.274	56.573
25.292	56.6862
25.31	56.8333
25.328	57.0132
25.346	57.2295
25.364	57.475
25.382	57.7416
25.4	58.0333
25.418	58.3493
25.436	58.6785
25.454	59.0129
25.472	59.3616
25.49	59.7166
25.508	60.0661
25.526	60.4089
25.544	60.7505
25.562	61.0806
25.58	61.3899
25.598	61.6837
25.616	61.9605
25.634	62.213
25.652	62.4361
25.67	62.6345
25.688	62.8065
25.706	62.9497
25.724	63.0628
25.742	63.1473
25.76	63.2049
25.778	63.2371
25.796	63.2417
25.814	63.2208
25.832	63.178
25.85	63.1157
25.868	63.0304
25.886	62.9258
25.904	62.8059
25.922	62.6714
25.94	62.5201
25.958	62.3557
25.976	62.1823
25.994	61.9986
26.012	61.8042
26.03	61.6019
26.048	61.3945
26.066	61.181
26.084	60.9608
26.102	60.7342
26.12	60.5012
26.138	60.2617
26.156	60.0158
26.174	59.7637
26.192	59.5049
26.21	59.2392
26.228	58.9682
26.246	58.6938
26.264	58.4141
26.282	58.1289
26.3	57.8435
26.318	57.5627
26.336	57.2823
26.354	57.0035
26.372	56.7337
26.39	56.4797
26.408	56.2342
26.426	56.0008
26.444	55.7891
26.462	55.6067
26.48	55.4431
26.498	55.3053
26.516	55.2052
26.534	55.1517
26.552	55.1352
26.57	55.16
26.588	55.2336
26.606	55.3614
26.624	55.5389
26.642	55.7657
26.66	56.0424
26.678	56.3715
26.696	56.7557
26.714	57.1864
26.732	57.654
26.75	58.1567
26.768	58.7059
26.786	59.2851
26.804	59.8762
26.822	60.474
26.84	61.0968
26.858	61.7229
26.876	62.3279
26.894	62.9031
26.912	63.471
26.93	64.01
26.948	64.4955
26.966	64.9159
26.984	65.2931
27.002	65.6115
27.02	65.8525
27.028	65.9215