File: Bakgrunnsmateriale/MATLAB/FTIR/ftir_data/subAa/Mapping_121/BZ1503107-1_e125.asc
PE IR       SPECTRUM    SPECTRUM    ASCII       PEDS        1.60
  -1
BZD0A6~1.ASC
17/04/07
18:42:25.00
17/04/07
18:42:52.00
tln
$BZ1503107-1_e0125$<ebV0>[-23.3,12.1,10.0,0.0,27,1,0]
27.028
64

2002,4.07
MIRTGS : RIGHTBACK : INTERNAL 2
MIR : ON : INTERNAL 2
OPTKBR

0.200000
8
8.000000
FILLER
SINGLE
SPECTRUM
UNLOCKED 256

DOUBLE

COMBINED
1
0
0

0.002000
BACKG

1
0
TRUE
51149
0
LEFT NOT FITTED RIGHT NOT FITTED 0
NONE
NONE
15600
12
4.427000
51148
TRUE
1 0 8 72 0 0 0 0

15798

#HDR
-1
-1
#GR
µM
EGY
2.38419e-05
0.0
2.000000
0.002000
12515
8
2.468705
0.006961
#DATA
2.000000	 0.774884
2.018000	 0.796669
2.036000	 0.812350
2.054000	 0.832507
2.072000	 0.861704
2.090000	 0.887218
2.108000	 0.906432
2.126000	 0.917134
2.144000	 0.923366
2.162000	 0.932403
2.180000	 0.956394
2.198000	 0.986656
2.216000	 1.003044
2.234000	 1.014996
2.252000	 1.009272
2.270000	 1.035042
2.288000	 1.058135
2.306000	 1.082482
2.324000	 1.125808
2.342000	 1.159377
2.360000	 1.186280
2.378000	 1.203625
2.396000	 1.218934
2.414000	 1.239871
2.432000	 1.261788
2.450000	 1.301750
2.468000	 1.341506
2.486000	 1.380126
2.504000	 1.409651
2.522000	 1.424097
2.540000	 1.435920
2.558000	 1.440557
2.576000	 1.451508
2.594000	 1.458174
2.612000	 1.503606
2.630000	 1.522995
2.648000	 1.557376
2.666000	 1.560793
2.684000	 1.581653
2.702000	 1.586460
2.720000	 1.577712
2.738000	 1.579888
2.756000	 1.587493
2.774000	 1.600260
2.792000	 1.616852
2.810000	 1.629666
2.828000	 1.634762
2.846000	 1.639740
2.864000	 1.634058
2.882000	 1.619651
2.900000	 1.605081
2.918000	 1.598692
2.936000	 1.607111
2.954000	 1.619937
2.972000	 1.637882
2.990000	 1.669234
3.008000	 1.698819
3.026000	 1.727909
3.044000	 1.756465
3.062000	 1.776038
3.080000	 1.789527
3.098000	 1.796397
3.116000	 1.801166
3.134000	 1.803814
3.152000	 1.810009
3.170000	 1.820824
3.188000	 1.838703
3.206000	 1.857091
3.224000	 1.888176
3.242000	 1.923034
3.260000	 1.944371
3.278000	 1.973218
3.296000	 1.993305
3.314000	 1.974372
3.332000	 2.036992
3.350000	 2.041089
3.368000	 1.979795
3.386000	 1.936585
3.404000	 1.841751
3.422000	 1.792499
3.440000	 1.944327
3.458000	 1.999029
3.476000	 2.015076
3.494000	 1.920675
3.512000	 2.026942
3.530000	 2.116815
3.548000	 2.156655
3.566000	 2.187220
3.584000	 2.212445
3.602000	 2.237648
3.620000	 2.252928
3.638000	 2.264816
3.656000	 2.267346
3.674000	 2.267469
3.692000	 2.261842
3.710000	 2.256250
3.728000	 2.246089
3.746000	 2.240098
3.764000	 2.232962
3.782000	 2.230201
3.800000	 2.230248
3.818000	 2.230808
3.836000	 2.236794
3.854000	 2.240332
3.872000	 2.255086
3.890000	 2.272765
3.908000	 2.290383
3.926000	 2.304583
3.944000	 2.317246
3.962000	 2.326908
3.980000	 2.336079
3.998000	 2.337261
4.016000	 2.337913
4.034000	 2.333506
4.052000	 2.326678
4.070000	 2.315905
4.088000	 2.304859
4.106000	 2.294659
4.124000	 2.282532
4.141999	 2.272769
4.160000	 2.266271
4.178000	 2.263366
4.196000	 2.257998
4.214000	 2.248385
4.232000	 2.244571
4.250000	 2.262932
4.268000	 2.274651
4.286000	 2.282121
4.304000	 2.305382
4.322000	 2.324342
4.340000	 2.341592
4.358000	 2.359701
4.375999	 2.369405
4.394000	 2.375728
4.412000	 2.383075
4.430000	 2.386982
4.448000	 2.391010
4.466000	 2.392921
4.484000	 2.387624
4.502000	 2.383390
4.520000	 2.378165
4.538000	 2.372430
4.556000	 2.366206
4.574000	 2.356939
4.592000	 2.351929
4.609999	 2.347646
4.628000	 2.343677
4.646000	 2.342733
4.664000	 2.343445
4.682000	 2.342830
4.700000	 2.342323
4.718000	 2.346785
4.736000	 2.346976
4.754000	 2.347866
4.772000	 2.347970
4.790000	 2.349083
4.808000	 2.356280
4.826000	 2.367186
4.843999	 2.383988
4.862000	 2.400760
4.880000	 2.416738
4.898000	 2.431213
4.916000	 2.442060
4.934000	 2.450239
4.952000	 2.454010
4.970000	 2.461170
4.988000	 2.465753
5.006000	 2.468536
5.024000	 2.467381
5.042000	 2.461544
5.060000	 2.455004
5.077999	 2.449134
5.096000	 2.441517
5.114000	 2.435245
5.132000	 2.430957
5.150000	 2.424630
5.168000	 2.419698
5.186000	 2.413341
5.204000	 2.404593
5.222000	 2.396891
5.240000	 2.390326
5.258000	 2.384812
5.276000	 2.381312
5.294000	 2.378405
5.312000	 2.382420
5.330000	 2.384325
5.348000	 2.385446
5.366000	 2.392338
5.384000	 2.398506
5.402000	 2.401013
5.420000	 2.402644
5.438000	 2.412793
5.456000	 2.416948
5.474000	 2.419969
5.492000	 2.429217
5.510000	 2.433168
5.528000	 2.437709
5.546000	 2.439843
5.564000	 2.437082
5.582000	 2.434848
5.600000	 2.438272
5.618000	 2.435197
5.636000	 2.423439
5.654000	 2.418830
5.672000	 2.418252
5.690000	 2.409547
5.708000	 2.395610
5.726000	 2.379080
5.744000	 2.357811
5.762000	 2.334931
5.780000	 2.331729
5.798000	 2.332285
5.816000	 2.315131
5.834000	 2.306176
5.852000	 2.302874
5.870000	 2.280519
5.888000	 2.259691
5.906000	 2.263171
5.923999	 2.256403
5.942000	 2.245838
5.960000	 2.245793
5.978000	 2.236677
5.996000	 2.228144
6.014000	 2.219679
6.032000	 2.198743
6.050000	 2.173405
6.068000	 2.169828
6.086000	 2.169173
6.104000	 2.156847
6.122000	 2.144281
6.140000	 2.131801
6.158000	 2.108300
6.176000	 2.073204
6.194000	 2.027499
6.212000	 1.987702
6.230000	 1.979163
6.248000	 1.997283
6.266000	 2.015864
6.284000	 2.024277
6.302000	 2.018753
6.320000	 2.006319
6.338000	 1.993994
6.356000	 1.988259
6.374000	 1.984205
6.392000	 1.965337
6.410000	 1.938317
6.428000	 1.940488
6.446000	 1.961066
6.464000	 1.964434
6.482000	 1.965142
6.500000	 2.001517
6.518000	 2.062241
6.536000	 2.104527
6.554000	 2.118171
6.572000	 2.116638
6.590000	 2.110973
6.608000	 2.100353
6.626000	 2.077910
6.644000	 2.025483
6.662000	 1.901405
6.680000	 1.738578
6.698000	 1.679684
6.716000	 1.764238
6.734000	 1.882658
6.752000	 1.954039
6.770000	 1.977341
6.788000	 1.979385
6.806000	 1.973808
6.824000	 1.954911
6.842000	 1.911036
6.860000	 1.841138
6.878000	 1.777793
6.896000	 1.767595
6.914000	 1.808749
6.932000	 1.850243
6.950000	 1.865835
6.968000	 1.870018
6.986000	 1.872476
7.004000	 1.871538
7.022000	 1.866580
7.040000	 1.859256
7.058000	 1.850091
7.076000	 1.831637
7.094000	 1.794461
7.112000	 1.750282
7.130000	 1.729135
7.148000	 1.742438
7.166000	 1.770968
7.184000	 1.790337
7.202000	 1.792230
7.220000	 1.788965
7.238000	 1.795455
7.256000	 1.807815
7.274000	 1.815565
7.292000	 1.818508
7.310000	 1.820546
7.328000	 1.822248
7.346000	 1.823119
7.364000	 1.822914
7.382000	 1.821627
7.400000	 1.819799
7.418000	 1.818208
7.436000	 1.817303
7.454000	 1.818148
7.472000	 1.822522
7.490000	 1.830791
7.508000	 1.840132
7.526000	 1.846808
7.544000	 1.850157
7.562000	 1.852559
7.580000	 1.855719
7.598000	 1.858619
7.616000	 1.859688
7.634000	 1.859170
7.652000	 1.858472
7.670000	 1.858135
7.688000	 1.858377
7.706000	 1.859353
7.724000	 1.860276
7.742000	 1.860030
7.760000	 1.858882
7.778000	 1.857612
7.796000	 1.855536
7.814000	 1.850912
7.832000	 1.841756
7.850000	 1.825475
7.868000	 1.799661
7.886000	 1.766295
7.904000	 1.734975
7.922000	 1.719435
7.940000	 1.727399
7.958000	 1.753550
7.976000	 1.784369
7.994000	 1.809136
8.012000	 1.824966
8.030000	 1.833732
8.048000	 1.837894
8.065999	 1.839027
8.084000	 1.838213
8.102000	 1.835967
8.120000	 1.832335
8.138000	 1.827363
8.155999	 1.821128
8.173999	 1.813672
8.192000	 1.804708
8.210000	 1.793602
8.228000	 1.780558
8.246000	 1.767444
8.263999	 1.756818
8.282000	 1.750290
8.300000	 1.747454
8.318000	 1.746788
8.336000	 1.746583
8.353999	 1.745833
8.372000	 1.744360
8.390000	 1.742180
8.408000	 1.738622
8.426000	 1.733167
8.443999	 1.726143
8.462000	 1.718788
8.480000	 1.711768
8.498000	 1.704608
8.516000	 1.696598
8.533999	 1.687200
8.552000	 1.676583
8.570000	 1.665037
8.588000	 1.652912
8.606000	 1.640940
8.624000	 1.630427
8.641999	 1.622436
8.660000	 1.617010
8.678000	 1.613353
8.696000	 1.610165
8.714000	 1.606341
8.731999	 1.601653
8.750000	 1.596220
8.768000	 1.589990
8.786000	 1.582962
8.804000	 1.575254
8.821999	 1.566851
8.840000	 1.557688
8.858000	 1.547427
8.876000	 1.536100
8.894000	 1.523859
8.911999	 1.511379
8.930000	 1.499176
8.948000	 1.487308
8.966000	 1.475676
8.984000	 1.464514
9.001999	 1.454291
9.020000	 1.445640
9.038000	 1.439055
9.056000	 1.434546
9.074000	 1.431661
9.092000	 1.429644
9.109999	 1.428099
9.128000	 1.427045
9.146000	 1.426728
9.164000	 1.427228
9.182000	 1.428249
9.199999	 1.429315
9.218000	 1.429992
9.236000	 1.430073
9.254000	 1.429608
9.272000	 1.429147
9.289999	 1.429284
9.308000	 1.430399
9.326000	 1.432410
9.344000	 1.434620
9.362000	 1.436378
9.379999	 1.437140
9.398000	 1.436065
9.416000	 1.431451
9.434000	 1.420322
9.452000	 1.399705
9.469999	 1.370246
9.488000	 1.337601
9.506000	 1.311505
9.524000	 1.300430
9.542000	 1.306903
9.560000	 1.326038
9.577999	 1.349095
9.596000	 1.368536
9.614000	 1.380865
9.632000	 1.386479
9.650000	 1.387272
9.667999	 1.385133
9.686000	 1.381245
9.704000	 1.376671
9.722000	 1.372122
9.740000	 1.368236
9.757999	 1.365251
9.776000	 1.363386
9.794000	 1.362821
9.812000	 1.363808
9.830000	 1.366404
9.847999	 1.370348
9.866000	 1.375242
9.884000	 1.380290
9.902000	 1.384880
9.920000	 1.388828
9.937999	 1.392115
9.956000	 1.394938
9.974000	 1.397396
9.992000	 1.399455
10.01	1.400923
10.028	1.401580
10.046	1.401245
10.064	1.399974
10.082	1.397912
10.1	1.395293
10.118	1.392171
10.136	1.388697
10.154	1.384916
10.172	1.381006
10.19	1.377170
10.208	1.373501
10.226	1.370143
10.244	1.366913
10.262	1.363508
10.28	1.359586
10.298	1.354904
10.316	1.349494
10.334	1.343517
10.352	1.337206
10.37	1.330871
10.388	1.324609
10.406	1.318444
10.424	1.312425
10.442	1.306528
10.46	1.300794
10.478	1.295396
10.496	1.290438
10.514	1.285863
10.532	1.281529
10.55	1.277398
10.568	1.273372
10.586	1.269480
10.604	1.265896
10.622	1.262754
10.64	1.259986
10.658	1.257477
10.676	1.254906
10.694	1.252003
10.712	1.248577
10.73	1.244721
10.748	1.240626
10.766	1.236448
10.784	1.232492
10.802	1.228904
10.82	1.225604
10.838	1.222477
10.856	1.219210
10.874	1.215404
10.892	1.210846
10.91	1.205390
10.928	1.199251
10.946	1.192791
10.964	1.186488
10.982	1.180646
11	1.175503
11.018	1.171063
11.036	1.167215
11.054	1.163932
11.072	1.161138
11.09	1.158883
11.108	1.157049
11.126	1.155436
11.144	1.153780
11.162	1.151751
11.18	1.148960
11.198	1.145081
11.216	1.139890
11.234	1.133194
11.252	1.124836
11.27	1.114851
11.288	1.103405
11.306	1.090912
11.324	1.077894
11.342	1.065062
11.36	1.053181
11.378	1.043047
11.396	1.035324
11.414	1.030554
11.432	1.029111
11.45	1.030941
11.468	1.035775
11.486	1.043021
11.504	1.051806
11.522	1.061191
11.54	1.070375
11.558	1.078575
11.576	1.085271
11.594	1.090252
11.612	1.093523
11.63	1.095286
11.648	1.095801
11.666	1.095387
11.684	1.094392
11.702	1.093003
11.72	1.091389
11.738	1.089621
11.756	1.087677
11.774	1.085666
11.792	1.083502
11.81	1.081174
11.828	1.078642
11.846	1.075715
11.864	1.072179
11.882	1.067813
11.9	1.062212
11.918	1.054943
11.936	1.045486
11.954	1.033442
11.972	1.018358
11.99	1.000021
12.008	0.978615
12.026	0.954746
12.044	0.929571
12.062	0.904733
12.08	0.882221
12.098	0.863890
12.116	0.851369
12.134	0.845616
12.152	0.846680
12.17	0.853796
12.188	0.865508
12.206	0.880011
12.224	0.895381
12.242	0.909960
12.26	0.922652
12.278	0.932898
12.296	0.940489
12.314	0.945617
12.332	0.948775
12.35	0.950303
12.368	0.950671
12.386	0.950268
12.404	0.949444
12.422	0.948424
12.44	0.947524
12.458	0.946922
12.476	0.946700
12.494	0.946986
12.512	0.947871
12.53	0.949306
12.548	0.951184
12.566	0.953454
12.584	0.956028
12.602	0.958858
12.62	0.961767
12.638	0.964694
12.656	0.967602
12.674	0.970394
12.692	0.972945
12.71	0.975213
12.728	0.977098
12.746	0.978537
12.764	0.979491
12.782	0.979949
12.8	0.979916
12.818	0.979523
12.836	0.978867
12.854	0.978065
12.872	0.977291
12.89	0.976609
12.908	0.976037
12.926	0.975540
12.944	0.975113
12.962	0.974724
12.98	0.974307
12.998	0.973813
13.016	0.973226
13.034	0.972582
13.052	0.971864
13.07	0.971092
13.088	0.970245
13.106	0.969346
13.124	0.968372
13.142	0.967297
13.16	0.966150
13.178	0.964950
13.196	0.963659
13.214	0.962340
13.232	0.960967
13.25	0.959610
13.268	0.958223
13.286	0.956849
13.304	0.955429
13.322	0.954008
13.34	0.952594
13.358	0.951138
13.376	0.949665
13.394	0.948162
13.412	0.946618
13.43	0.945001
13.448	0.943283
13.466	0.941495
13.484	0.939607
13.502	0.937615
13.52	0.935518
13.538	0.933316
13.556	0.931065
13.574	0.928746
13.592	0.926397
13.61	0.923970
13.628	0.921502
13.646	0.918979
13.664	0.916441
13.682	0.913864
13.7	0.911249
13.718	0.908573
13.736	0.905839
13.754	0.903115
13.772	0.900354
13.79	0.897579
13.808	0.894765
13.826	0.891976
13.844	0.889167
13.862	0.886322
13.88	0.883427
13.898	0.880503
13.916	0.877534
13.934	0.874526
13.952	0.871536
13.97	0.868522
13.988	0.865565
14.006	0.862678
14.024	0.859878
14.042	0.857226
14.06	0.854703
14.078	0.852293
14.096	0.849945
14.114	0.847635
14.132	0.845308
14.15	0.842878
14.168	0.840278
14.186	0.837444
14.204	0.834347
14.222	0.831015
14.24	0.827429
14.258	0.823571
14.276	0.819459
14.294	0.815079
14.312	0.810410
14.33	0.805416
14.348	0.800002
14.366	0.794145
14.384	0.787807
14.402	0.781052
14.42	0.773961
14.438	0.766686
14.456	0.759442
14.474	0.752477
14.492	0.746048
14.51	0.740422
14.528	0.735760
14.546	0.732193
14.564	0.729715
14.582	0.728234
14.6	0.727629
14.618	0.727716
14.636	0.728209
14.654	0.728871
14.672	0.729533
14.69	0.730058
14.708	0.730341
14.726	0.730337
14.744	0.730053
14.762	0.729483
14.78	0.728696
14.798	0.727756
14.816	0.726699
14.834	0.725566
14.852	0.724418
14.87	0.723268
14.888	0.722137
14.906	0.721044
14.924	0.719986
14.942	0.718913
14.96	0.717822
14.978	0.716661
14.996	0.715372
15.014	0.713912
15.032	0.712278
15.05	0.710420
15.068	0.708364
15.086	0.706143
15.104	0.703780
15.122	0.701361
15.14	0.698943
15.158	0.696583
15.176	0.694332
15.194	0.692240
15.212	0.690295
15.23	0.688516
15.248	0.686872
15.266	0.685293
15.284	0.683732
15.302	0.682160
15.32	0.680526
15.338	0.678792
15.356	0.676982
15.374	0.675076
15.392	0.673093
15.41	0.671050
15.428	0.668955
15.446	0.666861
15.464	0.664788
15.482	0.662759
15.5	0.660802
15.518	0.658958
15.536	0.657228
15.554	0.655602
15.572	0.654059
15.59	0.652559
15.608	0.651106
15.626	0.649681
15.644	0.648198
15.662	0.646651
15.68	0.644990
15.698	0.643171
15.716	0.641222
15.734	0.639113
15.752	0.636856
15.77	0.634481
15.788	0.632048
15.806	0.629587
15.824	0.627141
15.842	0.624779
15.86	0.622541
15.878	0.620444
15.896	0.618501
15.914	0.616684
15.932	0.614974
15.95	0.613360
15.968	0.611846
15.986	0.610322
16.004	0.608760
16.022	0.607144
16.04	0.605372
16.058	0.603452
16.076	0.601384
16.094	0.599146
16.112	0.596729
16.13	0.594139
16.148	0.591398
16.166	0.588500
16.184	0.585463
16.202	0.582316
16.22	0.579023
16.238	0.575618
16.256	0.572141
16.274	0.568557
16.292	0.564876
16.31	0.561103
16.328	0.557295
16.346	0.553476
16.364	0.549671
16.382	0.545933
16.4	0.542322
16.418	0.538879
16.436	0.535643
16.454	0.532654
16.472	0.529943
16.49	0.527565
16.508	0.525544
16.526	0.523895
16.544	0.522616
16.562	0.521688
16.58	0.521098
16.598	0.520837
16.616	0.520850
16.634	0.521091
16.652	0.521475
16.67	0.521971
16.688	0.522545
16.706	0.523139
16.724	0.523707
16.742	0.524179
16.76	0.524508
16.778	0.524684
16.796	0.524716
16.814	0.524596
16.832	0.524320
16.85	0.523874
16.868	0.523287
16.886	0.522579
16.904	0.521775
16.922	0.520891
16.94	0.519955
16.958	0.518989
16.976	0.518000
16.994	0.516977
17.012	0.515957
17.03	0.514964
17.048	0.513995
17.066	0.513038
17.084	0.512065
17.102	0.511101
17.12	0.510149
17.138	0.509207
17.156	0.508281
17.174	0.507375
17.192	0.506490
17.21	0.505623
17.228	0.504775
17.246	0.503951
17.264	0.503156
17.282	0.502387
17.3	0.501649
17.318	0.500963
17.336	0.500310
17.354	0.499683
17.372	0.499064
17.39	0.498456
17.408	0.497882
17.426	0.497324
17.444	0.496774
17.462	0.496224
17.48	0.495676
17.498	0.495143
17.516	0.494607
17.534	0.494050
17.552	0.493486
17.57	0.492917
17.588	0.492312
17.606	0.491677
17.624	0.491025
17.642	0.490338
17.66	0.489609
17.678	0.488851
17.696	0.488063
17.714	0.487245
17.732	0.486397
17.75	0.485520
17.768	0.484612
17.786	0.483674
17.804	0.482722
17.822	0.481759
17.84	0.480794
17.858	0.479817
17.876	0.478813
17.894	0.477799
17.912	0.476776
17.93	0.475781
17.948	0.474813
17.966	0.473825
17.984	0.472825
18.002	0.471832
18.02	0.470838
18.038	0.469835
18.056	0.468832
18.074	0.467831
18.092	0.466839
18.11	0.465858
18.128	0.464887
18.146	0.463923
18.164	0.462950
18.182	0.461973
18.2	0.460997
18.218	0.460033
18.236	0.459089
18.254	0.458150
18.272	0.457211
18.29	0.456274
18.308	0.455340
18.326	0.454397
18.344	0.453451
18.362	0.452518
18.38	0.451591
18.398	0.450652
18.416	0.449715
18.434	0.448802
18.452	0.447896
18.47	0.446992
18.488	0.446083
18.506	0.445166
18.524	0.444256
18.542	0.443358
18.56	0.442457
18.578	0.441551
18.596	0.440627
18.614	0.439682
18.632	0.438736
18.65	0.437787
18.668	0.436811
18.686	0.435810
18.704	0.434786
18.722	0.433739
18.74	0.432667
18.758	0.431574
18.776	0.430475
18.794	0.429364
18.812	0.428225
18.83	0.427066
18.848	0.425903
18.866	0.424727
18.884	0.423523
18.902	0.422300
18.92	0.421062
18.938	0.419809
18.956	0.418539
18.974	0.417256
18.992	0.415964
19.01	0.414664
19.028	0.413351
19.046	0.412033
19.064	0.410720
19.082	0.409411
19.1	0.408111
19.118	0.406821
19.136	0.405545
19.154	0.404285
19.172	0.403045
19.19	0.401826
19.208	0.400632
19.226	0.399464
19.244	0.398331
19.262	0.397226
19.28	0.396131
19.298	0.395049
19.316	0.393979
19.334	0.392923
19.352	0.391881
19.37	0.390854
19.388	0.389822
19.406	0.388784
19.424	0.387743
19.442	0.386699
19.46	0.385651
19.478	0.384598
19.496	0.383546
19.514	0.382500
19.532	0.381449
19.55	0.380385
19.568	0.379316
19.586	0.378248
19.604	0.377172
19.622	0.376071
19.64	0.374952
19.658	0.373828
19.676	0.372697
19.694	0.371551
19.712	0.370393
19.73	0.369217
19.748	0.368021
19.766	0.366807
19.784	0.365577
19.802	0.364326
19.82	0.363051
19.838	0.361753
19.856	0.360425
19.874	0.359070
19.892	0.357689
19.91	0.356281
19.928	0.354835
19.946	0.353349
19.964	0.351836
19.982	0.350298
20	0.348734
20.018	0.347146
20.036	0.345529
20.054	0.343879
20.072	0.342198
20.09	0.340498
20.108	0.338775
20.126	0.337046
20.144	0.335311
20.162	0.333574
20.18	0.331834
20.198	0.330095
20.216	0.328364
20.234	0.326641
20.252	0.324949
20.27	0.323288
20.288	0.321639
20.306	0.319999
20.324	0.318372
20.342	0.316765
20.36	0.315174
20.378	0.313593
20.396	0.312023
20.414	0.310465
20.432	0.308922
20.45	0.307384
20.468	0.305847
20.486	0.304312
20.504	0.302774
20.522	0.301234
20.54	0.299692
20.558	0.298149
20.576	0.296604
20.594	0.295054
20.612	0.293506
20.63	0.291967
20.648	0.290436
20.666	0.288911
20.684	0.287392
20.702	0.285882
20.72	0.284383
20.738	0.282896
20.756	0.281424
20.774	0.279965
20.792	0.278531
20.81	0.277128
20.828	0.275752
20.846	0.274402
20.864	0.273079
20.882	0.271787
20.9	0.270529
20.918	0.269296
20.936	0.268084
20.954	0.266893
20.972	0.265725
20.99	0.264581
21.008	0.263453
21.026	0.262338
21.044	0.261236
21.062	0.260142
21.08	0.259060
21.098	0.257983
21.116	0.256914
21.134	0.255848
21.152	0.254778
21.17	0.253708
21.188	0.252629
21.206	0.251540
21.224	0.250439
21.242	0.249326
21.26	0.248200
21.278	0.247054
21.296	0.245887
21.314	0.244698
21.332	0.243484
21.35	0.242245
21.368	0.240983
21.386	0.239697
21.404	0.238387
21.422	0.237053
21.44	0.235694
21.458	0.234316
21.476	0.232926
21.494	0.231521
21.512	0.230094
21.53	0.228644
21.548	0.227182
21.566	0.225713
21.584	0.224236
21.602	0.222758
21.62	0.221282
21.638	0.219804
21.656	0.218318
21.674	0.216825
21.692	0.215337
21.71	0.213858
21.728	0.212385
21.746	0.210918
21.764	0.209456
21.782	0.208001
21.8	0.206550
21.818	0.205103
21.836	0.203670
21.854	0.202253
21.872	0.200847
21.89	0.199445
21.908	0.198046
21.926	0.196655
21.944	0.195275
21.962	0.193903
21.98	0.192540
21.998	0.191181
22.016	0.189835
22.034	0.188514
22.052	0.187218
22.07	0.185941
22.088	0.184676
22.106	0.183427
22.124	0.182192
22.142	0.180968
22.16	0.179760
22.178	0.178582
22.196	0.177432
22.214	0.176311
22.232	0.175223
22.25	0.174167
22.268	0.173135
22.286	0.172120
22.304	0.171124
22.322	0.170152
22.34	0.169205
22.358	0.168281
22.376	0.167377
22.394	0.166497
22.412	0.165632
22.43	0.164771
22.448	0.163917
22.466	0.163069
22.484	0.162226
22.502	0.161388
22.52	0.160549
22.538	0.159710
22.556	0.158870
22.574	0.158017
22.592	0.157147
22.61	0.156264
22.628	0.155364
22.646	0.154446
22.664	0.153513
22.682	0.152567
22.7	0.151609
22.718	0.150637
22.736	0.149653
22.754	0.148656
22.772	0.147646
22.79	0.146621
22.808	0.145581
22.826	0.144535
22.844	0.143494
22.862	0.142452
22.88	0.141407
22.898	0.140354
22.916	0.139297
22.934	0.138243
22.952	0.137197
22.97	0.136156
22.988	0.135117
23.006	0.134077
23.024	0.133039
23.042	0.132006
23.06	0.130982
23.078	0.129962
23.096	0.128932
23.114	0.127888
23.132	0.126835
23.15	0.125775
23.168	0.124711
23.186	0.123641
23.204	0.122561
23.222	0.121471
23.24	0.120372
23.258	0.119265
23.276	0.118149
23.294	0.117025
23.312	0.115889
23.33	0.114738
23.348	0.113577
23.366	0.112411
23.384	0.111237
23.402	0.110058
23.42	0.108881
23.438	0.107707
23.456	0.106536
23.474	0.105368
23.492	0.104202
23.51	0.103039
23.528	0.101893
23.546	0.100769
23.564	0.099662
23.582	0.098570
23.6	0.097490
23.618	0.096422
23.636	0.095373
23.654	0.094345
23.672	0.093337
23.69	0.092346
23.708	0.091370
23.726	0.090409
23.744	0.089466
23.762	0.088538
23.78	0.087630
23.798	0.086734
23.816	0.085844
23.834	0.084962
23.852	0.084089
23.87	0.083224
23.888	0.082369
23.906	0.081522
23.924	0.080678
23.942	0.079838
23.96	0.079002
23.978	0.078165
23.996	0.077324
24.014	0.076481
24.032	0.075640
24.05	0.074806
24.068	0.073977
24.086	0.073148
24.104	0.072317
24.122	0.071483
24.14	0.070648
24.158	0.069819
24.176	0.068994
24.194	0.068172
24.212	0.067354
24.23	0.066537
24.248	0.065723
24.266	0.064917
24.284	0.064125
24.302	0.063343
24.32	0.062570
24.338	0.061808
24.356	0.061057
24.374	0.060315
24.392	0.059580
24.41	0.058851
24.428	0.058129
24.446	0.057419
24.464	0.056723
24.482	0.056039
24.5	0.055366
24.518	0.054701
24.536	0.054045
24.554	0.053398
24.572	0.052764
24.59	0.052141
24.608	0.051530
24.626	0.050931
24.644	0.050349
24.662	0.049782
24.68	0.049224
24.698	0.048672
24.716	0.048127
24.734	0.047588
24.752	0.047054
24.77	0.046523
24.788	0.045997
24.806	0.045477
24.824	0.044966
24.842	0.044464
24.86	0.043967
24.878	0.043469
24.896	0.042970
24.914	0.042472
24.932	0.041974
24.95	0.041478
24.968	0.040982
24.986	0.040486
25.004	0.039992
25.022	0.039498
25.04	0.039005
25.058	0.038512
25.076	0.038021
25.094	0.037532
25.112	0.037042
25.13	0.036547
25.148	0.036044
25.166	0.035539
25.184	0.035039
25.202	0.034550
25.22	0.034068
25.238	0.033592
25.256	0.033120
25.274	0.032652
25.292	0.032189
25.31	0.031730
25.328	0.031274
25.346	0.030821
25.364	0.030374
25.382	0.029938
25.4	0.029515
25.418	0.029103
25.436	0.028698
25.454	0.028297
25.472	0.027902
25.49	0.027513
25.508	0.027130
25.526	0.026753
25.544	0.026382
25.562	0.026017
25.58	0.025659
25.598	0.025307
25.616	0.024962
25.634	0.024619
25.652	0.024276
25.67	0.023935
25.688	0.023597
25.706	0.023263
25.724	0.022934
25.742	0.022609
25.76	0.022288
25.778	0.021968
25.796	0.021649
25.814	0.021332
25.832	0.021019
25.85	0.020711
25.868	0.020406
25.886	0.020106
25.904	0.019809
25.922	0.019516
25.94	0.019227
25.958	0.018942
25.976	0.018661
25.994	0.018383
26.012	0.018108
26.03	0.017838
26.048	0.017574
26.066	0.017317
26.084	0.017065
26.102	0.016817
26.12	0.016572
26.138	0.016329
26.156	0.016091
26.174	0.015858
26.192	0.015631
26.21	0.015409
26.228	0.015192
26.246	0.014981
26.264	0.014775
26.282	0.014575
26.3	0.014379
26.318	0.014186
26.336	0.013997
26.354	0.013813
26.372	0.013629
26.39	0.013445
26.408	0.013260
26.426	0.013076
26.444	0.012891
26.462	0.012708
26.48	0.012526
26.498	0.012344
26.516	0.012159
26.534	0.011970
26.552	0.011777
26.57	0.011581
26.588	0.011384
26.606	0.011190
26.624	0.010997
26.642	0.010804
26.66	0.010610
26.678	0.010413
26.696	0.010214
26.714	0.010014
26.732	0.009816
26.75	0.009621
26.768	0.009427
26.786	0.009235
26.804	0.009046
26.822	0.008862
26.84	0.008682
26.858	0.008504
26.876	0.008328
26.894	0.008153
26.912	0.007978
26.93	0.007805
26.948	0.007637
26.966	0.007469
26.984	0.007291
27.002	0.007125
27.02	0.006996
27.028	0.006961