File: Bakgrunnsmateriale/MATLAB/FTIR/ftir_data/subAa/Mapping_121/BZ1503107-1_t116_cm-1.asc
PE IR       SPECTRUM    SPECTRUM    ASCII       PEDS        1.60
  -1
BZ4C79~1.ASC
17/04/07
22:48:22.00
17/04/07
22:48:22.00
tln
$BZ1503107-1_t0116$<tbV0>[0.0,13.0,8.0,0.0,27,1,0]
370
64

2002,4.07
MIRTGS : RIGHTBACK : INTERNAL 2
MIR : ON : INTERNAL 2
OPTKBR

0.200000
8
8.000000
FILLER
RATIO
SPECTRUM
UNLOCKED 256

DOUBLE
64
COMBINED
1
0
0

1.000000
RATIO

1
0
TRUE
51149
0
LEFT NOT FITTED RIGHT NOT FITTED 0
NONE
NONE
15600
12
4.427000
51148
TRUE
1 0 8 72 0 0 0 0

15798

#HDR
-1
-1
#GR
CM-1
%T
2.38419e-05
0.0
5000
-1.000000
4631
8
71.4419
34.7091
#DATA
5000	65.8665
4996	65.1952
4992	65.0337
4988	65.6228
4984	65.9611
4980	65.5071
4976	65.1361
4972	65.3688
4968	65.7116
4964	66.1482
4960	66.8766
4956	67.0976
4952	66.5575
4948	66.0351
4944	65.7332
4940	65.7107
4936	66.0981
4932	66.4753
4928	66.4738
4924	66.4245
4920	66.5183
4916	66.5441
4912	66.5006
4908	66.329
4904	66.1133
4900	65.9753
4896	65.8248
4892	65.8202
4888	65.8482
4884	65.7413
4880	65.6846
4876	65.7381
4872	65.8779
4868	65.9931
4864	66.1249
4860	66.131
4856	65.728
4852	65.4462
4848	65.5954
4844	65.6965
4840	65.6253
4836	65.562
4832	65.5707
4828	65.5469
4824	65.4374
4820	65.409
4816	65.3359
4812	65.278
4808	65.4854
4804	65.7634
4800	66.065
4796	66.206
4792	65.8772
4788	65.4085
4784	65.1938
4780	65.1426
4776	65.089
4772	65.0974
4768	65.2514
4764	65.3603
4760	65.3828
4756	65.4781
4752	65.488
4748	65.4227
4744	65.4512
4740	65.4542
4736	65.4311
4732	65.511
4728	65.545
4724	65.5161
4720	65.5566
4716	65.5155
4712	65.4518
4708	65.5384
4704	65.5833
4700	65.6351
4696	65.763
4692	65.7123
4688	65.6082
4684	65.5837
4680	65.4639
4676	65.4643
4672	65.6552
4668	65.7262
4664	65.7296
4660	65.7352
4656	65.6979
4652	65.7227
4648	65.791
4644	65.7847
4640	65.7693
4636	65.8547
4632	65.9587
4628	65.8906
4624	65.923
4620	66.0969
4616	66.0403
4612	65.9069
4608	65.7514
4604	65.7063
4600	66.0506
4596	66.2514
4592	66.1176
4588	66.1251
4584	66.108
4580	66.0002
4576	66.1376
4572	66.3698
4568	66.4104
4564	66.3997
4560	66.3102
4556	65.9976
4552	65.8642
4548	66.1317
4544	66.323
4540	66.2295
4536	66.2696
4532	66.5465
4528	66.5843
4524	66.3058
4520	66.1005
4516	66.1657
4512	66.3724
4508	66.4037
4504	66.4166
4500	66.589
4496	66.4992
4492	66.2271
4488	66.0766
4484	66.0287
4480	65.9267
4476	65.707
4472	65.7878
4468	66.3313
4464	66.9292
4460	67.4613
4456	67.6178
4452	67.0607
4448	66.6684
4444	66.0543
4440	62.2971
4436	55.4932
4432	50.2471
4428	49.3886
4424	54.833
4420	64.2323
4416	69.0591
4412	69.2446
4408	69.0972
4404	68.0758
4400	67.1141
4396	66.9602
4392	66.917
4388	66.9128
4384	67.0719
4380	67.0895
4376	66.9558
4372	66.8059
4368	66.7092
4364	66.6308
4360	66.4956
4356	66.4764
4352	66.4476
4348	66.1977
4344	66.0398
4340	66.2897
4336	66.525
4332	66.3851
4328	66.2716
4324	66.286
4320	66.1787
4316	66.0005
4312	65.807
4308	65.6955
4304	65.7471
4300	65.8871
4296	65.9824
4292	65.9836
4288	66.0211
4284	66.0322
4280	65.8801
4276	65.7572
4272	65.7096
4268	65.6758
4264	65.6828
4260	65.6227
4256	65.602
4252	65.6264
4248	65.5465
4244	65.5224
4240	65.5844
4236	65.5957
4232	65.5416
4228	65.3919
4224	65.2491
4220	65.3499
4216	65.6029
4212	65.7303
4208	65.6602
4204	65.5372
4200	65.5077
4196	65.5819
4192	65.7238
4188	65.7818
4184	65.6402
4180	65.552
4176	65.6694
4172	65.7296
4168	65.606
4164	65.4253
4160	65.3201
4156	65.3843
4152	65.5293
4148	65.5426
4144	65.4638
4140	65.4167
4136	65.4164
4132	65.5611
4128	65.6963
4124	65.6082
4120	65.4749
4116	65.4393
4112	65.4082
4108	65.3988
4104	65.4994
4100	65.5992
4096	65.5596
4092	65.5425
4088	65.5392
4084	65.4438
4080	65.416
4076	65.4435
4072	65.4482
4068	65.4809
4064	65.579
4060	65.7214
4056	65.795
4052	65.7212
4048	65.5558
4044	65.4527
4040	65.4433
4036	65.4848
4032	65.6056
4028	65.6492
4024	65.4796
4020	65.3667
4016	65.4891
4012	65.5645
4008	65.4819
4004	65.4556
4000	65.5693
3996	65.7114
3992	65.6371
3988	65.3923
3984	65.3169
3980	65.4111
3976	65.4791
3972	65.4738
3968	65.5134
3964	65.6256
3960	65.6219
3956	65.5899
3952	65.6761
3948	65.7072
3944	65.6634
3940	65.6329
3936	65.5399
3932	65.3585
3928	65.2096
3924	65.3037
3920	65.5439
3916	65.6565
3912	65.6934
3908	65.7287
3904	65.7297
3900	65.6752
3896	65.5757
3892	65.5331
3888	65.5813
3884	65.646
3880	65.6582
3876	65.6638
3872	65.7195
3868	65.7142
3864	65.6767
3860	65.6944
3856	65.6691
3852	65.6173
3848	65.6349
3844	65.6143
3840	65.5392
3836	65.5222
3832	65.5171
3828	65.5339
3824	65.6721
3820	65.8938
3816	65.9944
3812	65.9222
3808	65.8298
3804	65.7111
3800	65.6553
3796	65.7773
3792	65.9074
3788	65.8616
3784	65.6824
3780	65.6746
3776	65.7852
3772	65.6959
3768	65.5413
3764	65.4838
3760	65.4862
3756	65.5304
3752	65.5747
3748	65.6425
3744	65.6832
3740	65.6261
3736	65.5499
3732	65.5136
3728	65.5514
3724	65.6038
3720	65.5805
3716	65.535
3712	65.5288
3708	65.5525
3704	65.5756
3700	65.5429
3696	65.4755
3692	65.4932
3688	65.499
3684	65.3893
3680	65.3976
3676	65.5463
3672	65.5968
3668	65.5952
3664	65.5833
3660	65.55
3656	65.5455
3652	65.4585
3648	65.372
3644	65.4188
3640	65.4808
3636	65.5297
3632	65.6027
3628	65.6415
3624	65.6316
3620	65.6375
3616	65.6977
3612	65.7468
3608	65.6359
3604	65.4179
3600	65.3524
3596	65.4724
3592	65.5636
3588	65.5916
3584	65.6119
3580	65.5127
3576	65.3371
3572	65.3446
3568	65.5249
3564	65.5728
3560	65.4757
3556	65.4223
3552	65.4361
3548	65.492
3544	65.4925
3540	65.3875
3536	65.2443
3532	65.1711
3528	65.2654
3524	65.4437
3520	65.4922
3516	65.4081
3512	65.403
3508	65.4313
3504	65.4881
3500	65.6017
3496	65.5287
3492	65.4024
3488	65.4025
3484	65.4329
3480	65.5399
3476	65.6327
3472	65.5478
3468	65.3903
3464	65.3126
3460	65.3365
3456	65.3906
3452	65.4186
3448	65.4182
3444	65.4251
3440	65.381
3436	65.3217
3432	65.486
3428	65.627
3424	65.4479
3420	65.2793
3416	65.3527
3412	65.4259
3408	65.3794
3404	65.4039
3400	65.4901
3396	65.4962
3392	65.4327
3388	65.3498
3384	65.2956
3380	65.323
3376	65.3943
3372	65.42
3368	65.4154
3364	65.449
3360	65.4788
3356	65.4321
3352	65.3972
3348	65.3844
3344	65.2875
3340	65.2142
3336	65.3058
3332	65.4468
3328	65.4618
3324	65.3557
3320	65.2926
3316	65.3188
3312	65.3245
3308	65.2806
3304	65.2737
3300	65.3312
3296	65.361
3292	65.3706
3288	65.3328
3284	65.2093
3280	65.1417
3276	65.1763
3272	65.2084
3268	65.2161
3264	65.2365
3260	65.2669
3256	65.2777
3252	65.2349
3248	65.1952
3244	65.1841
3240	65.1143
3236	65.1077
3232	65.1743
3228	65.1375
3224	65.127
3220	65.1783
3216	65.0972
3212	65.0127
3208	65.0777
3204	65.1098
3200	65.1012
3196	65.1675
3192	65.2356
3188	65.2033
3184	65.0944
3180	65.0765
3176	65.178
3172	65.2233
3168	65.2172
3164	65.2392
3160	65.2422
3156	65.2443
3152	65.2123
3148	65.1183
3144	65.0801
3140	65.1014
3136	65.1363
3132	65.1564
3128	65.1335
3124	65.1825
3120	65.2691
3116	65.2706
3112	65.2045
3108	65.0952
3104	65.0541
3100	65.0581
3096	65.0067
3092	64.9832
3088	65.0626
3084	65.136
3080	65.0948
3076	65.0264
3072	65.0139
3068	65.0837
3064	65.2016
3060	65.1901
3056	65.0514
3052	64.9946
3048	65.0263
3044	65.0255
3040	65.0254
3036	65.1203
3032	65.2125
3028	65.1462
3024	64.9916
3020	64.9565
3016	65.0036
3012	64.9575
3008	64.9184
3004	64.952
3000	64.9873
2996	65.0214
2992	65.0079
2988	64.9292
2984	64.8752
2980	64.8638
2976	64.8135
2972	64.6991
2968	64.493
2964	64.2636
2960	64.2186
2956	64.3404
2952	64.4202
2948	64.442
2944	64.5083
2940	64.5773
2936	64.5884
2932	64.5585
2928	64.5226
2924	64.5411
2920	64.6469
2916	64.7484
2912	64.7534
2908	64.713
2904	64.701
2900	64.6967
2896	64.6845
2892	64.7217
2888	64.764
2884	64.7406
2880	64.6894
2876	64.6191
2872	64.5412
2868	64.5569
2864	64.6831
2860	64.8306
2856	64.9404
2852	64.9465
2848	64.8872
2844	64.9514
2840	65.0698
2836	65.0282
2832	64.8991
2828	64.8412
2824	64.8563
2820	64.8433
2816	64.8175
2812	64.872
2808	64.9643
2804	64.991
2800	64.9263
2796	64.8415
2792	64.8457
2788	64.8846
2784	64.8851
2780	64.9381
2776	65.0229
2772	65.0589
2768	65.0246
2764	64.9116
2760	64.8401
2756	64.9134
2752	64.9898
2748	64.9354
2744	64.8505
2740	64.8155
2736	64.8161
2732	64.8568
2728	64.9112
2724	64.9564
2720	65.001
2716	65.0114
2712	64.9789
2708	64.9729
2704	64.9726
2700	64.9051
2696	64.8183
2692	64.7975
2688	64.8613
2684	64.9425
2680	64.9875
2676	64.9748
2672	64.9146
2668	64.8683
2664	64.8871
2660	64.9371
2656	64.9098
2652	64.8137
2648	64.7738
2644	64.8065
2640	64.831
2636	64.8327
2632	64.8239
2628	64.8199
2624	64.8185
2620	64.7857
2616	64.7104
2612	64.6706
2608	64.6876
2604	64.655
2600	64.651
2596	64.7126
2592	64.7157
2588	64.7445
2584	64.8376
2580	64.8846
2576	64.8677
2572	64.8273
2568	64.8111
2564	64.7969
2560	64.7659
2556	64.724
2552	64.6791
2548	64.6718
2544	64.6948
2540	64.7541
2536	64.8219
2532	64.8454
2528	64.8699
2524	64.8795
2520	64.8226
2516	64.7534
2512	64.6854
2508	64.6309
2504	64.6471
2500	64.6517
2496	64.5893
2492	64.5866
2488	64.6726
2484	64.7301
2480	64.723
2476	64.7118
2472	64.7295
2468	64.7259
2464	64.6816
2460	64.6588
2456	64.6744
2452	64.6727
2448	64.6662
2444	64.7374
2440	64.828
2436	64.7807
2432	64.6306
2428	64.5132
2424	64.4808
2420	64.5375
2416	64.5594
2412	64.4999
2408	64.4742
2404	64.5036
2400	64.5211
2396	64.5015
2392	64.5259
2388	64.6069
2384	64.6313
2380	64.5849
2376	64.55
2372	64.5431
2368	64.5221
2364	64.523
2360	64.5533
2356	64.5438
2352	64.5108
2348	64.4984
2344	64.5081
2340	64.5553
2336	64.6133
2332	64.6024
2328	64.5399
2324	64.5169
2320	64.5268
2316	64.493
2312	64.4541
2308	64.4717
2304	64.5005
2300	64.542
2296	64.571
2292	64.5154
2288	64.4528
2284	64.4739
2280	64.4911
2276	64.4264
2272	64.387
2268	64.4107
2264	64.4361
2260	64.4719
2256	64.4794
2252	64.4445
2248	64.4589
2244	64.5055
2240	64.4774
2236	64.4044
2232	64.3619
2228	64.3707
2224	64.4512
2220	64.5194
2216	64.4949
2212	64.4516
2208	64.4483
2204	64.4553
2200	64.4321
2196	64.391
2192	64.3693
2188	64.3739
2184	64.3728
2180	64.3565
2176	64.3405
2172	64.3226
2168	64.328
2164	64.3384
2160	64.3491
2156	64.3608
2152	64.3102
2148	64.2716
2144	64.3054
2140	64.3471
2136	64.3439
2132	64.2757
2128	64.2369
2124	64.2383
2120	64.2354
2116	64.2834
2112	64.2969
2108	64.2488
2104	64.2273
2100	64.192
2096	64.1672
2092	64.2066
2088	64.2393
2084	64.2508
2080	64.2412
2076	64.2027
2072	64.1928
2068	64.2143
2064	64.2205
2060	64.1837
2056	64.1337
2052	64.1015
2048	64.0675
2044	64.0612
2040	64.0988
2036	64.1328
2032	64.1207
2028	64.0792
2024	64.0604
2020	64.0821
2016	64.1088
2012	64.1008
2008	64.0706
2004	64.0731
2000	64.1241
1996	64.1387
1992	64.0774
1988	64.01
1984	63.9829
1980	63.9851
1976	64.0338
1972	64.1315
1968	64.1509
1964	64.0746
1960	64.0233
1956	63.9713
1952	63.9398
1948	63.9998
1944	64.0665
1940	64.0889
1936	64.0811
1932	64.028
1928	63.9771
1924	63.982
1920	64.0084
1916	64.0161
1912	64.0191
1908	64.0685
1904	64.1009
1900	64.0337
1896	63.9617
1892	63.965
1888	64.0031
1884	64.0386
1880	64.0444
1876	64
1872	63.9512
1868	63.9515
1864	63.9763
1860	63.9554
1856	63.9224
1852	63.9469
1848	63.9401
1844	63.8445
1840	63.7856
1836	63.8117
1832	63.8447
1828	63.8564
1824	63.8626
1820	63.8601
1816	63.848
1812	63.8582
1808	63.8769
1804	63.8599
1800	63.8259
1796	63.791
1792	63.7587
1788	63.7535
1784	63.7944
1780	63.8554
1776	63.864
1772	63.7718
1768	63.6292
1764	63.514
1760	63.4695
1756	63.4454
1752	63.3122
1748	63.0122
1744	62.6074
1740	62.2039
1736	61.9172
1732	61.8961
1728	62.1809
1724	62.634
1720	63.0678
1716	63.3386
1712	63.4208
1708	63.4234
1704	63.4513
1700	63.5051
1696	63.5525
1692	63.6002
1688	63.657
1684	63.671
1680	63.6353
1676	63.644
1672	63.6671
1668	63.6151
1664	63.5514
1660	63.5305
1656	63.4973
1652	63.439
1648	63.4281
1644	63.4702
1640	63.4985
1636	63.5263
1632	63.5599
1628	63.5348
1624	63.4682
1620	63.444
1616	63.4691
1612	63.4864
1608	63.453
1604	63.402
1600	63.3636
1596	63.3246
1592	63.3283
1588	63.373
1584	63.401
1580	63.3906
1576	63.3752
1572	63.407
1568	63.4735
1564	63.493
1560	63.4413
1556	63.4026
1552	63.3878
1548	63.3663
1544	63.3621
1540	63.343
1536	63.3076
1532	63.2958
1528	63.2957
1524	63.3271
1520	63.3698
1516	63.3497
1512	63.3369
1508	63.3871
1504	63.4025
1500	63.3372
1496	63.2652
1492	63.2689
1488	63.2791
1484	63.2292
1480	63.1831
1476	63.1713
1472	63.1653
1468	63.139
1464	63.1055
1460	63.0954
1456	63.1136
1452	63.1444
1448	63.2004
1444	63.2287
1440	63.1514
1436	63.0711
1432	63.0693
1428	63.081
1424	63.1128
1420	63.1626
1416	63.1593
1412	63.1075
1408	63.09
1404	63.0939
1400	63.0545
1396	63.0611
1392	63.0286
1388	62.8643
1384	62.7772
1380	62.8086
1376	62.8537
1372	62.9407
1368	63.0189
1364	63.0151
1360	63.0129
1356	63.0369
1352	63.0422
1348	63.0397
1344	63.0228
1340	62.9953
1336	62.9783
1332	62.9855
1328	62.9879
1324	62.9779
1320	63.0021
1316	63.0415
1312	63.0389
1308	62.9541
1304	62.8734
1300	62.8749
1296	62.8631
1292	62.8356
1288	62.8295
1284	62.7854
1280	62.6972
1276	62.6184
1272	62.5763
1268	62.5288
1264	62.4578
1260	62.428
1256	62.3997
1252	62.3336
1248	62.3008
1244	62.3521
1240	62.406
1236	62.3605
1232	62.295
1228	62.2891
1224	62.3508
1220	62.4428
1216	62.5148
1212	62.5932
1208	62.6123
1204	62.5356
1200	62.4798
1196	62.4574
1192	62.3804
1188	62.2841
1184	62.2602
1180	62.2295
1176	62.1071
1172	61.9835
1168	61.9237
1164	61.9114
1160	61.9597
1156	62.0621
1152	62.1813
1148	62.3286
1144	62.5211
1140	62.6969
1136	62.7546
1132	62.6735
1128	62.518
1124	62.3535
1120	62.2462
1116	62.2422
1112	62.3171
1108	62.4193
1104	62.4819
1100	62.4505
1096	62.3872
1092	62.2853
1088	62.1629
1084	62.1781
1080	62.2597
1076	62.2336
1072	62.2489
1068	62.3693
1064	62.435
1060	62.4587
1056	62.4327
1052	62.3403
1048	62.2891
1044	62.2939
1040	62.2905
1036	62.2859
1032	62.317
1028	62.3657
1024	62.4115
1020	62.4557
1016	62.478
1012	62.4903
1008	62.5053
1004	62.4766
1000	62.4127
996	 62.3943
992	 62.4327
988	 62.4479
984	 62.4017
980	 62.3372
976	 62.3422
972	 62.3897
968	 62.3954
964	 62.3866
960	 62.3768
956	 62.3421
952	 62.3439
948	 62.4104
944	 62.3842
940	 62.2751
936	 62.2325
932	 62.3067
928	 62.4635
924	 62.5623
920	 62.6291
916	 62.6897
912	 62.605
908	 62.458
904	 62.4022
900	 62.4006
896	 62.3899
892	 62.3453
888	 62.3706
884	 62.4942
880	 62.4614
876	 62.2742
872	 62.2085
868	 62.2249
864	 62.2332
860	 62.2519
856	 62.349
852	 62.5232
848	 62.5257
844	 62.3914
840	 62.3305
836	 62.327
832	 62.3256
828	 62.2318
824	 62.1589
820	 62.2584
816	 62.3746
812	 62.3908
808	 62.3152
804	 62.2745
800	 62.2897
796	 62.2333
792	 62.0907
788	 61.9919
784	 62.0003
780	 61.9841
776	 61.9365
772	 61.8587
768	 61.7405
764	 61.7245
760	 61.8276
756	 61.8925
752	 61.8203
748	 61.7283
744	 61.7728
740	 61.9393
736	 62.0234
732	 61.9336
728	 61.8214
724	 61.7834
720	 61.7526
716	 61.6809
712	 61.5645
708	 61.4891
704	 61.644
700	 61.9246
696	 62.1064
692	 62.1974
688	 62.15
684	 61.9049
680	 61.5438
676	 61.2232
672	 61.2234
668	 61.6021
664	 61.774
660	 61.1939
656	 60.4873
652	 60.3666
648	 60.6012
644	 60.9836
640	 61.4296
636	 61.7144
632	 61.8885
628	 61.9282
624	 61.4061
620	 60.8297
616	 61.1208
612	 61.9237
608	 62.3445
604	 62.1862
600	 62.0485
596	 62.1183
592	 61.9689
588	 61.5327
584	 61.2637
580	 61.5805
576	 61.8262
572	 61.5215
568	 61.78
564	 62.2708
560	 61.7158
556	 60.989
552	 60.8697
548	 61.2034
544	 61.8062
540	 62.2502
536	 62.0344
532	 61.3007
528	 60.7692
524	 60.5954
520	 60.5929
516	 60.7739
512	 61.0139
508	 60.9486
504	 60.6027
500	 60.5166
496	 60.7585
492	 60.779
488	 60.6808
484	 60.8004
480	 60.7293
476	 60.2763
472	 60.069
468	 60.6275
464	 60.7719
460	 59.7214
456	 58.9605
452	 59.5876
448	 60.3758
444	 60.3386
440	 60.2216
436	 60.3783
432	 60.9289
428	 61.4236
424	 60.2808
420	 58.7936
416	 58.9722
412	 59.1557
408	 60.0659
404	 62.7579
400	 61.8882
396	 56.9226
392	 56.3691
388	 64.2106
384	 71.2635
380	 67.1578
376	 53.073
372	 38.0469
370	 34.7091