File: Bakgrunnsmateriale/MATLAB/FTIR/ftir_data/subAa/Mapping_121/BZ1503107-1_t89.asc
PE IR       SPECTRUM    SPECTRUM    ASCII       PEDS        1.60
  -1
BZ2D65~1.ASC
17/04/07
20:36:45.00
17/04/07
20:37:11.00
tln
$BZ1503107-1_t0089$<tbV0>[13.0,7.8,8.0,0.0,27,1,0]
27.028
64

2002,4.07
MIRTGS : RIGHTBACK : INTERNAL 2
MIR : ON : INTERNAL 2
OPTKBR

0.200000
8
8.000000
FILLER
RATIO
SPECTRUM
UNLOCKED 256

DOUBLE
64
COMBINED
1
0
0

0.002000
RATIO

1
0
TRUE
51149
0
LEFT NOT FITTED RIGHT NOT FITTED 0
NONE
NONE
15600
12
4.427000
51148
TRUE
1 0 8 72 0 0 0 0

15798

#HDR
-1
-1
#GR
µM
%T
2.38419e-05
0.0
2.000000
0.002000
12515
8
82.3045
42.5834
#DATA
2.000000	 64.1441
2.018000	 65.5077
2.036000	 64.9523
2.054000	 64.4418
2.072000	 64.1855
2.090000	 64.0144
2.108000	 63.998
2.126000	 64.1222
2.144000	 64.5412
2.162000	 64.729
2.180000	 64.3418
2.198000	 64.7103
2.216000	 64.9091
2.234000	 65.8941
2.252000	 50.0276
2.270000	 65.2201
2.288000	 65.0626
2.306000	 64.6999
2.324000	 64.4454
2.342000	 64.5428
2.360000	 64.3854
2.378000	 64.6061
2.396000	 64.3583
2.414000	 64.089
2.432000	 64.391
2.450000	 64.2213
2.468000	 64.3126
2.486000	 64.5625
2.504000	 64.4197
2.522000	 64.532
2.540000	 64.7592
2.558000	 64.5263
2.576000	 64.416
2.594000	 64.6685
2.612000	 64.6572
2.630000	 64.415
2.648000	 64.6656
2.666000	 64.559
2.684000	 64.562
2.702000	 64.6498
2.720000	 64.4855
2.738000	 64.5243
2.756000	 64.3925
2.774000	 64.4865
2.792000	 64.5712
2.810000	 64.4749
2.828000	 64.5508
2.846000	 64.572
2.864000	 64.8293
2.882000	 64.948
2.900000	 64.5148
2.918000	 64.478
2.936000	 64.605
2.954000	 64.5531
2.972000	 64.4391
2.990000	 64.5893
3.008000	 64.3502
3.026000	 64.5107
3.044000	 64.5668
3.062000	 64.436
3.080000	 64.6135
3.098000	 64.4602
3.116000	 64.416
3.134000	 64.5519
3.152000	 64.6033
3.170000	 64.515
3.188000	 64.4647
3.206000	 64.5568
3.224000	 64.5073
3.242000	 64.4835
3.260000	 64.481
3.278000	 64.6914
3.296000	 64.5397
3.314000	 64.6128
3.332000	 64.6171
3.350000	 64.3977
3.368000	 64.3335
3.386000	 64.3396
3.404000	 64.4883
3.422000	 64.42
3.440000	 64.3476
3.458000	 64.421
3.476000	 64.3555
3.494000	 64.3598
3.512000	 64.3663
3.530000	 64.4047
3.548000	 64.4429
3.566000	 64.4077
3.584000	 64.4409
3.602000	 64.4933
3.620000	 64.5022
3.638000	 64.3845
3.656000	 64.4832
3.674000	 64.472
3.692000	 64.5536
3.710000	 64.4822
3.728000	 64.4752
3.746000	 64.5183
3.764000	 64.4263
3.782000	 64.4759
3.800000	 64.5073
3.818000	 64.4654
3.836000	 64.3905
3.854000	 64.4371
3.872000	 64.4664
3.890000	 64.4895
3.908000	 64.3784
3.926000	 64.3
3.944000	 64.3694
3.962000	 64.3261
3.980000	 64.5456
3.998000	 64.215
4.016000	 64.4128
4.034000	 64.3873
4.052000	 64.3295
4.070000	 64.5241
4.088000	 64.4312
4.106000	 64.3401
4.124000	 64.311
4.141999	 64.2421
4.160000	 64.361
4.178000	 64.316
4.196000	 64.3698
4.214000	 64.3195
4.232000	 64.3225
4.250000	 64.2811
4.268000	 64.306
4.286000	 64.2403
4.304000	 64.3715
4.322000	 64.2334
4.340000	 64.2129
4.358000	 64.3282
4.375999	 64.2529
4.394000	 64.301
4.412000	 64.3251
4.430000	 64.3132
4.448000	 64.3249
4.466000	 64.2787
4.484000	 64.2731
4.502000	 64.2006
4.520000	 64.3029
4.538000	 64.0902
4.556000	 64.1873
4.574000	 64.2217
4.592000	 64.2561
4.609999	 64.2158
4.628000	 64.3117
4.646000	 64.217
4.664000	 64.2815
4.682000	 64.3711
4.700000	 64.2608
4.718000	 64.2319
4.736000	 64.2839
4.754000	 64.2767
4.772000	 64.1678
4.790000	 64.2021
4.808000	 64.1532
4.826000	 63.9993
4.843999	 64.132
4.862000	 64.2676
4.880000	 64.2066
4.898000	 64.1207
4.916000	 64.1482
4.934000	 64.1788
4.952000	 64.18
4.970000	 64.0703
4.988000	 64.0656
5.006000	 64.0891
5.024000	 64.141
5.042000	 64.0795
5.060000	 64.0656
5.077999	 64.1034
5.096000	 64.1551
5.114000	 64.1465
5.132000	 64.1002
5.150000	 64.0412
5.168000	 64.0792
5.186000	 63.9566
5.204000	 63.9966
5.222000	 64.119
5.240000	 64.1509
5.258000	 64.1195
5.276000	 64.1205
5.294000	 64.0382
5.312000	 64.0292
5.330000	 64.0992
5.348000	 64.1549
5.366000	 64.1061
5.384000	 64.1752
5.402000	 64.1225
5.420000	 64.0057
5.438000	 64.0577
5.456000	 64.0825
5.474000	 64.0241
5.492000	 63.9766
5.510000	 63.9615
5.528000	 64.0192
5.546000	 64.0884
5.564000	 63.9872
5.582000	 63.9087
5.600000	 63.9124
5.618000	 63.9335
5.636000	 63.9182
5.654000	 63.9923
5.672000	 64.0425
5.690000	 63.9312
5.708000	 63.8116
5.726000	 63.779
5.744000	 63.7286
5.762000	 63.7196
5.780000	 63.765
5.798000	 63.794
5.816000	 63.7831
5.834000	 63.8098
5.852000	 63.8487
5.870000	 63.865
5.888000	 63.8869
5.906000	 63.8465
5.923999	 63.8482
5.942000	 63.8697
5.960000	 63.7802
5.978000	 63.7697
5.996000	 63.8236
6.014000	 63.8673
6.032000	 63.8676
6.050000	 63.8718
6.068000	 63.8528
6.086000	 63.8433
6.104000	 63.8708
6.122000	 63.8566
6.140000	 63.7835
6.158000	 63.7101
6.176000	 63.7454
6.194000	 63.7645
6.212000	 63.7816
6.230000	 63.8541
6.248000	 63.8946
6.266000	 63.9386
6.284000	 63.9406
6.302000	 63.875
6.320000	 63.7987
6.338000	 63.7843
6.356000	 63.8188
6.374000	 63.8853
6.392000	 63.9173
6.410000	 63.9136
6.428000	 63.8778
6.446000	 63.7942
6.464000	 63.7666
6.482000	 63.7696
6.500000	 63.7594
6.518000	 63.7681
6.536000	 63.7307
6.554000	 63.6459
6.572000	 63.5822
6.590000	 63.5926
6.608000	 63.6645
6.626000	 63.7477
6.644000	 63.7839
6.662000	 63.7989
6.680000	 63.8593
6.698000	 63.8413
6.716000	 63.7379
6.734000	 63.6466
6.752000	 63.6335
6.770000	 63.7106
6.788000	 63.7738
6.806000	 63.7736
6.824000	 63.7603
6.842000	 63.774
6.860000	 63.7688
6.878000	 63.7192
6.896000	 63.6769
6.914000	 63.6223
6.932000	 63.5123
6.950000	 63.4194
6.968000	 63.4385
6.986000	 63.5383
7.004000	 63.6109
7.022000	 63.6139
7.040000	 63.6126
7.058000	 63.6585
7.076000	 63.701
7.094000	 63.7032
7.112000	 63.6636
7.130000	 63.5421
7.148000	 63.3887
7.166000	 63.3282
7.184000	 63.3647
7.202000	 63.4445
7.220000	 63.5451
7.238000	 63.615
7.256000	 63.6199
7.274000	 63.5957
7.292000	 63.5835
7.310000	 63.5837
7.328000	 63.582
7.346000	 63.583
7.364000	 63.5819
7.382000	 63.5664
7.400000	 63.5711
7.418000	 63.6035
7.436000	 63.5932
7.454000	 63.5086
7.472000	 63.4237
7.490000	 63.4256
7.508000	 63.4904
7.526000	 63.5096
7.544000	 63.481
7.562000	 63.514
7.580000	 63.6032
7.598000	 63.6339
7.616000	 63.595
7.634000	 63.5546
7.652000	 63.5267
7.670000	 63.5068
7.688000	 63.5071
7.706000	 63.51
7.724000	 63.4897
7.742000	 63.4511
7.760000	 63.4087
7.778000	 63.3774
7.796000	 63.3675
7.814000	 63.3655
7.832000	 63.367
7.850000	 63.4001
7.868000	 63.4604
7.886000	 63.492
7.904000	 63.4698
7.922000	 63.4314
7.940000	 63.4114
7.958000	 63.4082
7.976000	 63.4127
7.994000	 63.4187
8.012000	 63.4182
8.030000	 63.4158
8.048000	 63.4273
8.065999	 63.4463
8.084000	 63.4449
8.102000	 63.4211
8.120000	 63.4093
8.138000	 63.4329
8.155999	 63.4776
8.173999	 63.5177
8.192000	 63.5408
8.210000	 63.544
8.228000	 63.5257
8.246000	 63.4893
8.263999	 63.447
8.282000	 63.4158
8.300000	 63.4096
8.318000	 63.4295
8.336000	 63.4576
8.353999	 63.4725
8.372000	 63.4669
8.390000	 63.4446
8.408000	 63.4078
8.426000	 63.3619
8.443999	 63.3229
8.462000	 63.3043
8.480000	 63.3032
8.498000	 63.3118
8.516000	 63.3272
8.533999	 63.3401
8.552000	 63.3369
8.570000	 63.3171
8.588000	 63.2977
8.606000	 63.2924
8.624000	 63.2973
8.641999	 63.3017
8.660000	 63.3002
8.678000	 63.2935
8.696000	 63.2866
8.714000	 63.289
8.731999	 63.3103
8.750000	 63.3541
8.768000	 63.4089
8.786000	 63.4478
8.804000	 63.4454
8.821999	 63.4006
8.840000	 63.3372
8.858000	 63.2865
8.876000	 63.2643
8.894000	 63.2638
8.911999	 63.2631
8.930000	 63.2416
8.948000	 63.1945
8.966000	 63.1356
8.984000	 63.0829
9.001999	 63.0436
9.020000	 63.0222
9.038000	 63.0295
9.056000	 63.0758
9.074000	 63.1526
9.092000	 63.2317
9.109999	 63.2826
9.128000	 63.2904
9.146000	 63.2582
9.164000	 63.2028
9.182000	 63.1478
9.199999	 63.1145
9.218000	 63.1079
9.236000	 63.117
9.254000	 63.1288
9.272000	 63.1406
9.289999	 63.1559
9.308000	 63.1736
9.326000	 63.1856
9.344000	 63.1853
9.362000	 63.1759
9.379999	 63.1635
9.398000	 63.1503
9.416000	 63.1345
9.434000	 63.1178
9.452000	 63.1073
9.469999	 63.1124
9.488000	 63.1376
9.506000	 63.177
9.524000	 63.2151
9.542000	 63.2358
9.560000	 63.235
9.577999	 63.2235
9.596000	 63.2178
9.614000	 63.2262
9.632000	 63.2422
9.650000	 63.2498
9.667999	 63.2367
9.686000	 63.2039
9.704000	 63.1638
9.722000	 63.1298
9.740000	 63.1082
9.757999	 63.0976
9.776000	 63.0955
9.794000	 63.1007
9.812000	 63.111
9.830000	 63.12
9.847999	 63.1187
9.866000	 63.1023
9.884000	 63.0758
9.902000	 63.0509
9.920000	 63.0386
9.937999	 63.0421
9.956000	 63.0574
9.974000	 63.0782
9.992000	 63.1014
10.01	63.1272
10.028	63.1572
10.046	63.1909
10.064	63.2256
10.082	63.2579
10.1	63.2854
10.118	63.3069
10.136	63.3223
10.154	63.331
10.172	63.3319
10.19	63.3242
10.208	63.3082
10.226	63.285
10.244	63.2563
10.262	63.2235
10.28	63.1881
10.298	63.1531
10.316	63.1233
10.334	63.1046
10.352	63.1008
10.37	63.1106
10.388	63.1272
10.406	63.1403
10.424	63.1393
10.442	63.1183
10.46	63.0791
10.478	63.0316
10.496	62.9906
10.514	62.9701
10.532	62.9791
10.55	63.0183
10.568	63.0817
10.586	63.1573
10.604	63.2307
10.622	63.2868
10.64	63.3134
10.658	63.3057
10.676	63.2712
10.694	63.2283
10.712	63.2011
10.73	63.2053
10.748	63.241
10.766	63.2899
10.784	63.326
10.802	63.3273
10.82	63.2882
10.838	63.2207
10.856	63.1455
10.874	63.083
10.892	63.044
10.91	63.03
10.928	63.036
10.946	63.0545
10.964	63.0784
10.982	63.1008
11	63.1175
11.018	63.1267
11.036	63.1302
11.054	63.1314
11.072	63.1338
11.09	63.1368
11.108	63.1368
11.126	63.1281
11.144	63.1083
11.162	63.0805
11.18	63.0526
11.198	63.0341
11.216	63.0309
11.234	63.0428
11.252	63.0634
11.27	63.0834
11.288	63.0939
11.306	63.0909
11.324	63.0772
11.342	63.0619
11.36	63.0551
11.378	63.0644
11.396	63.0902
11.414	63.1259
11.432	63.161
11.45	63.1866
11.468	63.1988
11.486	63.2003
11.504	63.1979
11.522	63.1982
11.54	63.2039
11.558	63.212
11.576	63.2158
11.594	63.2091
11.612	63.1893
11.63	63.1583
11.648	63.1217
11.666	63.0863
11.684	63.0583
11.702	63.0418
11.72	63.0387
11.738	63.0489
11.756	63.0708
11.774	63.1015
11.792	63.1361
11.81	63.1687
11.828	63.1929
11.846	63.2037
11.864	63.1989
11.882	63.1803
11.9	63.1528
11.918	63.1241
11.936	63.1007
11.954	63.0878
11.972	63.0867
11.99	63.0951
12.008	63.1081
12.026	63.1198
12.044	63.1252
12.062	63.1226
12.08	63.1147
12.098	63.1071
12.116	63.1062
12.134	63.1166
12.152	63.1391
12.17	63.1705
12.188	63.2047
12.206	63.2349
12.224	63.2559
12.242	63.2654
12.26	63.2642
12.278	63.2551
12.296	63.2415
12.314	63.225
12.332	63.2047
12.35	63.1778
12.368	63.1401
12.386	63.0891
12.404	63.0258
12.422	62.9558
12.44	62.8883
12.458	62.8341
12.476	62.8026
12.494	62.7993
12.512	62.8237
12.53	62.8706
12.548	62.9315
12.566	62.9976
12.584	63.0617
12.602	63.1196
12.62	63.1699
12.638	63.2133
12.656	63.2501
12.674	63.2799
12.692	63.3006
12.71	63.3101
12.728	63.3067
12.746	63.2906
12.764	63.264
12.782	63.2306
12.8	63.195
12.818	63.1614
12.836	63.1326
12.854	63.1096
12.872	63.0924
12.89	63.0797
12.908	63.0699
12.926	63.0613
12.944	63.0529
12.962	63.0439
12.98	63.0343
12.998	63.0244
13.016	63.0152
13.034	63.0075
13.052	63.002
13.07	62.9987
13.088	62.9972
13.106	62.9959
13.124	62.9925
13.142	62.984
13.16	62.9678
13.178	62.9424
13.196	62.908
13.214	62.8672
13.232	62.8248
13.25	62.7875
13.268	62.7617
13.286	62.7531
13.304	62.7645
13.322	62.796
13.34	62.8439
13.358	62.9019
13.376	62.9621
13.394	63.0168
13.412	63.0598
13.43	63.0874
13.448	63.0991
13.466	63.0971
13.484	63.0853
13.502	63.0686
13.52	63.0513
13.538	63.037
13.556	63.0279
13.574	63.025
13.592	63.0279
13.61	63.0359
13.628	63.0472
13.646	63.0597
13.664	63.0702
13.682	63.0756
13.7	63.0727
13.718	63.0595
13.736	63.0348
13.754	62.9995
13.772	62.9561
13.79	62.9083
13.808	62.8605
13.826	62.8171
13.844	62.7813
13.862	62.7547
13.88	62.7371
13.898	62.7269
13.916	62.7218
13.934	62.7196
13.952	62.719
13.97	62.7195
13.988	62.7215
14.006	62.7261
14.024	62.7346
14.042	62.7475
14.06	62.7639
14.078	62.7826
14.096	62.8015
14.114	62.8185
14.132	62.8319
14.15	62.8406
14.168	62.8438
14.186	62.8414
14.204	62.8332
14.222	62.8198
14.24	62.8017
14.258	62.7795
14.276	62.7547
14.294	62.7286
14.312	62.7033
14.33	62.6811
14.348	62.6646
14.366	62.6562
14.384	62.6579
14.402	62.6708
14.42	62.6944
14.438	62.7273
14.456	62.7668
14.474	62.8092
14.492	62.8498
14.51	62.884
14.528	62.9076
14.546	62.9178
14.564	62.9134
14.582	62.8945
14.6	62.8629
14.618	62.8214
14.636	62.7741
14.654	62.725
14.672	62.678
14.69	62.6359
14.708	62.6008
14.726	62.5741
14.744	62.5561
14.762	62.5461
14.78	62.5432
14.798	62.5461
14.816	62.5534
14.834	62.5641
14.852	62.5767
14.87	62.5907
14.888	62.6055
14.906	62.621
14.924	62.6372
14.942	62.6544
14.96	62.673
14.978	62.693
14.996	62.7143
15.014	62.7365
15.032	62.7591
15.05	62.7808
15.068	62.8003
15.086	62.8162
15.104	62.8267
15.122	62.8304
15.14	62.8262
15.158	62.8131
15.176	62.791
15.194	62.76
15.212	62.7212
15.23	62.6764
15.248	62.6279
15.266	62.5782
15.284	62.5307
15.302	62.4883
15.32	62.4534
15.338	62.4279
15.356	62.4135
15.374	62.4102
15.392	62.4174
15.41	62.4338
15.428	62.4573
15.446	62.4855
15.464	62.5156
15.482	62.5455
15.5	62.5732
15.518	62.5971
15.536	62.6171
15.554	62.6334
15.572	62.6463
15.59	62.6574
15.608	62.6679
15.626	62.6791
15.644	62.6924
15.662	62.7089
15.68	62.7289
15.698	62.7526
15.716	62.7799
15.734	62.81
15.752	62.842
15.77	62.8748
15.788	62.9068
15.806	62.936
15.824	62.961
15.842	62.9798
15.86	62.9904
15.878	62.9915
15.896	62.9818
15.914	62.9602
15.932	62.9267
15.95	62.882
15.968	62.8269
15.986	62.7636
16.004	62.694
16.022	62.6199
16.04	62.5449
16.058	62.4706
16.076	62.3985
16.094	62.3302
16.112	62.2657
16.13	62.2048
16.148	62.147
16.166	62.0914
16.184	62.0373
16.202	61.984
16.22	61.9318
16.238	61.8814
16.256	61.8333
16.274	61.7903
16.292	61.7541
16.31	61.7265
16.328	61.7103
16.346	61.7061
16.364	61.7148
16.382	61.7363
16.4	61.7691
16.418	61.8122
16.436	61.8628
16.454	61.918
16.472	61.9758
16.49	62.033
16.508	62.0882
16.526	62.1401
16.544	62.1878
16.562	62.2315
16.58	62.2714
16.598	62.3083
16.616	62.3427
16.634	62.3754
16.652	62.4067
16.67	62.4366
16.688	62.4651
16.706	62.4917
16.724	62.5159
16.742	62.5372
16.76	62.5555
16.778	62.5712
16.796	62.5844
16.814	62.5961
16.832	62.6069
16.85	62.618
16.868	62.6302
16.886	62.6445
16.904	62.6615
16.922	62.6811
16.94	62.703
16.958	62.726
16.976	62.7494
16.994	62.7715
17.012	62.7908
17.03	62.8062
17.048	62.8156
17.066	62.8184
17.084	62.8134
17.102	62.8005
17.12	62.7799
17.138	62.7519
17.156	62.7177
17.174	62.6779
17.192	62.6345
17.21	62.5882
17.228	62.541
17.246	62.494
17.264	62.4483
17.282	62.4055
17.3	62.3663
17.318	62.3318
17.336	62.3028
17.354	62.2796
17.372	62.2635
17.39	62.2548
17.408	62.2542
17.426	62.2619
17.444	62.2778
17.462	62.3014
17.48	62.3322
17.498	62.3691
17.516	62.4109
17.534	62.4569
17.552	62.5039
17.57	62.551
17.588	62.5954
17.606	62.6362
17.624	62.6712
17.642	62.7
17.66	62.722
17.678	62.7373
17.696	62.7462
17.714	62.7501
17.732	62.7504
17.75	62.7486
17.768	62.7472
17.786	62.7471
17.804	62.7511
17.822	62.7595
17.84	62.7739
17.858	62.7939
17.876	62.8201
17.894	62.8511
17.912	62.8865
17.93	62.9239
17.948	62.9629
17.966	63.0005
17.984	63.0362
18.002	63.0678
18.02	63.0947
18.038	63.116
18.056	63.1317
18.074	63.1417
18.092	63.1468
18.11	63.1472
18.128	63.144
18.146	63.1376
18.164	63.1292
18.182	63.1187
18.2	63.1067
18.218	63.0925
18.236	63.0761
18.254	63.0559
18.272	63.0315
18.29	63.0007
18.308	62.963
18.326	62.9163
18.344	62.8603
18.362	62.7936
18.38	62.7167
18.398	62.6296
18.416	62.5338
18.434	62.4302
18.452	62.322
18.47	62.2107
18.488	62.1006
18.506	61.993
18.524	61.8931
18.542	61.8018
18.56	61.7233
18.578	61.658
18.596	61.6083
18.614	61.5744
18.632	61.5566
18.65	61.5545
18.668	61.5662
18.686	61.5909
18.704	61.6243
18.722	61.6656
18.74	61.7099
18.758	61.7567
18.776	61.8014
18.794	61.8439
18.812	61.8811
18.83	61.9129
18.848	61.9376
18.866	61.9561
18.884	61.9685
18.902	61.9764
18.92	61.9814
18.938	61.9852
18.956	61.9904
18.974	61.9982
18.992	62.0113
19.01	62.0298
19.028	62.0553
19.046	62.0868
19.064	62.1242
19.082	62.1658
19.1	62.2095
19.118	62.2535
19.136	62.2944
19.154	62.3307
19.172	62.3579
19.19	62.3755
19.208	62.3796
19.226	62.3707
19.244	62.3473
19.262	62.3105
19.28	62.2619
19.298	62.2024
19.316	62.1369
19.334	62.0654
19.352	61.9948
19.37	61.9248
19.388	61.8629
19.406	61.8088
19.424	61.7674
19.442	61.739
19.46	61.7255
19.478	61.7277
19.496	61.7431
19.514	61.7718
19.532	61.8096
19.55	61.8556
19.568	61.9047
19.586	61.9522
19.604	61.9955
19.622	62.0272
19.64	62.0469
19.658	62.0461
19.676	62.0256
19.694	61.9795
19.712	61.9081
19.73	61.8099
19.748	61.6843
19.766	61.5343
19.784	61.3589
19.802	61.164
19.82	60.9514
19.838	60.7255
19.856	60.4926
19.874	60.2539
19.892	60.0203
19.91	59.7905
19.928	59.576
19.946	59.3756
19.964	59.1982
19.982	59.0446
20	58.9188
20.018	58.8237
20.036	58.7593
20.054	58.7285
20.072	58.7302
20.09	58.7644
20.108	58.8311
20.126	58.9269
20.144	59.0523
20.162	59.2028
20.18	59.3774
20.198	59.5729
20.216	59.7847
20.234	60.0126
20.252	60.2494
20.27	60.4963
20.288	60.7455
20.306	60.9973
20.324	61.2466
20.342	61.4902
20.36	61.7269
20.378	61.9505
20.396	62.1623
20.414	62.3561
20.432	62.5324
20.45	62.6882
20.468	62.8216
20.486	62.9328
20.504	63.0196
20.522	63.0826
20.54	63.1222
20.558	63.138
20.576	63.1323
20.594	63.1052
20.612	63.0591
20.63	62.9984
20.648	62.9223
20.666	62.8375
20.684	62.7431
20.702	62.6445
20.72	62.5455
20.738	62.446
20.756	62.3519
20.774	62.2619
20.792	62.1803
20.81	62.1083
20.828	62.0457
20.846	61.9937
20.864	61.952
20.882	61.9194
20.9	61.8967
20.918	61.8808
20.936	61.8703
20.954	61.8648
20.972	61.8593
20.99	61.8551
21.008	61.8483
21.026	61.8372
21.044	61.8218
21.062	61.7993
21.08	61.77
21.098	61.7341
21.116	61.6906
21.134	61.6412
21.152	61.5875
21.17	61.529
21.188	61.4699
21.206	61.4103
21.224	61.3522
21.242	61.2999
21.26	61.252
21.278	61.2131
21.296	61.184
21.314	61.1654
21.332	61.1602
21.35	61.1677
21.368	61.1885
21.386	61.2235
21.404	61.2715
21.422	61.3313
21.44	61.4037
21.458	61.4853
21.476	61.5754
21.494	61.6733
21.512	61.7747
21.53	61.8806
21.548	61.9881
21.566	62.0946
21.584	62.201
21.602	62.304
21.62	62.4037
21.638	62.4994
21.656	62.5895
21.674	62.6745
21.692	62.754
21.71	62.8276
21.728	62.8957
21.746	62.9591
21.764	63.0175
21.782	63.0715
21.8	63.1216
21.818	63.1676
21.836	63.2099
21.854	63.2492
21.872	63.2846
21.89	63.3156
21.908	63.3426
21.926	63.3644
21.944	63.3805
21.962	63.3911
21.98	63.3935
21.998	63.3878
22.016	63.3733
22.034	63.3476
22.052	63.3117
22.07	63.2639
22.088	63.2028
22.106	63.1292
22.124	63.0427
22.142	62.9426
22.16	62.83
22.178	62.7062
22.196	62.5703
22.214	62.4248
22.232	62.2724
22.25	62.1112
22.268	61.9466
22.286	61.7809
22.304	61.613
22.322	61.4502
22.34	61.2925
22.358	61.1411
22.376	61.0029
22.394	60.8762
22.412	60.7636
22.43	60.6699
22.448	60.593
22.466	60.5354
22.484	60.4996
22.502	60.4843
22.52	60.49
22.538	60.5175
22.556	60.5662
22.574	60.633
22.592	60.7189
22.61	60.8224
22.628	60.9379
22.646	61.0677
22.664	61.2081
22.682	61.3525
22.7	61.5039
22.718	61.6575
22.736	61.8075
22.754	61.9568
22.772	62.1006
22.79	62.2342
22.808	62.3602
22.826	62.4752
22.844	62.5769
22.862	62.6665
22.88	62.7434
22.898	62.8064
22.916	62.8561
22.934	62.8946
22.952	62.9217
22.97	62.9375
22.988	62.9468
23.006	62.9497
23.024	62.9462
23.042	62.9414
23.06	62.9356
23.078	62.9285
23.096	62.9243
23.114	62.9232
23.132	62.9247
23.15	62.9303
23.168	62.9405
23.186	62.9544
23.204	62.9711
23.222	62.9917
23.24	63.0148
23.258	63.0367
23.276	63.0586
23.294	63.0793
23.312	63.0947
23.33	63.1058
23.348	63.1117
23.366	63.1081
23.384	63.0949
23.402	63.0727
23.42	63.0392
23.438	62.9943
23.456	62.9384
23.474	62.8707
23.492	62.7906
23.51	62.6987
23.528	62.5963
23.546	62.4831
23.564	62.3593
23.582	62.2266
23.6	62.0853
23.618	61.935
23.636	61.7778
23.654	61.6147
23.672	61.4449
23.69	61.2697
23.708	61.0902
23.726	60.9057
23.744	60.7169
23.762	60.5245
23.78	60.3281
23.798	60.128
23.816	59.9247
23.834	59.7179
23.852	59.5079
23.87	59.2956
23.888	59.0802
23.906	58.8625
23.924	58.644
23.942	58.424
23.96	58.2029
23.978	57.9836
23.996	57.7664
24.014	57.5504
24.032	57.3394
24.05	57.1354
24.068	56.936
24.086	56.7456
24.104	56.5681
24.122	56.4008
24.14	56.2463
24.158	56.1093
24.176	55.9879
24.194	55.8831
24.212	55.799
24.23	55.7362
24.248	55.6935
24.266	55.6734
24.284	55.6773
24.302	55.7039
24.32	55.754
24.338	55.8284
24.356	55.9275
24.374	56.0498
24.392	56.1938
24.41	56.3606
24.428	56.5493
24.446	56.7564
24.464	56.9813
24.482	57.2255
24.5	57.4843
24.518	57.7541
24.536	58.0384
24.554	58.3331
24.572	58.6326
24.59	58.9391
24.608	59.2516
24.626	59.5638
24.644	59.8731
24.662	60.1831
24.68	60.4881
24.698	60.7832
24.716	61.0717
24.734	61.3513
24.752	61.6169
24.77	61.8686
24.788	62.1077
24.806	62.3307
24.824	62.5354
24.842	62.724
24.86	62.8947
24.878	63.0452
24.896	63.1754
24.914	63.2863
24.932	63.3777
24.95	63.4491
24.968	63.5002
24.986	63.5333
25.004	63.5508
25.022	63.5504
25.04	63.5341
25.058	63.506
25.076	63.4673
25.094	63.4152
25.112	63.3551
25.13	63.2925
25.148	63.2242
25.166	63.1517
25.184	63.08
25.202	63.0114
25.22	62.943
25.238	62.8775
25.256	62.818
25.274	62.7637
25.292	62.7142
25.31	62.671
25.328	62.6351
25.346	62.6055
25.364	62.5826
25.382	62.5672
25.4	62.5605
25.418	62.5614
25.436	62.5667
25.454	62.5749
25.472	62.589
25.49	62.6052
25.508	62.6184
25.526	62.6276
25.544	62.6354
25.562	62.6382
25.58	62.6323
25.598	62.6189
25.616	62.5985
25.634	62.5703
25.652	62.5332
25.67	62.4864
25.688	62.4332
25.706	62.3773
25.724	62.3168
25.742	62.251
25.76	62.1872
25.778	62.1319
25.796	62.0799
25.814	62.0337
25.832	62.0006
25.85	61.9852
25.868	61.9817
25.886	61.9946
25.904	62.0297
25.922	62.0887
25.94	62.1681
25.958	62.271
25.976	62.4005
25.994	62.5567
26.012	62.7382
26.03	62.9448
26.048	63.1764
26.066	63.4354
26.084	63.7186
26.102	64.0214
26.12	64.3413
26.138	64.6833
26.156	65.0417
26.174	65.4095
26.192	65.7851
26.21	66.1736
26.228	66.5679
26.246	66.961
26.264	67.3532
26.282	67.7476
26.3	68.1384
26.318	68.5202
26.336	68.8954
26.354	69.2643
26.372	69.6231
26.39	69.9676
26.408	70.299
26.426	70.6184
26.444	70.9259
26.462	71.2214
26.48	71.5042
26.498	71.7753
26.516	72.0363
26.534	72.2877
26.552	72.5263
26.57	72.7562
26.588	72.9825
26.606	73.2071
26.624	73.4232
26.642	73.639
26.66	73.8647
26.678	74.1059
26.696	74.3541
26.714	74.615
26.732	74.8956
26.75	75.1987
26.768	75.5177
26.786	75.8588
26.804	76.229
26.822	76.6348
26.84	77.0742
26.858	77.5395
26.876	78.0231
26.894	78.5253
26.912	79.0572
26.93	79.6003
26.948	80.1341
26.966	80.6657
26.984	81.2374
27.002	81.7739
27.02	82.1916
27.028	82.3045