File: Bakgrunnsmateriale/MATLAB/FTIR/ftir_data/subAa/Mapping_121/BZ1503107-1_t20_cm-1.asc
PE IR       SPECTRUM    SPECTRUM    ASCII       PEDS        1.60
  -1
BZ6823~1.ASC
17/04/07
14:48:50.00
17/04/07
14:48:50.00
tln
$BZ1503107-1_t0020$<tbV0>[-7.8,-10.4,8.0,0.0,27,1,0]
370
64

2002,4.07
MIRTGS : RIGHTBACK : INTERNAL 2
MIR : ON : INTERNAL 2
OPTKBR

0.200000
8
8.000000
FILLER
RATIO
SPECTRUM
UNLOCKED 256

DOUBLE
64
COMBINED
1
0
0

1.000000
RATIO

1
0
TRUE
51149
0
LEFT NOT FITTED RIGHT NOT FITTED 0
NONE
NONE
15600
12
4.427000
51148
TRUE
1 0 8 72 0 0 0 0

15798

#HDR
-1
-1
#GR
CM-1
%T
2.38419e-05
0.0
5000
-1.000000
4631
8
78.3971
26.5879
#DATA
5000	61.0909
4996	62.6327
4992	63.1154
4988	62.3079
4984	60.6883
4980	59.5167
4976	59.5504
4972	60.1452
4968	60.4119
4964	60.6104
4960	60.6504
4956	60.2983
4952	60.3035
4948	60.6413
4944	60.8195
4940	60.59
4936	60.2017
4932	60.2651
4928	60.5831
4924	60.5978
4920	60.4816
4916	60.4661
4912	60.5517
4908	60.6234
4904	60.4628
4900	60.3049
4896	60.3463
4892	60.3792
4888	60.5151
4884	60.7558
4880	60.5257
4876	59.9423
4872	59.6671
4868	59.919
4864	60.3929
4860	60.5659
4856	60.4833
4852	60.5626
4848	60.8829
4844	60.9331
4840	60.5239
4836	60.3535
4832	60.5487
4828	60.6796
4824	60.5357
4820	60.2444
4816	60.3553
4812	60.4
4808	60.0999
4804	60.4873
4800	61.0487
4796	60.9193
4792	60.8293
4788	60.8839
4784	60.5013
4780	60.1098
4776	60.2717
4772	60.2121
4768	59.7078
4764	59.9099
4760	60.6762
4756	60.7517
4752	60.3917
4748	60.3278
4744	60.1793
4740	59.8942
4736	59.9928
4732	60.316
4728	60.2293
4724	59.8196
4720	59.6206
4716	59.8131
4712	60.0127
4708	59.7503
4704	59.5244
4700	59.7626
4696	60.0801
4692	60.2687
4688	60.3584
4684	60.329
4680	60.2942
4676	60.3177
4672	60.187
4668	60.0269
4664	60.1337
4660	60.3734
4656	60.4543
4652	60.378
4648	60.4554
4644	60.5912
4640	60.4946
4636	60.3129
4632	60.1321
4628	60.0352
4624	60.1822
4620	60.2805
4616	60.3172
4612	60.4807
4608	60.5029
4604	60.5545
4600	60.7972
4596	60.8793
4592	60.8706
4588	60.9148
4584	60.8106
4580	60.5842
4576	60.5286
4572	60.5673
4568	60.5056
4564	60.4146
4560	60.4315
4556	60.5327
4552	60.5472
4548	60.5918
4544	60.7618
4540	60.8172
4536	60.7251
4532	60.582
4528	60.5325
4524	60.4198
4520	60.3371
4516	60.5761
4512	61.0219
4508	61.4967
4504	61.7085
4500	61.663
4496	62.037
4492	63.251
4488	63.9343
4484	64.7434
4480	65.5986
4476	63.8798
4472	61.6896
4468	60.7069
4464	60.0363
4460	59.7661
4456	59.2988
4452	58.0502
4448	55.3503
4444	51.8108
4440	48.192
4436	42.4708
4432	40.7012
4428	49.7708
4424	60.4858
4420	64.3416
4416	63.4091
4412	62.0775
4408	62.0142
4404	61.9278
4400	61.499
4396	61.4493
4392	61.4691
4388	61.2089
4384	61.0721
4380	60.8831
4376	60.8589
4372	61.1617
4368	61.4058
4364	61.5737
4360	61.5447
4356	61.4465
4352	61.483
4348	61.6069
4344	61.7582
4340	61.5832
4336	61.2576
4332	61.2864
4328	61.3605
4324	61.17
4320	61.0213
4316	61.1115
4312	61.2364
4308	61.2823
4304	61.2936
4300	61.2419
4296	61.0289
4292	60.7635
4288	60.609
4284	60.5242
4280	60.5671
4276	60.7007
4272	60.7334
4268	60.7304
4264	60.7769
4260	60.8075
4256	60.842
4252	60.9413
4248	60.9493
4244	60.8524
4240	60.8435
4236	60.8265
4232	60.7692
4228	60.6876
4224	60.6427
4220	60.8408
4216	60.9664
4212	60.7927
4208	60.6461
4204	60.7287
4200	60.8685
4196	60.6555
4192	60.3952
4188	60.5897
4184	60.8681
4180	60.9022
4176	60.8021
4172	60.8413
4168	60.9788
4164	60.8469
4160	60.6052
4156	60.6334
4152	60.7349
4148	60.6673
4144	60.6864
4140	60.8639
4136	60.9932
4132	61.0796
4128	61.0275
4124	60.8163
4120	60.7023
4116	60.7823
4112	60.9736
4108	61.0718
4104	61.0102
4100	60.9142
4096	60.8407
4092	60.9455
4088	61.131
4084	61.0988
4080	61.0403
4076	61.1099
4072	61.0885
4068	61.0274
4064	61.108
4060	61.2055
4056	61.1254
4052	60.9559
4048	60.9343
4044	61.0468
4040	61.0852
4036	61.0219
4032	61.01
4028	61.0656
4024	61.0225
4020	60.9105
4016	60.9334
4012	60.9698
4008	60.9419
4004	60.9647
4000	60.9202
3996	60.784
3992	60.7149
3988	60.7707
3984	60.9585
3980	61.0946
3976	61.0706
3972	61.0769
3968	61.0567
3964	61.0095
3960	61.0679
3956	61.0415
3952	60.9335
3948	60.9576
3944	61.0934
3940	61.2061
3936	61.16
3932	61.0794
3928	61.057
3924	60.9084
3920	60.8119
3916	60.8779
3912	60.8854
3908	60.8881
3904	60.9627
3900	61.1202
3896	61.3375
3892	61.4398
3888	61.4233
3884	61.3403
3880	61.1795
3876	61.0415
3872	60.9824
3868	60.9763
3864	61.0368
3860	61.1613
3856	61.3181
3852	61.4557
3848	61.528
3844	61.5107
3840	61.3805
3836	61.261
3832	61.2678
3828	61.351
3824	61.4431
3820	61.4994
3816	61.4119
3812	61.1708
3808	61.0214
3804	61.0253
3800	60.9523
3796	60.8743
3792	60.9956
3788	61.1869
3784	61.2061
3780	61.0885
3776	61.0648
3772	61.1678
3768	61.2843
3764	61.2926
3760	61.2164
3756	61.2816
3752	61.4522
3748	61.4969
3744	61.4318
3740	61.3553
3736	61.28
3732	61.2387
3728	61.2569
3724	61.2596
3720	61.1794
3716	61.1202
3712	61.1841
3708	61.3387
3704	61.4294
3700	61.2828
3696	61.1163
3692	61.2399
3688	61.4913
3684	61.5524
3680	61.4991
3676	61.503
3672	61.4593
3668	61.3374
3664	61.2842
3660	61.3074
3656	61.2848
3652	61.3069
3648	61.3511
3644	61.2861
3640	61.2832
3636	61.348
3632	61.3927
3628	61.4643
3624	61.4679
3620	61.4023
3616	61.4096
3612	61.4076
3608	61.3303
3604	61.3616
3600	61.4716
3596	61.4281
3592	61.254
3588	61.1682
3584	61.2636
3580	61.3632
3576	61.4351
3572	61.5366
3568	61.4397
3564	61.2584
3560	61.305
3556	61.4109
3552	61.3631
3548	61.3201
3544	61.4406
3540	61.5303
3536	61.4605
3532	61.3248
3528	61.2348
3524	61.2416
3520	61.2399
3516	61.2192
3512	61.309
3508	61.4525
3504	61.5455
3500	61.5263
3496	61.4027
3492	61.3216
3488	61.3165
3484	61.3392
3480	61.3855
3476	61.4608
3472	61.4956
3468	61.4469
3464	61.4264
3460	61.3985
3456	61.3614
3452	61.4088
3448	61.4572
3444	61.4396
3440	61.425
3436	61.4988
3432	61.5721
3428	61.5838
3424	61.5853
3420	61.5275
3416	61.4308
3412	61.3804
3408	61.4264
3404	61.486
3400	61.4057
3396	61.3245
3392	61.3655
3388	61.4187
3384	61.4661
3380	61.4833
3376	61.3801
3372	61.3176
3368	61.4139
3364	61.4564
3360	61.4464
3356	61.4712
3352	61.4231
3348	61.3638
3344	61.4131
3340	61.5049
3336	61.5564
3332	61.5698
3328	61.5487
3324	61.5086
3320	61.5263
3316	61.5731
3312	61.5204
3308	61.4153
3304	61.3864
3300	61.4338
3296	61.5103
3292	61.5734
3288	61.5851
3284	61.5431
3280	61.4833
3276	61.439
3272	61.4363
3268	61.4539
3264	61.4908
3260	61.5746
3256	61.6203
3252	61.5415
3248	61.4645
3244	61.4992
3240	61.5154
3236	61.4475
3232	61.401
3228	61.4753
3224	61.5975
3220	61.606
3216	61.5937
3212	61.6503
3208	61.6252
3204	61.549
3200	61.5528
3196	61.588
3192	61.5701
3188	61.4943
3184	61.4474
3180	61.5036
3176	61.6146
3172	61.6465
3168	61.6241
3164	61.7107
3160	61.8022
3156	61.7402
3152	61.6641
3148	61.6673
3144	61.631
3140	61.4759
3136	61.4107
3132	61.6553
3128	61.8767
3124	61.7519
3120	61.5805
3116	61.5734
3112	61.6448
3108	61.7401
3104	61.7479
3100	61.744
3096	61.8014
3092	61.7936
3088	61.7032
3084	61.6116
3080	61.5777
3076	61.6556
3072	61.7686
3068	61.7394
3064	61.6508
3060	61.6192
3056	61.5774
3052	61.5437
3048	61.5552
3044	61.5959
3040	61.6274
3036	61.5757
3032	61.594
3028	61.7445
3024	61.8058
3020	61.7902
3016	61.8316
3012	61.8884
3008	61.8603
3004	61.7365
3000	61.6636
2996	61.6935
2992	61.6807
2988	61.639
2984	61.6443
2980	61.6379
2976	61.5974
2972	61.6208
2968	61.6283
2964	61.5075
2960	61.4605
2956	61.536
2952	61.5639
2948	61.5222
2944	61.5443
2940	61.6382
2936	61.6522
2932	61.6395
2928	61.6669
2924	61.6629
2920	61.6078
2916	61.5264
2912	61.5312
2908	61.657
2904	61.7008
2900	61.6588
2896	61.6411
2892	61.6018
2888	61.5985
2884	61.6664
2880	61.734
2876	61.7568
2872	61.7541
2868	61.7475
2864	61.7162
2860	61.7543
2856	61.8335
2852	61.8648
2848	61.9052
2844	61.9061
2840	61.8537
2836	61.8464
2832	61.9122
2828	61.9596
2824	61.9092
2820	61.8374
2816	61.8383
2812	61.8823
2808	61.9033
2804	61.8927
2800	61.8695
2796	61.8399
2792	61.8191
2788	61.858
2784	61.9528
2780	62.0155
2776	61.9506
2772	61.863
2768	61.8783
2764	61.8944
2760	61.9055
2756	61.9369
2752	61.9142
2748	61.8519
2744	61.8172
2740	61.8675
2736	61.9749
2732	62.0137
2728	61.9633
2724	61.9234
2720	61.8886
2716	61.8798
2712	61.9219
2708	61.939
2704	61.9796
2700	62.0386
2696	62.0219
2692	61.9815
2688	61.9927
2684	61.9985
2680	61.9804
2676	61.9849
2672	61.9558
2668	61.926
2664	61.9724
2660	62.0129
2656	62.0144
2652	62.025
2648	62.0171
2644	61.9832
2640	61.9612
2636	61.9256
2632	61.9197
2628	62.0017
2624	62.0847
2620	62.0889
2616	62.0243
2612	61.9536
2608	61.9317
2604	61.9684
2600	62.0167
2596	62.0459
2592	62.0757
2588	62.0753
2584	62.0427
2580	62.0429
2576	62.0883
2572	62.1016
2568	62.1145
2564	62.1646
2560	62.1576
2556	62.0962
2552	62.0341
2548	62.0159
2544	62.0569
2540	62.0637
2536	62.0564
2532	62.1245
2528	62.2069
2524	62.2073
2520	62.1287
2516	62.0807
2512	62.0704
2508	62.007
2504	61.9367
2500	61.9671
2496	62.0637
2492	62.1246
2488	62.1617
2484	62.1717
2480	62.1316
2476	62.0864
2472	62.0743
2468	62.0752
2464	62.0562
2460	62.0326
2456	62.016
2452	61.9975
2448	62.0118
2444	62.0422
2440	62.0748
2436	62.1242
2432	62.0923
2428	62.0633
2424	62.1471
2420	62.1906
2416	62.2118
2412	62.2701
2408	62.2144
2404	62.1067
2400	62.116
2396	62.1253
2392	62.0763
2388	62.0947
2384	62.1067
2380	62.0689
2376	62.1123
2372	62.2095
2368	62.2379
2364	62.2267
2360	62.2353
2356	62.2231
2352	62.1901
2348	62.1966
2344	62.213
2340	62.2021
2336	62.1926
2332	62.1828
2328	62.1805
2324	62.1385
2320	62.0748
2316	62.1087
2312	62.2077
2308	62.26
2304	62.2499
2300	62.2211
2296	62.2048
2292	62.233
2288	62.2687
2284	62.2457
2280	62.1764
2276	62.1377
2272	62.1827
2268	62.2624
2264	62.2992
2260	62.275
2256	62.2219
2252	62.2004
2248	62.2203
2244	62.2246
2240	62.2063
2236	62.1949
2232	62.2075
2228	62.2228
2224	62.234
2220	62.2573
2216	62.2602
2212	62.2728
2208	62.3322
2204	62.3415
2200	62.2873
2196	62.2622
2192	62.2689
2188	62.259
2184	62.2689
2180	62.3068
2176	62.3107
2172	62.3249
2168	62.3859
2164	62.376
2160	62.1782
2156	62.0751
2152	62.223
2148	62.398
2144	62.4606
2140	62.3741
2136	62.2603
2132	62.2241
2128	62.2832
2124	62.3847
2120	62.4174
2116	62.4024
2112	62.3899
2108	62.3551
2104	62.3286
2100	62.3271
2096	62.288
2092	62.3042
2088	62.4496
2084	62.511
2080	62.4744
2076	62.4742
2072	62.4177
2068	62.3178
2064	62.26
2060	62.3005
2056	62.4268
2052	62.4764
2048	62.4937
2044	62.5066
2040	62.4114
2036	62.3379
2032	62.3667
2028	62.3974
2024	62.4242
2020	62.4264
2016	62.3679
2012	62.384
2008	62.4902
2004	62.5105
2000	62.4215
1996	62.3583
1992	62.3735
1988	62.4104
1984	62.4332
1980	62.4658
1976	62.5456
1972	62.6397
1968	62.653
1964	62.5644
1960	62.483
1956	62.4911
1952	62.5264
1948	62.515
1944	62.4775
1940	62.4213
1936	62.411
1932	62.4571
1928	62.4621
1924	62.4587
1920	62.5033
1916	62.5817
1912	62.602
1908	62.5189
1904	62.4412
1900	62.4213
1896	62.4454
1892	62.5072
1888	62.5426
1884	62.5359
1880	62.5348
1876	62.5997
1872	62.7022
1868	62.6939
1864	62.5711
1860	62.5078
1856	62.5489
1852	62.5856
1848	62.602
1844	62.6052
1840	62.5943
1836	62.6181
1832	62.6422
1828	62.6128
1824	62.5521
1820	62.5318
1816	62.5471
1812	62.4895
1808	62.4552
1804	62.5407
1800	62.6205
1796	62.6521
1792	62.6576
1788	62.6281
1784	62.5722
1780	62.561
1776	62.626
1772	62.6908
1768	62.6661
1764	62.5829
1760	62.5587
1756	62.5932
1752	62.5932
1748	62.4815
1744	62.3205
1740	62.2517
1736	62.2567
1732	62.2031
1728	62.1708
1724	62.3271
1720	62.5207
1716	62.574
1712	62.5576
1708	62.5767
1704	62.7149
1700	62.9187
1696	62.9411
1692	62.7995
1688	62.7824
1684	62.8427
1680	62.7733
1676	62.6735
1672	62.7027
1668	62.7692
1664	62.7125
1660	62.6153
1656	62.6203
1652	62.6379
1648	62.6292
1644	62.6471
1640	62.658
1636	62.6755
1632	62.693
1628	62.696
1624	62.6986
1620	62.6786
1616	62.6407
1612	62.6245
1608	62.663
1604	62.6913
1600	62.658
1596	62.6518
1592	62.7125
1588	62.7545
1584	62.7848
1580	62.8594
1576	62.8897
1572	62.8407
1568	62.7906
1564	62.8293
1560	62.9216
1556	62.8297
1552	62.6415
1548	62.6303
1544	62.7496
1540	62.811
1536	62.7687
1532	62.7087
1528	62.6961
1524	62.7495
1520	62.7926
1516	62.7787
1512	62.8501
1508	62.9724
1504	62.924
1500	62.8021
1496	62.7756
1492	62.7596
1488	62.7228
1484	62.7411
1480	62.8145
1476	62.9133
1472	62.9472
1468	62.8517
1464	62.7481
1460	62.7797
1456	62.781
1452	62.6364
1448	62.565
1444	62.5749
1440	62.6377
1436	62.7604
1432	62.7933
1428	62.7646
1424	62.7743
1420	62.8092
1416	62.838
1412	62.8269
1408	62.7649
1404	62.7057
1400	62.7053
1396	62.7744
1392	62.8462
1388	62.8405
1384	62.7819
1380	62.7521
1376	62.7561
1372	62.7665
1368	62.8573
1364	62.966
1360	62.9635
1356	62.9521
1352	62.9669
1348	62.9588
1344	62.9412
1340	62.8325
1336	62.6955
1332	62.7134
1328	62.7938
1324	62.8139
1320	62.7844
1316	62.7516
1312	62.7633
1308	62.7537
1304	62.711
1300	62.7275
1296	62.7921
1292	62.8166
1288	62.7988
1284	62.7969
1280	62.8165
1276	62.8228
1272	62.7984
1268	62.7719
1264	62.7807
1260	62.7872
1256	62.7796
1252	62.7822
1248	62.751
1244	62.7408
1240	62.8044
1236	62.8166
1232	62.7792
1228	62.8227
1224	62.8527
1220	62.832
1216	62.8761
1212	62.8918
1208	62.8496
1204	62.836
1200	62.8547
1196	62.8634
1192	62.872
1188	62.9209
1184	62.9042
1180	62.806
1176	62.7658
1172	62.8012
1168	62.8082
1164	62.7775
1160	62.7859
1156	62.8062
1152	62.8015
1148	62.7743
1144	62.7957
1140	63.0187
1136	63.2276
1132	63.2224
1128	63.1605
1124	63.0781
1120	62.9936
1116	62.9643
1112	62.9365
1108	62.9364
1104	63.0338
1100	63.0502
1096	62.9459
1092	62.9765
1088	63.0773
1084	63.1553
1080	63.1693
1076	63.0703
1072	62.9909
1068	62.9359
1064	62.9215
1060	62.9677
1056	62.9765
1052	62.9128
1048	62.8789
1044	62.8993
1040	62.9186
1036	62.986
1032	63.0896
1028	63.0818
1024	62.9691
1020	63.0486
1016	63.2001
1012	63.1004
1008	62.9759
1004	63.044
1000	63.1399
996	 63.1405
992	 63.1774
988	 63.2444
984	 63.2517
980	 63.2372
976	 63.1421
972	 63.0145
968	 62.9936
964	 63.0728
960	 63.1512
956	 63.1669
952	 63.2818
948	 63.4436
944	 63.3755
940	 63.2467
936	 63.2593
932	 63.2529
928	 63.2057
924	 63.1967
920	 63.1912
916	 63.1878
912	 63.1788
908	 63.1547
904	 63.1202
900	 63.1332
896	 63.2507
892	 63.2839
888	 63.169
884	 63.1129
880	 63.141
876	 63.198
872	 63.2877
868	 63.3538
864	 63.3415
860	 63.3088
856	 63.3714
852	 63.3667
848	 63.2559
844	 63.3015
840	 63.3618
836	 63.1936
832	 62.9607
828	 62.9466
824	 63.0905
820	 63.1577
816	 63.1875
812	 63.2581
808	 63.3019
804	 63.1983
800	 63.1072
796	 63.1954
792	 63.2237
788	 63.2177
784	 63.3236
780	 63.387
776	 63.3644
772	 63.3412
768	 63.3476
764	 63.2999
760	 63.1372
756	 63.0043
752	 62.9774
748	 63.0535
744	 63.1294
740	 63.0744
736	 63.0447
732	 63.1711
728	 63.2656
724	 63.1598
720	 63.014
716	 63.096
712	 63.2701
708	 63.2913
704	 63.2748
700	 63.2375
696	 63.1234
692	 62.954
688	 62.9682
684	 63.1355
680	 63.0668
676	 63.0695
672	 63.287
668	 63.3175
664	 63.1572
660	 62.8986
656	 62.6038
652	 62.6031
648	 62.9781
644	 63.3832
640	 63.5987
636	 63.5415
632	 63.5092
628	 63.9007
624	 64.2957
620	 64.1545
616	 63.8624
612	 64.2188
608	 64.5989
604	 64.1459
600	 63.8314
596	 64.4983
592	 65.3075
588	 65.1322
584	 64.6157
580	 64.4676
576	 63.8344
572	 62.9173
568	 62.5709
564	 62.9696
560	 64.1924
556	 64.8357
552	 63.9324
548	 63.3822
544	 63.8198
540	 63.5777
536	 62.8952
532	 62.9448
528	 63.4208
524	 63.6904
520	 63.8618
516	 64.271
512	 64.0511
508	 63.1433
504	 63.101
500	 63.6039
496	 63.6094
492	 63.5435
488	 63.4102
484	 63.4279
480	 64.1294
476	 64.6214
472	 64.4339
468	 63.9402
464	 63.395
460	 63.3426
456	 63.4714
452	 63.427
448	 63.4407
444	 63.3196
440	 63.5313
436	 64.3601
432	 65.1907
428	 65.1855
424	 64.423
420	 64.0937
416	 64.7292
412	 66.2737
408	 67.3999
404	 69.3347
400	 74.984
396	 78.3971
392	 72.6765
388	 60.4524
384	 53.0391
380	 49.6603
376	 48.5579
372	 26.5879
370	 45.3156