File: Bakgrunnsmateriale/MATLAB/FTIR/ftir_data/subAa/Mapping_121/BZ1503107-1_t01.asc
PE IR       SPECTRUM    SPECTRUM    ASCII       PEDS        1.60
  -1
BZ1503~4.ASC
17/04/07
13:20:30.00
17/04/07
13:20:56.00
tln
$BZ1503107-1_t0001$<tbV0>[13.0,-13.0,8.0,0.0,27,1,0]
27.028
64

2002,4.07
MIRTGS : RIGHTBACK : INTERNAL 2
MIR : ON : INTERNAL 2
OPTKBR

0.200000
8
8.000000
FILLER
RATIO
SPECTRUM
UNLOCKED 256

DOUBLE
64
COMBINED
1
0
0

0.002000
RATIO

1
0
TRUE
51149
0
LEFT NOT FITTED RIGHT NOT FITTED 0
NONE
NONE
15600
12
4.427000
51148
TRUE
1 0 8 72 0 0 0 0

15798

#HDR
-1
-1
#GR
µM
%T
2.38419e-05
0.0
2.000000
0.002000
12515
8
109.6
41.8384
#DATA
2.000000	 65.3366
2.018000	 65.272
2.036000	 65.1809
2.054000	 64.0358
2.072000	 63.4052
2.090000	 64.6933
2.108000	 64.6537
2.126000	 64.6477
2.144000	 64.9849
2.162000	 64.6363
2.180000	 65.551
2.198000	 64.7628
2.216000	 65.4426
2.234000	 66.595
2.252000	 65.7062
2.270000	 65.8135
2.288000	 65.004
2.306000	 65.2554
2.324000	 65.3107
2.342000	 64.9605
2.360000	 65.1611
2.378000	 65.2554
2.396000	 64.8768
2.414000	 65.028
2.432000	 65.1415
2.450000	 65.3534
2.468000	 64.9553
2.486000	 64.9396
2.504000	 64.9477
2.522000	 65.2434
2.540000	 65.4436
2.558000	 65.1184
2.576000	 65.0624
2.594000	 65.2001
2.612000	 65.3206
2.630000	 65.2861
2.648000	 64.9689
2.666000	 65.3164
2.684000	 65.1075
2.702000	 65.1505
2.720000	 65.5071
2.738000	 65.1915
2.756000	 65.3607
2.774000	 65.1438
2.792000	 65.2323
2.810000	 65.0311
2.828000	 65.0462
2.846000	 65.098
2.864000	 65.0217
2.882000	 64.9803
2.900000	 65.0635
2.918000	 65.2667
2.936000	 65.0279
2.954000	 65.1358
2.972000	 65.0319
2.990000	 64.9027
3.008000	 65.1884
3.026000	 65.0488
3.044000	 65.0275
3.062000	 65.0155
3.080000	 65.0855
3.098000	 65.0761
3.116000	 65.1389
3.134000	 65.0543
3.152000	 65.0909
3.170000	 65.1196
3.188000	 65.142
3.206000	 65.2895
3.224000	 65.2691
3.242000	 65.2167
3.260000	 65.2192
3.278000	 65.0915
3.296000	 65.2741
3.314000	 65.1587
3.332000	 65.082
3.350000	 65.2202
3.368000	 65.1599
3.386000	 65.1244
3.404000	 64.9734
3.422000	 64.8552
3.440000	 64.9434
3.458000	 65.0486
3.476000	 64.9811
3.494000	 64.9465
3.512000	 64.9954
3.530000	 65.1182
3.548000	 65.0617
3.566000	 65.1254
3.584000	 65.0052
3.602000	 65.1118
3.620000	 65.0686
3.638000	 65.1088
3.656000	 65.1174
3.674000	 65.0547
3.692000	 65.0541
3.710000	 65.1184
3.728000	 65.1295
3.746000	 64.914
3.764000	 65.1036
3.782000	 65.1048
3.800000	 65.0976
3.818000	 65.0521
3.836000	 65.0421
3.854000	 65.1091
3.872000	 65.0789
3.890000	 65.0884
3.908000	 65.1167
3.926000	 65.0321
3.944000	 65.0677
3.962000	 65.1317
3.980000	 65.0605
3.998000	 65.018
4.016000	 65.0562
4.034000	 65.0149
4.052000	 65.0084
4.070000	 65.0221
4.088000	 65.0004
4.106000	 64.9652
4.124000	 64.9752
4.141999	 65.1404
4.160000	 64.9748
4.178000	 65.1263
4.196000	 65.0049
4.214000	 65.0235
4.232000	 65.054
4.250000	 65.0883
4.268000	 65.0065
4.286000	 64.8881
4.304000	 64.829
4.322000	 64.94
4.340000	 64.9462
4.358000	 64.9341
4.375999	 64.9059
4.394000	 64.9173
4.412000	 64.9768
4.430000	 65.053
4.448000	 64.953
4.466000	 64.8957
4.484000	 64.8617
4.502000	 64.8861
4.520000	 64.8659
4.538000	 64.9387
4.556000	 64.9288
4.574000	 64.9266
4.592000	 64.8636
4.609999	 65.0886
4.628000	 64.8672
4.646000	 64.6594
4.664000	 64.8208
4.682000	 64.9791
4.700000	 64.8934
4.718000	 64.9484
4.736000	 64.9094
4.754000	 64.8182
4.772000	 64.8923
4.790000	 64.9365
4.808000	 65.0173
4.826000	 64.8772
4.843999	 64.8514
4.862000	 64.9115
4.880000	 64.8821
4.898000	 64.8034
4.916000	 64.8624
4.934000	 64.9499
4.952000	 64.9102
4.970000	 64.934
4.988000	 64.927
5.006000	 64.8118
5.024000	 64.8415
5.042000	 64.9065
5.060000	 64.8804
5.077999	 64.9012
5.096000	 64.9278
5.114000	 64.9423
5.132000	 64.8729
5.150000	 64.8593
5.168000	 64.8158
5.186000	 64.8178
5.204000	 64.8061
5.222000	 64.8486
5.240000	 64.8163
5.258000	 64.9024
5.276000	 64.9123
5.294000	 64.8911
5.312000	 64.7998
5.330000	 64.8453
5.348000	 64.9293
5.366000	 64.9075
5.384000	 64.8804
5.402000	 64.8414
5.420000	 64.8539
5.438000	 64.8304
5.456000	 64.7758
5.474000	 64.7343
5.492000	 64.8431
5.510000	 64.9569
5.528000	 64.9026
5.546000	 64.8275
5.564000	 64.7468
5.582000	 64.7354
5.600000	 64.753
5.618000	 64.7546
5.636000	 64.8176
5.654000	 64.8189
5.672000	 64.7423
5.690000	 64.7465
5.708000	 64.6621
5.726000	 64.554
5.744000	 64.586
5.762000	 64.6413
5.780000	 64.5808
5.798000	 64.5584
5.816000	 64.6053
5.834000	 64.6646
5.852000	 64.753
5.870000	 64.7403
5.888000	 64.6741
5.906000	 64.567
5.923999	 64.5388
5.942000	 64.5739
5.960000	 64.668
5.978000	 64.6937
5.996000	 64.7515
6.014000	 64.7434
6.032000	 64.7027
6.050000	 64.7596
6.068000	 64.7608
6.086000	 64.6522
6.104000	 64.5093
6.122000	 64.5762
6.140000	 64.7038
6.158000	 64.6865
6.176000	 64.6601
6.194000	 64.597
6.212000	 64.5712
6.230000	 64.6556
6.248000	 64.6673
6.266000	 64.6134
6.284000	 64.6012
6.302000	 64.6229
6.320000	 64.7075
6.338000	 64.7968
6.356000	 64.7191
6.374000	 64.6092
6.392000	 64.616
6.410000	 64.6834
6.428000	 64.7198
6.446000	 64.6693
6.464000	 64.6084
6.482000	 64.6415
6.500000	 64.6561
6.518000	 64.5878
6.536000	 64.5907
6.554000	 64.6819
6.572000	 64.6749
6.590000	 64.5847
6.608000	 64.5715
6.626000	 64.6249
6.644000	 64.6903
6.662000	 64.7413
6.680000	 64.7572
6.698000	 64.701
6.716000	 64.6718
6.734000	 64.677
6.752000	 64.6631
6.770000	 64.6975
6.788000	 64.7167
6.806000	 64.6731
6.824000	 64.6171
6.842000	 64.5507
6.860000	 64.4834
6.878000	 64.4636
6.896000	 64.5098
6.914000	 64.5725
6.932000	 64.631
6.950000	 64.6916
6.968000	 64.7268
6.986000	 64.7074
7.004000	 64.6417
7.022000	 64.5543
7.040000	 64.4843
7.058000	 64.4755
7.076000	 64.4871
7.094000	 64.4672
7.112000	 64.4543
7.130000	 64.4886
7.148000	 64.5466
7.166000	 64.5721
7.184000	 64.5518
7.202000	 64.5285
7.220000	 64.519
7.238000	 64.5238
7.256000	 64.5516
7.274000	 64.5756
7.292000	 64.5761
7.310000	 64.5683
7.328000	 64.5399
7.346000	 64.4849
7.364000	 64.4576
7.382000	 64.4825
7.400000	 64.5169
7.418000	 64.5444
7.436000	 64.5856
7.454000	 64.6285
7.472000	 64.6427
7.490000	 64.6188
7.508000	 64.5604
7.526000	 64.4885
7.544000	 64.4409
7.562000	 64.426
7.580000	 64.4073
7.598000	 64.3632
7.616000	 64.3247
7.634000	 64.3293
7.652000	 64.3679
7.670000	 64.4015
7.688000	 64.4101
7.706000	 64.4147
7.724000	 64.4465
7.742000	 64.4938
7.760000	 64.5083
7.778000	 64.473
7.796000	 64.4202
7.814000	 64.3788
7.832000	 64.3541
7.850000	 64.347
7.868000	 64.3497
7.886000	 64.3347
7.904000	 64.2877
7.922000	 64.2375
7.940000	 64.23
7.958000	 64.278
7.976000	 64.3422
7.994000	 64.3647
8.012000	 64.3247
8.030000	 64.2572
8.048000	 64.2048
8.065999	 64.1863
8.084000	 64.2082
8.102000	 64.2574
8.120000	 64.3035
8.138000	 64.3372
8.155999	 64.3685
8.173999	 64.3835
8.192000	 64.3566
8.210000	 64.3056
8.228000	 64.2753
8.246000	 64.2804
8.263999	 64.3063
8.282000	 64.3365
8.300000	 64.3644
8.318000	 64.389
8.336000	 64.4072
8.353999	 64.4056
8.372000	 64.3709
8.390000	 64.3104
8.408000	 64.2487
8.426000	 64.1997
8.443999	 64.1593
8.462000	 64.1277
8.480000	 64.1173
8.498000	 64.1329
8.516000	 64.161
8.533999	 64.1901
8.552000	 64.2272
8.570000	 64.2767
8.588000	 64.3191
8.606000	 64.3328
8.624000	 64.3229
8.641999	 64.3076
8.660000	 64.2897
8.678000	 64.2549
8.696000	 64.1961
8.714000	 64.1352
8.731999	 64.1153
8.750000	 64.1647
8.768000	 64.2626
8.786000	 64.3486
8.804000	 64.3832
8.821999	 64.3854
8.840000	 64.3949
8.858000	 64.4133
8.876000	 64.4095
8.894000	 64.3691
8.911999	 64.3191
8.930000	 64.2948
8.948000	 64.2963
8.966000	 64.2876
8.984000	 64.2378
9.001999	 64.1587
9.020000	 64.0999
9.038000	 64.1039
9.056000	 64.1688
9.074000	 64.2527
9.092000	 64.3187
9.109999	 64.3674
9.128000	 64.4223
9.146000	 64.4842
9.164000	 64.521
9.182000	 64.5086
9.199999	 64.4662
9.218000	 64.4327
9.236000	 64.4198
9.254000	 64.3993
9.272000	 64.3427
9.289999	 64.26
9.308000	 64.1931
9.326000	 64.1738
9.344000	 64.1983
9.362000	 64.2367
9.379999	 64.2582
9.398000	 64.25
9.416000	 64.2198
9.434000	 64.1856
9.452000	 64.1629
9.469999	 64.1584
9.488000	 64.1712
9.506000	 64.1942
9.524000	 64.2146
9.542000	 64.2186
9.560000	 64.2017
9.577999	 64.1761
9.596000	 64.166
9.614000	 64.1866
9.632000	 64.23
9.650000	 64.2735
9.667999	 64.3005
9.686000	 64.3121
9.704000	 64.3176
9.722000	 64.3188
9.740000	 64.3059
9.757999	 64.27
9.776000	 64.2163
9.794000	 64.1642
9.812000	 64.1334
9.830000	 64.132
9.847999	 64.1547
9.866000	 64.1902
9.884000	 64.2276
9.902000	 64.261
9.920000	 64.2903
9.937999	 64.3175
9.956000	 64.3411
9.974000	 64.3539
9.992000	 64.3476
10.01	64.3197
10.028	64.2787
10.046	64.2412
10.064	64.2221
10.082	64.2262
10.1	64.2461
10.118	64.2677
10.136	64.2792
10.154	64.276
10.172	64.2607
10.19	64.2404
10.208	64.222
10.226	64.2089
10.244	64.2016
10.262	64.2002
10.28	64.2051
10.298	64.217
10.316	64.2353
10.334	64.2564
10.352	64.2759
10.37	64.2897
10.388	64.2957
10.406	64.2939
10.424	64.2861
10.442	64.2753
10.46	64.2668
10.478	64.2683
10.496	64.2861
10.514	64.32
10.532	64.3603
10.55	64.3899
10.568	64.3919
10.586	64.3596
10.604	64.3005
10.622	64.234
10.64	64.183
10.658	64.1627
10.676	64.1764
10.694	64.216
10.712	64.2667
10.73	64.3152
10.748	64.3527
10.766	64.3757
10.784	64.3851
10.802	64.3855
10.82	64.3827
10.838	64.3835
10.856	64.3926
10.874	64.4106
10.892	64.4331
10.91	64.4505
10.928	64.4531
10.946	64.4331
10.964	64.3888
10.982	64.3252
11	64.2523
11.018	64.1834
11.036	64.1302
11.054	64.1015
11.072	64.1004
11.09	64.1244
11.108	64.1657
11.126	64.2128
11.144	64.2554
11.162	64.2852
11.18	64.3001
11.198	64.3037
11.216	64.3033
11.234	64.3063
11.252	64.3178
11.27	64.3371
11.288	64.3579
11.306	64.3725
11.324	64.3747
11.342	64.3637
11.36	64.3445
11.378	64.3245
11.396	64.3095
11.414	64.3013
11.432	64.2972
11.45	64.2921
11.468	64.2814
11.486	64.2634
11.504	64.2388
11.522	64.2104
11.54	64.1814
11.558	64.1541
11.576	64.1304
11.594	64.1128
11.612	64.1038
11.63	64.106
11.648	64.1209
11.666	64.1483
11.684	64.1867
11.702	64.234
11.72	64.2882
11.738	64.347
11.756	64.4072
11.774	64.4641
11.792	64.5112
11.81	64.542
11.828	64.552
11.846	64.5396
11.864	64.5076
11.882	64.4622
11.9	64.4114
11.918	64.3627
11.936	64.3204
11.954	64.2854
11.972	64.2556
11.99	64.2277
12.008	64.1999
12.026	64.1726
12.044	64.148
12.062	64.1298
12.08	64.1199
12.098	64.1184
12.116	64.1224
12.134	64.1279
12.152	64.1305
12.17	64.1281
12.188	64.1212
12.206	64.1125
12.224	64.1058
12.242	64.1044
12.26	64.1097
12.278	64.1209
12.296	64.1362
12.314	64.1529
12.332	64.1684
12.35	64.1807
12.368	64.188
12.386	64.1895
12.404	64.1853
12.422	64.1765
12.44	64.1663
12.458	64.1585
12.476	64.1568
12.494	64.1635
12.512	64.1786
12.53	64.1998
12.548	64.2228
12.566	64.2426
12.584	64.2546
12.602	64.2563
12.62	64.2475
12.638	64.2306
12.656	64.2092
12.674	64.1872
12.692	64.1678
12.71	64.153
12.728	64.1439
12.746	64.1406
12.764	64.1436
12.782	64.1531
12.8	64.1698
12.818	64.1942
12.836	64.2266
12.854	64.2662
12.872	64.3109
12.89	64.3563
12.908	64.3968
12.926	64.4255
12.944	64.4369
12.962	64.4276
12.98	64.3975
12.998	64.3507
13.016	64.2939
13.034	64.2353
13.052	64.1825
13.07	64.1412
13.088	64.1138
13.106	64.0997
13.124	64.0962
13.142	64.0992
13.16	64.1048
13.178	64.1102
13.196	64.1135
13.214	64.1143
13.232	64.112
13.25	64.1066
13.268	64.0973
13.286	64.0838
13.304	64.0661
13.322	64.045
13.34	64.0224
13.358	64.0011
13.376	63.984
13.394	63.9733
13.412	63.9702
13.43	63.9743
13.448	63.9841
13.466	63.9974
13.484	64.0119
13.502	64.0258
13.52	64.038
13.538	64.0489
13.556	64.0591
13.574	64.0694
13.592	64.0804
13.61	64.0923
13.628	64.1043
13.646	64.1154
13.664	64.1243
13.682	64.1302
13.7	64.1329
13.718	64.1329
13.736	64.131
13.754	64.1282
13.772	64.1252
13.79	64.1224
13.808	64.1198
13.826	64.1168
13.844	64.1126
13.862	64.1064
13.88	64.0981
13.898	64.0879
13.916	64.077
13.934	64.067
13.952	64.0598
13.97	64.0571
13.988	64.0604
14.006	64.0703
14.024	64.0868
14.042	64.1085
14.06	64.1338
14.078	64.1608
14.096	64.1879
14.114	64.2138
14.132	64.2377
14.15	64.2589
14.168	64.2769
14.186	64.291
14.204	64.3006
14.222	64.3044
14.24	64.3017
14.258	64.2913
14.276	64.2731
14.294	64.2475
14.312	64.2158
14.33	64.1802
14.348	64.1437
14.366	64.1096
14.384	64.0818
14.402	64.0634
14.42	64.0569
14.438	64.0636
14.456	64.0839
14.474	64.1163
14.492	64.1582
14.51	64.2056
14.528	64.2535
14.546	64.2969
14.564	64.3312
14.582	64.3527
14.6	64.3586
14.618	64.3482
14.636	64.3225
14.654	64.2847
14.672	64.2391
14.69	64.1911
14.708	64.1462
14.726	64.1098
14.744	64.0861
14.762	64.0779
14.78	64.0854
14.798	64.107
14.816	64.1395
14.834	64.1782
14.852	64.2169
14.87	64.2503
14.888	64.2743
14.906	64.2859
14.924	64.2838
14.942	64.2691
14.96	64.245
14.978	64.2156
14.996	64.1855
15.014	64.1595
15.032	64.142
15.05	64.1356
15.068	64.1407
15.086	64.1568
15.104	64.1817
15.122	64.2115
15.14	64.2422
15.158	64.2701
15.176	64.2921
15.194	64.3055
15.212	64.3095
15.23	64.3045
15.248	64.292
15.266	64.2741
15.284	64.2539
15.302	64.2342
15.32	64.2174
15.338	64.2054
15.356	64.1998
15.374	64.2013
15.392	64.2096
15.41	64.2239
15.428	64.2431
15.446	64.2651
15.464	64.2881
15.482	64.3105
15.5	64.3305
15.518	64.3467
15.536	64.3581
15.554	64.364
15.572	64.3639
15.59	64.3581
15.608	64.3469
15.626	64.3312
15.644	64.3118
15.662	64.29
15.68	64.267
15.698	64.2441
15.716	64.2226
15.734	64.2037
15.752	64.1883
15.77	64.1772
15.788	64.1706
15.806	64.168
15.824	64.1687
15.842	64.1716
15.86	64.1746
15.878	64.1761
15.896	64.1743
15.914	64.1675
15.932	64.1544
15.95	64.1346
15.968	64.1078
15.986	64.0752
16.004	64.0386
16.022	63.9996
16.04	63.9617
16.058	63.9272
16.076	63.8983
16.094	63.8776
16.112	63.8662
16.13	63.8644
16.148	63.8724
16.166	63.8882
16.184	63.9098
16.202	63.9349
16.22	63.9595
16.238	63.9811
16.256	63.997
16.274	64.0048
16.292	64.0036
16.31	63.993
16.328	63.9739
16.346	63.9483
16.364	63.9179
16.382	63.8861
16.4	63.8555
16.418	63.828
16.436	63.8064
16.454	63.7914
16.472	63.7837
16.49	63.7829
16.508	63.7876
16.526	63.7967
16.544	63.8076
16.562	63.8182
16.58	63.827
16.598	63.831
16.616	63.8293
16.634	63.8209
16.652	63.8048
16.67	63.7815
16.688	63.7515
16.706	63.7164
16.724	63.6778
16.742	63.6376
16.76	63.5989
16.778	63.5633
16.796	63.5335
16.814	63.5117
16.832	63.4989
16.85	63.4967
16.868	63.505
16.886	63.5241
16.904	63.553
16.922	63.5905
16.94	63.6353
16.958	63.6848
16.976	63.7379
16.994	63.7919
17.012	63.8456
17.03	63.8979
17.048	63.9472
17.066	63.9937
17.084	64.0367
17.102	64.0768
17.12	64.114
17.138	64.1489
17.156	64.1819
17.174	64.2133
17.192	64.2431
17.21	64.2711
17.228	64.2967
17.246	64.3191
17.264	64.3379
17.282	64.3514
17.3	64.3596
17.318	64.3615
17.336	64.3575
17.354	64.3473
17.372	64.3319
17.39	64.312
17.408	64.2889
17.426	64.2645
17.444	64.2397
17.462	64.2172
17.48	64.1975
17.498	64.1827
17.516	64.1733
17.534	64.1702
17.552	64.1735
17.57	64.183
17.588	64.1981
17.606	64.2181
17.624	64.2419
17.642	64.268
17.66	64.2958
17.678	64.3235
17.696	64.3505
17.714	64.3754
17.732	64.3982
17.75	64.4181
17.768	64.4351
17.786	64.449
17.804	64.4601
17.822	64.4685
17.84	64.4741
17.858	64.4768
17.876	64.4767
17.894	64.4729
17.912	64.4654
17.93	64.453
17.948	64.4356
17.966	64.4123
17.984	64.3832
18.002	64.348
18.02	64.3075
18.038	64.2618
18.056	64.213
18.074	64.1613
18.092	64.1098
18.11	64.0589
18.128	64.0118
18.146	63.9691
18.164	63.9335
18.182	63.9055
18.2	63.8865
18.218	63.8771
18.236	63.8776
18.254	63.8876
18.272	63.9073
18.29	63.9352
18.308	63.9711
18.326	64.0128
18.344	64.0599
18.362	64.1097
18.38	64.1613
18.398	64.2124
18.416	64.2616
18.434	64.3069
18.452	64.3471
18.47	64.3809
18.488	64.4073
18.506	64.4255
18.524	64.4354
18.542	64.4367
18.56	64.4304
18.578	64.4166
18.596	64.3971
18.614	64.372
18.632	64.3441
18.65	64.3134
18.668	64.2827
18.686	64.252
18.704	64.2238
18.722	64.1981
18.74	64.1766
18.758	64.1592
18.776	64.1471
18.794	64.1401
18.812	64.1384
18.83	64.1418
18.848	64.15
18.866	64.1625
18.884	64.1786
18.902	64.1977
18.92	64.2191
18.938	64.242
18.956	64.2654
18.974	64.289
18.992	64.3117
19.01	64.3334
19.028	64.3534
19.046	64.3718
19.064	64.3884
19.082	64.4035
19.1	64.4173
19.118	64.4302
19.136	64.4428
19.154	64.4553
19.172	64.4683
19.19	64.4818
19.208	64.4962
19.226	64.5113
19.244	64.5273
19.262	64.5438
19.28	64.5606
19.298	64.5776
19.316	64.594
19.334	64.61
19.352	64.6248
19.37	64.6384
19.388	64.6505
19.406	64.6612
19.424	64.6703
19.442	64.6779
19.46	64.6842
19.478	64.6892
19.496	64.6931
19.514	64.6961
19.532	64.6981
19.55	64.6992
19.568	64.6994
19.586	64.6986
19.604	64.6966
19.622	64.6935
19.64	64.6891
19.658	64.6832
19.676	64.6758
19.694	64.6669
19.712	64.6564
19.73	64.6444
19.748	64.6308
19.766	64.6158
19.784	64.5995
19.802	64.582
19.82	64.5633
19.838	64.5437
19.856	64.5233
19.874	64.502
19.892	64.4801
19.91	64.4576
19.928	64.4345
19.946	64.4109
19.964	64.3871
19.982	64.3628
20	64.3385
20.018	64.3143
20.036	64.2903
20.054	64.2673
20.072	64.2453
20.09	64.2255
20.108	64.2076
20.126	64.1931
20.144	64.182
20.162	64.1751
20.18	64.173
20.198	64.1759
20.216	64.1844
20.234	64.1984
20.252	64.218
20.27	64.2431
20.288	64.2727
20.306	64.3071
20.324	64.3446
20.342	64.3846
20.36	64.4263
20.378	64.4676
20.396	64.5088
20.414	64.5471
20.432	64.5828
20.45	64.6143
20.468	64.6405
20.486	64.6615
20.504	64.6761
20.522	64.6846
20.54	64.6872
20.558	64.6838
20.576	64.6755
20.594	64.6627
20.612	64.6462
20.63	64.6276
20.648	64.6066
20.666	64.5857
20.684	64.5646
20.702	64.5448
20.72	64.5273
20.738	64.512
20.756	64.4999
20.774	64.491
20.792	64.4853
20.81	64.4831
20.828	64.4838
20.846	64.4868
20.864	64.4921
20.882	64.4983
20.9	64.5056
20.918	64.5127
20.936	64.5189
20.954	64.5242
20.972	64.5273
20.99	64.5286
21.008	64.5274
21.026	64.5235
21.044	64.517
21.062	64.5079
21.08	64.4962
21.098	64.4823
21.116	64.4664
21.134	64.4486
21.152	64.4299
21.17	64.4099
21.188	64.3894
21.206	64.3686
21.224	64.3477
21.242	64.3273
21.26	64.3071
21.278	64.2876
21.296	64.269
21.314	64.2512
21.332	64.2345
21.35	64.2189
21.368	64.2045
21.386	64.1916
21.404	64.1801
21.422	64.1701
21.44	64.1616
21.458	64.1547
21.476	64.1496
21.494	64.1461
21.512	64.1441
21.53	64.1437
21.548	64.1445
21.566	64.1464
21.584	64.1493
21.602	64.1522
21.62	64.1555
21.638	64.158
21.656	64.1587
21.674	64.158
21.692	64.154
21.71	64.1465
21.728	64.1353
21.746	64.1185
21.764	64.0965
21.782	64.0687
21.8	64.0344
21.818	63.9939
21.836	63.9475
21.854	63.8945
21.872	63.836
21.89	63.7735
21.908	63.7061
21.926	63.6364
21.944	63.5656
21.962	63.4932
21.98	63.4233
21.998	63.3556
22.016	63.2913
22.034	63.234
22.052	63.1826
22.07	63.1391
22.088	63.1056
22.106	63.0813
22.124	63.0675
22.142	63.0648
22.16	63.0727
22.178	63.0908
22.196	63.1196
22.214	63.1576
22.232	63.203
22.25	63.2569
22.268	63.316
22.286	63.3789
22.304	63.4463
22.322	63.5138
22.34	63.5812
22.358	63.6482
22.376	63.7111
22.394	63.7706
22.412	63.8259
22.43	63.875
22.448	63.9183
22.466	63.9558
22.484	63.9869
22.502	64.0118
22.52	64.0315
22.538	64.0459
22.556	64.0552
22.574	64.0615
22.592	64.0649
22.61	64.0655
22.628	64.0658
22.646	64.0655
22.664	64.0649
22.682	64.0651
22.7	64.0661
22.718	64.0676
22.736	64.0692
22.754	64.0716
22.772	64.0734
22.79	64.0738
22.808	64.0735
22.826	64.0707
22.844	64.0643
22.862	64.0551
22.88	64.0409
22.898	64.021
22.916	63.9958
22.934	63.9644
22.952	63.9261
22.97	63.8814
22.988	63.8312
23.006	63.7748
23.024	63.713
23.042	63.6483
23.06	63.5801
23.078	63.5093
23.096	63.4401
23.114	63.3719
23.132	63.3055
23.15	63.2454
23.168	63.1913
23.186	63.1434
23.204	63.1052
23.222	63.0765
23.24	63.0571
23.258	63.0486
23.276	63.0514
23.294	63.0647
23.312	63.0877
23.33	63.1215
23.348	63.1647
23.366	63.2144
23.384	63.2718
23.402	63.3357
23.42	63.4015
23.438	63.4697
23.456	63.54
23.474	63.6077
23.492	63.6727
23.51	63.7353
23.528	63.7919
23.546	63.8411
23.564	63.8843
23.582	63.92
23.6	63.9471
23.618	63.9665
23.636	63.9793
23.654	63.9857
23.672	63.9852
23.69	63.9807
23.708	63.9739
23.726	63.9632
23.744	63.9518
23.762	63.9427
23.78	63.9338
23.798	63.9276
23.816	63.9272
23.834	63.9313
23.852	63.9408
23.87	63.9578
23.888	63.9817
23.906	64.0127
23.924	64.0519
23.942	64.0996
23.96	64.1553
23.978	64.2192
23.996	64.2917
24.014	64.3726
24.032	64.461
24.05	64.5563
24.068	64.6593
24.086	64.7684
24.104	64.8824
24.122	65.0018
24.14	65.1263
24.158	65.2552
24.176	65.3885
24.194	65.5263
24.212	65.6685
24.23	65.815
24.248	65.9658
24.266	66.1203
24.284	66.2783
24.302	66.4402
24.32	66.6047
24.338	66.7704
24.356	66.9382
24.374	67.1074
24.392	67.277
24.41	67.448
24.428	67.6196
24.446	67.789
24.464	67.9553
24.482	68.1201
24.5	68.2801
24.518	68.4332
24.536	68.5823
24.554	68.7235
24.572	68.8519
24.59	68.9702
24.608	69.077
24.626	69.1644
24.644	69.2297
24.662	69.2771
24.68	69.2999
24.698	69.292
24.716	69.2565
24.734	69.1924
24.752	69.0967
24.77	68.9679
24.788	68.8078
24.806	68.6178
24.824	68.3982
24.842	68.1474
24.86	67.869
24.878	67.567
24.896	67.2371
24.914	66.8827
24.932	66.5138
24.95	66.1339
24.968	65.7355
24.986	65.3327
25.004	64.9397
25.022	64.5475
25.04	64.1612
25.058	63.7976
25.076	63.4631
25.094	63.1482
25.112	62.8647
25.13	62.625
25.148	62.423
25.166	62.2604
25.184	62.1463
25.202	62.0848
25.22	62.0706
25.238	62.1079
25.256	62.2014
25.274	62.3542
25.292	62.5608
25.31	62.814
25.328	63.1125
25.346	63.4643
25.364	63.8523
25.382	64.258
25.4	64.6896
25.418	65.1462
25.436	65.605
25.454	66.0498
25.472	66.4982
25.49	66.9355
25.508	67.3402
25.526	67.7093
25.544	68.0529
25.562	68.3548
25.58	68.5995
25.598	68.794
25.616	68.9381
25.634	69.0235
25.652	69.0449
25.67	69.0071
25.688	68.9091
25.706	68.7488
25.724	68.5253
25.742	68.24
25.76	67.8946
25.778	67.4899
25.796	67.0171
25.814	66.4862
25.832	65.9137
25.85	65.3086
25.868	64.6549
25.886	63.9707
25.904	63.279
25.922	62.5924
25.94	61.8996
25.958	61.1924
25.976	60.4634
25.994	59.7185
26.012	58.9562
26.03	58.1649
26.048	57.3341
26.066	56.4686
26.084	55.5698
26.102	54.6356
26.12	53.6622
26.138	52.6445
26.156	51.5965
26.174	50.534
26.192	49.4458
26.21	48.3136
26.228	47.1988
26.246	46.1648
26.264	45.1985
26.282	44.2766
26.3	43.4654
26.318	42.8299
26.336	42.3459
26.354	42.004
26.372	41.8448
26.39	41.9065
26.408	42.1726
26.426	42.6373
26.444	43.3106
26.462	44.2089
26.48	45.3723
26.498	46.7377
26.516	48.2215
26.534	49.7655
26.552	51.4455
26.57	53.2111
26.588	54.9855
26.606	56.7162
26.624	58.4561
26.642	60.1879
26.66	61.8824
26.678	63.5161
26.696	65.0994
26.714	66.6493
26.732	68.1822
26.75	69.6794
26.768	71.0925
26.786	72.5294
26.804	74.1074
26.822	75.8818
26.84	77.7605
26.858	79.8018
26.876	82.0756
26.894	84.637
26.912	87.4575
26.93	90.4913
26.948	93.694
26.966	97.2309
26.984	101.415
27.002	105.518
27.02	108.747
27.028	109.6