File: Bakgrunnsmateriale/MATLAB/FTIR/ftir_data/subAa/Mapping_121/BZ1503107-1_t98.asc
PE IR       SPECTRUM    SPECTRUM    ASCII       PEDS        1.60
  -1
BZ396B~1.ASC
17/04/07
21:18:20.00
17/04/07
21:18:47.00
tln
$BZ1503107-1_t0098$<tbV0>[-10.4,7.8,8.0,0.0,27,1,0]
27.028
64

2002,4.07
MIRTGS : RIGHTBACK : INTERNAL 2
MIR : ON : INTERNAL 2
OPTKBR

0.200000
8
8.000000
FILLER
RATIO
SPECTRUM
UNLOCKED 256

DOUBLE
64
COMBINED
1
0
0

0.002000
RATIO

1
0
TRUE
51149
0
LEFT NOT FITTED RIGHT NOT FITTED 0
NONE
NONE
15600
12
4.427000
51148
TRUE
1 0 8 72 0 0 0 0

15798

#HDR
-1
-1
#GR
µM
%T
2.38419e-05
0.0
2.000000
0.002000
12515
8
73.9503
53.073
#DATA
2.000000	 65.9687
2.018000	 67.5735
2.036000	 65.2094
2.054000	 65.6934
2.072000	 65.5918
2.090000	 65.2196
2.108000	 65.2596
2.126000	 65.2395
2.144000	 65.471
2.162000	 65.4834
2.180000	 65.0018
2.198000	 64.7005
2.216000	 65.1794
2.234000	 63.981
2.252000	 73.9503
2.270000	 65.7828
2.288000	 64.9286
2.306000	 64.7748
2.324000	 64.9805
2.342000	 65.0442
2.360000	 65.0679
2.378000	 65.3718
2.396000	 65.5626
2.414000	 64.9463
2.432000	 65.3578
2.450000	 65.3581
2.468000	 65.2462
2.486000	 65.2709
2.504000	 65.3475
2.522000	 65.3952
2.540000	 65.182
2.558000	 65.2924
2.576000	 64.8966
2.594000	 65.175
2.612000	 65.2085
2.630000	 65.1129
2.648000	 65.1555
2.666000	 65.3254
2.684000	 65.3346
2.702000	 65.3411
2.720000	 65.2498
2.738000	 65.1947
2.756000	 65.1874
2.774000	 65.3338
2.792000	 65.1943
2.810000	 65.182
2.828000	 65.272
2.846000	 65.1105
2.864000	 65.3622
2.882000	 65.2794
2.900000	 64.9003
2.918000	 65.024
2.936000	 65.0491
2.954000	 65.1182
2.972000	 65.0206
2.990000	 65.0668
3.008000	 65.0444
3.026000	 65.117
3.044000	 65.0281
3.062000	 65.0193
3.080000	 65.0879
3.098000	 65.0487
3.116000	 64.9839
3.134000	 65.1152
3.152000	 65.0401
3.170000	 65.0164
3.188000	 65.0894
3.206000	 65.0483
3.224000	 65.0855
3.242000	 64.9346
3.260000	 65.1487
3.278000	 64.9897
3.296000	 64.8715
3.314000	 64.9626
3.332000	 64.9306
3.350000	 64.7399
3.368000	 64.518
3.386000	 64.414
3.404000	 64.5693
3.422000	 64.6903
3.440000	 64.5732
3.458000	 64.6017
3.476000	 64.7609
3.494000	 64.7494
3.512000	 64.7755
3.530000	 64.8076
3.548000	 64.835
3.566000	 64.8855
3.584000	 64.8069
3.602000	 64.9822
3.620000	 64.9208
3.638000	 64.8431
3.656000	 64.8593
3.674000	 64.8683
3.692000	 64.8215
3.710000	 64.6857
3.728000	 64.6762
3.746000	 64.8372
3.764000	 64.764
3.782000	 64.8123
3.800000	 64.8275
3.818000	 64.7209
3.836000	 64.8003
3.854000	 64.7345
3.872000	 64.8085
3.890000	 64.7725
3.908000	 64.7578
3.926000	 64.7076
3.944000	 64.7027
3.962000	 64.6617
3.980000	 64.7215
3.998000	 64.7089
4.016000	 64.7384
4.034000	 64.6872
4.052000	 64.7103
4.070000	 64.7707
4.088000	 64.6699
4.106000	 64.5479
4.124000	 64.7754
4.141999	 64.6396
4.160000	 64.6226
4.178000	 64.607
4.196000	 64.5811
4.214000	 64.6126
4.232000	 64.6473
4.250000	 64.6347
4.268000	 64.5603
4.286000	 64.5627
4.304000	 64.6573
4.322000	 64.5587
4.340000	 64.4475
4.358000	 64.5237
4.375999	 64.4804
4.394000	 64.4974
4.412000	 64.5571
4.430000	 64.5719
4.448000	 64.55
4.466000	 64.4704
4.484000	 64.5977
4.502000	 64.5275
4.520000	 64.5392
4.538000	 64.3469
4.556000	 64.4105
4.574000	 64.3817
4.592000	 64.3821
4.609999	 64.41
4.628000	 64.3998
4.646000	 64.3654
4.664000	 64.4123
4.682000	 64.4611
4.700000	 64.4418
4.718000	 64.4556
4.736000	 64.4144
4.754000	 64.4166
4.772000	 64.363
4.790000	 64.3651
4.808000	 64.3423
4.826000	 64.3563
4.843999	 64.3988
4.862000	 64.4871
4.880000	 64.3895
4.898000	 64.2889
4.916000	 64.2492
4.934000	 64.2373
4.952000	 64.2547
4.970000	 64.2455
4.988000	 64.2599
5.006000	 64.3144
5.024000	 64.2466
5.042000	 64.173
5.060000	 64.205
5.077999	 64.2797
5.096000	 64.2995
5.114000	 64.3681
5.132000	 64.1934
5.150000	 64.1426
5.168000	 64.1913
5.186000	 64.1967
5.204000	 64.1509
5.222000	 64.1218
5.240000	 64.1489
5.258000	 64.1958
5.276000	 64.2127
5.294000	 64.1849
5.312000	 64.1513
5.330000	 64.1659
5.348000	 64.1697
5.366000	 64.1609
5.384000	 64.2024
5.402000	 64.0582
5.420000	 64.0364
5.438000	 64.1221
5.456000	 64.1071
5.474000	 64.1116
5.492000	 64.0921
5.510000	 64.1052
5.528000	 64.1832
5.546000	 64.1439
5.564000	 64.085
5.582000	 63.9995
5.600000	 63.8663
5.618000	 63.8558
5.636000	 63.8749
5.654000	 63.8987
5.672000	 63.8538
5.690000	 63.6937
5.708000	 63.5096
5.726000	 63.2735
5.744000	 62.8609
5.762000	 62.5927
5.780000	 62.7451
5.798000	 63.1127
5.816000	 63.4322
5.834000	 63.6022
5.852000	 63.6996
5.870000	 63.7873
5.888000	 63.8229
5.906000	 63.8216
5.923999	 63.7642
5.942000	 63.7318
5.960000	 63.7577
5.978000	 63.778
5.996000	 63.8338
6.014000	 63.8727
6.032000	 63.8645
6.050000	 63.835
6.068000	 63.859
6.086000	 63.906
6.104000	 63.922
6.122000	 63.9633
6.140000	 63.9011
6.158000	 63.7939
6.176000	 63.783
6.194000	 63.797
6.212000	 63.8222
6.230000	 63.8343
6.248000	 63.8216
6.266000	 63.7748
6.284000	 63.8006
6.302000	 63.8707
6.320000	 63.8086
6.338000	 63.6857
6.356000	 63.7623
6.374000	 63.8453
6.392000	 63.7843
6.410000	 63.7319
6.428000	 63.6696
6.446000	 63.6004
6.464000	 63.618
6.482000	 63.7225
6.500000	 63.7572
6.518000	 63.6725
6.536000	 63.5919
6.554000	 63.5663
6.572000	 63.6083
6.590000	 63.7078
6.608000	 63.7501
6.626000	 63.7042
6.644000	 63.6309
6.662000	 63.5838
6.680000	 63.6252
6.698000	 63.7426
6.716000	 63.8013
6.734000	 63.7338
6.752000	 63.6444
6.770000	 63.6241
6.788000	 63.6208
6.806000	 63.5784
6.824000	 63.4688
6.842000	 63.3749
6.860000	 63.3711
6.878000	 63.3802
6.896000	 63.4046
6.914000	 63.4478
6.932000	 63.4288
6.950000	 63.3886
6.968000	 63.4128
6.986000	 63.4315
7.004000	 63.4098
7.022000	 63.4628
7.040000	 63.5701
7.058000	 63.5918
7.076000	 63.5346
7.094000	 63.4956
7.112000	 63.4846
7.130000	 63.4556
7.148000	 63.3802
7.166000	 63.2863
7.184000	 63.2659
7.202000	 63.3365
7.220000	 63.4066
7.238000	 63.4361
7.256000	 63.4269
7.274000	 63.37
7.292000	 63.3094
7.310000	 63.2908
7.328000	 63.3117
7.346000	 63.3646
7.364000	 63.4151
7.382000	 63.4334
7.400000	 63.4427
7.418000	 63.4415
7.436000	 63.3996
7.454000	 63.335
7.472000	 63.2942
7.490000	 63.3097
7.508000	 63.37
7.526000	 63.3956
7.544000	 63.3428
7.562000	 63.2921
7.580000	 63.3224
7.598000	 63.3936
7.616000	 63.4207
7.634000	 63.3832
7.652000	 63.3272
7.670000	 63.3001
7.688000	 63.2885
7.706000	 63.2491
7.724000	 63.1997
7.742000	 63.1859
7.760000	 63.1849
7.778000	 63.155
7.796000	 63.1194
7.814000	 63.1114
7.832000	 63.1147
7.850000	 63.0916
7.868000	 63.0194
7.886000	 62.9232
7.904000	 62.871
7.922000	 62.8786
7.940000	 62.8764
7.958000	 62.8347
7.976000	 62.8091
7.994000	 62.8255
8.012000	 62.8395
8.030000	 62.8267
8.048000	 62.8113
8.065999	 62.7993
8.084000	 62.7731
8.102000	 62.7462
8.120000	 62.7613
8.138000	 62.8265
8.155999	 62.902
8.173999	 62.9546
8.192000	 62.9852
8.210000	 63.0001
8.228000	 62.9973
8.246000	 62.9885
8.263999	 63
8.282000	 63.038
8.300000	 63.0713
8.318000	 63.0636
8.336000	 63.0127
8.353999	 62.9535
8.372000	 62.9176
8.390000	 62.8979
8.408000	 62.8645
8.426000	 62.8077
8.443999	 62.75
8.462000	 62.7155
8.480000	 62.701
8.498000	 62.6835
8.516000	 62.6438
8.533999	 62.5803
8.552000	 62.5084
8.570000	 62.4488
8.588000	 62.4144
8.606000	 62.4087
8.624000	 62.4314
8.641999	 62.4796
8.660000	 62.5466
8.678000	 62.6254
8.696000	 62.7095
8.714000	 62.7893
8.731999	 62.8527
8.750000	 62.8934
8.768000	 62.9177
8.786000	 62.9366
8.804000	 62.9488
8.821999	 62.943
8.840000	 62.9237
8.858000	 62.9161
8.876000	 62.937
8.894000	 62.9779
8.911999	 63.0161
8.930000	 63.0323
8.948000	 63.0208
8.966000	 62.9985
8.984000	 62.992
9.001999	 63.0109
9.020000	 63.0373
9.038000	 63.0408
9.056000	 63.0072
9.074000	 62.9565
9.092000	 62.9291
9.109999	 62.9445
9.128000	 62.9758
9.146000	 62.9736
9.164000	 62.9162
9.182000	 62.8305
9.199999	 62.7623
9.218000	 62.7343
9.236000	 62.7298
9.254000	 62.7146
9.272000	 62.6732
9.289999	 62.623
9.308000	 62.5974
9.326000	 62.6179
9.344000	 62.6786
9.362000	 62.7539
9.379999	 62.8159
9.398000	 62.8474
9.416000	 62.8453
9.434000	 62.8186
9.452000	 62.7868
9.469999	 62.7737
9.488000	 62.7945
9.506000	 62.8454
9.524000	 62.9039
9.542000	 62.9446
9.560000	 62.9565
9.577999	 62.9461
9.596000	 62.927
9.614000	 62.9081
9.632000	 62.8928
9.650000	 62.8843
9.667999	 62.889
9.686000	 62.9119
9.704000	 62.9503
9.722000	 62.9893
9.740000	 63.0071
9.757999	 62.9879
9.776000	 62.9327
9.794000	 62.8602
9.812000	 62.7957
9.830000	 62.7568
9.847999	 62.7446
9.866000	 62.7467
9.884000	 62.7471
9.902000	 62.7385
9.920000	 62.7255
9.937999	 62.7212
9.956000	 62.7362
9.974000	 62.771
9.992000	 62.8157
10.01	62.857
10.028	62.8854
10.046	62.9014
10.064	62.9125
10.082	62.9289
10.1	62.9565
10.118	62.9959
10.136	63.0423
10.154	63.0882
10.172	63.1243
10.19	63.1395
10.208	63.1253
10.226	63.0796
10.244	63.0105
10.262	62.9351
10.28	62.8731
10.298	62.8375
10.316	62.8307
10.334	62.8445
10.352	62.8669
10.37	62.8881
10.388	62.904
10.406	62.9151
10.424	62.9232
10.442	62.9293
10.46	62.9323
10.478	62.9295
10.496	62.9189
10.514	62.9004
10.532	62.8772
10.55	62.8549
10.568	62.8402
10.586	62.8381
10.604	62.8493
10.622	62.87
10.64	62.8919
10.658	62.9068
10.676	62.9112
10.694	62.9081
10.712	62.9063
10.73	62.9153
10.748	62.9404
10.766	62.9786
10.784	63.0206
10.802	63.0538
10.82	63.0686
10.838	63.0609
10.856	63.032
10.874	62.9878
10.892	62.9374
10.91	62.892
10.928	62.8624
10.946	62.8556
10.964	62.8698
10.982	62.8943
11	62.9133
11.018	62.912
11.036	62.8856
11.054	62.8412
11.072	62.7943
11.09	62.7624
11.108	62.7549
11.126	62.7718
11.144	62.8054
11.162	62.8446
11.18	62.8807
11.198	62.9082
11.216	62.9245
11.234	62.9281
11.252	62.9179
11.27	62.8935
11.288	62.8565
11.306	62.8113
11.324	62.7654
11.342	62.7272
11.36	62.7029
11.378	62.6958
11.396	62.705
11.414	62.7259
11.432	62.753
11.45	62.7817
11.468	62.8093
11.486	62.8363
11.504	62.8644
11.522	62.8946
11.54	62.9251
11.558	62.9515
11.576	62.9679
11.594	62.9695
11.612	62.9548
11.63	62.9263
11.648	62.889
11.666	62.8489
11.684	62.8106
11.702	62.7765
11.72	62.7479
11.738	62.7253
11.756	62.7098
11.774	62.7027
11.792	62.7038
11.81	62.7096
11.828	62.7144
11.846	62.7118
11.864	62.6981
11.882	62.6744
11.9	62.6471
11.918	62.6257
11.936	62.6185
11.954	62.6298
11.972	62.6576
11.99	62.6938
12.008	62.727
12.026	62.7473
12.044	62.7494
12.062	62.7359
12.08	62.716
12.098	62.7023
12.116	62.7051
12.134	62.7285
12.152	62.7686
12.17	62.8157
12.188	62.858
12.206	62.8864
12.224	62.8969
12.242	62.8912
12.26	62.8746
12.278	62.8532
12.296	62.8324
12.314	62.8144
12.332	62.7985
12.35	62.7823
12.368	62.7626
12.386	62.7375
12.404	62.7071
12.422	62.6741
12.44	62.6426
12.458	62.6173
12.476	62.6024
12.494	62.5999
12.512	62.6096
12.53	62.6293
12.548	62.6557
12.566	62.6851
12.584	62.7141
12.602	62.7399
12.62	62.761
12.638	62.7765
12.656	62.7858
12.674	62.7888
12.692	62.7851
12.71	62.7745
12.728	62.7568
12.746	62.7325
12.764	62.7023
12.782	62.6676
12.8	62.63
12.818	62.5914
12.836	62.5533
12.854	62.5175
12.872	62.4853
12.89	62.4579
12.908	62.4366
12.926	62.4224
12.944	62.4162
12.962	62.4184
12.98	62.4285
12.998	62.4452
13.016	62.4665
13.034	62.4903
13.052	62.5145
13.07	62.5377
13.088	62.5592
13.106	62.5793
13.124	62.5988
13.142	62.6192
13.16	62.6414
13.178	62.6661
13.196	62.6931
13.214	62.7211
13.232	62.7485
13.25	62.773
13.268	62.7926
13.286	62.8056
13.304	62.8111
13.322	62.8091
13.34	62.8005
13.358	62.7868
13.376	62.7693
13.394	62.7493
13.412	62.728
13.43	62.7057
13.448	62.6823
13.466	62.6575
13.484	62.6312
13.502	62.6041
13.52	62.5773
13.538	62.5528
13.556	62.533
13.574	62.5198
13.592	62.5147
13.61	62.5178
13.628	62.5276
13.646	62.5418
13.664	62.5573
13.682	62.5704
13.7	62.5784
13.718	62.5798
13.736	62.5746
13.754	62.5642
13.772	62.5513
13.79	62.5395
13.808	62.5319
13.826	62.5313
13.844	62.5388
13.862	62.5539
13.88	62.5748
13.898	62.5982
13.916	62.6204
13.934	62.6379
13.952	62.6476
13.97	62.6475
13.988	62.6373
14.006	62.6181
14.024	62.5926
14.042	62.564
14.06	62.5359
14.078	62.5116
14.096	62.4933
14.114	62.4822
14.132	62.4784
14.15	62.4806
14.168	62.4867
14.186	62.4942
14.204	62.5007
14.222	62.5042
14.24	62.5035
14.258	62.4984
14.276	62.4895
14.294	62.478
14.312	62.4658
14.33	62.4551
14.348	62.4477
14.366	62.4451
14.384	62.4479
14.402	62.4565
14.42	62.47
14.438	62.4872
14.456	62.5066
14.474	62.5261
14.492	62.5436
14.51	62.557
14.528	62.5645
14.546	62.5647
14.564	62.5567
14.582	62.54
14.6	62.5149
14.618	62.4822
14.636	62.4437
14.654	62.402
14.672	62.3603
14.69	62.322
14.708	62.291
14.726	62.2706
14.744	62.2637
14.762	62.2718
14.78	62.2951
14.798	62.332
14.816	62.3796
14.834	62.4331
14.852	62.4865
14.87	62.5341
14.888	62.5706
14.906	62.5917
14.924	62.5947
14.942	62.5786
14.96	62.5452
14.978	62.4977
14.996	62.4405
15.014	62.3786
15.032	62.3182
15.05	62.2639
15.068	62.2192
15.086	62.186
15.104	62.1653
15.122	62.1564
15.14	62.1573
15.158	62.1657
15.176	62.1794
15.194	62.1961
15.212	62.2139
15.23	62.2323
15.248	62.251
15.266	62.2706
15.284	62.2916
15.302	62.315
15.32	62.3413
15.338	62.371
15.356	62.4039
15.374	62.4394
15.392	62.4762
15.41	62.5131
15.428	62.5483
15.446	62.5796
15.464	62.6056
15.482	62.6248
15.5	62.6359
15.518	62.6386
15.536	62.6327
15.554	62.6189
15.572	62.598
15.59	62.5717
15.608	62.5417
15.626	62.5097
15.644	62.4778
15.662	62.4484
15.68	62.4231
15.698	62.4036
15.716	62.3915
15.734	62.3876
15.752	62.3923
15.77	62.4058
15.788	62.4274
15.806	62.456
15.824	62.4904
15.842	62.5285
15.86	62.5675
15.878	62.605
15.896	62.6386
15.914	62.6651
15.932	62.6823
15.95	62.6887
15.968	62.6827
15.986	62.6645
16.004	62.6348
16.022	62.5947
16.04	62.5469
16.058	62.494
16.076	62.438
16.094	62.3822
16.112	62.3287
16.13	62.2791
16.148	62.2347
16.166	62.1962
16.184	62.1641
16.202	62.1384
16.22	62.1196
16.238	62.1079
16.256	62.1037
16.274	62.1078
16.292	62.1212
16.31	62.1445
16.328	62.1784
16.346	62.2224
16.364	62.2758
16.382	62.3361
16.4	62.3995
16.418	62.463
16.436	62.5202
16.454	62.5664
16.472	62.5978
16.49	62.609
16.508	62.5983
16.526	62.5642
16.544	62.5079
16.562	62.4328
16.58	62.3418
16.598	62.2419
16.616	62.1378
16.634	62.0343
16.652	61.938
16.67	61.8517
16.688	61.7784
16.706	61.72
16.724	61.676
16.742	61.6463
16.76	61.6284
16.778	61.6211
16.796	61.6215
16.814	61.6277
16.832	61.6382
16.85	61.651
16.868	61.6653
16.886	61.6802
16.904	61.695
16.922	61.7092
16.94	61.7221
16.958	61.7332
16.976	61.7418
16.994	61.7466
17.012	61.7468
17.03	61.7417
17.048	61.7303
17.066	61.7124
17.084	61.6881
17.102	61.6584
17.12	61.624
17.138	61.5873
17.156	61.5506
17.174	61.5157
17.192	61.4865
17.21	61.4646
17.228	61.4535
17.246	61.4551
17.264	61.471
17.282	61.5032
17.3	61.5518
17.318	61.6175
17.336	61.6991
17.354	61.7963
17.372	61.9066
17.39	62.0287
17.408	62.1595
17.426	62.2957
17.444	62.4352
17.462	62.5725
17.48	62.7059
17.498	62.8302
17.516	62.9428
17.534	63.0408
17.552	63.1208
17.57	63.1818
17.588	63.2214
17.606	63.2401
17.624	63.2375
17.642	63.2154
17.66	63.1742
17.678	63.1182
17.696	63.0485
17.714	62.9697
17.732	62.8843
17.75	62.7955
17.768	62.707
17.786	62.6202
17.804	62.5387
17.822	62.4631
17.84	62.3953
17.858	62.3356
17.876	62.2848
17.894	62.2427
17.912	62.2095
17.93	62.185
17.948	62.1691
17.966	62.1618
17.984	62.1632
18.002	62.1733
18.02	62.1923
18.038	62.2203
18.056	62.2568
18.074	62.3018
18.092	62.3537
18.11	62.4119
18.128	62.4737
18.146	62.5378
18.164	62.6004
18.182	62.6593
18.2	62.7113
18.218	62.7537
18.236	62.7846
18.254	62.8019
18.272	62.8048
18.29	62.7928
18.308	62.7662
18.326	62.7264
18.344	62.674
18.362	62.6122
18.38	62.5423
18.398	62.4677
18.416	62.3899
18.434	62.3116
18.452	62.2344
18.47	62.1598
18.488	62.0887
18.506	62.0219
18.524	61.9596
18.542	61.9018
18.56	61.8483
18.578	61.7992
18.596	61.7541
18.614	61.7131
18.632	61.6763
18.65	61.644
18.668	61.6168
18.686	61.5949
18.704	61.5795
18.722	61.5705
18.74	61.5693
18.758	61.5755
18.776	61.5895
18.794	61.6109
18.812	61.6397
18.83	61.6752
18.848	61.7163
18.866	61.7624
18.884	61.8124
18.902	61.8657
18.92	61.921
18.938	61.9778
18.956	62.0354
18.974	62.0934
18.992	62.1513
19.01	62.2083
19.028	62.2635
19.046	62.3158
19.064	62.3637
19.082	62.4056
19.1	62.4388
19.118	62.4619
19.136	62.4717
19.154	62.4674
19.172	62.4453
19.19	62.4059
19.208	62.3471
19.226	62.27
19.244	62.175
19.262	62.0636
19.28	61.9401
19.298	61.8056
19.316	61.6685
19.334	61.5289
19.352	61.398
19.37	61.2751
19.388	61.1714
19.406	61.0863
19.424	61.028
19.442	60.9968
19.46	60.9957
19.478	61.026
19.496	61.0852
19.514	61.1743
19.532	61.2873
19.55	61.4229
19.568	61.575
19.586	61.7378
19.604	61.9078
19.622	62.0754
19.64	62.24
19.658	62.3911
19.676	62.5297
19.694	62.6478
19.712	62.746
19.73	62.8214
19.748	62.8734
19.766	62.904
19.784	62.912
19.802	62.9021
19.82	62.8755
19.838	62.8356
19.856	62.787
19.874	62.7305
19.892	62.6733
19.91	62.6147
19.928	62.5612
19.946	62.5123
19.964	62.4719
19.982	62.4407
20	62.4194
20.018	62.409
20.036	62.4086
20.054	62.4178
20.072	62.4362
20.09	62.4611
20.108	62.4929
20.126	62.5277
20.144	62.5659
20.162	62.604
20.18	62.6411
20.198	62.6757
20.216	62.705
20.234	62.7295
20.252	62.7464
20.27	62.7561
20.288	62.7568
20.306	62.7482
20.324	62.7303
20.342	62.7025
20.36	62.6653
20.378	62.6192
20.396	62.5642
20.414	62.5023
20.432	62.4331
20.45	62.359
20.468	62.2806
20.486	62.1989
20.504	62.1168
20.522	62.0336
20.54	61.9532
20.558	61.8748
20.576	61.8015
20.594	61.7343
20.612	61.6738
20.63	61.6223
20.648	61.5792
20.666	61.5466
20.684	61.5244
20.702	61.5132
20.72	61.5137
20.738	61.5256
20.756	61.5485
20.774	61.5827
20.792	61.6267
20.81	61.6808
20.828	61.7433
20.846	61.8121
20.864	61.8877
20.882	61.9657
20.9	62.047
20.918	62.1279
20.936	62.2059
20.954	62.2811
20.972	62.348
20.99	62.4077
21.008	62.4567
21.026	62.4934
21.044	62.5178
21.062	62.5273
21.08	62.5225
21.098	62.5036
21.116	62.4699
21.134	62.423
21.152	62.3651
21.17	62.2952
21.188	62.2182
21.206	62.1341
21.224	62.0451
21.242	61.9559
21.26	61.8649
21.278	61.7775
21.296	61.6947
21.314	61.6172
21.332	61.5488
21.35	61.4885
21.368	61.4378
21.386	61.3977
21.404	61.3671
21.422	61.3451
21.44	61.3324
21.458	61.3258
21.476	61.325
21.494	61.329
21.512	61.333
21.53	61.3386
21.548	61.3417
21.566	61.3396
21.584	61.3332
21.602	61.3177
21.62	61.2935
21.638	61.2596
21.656	61.2133
21.674	61.1557
21.692	61.0863
21.71	61.0046
21.728	60.9116
21.746	60.8088
21.764	60.6953
21.782	60.5741
21.8	60.4474
21.818	60.3144
21.836	60.1799
21.854	60.0435
21.872	59.9071
21.89	59.7752
21.908	59.6463
21.926	59.5236
21.944	59.4096
21.962	59.3031
21.98	59.2075
21.998	59.1231
22.016	59.0498
22.034	58.9894
22.052	58.9416
22.07	58.9062
22.088	58.8836
22.106	58.8738
22.124	58.875
22.142	58.8875
22.16	58.9106
22.178	58.9424
22.196	58.9834
22.214	59.0323
22.232	59.087
22.25	59.1484
22.268	59.2147
22.286	59.2849
22.304	59.3595
22.322	59.4368
22.34	59.5165
22.358	59.5986
22.376	59.6821
22.394	59.7672
22.412	59.8535
22.43	59.9405
22.448	60.0282
22.466	60.1166
22.484	60.2053
22.502	60.2945
22.52	60.384
22.538	60.4738
22.556	60.5638
22.574	60.6536
22.592	60.7432
22.61	60.8325
22.628	60.9205
22.646	61.0077
22.664	61.0934
22.682	61.177
22.7	61.2587
22.718	61.3379
22.736	61.4135
22.754	61.4861
22.772	61.5551
22.79	61.6203
22.808	61.6819
22.826	61.7395
22.844	61.7928
22.862	61.842
22.88	61.8868
22.898	61.9272
22.916	61.9632
22.934	61.9943
22.952	62.0202
22.97	62.0411
22.988	62.0568
23.006	62.0673
23.024	62.0726
23.042	62.0722
23.06	62.0663
23.078	62.0546
23.096	62.0364
23.114	62.0116
23.132	61.9804
23.15	61.9423
23.168	61.8971
23.186	61.8452
23.204	61.7866
23.222	61.7206
23.24	61.6483
23.258	61.5712
23.276	61.4885
23.294	61.4013
23.312	61.313
23.33	61.2223
23.348	61.1306
23.366	61.0429
23.384	60.9581
23.402	60.8772
23.42	60.8058
23.438	60.7435
23.456	60.6903
23.474	60.6517
23.492	60.628
23.51	60.6185
23.528	60.6271
23.546	60.6552
23.564	60.7013
23.582	60.7664
23.6	60.8514
23.618	60.9558
23.636	61.077
23.654	61.2147
23.672	61.3699
23.69	61.5369
23.708	61.7126
23.726	61.9003
23.744	62.0928
23.762	62.2841
23.78	62.4792
23.798	62.671
23.816	62.851
23.834	63.0243
23.852	63.1859
23.87	63.3275
23.888	63.4515
23.906	63.5567
23.924	63.6376
23.942	63.6933
23.96	63.7254
23.978	63.7327
23.996	63.7138
24.014	63.6697
24.032	63.6031
24.05	63.5153
24.068	63.4039
24.086	63.2751
24.104	63.134
24.122	62.9759
24.14	62.807
24.158	62.6359
24.176	62.4586
24.194	62.2782
24.212	62.1043
24.23	61.9377
24.248	61.7761
24.266	61.6276
24.284	61.4966
24.302	61.3788
24.32	61.279
24.338	61.2015
24.356	61.1441
24.374	61.1078
24.392	61.0954
24.41	61.1073
24.428	61.1424
24.446	61.1997
24.464	61.2797
24.482	61.3825
24.5	61.5052
24.518	61.6459
24.536	61.8074
24.554	61.9854
24.572	62.1744
24.59	62.3769
24.608	62.5915
24.626	62.8113
24.644	63.034
24.662	63.2635
24.68	63.4923
24.698	63.714
24.716	63.9335
24.734	64.1468
24.752	64.3464
24.77	64.5325
24.788	64.7069
24.806	64.8634
24.824	64.9976
24.842	65.1137
24.86	65.2083
24.878	65.2772
24.896	65.3209
24.914	65.3404
24.932	65.334
24.95	65.3005
24.968	65.2402
24.986	65.1551
25.004	65.0467
25.022	64.9131
25.04	64.7561
25.058	64.58
25.076	64.3859
25.094	64.171
25.112	63.9411
25.13	63.7014
25.148	63.4484
25.166	63.1843
25.184	62.9153
25.202	62.6439
25.22	62.3662
25.238	62.0876
25.256	61.814
25.274	61.5431
25.292	61.2752
25.31	61.0141
25.328	60.7623
25.346	60.5176
25.364	60.2809
25.382	60.0536
25.4	59.8363
25.418	59.628
25.436	59.4281
25.454	59.2364
25.472	59.0538
25.49	58.8788
25.508	58.7099
25.526	58.5471
25.544	58.3911
25.562	58.2396
25.58	58.0903
25.598	57.9446
25.616	57.802
25.634	57.6602
25.652	57.5179
25.67	57.3764
25.688	57.235
25.706	57.0927
25.724	56.9489
25.742	56.8043
25.76	56.6591
25.778	56.5138
25.796	56.3678
25.814	56.2216
25.832	56.0758
25.85	55.9307
25.868	55.7857
25.886	55.6417
25.904	55.4998
25.922	55.3601
25.94	55.222
25.958	55.0865
25.976	54.9549
25.994	54.8265
26.012	54.7014
26.03	54.5806
26.048	54.4651
26.066	54.3546
26.084	54.2488
26.102	54.1477
26.12	54.0512
26.138	53.9594
26.156	53.8723
26.174	53.7901
26.192	53.7131
26.21	53.6413
26.228	53.5739
26.246	53.5099
26.264	53.4488
26.282	53.3912
26.3	53.3372
26.318	53.2869
26.336	53.2389
26.354	53.194
26.372	53.155
26.39	53.1243
26.408	53.0992
26.426	53.0809
26.444	53.0731
26.462	53.0786
26.48	53.0946
26.498	53.1223
26.516	53.1642
26.534	53.2225
26.552	53.2951
26.57	53.3826
26.588	53.4863
26.606	53.6075
26.624	53.7461
26.642	53.9005
26.66	54.0692
26.678	54.2519
26.696	54.4506
26.714	54.6623
26.732	54.8837
26.75	55.114
26.768	55.3568
26.786	55.6072
26.804	55.8598
26.822	56.1121
26.84	56.3689
26.858	56.6262
26.876	56.8793
26.894	57.126
26.912	57.3701
26.93	57.6091
26.948	57.8399
26.966	58.0683
26.984	58.3075
27.002	58.5287
27.02	58.7004
27.028	58.7471