File: Bakgrunnsmateriale/MATLAB/FTIR/ftir_data/subAa/Mapping_121/BZ1503107-1_t16.asc
PE IR       SPECTRUM    SPECTRUM    ASCII       PEDS        1.60
  -1
BZ216B~1.ASC
17/04/07
14:30:22.00
17/04/07
14:30:48.00
tln
$BZ1503107-1_t0016$<tbV0>[2.6,-10.4,8.0,0.0,27,1,0]
27.028
64

2002,4.07
MIRTGS : RIGHTBACK : INTERNAL 2
MIR : ON : INTERNAL 2
OPTKBR

0.200000
8
8.000000
FILLER
RATIO
SPECTRUM
UNLOCKED 256

DOUBLE
64
COMBINED
1
0
0

0.002000
RATIO

1
0
TRUE
51149
0
LEFT NOT FITTED RIGHT NOT FITTED 0
NONE
NONE
15600
12
4.427000
51148
TRUE
1 0 8 72 0 0 0 0

15798

#HDR
-1
-1
#GR
µM
%T
2.38419e-05
0.0
2.000000
0.002000
12515
8
75.3616
38.0228
#DATA
2.000000	 64.2256
2.018000	 66.1567
2.036000	 65.431
2.054000	 64.3599
2.072000	 65.385
2.090000	 65.1629
2.108000	 64.8441
2.126000	 64.5043
2.144000	 65.0439
2.162000	 64.9324
2.180000	 64.6282
2.198000	 64.1881
2.216000	 64.5356
2.234000	 67.992
2.252000	 68.5881
2.270000	 64.9174
2.288000	 64.7885
2.306000	 65.1341
2.324000	 65.2707
2.342000	 65.1206
2.360000	 65.067
2.378000	 65.2381
2.396000	 65.1382
2.414000	 64.8836
2.432000	 65.4307
2.450000	 65.076
2.468000	 65.2519
2.486000	 65.1456
2.504000	 65.1762
2.522000	 65.2073
2.540000	 65.3358
2.558000	 64.8573
2.576000	 65.116
2.594000	 65.3933
2.612000	 65.2557
2.630000	 65.1391
2.648000	 65.0011
2.666000	 65.543
2.684000	 65.1146
2.702000	 65.2566
2.720000	 65.58
2.738000	 65.2979
2.756000	 65.5205
2.774000	 65.3219
2.792000	 65.2617
2.810000	 65.1331
2.828000	 65.106
2.846000	 65.2624
2.864000	 65.0944
2.882000	 64.9485
2.900000	 65.1008
2.918000	 65.3255
2.936000	 65.2661
2.954000	 65.1266
2.972000	 65.1768
2.990000	 65.0603
3.008000	 65.4285
3.026000	 65.1131
3.044000	 65.3504
3.062000	 65.1973
3.080000	 65.044
3.098000	 65.1335
3.116000	 65.1745
3.134000	 65.2243
3.152000	 65.3178
3.170000	 65.1967
3.188000	 64.9836
3.206000	 65.0662
3.224000	 65.2389
3.242000	 65.0894
3.260000	 65.2235
3.278000	 65.1401
3.296000	 65.2118
3.314000	 65.1664
3.332000	 65.0907
3.350000	 65.1252
3.368000	 65.2308
3.386000	 64.9331
3.404000	 65.113
3.422000	 64.9871
3.440000	 65.0551
3.458000	 65.0448
3.476000	 65.011
3.494000	 65.0797
3.512000	 65.0392
3.530000	 65.1315
3.548000	 65.0192
3.566000	 65.0816
3.584000	 65.0752
3.602000	 65.1639
3.620000	 65.0643
3.638000	 65.1525
3.656000	 65.0324
3.674000	 65.1492
3.692000	 65.1276
3.710000	 65.1179
3.728000	 65.0701
3.746000	 65.1323
3.764000	 65.0876
3.782000	 65.0318
3.800000	 65.101
3.818000	 65.1003
3.836000	 65.077
3.854000	 65.1265
3.872000	 65.1373
3.890000	 65.04
3.908000	 65.1307
3.926000	 65.0621
3.944000	 65.0941
3.962000	 65.2319
3.980000	 65.143
3.998000	 65.0823
4.016000	 65.0713
4.034000	 65.012
4.052000	 65.1016
4.070000	 65.0604
4.088000	 64.9945
4.106000	 64.9941
4.124000	 65.0202
4.141999	 65.0466
4.160000	 65.034
4.178000	 64.9416
4.196000	 65.0159
4.214000	 65.1032
4.232000	 65.13
4.250000	 65.0741
4.268000	 65.0657
4.286000	 65.0532
4.304000	 64.9737
4.322000	 64.9436
4.340000	 64.892
4.358000	 64.9489
4.375999	 64.9702
4.394000	 65.0466
4.412000	 64.9369
4.430000	 64.9725
4.448000	 64.9703
4.466000	 64.9684
4.484000	 64.9584
4.502000	 64.9556
4.520000	 64.9462
4.538000	 64.9451
4.556000	 64.9209
4.574000	 64.9535
4.592000	 64.9105
4.609999	 65.0203
4.628000	 64.8227
4.646000	 64.7288
4.664000	 64.7998
4.682000	 64.8341
4.700000	 64.9195
4.718000	 65.0115
4.736000	 64.8798
4.754000	 64.833
4.772000	 64.8227
4.790000	 64.9073
4.808000	 64.974
4.826000	 64.8972
4.843999	 64.8567
4.862000	 64.8671
4.880000	 64.9217
4.898000	 64.8467
4.916000	 64.8913
4.934000	 64.9259
4.952000	 64.8353
4.970000	 64.9579
4.988000	 64.9005
5.006000	 64.8535
5.024000	 64.8358
5.042000	 64.7809
5.060000	 64.8287
5.077999	 64.7924
5.096000	 64.8532
5.114000	 64.8492
5.132000	 64.8477
5.150000	 64.8624
5.168000	 64.7657
5.186000	 64.7512
5.204000	 64.8131
5.222000	 64.8557
5.240000	 64.8496
5.258000	 64.9122
5.276000	 64.9165
5.294000	 64.8305
5.312000	 64.776
5.330000	 64.8014
5.348000	 64.8436
5.366000	 64.8129
5.384000	 64.7857
5.402000	 64.8037
5.420000	 64.8508
5.438000	 64.8394
5.456000	 64.7611
5.474000	 64.8102
5.492000	 64.8752
5.510000	 64.872
5.528000	 64.8172
5.546000	 64.836
5.564000	 64.8213
5.582000	 64.7415
5.600000	 64.7971
5.618000	 64.8164
5.636000	 64.8984
5.654000	 64.9036
5.672000	 64.8557
5.690000	 64.813
5.708000	 64.702
5.726000	 64.5498
5.744000	 64.4094
5.762000	 64.4441
5.780000	 64.3644
5.798000	 64.4214
5.816000	 64.6829
5.834000	 64.7038
5.852000	 64.6371
5.870000	 64.7555
5.888000	 64.8914
5.906000	 64.7867
5.923999	 64.758
5.942000	 64.7369
5.960000	 64.6776
5.978000	 64.748
5.996000	 64.7779
6.014000	 64.7002
6.032000	 64.7159
6.050000	 64.8505
6.068000	 64.7659
6.086000	 64.7029
6.104000	 64.7138
6.122000	 64.6429
6.140000	 64.662
6.158000	 64.7515
6.176000	 64.795
6.194000	 64.7002
6.212000	 64.6141
6.230000	 64.7203
6.248000	 64.7751
6.266000	 64.7404
6.284000	 64.7037
6.302000	 64.7208
6.320000	 64.7862
6.338000	 64.8288
6.356000	 64.7712
6.374000	 64.6899
6.392000	 64.7522
6.410000	 64.9396
6.428000	 64.9463
6.446000	 64.8351
6.464000	 64.8465
6.482000	 64.8384
6.500000	 64.7261
6.518000	 64.6528
6.536000	 64.6872
6.554000	 64.7282
6.572000	 64.7391
6.590000	 64.7438
6.608000	 64.7802
6.626000	 64.8632
6.644000	 64.8771
6.662000	 64.8263
6.680000	 64.7996
6.698000	 64.7193
6.716000	 64.6314
6.734000	 64.5956
6.752000	 64.5805
6.770000	 64.6205
6.788000	 64.6254
6.806000	 64.5545
6.824000	 64.5044
6.842000	 64.5047
6.860000	 64.5688
6.878000	 64.603
6.896000	 64.5579
6.914000	 64.5488
6.932000	 64.6119
6.950000	 64.6741
6.968000	 64.6554
6.986000	 64.5859
7.004000	 64.5065
7.022000	 64.4348
7.040000	 64.4208
7.058000	 64.4428
7.076000	 64.4604
7.094000	 64.4949
7.112000	 64.5443
7.130000	 64.5557
7.148000	 64.5162
7.166000	 64.4744
7.184000	 64.4425
7.202000	 64.4054
7.220000	 64.3954
7.238000	 64.4213
7.256000	 64.437
7.274000	 64.4325
7.292000	 64.4402
7.310000	 64.4814
7.328000	 64.5194
7.346000	 64.488
7.364000	 64.4128
7.382000	 64.3953
7.400000	 64.4627
7.418000	 64.549
7.436000	 64.5918
7.454000	 64.5754
7.472000	 64.5258
7.490000	 64.4877
7.508000	 64.4758
7.526000	 64.4631
7.544000	 64.4295
7.562000	 64.3791
7.580000	 64.3173
7.598000	 64.2616
7.616000	 64.2345
7.634000	 64.2213
7.652000	 64.2139
7.670000	 64.2423
7.688000	 64.3016
7.706000	 64.3434
7.724000	 64.3669
7.742000	 64.4059
7.760000	 64.434
7.778000	 64.3946
7.796000	 64.3011
7.814000	 64.2192
7.832000	 64.1808
7.850000	 64.1766
7.868000	 64.1979
7.886000	 64.2377
7.904000	 64.2704
7.922000	 64.271
7.940000	 64.2509
7.958000	 64.2415
7.976000	 64.245
7.994000	 64.2311
8.012000	 64.1934
8.030000	 64.1718
8.048000	 64.1939
8.065999	 64.2346
8.084000	 64.2557
8.102000	 64.2506
8.120000	 64.2374
8.138000	 64.2335
8.155999	 64.2438
8.173999	 64.2525
8.192000	 64.2385
8.210000	 64.208
8.228000	 64.1915
8.246000	 64.2065
8.263999	 64.2352
8.282000	 64.2407
8.300000	 64.2119
8.318000	 64.1841
8.336000	 64.2009
8.353999	 64.2654
8.372000	 64.3413
8.390000	 64.3901
8.408000	 64.3961
8.426000	 64.3638
8.443999	 64.3046
8.462000	 64.2305
8.480000	 64.1557
8.498000	 64.0991
8.516000	 64.0735
8.533999	 64.0738
8.552000	 64.0845
8.570000	 64.0929
8.588000	 64.0951
8.606000	 64.1018
8.624000	 64.1264
8.641999	 64.162
8.660000	 64.1821
8.678000	 64.1716
8.696000	 64.1473
8.714000	 64.144
8.731999	 64.1832
8.750000	 64.259
8.768000	 64.346
8.786000	 64.4156
8.804000	 64.4579
8.821999	 64.4848
8.840000	 64.5085
8.858000	 64.5211
8.876000	 64.5044
8.894000	 64.4517
8.911999	 64.3765
8.930000	 64.3023
8.948000	 64.247
8.966000	 64.214
8.984000	 64.1897
9.001999	 64.1558
9.020000	 64.1097
9.038000	 64.0688
9.056000	 64.0523
9.074000	 64.0572
9.092000	 64.0651
9.109999	 64.0702
9.128000	 64.0904
9.146000	 64.138
9.164000	 64.1979
9.182000	 64.2477
9.199999	 64.2884
9.218000	 64.3353
9.236000	 64.3851
9.254000	 64.4053
9.272000	 64.3658
9.289999	 64.273
9.308000	 64.1663
9.326000	 64.0839
9.344000	 64.041
9.362000	 64.0348
9.379999	 64.0583
9.398000	 64.1047
9.416000	 64.1635
9.434000	 64.2191
9.452000	 64.2555
9.469999	 64.2668
9.488000	 64.2599
9.506000	 64.2439
9.524000	 64.2205
9.542000	 64.1836
9.560000	 64.1325
9.577999	 64.081
9.596000	 64.0527
9.614000	 64.0634
9.632000	 64.1094
9.650000	 64.1729
9.667999	 64.234
9.686000	 64.2777
9.704000	 64.2933
9.722000	 64.2756
9.740000	 64.2306
9.757999	 64.1764
9.776000	 64.1367
9.794000	 64.1283
9.812000	 64.1515
9.830000	 64.1929
9.847999	 64.2355
9.866000	 64.2671
9.884000	 64.2833
9.902000	 64.2842
9.920000	 64.2724
9.937999	 64.2502
9.956000	 64.219
9.974000	 64.1848
9.992000	 64.1608
10.01	64.1638
10.028	64.202
10.046	64.2639
10.064	64.3198
10.082	64.337
10.1	64.2966
10.118	64.2043
10.136	64.0844
10.154	63.965
10.172	63.8688
10.19	63.8107
10.208	63.7992
10.226	63.8357
10.244	63.9119
10.262	64.0096
10.28	64.1064
10.298	64.1825
10.316	64.2272
10.334	64.2414
10.352	64.2351
10.37	64.2219
10.388	64.2133
10.406	64.215
10.424	64.226
10.442	64.2415
10.46	64.2563
10.478	64.2679
10.496	64.2775
10.514	64.2859
10.532	64.2922
10.55	64.2926
10.568	64.2832
10.586	64.2638
10.604	64.2392
10.622	64.2166
10.64	64.2025
10.658	64.1996
10.676	64.2072
10.694	64.2243
10.712	64.2503
10.73	64.2843
10.748	64.3228
10.766	64.358
10.784	64.3803
10.802	64.3833
10.82	64.3693
10.838	64.3495
10.856	64.3382
10.874	64.346
10.892	64.3728
10.91	64.4082
10.928	64.4367
10.946	64.4432
10.964	64.4204
10.982	64.37
11	64.3019
11.018	64.2313
11.036	64.1736
11.054	64.1415
11.072	64.1393
11.09	64.1625
11.108	64.1979
11.126	64.2264
11.144	64.233
11.162	64.2099
11.18	64.1616
11.198	64.1034
11.216	64.053
11.234	64.024
11.252	64.0205
11.27	64.0374
11.288	64.0628
11.306	64.0865
11.324	64.1035
11.342	64.1156
11.36	64.1284
11.378	64.146
11.396	64.1678
11.414	64.1882
11.432	64.1982
11.45	64.1914
11.468	64.1665
11.486	64.1288
11.504	64.0873
11.522	64.0527
11.54	64.0331
11.558	64.0324
11.576	64.0495
11.594	64.0809
11.612	64.1216
11.63	64.1669
11.648	64.214
11.666	64.2608
11.684	64.3053
11.702	64.3457
11.72	64.3798
11.738	64.406
11.756	64.4235
11.774	64.432
11.792	64.4313
11.81	64.4207
11.828	64.399
11.846	64.365
11.864	64.3196
11.882	64.2658
11.9	64.2097
11.918	64.1591
11.936	64.1205
11.954	64.097
11.972	64.0872
11.99	64.0861
12.008	64.0874
12.026	64.0869
12.044	64.0831
12.062	64.0782
12.08	64.0758
12.098	64.0778
12.116	64.0838
12.134	64.0906
12.152	64.0938
12.17	64.0905
12.188	64.0809
12.206	64.0691
12.224	64.0615
12.242	64.0633
12.26	64.077
12.278	64.1013
12.296	64.1316
12.314	64.162
12.332	64.1873
12.35	64.2043
12.368	64.2112
12.386	64.2085
12.404	64.1979
12.422	64.1814
12.44	64.1616
12.458	64.1409
12.476	64.1215
12.494	64.1053
12.512	64.0941
12.53	64.0891
12.548	64.0915
12.566	64.1015
12.584	64.1191
12.602	64.1436
12.62	64.1737
12.638	64.2074
12.656	64.2426
12.674	64.2769
12.692	64.3082
12.71	64.3348
12.728	64.355
12.746	64.3684
12.764	64.3742
12.782	64.372
12.8	64.3613
12.818	64.3421
12.836	64.3155
12.854	64.2839
12.872	64.2505
12.89	64.219
12.908	64.1928
12.926	64.1734
12.944	64.1609
12.962	64.1533
12.98	64.1474
12.998	64.1402
13.016	64.1292
13.034	64.1142
13.052	64.0962
13.07	64.0783
13.088	64.0643
13.106	64.0579
13.124	64.0618
13.142	64.0768
13.16	64.1015
13.178	64.1323
13.196	64.1643
13.214	64.1921
13.232	64.211
13.25	64.2176
13.268	64.2107
13.286	64.1911
13.304	64.1616
13.322	64.1264
13.34	64.0901
13.358	64.0571
13.376	64.0303
13.394	64.0115
13.412	64.0007
13.43	63.9967
13.448	63.9968
13.466	63.9981
13.484	63.9979
13.502	63.9942
13.52	63.9861
13.538	63.9737
13.556	63.9587
13.574	63.9441
13.592	63.9335
13.61	63.9305
13.628	63.9377
13.646	63.9559
13.664	63.9841
13.682	64.0193
13.7	64.057
13.718	64.0922
13.736	64.1202
13.754	64.1377
13.772	64.1434
13.79	64.1381
13.808	64.1245
13.826	64.1067
13.844	64.0889
13.862	64.0751
13.88	64.0683
13.898	64.0701
13.916	64.0805
13.934	64.0985
13.952	64.1218
13.97	64.1477
13.988	64.1731
14.006	64.1949
14.024	64.2105
14.042	64.2173
14.06	64.2136
14.078	64.1984
14.096	64.1724
14.114	64.1372
14.132	64.0957
14.15	64.0516
14.168	64.0095
14.186	63.9735
14.204	63.9472
14.222	63.9334
14.24	63.9332
14.258	63.9466
14.276	63.9721
14.294	64.0072
14.312	64.0492
14.33	64.0952
14.348	64.1425
14.366	64.1886
14.384	64.2316
14.402	64.2706
14.42	64.3046
14.438	64.3328
14.456	64.3544
14.474	64.368
14.492	64.372
14.51	64.3644
14.528	64.3438
14.546	64.3097
14.564	64.2622
14.582	64.203
14.6	64.1349
14.618	64.062
14.636	63.9892
14.654	63.9213
14.672	63.8621
14.69	63.8146
14.708	63.7805
14.726	63.7595
14.744	63.7499
14.762	63.7486
14.78	63.7525
14.798	63.7578
14.816	63.7612
14.834	63.7601
14.852	63.7526
14.87	63.7385
14.888	63.7181
14.906	63.6924
14.924	63.6631
14.942	63.6321
14.96	63.6018
14.978	63.5742
14.996	63.5512
15.014	63.5348
15.032	63.5261
15.05	63.5261
15.068	63.5349
15.086	63.5522
15.104	63.5771
15.122	63.6077
15.14	63.6415
15.158	63.6763
15.176	63.7096
15.194	63.7391
15.212	63.7632
15.23	63.7816
15.248	63.7948
15.266	63.8038
15.284	63.8111
15.302	63.8198
15.32	63.8322
15.338	63.8506
15.356	63.8768
15.374	63.9114
15.392	63.9538
15.41	64.0028
15.428	64.0562
15.446	64.1109
15.464	64.1642
15.482	64.2139
15.5	64.2575
15.518	64.2933
15.536	64.3203
15.554	64.3381
15.572	64.3467
15.59	64.3467
15.608	64.3386
15.626	64.323
15.644	64.3009
15.662	64.2734
15.68	64.2415
15.698	64.2061
15.716	64.1688
15.734	64.1311
15.752	64.0947
15.77	64.0613
15.788	64.033
15.806	64.011
15.824	63.9963
15.842	63.9897
15.86	63.9908
15.878	63.9989
15.896	64.0129
15.914	64.0308
15.932	64.0502
15.95	64.0693
15.968	64.0858
15.986	64.0975
16.004	64.1034
16.022	64.1026
16.04	64.0949
16.058	64.0809
16.076	64.0615
16.094	64.0382
16.112	64.0129
16.13	63.9869
16.148	63.9622
16.166	63.9404
16.184	63.9223
16.202	63.909
16.22	63.9007
16.238	63.8972
16.256	63.8982
16.274	63.9031
16.292	63.9111
16.31	63.9216
16.328	63.9339
16.346	63.9477
16.364	63.9629
16.382	63.9794
16.4	63.9973
16.418	64.0167
16.436	64.0378
16.454	64.0606
16.472	64.085
16.49	64.1108
16.508	64.1371
16.526	64.1634
16.544	64.1885
16.562	64.2113
16.58	64.2309
16.598	64.2462
16.616	64.2569
16.634	64.2626
16.652	64.2632
16.67	64.2595
16.688	64.2518
16.706	64.2424
16.724	64.2322
16.742	64.2232
16.76	64.2174
16.778	64.2159
16.796	64.2199
16.814	64.2297
16.832	64.2452
16.85	64.2654
16.868	64.2887
16.886	64.3139
16.904	64.3385
16.922	64.3611
16.94	64.3798
16.958	64.3935
16.976	64.402
16.994	64.4054
17.012	64.4051
17.03	64.402
17.048	64.3991
17.066	64.398
17.084	64.4011
17.102	64.4109
17.12	64.4284
17.138	64.4552
17.156	64.4908
17.174	64.5354
17.192	64.5868
17.21	64.6436
17.228	64.7028
17.246	64.7613
17.264	64.8169
17.282	64.8651
17.3	64.9045
17.318	64.9317
17.336	64.9449
17.354	64.9429
17.372	64.9242
17.39	64.8888
17.408	64.8367
17.426	64.7691
17.444	64.6866
17.462	64.5929
17.48	64.4893
17.498	64.3804
17.516	64.2699
17.534	64.1611
17.552	64.0605
17.57	63.97
17.588	63.8959
17.606	63.84
17.624	63.8063
17.642	63.7959
17.66	63.81
17.678	63.8468
17.696	63.9053
17.714	63.9818
17.732	64.0727
17.75	64.1743
17.768	64.2807
17.786	64.3897
17.804	64.494
17.822	64.5927
17.84	64.6808
17.858	64.7581
17.876	64.8228
17.894	64.8759
17.912	64.9173
17.93	64.9497
17.948	64.9735
17.966	64.9918
17.984	65.0051
18.002	65.0155
18.02	65.0232
18.038	65.0289
18.056	65.0319
18.074	65.0323
18.092	65.0284
18.11	65.0202
18.128	65.0065
18.146	64.9875
18.164	64.9632
18.182	64.9347
18.2	64.9031
18.218	64.8713
18.236	64.8408
18.254	64.8158
18.272	64.7971
18.29	64.7895
18.308	64.7933
18.326	64.811
18.344	64.842
18.362	64.8858
18.38	64.9407
18.398	65.0029
18.416	65.0691
18.434	65.135
18.452	65.1949
18.47	65.2448
18.488	65.2788
18.506	65.2941
18.524	65.2859
18.542	65.2528
18.56	65.1932
18.578	65.1069
18.596	64.9964
18.614	64.862
18.632	64.7099
18.65	64.5409
18.668	64.3637
18.686	64.1793
18.704	63.9966
18.722	63.8166
18.74	63.6477
18.758	63.4906
18.776	63.3516
18.794	63.2312
18.812	63.1332
18.83	63.0572
18.848	63.0051
18.866	62.9754
18.884	62.9674
18.902	62.9792
18.92	63.0085
18.938	63.0525
18.956	63.1074
18.974	63.1703
18.992	63.2368
19.01	63.3045
19.028	63.3686
19.046	63.4278
19.064	63.4784
19.082	63.5198
19.1	63.5495
19.118	63.5684
19.136	63.5758
19.154	63.5732
19.172	63.5624
19.19	63.545
19.208	63.525
19.226	63.5033
19.244	63.4855
19.262	63.4717
19.28	63.4671
19.298	63.4713
19.316	63.4884
19.334	63.5179
19.352	63.5602
19.37	63.6153
19.388	63.6806
19.406	63.7565
19.424	63.8369
19.442	63.9221
19.46	64.0045
19.478	64.084
19.496	64.1534
19.514	64.2111
19.532	64.2528
19.55	64.2754
19.568	64.2782
19.586	64.2586
19.604	64.218
19.622	64.1565
19.64	64.0758
19.658	63.9807
19.676	63.8716
19.694	63.7573
19.712	63.637
19.73	63.5213
19.748	63.4099
19.766	63.311
19.784	63.2263
19.802	63.1597
19.82	63.1147
19.838	63.0911
19.856	63.0918
19.874	63.1152
19.892	63.1601
19.91	63.2264
19.928	63.3085
19.946	63.407
19.964	63.5147
19.982	63.6313
20	63.751
20.018	63.871
20.036	63.989
20.054	64.0994
20.072	64.2026
20.09	64.2935
20.108	64.3727
20.126	64.4372
20.144	64.4867
20.162	64.5209
20.18	64.5391
20.198	64.5422
20.216	64.5303
20.234	64.5039
20.252	64.4649
20.27	64.4131
20.288	64.3515
20.306	64.2798
20.324	64.2007
20.342	64.1155
20.36	64.0251
20.378	63.9332
20.396	63.8391
20.414	63.7468
20.432	63.6558
20.45	63.5691
20.468	63.4883
20.486	63.4136
20.504	63.3475
20.522	63.2894
20.54	63.2408
20.558	63.202
20.576	63.1724
20.594	63.1524
20.612	63.1411
20.63	63.1369
20.648	63.1401
20.666	63.1477
20.684	63.1601
20.702	63.1747
20.72	63.1897
20.738	63.2051
20.756	63.2181
20.774	63.2292
20.792	63.237
20.81	63.2406
20.828	63.2408
20.846	63.2373
20.864	63.2303
20.882	63.2215
20.9	63.2104
20.918	63.1989
20.936	63.1885
20.954	63.179
20.972	63.1731
20.99	63.1702
21.008	63.1719
21.026	63.1789
21.044	63.1909
21.062	63.2082
21.08	63.2311
21.098	63.2582
21.116	63.2899
21.134	63.3252
21.152	63.3622
21.17	63.4017
21.188	63.4412
21.206	63.4806
21.224	63.5193
21.242	63.5556
21.26	63.5899
21.278	63.622
21.296	63.6513
21.314	63.6786
21.332	63.7044
21.35	63.7285
21.368	63.7526
21.386	63.7771
21.404	63.8023
21.422	63.8299
21.44	63.8595
21.458	63.8917
21.476	63.9274
21.494	63.9658
21.512	64.0066
21.53	64.0502
21.548	64.0945
21.566	64.1382
21.584	64.1817
21.602	64.2209
21.62	64.2565
21.638	64.2865
21.656	64.3074
21.674	64.3206
21.692	64.3235
21.71	64.3152
21.728	64.2962
21.746	64.2661
21.764	64.2241
21.782	64.1728
21.8	64.113
21.818	64.0443
21.836	63.9727
21.854	63.8972
21.872	63.8207
21.89	63.7492
21.908	63.6804
21.926	63.6196
21.944	63.5708
21.962	63.5321
21.98	63.5082
21.998	63.4998
22.016	63.5062
22.034	63.5287
22.052	63.5678
22.07	63.6205
22.088	63.6857
22.106	63.7641
22.124	63.8493
22.142	63.9414
22.16	64.0389
22.178	64.1337
22.196	64.2282
22.214	64.318
22.232	64.3966
22.25	64.4668
22.268	64.5241
22.286	64.5653
22.304	64.5923
22.322	64.6035
22.34	64.5976
22.358	64.5764
22.376	64.5427
22.394	64.4945
22.412	64.4361
22.43	64.3726
22.448	64.301
22.466	64.2281
22.484	64.1592
22.502	64.0911
22.52	64.0318
22.538	63.9842
22.556	63.9466
22.574	63.9252
22.592	63.9212
22.61	63.9336
22.628	63.9649
22.646	64.0159
22.664	64.085
22.682	64.1708
22.7	64.275
22.718	64.3938
22.736	64.5233
22.754	64.6661
22.772	64.8164
22.79	64.9691
22.808	65.1275
22.826	65.2847
22.844	65.4362
22.862	65.585
22.88	65.7253
22.898	65.8541
22.916	65.9734
22.934	66.08
22.952	66.1725
22.97	66.2519
22.988	66.3177
23.006	66.3688
23.024	66.4064
23.042	66.4326
23.06	66.4465
23.078	66.4492
23.096	66.4453
23.114	66.4343
23.132	66.4167
23.15	66.3973
23.168	66.3753
23.186	66.3516
23.204	66.3301
23.222	66.3112
23.24	66.2942
23.258	66.2805
23.276	66.2708
23.294	66.2639
23.312	66.2584
23.33	66.2556
23.348	66.2538
23.366	66.2489
23.384	66.2418
23.402	66.2315
23.42	66.2129
23.438	66.1864
23.456	66.1518
23.474	66.1045
23.492	66.0437
23.51	65.9705
23.528	65.8828
23.546	65.7792
23.564	65.6609
23.582	65.5292
23.6	65.3836
23.618	65.2242
23.636	65.0555
23.654	64.879
23.672	64.6925
23.69	64.5034
23.708	64.3157
23.726	64.1254
23.744	63.94
23.762	63.766
23.78	63.5987
23.798	63.4437
23.816	63.3079
23.834	63.1882
23.852	63.0868
23.87	63.0085
23.888	62.9526
23.906	62.9187
23.924	62.9089
23.942	62.9242
23.96	62.9632
23.978	63.0239
23.996	63.1068
24.014	63.212
24.032	63.3351
24.05	63.4741
24.068	63.6318
24.086	63.802
24.104	63.9794
24.122	64.1688
24.14	64.3641
24.158	64.5572
24.176	64.7519
24.194	64.9453
24.212	65.1279
24.23	65.299
24.248	65.4609
24.266	65.6054
24.284	65.7282
24.302	65.8337
24.32	65.9166
24.338	65.9719
24.356	66.0028
24.374	66.0071
24.392	65.9807
24.41	65.9234
24.428	65.8366
24.446	65.7198
24.464	65.5722
24.482	65.3942
24.5	65.1881
24.518	64.9555
24.536	64.6933
24.554	64.4068
24.572	64.1025
24.59	63.7762
24.608	63.431
24.626	63.0777
24.644	62.7201
24.662	62.352
24.68	61.9856
24.698	61.6318
24.716	61.2824
24.734	60.9439
24.752	60.6286
24.77	60.3365
24.788	60.0644
24.806	59.8217
24.824	59.6148
24.842	59.4381
24.86	59.2956
24.878	59.1925
24.896	59.1292
24.914	59.1036
24.932	59.1149
24.95	59.1639
24.968	59.2517
24.986	59.3729
25.004	59.5219
25.022	59.7045
25.04	59.9157
25.058	60.1445
25.076	60.3878
25.094	60.6523
25.112	60.9254
25.13	61.1948
25.148	61.4685
25.166	61.742
25.184	62.0014
25.202	62.241
25.22	62.4694
25.238	62.676
25.256	62.8496
25.274	62.9943
25.292	63.1101
25.31	63.1905
25.328	63.2311
25.346	63.2354
25.364	63.2031
25.382	63.1333
25.4	63.0228
25.418	62.8745
25.436	62.6952
25.454	62.489
25.472	62.2477
25.49	61.9817
25.508	61.7051
25.526	61.4196
25.544	61.119
25.562	60.8141
25.58	60.5152
25.598	60.2166
25.616	59.92
25.634	59.6332
25.652	59.3596
25.67	59.0917
25.688	58.8393
25.706	58.614
25.724	58.4152
25.742	58.2385
25.76	58.0936
25.778	57.9888
25.796	57.9105
25.814	57.8693
25.832	57.8864
25.85	57.9745
25.868	58.1158
25.886	58.3255
25.904	58.6237
25.922	59.0278
25.94	59.5275
25.958	60.098
25.976	60.7151
25.994	61.3994
26.012	62.144
26.03	62.9077
26.048	63.6556
26.066	64.4176
26.084	65.1796
26.102	65.9085
26.12	66.5839
26.138	67.232
26.156	67.8342
26.174	68.3662
26.192	68.8021
26.21	69.1498
26.228	69.4498
26.246	69.7433
26.264	70.0254
26.282	70.2802
26.3	70.5433
26.318	70.8496
26.336	71.2036
26.354	71.5881
26.372	71.9934
26.39	72.4118
26.408	72.8655
26.426	73.3365
26.444	73.7893
26.462	74.205
26.48	74.6728
26.498	75.0989
26.516	75.344
26.534	75.3057
26.552	75.091
26.57	74.6532
26.588	73.9095
26.606	72.7887
26.624	71.3148
26.642	69.5418
26.66	67.5214
26.678	65.2598
26.696	62.6793
26.714	59.8996
26.732	57.0566
26.75	54.1642
26.768	51.0442
26.786	47.9667
26.804	45.2325
26.822	42.9849
26.84	40.9909
26.858	39.3927
26.876	38.3617
26.894	38.0228
26.912	38.2933
26.93	39.0977
26.948	40.3669
26.966	42.2527
26.984	45.0847
27.002	48.1247
27.02	50.5659
27.028	51.1831