File: Bakgrunnsmateriale/MATLAB/FTIR/ftir_data/subAa/Mapping_121/BZ1503107-1_t120_cm-1.asc
PE IR       SPECTRUM    SPECTRUM    ASCII       PEDS        1.60
  -1
BZBC70~1.ASC
17/04/07
23:06:50.00
17/04/07
23:06:50.00
tln
$BZ1503107-1_t0120$<tbV0>[-10.4,13.0,8.0,0.0,27,1,0]
370
64

2002,4.07
MIRTGS : RIGHTBACK : INTERNAL 2
MIR : ON : INTERNAL 2
OPTKBR

0.200000
8
8.000000
FILLER
RATIO
SPECTRUM
UNLOCKED 256

DOUBLE
64
COMBINED
1
0
0

1.000000
RATIO

1
0
TRUE
51149
0
LEFT NOT FITTED RIGHT NOT FITTED 0
NONE
NONE
15600
12
4.427000
51148
TRUE
1 0 8 72 0 0 0 0

15798

#HDR
-1
-1
#GR
CM-1
%T
2.38419e-05
0.0
5000
-1.000000
4631
8
70.4605
50.7792
#DATA
5000	66.8204
4996	65.5687
4992	65.6845
4988	66.484
4984	66.4148
4980	65.0894
4976	63.8763
4972	64.3437
4968	65.6012
4964	66.1969
4960	66.6182
4956	66.5003
4952	65.5007
4948	64.9332
4944	64.5945
4940	64.5937
4936	65.402
4932	65.9663
4928	65.8329
4924	65.3943
4920	65.032
4916	64.8563
4912	65.0038
4908	65.2423
4904	65.0823
4900	64.731
4896	64.7387
4892	64.9208
4888	64.8598
4884	64.8021
4880	64.7792
4876	64.8192
4872	64.9313
4868	64.7854
4864	64.6241
4860	64.6631
4856	64.7724
4852	64.9669
4848	65.0774
4844	65.1025
4840	65.1044
4836	64.9548
4832	64.7177
4828	64.5131
4824	64.4829
4820	64.6446
4816	64.637
4812	64.4469
4808	64.4893
4804	64.6906
4800	64.8149
4796	64.8041
4792	64.6614
4788	64.4245
4784	64.1757
4780	64.1434
4776	64.2317
4772	64.1383
4768	64.1598
4764	64.575
4760	64.9414
4756	65.0293
4752	65.1024
4748	65.2
4744	65.0643
4740	64.9455
4736	65.065
4732	65.0306
4728	64.9075
4724	64.7656
4720	64.5482
4716	64.5626
4712	64.6777
4708	64.7716
4704	64.9754
4700	65.016
4696	64.7637
4692	64.4946
4688	64.4312
4684	64.4846
4680	64.4765
4676	64.497
4672	64.6451
4668	64.791
4664	64.8577
4660	64.9315
4656	64.9868
4652	65.065
4648	65.2212
4644	65.2892
4640	65.2328
4636	65.172
4632	65.1217
4628	64.9501
4624	64.8893
4620	65.0864
4616	65.1674
4612	65.0975
4608	64.9786
4604	64.8526
4600	64.8506
4596	64.841
4592	64.8779
4588	65.1681
4584	65.3738
4580	65.2766
4576	65.226
4572	65.1822
4568	64.9987
4564	64.9929
4560	65.2383
4556	65.398
4552	65.2665
4548	65.1265
4544	65.2579
4540	65.4214
4536	65.327
4532	65.2481
4528	65.3062
4524	65.3295
4520	65.2534
4516	65.1621
4512	65.2399
4508	65.2621
4504	65.0937
4500	64.9702
4496	64.8342
4492	64.6916
4488	64.5747
4484	64.576
4480	64.8181
4476	65.122
4472	65.6387
4468	66.4035
4464	67.0233
4460	67.6701
4456	67.5432
4452	66.2208
4448	64.8296
4444	61.6949
4440	56.6138
4436	52.8551
4432	54.4221
4428	58.9608
4424	59.7807
4420	60.4838
4416	63.7969
4412	66.0522
4408	66.4378
4404	66.2772
4400	66.647
4396	66.7683
4392	66.2244
4388	65.8334
4384	65.8272
4380	65.6728
4376	65.3142
4372	65.1503
4368	65.101
4364	65.1207
4360	65.2614
4356	65.3133
4352	65.283
4348	65.3342
4344	65.3486
4340	65.3507
4336	65.4061
4332	65.389
4328	65.3019
4324	65.2081
4320	65.1269
4316	65.0797
4312	65.062
4308	65.0142
4304	64.9781
4300	65.1593
4296	65.3972
4292	65.4078
4288	65.4158
4284	65.4314
4280	65.274
4276	65.1731
4272	65.1694
4268	65.1546
4264	65.109
4260	64.9654
4256	64.888
4252	64.9613
4248	64.8918
4244	64.6668
4240	64.6214
4236	64.7269
4232	64.7587
4228	64.7315
4224	64.7433
4220	64.8883
4216	65.0767
4212	65.0809
4208	64.9974
4204	65.01
4200	65.0388
4196	65.0229
4192	64.9433
4188	64.7417
4184	64.572
4180	64.5888
4176	64.6149
4172	64.6262
4168	64.7903
4164	64.8905
4160	64.8528
4156	64.912
4152	64.9406
4148	64.8142
4144	64.6713
4140	64.6107
4136	64.6952
4132	64.7868
4128	64.7596
4124	64.705
4120	64.6641
4116	64.7231
4112	64.8349
4108	64.8396
4104	64.7554
4100	64.6786
4096	64.6175
4092	64.5868
4088	64.6794
4084	64.8113
4080	64.9392
4076	65.0329
4072	65.0061
4068	64.957
4064	64.9119
4060	64.8787
4056	64.8869
4052	64.9063
4048	64.8772
4044	64.7815
4040	64.7432
4036	64.784
4032	64.797
4028	64.706
4024	64.5879
4020	64.6851
4016	64.9595
4012	65.0512
4008	64.9542
4004	64.8414
4000	64.6736
3996	64.6391
3992	64.691
3988	64.6243
3984	64.7151
3980	64.9015
3976	64.9591
3972	64.9831
3968	64.9114
3964	64.7908
3960	64.8371
3956	64.9661
3952	64.9156
3948	64.774
3944	64.7878
3940	64.8228
3936	64.7783
3932	64.8258
3928	64.9356
3924	64.9934
3920	64.9949
3916	64.9698
3912	64.9067
3908	64.8222
3904	64.7982
3900	64.7907
3896	64.7556
3892	64.7057
3888	64.7703
3884	65.033
3880	65.2199
3876	65.1918
3872	65.0661
3868	64.9679
3864	65.011
3860	65.0486
3856	64.9455
3852	64.7934
3848	64.7426
3844	64.825
3840	64.9322
3836	65.0459
3832	65.0912
3828	65.0512
3824	65.0135
3820	64.9883
3816	64.9415
3812	64.9344
3808	65.1437
3804	65.3878
3800	65.3435
3796	65.1437
3792	65.0255
3788	64.9641
3784	64.9156
3780	64.9314
3776	65.0142
3772	65.073
3768	64.9882
3764	64.8511
3760	64.8825
3756	65.0065
3752	65.0983
3748	65.2248
3744	65.22
3740	65.0171
3736	64.9096
3732	64.9519
3728	64.9941
3724	64.9823
3720	64.9859
3716	64.983
3712	64.8608
3708	64.8006
3704	64.9037
3700	64.9219
3696	64.8278
3692	64.9205
3688	65.1274
3684	65.1197
3680	65.0348
3676	65.0524
3672	65.0778
3668	65.0242
3664	64.942
3660	64.9634
3656	65.0038
3652	64.9327
3648	64.819
3644	64.7399
3640	64.8117
3636	65.0005
3632	65.0788
3628	65.0543
3624	65.0118
3620	64.9485
3616	64.9413
3612	64.9684
3608	64.8619
3604	64.6756
3600	64.6715
3596	64.8319
3592	64.8893
3588	64.7838
3584	64.711
3580	64.7569
3576	64.8191
3572	64.8719
3568	64.93
3564	64.9367
3560	64.9086
3556	64.8654
3552	64.8083
3548	64.8159
3544	64.8862
3540	64.9259
3536	64.8736
3532	64.8064
3528	64.8241
3524	64.8836
3520	64.8974
3516	64.8558
3512	64.8413
3508	64.8299
3504	64.782
3500	64.7444
3496	64.7855
3492	64.9167
3488	64.9633
3484	64.9277
3480	64.9268
3476	64.9558
3472	64.9942
3468	64.9892
3464	64.9533
3460	64.9
3456	64.8551
3452	64.8816
3448	64.9369
3444	64.9633
3440	64.9645
3436	64.985
3432	65.0822
3428	65.1064
3424	64.9503
3420	64.8711
3416	64.9517
3412	65.0132
3408	64.965
3404	64.8576
3400	64.8507
3396	64.9603
3392	65.0217
3388	64.9777
3384	64.9367
3380	64.9217
3376	64.8785
3372	64.8594
3368	64.8745
3364	64.8733
3360	64.8663
3356	64.9117
3352	65.038
3348	65.06
3344	64.8873
3340	64.7922
3336	64.8858
3332	64.9467
3328	64.9099
3324	64.8851
3320	64.8644
3316	64.8301
3312	64.7597
3308	64.6421
3304	64.6317
3300	64.7583
3296	64.8439
3292	64.8349
3288	64.8125
3284	64.8334
3280	64.8602
3276	64.8893
3272	64.9544
3268	64.9974
3264	64.9766
3260	64.9457
3256	64.9063
3252	64.7895
3248	64.6878
3244	64.7047
3240	64.7322
3236	64.7282
3232	64.7247
3228	64.7371
3224	64.8376
3220	64.8919
3216	64.8168
3212	64.8173
3208	64.8944
3204	64.8594
3200	64.7903
3196	64.8676
3192	64.9987
3188	64.9946
3184	64.9171
3180	64.8836
3176	64.8501
3172	64.8341
3168	64.8859
3164	64.9066
3160	64.8471
3156	64.812
3152	64.8314
3148	64.8198
3144	64.7879
3140	64.7983
3136	64.8505
3132	64.8774
3128	64.8498
3124	64.8466
3120	64.8543
3116	64.8743
3112	64.9075
3108	64.8317
3104	64.7248
3100	64.7078
3096	64.7415
3092	64.7681
3088	64.823
3084	64.9085
3080	64.9165
3076	64.8582
3072	64.7576
3068	64.6726
3064	64.7078
3060	64.7788
3056	64.7961
3052	64.7582
3048	64.6918
3044	64.661
3040	64.6755
3036	64.7152
3032	64.7775
3028	64.8377
3024	64.833
3020	64.7706
3016	64.7418
3012	64.7332
3008	64.7199
3004	64.7323
3000	64.7424
2996	64.7311
2992	64.7126
2988	64.6491
2984	64.58
2980	64.6141
2976	64.6693
2972	64.6788
2968	64.6628
2964	64.6262
2960	64.6226
2956	64.6392
2952	64.6593
2948	64.6529
2944	64.6363
2940	64.7005
2936	64.7425
2932	64.6627
2928	64.5583
2924	64.5108
2920	64.5033
2916	64.4902
2912	64.4454
2908	64.3877
2904	64.3781
2900	64.4514
2896	64.5834
2892	64.6567
2888	64.6194
2884	64.5818
2880	64.5659
2876	64.5392
2872	64.5492
2868	64.5715
2864	64.5637
2860	64.5879
2856	64.6478
2852	64.6967
2848	64.7401
2844	64.7535
2840	64.6933
2836	64.5887
2832	64.5165
2828	64.5054
2824	64.5035
2820	64.4631
2816	64.4315
2812	64.4641
2808	64.5349
2804	64.5958
2800	64.5995
2796	64.5302
2792	64.4826
2788	64.5133
2784	64.5738
2780	64.5947
2776	64.5706
2772	64.5739
2768	64.6132
2764	64.6116
2760	64.5728
2756	64.565
2752	64.5642
2748	64.547
2744	64.5664
2740	64.6289
2736	64.6632
2732	64.6382
2728	64.623
2724	64.6242
2720	64.6289
2716	64.6734
2712	64.6817
2708	64.6169
2704	64.568
2700	64.5684
2696	64.5696
2692	64.5489
2688	64.5815
2684	64.6116
2680	64.4985
2676	64.3569
2672	64.3614
2668	64.4441
2664	64.5022
2660	64.518
2656	64.4657
2652	64.4199
2648	64.4317
2644	64.452
2640	64.4469
2636	64.4432
2632	64.4724
2628	64.4864
2624	64.4618
2620	64.4555
2616	64.4726
2612	64.4876
2608	64.5352
2604	64.566
2600	64.5588
2596	64.5482
2592	64.5279
2588	64.5381
2584	64.5563
2580	64.5645
2576	64.5953
2572	64.6204
2568	64.6032
2564	64.5393
2560	64.467
2556	64.4435
2552	64.4427
2548	64.4523
2544	64.446
2540	64.4443
2536	64.5449
2532	64.5981
2528	64.501
2524	64.4647
2520	64.5099
2516	64.4563
2512	64.3683
2508	64.3732
2504	64.448
2500	64.4899
2496	64.4376
2492	64.3711
2488	64.3329
2484	64.3131
2480	64.3458
2476	64.4454
2472	64.5275
2468	64.5199
2464	64.4675
2460	64.4343
2456	64.4547
2452	64.4829
2448	64.4572
2444	64.4425
2440	64.4841
2436	64.4671
2432	64.3774
2428	64.3213
2424	64.2745
2420	64.2596
2416	64.2776
2412	64.2666
2408	64.2885
2404	64.353
2400	64.3969
2396	64.4133
2392	64.4229
2388	64.4088
2384	64.3457
2380	64.2504
2376	64.2344
2372	64.3276
2368	64.3787
2364	64.3904
2360	64.4012
2356	64.3751
2352	64.3404
2348	64.3275
2344	64.3355
2340	64.3119
2336	64.2658
2332	64.2393
2328	64.2367
2324	64.2399
2320	64.2101
2316	64.1784
2312	64.222
2308	64.2937
2304	64.3141
2300	64.3353
2296	64.365
2292	64.3395
2288	64.3042
2284	64.3253
2280	64.3385
2276	64.3092
2272	64.2897
2268	64.2652
2264	64.2742
2260	64.3198
2256	64.2773
2252	64.1951
2248	64.1772
2244	64.2156
2240	64.2644
2236	64.2669
2232	64.2428
2228	64.2378
2224	64.2287
2220	64.1923
2216	64.1762
2212	64.203
2208	64.2118
2204	64.2147
2200	64.25
2196	64.2316
2192	64.1509
2188	64.1313
2184	64.1739
2180	64.1918
2176	64.1632
2172	64.1388
2168	64.1745
2164	64.1986
2160	64.1739
2156	64.1696
2152	64.1886
2148	64.2301
2144	64.2519
2140	64.2269
2136	64.2076
2132	64.1825
2128	64.1851
2124	64.2168
2120	64.2092
2116	64.1993
2112	64.1792
2108	64.1226
2104	64.0791
2100	64.0695
2096	64.0663
2092	64.0608
2088	64.0658
2084	64.073
2080	64.0771
2076	64.1065
2072	64.1392
2068	64.1089
2064	64.043
2060	64.0255
2056	64.0741
2052	64.1086
2048	64.0619
2044	63.9924
2040	63.947
2036	63.9409
2032	63.9629
2028	63.9436
2024	63.9283
2020	63.9772
2016	64.0212
2012	64.0302
2008	63.9997
2004	63.9183
2000	63.8947
1996	63.9474
1992	63.935
1988	63.8608
1984	63.8136
1980	63.8294
1976	63.902
1972	63.9446
1968	63.9228
1964	63.8783
1960	63.8422
1956	63.8309
1952	63.8188
1948	63.8176
1944	63.8303
1940	63.8497
1936	63.8734
1932	63.8535
1928	63.8219
1924	63.8116
1920	63.7697
1916	63.7417
1912	63.7951
1908	63.8939
1904	63.9251
1900	63.8549
1896	63.8
1892	63.7918
1888	63.7938
1884	63.8113
1880	63.8368
1876	63.8291
1872	63.7918
1868	63.7789
1864	63.7859
1860	63.7718
1856	63.7358
1852	63.7373
1848	63.7604
1844	63.7481
1840	63.7373
1836	63.7399
1832	63.7459
1828	63.7699
1824	63.8005
1820	63.807
1816	63.7828
1812	63.7834
1808	63.7895
1804	63.731
1800	63.6531
1796	63.6168
1792	63.5878
1788	63.5628
1784	63.592
1780	63.6486
1776	63.681
1772	63.6754
1768	63.6435
1764	63.6101
1760	63.576
1756	63.5749
1752	63.612
1748	63.57
1744	63.4346
1740	63.3453
1736	63.3179
1732	63.3244
1728	63.3806
1724	63.4367
1720	63.4786
1716	63.4998
1712	63.5042
1708	63.5434
1704	63.5673
1700	63.525
1696	63.4925
1692	63.5038
1688	63.521
1684	63.5022
1680	63.453
1676	63.4488
1672	63.4733
1668	63.4662
1664	63.468
1660	63.5097
1656	63.5098
1652	63.4164
1648	63.373
1644	63.4421
1640	63.4692
1636	63.4419
1632	63.4605
1628	63.4759
1624	63.3913
1620	63.3235
1616	63.3256
1612	63.2614
1608	63.2076
1604	63.2674
1600	63.3259
1596	63.3395
1592	63.3976
1588	63.4446
1584	63.375
1580	63.2879
1576	63.2907
1572	63.3398
1568	63.3773
1564	63.3846
1560	63.3622
1556	63.3646
1552	63.3687
1548	63.2934
1544	63.1957
1540	63.1972
1536	63.2778
1532	63.3235
1528	63.347
1524	63.4033
1520	63.4334
1516	63.3929
1512	63.3554
1508	63.3763
1504	63.4157
1500	63.4284
1496	63.3805
1492	63.3237
1488	63.3051
1484	63.2742
1480	63.2284
1476	63.1722
1472	63.1293
1468	63.1482
1464	63.2043
1460	63.2133
1456	63.205
1452	63.1903
1448	63.1474
1444	63.1609
1440	63.2132
1436	63.2437
1432	63.2463
1428	63.1969
1424	63.1323
1420	63.1161
1416	63.1363
1412	63.1514
1408	63.1758
1404	63.1842
1400	63.1189
1396	63.0597
1392	63.0739
1388	63.0664
1384	63.0176
1380	63.0114
1376	63.0289
1372	63.04
1368	63.0491
1364	63.0766
1360	63.1348
1356	63.1529
1352	63.1231
1348	63.1287
1344	63.1878
1340	63.1908
1336	63.111
1332	63.0702
1328	63.1067
1324	63.1191
1320	63.0215
1316	62.9631
1312	63.008
1308	63.0078
1304	62.9879
1300	63.0319
1296	63.0416
1292	62.9457
1288	62.8539
1284	62.878
1280	62.9766
1276	63.0226
1272	62.9846
1268	62.9204
1264	62.8436
1260	62.828
1256	62.8865
1252	62.8742
1248	62.8258
1244	62.843
1240	62.8036
1236	62.7354
1232	62.7982
1228	62.862
1224	62.877
1220	62.8799
1216	62.843
1212	62.8512
1208	62.8458
1204	62.771
1200	62.7525
1196	62.8189
1192	62.8436
1188	62.7885
1184	62.7636
1180	62.7653
1176	62.7307
1172	62.6529
1168	62.5834
1164	62.6239
1160	62.7364
1156	62.7426
1152	62.6371
1148	62.5799
1144	62.6082
1140	62.6637
1136	62.7023
1132	62.7131
1128	62.7069
1124	62.6652
1120	62.6665
1116	62.7393
1112	62.6972
1108	62.5807
1104	62.5713
1100	62.565
1096	62.4888
1092	62.4232
1088	62.3837
1084	62.4152
1080	62.5461
1076	62.5857
1072	62.5262
1068	62.5647
1064	62.6623
1060	62.6605
1056	62.5635
1052	62.5269
1048	62.6115
1044	62.6706
1040	62.5727
1036	62.4397
1032	62.4613
1028	62.5611
1024	62.5771
1020	62.4684
1016	62.321
1012	62.3237
1008	62.4665
1004	62.5561
1000	62.5347
996	 62.4534
992	 62.4133
988	 62.4574
984	 62.5622
980	 62.6451
976	 62.6131
972	 62.5828
968	 62.6306
964	 62.6199
960	 62.5204
956	 62.4789
952	 62.5462
948	 62.5606
944	 62.4576
940	 62.4131
936	 62.503
932	 62.5753
928	 62.4964
924	 62.3563
920	 62.2766
916	 62.2497
912	 62.3051
908	 62.3946
904	 62.4607
900	 62.4866
896	 62.4815
892	 62.5172
888	 62.5021
884	 62.4285
880	 62.3869
876	 62.3719
872	 62.3983
868	 62.4093
864	 62.3599
860	 62.3434
856	 62.4639
852	 62.5715
848	 62.4705
844	 62.333
840	 62.292
836	 62.3054
832	 62.4354
828	 62.4991
824	 62.3244
820	 62.2449
816	 62.3999
812	 62.4528
808	 62.2983
804	 62.2781
800	 62.4382
796	 62.486
792	 62.4038
788	 62.3005
784	 62.2321
780	 62.1522
776	 62.0803
772	 62.1106
768	 62.1148
764	 62.0358
760	 62.0375
756	 62.077
752	 62.0604
748	 62.0783
744	 62.0712
740	 61.9692
736	 61.899
732	 61.8417
728	 61.8036
724	 61.8759
720	 61.9657
716	 61.96
712	 61.8735
708	 61.7834
704	 61.7486
700	 61.7629
696	 61.7886
692	 61.7987
688	 61.7359
684	 61.6087
680	 61.5445
676	 61.5023
672	 61.3683
668	 61.2671
664	 61.2859
660	 61.2622
656	 61.3187
652	 61.6304
648	 61.7376
644	 61.6126
640	 61.6229
636	 61.5606
632	 61.5132
628	 61.5223
624	 61.171
620	 60.9169
616	 61.4844
612	 62.1292
608	 61.7926
604	 61.1817
600	 61.3469
596	 61.5563
592	 61.0676
588	 60.3708
584	 59.864
580	 59.796
576	 60.1983
572	 60.8159
568	 61.7426
564	 62.1665
560	 61.688
556	 61.3212
552	 61.2553
548	 61.3222
544	 61.6561
540	 62.3263
536	 62.8032
532	 62.2071
528	 61.0608
524	 60.5977
520	 60.8891
516	 61.006
512	 60.765
508	 60.6711
504	 60.6143
500	 60.7386
496	 61.4149
492	 62.0527
488	 62.3205
484	 62.0126
480	 61.166
476	 60.6356
472	 60.6901
468	 61.3562
464	 61.6811
460	 60.8303
456	 60.1989
452	 60.5656
448	 60.6767
444	 59.9324
440	 59.6127
436	 60.6808
432	 62.1154
428	 62.4937
424	 61.8321
420	 61.2705
416	 61.4141
412	 61.2012
408	 60.1852
404	 58.6392
400	 57.545
396	 59.9383
392	 64.4085
388	 68.4376
384	 70.2672
380	 62.136
376	 51.4639
372	 56.2165
370	 64.9462