File: Bakgrunnsmateriale/MATLAB/FTIR/ftir_data/subAa/Mapping_121/BZ1503107-1_t48.asc
PE IR       SPECTRUM    SPECTRUM    ASCII       PEDS        1.60
  -1
BZ296D~1.ASC
17/04/07
17:12:54.00
17/04/07
17:13:20.00
tln
$BZ1503107-1_t0048$<tbV0>[5.2,-2.6,8.0,0.0,27,1,0]
27.028
64

2002,4.07
MIRTGS : RIGHTBACK : INTERNAL 2
MIR : ON : INTERNAL 2
OPTKBR

0.200000
8
8.000000
FILLER
RATIO
SPECTRUM
UNLOCKED 256

DOUBLE
64
COMBINED
1
0
0

0.002000
RATIO

1
0
TRUE
51149
0
LEFT NOT FITTED RIGHT NOT FITTED 0
NONE
NONE
15600
12
4.427000
51148
TRUE
1 0 8 72 0 0 0 0

15798

#HDR
-1
-1
#GR
µM
%T
2.38419e-05
0.0
2.000000
0.002000
12515
8
67.5172
42.36
#DATA
2.000000	 64.0107
2.018000	 65.2093
2.036000	 64.7187
2.054000	 64.7499
2.072000	 64.4395
2.090000	 64.4278
2.108000	 64.4868
2.126000	 64.5945
2.144000	 64.9694
2.162000	 64.9697
2.180000	 65.1345
2.198000	 65.9226
2.216000	 65.7562
2.234000	 65.662
2.252000	 58.0847
2.270000	 66.2477
2.288000	 65.8536
2.306000	 65.6024
2.324000	 65.1198
2.342000	 65.3275
2.360000	 65.0423
2.378000	 64.8629
2.396000	 64.6649
2.414000	 64.7452
2.432000	 64.8101
2.450000	 64.7803
2.468000	 65.0347
2.486000	 64.836
2.504000	 65.2382
2.522000	 64.9736
2.540000	 64.9091
2.558000	 65.3474
2.576000	 65.1024
2.594000	 65.1461
2.612000	 65.1486
2.630000	 65.0219
2.648000	 65.1093
2.666000	 65.0875
2.684000	 65.1824
2.702000	 65.0927
2.720000	 65.0158
2.738000	 65.1599
2.756000	 64.9337
2.774000	 65.1229
2.792000	 65.0965
2.810000	 65.0133
2.828000	 65.1813
2.846000	 65.3364
2.864000	 65.2629
2.882000	 65.1954
2.900000	 65.1313
2.918000	 64.9057
2.936000	 65.0583
2.954000	 65.0815
2.972000	 65.1687
2.990000	 64.9635
3.008000	 65.1399
3.026000	 65.0225
3.044000	 64.9379
3.062000	 64.967
3.080000	 64.9835
3.098000	 64.9757
3.116000	 65.1449
3.134000	 65.0396
3.152000	 65.1356
3.170000	 65.0752
3.188000	 65.0656
3.206000	 65.1031
3.224000	 65.1533
3.242000	 65.0125
3.260000	 65.0919
3.278000	 65.0307
3.296000	 64.9465
3.314000	 65.0761
3.332000	 65.0169
3.350000	 65.0848
3.368000	 64.8424
3.386000	 64.8389
3.404000	 64.9438
3.422000	 64.7525
3.440000	 64.8762
3.458000	 65.0075
3.476000	 64.9852
3.494000	 65.0958
3.512000	 64.9098
3.530000	 64.8993
3.548000	 64.9293
3.566000	 64.9646
3.584000	 64.9865
3.602000	 64.9498
3.620000	 64.9022
3.638000	 64.9504
3.656000	 64.999
3.674000	 64.9379
3.692000	 65.0568
3.710000	 64.959
3.728000	 65.0265
3.746000	 64.9935
3.764000	 64.9462
3.782000	 64.9194
3.800000	 64.9696
3.818000	 64.8616
3.836000	 64.8728
3.854000	 65.0117
3.872000	 64.9487
3.890000	 64.9106
3.908000	 64.831
3.926000	 65.0057
3.944000	 64.9942
3.962000	 64.914
3.980000	 65.0003
3.998000	 64.9619
4.016000	 64.8898
4.034000	 64.9291
4.052000	 64.8014
4.070000	 64.8074
4.088000	 64.8527
4.106000	 64.8593
4.124000	 64.9021
4.141999	 64.7747
4.160000	 64.7961
4.178000	 64.8827
4.196000	 64.8637
4.214000	 64.7674
4.232000	 64.6205
4.250000	 64.7166
4.268000	 64.8015
4.286000	 64.6692
4.304000	 64.7529
4.322000	 64.7692
4.340000	 64.7999
4.358000	 64.7926
4.375999	 64.8115
4.394000	 64.675
4.412000	 64.8365
4.430000	 64.8513
4.448000	 64.7241
4.466000	 64.761
4.484000	 64.7081
4.502000	 64.785
4.520000	 64.7582
4.538000	 64.7757
4.556000	 64.7199
4.574000	 64.7024
4.592000	 64.7889
4.609999	 64.6481
4.628000	 64.77
4.646000	 64.8484
4.664000	 64.7826
4.682000	 64.6738
4.700000	 64.6709
4.718000	 64.7293
4.736000	 64.7186
4.754000	 64.7853
4.772000	 64.7984
4.790000	 64.6828
4.808000	 64.7027
4.826000	 64.7457
4.843999	 64.803
4.862000	 64.6696
4.880000	 64.7069
4.898000	 64.6908
4.916000	 64.6552
4.934000	 64.6858
4.952000	 64.6377
4.970000	 64.7044
4.988000	 64.7479
5.006000	 64.7328
5.024000	 64.7835
5.042000	 64.7614
5.060000	 64.6906
5.077999	 64.6502
5.096000	 64.6702
5.114000	 64.5717
5.132000	 64.581
5.150000	 64.6287
5.168000	 64.7355
5.186000	 64.7099
5.204000	 64.6548
5.222000	 64.5667
5.240000	 64.5557
5.258000	 64.5523
5.276000	 64.5773
5.294000	 64.5397
5.312000	 64.6303
5.330000	 64.6101
5.348000	 64.6348
5.366000	 64.6551
5.384000	 64.6421
5.402000	 64.5355
5.420000	 64.53
5.438000	 64.6407
5.456000	 64.5951
5.474000	 64.6014
5.492000	 64.5829
5.510000	 64.5178
5.528000	 64.5262
5.546000	 64.5149
5.564000	 64.546
5.582000	 64.5544
5.600000	 64.4489
5.618000	 64.4921
5.636000	 64.5496
5.654000	 64.4906
5.672000	 64.4189
5.690000	 64.4231
5.708000	 64.4298
5.726000	 64.4141
5.744000	 64.3629
5.762000	 64.3289
5.780000	 64.3691
5.798000	 64.3876
5.816000	 64.4226
5.834000	 64.4335
5.852000	 64.3727
5.870000	 64.3896
5.888000	 64.4029
5.906000	 64.3819
5.923999	 64.3371
5.942000	 64.3106
5.960000	 64.3157
5.978000	 64.3536
5.996000	 64.4082
6.014000	 64.4692
6.032000	 64.4714
6.050000	 64.4005
6.068000	 64.3716
6.086000	 64.344
6.104000	 64.2974
6.122000	 64.3466
6.140000	 64.3959
6.158000	 64.3387
6.176000	 64.2332
6.194000	 64.2685
6.212000	 64.3902
6.230000	 64.4371
6.248000	 64.3491
6.266000	 64.2499
6.284000	 64.2505
6.302000	 64.2424
6.320000	 64.2031
6.338000	 64.1368
6.356000	 64.1441
6.374000	 64.2481
6.392000	 64.3163
6.410000	 64.2962
6.428000	 64.2844
6.446000	 64.2973
6.464000	 64.2612
6.482000	 64.2298
6.500000	 64.2339
6.518000	 64.2075
6.536000	 64.2008
6.554000	 64.2548
6.572000	 64.3368
6.590000	 64.3846
6.608000	 64.3363
6.626000	 64.2589
6.644000	 64.2082
6.662000	 64.1553
6.680000	 64.1517
6.698000	 64.2085
6.716000	 64.2234
6.734000	 64.2284
6.752000	 64.2517
6.770000	 64.2363
6.788000	 64.1838
6.806000	 64.141
6.824000	 64.1317
6.842000	 64.1463
6.860000	 64.1633
6.878000	 64.2002
6.896000	 64.2685
6.914000	 64.2796
6.932000	 64.1912
6.950000	 64.1155
6.968000	 64.1252
6.986000	 64.1561
7.004000	 64.1671
7.022000	 64.2001
7.040000	 64.2466
7.058000	 64.2663
7.076000	 64.2577
7.094000	 64.2092
7.112000	 64.1597
7.130000	 64.1567
7.148000	 64.134
7.166000	 64.0748
7.184000	 64.0528
7.202000	 64.0571
7.220000	 64.0513
7.238000	 64.0424
7.256000	 64.0279
7.274000	 64.0328
7.292000	 64.0826
7.310000	 64.1138
7.328000	 64.0864
7.346000	 64.0824
7.364000	 64.1539
7.382000	 64.2091
7.400000	 64.1607
7.418000	 64.0761
7.436000	 64.0626
7.454000	 64.112
7.472000	 64.1587
7.490000	 64.19
7.508000	 64.2168
7.526000	 64.2187
7.544000	 64.1735
7.562000	 64.1043
7.580000	 64.0619
7.598000	 64.0614
7.616000	 64.0602
7.634000	 64.024
7.652000	 63.9837
7.670000	 64.008
7.688000	 64.1163
7.706000	 64.228
7.724000	 64.2404
7.742000	 64.1621
7.760000	 64.0987
7.778000	 64.1034
7.796000	 64.1345
7.814000	 64.1506
7.832000	 64.1519
7.850000	 64.1488
7.868000	 64.1579
7.886000	 64.1843
7.904000	 64.1929
7.922000	 64.1472
7.940000	 64.0691
7.958000	 64.0076
7.976000	 63.9783
7.994000	 63.9702
8.012000	 63.9761
8.030000	 63.982
8.048000	 63.9623
8.065999	 63.9164
8.084000	 63.8789
8.102000	 63.8734
8.120000	 63.8883
8.138000	 63.9067
8.155999	 63.9276
8.173999	 63.9494
8.192000	 63.9508
8.210000	 63.91
8.228000	 63.8457
8.246000	 63.8161
8.263999	 63.8563
8.282000	 63.9331
8.300000	 63.9868
8.318000	 63.993
8.336000	 63.9602
8.353999	 63.9077
8.372000	 63.8635
8.390000	 63.8517
8.408000	 63.8682
8.426000	 63.8882
8.443999	 63.8983
8.462000	 63.9008
8.480000	 63.8991
8.498000	 63.9015
8.516000	 63.921
8.533999	 63.9544
8.552000	 63.9764
8.570000	 63.9562
8.588000	 63.8834
8.606000	 63.7844
8.624000	 63.7051
8.641999	 63.6713
8.660000	 63.6803
8.678000	 63.713
8.696000	 63.7422
8.714000	 63.7518
8.731999	 63.7576
8.750000	 63.7902
8.768000	 63.8566
8.786000	 63.9308
8.804000	 63.9733
8.821999	 63.9602
8.840000	 63.9017
8.858000	 63.8362
8.876000	 63.7997
8.894000	 63.8001
8.911999	 63.8156
8.930000	 63.8187
8.948000	 63.8034
8.966000	 63.7931
8.984000	 63.8198
9.001999	 63.8937
9.020000	 63.9916
9.038000	 64.0733
9.056000	 64.1128
9.074000	 64.1097
9.092000	 64.0799
9.109999	 64.036
9.128000	 63.9855
9.146000	 63.9401
9.164000	 63.9174
9.182000	 63.9254
9.199999	 63.9512
9.218000	 63.968
9.236000	 63.9529
9.254000	 63.9
9.272000	 63.8242
9.289999	 63.7524
9.308000	 63.7075
9.326000	 63.6943
9.344000	 63.7001
9.362000	 63.7098
9.379999	 63.7211
9.398000	 63.7433
9.416000	 63.7788
9.434000	 63.8119
9.452000	 63.82
9.469999	 63.7967
9.488000	 63.7625
9.506000	 63.7497
9.524000	 63.7754
9.542000	 63.8265
9.560000	 63.87
9.577999	 63.8787
9.596000	 63.8494
9.614000	 63.8012
9.632000	 63.7591
9.650000	 63.7371
9.667999	 63.7351
9.686000	 63.7459
9.704000	 63.7639
9.722000	 63.7867
9.740000	 63.8103
9.757999	 63.8264
9.776000	 63.8253
9.794000	 63.8023
9.812000	 63.7626
9.830000	 63.7193
9.847999	 63.688
9.866000	 63.6806
9.884000	 63.7011
9.902000	 63.7437
9.920000	 63.7933
9.937999	 63.8325
9.956000	 63.8506
9.974000	 63.8485
9.992000	 63.837
10.01	63.8279
10.028	63.8278
10.046	63.8334
10.064	63.8363
10.082	63.8312
10.1	63.8236
10.118	63.8312
10.136	63.8752
10.154	63.9655
10.172	64.0898
10.19	64.2124
10.208	64.2917
10.226	64.3027
10.244	64.2481
10.262	64.1556
10.28	64.0574
10.298	63.9749
10.316	63.9136
10.334	63.8691
10.352	63.8363
10.37	63.8141
10.388	63.8024
10.406	63.799
10.424	63.8005
10.442	63.8057
10.46	63.8178
10.478	63.8411
10.496	63.8741
10.514	63.9076
10.532	63.9254
10.55	63.9156
10.568	63.8759
10.586	63.816
10.604	63.7516
10.622	63.6977
10.64	63.6614
10.658	63.6434
10.676	63.6409
10.694	63.6513
10.712	63.6743
10.73	63.711
10.748	63.7605
10.766	63.817
10.784	63.8703
10.802	63.9065
10.82	63.9139
10.838	63.8869
10.856	63.8304
10.874	63.759
10.892	63.6912
10.91	63.6436
10.928	63.6251
10.946	63.6355
10.964	63.6683
10.982	63.7132
11	63.7598
11.018	63.7985
11.036	63.8214
11.054	63.823
11.072	63.8028
11.09	63.7668
11.108	63.7246
11.126	63.6872
11.144	63.6615
11.162	63.6477
11.18	63.6422
11.198	63.6419
11.216	63.6478
11.234	63.6651
11.252	63.6995
11.27	63.7523
11.288	63.8167
11.306	63.8812
11.324	63.9334
11.342	63.9666
11.36	63.9827
11.378	63.9894
11.396	63.9943
11.414	63.9995
11.432	63.9986
11.45	63.9812
11.468	63.9383
11.486	63.8695
11.504	63.7847
11.522	63.7022
11.54	63.6405
11.558	63.6119
11.576	63.6186
11.594	63.6535
11.612	63.7038
11.63	63.7567
11.648	63.8042
11.666	63.843
11.684	63.8739
11.702	63.8994
11.72	63.9218
11.738	63.9428
11.756	63.964
11.774	63.9868
11.792	64.0123
11.81	64.0399
11.828	64.0672
11.846	64.089
11.864	64.0986
11.882	64.091
11.9	64.0641
11.918	64.0207
11.936	63.9687
11.954	63.9176
11.972	63.8779
11.99	63.8569
12.008	63.8574
12.026	63.8776
12.044	63.9112
12.062	63.9495
12.08	63.9833
12.098	64.0052
12.116	64.0115
12.134	64.0036
12.152	63.9868
12.17	63.968
12.188	63.9528
12.206	63.9439
12.224	63.9402
12.242	63.9384
12.26	63.9346
12.278	63.9257
12.296	63.911
12.314	63.8914
12.332	63.8695
12.35	63.848
12.368	63.8293
12.386	63.8145
12.404	63.8034
12.422	63.7943
12.44	63.785
12.458	63.7741
12.476	63.7617
12.494	63.749
12.512	63.7391
12.53	63.7354
12.548	63.7406
12.566	63.7552
12.584	63.7776
12.602	63.804
12.62	63.8294
12.638	63.849
12.656	63.8597
12.674	63.861
12.692	63.8549
12.71	63.8449
12.728	63.8348
12.746	63.8278
12.764	63.826
12.782	63.8297
12.8	63.838
12.818	63.8492
12.836	63.8609
12.854	63.8702
12.872	63.8743
12.89	63.8706
12.908	63.858
12.926	63.8366
12.944	63.8085
12.962	63.7768
12.98	63.7455
12.998	63.7183
13.016	63.6974
13.034	63.6834
13.052	63.6752
13.07	63.6699
13.088	63.6648
13.106	63.6579
13.124	63.6488
13.142	63.6386
13.16	63.6297
13.178	63.6246
13.196	63.6249
13.214	63.6306
13.232	63.64
13.25	63.6497
13.268	63.6562
13.286	63.6558
13.304	63.6464
13.322	63.6274
13.34	63.6004
13.358	63.5683
13.376	63.5348
13.394	63.5037
13.412	63.4776
13.43	63.4574
13.448	63.4425
13.466	63.4308
13.484	63.4198
13.502	63.4071
13.52	63.3914
13.538	63.373
13.556	63.3537
13.574	63.3361
13.592	63.3235
13.61	63.3185
13.628	63.3232
13.646	63.3381
13.664	63.3624
13.682	63.3937
13.7	63.4291
13.718	63.4651
13.736	63.4985
13.754	63.5266
13.772	63.5478
13.79	63.5622
13.808	63.571
13.826	63.5766
13.844	63.5817
13.862	63.589
13.88	63.5998
13.898	63.6149
13.916	63.6335
13.934	63.654
13.952	63.6739
13.97	63.691
13.988	63.7032
14.006	63.7095
14.024	63.7095
14.042	63.704
14.06	63.6947
14.078	63.6833
14.096	63.6713
14.114	63.6602
14.132	63.6506
14.15	63.6423
14.168	63.6344
14.186	63.625
14.204	63.6121
14.222	63.5932
14.24	63.5668
14.258	63.532
14.276	63.4891
14.294	63.4397
14.312	63.3865
14.33	63.3331
14.348	63.284
14.366	63.2435
14.384	63.2153
14.402	63.2019
14.42	63.204
14.438	63.2206
14.456	63.2492
14.474	63.2857
14.492	63.3252
14.51	63.3628
14.528	63.3947
14.546	63.4189
14.564	63.4355
14.582	63.4465
14.6	63.4553
14.618	63.4659
14.636	63.4826
14.654	63.5073
14.672	63.5403
14.69	63.5793
14.708	63.6202
14.726	63.6574
14.744	63.6843
14.762	63.6955
14.78	63.688
14.798	63.661
14.816	63.6167
14.834	63.5597
14.852	63.4971
14.87	63.4362
14.888	63.3838
14.906	63.3451
14.924	63.3239
14.942	63.3214
14.96	63.3356
14.978	63.3636
14.996	63.4014
15.014	63.4449
15.032	63.4902
15.05	63.5348
15.068	63.5774
15.086	63.6173
15.104	63.6545
15.122	63.6892
15.14	63.7211
15.158	63.7497
15.176	63.7739
15.194	63.7922
15.212	63.8026
15.23	63.8044
15.248	63.7971
15.266	63.781
15.284	63.7579
15.302	63.7302
15.32	63.6996
15.338	63.6676
15.356	63.6348
15.374	63.6005
15.392	63.563
15.41	63.5205
15.428	63.4701
15.446	63.4094
15.464	63.3375
15.482	63.255
15.5	63.1638
15.518	63.0686
15.536	62.9752
15.554	62.8893
15.572	62.817
15.59	62.765
15.608	62.7363
15.626	62.7328
15.644	62.7549
15.662	62.7992
15.68	62.8612
15.698	62.9358
15.716	63.0158
15.734	63.0942
15.752	63.1659
15.77	63.2264
15.788	63.2716
15.806	63.301
15.824	63.3146
15.842	63.3138
15.86	63.3023
15.878	63.284
15.896	63.2631
15.914	63.2462
15.932	63.2384
15.95	63.244
15.968	63.267
15.986	63.3109
16.004	63.3762
16.022	63.463
16.04	63.5688
16.058	63.689
16.076	63.8193
16.094	63.9521
16.112	64.0796
16.13	64.196
16.148	64.2942
16.166	64.3683
16.184	64.4154
16.202	64.4327
16.22	64.4206
16.238	64.3815
16.256	64.3185
16.274	64.2384
16.292	64.147
16.31	64.0494
16.328	63.9541
16.346	63.8659
16.364	63.789
16.382	63.728
16.4	63.6843
16.418	63.6587
16.436	63.6507
16.454	63.6579
16.472	63.6785
16.49	63.7083
16.508	63.7437
16.526	63.7817
16.544	63.8169
16.562	63.846
16.58	63.866
16.598	63.873
16.616	63.8661
16.634	63.844
16.652	63.8062
16.67	63.7539
16.688	63.6881
16.706	63.6117
16.724	63.5269
16.742	63.437
16.76	63.3466
16.778	63.2582
16.796	63.1766
16.814	63.1062
16.832	63.0495
16.85	63.011
16.868	62.9927
16.886	62.9962
16.904	63.0227
16.922	63.0713
16.94	63.1413
16.958	63.2291
16.976	63.3325
16.994	63.4458
17.012	63.5641
17.03	63.6841
17.048	63.7988
17.066	63.9058
17.084	64.0008
17.102	64.0808
17.12	64.1446
17.138	64.1903
17.156	64.2181
17.174	64.2278
17.192	64.2203
17.21	64.1964
17.228	64.1574
17.246	64.1042
17.264	64.0377
17.282	63.9593
17.3	63.87
17.318	63.7716
17.336	63.6668
17.354	63.5568
17.372	63.4471
17.39	63.3396
17.408	63.2396
17.426	63.1519
17.444	63.0795
17.462	63.0287
17.48	63.0004
17.498	62.9984
17.516	63.0218
17.534	63.0712
17.552	63.142
17.57	63.2327
17.588	63.3356
17.606	63.447
17.624	63.5599
17.642	63.6678
17.66	63.7672
17.678	63.8519
17.696	63.9208
17.714	63.971
17.732	64.0033
17.75	64.0175
17.768	64.017
17.786	64.0026
17.804	63.9791
17.822	63.9478
17.84	63.9127
17.858	63.8747
17.876	63.836
17.894	63.7965
17.912	63.7566
17.93	63.7148
17.948	63.6709
17.966	63.6225
17.984	63.5694
18.002	63.5102
18.02	63.4454
18.038	63.3744
18.056	63.2997
18.074	63.2216
18.092	63.1448
18.11	63.0703
18.128	63.0041
18.146	62.9476
18.164	62.9059
18.182	62.8803
18.2	62.8738
18.218	62.8864
18.236	62.919
18.254	62.9693
18.272	63.0372
18.29	63.1172
18.308	63.2087
18.326	63.305
18.344	63.4051
18.362	63.5021
18.38	63.5952
18.398	63.6796
18.416	63.7547
18.434	63.818
18.452	63.8703
18.47	63.9111
18.488	63.9425
18.506	63.9648
18.524	63.9815
18.542	63.9932
18.56	64.0033
18.578	64.0125
18.596	64.0231
18.614	64.0355
18.632	64.051
18.65	64.0696
18.668	64.0905
18.686	64.1136
18.704	64.1373
18.722	64.1613
18.74	64.1829
18.758	64.202
18.776	64.2166
18.794	64.2264
18.812	64.2298
18.83	64.227
18.848	64.2175
18.866	64.2016
18.884	64.1794
18.902	64.1513
18.92	64.118
18.938	64.08
18.956	64.038
18.974	63.9926
18.992	63.9445
19.01	63.8941
19.028	63.8421
19.046	63.7887
19.064	63.7344
19.082	63.6798
19.1	63.6253
19.118	63.5715
19.136	63.5193
19.154	63.4693
19.172	63.4231
19.19	63.3812
19.208	63.3455
19.226	63.3163
19.244	63.2961
19.262	63.2846
19.28	63.2838
19.298	63.2934
19.316	63.3139
19.334	63.3451
19.352	63.3856
19.37	63.4354
19.388	63.491
19.406	63.5527
19.424	63.6155
19.442	63.6796
19.46	63.7395
19.478	63.7951
19.496	63.8421
19.514	63.8794
19.532	63.9049
19.55	63.9165
19.568	63.9145
19.586	63.8976
19.604	63.8672
19.622	63.8243
19.64	63.7699
19.658	63.7079
19.676	63.6383
19.694	63.5672
19.712	63.4939
19.73	63.4247
19.748	63.3594
19.766	63.3024
19.784	63.2548
19.802	63.2179
19.82	63.1934
19.838	63.1806
19.856	63.1801
19.874	63.191
19.892	63.2113
19.91	63.2411
19.928	63.2762
19.946	63.3172
19.964	63.3596
19.982	63.4031
20	63.445
20.018	63.4837
20.036	63.5184
20.054	63.5467
20.072	63.5691
20.09	63.5841
20.108	63.592
20.126	63.593
20.144	63.5868
20.162	63.5749
20.18	63.5575
20.198	63.5357
20.216	63.511
20.234	63.4834
20.252	63.4554
20.27	63.4265
20.288	63.3994
20.306	63.3741
20.324	63.352
20.342	63.334
20.36	63.3203
20.378	63.312
20.396	63.3091
20.414	63.3115
20.432	63.3195
20.45	63.3326
20.468	63.3509
20.486	63.3737
20.504	63.3999
20.522	63.4298
20.54	63.4609
20.558	63.4938
20.576	63.5262
20.594	63.5575
20.612	63.587
20.63	63.6123
20.648	63.634
20.666	63.6498
20.684	63.66
20.702	63.6636
20.72	63.6598
20.738	63.6491
20.756	63.6312
20.774	63.6061
20.792	63.5751
20.81	63.5378
20.828	63.4955
20.846	63.4499
20.864	63.4007
20.882	63.3509
20.9	63.2999
20.918	63.25
20.936	63.2028
20.954	63.1582
20.972	63.1186
20.99	63.0838
21.008	63.055
21.026	63.0333
21.044	63.0183
21.062	63.011
21.08	63.0114
21.098	63.0191
21.116	63.0343
21.134	63.0564
21.152	63.0846
21.17	63.1192
21.188	63.1583
21.206	63.2019
21.224	63.2492
21.242	63.2987
21.26	63.3509
21.278	63.4037
21.296	63.4569
21.314	63.5101
21.332	63.5617
21.35	63.6122
21.368	63.6609
21.386	63.7073
21.404	63.7519
21.422	63.7945
21.44	63.8351
21.458	63.8744
21.476	63.9125
21.494	63.9497
21.512	63.9867
21.53	64.0235
21.548	64.0606
21.566	64.0984
21.584	64.1367
21.602	64.1757
21.62	64.2156
21.638	64.2558
21.656	64.2962
21.674	64.3368
21.692	64.3766
21.71	64.4154
21.728	64.4529
21.746	64.4878
21.764	64.5205
21.782	64.5501
21.8	64.5757
21.818	64.5978
21.836	64.616
21.854	64.6303
21.872	64.6408
21.89	64.6481
21.908	64.6518
21.926	64.653
21.944	64.6523
21.962	64.6495
21.98	64.6461
21.998	64.642
22.016	64.6377
22.034	64.6347
22.052	64.6328
22.07	64.6321
22.088	64.6335
22.106	64.6364
22.124	64.6408
22.142	64.647
22.16	64.6544
22.178	64.6614
22.196	64.6689
22.214	64.6753
22.232	64.679
22.25	64.681
22.268	64.6788
22.286	64.6712
22.304	64.6588
22.322	64.6391
22.34	64.612
22.358	64.5774
22.376	64.5336
22.394	64.4808
22.412	64.4191
22.43	64.3481
22.448	64.2677
22.466	64.1791
22.484	64.0827
22.502	63.9782
22.52	63.8682
22.538	63.7534
22.556	63.6334
22.574	63.5121
22.592	63.3893
22.61	63.2656
22.628	63.1448
22.646	63.0262
22.664	62.9109
22.682	62.8022
22.7	62.699
22.718	62.6025
22.736	62.515
22.754	62.4357
22.772	62.3651
22.79	62.3041
22.808	62.2523
22.826	62.2096
22.844	62.1763
22.862	62.1522
22.88	62.1363
22.898	62.1284
22.916	62.1285
22.934	62.1355
22.952	62.149
22.97	62.1692
22.988	62.1949
23.006	62.2256
23.024	62.2617
23.042	62.3022
23.06	62.3473
23.078	62.3968
23.096	62.4499
23.114	62.5064
23.132	62.5664
23.15	62.6295
23.168	62.6958
23.186	62.7652
23.204	62.8369
23.222	62.9113
23.24	62.988
23.258	63.0666
23.276	63.1473
23.294	63.2297
23.312	63.3132
23.33	63.3979
23.348	63.4836
23.366	63.5691
23.384	63.6548
23.402	63.7402
23.42	63.8239
23.438	63.906
23.456	63.9864
23.474	64.0634
23.492	64.1367
23.51	64.2067
23.528	64.272
23.546	64.3324
23.564	64.3883
23.582	64.4381
23.6	64.4816
23.618	64.5191
23.636	64.5494
23.654	64.5718
23.672	64.5869
23.69	64.594
23.708	64.5925
23.726	64.5828
23.744	64.5649
23.762	64.5392
23.78	64.5052
23.798	64.4638
23.816	64.4155
23.834	64.3598
23.852	64.2977
23.87	64.2305
23.888	64.1575
23.906	64.0795
23.924	63.9985
23.942	63.9141
23.96	63.8265
23.978	63.7379
23.996	63.6489
24.014	63.5587
24.032	63.4694
24.05	63.3821
24.068	63.2957
24.086	63.2118
24.104	63.1318
24.122	63.0548
24.14	62.9817
24.158	62.9138
24.176	62.8505
24.194	62.7923
24.212	62.7406
24.23	62.6955
24.248	62.6567
24.266	62.6249
24.284	62.6004
24.302	62.5828
24.32	62.5727
24.338	62.5708
24.356	62.5766
24.374	62.5906
24.392	62.6136
24.41	62.6453
24.428	62.6857
24.446	62.7361
24.464	62.7968
24.482	62.8673
24.5	62.9482
24.518	63.0401
24.536	63.1428
24.554	63.2562
24.572	63.3804
24.59	63.5155
24.608	63.6613
24.626	63.8171
24.644	63.983
24.662	64.1596
24.68	64.3444
24.698	64.5355
24.716	64.7348
24.734	64.9403
24.752	65.1485
24.77	65.3604
24.788	65.5762
24.806	65.7901
24.824	65.9986
24.842	66.206
24.86	66.4071
24.878	66.5955
24.896	66.7746
24.914	66.9429
24.932	67.093
24.95	67.2212
24.968	67.3324
24.986	67.4206
25.004	67.479
25.022	67.5109
25.04	67.5153
25.058	67.487
25.076	67.4234
25.094	67.3273
25.112	67.1978
25.13	67.0334
25.148	66.8335
25.166	66.5999
25.184	66.335
25.202	66.0389
25.22	65.7096
25.238	65.353
25.256	64.9753
25.274	64.5716
25.292	64.1449
25.31	63.7043
25.328	63.2539
25.346	62.7871
25.364	62.3124
25.382	61.8398
25.4	61.3656
25.418	60.8896
25.436	60.422
25.454	59.9703
25.472	59.5267
25.49	59.0973
25.508	58.6908
25.526	58.309
25.544	57.9478
25.562	57.6119
25.58	57.3063
25.598	57.0296
25.616	56.7808
25.634	56.5603
25.652	56.3687
25.67	56.2064
25.688	56.0713
25.706	55.9609
25.724	55.8765
25.742	55.8183
25.76	55.7815
25.778	55.7619
25.796	55.7645
25.814	55.7856
25.832	55.8168
25.85	55.8531
25.868	55.902
25.886	55.9562
25.904	56.0063
25.922	56.051
25.94	56.0956
25.958	56.1321
25.976	56.1525
25.994	56.1592
26.012	56.1535
26.03	56.1307
26.048	56.0869
26.066	56.0246
26.084	55.9435
26.102	55.8418
26.12	55.7177
26.138	55.5711
26.156	55.4047
26.174	55.2213
26.192	55.0203
26.21	54.7992
26.228	54.5648
26.246	54.3246
26.264	54.0763
26.282	53.8176
26.3	53.5577
26.318	53.3059
26.336	53.0567
26.354	52.8104
26.372	52.5765
26.39	52.3635
26.408	52.1659
26.426	51.9845
26.444	51.8251
26.462	51.6926
26.48	51.584
26.498	51.4991
26.516	51.4391
26.534	51.4058
26.552	51.4009
26.57	51.4201
26.588	51.4582
26.606	51.5134
26.624	51.5922
26.642	51.6867
26.66	51.787
26.678	51.8891
26.696	52.0031
26.714	52.1184
26.732	52.2223
26.75	52.3097
26.768	52.3916
26.786	52.4583
26.804	52.498
26.822	52.5055
26.84	52.4904
26.858	52.446
26.876	52.3645
26.894	52.2417
26.912	52.0835
26.93	51.8877
26.948	51.6513
26.966	51.3492
26.984	50.9491
27.002	50.5383
27.02	50.2117
27.028	50.1273