File: Bakgrunnsmateriale/MATLAB/FTIR/ftir_data/subAa/Mapping_121/BZ1503107-1_t52.asc
PE IR       SPECTRUM    SPECTRUM    ASCII       PEDS        1.60
  -1
BZ2153~1.ASC
17/04/07
17:31:23.00
17/04/07
17:31:49.00
tln
$BZ1503107-1_t0052$<tbV0>[-5.2,-2.6,8.0,0.0,27,1,0]
27.028
64

2002,4.07
MIRTGS : RIGHTBACK : INTERNAL 2
MIR : ON : INTERNAL 2
OPTKBR

0.200000
8
8.000000
FILLER
RATIO
SPECTRUM
UNLOCKED 256

DOUBLE
64
COMBINED
1
0
0

0.002000
RATIO

1
0
TRUE
51149
0
LEFT NOT FITTED RIGHT NOT FITTED 0
NONE
NONE
15600
12
4.427000
51148
TRUE
1 0 8 72 0 0 0 0

15798

#HDR
-1
-1
#GR
µM
%T
2.38419e-05
0.0
2.000000
0.002000
12515
8
73.1848
54.0913
#DATA
2.000000	 66.481
2.018000	 64.9706
2.036000	 64.6042
2.054000	 64.1391
2.072000	 64.6904
2.090000	 65.0531
2.108000	 64.9759
2.126000	 64.5812
2.144000	 64.6376
2.162000	 64.6606
2.180000	 64.7949
2.198000	 65.2708
2.216000	 64.9089
2.234000	 64.1674
2.252000	 73.1848
2.270000	 64.3777
2.288000	 64.402
2.306000	 64.7715
2.324000	 64.8844
2.342000	 65.0477
2.360000	 64.9689
2.378000	 65.0205
2.396000	 65.0036
2.414000	 65.1131
2.432000	 65.1719
2.450000	 64.9351
2.468000	 65.0463
2.486000	 65.2134
2.504000	 65.1232
2.522000	 64.9738
2.540000	 65.0934
2.558000	 65.1864
2.576000	 65.2568
2.594000	 64.9806
2.612000	 65.4029
2.630000	 64.9329
2.648000	 65.1336
2.666000	 64.9848
2.684000	 65.0549
2.702000	 65.1053
2.720000	 65.2114
2.738000	 65.1512
2.756000	 65.2977
2.774000	 65.1713
2.792000	 64.9392
2.810000	 65.0919
2.828000	 65.1938
2.846000	 65.3962
2.864000	 65.3204
2.882000	 65.0413
2.900000	 65.1909
2.918000	 64.9245
2.936000	 64.959
2.954000	 65.1397
2.972000	 65.2287
2.990000	 65.0481
3.008000	 65.1801
3.026000	 65.0128
3.044000	 65.1206
3.062000	 65.0889
3.080000	 65.0715
3.098000	 64.8501
3.116000	 64.9353
3.134000	 65.1057
3.152000	 64.9303
3.170000	 64.7711
3.188000	 65.0654
3.206000	 65.0178
3.224000	 64.9588
3.242000	 64.8134
3.260000	 64.93
3.278000	 64.9375
3.296000	 64.9874
3.314000	 64.9734
3.332000	 65.0769
3.350000	 64.9521
3.368000	 64.8326
3.386000	 64.9382
3.404000	 64.8578
3.422000	 64.7163
3.440000	 64.7593
3.458000	 64.9285
3.476000	 64.7388
3.494000	 65.0379
3.512000	 65.025
3.530000	 64.9381
3.548000	 64.9412
3.566000	 64.8953
3.584000	 65.056
3.602000	 64.9488
3.620000	 64.8532
3.638000	 64.9152
3.656000	 64.9577
3.674000	 64.9197
3.692000	 65.0731
3.710000	 64.9751
3.728000	 64.9154
3.746000	 65.0118
3.764000	 64.9446
3.782000	 64.8813
3.800000	 64.9502
3.818000	 64.8662
3.836000	 64.8597
3.854000	 64.8957
3.872000	 64.815
3.890000	 64.9743
3.908000	 64.7444
3.926000	 64.7891
3.944000	 64.9294
3.962000	 64.938
3.980000	 65.0722
3.998000	 64.792
4.016000	 64.8245
4.034000	 64.9614
4.052000	 64.7254
4.070000	 64.9348
4.088000	 64.9402
4.106000	 64.7633
4.124000	 64.843
4.141999	 64.8142
4.160000	 64.8475
4.178000	 64.8923
4.196000	 64.8218
4.214000	 64.7665
4.232000	 64.7476
4.250000	 64.7412
4.268000	 64.9001
4.286000	 64.7411
4.304000	 64.8237
4.322000	 64.7426
4.340000	 64.6944
4.358000	 64.7249
4.375999	 64.8572
4.394000	 64.7664
4.412000	 64.7165
4.430000	 64.7822
4.448000	 64.7374
4.466000	 64.6386
4.484000	 64.5846
4.502000	 64.6396
4.520000	 64.7154
4.538000	 64.6944
4.556000	 64.7419
4.574000	 64.6954
4.592000	 64.7032
4.609999	 64.5641
4.628000	 64.6826
4.646000	 64.7652
4.664000	 64.7975
4.682000	 64.7681
4.700000	 64.676
4.718000	 64.7421
4.736000	 64.6604
4.754000	 64.7021
4.772000	 64.7114
4.790000	 64.6652
4.808000	 64.7271
4.826000	 64.5519
4.843999	 64.6435
4.862000	 64.6695
4.880000	 64.5869
4.898000	 64.575
4.916000	 64.6573
4.934000	 64.6067
4.952000	 64.557
4.970000	 64.6351
4.988000	 64.6416
5.006000	 64.5881
5.024000	 64.5351
5.042000	 64.6826
5.060000	 64.5912
5.077999	 64.5467
5.096000	 64.5466
5.114000	 64.4169
5.132000	 64.5413
5.150000	 64.5773
5.168000	 64.6244
5.186000	 64.5978
5.204000	 64.5034
5.222000	 64.4825
5.240000	 64.5182
5.258000	 64.59
5.276000	 64.4963
5.294000	 64.5002
5.312000	 64.5487
5.330000	 64.4576
5.348000	 64.4576
5.366000	 64.593
5.384000	 64.6904
5.402000	 64.7055
5.420000	 64.619
5.438000	 64.5873
5.456000	 64.5395
5.474000	 64.5885
5.492000	 64.534
5.510000	 64.4381
5.528000	 64.4621
5.546000	 64.4622
5.564000	 64.4713
5.582000	 64.5061
5.600000	 64.4554
5.618000	 64.4584
5.636000	 64.4646
5.654000	 64.4688
5.672000	 64.4018
5.690000	 64.3553
5.708000	 64.3649
5.726000	 64.3401
5.744000	 64.2493
5.762000	 64.126
5.780000	 64.149
5.798000	 64.2498
5.816000	 64.2285
5.834000	 64.2455
5.852000	 64.3184
5.870000	 64.3335
5.888000	 64.2469
5.906000	 64.236
5.923999	 64.2228
5.942000	 64.1852
5.960000	 64.2117
5.978000	 64.2328
5.996000	 64.2568
6.014000	 64.3322
6.032000	 64.3345
6.050000	 64.3125
6.068000	 64.3324
6.086000	 64.2776
6.104000	 64.1824
6.122000	 64.2178
6.140000	 64.3384
6.158000	 64.3294
6.176000	 64.2233
6.194000	 64.244
6.212000	 64.2333
6.230000	 64.1701
6.248000	 64.1373
6.266000	 64.1424
6.284000	 64.1942
6.302000	 64.2403
6.320000	 64.2227
6.338000	 64.1337
6.356000	 64.0868
6.374000	 64.0741
6.392000	 64.1003
6.410000	 64.2202
6.428000	 64.2977
6.446000	 64.229
6.464000	 64.137
6.482000	 64.0913
6.500000	 64.1013
6.518000	 64.1196
6.536000	 64.1662
6.554000	 64.2174
6.572000	 64.2288
6.590000	 64.2328
6.608000	 64.217
6.626000	 64.1992
6.644000	 64.2547
6.662000	 64.344
6.680000	 64.3436
6.698000	 64.2586
6.716000	 64.1813
6.734000	 64.1578
6.752000	 64.1506
6.770000	 64.133
6.788000	 64.1251
6.806000	 64.1379
6.824000	 64.1861
6.842000	 64.2505
6.860000	 64.2296
6.878000	 64.1059
6.896000	 64.0115
6.914000	 64.0138
6.932000	 64.0775
6.950000	 64.1667
6.968000	 64.2131
6.986000	 64.1653
7.004000	 64.107
7.022000	 64.1322
7.040000	 64.1667
7.058000	 64.117
7.076000	 64.0339
7.094000	 64.0132
7.112000	 64.0717
7.130000	 64.1244
7.148000	 64.1102
7.166000	 64.0787
7.184000	 64.0596
7.202000	 64.0347
7.220000	 64.0332
7.238000	 64.0665
7.256000	 64.0951
7.274000	 64.1192
7.292000	 64.1484
7.310000	 64.1597
7.328000	 64.1678
7.346000	 64.1938
7.364000	 64.1798
7.382000	 64.0733
7.400000	 63.9284
7.418000	 63.8498
7.436000	 63.8748
7.454000	 63.9394
7.472000	 63.9665
7.490000	 63.951
7.508000	 63.9329
7.526000	 63.9539
7.544000	 64.0328
7.562000	 64.1143
7.580000	 64.1288
7.598000	 64.0997
7.616000	 64.0798
7.634000	 64.0655
7.652000	 64.0512
7.670000	 64.0568
7.688000	 64.0767
7.706000	 64.0857
7.724000	 64.0784
7.742000	 64.0682
7.760000	 64.0577
7.778000	 64.0336
7.796000	 63.9981
7.814000	 63.9843
7.832000	 64.0035
7.850000	 64.0295
7.868000	 64.0539
7.886000	 64.0789
7.904000	 64.0793
7.922000	 64.0417
7.940000	 63.9989
7.958000	 63.9776
7.976000	 63.9748
7.994000	 63.9876
8.012000	 64.0129
8.030000	 64.0326
8.048000	 64.0208
8.065999	 63.9649
8.084000	 63.8838
8.102000	 63.8251
8.120000	 63.8178
8.138000	 63.8388
8.155999	 63.8523
8.173999	 63.8579
8.192000	 63.8768
8.210000	 63.9135
8.228000	 63.9532
8.246000	 63.9844
8.263999	 64.0051
8.282000	 64.0152
8.300000	 64.0077
8.318000	 63.9746
8.336000	 63.9239
8.353999	 63.8848
8.372000	 63.8826
8.390000	 63.9153
8.408000	 63.9604
8.426000	 63.9928
8.443999	 63.9946
8.462000	 63.9628
8.480000	 63.9214
8.498000	 63.9114
8.516000	 63.9431
8.533999	 63.9741
8.552000	 63.9577
8.570000	 63.8954
8.588000	 63.8269
8.606000	 63.7832
8.624000	 63.7614
8.641999	 63.7414
8.660000	 63.7211
8.678000	 63.7169
8.696000	 63.724
8.714000	 63.7167
8.731999	 63.6916
8.750000	 63.6796
8.768000	 63.7074
8.786000	 63.7658
8.804000	 63.8114
8.821999	 63.8061
8.840000	 63.7589
8.858000	 63.7228
8.876000	 63.7411
8.894000	 63.8037
8.911999	 63.8573
8.930000	 63.8569
8.948000	 63.8054
8.966000	 63.7468
8.984000	 63.726
9.001999	 63.7535
9.020000	 63.8005
9.038000	 63.8244
9.056000	 63.804
9.074000	 63.7554
9.092000	 63.7151
9.109999	 63.7048
9.128000	 63.7149
9.146000	 63.7213
9.164000	 63.7139
9.182000	 63.7047
9.199999	 63.7102
9.218000	 63.7352
9.236000	 63.7719
9.254000	 63.81
9.272000	 63.8406
9.289999	 63.8543
9.308000	 63.8431
9.326000	 63.8074
9.344000	 63.761
9.362000	 63.7256
9.379999	 63.7182
9.398000	 63.7398
9.416000	 63.7748
9.434000	 63.8002
9.452000	 63.8003
9.469999	 63.7731
9.488000	 63.7279
9.506000	 63.6792
9.524000	 63.6417
9.542000	 63.6283
9.560000	 63.6462
9.577999	 63.6904
9.596000	 63.7422
9.614000	 63.777
9.632000	 63.7806
9.650000	 63.7595
9.667999	 63.738
9.686000	 63.7389
9.704000	 63.7681
9.722000	 63.8116
9.740000	 63.8453
9.757999	 63.8481
9.776000	 63.8105
9.794000	 63.7375
9.812000	 63.6489
9.830000	 63.572
9.847999	 63.531
9.866000	 63.5364
9.884000	 63.5806
9.902000	 63.6446
9.920000	 63.7102
9.937999	 63.767
9.956000	 63.8133
9.974000	 63.8505
9.992000	 63.8791
10.01	63.8979
10.028	63.906
10.046	63.9048
10.064	63.9004
10.082	63.9008
10.1	63.9105
10.118	63.9253
10.136	63.932
10.154	63.9167
10.172	63.8755
10.19	63.8219
10.208	63.7808
10.226	63.7719
10.244	63.7972
10.262	63.8382
10.28	63.8683
10.298	63.8675
10.316	63.8323
10.334	63.7754
10.352	63.7168
10.37	63.6723
10.388	63.6467
10.406	63.6352
10.424	63.63
10.442	63.628
10.46	63.6319
10.478	63.6464
10.496	63.6715
10.514	63.6989
10.532	63.7152
10.55	63.7099
10.568	63.6809
10.586	63.6358
10.604	63.5861
10.622	63.5416
10.64	63.5064
10.658	63.4805
10.676	63.4628
10.694	63.4535
10.712	63.4551
10.73	63.4699
10.748	63.4993
10.766	63.5431
10.784	63.6001
10.802	63.6665
10.82	63.736
10.838	63.7979
10.856	63.8406
10.874	63.8544
10.892	63.8376
10.91	63.7998
10.928	63.7586
10.946	63.7348
10.964	63.7424
10.982	63.7831
11	63.8441
11.018	63.9029
11.036	63.9371
11.054	63.9321
11.072	63.8878
11.09	63.8191
11.108	63.747
11.126	63.6925
11.144	63.6651
11.162	63.6609
11.18	63.6667
11.198	63.6669
11.216	63.6529
11.234	63.6262
11.252	63.5977
11.27	63.5801
11.288	63.5822
11.306	63.6038
11.324	63.6363
11.342	63.6675
11.36	63.6883
11.378	63.6954
11.396	63.6926
11.414	63.6858
11.432	63.6796
11.45	63.6735
11.468	63.6639
11.486	63.648
11.504	63.6277
11.522	63.6102
11.54	63.6052
11.558	63.6205
11.576	63.6578
11.594	63.7119
11.612	63.7717
11.63	63.8252
11.648	63.8638
11.666	63.8839
11.684	63.887
11.702	63.8773
11.72	63.8592
11.738	63.8367
11.756	63.8119
11.774	63.7865
11.792	63.7619
11.81	63.7394
11.828	63.7194
11.846	63.7016
11.864	63.6846
11.882	63.6676
11.9	63.6508
11.918	63.6364
11.936	63.6279
11.954	63.6285
11.972	63.6396
11.99	63.66
12.008	63.6859
12.026	63.712
12.044	63.7328
12.062	63.7443
12.08	63.7441
12.098	63.7315
12.116	63.7072
12.134	63.6733
12.152	63.6331
12.17	63.5908
12.188	63.5516
12.206	63.5214
12.224	63.5049
12.242	63.5049
12.26	63.5211
12.278	63.5507
12.296	63.5884
12.314	63.6284
12.332	63.6659
12.35	63.6975
12.368	63.7215
12.386	63.737
12.404	63.7434
12.422	63.7398
12.44	63.7248
12.458	63.6979
12.476	63.6601
12.494	63.6149
12.512	63.5674
12.53	63.5235
12.548	63.4878
12.566	63.4626
12.584	63.4471
12.602	63.4385
12.62	63.433
12.638	63.4278
12.656	63.4225
12.674	63.4192
12.692	63.4217
12.71	63.4337
12.728	63.4574
12.746	63.4918
12.764	63.5331
12.782	63.5748
12.8	63.6098
12.818	63.6318
12.836	63.6367
12.854	63.6237
12.872	63.5951
12.89	63.5557
12.908	63.5118
12.926	63.4706
12.944	63.4381
12.962	63.4188
12.98	63.4143
12.998	63.4239
13.016	63.4443
13.034	63.4703
13.052	63.4963
13.07	63.5173
13.088	63.5299
13.106	63.5333
13.124	63.5288
13.142	63.5195
13.16	63.5097
13.178	63.5029
13.196	63.5018
13.214	63.5066
13.232	63.5164
13.25	63.529
13.268	63.5421
13.286	63.5536
13.304	63.5631
13.322	63.5711
13.34	63.5789
13.358	63.5878
13.376	63.5988
13.394	63.6119
13.412	63.6262
13.43	63.6401
13.448	63.6518
13.466	63.6602
13.484	63.665
13.502	63.6667
13.52	63.6661
13.538	63.6638
13.556	63.66
13.574	63.654
13.592	63.6443
13.61	63.6289
13.628	63.6063
13.646	63.576
13.664	63.5388
13.682	63.4973
13.7	63.4547
13.718	63.4148
13.736	63.3807
13.754	63.3543
13.772	63.3361
13.79	63.3251
13.808	63.3196
13.826	63.3171
13.844	63.3158
13.862	63.3146
13.88	63.3133
13.898	63.3129
13.916	63.3145
13.934	63.3194
13.952	63.3282
13.97	63.3407
13.988	63.3559
14.006	63.3719
14.024	63.3862
14.042	63.3963
14.06	63.4002
14.078	63.3963
14.096	63.3836
14.114	63.362
14.132	63.3323
14.15	63.2959
14.168	63.255
14.186	63.2123
14.204	63.1709
14.222	63.1333
14.24	63.1018
14.258	63.0775
14.276	63.0606
14.294	63.0505
14.312	63.0459
14.33	63.0452
14.348	63.047
14.366	63.0504
14.384	63.0558
14.402	63.0642
14.42	63.0775
14.438	63.0975
14.456	63.1256
14.474	63.1622
14.492	63.2063
14.51	63.2554
14.528	63.3059
14.546	63.3539
14.564	63.3963
14.582	63.431
14.6	63.4572
14.618	63.4756
14.636	63.4885
14.654	63.4981
14.672	63.5065
14.69	63.5151
14.708	63.5242
14.726	63.5331
14.744	63.5401
14.762	63.5433
14.78	63.541
14.798	63.5325
14.816	63.5181
14.834	63.4987
14.852	63.4769
14.87	63.4553
14.888	63.4364
14.906	63.4225
14.924	63.4155
14.942	63.4159
14.96	63.4237
14.978	63.4384
14.996	63.459
15.014	63.4849
15.032	63.5153
15.05	63.55
15.068	63.5888
15.086	63.6318
15.104	63.6786
15.122	63.7282
15.14	63.779
15.158	63.8288
15.176	63.8755
15.194	63.9166
15.212	63.9498
15.23	63.9738
15.248	63.9879
15.266	63.9919
15.284	63.9875
15.302	63.9764
15.32	63.9601
15.338	63.9399
15.356	63.9166
15.374	63.89
15.392	63.8592
15.41	63.823
15.428	63.7801
15.446	63.7293
15.464	63.6705
15.482	63.6041
15.5	63.5317
15.518	63.457
15.536	63.3836
15.554	63.315
15.572	63.2551
15.59	63.2068
15.608	63.1707
15.626	63.1466
15.644	63.1328
15.662	63.1254
15.68	63.1204
15.698	63.1142
15.716	63.1021
15.734	63.0816
15.752	63.052
15.77	63.0134
15.788	62.969
15.806	62.9236
15.824	62.882
15.842	62.8505
15.86	62.8363
15.878	62.8436
15.896	62.8765
15.914	62.9374
15.932	63.0257
15.95	63.1398
15.968	63.2754
15.986	63.4251
16.004	63.5817
16.022	63.737
16.04	63.8797
16.058	64.0018
16.076	64.0961
16.094	64.1543
16.112	64.1724
16.13	64.1486
16.148	64.0822
16.166	63.9776
16.184	63.8398
16.202	63.675
16.22	63.4956
16.238	63.3104
16.256	63.1289
16.274	62.9642
16.292	62.8234
16.31	62.7133
16.328	62.6399
16.346	62.6038
16.364	62.6054
16.382	62.6403
16.4	62.7023
16.418	62.7862
16.436	62.8814
16.454	62.9804
16.472	63.0772
16.49	63.1639
16.508	63.2385
16.526	63.2992
16.544	63.3467
16.562	63.3845
16.58	63.4154
16.598	63.4462
16.616	63.4809
16.634	63.5236
16.652	63.5788
16.67	63.6465
16.688	63.727
16.706	63.8172
16.724	63.9134
16.742	64.0106
16.76	64.1013
16.778	64.1818
16.796	64.2446
16.814	64.2861
16.832	64.304
16.85	64.2961
16.868	64.2635
16.886	64.2071
16.904	64.1313
16.922	64.0396
16.94	63.9366
16.958	63.8292
16.976	63.7205
16.994	63.6167
17.012	63.5211
17.03	63.4364
17.048	63.366
17.066	63.3103
17.084	63.2705
17.102	63.2464
17.12	63.2377
17.138	63.2427
17.156	63.2595
17.174	63.2866
17.192	63.3202
17.21	63.3586
17.228	63.3982
17.246	63.4363
17.264	63.4707
17.282	63.4978
17.3	63.5168
17.318	63.5251
17.336	63.5224
17.354	63.5081
17.372	63.4838
17.39	63.4502
17.408	63.4099
17.426	63.3656
17.444	63.3193
17.462	63.2748
17.48	63.2331
17.498	63.1975
17.516	63.1681
17.534	63.1459
17.552	63.1297
17.57	63.1191
17.588	63.1105
17.606	63.1024
17.624	63.0917
17.642	63.0753
17.66	63.0515
17.678	63.0171
17.696	62.972
17.714	62.9148
17.732	62.8468
17.75	62.7682
17.768	62.6825
17.786	62.5908
17.804	62.498
17.822	62.4054
17.84	62.318
17.858	62.2374
17.876	62.1664
17.894	62.1071
17.912	62.0604
17.93	62.0274
17.948	62.0082
17.966	62.0022
17.984	62.0087
18.002	62.0263
18.02	62.0537
18.038	62.0897
18.056	62.1325
18.074	62.1817
18.092	62.2351
18.11	62.2926
18.128	62.3523
18.146	62.4138
18.164	62.4756
18.182	62.5369
18.2	62.5966
18.218	62.6532
18.236	62.706
18.254	62.7531
18.272	62.7939
18.29	62.8264
18.308	62.8504
18.326	62.8637
18.344	62.8664
18.362	62.8572
18.38	62.8363
18.398	62.8031
18.416	62.7583
18.434	62.7024
18.452	62.6368
18.47	62.5622
18.488	62.4813
18.506	62.3949
18.524	62.3065
18.542	62.2169
18.56	62.1302
18.578	62.047
18.596	61.9714
18.614	61.9036
18.632	61.8468
18.65	61.8008
18.668	61.7678
18.686	61.7474
18.704	61.74
18.722	61.7452
18.74	61.7625
18.758	61.7912
18.776	61.8295
18.794	61.8768
18.812	61.9312
18.83	61.9922
18.848	62.0579
18.866	62.128
18.884	62.2012
18.902	62.277
18.92	62.3546
18.938	62.4337
18.956	62.5137
18.974	62.5944
18.992	62.6752
19.01	62.7556
19.028	62.8349
19.046	62.9123
19.064	62.9866
19.082	63.0568
19.1	63.1213
19.118	63.1791
19.136	63.2279
19.154	63.2675
19.172	63.2957
19.19	63.3127
19.208	63.3169
19.226	63.3088
19.244	63.2884
19.262	63.2562
19.28	63.2136
19.298	63.1609
19.316	63.1013
19.334	63.0349
19.352	62.9657
19.37	62.8937
19.388	62.8229
19.406	62.7532
19.424	62.688
19.442	62.6275
19.46	62.5739
19.478	62.5274
19.496	62.489
19.514	62.4592
19.532	62.4378
19.55	62.425
19.568	62.4204
19.586	62.4239
19.604	62.4351
19.622	62.4532
19.64	62.4783
19.658	62.5095
19.676	62.5468
19.694	62.5896
19.712	62.6378
19.73	62.6908
19.748	62.7488
19.766	62.8107
19.784	62.8768
19.802	62.9458
19.82	63.0176
19.838	63.0911
19.856	63.1652
19.874	63.2395
19.892	63.3116
19.91	63.3819
19.928	63.4472
19.946	63.508
19.964	63.5615
19.982	63.6076
20	63.6447
20.018	63.6717
20.036	63.6884
20.054	63.6938
20.072	63.6882
20.09	63.6715
20.108	63.6438
20.126	63.6064
20.144	63.5592
20.162	63.5042
20.18	63.4418
20.198	63.3735
20.216	63.3015
20.234	63.2256
20.252	63.1492
20.27	63.0715
20.288	62.9956
20.306	62.9214
20.324	62.8504
20.342	62.7836
20.36	62.721
20.378	62.6639
20.396	62.6121
20.414	62.5658
20.432	62.5252
20.45	62.4901
20.468	62.4605
20.486	62.436
20.504	62.4163
20.522	62.4014
20.54	62.3902
20.558	62.3828
20.576	62.3785
20.594	62.3769
20.612	62.378
20.63	62.3806
20.648	62.385
20.666	62.3906
20.684	62.3974
20.702	62.405
20.72	62.4132
20.738	62.422
20.756	62.4313
20.774	62.4412
20.792	62.4513
20.81	62.4618
20.828	62.4725
20.846	62.4833
20.864	62.4943
20.882	62.505
20.9	62.5156
20.918	62.5257
20.936	62.535
20.954	62.5436
20.972	62.5505
20.99	62.556
21.008	62.5596
21.026	62.5609
21.044	62.56
21.062	62.5564
21.08	62.5503
21.098	62.5417
21.116	62.5304
21.134	62.5168
21.152	62.5014
21.17	62.4838
21.188	62.4655
21.206	62.4462
21.224	62.4268
21.242	62.4087
21.26	62.3913
21.278	62.3764
21.296	62.364
21.314	62.3544
21.332	62.3488
21.35	62.3468
21.368	62.3493
21.386	62.3565
21.404	62.3682
21.422	62.385
21.44	62.4066
21.458	62.4329
21.476	62.4636
21.494	62.4987
21.512	62.5373
21.53	62.5796
21.548	62.6246
21.566	62.6717
21.584	62.721
21.602	62.7709
21.62	62.8216
21.638	62.8725
21.656	62.9227
21.674	62.9725
21.692	63.0208
21.71	63.0675
21.728	63.1124
21.746	63.1544
21.764	63.1938
21.782	63.2299
21.8	63.262
21.818	63.2904
21.836	63.3144
21.854	63.334
21.872	63.349
21.89	63.359
21.908	63.3642
21.926	63.3641
21.944	63.3582
21.962	63.3469
21.98	63.33
21.998	63.3072
22.016	63.2791
22.034	63.2462
22.052	63.2082
22.07	63.1663
22.088	63.1213
22.106	63.0727
22.124	63.0231
22.142	62.9724
22.16	62.9211
22.178	62.872
22.196	62.8243
22.214	62.7796
22.232	62.7402
22.25	62.7051
22.268	62.676
22.286	62.6542
22.304	62.6389
22.322	62.6311
22.34	62.6315
22.358	62.6392
22.376	62.6533
22.394	62.6746
22.412	62.7011
22.43	62.7305
22.448	62.7643
22.466	62.7989
22.484	62.8315
22.502	62.8639
22.52	62.8914
22.538	62.9124
22.556	62.9278
22.574	62.9332
22.592	62.928
22.61	62.9125
22.628	62.8841
22.646	62.8426
22.664	62.7886
22.682	62.7217
22.7	62.6412
22.718	62.5492
22.736	62.4478
22.754	62.3353
22.772	62.2156
22.79	62.0918
22.808	61.9615
22.826	61.8306
22.844	61.7023
22.862	61.5744
22.88	61.4529
22.898	61.3405
22.916	61.2353
22.934	61.143
22.952	61.0653
22.97	61.001
22.988	60.9536
23.006	60.9239
23.024	60.9111
23.042	60.9166
23.06	60.941
23.078	60.9833
23.096	61.0422
23.114	61.1182
23.132	61.2103
23.15	61.3156
23.168	61.435
23.186	61.5673
23.204	61.7081
23.222	61.8584
23.24	62.0171
23.258	62.1803
23.276	62.3485
23.294	62.5211
23.312	62.6953
23.33	62.8712
23.348	63.0487
23.366	63.2253
23.384	63.4014
23.402	63.5767
23.42	63.7495
23.438	63.9202
23.456	64.0886
23.474	64.2525
23.492	64.4123
23.51	64.5678
23.528	64.7167
23.546	64.8589
23.564	64.9948
23.582	65.1208
23.6	65.2362
23.618	65.3419
23.636	65.4342
23.654	65.5113
23.672	65.5749
23.69	65.6216
23.708	65.6487
23.726	65.6583
23.744	65.6482
23.762	65.6162
23.78	65.5631
23.798	65.4894
23.816	65.3948
23.834	65.2783
23.852	65.1425
23.87	64.9905
23.888	64.8201
23.906	64.6339
23.924	64.438
23.942	64.2309
23.96	64.0133
23.978	63.7929
23.996	63.5714
24.014	63.3462
24.032	63.125
24.05	62.9124
24.068	62.7042
24.086	62.5059
24.104	62.323
24.122	62.1524
24.14	61.9962
24.158	61.8582
24.176	61.738
24.194	61.635
24.212	61.55
24.23	61.4842
24.248	61.4365
24.266	61.4043
24.284	61.3868
24.302	61.3855
24.32	61.3965
24.338	61.416
24.356	61.4467
24.374	61.486
24.392	61.5292
24.41	61.5774
24.428	61.6304
24.446	61.6848
24.464	61.7393
24.482	61.7952
24.5	61.851
24.518	61.905
24.536	61.9578
24.554	62.0096
24.572	62.0603
24.59	62.1093
24.608	62.1572
24.626	62.2051
24.644	62.2535
24.662	62.3017
24.68	62.3506
24.698	62.4013
24.716	62.4534
24.734	62.5068
24.752	62.5615
24.77	62.6181
24.788	62.6764
24.806	62.7344
24.824	62.7913
24.842	62.849
24.86	62.9044
24.878	62.9536
24.896	62.9987
24.914	63.0387
24.932	63.0691
24.95	63.0875
24.968	63.0971
24.986	63.0942
25.004	63.0755
25.022	63.0421
25.04	62.9941
25.058	62.9296
25.076	62.8475
25.094	62.7487
25.112	62.6337
25.13	62.5029
25.148	62.3541
25.166	62.1899
25.184	62.0149
25.202	61.83
25.22	61.6318
25.238	61.4278
25.256	61.2256
25.274	61.0199
25.292	60.8134
25.31	60.6161
25.328	60.4329
25.346	60.2569
25.364	60.0956
25.382	59.9583
25.4	59.8424
25.418	59.747
25.436	59.6792
25.454	59.6443
25.472	59.6383
25.49	59.6625
25.508	59.7201
25.526	59.8127
25.544	59.9388
25.562	60.0962
25.58	60.2833
25.598	60.5038
25.616	60.754
25.634	61.0267
25.652	61.3186
25.67	61.6363
25.688	61.9708
25.706	62.3113
25.724	62.6598
25.742	63.0196
25.76	63.3781
25.778	63.7239
25.796	64.0665
25.814	64.4011
25.832	64.7145
25.85	64.9984
25.868	65.2633
25.886	65.501
25.904	65.7002
25.922	65.8581
25.94	65.981
25.958	66.0635
25.976	66.1002
25.994	66.0912
26.012	66.0387
26.03	65.943
26.048	65.804
26.066	65.6193
26.084	65.3924
26.102	65.1284
26.12	64.8297
26.138	64.4904
26.156	64.1181
26.174	63.7221
26.192	63.3045
26.21	62.859
26.228	62.3941
26.246	61.919
26.264	61.4316
26.282	60.9287
26.3	60.4205
26.318	59.9166
26.336	59.4109
26.354	58.904
26.372	58.4068
26.39	57.9291
26.408	57.4628
26.426	57.0107
26.444	56.5826
26.462	56.1866
26.48	55.8148
26.498	55.4706
26.516	55.1612
26.534	54.8919
26.552	54.6568
26.57	54.4585
26.588	54.3017
26.606	54.1899
26.624	54.12
26.642	54.0919
26.66	54.106
26.678	54.1629
26.696	54.2624
26.714	54.4033
26.732	54.5843
26.75	54.8058
26.768	55.0704
26.786	55.3724
26.804	55.7057
26.822	56.0671
26.84	56.4612
26.858	56.885
26.876	57.3353
26.894	57.8097
26.912	58.3098
26.93	58.8363
26.948	59.3896
26.966	60.0032
26.984	60.7256
27.002	61.4323
27.02	61.9881
27.028	62.1351