File: Bakgrunnsmateriale/MATLAB/FTIR/ftir_data/subAa/Mapping_121/BZ1503107-1_e127_cm-1.asc
PE IR       SPECTRUM    SPECTRUM    ASCII       PEDS        1.60
  -1
BZ09FC~1.ASC
17/04/07
22:19:52.00
17/04/07
22:19:52.00
tln
$BZ1503107-1_e0127$<ebV0>[-23.3,12.1,10.0,0.0,27,1,0]
370
64

2002,4.07
MIRTGS : RIGHTBACK : INTERNAL 2
MIR : ON : INTERNAL 2
OPTKBR

0.200000
8
8.000000
FILLER
SINGLE
SPECTRUM
UNLOCKED 256

DOUBLE

COMBINED
1
0
0

1.000000
BACKG

1
0
TRUE
51149
0
LEFT NOT FITTED RIGHT NOT FITTED 0
NONE
NONE
15600
12
4.427000
51148
TRUE
1 0 8 72 0 0 0 0

15798

#HDR
-1
-1
#GR
CM-1
EGY
2.38419e-05
0.0
5000
-1.000000
4631
8
2.465510
0.008058
#DATA
5000	0.772833
4996	0.784540
4992	0.786638
4988	0.777411
4984	0.776124
4980	0.787353
4976	0.797033
4972	0.796794
4968	0.793600
4964	0.792050
4960	0.787377
4956	0.785517
4952	0.792026
4948	0.798177
4944	0.802397
4940	0.804448
4936	0.801372
4932	0.798130
4928	0.799417
4924	0.803875
4920	0.808143
4916	0.810503
4912	0.809955
4908	0.809025
4904	0.810933
4900	0.814509
4896	0.816702
4892	0.818514
4888	0.821590
4884	0.824332
4880	0.827336
4876	0.830030
4872	0.830769
4868	0.831985
4864	0.833725
4860	0.834655
4856	0.836944
4852	0.840115
4848	0.843024
4844	0.845789
4840	0.848484
4836	0.851678
4832	0.854468
4828	0.857639
4824	0.862097
4820	0.865745
4816	0.868701
4812	0.872015
4808	0.873947
4804	0.874876
4800	0.876832
4796	0.880050
4792	0.884032
4788	0.887799
4784	0.890946
4780	0.893211
4776	0.894927
4772	0.897598
4768	0.899147
4764	0.899267
4760	0.900101
4756	0.900912
4752	0.902652
4748	0.905394
4744	0.907182
4740	0.908231
4736	0.909113
4732	0.909566
4728	0.910067
4724	0.911593
4720	0.913310
4716	0.914573
4712	0.915932
4708	0.917005
4704	0.917792
4700	0.918412
4696	0.919318
4692	0.920104
4688	0.920224
4684	0.920820
4680	0.921964
4676	0.922369
4672	0.921607
4668	0.920820
4664	0.920391
4660	0.920605
4656	0.921678
4652	0.922226
4648	0.922989
4644	0.924444
4640	0.925540
4636	0.927019
4632	0.929093
4628	0.931525
4624	0.932931
4620	0.933074
4616	0.934696
4612	0.937962
4608	0.941920
4604	0.944733
4600	0.944924
4596	0.946211
4592	0.949525
4588	0.952386
4584	0.955510
4580	0.958442
4576	0.959801
4572	0.961685
4568	0.965118
4564	0.967478
4560	0.969195
4556	0.973153
4552	0.978255
4548	0.981092
4544	0.981712
4540	0.984168
4536	0.988698
4532	0.991773
4528	0.993227
4524	0.994420
4520	0.995588
4516	0.996947
4512	0.998687
4508	1.002168
4504	1.004981
4500	1.004528
4496	1.006245
4492	1.010704
4488	1.012396
4484	1.009368
4480	1.006197
4476	1.007390
4472	1.006674
4468	1.001000
4464	0.994586
4460	0.989556
4456	0.988650
4452	0.993299
4448	0.994777
4444	1.001000
4440	1.033306
4436	1.075124
4432	1.088690
4428	1.082253
4424	1.076865
4420	1.056909
4416	1.033258
4412	1.024270
4408	1.023602
4404	1.027250
4400	1.031327
4396	1.034259
4392	1.035881
4388	1.035857
4384	1.035046
4380	1.035308
4376	1.039004
4372	1.043534
4368	1.045083
4364	1.047706
4360	1.053643
4356	1.059651
4352	1.064848
4348	1.069688
4344	1.073670
4340	1.076793
4336	1.079463
4332	1.083087
4328	1.088428
4324	1.093339
4320	1.097393
4316	1.103019
4312	1.110124
4308	1.117181
4304	1.122689
4300	1.126313
4296	1.130652
4292	1.136136
4288	1.139402
4284	1.141977
4280	1.146650
4276	1.151514
4272	1.155900
4268	1.160264
4264	1.163911
4260	1.167702
4256	1.170873
4252	1.173329
4248	1.177620
4244	1.182389
4240	1.185297
4236	1.186561
4232	1.187968
4228	1.190757
4224	1.193809
4220	1.195740
4216	1.196312
4212	1.196408
4208	1.198005
4204	1.200747
4200	1.203083
4196	1.204991
4192	1.206946
4188	1.210188
4184	1.213288
4180	1.215481
4176	1.217341
4172	1.218271
4168	1.219964
4164	1.222896
4160	1.225590
4156	1.227688
4152	1.230144
4148	1.233553
4144	1.237320
4140	1.240539
4136	1.242494
4132	1.244378
4128	1.247763
4124	1.251935
4120	1.256346
4116	1.260423
4112	1.263809
4108	1.267504
4104	1.271533
4100	1.275515
4096	1.280260
4092	1.285791
4088	1.291990
4084	1.298403
4080	1.303267
4076	1.306891
4072	1.311564
4068	1.317715
4064	1.324105
4060	1.329350
4056	1.334333
4052	1.340603
4048	1.347994
4044	1.355004
4040	1.360321
4036	1.364588
4032	1.368594
4028	1.373028
4024	1.378154
4020	1.382160
4016	1.384210
4012	1.387381
4008	1.392674
4004	1.397323
4000	1.400780
3996	1.403784
3992	1.407241
3988	1.412272
3984	1.416397
3980	1.417899
3976	1.418852
3972	1.420593
3968	1.421809
3964	1.422381
3960	1.424026
3956	1.425457
3952	1.425004
3948	1.424694
3944	1.426100
3940	1.428675
3936	1.430606
3932	1.432180
3928	1.434183
3924	1.434755
3920	1.434731
3916	1.436614
3912	1.438975
3908	1.438188
3904	1.435661
3900	1.437330
3896	1.442480
3892	1.445198
3888	1.444792
3884	1.445174
3880	1.448059
3876	1.450037
3872	1.450324
3868	1.453471
3864	1.459097
3860	1.459789
3856	1.454997
3852	1.459193
3848	1.472878
3844	1.478838
3840	1.477742
3836	1.481342
3832	1.489305
3828	1.495337
3824	1.498770
3820	1.501750
3816	1.508259
3812	1.515436
3808	1.516175
3804	1.516032
3800	1.523184
3796	1.534676
3792	1.543474
3788	1.548767
3784	1.552557
3780	1.554703
3776	1.555967
3772	1.557683
3768	1.561379
3764	1.566386
3760	1.568651
3756	1.565694
3752	1.559472
3748	1.555538
3744	1.558756
3740	1.566076
3736	1.570510
3732	1.574563
3728	1.579403
3724	1.582145
3720	1.583528
3716	1.582455
3712	1.582241
3708	1.585364
3704	1.587080
3700	1.587963
3696	1.587605
3692	1.581931
3688	1.579189
3684	1.583576
3680	1.583051
3676	1.576375
3672	1.574611
3668	1.580572
3664	1.586818
3660	1.586699
3656	1.583409
3652	1.581048
3648	1.582670
3644	1.588010
3640	1.590108
3636	1.587176
3632	1.582455
3628	1.582455
3624	1.587796
3620	1.591110
3616	1.592183
3612	1.592946
3608	1.595664
3604	1.601696
3600	1.605868
3596	1.606941
3592	1.607561
3588	1.608753
3584	1.611733
3580	1.616048
3576	1.619505
3572	1.620078
3568	1.619648
3564	1.622414
3560	1.626515
3556	1.629257
3552	1.631665
3548	1.633334
3544	1.634311
3540	1.634788
3536	1.635217
3532	1.636815
3528	1.638436
3524	1.639366
3520	1.640605
3516	1.641297
3512	1.639628
3508	1.638031
3504	1.636981
3500	1.635193
3496	1.633882
3492	1.632022
3488	1.629734
3484	1.628088
3480	1.625537
3476	1.622009
3472	1.619052
3468	1.617765
3464	1.617383
3460	1.615977
3456	1.612925
3452	1.609086
3448	1.605391
3444	1.602315
3440	1.599669
3436	1.596832
3432	1.593613
3428	1.592135
3424	1.593971
3420	1.595830
3416	1.595759
3412	1.596808
3408	1.600575
3404	1.604557
3400	1.606774
3396	1.607871
3392	1.610612
3388	1.615214
3384	1.618790
3380	1.620960
3376	1.622509
3372	1.624703
3368	1.629519
3364	1.636242
3360	1.643347
3356	1.650142
3352	1.655793
3348	1.661849
3344	1.669239
3340	1.676082
3336	1.681280
3332	1.685667
3328	1.690864
3324	1.697325
3320	1.704072
3316	1.710414
3312	1.716828
3308	1.723456
3304	1.729202
3300	1.734447
3296	1.739764
3292	1.744318
3288	1.748967
3284	1.754355
3280	1.758956
3276	1.763057
3272	1.767373
3268	1.771807
3264	1.775670
3260	1.778054
3256	1.780366
3252	1.784110
3248	1.787185
3244	1.788997
3240	1.791715
3236	1.794242
3232	1.795887
3228	1.798057
3224	1.799631
3220	1.800584
3216	1.801609
3212	1.801109
3208	1.799559
3204	1.799941
3200	1.801943
3196	1.802587
3192	1.802587
3188	1.803565
3184	1.804900
3180	1.805996
3176	1.806759
3172	1.807689
3168	1.809191
3164	1.811051
3160	1.813435
3156	1.816153
3152	1.819443
3148	1.823878
3144	1.828479
3140	1.832604
3136	1.836323
3132	1.840591
3128	1.846194
3124	1.850652
3120	1.854443
3116	1.859426
3112	1.865959
3108	1.874780
3104	1.882910
3100	1.889252
3096	1.896214
3092	1.904225
3088	1.911711
3084	1.918625
3080	1.926279
3076	1.933956
3072	1.940178
3068	1.944923
3064	1.948952
3060	1.954436
3056	1.962375
3052	1.970672
3048	1.977372
3044	1.982283
3040	1.985669
3036	1.987075
3032	1.986122
3028	1.982808
3024	1.977062
3020	1.971936
3016	1.976537
3012	1.994061
3008	2.013659
3004	2.026724
3000	2.033972
2996	2.038025
2992	2.040529
2988	2.041029
2984	2.037072
2980	2.027845
2976	2.014088
2972	1.994061
2968	1.969408
2964	1.948261
2960	1.936197
2956	1.931738
2952	1.928567
2948	1.918578
2944	1.895022
2940	1.859641
2936	1.823234
2932	1.794362
2928	1.776123
2924	1.778793
2920	1.811623
2916	1.862192
2912	1.907944
2908	1.938772
2904	1.958537
2900	1.973438
2896	1.985406
2892	1.995038
2888	2.003836
2884	2.011704
2880	2.015423
2876	2.011346
2872	1.995062
2868	1.963973
2864	1.929116
2860	1.916003
2856	1.935982
2852	1.974773
2848	2.016162
2844	2.051782
2840	2.079343
2836	2.100467
2832	2.116966
2828	2.130460
2824	2.141833
2820	2.153086
2816	2.163958
2812	2.171659
2808	2.178120
2804	2.186489
2800	2.194905
2796	2.201509
2792	2.207398
2788	2.214074
2784	2.221393
2780	2.228832
2776	2.236294
2772	2.242779
2768	2.247476
2764	2.251577
2760	2.255582
2756	2.258896
2752	2.261996
2748	2.264785
2744	2.266049
2740	2.265834
2736	2.265810
2732	2.266073
2728	2.265882
2724	2.265620
2720	2.265000
2716	2.263259
2712	2.260565
2708	2.257585
2704	2.254557
2700	2.253389
2696	2.254271
2692	2.254104
2688	2.251887
2684	2.248573
2680	2.245473
2676	2.242779
2672	2.239465
2668	2.236390
2664	2.233481
2660	2.231001
2656	2.230501
2652	2.229738
2648	2.227926
2644	2.226448
2640	2.225947
2636	2.226781
2632	2.228283
2628	2.228975
2624	2.229022
2620	2.229595
2616	2.230310
2612	2.230739
2608	2.231383
2604	2.233219
2600	2.235031
2596	2.236938
2592	2.240347
2588	2.244806
2584	2.249670
2580	2.254986
2576	2.261042
2572	2.267360
2568	2.273488
2564	2.279996
2560	2.285647
2556	2.290225
2552	2.294921
2548	2.299737
2544	2.305054
2540	2.309966
2536	2.312922
2532	2.315640
2528	2.319526
2524	2.323079
2520	2.326083
2516	2.329468
2512	2.332282
2508	2.333831
2504	2.334666
2500	2.335357
2496	2.335762
2492	2.335739
2488	2.335357
2484	2.333974
2480	2.331519
2476	2.329134
2472	2.326226
2468	2.323031
2464	2.320122
2460	2.316474
2456	2.312040
2452	2.308058
2448	2.304530
2444	2.300262
2440	2.295684
2436	2.292227
2432	2.289104
2428	2.285671
2424	2.282691
2420	2.279090
2416	2.275824
2412	2.272987
2408	2.268838
2404	2.264618
2400	2.261185
2396	2.258539
2392	2.256822
2388	2.255344
2384	2.254295
2380	2.253150
2376	2.250361
2372	2.246236
2368	2.243232
2364	2.242612
2360	2.245688
2356	2.253437
2352	2.262759
2348	2.268886
2344	2.271032
2340	2.273035
2336	2.277612
2332	2.284026
2328	2.291870
2324	2.301073
2320	2.310180
2316	2.319216
2312	2.328133
2308	2.335143
2304	2.341079
2300	2.346777
2296	2.351784
2292	2.357530
2288	2.363204
2284	2.366733
2280	2.369880
2276	2.374362
2272	2.378439
2268	2.381014
2264	2.382946
2260	2.385139
2256	2.387785
2252	2.389359
2248	2.388858
2244	2.387857
2240	2.388024
2236	2.388787
2232	2.388596
2228	2.386808
2224	2.383375
2220	2.379584
2216	2.376151
2212	2.372670
2208	2.369761
2204	2.367138
2200	2.364277
2196	2.361917
2192	2.359724
2188	2.356910
2184	2.352523
2180	2.347970
2176	2.345848
2172	2.345275
2168	2.343702
2164	2.341747
2160	2.340507
2156	2.339768
2152	2.340269
2148	2.340602
2144	2.339768
2140	2.338886
2136	2.338957
2132	2.339982
2128	2.339839
2124	2.340078
2120	2.342081
2116	2.342581
2112	2.343010
2108	2.345228
2104	2.346348
2100	2.346420
2096	2.346062
2092	2.345180
2088	2.345442
2084	2.347183
2080	2.350854
2076	2.357316
2072	2.364730
2068	2.372550
2064	2.381443
2060	2.390384
2056	2.398896
2052	2.407765
2048	2.417206
2044	2.425336
2040	2.431416
2036	2.436947
2032	2.442455
2028	2.447652
2024	2.451658
2020	2.454042
2016	2.456188
2012	2.459168
2008	2.462005
2004	2.463722
2000	2.464365
1996	2.464795
1992	2.465438
1988	2.465057
1984	2.462482
1980	2.458262
1976	2.453303
1972	2.448773
1968	2.445793
1964	2.443051
1960	2.440023
1956	2.437400
1952	2.434444
1948	2.430248
1944	2.425861
1940	2.421951
1936	2.417564
1932	2.413082
1928	2.409505
1924	2.405285
1920	2.400875
1916	2.397656
1912	2.393531
1908	2.387619
1904	2.383399
1900	2.381372
1896	2.379155
1892	2.377247
1888	2.377247
1884	2.378869
1880	2.380537
1876	2.381968
1872	2.383065
1868	2.385163
1864	2.389287
1860	2.393221
1856	2.396535
1852	2.399015
1848	2.399897
1844	2.402663
1840	2.408361
1836	2.412295
1832	2.413821
1828	2.416372
1824	2.421259
1820	2.426981
1816	2.431011
1812	2.433061
1808	2.434062
1804	2.434539
1800	2.434968
1796	2.434444
1792	2.434158
1788	2.435016
1784	2.433753
1780	2.430248
1776	2.423644
1772	2.418088
1768	2.419400
1764	2.419590
1760	2.414202
1756	2.404737
1752	2.391839
1748	2.379751
1744	2.366685
1740	2.348637
1736	2.331852
1732	2.327060
1728	2.330780
1724	2.327036
1720	2.313280
1716	2.304530
1712	2.303862
1708	2.296590
1704	2.278661
1700	2.260947
1696	2.257227
1692	2.261447
1688	2.253532
1684	2.242994
1680	2.242517
1676	2.238273
1672	2.229166
1668	2.223348
1664	2.217960
1660	2.206254
1656	2.184414
1652	2.168512
1648	2.167272
1644	2.166986
1640	2.158641
1636	2.146172
1632	2.138495
1628	2.129936
1624	2.111887
1620	2.082657
1616	2.044034
1612	2.004337
1608	1.979446
1604	1.981973
1600	2.000403
1596	2.015185
1592	2.020072
1588	2.018022
1584	2.011060
1580	1.998829
1576	1.988959
1572	1.985716
1568	1.979136
1564	1.958799
1560	1.936364
1556	1.937913
1552	1.955986
1548	1.963019
1544	1.962494
1540	1.984906
1536	2.036905
1532	2.086806
1528	2.112174
1524	2.116036
1520	2.111434
1516	2.105283
1512	2.093219
1508	2.066016
1504	1.997280
1500	1.853656
1496	1.704335
1492	1.685857
1488	1.792168
1484	1.905155
1480	1.963639
1476	1.978826
1472	1.977157
1468	1.967048
1464	1.939463
1460	1.882386
1456	1.806902
1452	1.763224
1448	1.785373
1444	1.834511
1440	1.860594
1436	1.867961
1432	1.872634
1428	1.873230
1424	1.867127
1420	1.856422
1416	1.843309
1412	1.816058
1408	1.767611
1404	1.729083
1400	1.733446
1396	1.765537
1392	1.789784
1388	1.791429
1384	1.788377
1380	1.798391
1376	1.810574
1372	1.816415
1368	1.819109
1364	1.819801
1360	1.819586
1356	1.818799
1352	1.816344
1348	1.813626
1344	1.813268
1340	1.817798
1336	1.828026
1332	1.838994
1328	1.846146
1324	1.850199
1320	1.853346
1316	1.855349
1312	1.855802
1308	1.856446
1304	1.856637
1300	1.855945
1296	1.856374
1292	1.857399
1288	1.856327
1284	1.853013
1280	1.847338
1276	1.834535
1272	1.807022
1268	1.763534
1264	1.724982
1260	1.724123
1256	1.761341
1252	1.802778
1248	1.826095
1244	1.834082
1240	1.835894
1236	1.834559
1232	1.830387
1228	1.824331
1224	1.814126
1220	1.798486
1216	1.778507
1212	1.758623
1208	1.747393
1204	1.745295
1200	1.745915
1196	1.744985
1192	1.740598
1188	1.732683
1184	1.722168
1180	1.710820
1176	1.699709
1172	1.686644
1168	1.669049
1164	1.648235
1160	1.629304
1156	1.617717
1152	1.612663
1148	1.608133
1144	1.600027
1140	1.589083
1136	1.575899
1132	1.559400
1128	1.540541
1124	1.521515
1120	1.501584
1116	1.480364
1112	1.460051
1108	1.443934
1104	1.433515
1100	1.427817
1096	1.425552
1092	1.426815
1088	1.430273
1084	1.430940
1080	1.428318
1076	1.429700
1072	1.435589
1068	1.438784
1064	1.436233
1060	1.419448
1056	1.370787
1052	1.312828
1048	1.307249
1044	1.349520
1040	1.381444
1036	1.387262
1032	1.380348
1028	1.369857
1024	1.362013
1020	1.361417
1016	1.368451
1012	1.378369
1008	1.387786
1004	1.395988
1000	1.400876
996	 1.401329
992	 1.398086
988	 1.391553
984	 1.383376
980	 1.375842
976	 1.368045
972	 1.357603
968	 1.344704
964	 1.331067
960	 1.317143
956	 1.302504
952	 1.288223
948	 1.276373
944	 1.267910
940	 1.261258
936	 1.253318
932	 1.243925
928	 1.234745
924	 1.225876
920	 1.215004
916	 1.200938
912	 1.185107
908	 1.171088
904	 1.161003
900	 1.154160
896	 1.148414
892	 1.139354
888	 1.120448
884	 1.088142
880	 1.051783
876	 1.031255
872	 1.038050
868	 1.062059
864	 1.083731
860	 1.093530
856	 1.092481
852	 1.086711
848	 1.081442
844	 1.075363
840	 1.061773
836	 1.028013
832	 0.962758
828	 0.883960
824	 0.845551
820	 0.871419
816	 0.917887
812	 0.943088
808	 0.947761
804	 0.944948
800	 0.943493
796	 0.948190
792	 0.958728
788	 0.970149
784	 0.977516
780	 0.980401
776	 0.979709
772	 0.976037
768	 0.971889
764	 0.968742
760	 0.965118
756	 0.960659
752	 0.955939
748	 0.949811
744	 0.942873
740	 0.935149
736	 0.925087
732	 0.913500
728	 0.902175
724	 0.891208
720	 0.880217
716	 0.868725
712	 0.857019
708	 0.844860
704	 0.830650
700	 0.814008
696	 0.791597
692	 0.760340
688	 0.734996
684	 0.730371
680	 0.734233
676	 0.732755
672	 0.726079
668	 0.717091
664	 0.707435
660	 0.697422
656	 0.687551
652	 0.677418
648	 0.666427
644	 0.655245
640	 0.644230
636	 0.633215
632	 0.622820
628	 0.613307
624	 0.604009
620	 0.593280
616	 0.578093
612	 0.557065
608	 0.536489
604	 0.526189
600	 0.524377
596	 0.522089
592	 0.517821
588	 0.514388
584	 0.511980
580	 0.509166
576	 0.507235
572	 0.504636
568	 0.496149
564	 0.485181
560	 0.478124
556	 0.473093
552	 0.466918
548	 0.459504
544	 0.450205
540	 0.439906
536	 0.433063
532	 0.428915
528	 0.421714
524	 0.411891
520	 0.402045
516	 0.391888
512	 0.381278
508	 0.371408
504	 0.361943
500	 0.349116
496	 0.333046
492	 0.317668
488	 0.303816
484	 0.290536
480	 0.277280
476	 0.264048
472	 0.251650
468	 0.239229
464	 0.225567
460	 0.211596
456	 0.197291
452	 0.182271
448	 0.169897
444	 0.161290
440	 0.151395
436	 0.138664
432	 0.125098
428	 0.111722
424	 0.099086
420	 0.086855
416	 0.075650
412	 0.065755
408	 0.055861
404	 0.046896
400	 0.039291
396	 0.032353
392	 0.026583
388	 0.021171
384	 0.016331
380	 0.013518
376	 0.011467
372	 0.009202
370	 0.008058