File: Bakgrunnsmateriale/MATLAB/FTIR/ftir_data/subAa/Mapping_121/BZ1503107-1_t48_cm-1.asc
PE IR       SPECTRUM    SPECTRUM    ASCII       PEDS        1.60
  -1
BZ6034~1.ASC
17/04/07
17:12:54.00
17/04/07
17:12:54.00
tln
$BZ1503107-1_t0048$<tbV0>[5.2,-2.6,8.0,0.0,27,1,0]
370
64

2002,4.07
MIRTGS : RIGHTBACK : INTERNAL 2
MIR : ON : INTERNAL 2
OPTKBR

0.200000
8
8.000000
FILLER
RATIO
SPECTRUM
UNLOCKED 256

DOUBLE
64
COMBINED
1
0
0

1.000000
RATIO

1
0
TRUE
51149
0
LEFT NOT FITTED RIGHT NOT FITTED 0
NONE
NONE
15600
12
4.427000
51148
TRUE
1 0 8 72 0 0 0 0

15798

#HDR
-1
-1
#GR
CM-1
%T
2.38419e-05
0.0
5000
-1.000000
4631
8
67.4737
41.5059
#DATA
5000	64.0107
4996	64.841
4992	64.6694
4988	64.4059
4984	64.9427
4980	66.0581
4976	66.8484
4972	66.4582
4968	65.6633
4964	65.6347
4960	65.7613
4956	65.2918
4952	64.9526
4948	65.0415
4944	65.015
4940	64.8823
4936	64.889
4932	64.9997
4928	64.9561
4924	64.7498
4920	64.8171
4916	64.9233
4912	64.7399
4908	64.6138
4904	64.5559
4900	64.5523
4896	64.9648
4892	65.2817
4888	65.0248
4884	64.9407
4880	65.0518
4876	64.8031
4872	64.6357
4868	64.767
4864	64.7484
4860	64.7027
4856	64.7566
4852	64.5951
4848	64.4631
4844	64.4234
4840	64.2794
4836	64.3055
4832	64.4721
4828	64.4928
4824	64.3566
4820	64.3177
4816	64.4432
4812	64.6017
4808	64.6225
4804	64.5187
4800	64.5693
4796	64.6156
4792	64.509
4788	64.4407
4784	64.4241
4780	64.3914
4776	64.4102
4772	64.5714
4768	64.7719
4764	64.7372
4760	64.6371
4756	64.7203
4752	64.6162
4748	64.4166
4744	64.4795
4740	64.6893
4736	64.8685
4732	64.9125
4728	64.8477
4724	64.6653
4720	64.4882
4716	64.4811
4712	64.5956
4708	64.6694
4704	64.6039
4700	64.5032
4696	64.6018
4692	64.9439
4688	65.0406
4684	64.9559
4680	65.1535
4676	65.2785
4672	65.141
4668	65.0443
4664	64.9662
4660	64.9786
4656	65.0801
4652	64.9262
4648	64.7061
4644	64.7826
4640	65.0527
4636	65.2426
4632	65.2441
4628	65.0744
4624	64.9501
4620	64.9721
4616	64.9122
4612	64.8553
4608	64.936
4604	65.124
4600	65.2746
4596	65.2205
4592	65.132
4588	65.1284
4584	65.1733
4580	65.2701
4576	65.3584
4572	65.2698
4568	65.0745
4564	64.9798
4560	65.0628
4556	65.4159
4552	65.8256
4548	65.9062
4544	65.671
4540	65.3792
4536	65.3117
4532	65.5792
4528	65.7717
4524	65.5251
4520	65.328
4516	65.5094
4512	65.8044
4508	66.1239
4504	66.2953
4500	66.0972
4496	65.7302
4492	65.4412
4488	65.3291
4484	65.4339
4480	65.6783
4476	65.6484
4472	65.5195
4468	65.7686
4464	66.0105
4460	66.2001
4456	66.0441
4452	65.1188
4448	64.979
4444	64.8579
4440	56.4801
4436	43.6996
4432	43.2773
4428	52.5675
4424	60.2342
4420	63.159
4416	63.2496
4412	65.131
4408	66.5283
4404	66.0411
4400	65.8659
4396	65.9549
4392	65.8099
4388	65.7036
4384	65.7582
4380	65.864
4376	65.9416
4372	65.8809
4368	65.8564
4364	66.0958
4360	66.4738
4356	66.4498
4352	65.8503
4348	65.4149
4344	65.5277
4340	65.6267
4336	65.6046
4332	65.672
4328	65.6368
4324	65.5231
4320	65.5117
4316	65.4962
4312	65.3986
4308	65.2624
4304	65.1255
4300	65.188
4296	65.2562
4292	65.1786
4288	65.1994
4284	65.2102
4280	65.1415
4276	65.1491
4272	65.2782
4268	65.321
4264	65.1999
4260	65.145
4256	65.2169
4252	65.315
4248	65.2298
4244	65.0188
4240	64.989
4236	65.0607
4232	65.0388
4228	64.9638
4224	65.0165
4220	65.1077
4216	65.0135
4212	64.8207
4208	64.7604
4204	64.9312
4200	65.1032
4196	65.0172
4192	64.7866
4188	64.6914
4184	64.7123
4180	64.621
4176	64.5733
4172	64.7503
4168	64.8354
4164	64.7317
4160	64.734
4156	64.7889
4152	64.7294
4148	64.6636
4144	64.7024
4140	64.8206
4136	64.8334
4132	64.7626
4128	64.882
4124	65.0771
4120	64.9905
4116	64.7418
4112	64.8011
4108	65.0003
4104	64.8952
4100	64.7131
4096	64.7162
4092	64.8033
4088	64.8252
4084	64.7779
4080	64.8009
4076	64.8319
4072	64.7861
4068	64.7967
4064	64.8724
4060	64.9579
4056	65.0311
4052	65.0351
4048	65.0539
4044	65.1407
4040	65.1462
4036	65.0792
4032	65.0081
4028	64.8982
4024	64.8392
4020	64.8395
4016	64.8932
4012	65.0406
4008	65.1633
4004	65.1534
4000	65.0749
3996	65.1256
3992	65.3236
3988	65.4745
3984	65.48
3980	65.3767
3976	65.2818
3972	65.1651
3968	65.0078
3964	64.9826
3960	65.0313
3956	65.0071
3952	64.9318
3948	64.9347
3944	65.0204
3940	64.9983
3936	64.8764
3932	64.7714
3928	64.799
3924	65.0269
3920	65.211
3916	65.2012
3912	65.2544
3908	65.3814
3904	65.3946
3900	65.3179
3896	65.2375
3892	65.2822
3888	65.3031
3884	65.1613
3880	65.0874
3876	65.1638
3872	65.2896
3868	65.422
3864	65.5298
3860	65.4435
3856	65.1924
3852	65.0907
3848	65.13
3844	65.1143
3840	65.1522
3836	65.2075
3832	65.1492
3828	65.1545
3824	65.178
3820	65.1322
3816	65.0484
3812	64.8414
3808	64.7623
3804	64.9479
3800	65.0398
3796	64.8516
3792	64.7359
3788	65.0138
3784	65.3168
3780	65.2761
3776	65.0894
3772	64.9246
3768	64.8591
3764	64.97
3760	65.0897
3756	65.116
3752	65.0972
3748	65.0552
3744	65.027
3740	65.0378
3736	65.0839
3732	65.1707
3728	65.2174
3724	65.1267
3720	64.9893
3716	64.9202
3712	64.9197
3708	64.9541
3704	65.0283
3700	65.1074
3696	65.1154
3692	65.0576
3688	65.0279
3684	65.0704
3680	65.0762
3676	65.0084
3672	64.9997
3668	65.058
3664	65.1499
3660	65.2602
3656	65.2492
3652	65.1521
3648	65.0429
3644	64.9926
3640	65.1297
3636	65.2102
3632	65.0674
3628	64.9226
3624	64.8782
3620	64.9278
3616	65.0267
3612	65.0674
3608	65.0826
3604	65.1327
3600	65.1047
3596	64.9968
3592	64.9557
3588	65.007
3584	65.078
3580	65.098
3576	65.1098
3572	65.1987
3568	65.2719
3564	65.1841
3560	65.0401
3556	64.9996
3552	65.0511
3548	65.1212
3544	65.1708
3540	65.2031
3536	65.1803
3532	65.093
3528	65.0537
3524	65.1785
3520	65.3872
3516	65.4117
3512	65.2821
3508	65.2387
3504	65.2251
3500	65.2375
3496	65.3032
3492	65.2716
3488	65.184
3484	65.1646
3480	65.1755
3476	65.1707
3472	65.1768
3468	65.219
3464	65.2663
3460	65.2392
3456	65.1671
3452	65.1521
3448	65.126
3444	64.9954
3440	64.901
3436	64.9544
3432	65.0068
3428	64.9286
3424	64.8953
3420	64.9969
3416	65.0212
3412	65.0072
3408	65.0537
3404	65.044
3400	65.0327
3396	65.0709
3392	65.0645
3388	65.0589
3384	65.0895
3380	65.0864
3376	65.1239
3372	65.2297
3368	65.2494
3364	65.1431
3360	64.9809
3356	64.8314
3352	64.8082
3348	64.8977
3344	64.9691
3340	64.9952
3336	65.0132
3332	65.0567
3328	65.117
3324	65.1388
3320	65.0886
3316	65.0222
3312	65.0237
3308	65.0471
3304	65.0133
3300	64.9666
3296	64.9444
3292	64.9113
3288	64.9033
3284	64.9583
3280	65.0282
3276	65.0482
3272	65.0089
3268	64.9718
3264	64.9718
3260	65.0033
3256	65.031
3252	65.026
3248	64.9915
3244	64.9913
3240	65.0417
3236	64.9996
3232	64.9073
3228	64.9717
3224	65.1217
3220	65.1893
3216	65.1835
3212	65.1473
3208	65.1555
3204	65.1897
3200	65.1337
3196	65.0553
3192	65.0423
3188	65.0144
3184	64.9817
3180	65.0375
3176	65.1049
3172	65.1393
3168	65.1311
3164	65.0622
3160	65.0439
3156	65.0738
3152	65.0623
3148	65.034
3144	65.007
3140	65.0115
3136	65.0788
3132	65.0974
3128	65.0604
3124	65.06
3120	65.0938
3116	65.1401
3112	65.1958
3108	65.2159
3104	65.1594
3100	65.1742
3096	65.1901
3092	65.0603
3088	64.986
3084	65.0184
3080	65.0696
3076	65.1331
3072	65.1481
3068	65.0979
3064	65.0825
3060	65.1082
3056	65.0913
3052	65.0486
3048	64.9861
3044	64.9252
3040	64.9268
3036	64.9449
3032	64.946
3028	64.9617
3024	65.0277
3020	65.0805
3016	65.0701
3012	65.0768
3008	65.0661
3004	65.0283
3000	65.0109
2996	64.9723
2992	64.9856
2988	65.0661
2984	65.0791
2980	65.0263
2976	64.9368
2972	64.8526
2968	64.847
2964	64.8572
2960	64.8467
2956	64.8417
2952	64.8419
2948	64.8882
2944	64.9439
2940	64.95
2936	64.9368
2932	64.8969
2928	64.8342
2924	64.7787
2920	64.7188
2916	64.7182
2912	64.8126
2908	64.8728
2904	64.8767
2900	64.8834
2896	64.9231
2892	65.0047
2888	65.0352
2884	64.9819
2880	64.9572
2876	64.994
2872	65.0121
2868	65.026
2864	65.0814
2860	65.077
2856	64.9592
2852	64.8867
2848	64.9047
2844	64.9362
2840	64.9502
2836	64.9182
2832	64.9023
2828	64.9599
2824	65.0054
2820	64.9603
2816	64.8853
2812	64.8746
2808	64.9302
2804	64.9647
2800	64.9406
2796	64.9303
2792	64.9634
2788	65.0158
2784	65.041
2780	64.9916
2776	64.9491
2772	64.9498
2768	64.9161
2764	64.8927
2760	64.9318
2756	64.9906
2752	65.0074
2748	64.9317
2744	64.8787
2740	64.9437
2736	64.999
2732	64.9732
2728	64.9334
2724	64.9221
2720	64.9641
2716	65.031
2712	65.0633
2708	65.052
2704	64.9896
2700	64.9398
2696	64.9536
2692	64.9988
2688	65.0466
2684	65.0439
2680	64.9967
2676	64.9738
2672	64.9881
2668	64.9903
2664	64.971
2660	64.9587
2656	64.9437
2652	64.9478
2648	64.9534
2644	64.9185
2640	64.919
2636	64.978
2632	64.9756
2628	64.9056
2624	64.866
2620	64.8596
2616	64.8793
2612	64.8868
2608	64.8682
2604	64.9223
2600	65.0208
2596	65.0277
2592	64.9823
2588	64.9771
2584	64.9589
2580	64.9388
2576	64.9447
2572	64.9238
2568	64.8815
2564	64.8456
2560	64.8287
2556	64.8569
2552	64.9321
2548	64.9977
2544	65.0155
2540	65.0052
2536	64.9957
2532	64.9702
2528	64.9245
2524	64.9139
2520	64.9183
2516	64.9349
2512	65.0111
2508	65.0205
2504	64.9576
2500	64.9731
2496	64.9631
2492	64.8937
2488	64.9159
2484	64.98
2480	64.9502
2476	64.8805
2472	64.8628
2468	64.8034
2464	64.7297
2460	64.7729
2456	64.8074
2452	64.7932
2448	64.8358
2444	64.8459
2440	64.7945
2436	64.8429
2432	64.9599
2428	64.9611
2424	64.889
2420	64.8532
2416	64.8054
2412	64.7401
2408	64.7377
2404	64.7938
2400	64.8441
2396	64.8685
2392	64.8919
2388	64.9012
2384	64.8716
2380	64.8346
2376	64.804
2372	64.7488
2368	64.6628
2364	64.619
2360	64.6411
2356	64.6751
2352	64.7345
2348	64.8091
2344	64.8122
2340	64.7626
2336	64.7103
2332	64.6576
2328	64.6813
2324	64.7479
2320	64.7562
2316	64.7581
2312	64.7776
2308	64.7911
2304	64.8001
2300	64.7997
2296	64.7932
2292	64.7979
2288	64.8138
2284	64.8032
2280	64.7408
2276	64.676
2272	64.714
2268	64.8144
2264	64.8476
2260	64.8462
2256	64.848
2252	64.7896
2248	64.7225
2244	64.7337
2240	64.7604
2236	64.7507
2232	64.7231
2228	64.6983
2224	64.7349
2220	64.8008
2216	64.7954
2212	64.7557
2208	64.759
2204	64.7762
2200	64.7516
2196	64.723
2192	64.7137
2188	64.7005
2184	64.7228
2180	64.7836
2176	64.7644
2172	64.6655
2168	64.6608
2164	64.7319
2160	64.7773
2156	64.8252
2152	64.8469
2148	64.7978
2144	64.783
2140	64.7885
2136	64.6795
2132	64.587
2128	64.6609
2124	64.7451
2120	64.7326
2116	64.7179
2112	64.7191
2108	64.7249
2104	64.7773
2100	64.8181
2096	64.802
2092	64.7586
2088	64.6879
2084	64.662
2080	64.7017
2076	64.7106
2072	64.7478
2068	64.8239
2064	64.7945
2060	64.7017
2056	64.6693
2052	64.69
2048	64.711
2044	64.7061
2040	64.6781
2036	64.6556
2032	64.6644
2028	64.6866
2024	64.6662
2020	64.6378
2016	64.6577
2012	64.7053
2008	64.7478
2004	64.7433
2000	64.7248
1996	64.7452
1992	64.7771
1988	64.7834
1984	64.7651
1980	64.7383
1976	64.6863
1972	64.6443
1968	64.6597
1964	64.6784
1960	64.642
1956	64.5786
1952	64.5588
1948	64.5849
1944	64.6068
1940	64.6576
1936	64.7273
1932	64.7326
1928	64.7084
1924	64.6825
1920	64.6317
1916	64.5767
1912	64.5519
1908	64.5565
1904	64.5553
1900	64.5551
1896	64.5756
1892	64.5625
1888	64.5405
1884	64.6017
1880	64.6497
1876	64.6082
1872	64.6096
1868	64.6504
1864	64.6548
1860	64.6596
1856	64.6217
1852	64.5479
1848	64.5109
1844	64.5469
1840	64.628
1836	64.635
1832	64.5871
1828	64.5919
1824	64.6117
1820	64.5706
1816	64.5225
1812	64.5201
1808	64.5262
1804	64.5167
1800	64.5214
1796	64.5589
1792	64.5609
1788	64.4859
1784	64.4424
1780	64.4919
1776	64.5446
1772	64.5378
1768	64.4792
1764	64.4245
1760	64.4177
1756	64.4253
1752	64.4298
1748	64.4237
1744	64.393
1740	64.354
1736	64.3292
1732	64.3494
1728	64.3847
1724	64.3875
1720	64.4149
1716	64.4475
1712	64.4032
1708	64.3719
1704	64.3879
1700	64.4002
1696	64.4003
1692	64.3708
1688	64.3367
1684	64.3145
1680	64.3082
1676	64.3273
1672	64.3611
1668	64.4054
1664	64.4563
1660	64.4826
1656	64.4482
1652	64.3898
1648	64.3716
1644	64.3539
1640	64.3063
1636	64.3096
1632	64.3689
1628	64.3952
1624	64.3409
1620	64.2457
1616	64.2379
1612	64.3347
1608	64.4222
1604	64.4275
1600	64.3344
1596	64.2507
1592	64.2485
1588	64.2482
1584	64.2221
1580	64.1693
1576	64.1243
1572	64.1697
1568	64.2686
1564	64.3176
1560	64.2957
1556	64.2834
1552	64.2977
1548	64.2727
1544	64.2333
1540	64.2336
1536	64.2219
1532	64.1961
1528	64.2204
1524	64.2887
1520	64.3645
1516	64.3781
1512	64.3094
1508	64.2423
1504	64.1938
1500	64.146
1496	64.1643
1492	64.2178
1488	64.222
1484	64.2345
1480	64.253
1476	64.2233
1472	64.168
1468	64.134
1464	64.1357
1460	64.1532
1456	64.175
1452	64.2341
1448	64.2884
1444	64.231
1440	64.1299
1436	64.1175
1432	64.1531
1428	64.1661
1424	64.2013
1420	64.2508
1416	64.267
1412	64.2457
1408	64.1815
1404	64.1547
1400	64.1466
1396	64.0825
1392	64.0528
1388	64.0569
1384	64.0488
1380	64.0361
1376	64.0256
1372	64.0718
1368	64.1138
1364	64.0805
1360	64.1035
1356	64.197
1352	64.1773
1348	64.0748
1344	64.0718
1340	64.1373
1336	64.1818
1332	64.2162
1328	64.2125
1324	64.1392
1320	64.0676
1316	64.0617
1312	64.052
1308	63.9948
1304	64.0031
1300	64.1474
1296	64.2501
1292	64.1723
1288	64.0943
1284	64.1215
1280	64.15
1276	64.1509
1272	64.1522
1268	64.185
1264	64.1809
1260	64.0842
1256	63.9991
1252	63.9713
1248	63.9766
1244	63.9769
1240	63.9204
1236	63.8731
1232	63.8852
1228	63.9124
1224	63.9452
1220	63.9445
1216	63.8604
1212	63.8202
1208	63.9168
1204	63.9939
1200	63.9669
1196	63.8872
1192	63.8515
1188	63.8797
1184	63.8988
1180	63.8998
1176	63.9052
1172	63.9515
1168	63.9723
1164	63.8672
1160	63.7165
1156	63.6712
1152	63.718
1148	63.7512
1144	63.7697
1140	63.8735
1136	63.9722
1132	63.9245
1128	63.8168
1124	63.8023
1120	63.8192
1116	63.7936
1112	63.8508
1108	64.0189
1104	64.1143
1100	64.0822
1096	63.9966
1092	63.922
1088	63.9379
1084	63.9667
1080	63.8791
1076	63.7405
1072	63.6943
1068	63.7105
1064	63.7442
1060	63.8118
1056	63.7972
1052	63.7496
1048	63.8264
1044	63.8783
1040	63.7975
1036	63.7358
1032	63.7493
1028	63.7943
1024	63.8285
1020	63.7818
1016	63.6955
1012	63.6965
1008	63.7949
1004	63.8516
1000	63.832
996	 63.8314
992	 63.8318
988	 63.8363
984	 64.0224
980	 64.2799
976	 64.2396
972	 64.0178
968	 63.8765
964	 63.811
960	 63.7995
956	 63.818
952	 63.8902
948	 63.9176
944	 63.7897
940	 63.664
936	 63.6439
932	 63.7101
928	 63.8475
924	 63.9122
920	 63.777
916	 63.6327
912	 63.6703
908	 63.7895
904	 63.8166
900	 63.7175
896	 63.6483
892	 63.6452
888	 63.7246
884	 63.9012
880	 63.9846
876	 63.9997
872	 63.9387
868	 63.7074
864	 63.6164
860	 63.7507
856	 63.8711
852	 63.9418
848	 64.0129
844	 64.091
840	 64.0541
836	 63.8987
832	 63.868
828	 63.9789
824	 64.0021
820	 63.9485
816	 63.9361
812	 63.8899
808	 63.822
804	 63.7862
800	 63.7453
796	 63.7519
792	 63.8371
788	 63.8556
784	 63.8262
780	 63.8509
776	 63.872
772	 63.7922
768	 63.6929
764	 63.6645
760	 63.6306
756	 63.6375
752	 63.6507
748	 63.5478
744	 63.4479
740	 63.3975
736	 63.3263
732	 63.3581
728	 63.499
724	 63.5725
720	 63.6067
716	 63.688
712	 63.7028
708	 63.6545
704	 63.6116
700	 63.4631
696	 63.2401
692	 63.2401
688	 63.4049
684	 63.4674
680	 63.6156
676	 63.6706
672	 63.4027
668	 63.3498
664	 63.5594
660	 63.7399
656	 63.7996
652	 63.6687
648	 63.4572
644	 63.0164
640	 62.7323
636	 63.0479
632	 63.3141
628	 63.2406
624	 63.4828
620	 64.1903
616	 64.3929
612	 63.8946
608	 63.6536
604	 63.8378
600	 63.7645
596	 63.2557
592	 63.0023
588	 63.5299
584	 64.1543
580	 64.1191
576	 63.5135
572	 62.9986
568	 63.4447
564	 64.0012
560	 63.8765
556	 63.5644
552	 63.0476
548	 62.9511
544	 63.6067
540	 63.9769
536	 64.077
532	 64.2274
528	 64.0769
524	 63.6738
520	 63.3101
516	 63.4651
512	 63.9041
508	 63.6028
504	 63.1796
500	 63.445
496	 63.5755
492	 63.3507
488	 63.3817
484	 63.6462
480	 63.4825
476	 63.0545
472	 63.1547
468	 63.6596
464	 64.0684
460	 64.4748
456	 64.653
452	 64.6408
448	 64.6399
444	 63.8525
440	 62.5564
436	 62.1365
432	 62.6229
428	 63.562
424	 64.4455
420	 64.4337
416	 63.4379
412	 62.6162
408	 62.9969
404	 65.154
400	 67.4687
396	 65.0498
392	 58.643
388	 55.7653
384	 56.1047
380	 53.3362
376	 51.4793
372	 52.3295
370	 50.1273