File: Bakgrunnsmateriale/MATLAB/FTIR/ftir_data/subAa/Mapping_121/BZ1503107-1_t31_cm-1.asc
PE IR       SPECTRUM    SPECTRUM    ASCII       PEDS        1.60
  -1
BZ69A0~1.ASC
17/04/07
15:46:48.00
17/04/07
15:46:48.00
tln
$BZ1503107-1_t0031$<tbV0>[-7.8,-7.8,8.0,0.0,27,1,0]
370
64

2002,4.07
MIRTGS : RIGHTBACK : INTERNAL 2
MIR : ON : INTERNAL 2
OPTKBR

0.200000
8
8.000000
FILLER
RATIO
SPECTRUM
UNLOCKED 256

DOUBLE
64
COMBINED
1
0
0

1.000000
RATIO

1
0
TRUE
51149
0
LEFT NOT FITTED RIGHT NOT FITTED 0
NONE
NONE
15600
12
4.427000
51148
TRUE
1 0 8 72 0 0 0 0

15798

#HDR
-1
-1
#GR
CM-1
%T
2.38419e-05
0.0
5000
-1.000000
4631
8
87.6863
44.2566
#DATA
5000	64.7804
4996	64.447
4992	64.2718
4988	64.3656
4984	64.6409
4980	64.9266
4976	65.0234
4972	64.8967
4968	64.8889
4964	65.0573
4960	65.0862
4956	64.8818
4952	64.7161
4948	64.8035
4944	64.9467
4940	65.028
4936	64.8211
4932	64.404
4928	64.3699
4924	64.6002
4920	64.6639
4916	64.5567
4912	64.4005
4908	64.3905
4904	64.5659
4900	64.597
4896	64.4868
4892	64.6292
4888	64.7859
4884	64.6891
4880	64.6592
4876	64.6317
4872	64.5193
4868	64.6482
4864	65.0695
4860	65.4461
4856	65.4219
4852	65.0384
4848	64.7278
4844	64.8504
4840	65.0762
4836	65.1118
4832	65.0857
4828	65.0273
4824	65.1036
4820	65.146
4816	64.9248
4812	64.7565
4808	64.7123
4804	64.8435
4800	65.0171
4796	64.8589
4792	64.7807
4788	64.9691
4784	65.1146
4780	65.1664
4776	65.0954
4772	64.9391
4768	64.878
4764	64.8667
4760	64.8714
4756	65.0373
4752	65.0503
4748	64.8227
4744	64.6986
4740	64.7608
4736	64.9201
4732	65.0362
4728	65.0173
4724	64.8949
4720	65.0172
4716	65.4434
4712	65.6342
4708	65.4544
4704	65.1823
4700	64.8791
4696	64.7798
4692	64.9503
4688	65.0041
4684	64.9571
4680	64.9907
4676	64.9609
4672	64.8387
4668	64.805
4664	64.8114
4660	64.8249
4656	64.9009
4652	64.8893
4648	64.9064
4644	65.022
4640	64.9942
4636	64.8647
4632	64.7755
4628	64.7913
4624	64.8275
4620	64.8528
4616	65.0188
4612	65.2188
4608	65.3373
4604	65.2178
4600	64.8863
4596	64.7627
4592	64.7959
4588	64.7164
4584	64.6965
4580	64.8924
4576	65.0208
4572	64.8924
4568	64.7352
4564	64.7091
4560	64.7519
4556	64.6517
4552	64.4318
4548	64.4745
4544	64.7323
4540	64.8474
4536	64.8241
4532	64.8007
4528	64.8541
4524	64.8705
4520	64.7899
4516	64.8731
4512	65.0419
4508	64.9942
4504	64.7646
4500	64.4981
4496	64.3096
4492	64.3269
4488	64.4892
4484	64.6707
4480	64.7315
4476	64.4807
4472	64.3297
4468	64.6942
4464	64.9966
4460	65.0414
4456	64.9257
4452	64.7468
4448	64.8352
4444	64.8877
4440	65.5432
4436	66.9131
4432	69.6442
4428	77.3107
4424	78.0068
4420	60.0214
4416	52.3245
4412	60.2993
4408	65.1429
4404	67.5686
4400	68.5519
4396	66.6907
4392	65.8026
4388	65.5679
4384	65.3339
4380	65.1267
4376	65.0783
4372	65.201
4368	65.2977
4364	65.1741
4360	65.002
4356	64.9517
4352	64.9153
4348	64.9554
4344	65.0918
4340	65.1281
4336	65.1056
4332	65.0453
4328	64.9009
4324	64.7943
4320	64.7672
4316	64.7426
4312	64.6804
4308	64.6284
4304	64.6651
4300	64.7338
4296	64.8745
4292	65.0636
4288	65.0707
4284	64.9734
4280	65.0125
4276	65.0968
4272	65.1305
4268	65.1601
4264	65.0652
4260	64.9223
4256	64.8765
4252	64.8159
4248	64.7488
4244	64.7364
4240	64.7405
4236	64.7745
4232	64.8412
4228	64.8484
4224	64.7963
4220	64.7862
4216	64.8545
4212	64.9132
4208	64.9256
4204	65.0071
4200	65.1038
4196	65.0403
4192	64.8725
4188	64.7534
4184	64.8117
4180	64.9279
4176	64.8661
4172	64.7857
4168	64.8932
4164	64.9801
4160	64.8985
4156	64.8829
4152	64.8783
4148	64.8094
4144	65.0432
4140	65.3353
4136	65.2313
4132	65.0707
4128	65.1297
4124	65.1519
4120	65.0777
4116	65.1027
4112	65.1866
4108	65.1928
4104	65.0932
4100	65.0156
4096	65.0535
4092	65.0347
4088	64.9522
4084	64.9546
4080	65.0884
4076	65.2452
4072	65.1637
4068	65.0164
4064	64.9842
4060	64.9388
4056	64.9827
4052	65.1003
4048	65.0676
4044	64.9027
4040	64.9285
4036	65.0658
4032	64.9913
4028	64.896
4024	64.9427
4020	65.0026
4016	65.0157
4012	64.9955
4008	64.9717
4004	65.0152
4000	65.1098
3996	65.1525
3992	65.1616
3988	65.2574
3984	65.3143
3980	65.2345
3976	65.1469
3972	65.0108
3968	64.9182
3964	64.9497
3960	64.8854
3956	64.7964
3952	64.8551
3948	64.9122
3944	64.9372
3940	65.034
3936	65.1277
3932	65.1613
3928	65.1566
3924	65.0577
3920	64.9135
3916	64.8591
3912	64.8236
3908	64.8106
3904	64.9077
3900	64.9683
3896	64.9821
3892	65.0682
3888	65.1271
3884	65.0938
3880	65.1242
3876	65.185
3872	65.1189
3868	65.0424
3864	65.0914
3860	65.1757
3856	65.1372
3852	65.0619
3848	65.0351
3844	64.9968
3840	64.9753
3836	64.9538
3832	65.0102
3828	65.135
3824	65.1663
3820	65.1687
3816	65.193
3812	65.1749
3808	65.1897
3804	65.2758
3800	65.3311
3796	65.3507
3792	65.2973
3788	65.0581
3784	64.8465
3780	64.925
3776	65.0953
3772	65.1981
3768	65.3013
3764	65.3339
3760	65.2735
3756	65.2093
3752	65.1934
3748	65.1633
3744	65.0825
3740	65.0647
3736	65.1056
3732	65.1485
3728	65.2432
3724	65.2669
3720	65.1801
3716	65.1443
3712	65.2018
3708	65.2366
3704	65.1864
3700	65.166
3696	65.1786
3692	65.2118
3688	65.2112
3684	65.06
3680	64.959
3676	65.0532
3672	65.2299
3668	65.3722
3664	65.3501
3660	65.2668
3656	65.2919
3652	65.3006
3648	65.2026
3644	65.1229
3640	65.1255
3636	65.1908
3632	65.2521
3628	65.1993
3624	65.1182
3620	65.1235
3616	65.2119
3612	65.3274
3608	65.3517
3604	65.2997
3600	65.2441
3596	65.2072
3592	65.2048
3588	65.1695
3584	65.128
3580	65.1066
3576	65.0663
3572	65.0487
3568	65.0445
3564	65.0395
3560	65.0806
3556	65.1775
3552	65.199
3548	65.109
3544	65.058
3540	65.0415
3536	64.9886
3532	64.9423
3528	64.9045
3524	64.8834
3520	64.9256
3516	64.9684
3512	65.0166
3508	65.146
3504	65.1883
3500	65.0466
3496	64.964
3492	65.0385
3488	65.0825
3484	65.0609
3480	65.087
3476	65.1549
3472	65.1977
3468	65.1593
3464	65.0427
3460	64.9577
3456	64.9755
3452	65.0663
3448	65.1505
3444	65.1521
3440	65.1002
3436	65.0229
3432	64.971
3428	65.0736
3424	65.197
3420	65.1081
3416	64.9679
3412	65.0175
3408	65.2027
3404	65.3016
3400	65.193
3396	65.082
3392	65.1229
3388	65.2631
3384	65.3897
3380	65.3204
3376	65.1761
3372	65.1331
3368	65.0868
3364	65.0697
3360	65.1531
3356	65.1598
3352	65.0532
3348	65.0921
3344	65.2624
3340	65.2792
3336	65.1441
3332	65.0085
3328	64.9727
3324	65.0871
3320	65.1563
3316	65.0684
3312	64.9909
3308	64.9694
3304	64.9169
3300	64.9248
3296	65.0536
3292	65.1462
3288	65.1225
3284	65.0544
3280	65.0522
3276	65.1135
3272	65.0993
3268	65.039
3264	65.0088
3260	64.9456
3256	64.8771
3252	64.9422
3248	65.1144
3244	65.1958
3240	65.1701
3236	65.1161
3232	65.0249
3228	65.0437
3224	65.1784
3220	65.1794
3216	65.0805
3212	65.0497
3208	65.0707
3204	65.0269
3200	64.9431
3196	64.9287
3192	64.9604
3188	64.9634
3184	64.9443
3180	64.9922
3176	65.1116
3172	65.1875
3168	65.1808
3164	65.1314
3160	65.1114
3156	65.1589
3152	65.134
3148	64.9988
3144	64.9304
3140	64.9604
3136	65.0211
3132	65.1774
3128	65.2915
3124	65.196
3120	65.1078
3116	65.0942
3112	65.0582
3108	65.0504
3104	65.1044
3100	65.1307
3096	65.0838
3092	65.0144
3088	64.9747
3084	65.0289
3080	65.1014
3076	65.0879
3072	65.0174
3068	65.0007
3064	65.1066
3060	65.2216
3056	65.24
3052	65.2038
3048	65.1446
3044	65.1006
3040	65.1009
3036	65.0763
3032	64.9936
3028	64.9515
3024	64.9767
3020	64.971
3016	64.9791
3012	65.0284
3008	65.0544
3004	65.0849
3000	65.1268
2996	65.1654
2992	65.2139
2988	65.2116
2984	65.1272
2980	65.024
2976	64.9623
2972	64.9362
2968	64.9096
2964	64.9096
2960	64.9578
2956	65.0009
2952	64.9623
2948	64.9399
2944	64.9581
2940	64.9147
2936	64.9277
2932	65.025
2928	65.0991
2924	65.1105
2920	65.0734
2916	65.0229
2912	64.9909
2908	65.0106
2904	65.0486
2900	65.1151
2896	65.1338
2892	65.0428
2888	65.0594
2884	65.1813
2880	65.2002
2876	65.1571
2872	65.0875
2868	65.0063
2864	65.0515
2860	65.1153
2856	65.0629
2852	65.0049
2848	64.9732
2844	64.9769
2840	65.0031
2836	64.9804
2832	64.9956
2828	65.1066
2824	65.1271
2820	64.9899
2816	64.9204
2812	64.9875
2808	65.041
2804	65.0082
2800	64.9813
2796	65.0674
2792	65.1748
2788	65.1809
2784	65.0858
2780	65.0165
2776	65.0579
2772	65.1298
2768	65.1658
2764	65.1622
2760	65.1477
2756	65.146
2752	65.1697
2748	65.2123
2744	65.2147
2740	65.1596
2736	65.0709
2732	65.0037
2728	65.0339
2724	65.117
2720	65.1408
2716	65.0442
2712	64.8962
2708	64.8755
2704	64.9806
2700	65.0522
2696	65.0445
2692	64.9805
2688	64.9588
2684	65.0016
2680	65.022
2676	65.0251
2672	65.0047
2668	64.9671
2664	64.977
2660	65.0021
2656	64.959
2652	64.9142
2648	64.9265
2644	64.9553
2640	65.0018
2636	65.0348
2632	65.0266
2628	64.991
2624	64.9505
2620	64.9436
2616	64.9147
2612	64.8727
2608	64.9317
2604	65.0522
2600	65.0967
2596	65.0055
2592	64.8911
2588	64.9094
2584	64.9896
2580	65.0041
2576	64.9968
2572	64.9957
2568	65.0148
2564	65.0862
2560	65.1099
2556	65.048
2552	65.0004
2548	64.9822
2544	64.9776
2540	64.9834
2536	64.9848
2532	64.9943
2528	64.9816
2524	64.9219
2520	64.8684
2516	64.8857
2512	64.9514
2508	64.9905
2504	64.9923
2500	64.9728
2496	64.933
2492	64.8999
2488	64.9003
2484	64.9017
2480	64.8967
2476	64.9312
2472	64.983
2468	64.9714
2464	64.9131
2460	64.8661
2456	64.835
2452	64.8948
2448	65.0136
2444	65.0502
2440	65.0283
2436	64.9813
2432	64.9536
2428	64.9629
2424	64.9458
2420	64.9178
2416	64.955
2412	65.0357
2408	65.0367
2404	64.9991
2400	64.9844
2396	64.9899
2392	65.02
2388	64.9991
2384	64.9164
2380	64.8607
2376	64.8896
2372	64.9339
2368	64.9101
2364	64.8933
2360	64.9529
2356	65.0037
2352	64.9999
2348	64.9729
2344	64.9459
2340	64.9322
2336	64.9453
2332	65.0021
2328	65.0017
2324	64.9448
2320	64.9635
2316	64.9977
2312	64.9401
2308	64.8721
2304	64.8849
2300	64.8804
2296	64.8536
2292	64.8885
2288	64.9274
2284	64.9492
2280	64.9382
2276	64.8471
2272	64.7767
2268	64.7917
2264	64.814
2260	64.8409
2256	64.8839
2252	64.9096
2248	64.9211
2244	64.913
2240	64.8607
2236	64.8487
2232	64.9239
2228	64.9312
2224	64.8962
2220	64.9321
2216	64.9088
2212	64.844
2208	64.8913
2204	64.9852
2200	65.024
2196	65.0099
2192	64.9627
2188	64.9115
2184	64.9176
2180	64.9449
2176	64.915
2172	64.8658
2168	64.8175
2164	64.7702
2160	64.7554
2156	64.7637
2152	64.7481
2148	64.7125
2144	64.7295
2140	64.7741
2136	64.7977
2132	64.8265
2128	64.781
2124	64.7085
2120	64.7663
2116	64.8432
2112	64.7999
2108	64.761
2104	64.7997
2100	64.8451
2096	64.8902
2092	64.899
2088	64.875
2084	64.8165
2080	64.7852
2076	64.8333
2072	64.8649
2068	64.8464
2064	64.7735
2060	64.7239
2056	64.7932
2052	64.8516
2048	64.7918
2044	64.7428
2040	64.7577
2036	64.765
2032	64.7824
2028	64.8265
2024	64.8662
2020	64.8527
2016	64.7951
2012	64.767
2008	64.7718
2004	64.7794
2000	64.7677
1996	64.7359
1992	64.7142
1988	64.7378
1984	64.8024
1980	64.8116
1976	64.7816
1972	64.8338
1968	64.8668
1964	64.7674
1960	64.6399
1956	64.6155
1952	64.7009
1948	64.7555
1944	64.7548
1940	64.7744
1936	64.7942
1932	64.7654
1928	64.702
1924	64.6947
1920	64.7263
1916	64.7166
1912	64.687
1908	64.658
1904	64.6202
1900	64.606
1896	64.658
1892	64.7563
1888	64.8066
1884	64.7457
1880	64.6619
1876	64.6651
1872	64.6801
1868	64.6373
1864	64.6195
1860	64.6677
1856	64.735
1852	64.7665
1848	64.7462
1844	64.7059
1840	64.6789
1836	64.6814
1832	64.6691
1828	64.6393
1824	64.6202
1820	64.6195
1816	64.615
1812	64.5645
1808	64.5511
1804	64.6009
1800	64.6482
1796	64.7067
1792	64.7376
1788	64.7056
1784	64.6499
1780	64.5783
1776	64.5279
1772	64.5274
1768	64.5528
1764	64.5891
1760	64.5752
1756	64.5311
1752	64.5132
1748	64.4676
1744	64.4149
1740	64.3888
1736	64.3538
1732	64.312
1728	64.312
1724	64.3582
1720	64.4064
1716	64.4233
1712	64.411
1708	64.4315
1704	64.4896
1700	64.5658
1696	64.6253
1692	64.6424
1688	64.6326
1684	64.5468
1680	64.4944
1676	64.5816
1672	64.6789
1668	64.7016
1664	64.6423
1660	64.5187
1656	64.4308
1652	64.4607
1648	64.5197
1644	64.5069
1640	64.497
1636	64.5143
1632	64.4656
1628	64.3842
1624	64.3323
1620	64.3045
1616	64.3447
1612	64.4464
1608	64.5064
1604	64.4624
1600	64.3806
1596	64.3792
1592	64.418
1588	64.4227
1584	64.4049
1580	64.3921
1576	64.4366
1572	64.5036
1568	64.5341
1564	64.5675
1560	64.5518
1556	64.4569
1552	64.4013
1548	64.4347
1544	64.4278
1540	64.3353
1536	64.3155
1532	64.3298
1528	64.2703
1524	64.2516
1520	64.3358
1516	64.4234
1512	64.4456
1508	64.4237
1504	64.4131
1500	64.4007
1496	64.3394
1492	64.3856
1488	64.5389
1484	64.5689
1480	64.4907
1476	64.4232
1472	64.3991
1468	64.3643
1464	64.2985
1460	64.2402
1456	64.2377
1452	64.2743
1448	64.3014
1444	64.3452
1440	64.403
1436	64.4162
1432	64.3839
1428	64.3761
1424	64.3949
1420	64.3643
1416	64.3227
1412	64.3033
1408	64.2782
1404	64.2697
1400	64.2666
1396	64.2529
1392	64.2179
1388	64.1893
1384	64.1997
1380	64.188
1376	64.1954
1372	64.3179
1368	64.4063
1364	64.3061
1360	64.19
1356	64.1702
1352	64.14
1348	64.1258
1344	64.2236
1340	64.3774
1336	64.4348
1332	64.3798
1328	64.2994
1324	64.2242
1320	64.2093
1316	64.2671
1312	64.2967
1308	64.2625
1304	64.2093
1300	64.1612
1296	64.1344
1292	64.1416
1288	64.1363
1284	64.1136
1280	64.1297
1276	64.1687
1272	64.2005
1268	64.2298
1264	64.2489
1260	64.2099
1256	64.1668
1252	64.2261
1248	64.2838
1244	64.2555
1240	64.2176
1236	64.2044
1232	64.1714
1228	64.1091
1224	64.1014
1220	64.1793
1216	64.2367
1212	64.1871
1208	64.086
1204	64.0913
1200	64.2114
1196	64.253
1192	64.173
1188	64.0698
1184	64.0078
1180	64.0352
1176	64.0814
1172	64.0808
1168	64.1053
1164	64.1504
1160	64.1348
1156	64.0481
1152	63.9601
1148	63.9867
1144	64.071
1140	64.0167
1136	63.9591
1132	64.048
1128	64.0782
1124	64.0579
1120	64.1392
1116	64.1962
1112	64.1603
1108	64.1247
1104	64.1169
1100	64.1013
1096	64.0776
1092	64.0832
1088	64.132
1084	64.1457
1080	64.0995
1076	64.0866
1072	64.0952
1068	64.0949
1064	64.0906
1060	64.0525
1056	64.0322
1052	64.1313
1048	64.2379
1044	64.1336
1040	63.9789
1036	63.9637
1032	64.0227
1028	64.0695
1024	64.0625
1020	64.0303
1016	64.0171
1012	64.0439
1008	64.0288
1004	63.9628
1000	64.0114
996	 64.1136
992	 64.0773
988	 63.9726
984	 63.9385
980	 63.9749
976	 64.0389
972	 64.061
968	 64.0292
964	 64.003
960	 64.044
956	 64.1186
952	 64.1787
948	 64.1903
944	 64.0688
940	 63.97
936	 64.0176
932	 64.0332
928	 64.0119
924	 64.1122
920	 64.2897
916	 64.3592
912	 64.1873
908	 63.9359
904	 63.8616
900	 63.9158
896	 63.9981
892	 64.0116
888	 63.9241
884	 63.9495
880	 64.1067
876	 64.134
872	 64.0776
868	 64.1104
864	 64.1222
860	 64.0881
856	 64.1098
852	 64.1073
848	 64.0348
844	 63.9707
840	 63.9368
836	 63.9963
832	 64.0536
828	 63.9876
824	 63.9223
820	 63.913
816	 63.9508
812	 64.0401
808	 64.1386
804	 64.1868
800	 64.1587
796	 64.1444
792	 64.2208
788	 64.2995
784	 64.3238
780	 64.36
776	 64.3174
772	 64.1215
768	 63.9866
764	 63.923
760	 63.7743
756	 63.6519
752	 63.6811
748	 63.8335
744	 63.9755
740	 63.9169
736	 63.7586
732	 63.8271
728	 64.1238
724	 64.243
720	 64.169
716	 63.98
712	 63.2683
708	 62.5937
704	 62.8055
700	 63.4979
696	 63.7914
692	 63.5668
688	 63.7195
684	 64.1212
680	 64.0199
676	 63.9204
672	 64.1599
668	 64.3233
664	 63.783
660	 62.9234
656	 62.7302
652	 62.9307
648	 63.1311
644	 63.4252
640	 63.6761
636	 63.872
632	 64.0805
628	 64.187
624	 64.1301
620	 63.9501
616	 63.879
612	 63.9915
608	 63.8502
604	 63.5974
600	 63.9442
596	 64.2907
592	 63.9458
588	 63.5559
584	 63.5969
580	 63.8734
576	 64.1767
572	 64.2668
568	 64.0569
564	 63.8845
560	 63.8517
556	 63.9412
552	 64.0881
548	 63.9921
544	 63.8599
540	 63.8849
536	 63.9282
532	 63.9862
528	 64.0634
524	 64.0924
520	 63.9462
516	 63.6163
512	 63.5809
508	 63.9714
504	 64.2998
500	 64.1611
496	 63.7111
492	 63.5489
488	 63.633
484	 63.8125
480	 64.1691
476	 64.1721
472	 63.7612
468	 63.5087
464	 63.196
460	 62.7456
456	 62.5427
452	 62.5732
448	 63.0964
444	 63.4786
440	 63.0331
436	 62.7299
432	 63.1419
428	 62.8626
424	 62.5236
420	 64.1777
416	 65.5796
412	 65.6137
408	 64.7049
404	 61.3563
400	 57.8992
396	 59.6969
392	 64.3142
388	 67.9803
384	 64.9684
380	 49.3993
376	 46.6086
372	 72.4042
370	 87.6863