File: Bakgrunnsmateriale/MATLAB/FTIR/ftir_data/subAa/Mapping_121/BZ1503107-1_t112_cm-1.asc
PE IR       SPECTRUM    SPECTRUM    ASCII       PEDS        1.60
  -1
BZ4C7B~1.ASC
17/04/07
22:29:52.00
17/04/07
22:29:52.00
tln
$BZ1503107-1_t0112$<tbV0>[10.4,13.0,8.0,0.0,27,1,0]
370
64

2002,4.07
MIRTGS : RIGHTBACK : INTERNAL 2
MIR : ON : INTERNAL 2
OPTKBR

0.200000
8
8.000000
FILLER
RATIO
SPECTRUM
UNLOCKED 256

DOUBLE
64
COMBINED
1
0
0

1.000000
RATIO

1
0
TRUE
51149
0
LEFT NOT FITTED RIGHT NOT FITTED 0
NONE
NONE
15600
12
4.427000
51148
TRUE
1 0 8 72 0 0 0 0

15798

#HDR
-1
-1
#GR
CM-1
%T
2.38419e-05
0.0
5000
-1.000000
4631
8
75.5464
51.2072
#DATA
5000	65.0947
4996	64.5852
4992	64.6233
4988	64.8056
4984	65.1033
4980	65.3712
4976	65.1418
4972	65.0998
4968	65.3928
4964	65.7395
4960	65.9404
4956	65.6296
4952	64.8769
4948	64.367
4944	64.1769
4940	64.1373
4936	64.5653
4932	65.0736
4928	65.2287
4924	65.2408
4920	65.2317
4916	65.1485
4912	65.0716
4908	65.0847
4904	65.1566
4900	65.205
4896	65.1162
4892	64.9176
4888	64.8263
4884	64.9519
4880	64.9842
4876	64.8938
4872	65.0151
4868	65.1325
4864	65.0888
4860	65.0846
4856	65.0364
4852	65.0941
4848	65.2731
4844	65.2557
4840	65.1075
4836	65.0548
4832	65.0674
4828	64.9431
4824	64.7371
4820	64.6431
4816	64.6443
4812	64.6393
4808	64.7014
4804	64.7956
4800	64.7848
4796	64.7784
4792	64.7785
4788	64.665
4784	64.5153
4780	64.3758
4776	64.3064
4772	64.3336
4768	64.4778
4764	64.684
4760	64.799
4756	64.9795
4752	65.0076
4748	64.6928
4744	64.4886
4740	64.5792
4736	64.7612
4732	64.8825
4728	65.018
4724	65.1439
4720	65.1182
4716	65.0389
4712	65.0553
4708	65.169
4704	65.1368
4700	64.8773
4696	64.5939
4692	64.5096
4688	64.5635
4684	64.6057
4680	64.7987
4676	64.9826
4672	64.9186
4668	64.8339
4664	64.8353
4660	64.7269
4656	64.6723
4652	64.9415
4648	65.148
4644	65.1077
4640	65.1375
4636	65.1687
4632	65.0623
4628	64.864
4624	64.8443
4620	65.0814
4616	65.1485
4612	64.9884
4608	64.8747
4604	64.9757
4600	65.197
4596	65.2654
4592	65.2493
4588	65.0697
4584	64.6487
4580	64.5085
4576	64.8445
4572	65.1822
4568	65.2149
4564	65.2545
4560	65.3872
4556	65.3233
4552	65.283
4548	65.3788
4544	65.3689
4540	65.3071
4536	65.2049
4532	65.1138
4528	65.1584
4524	65.3302
4520	65.5393
4516	65.6028
4512	65.5694
4508	65.3382
4504	65.1923
4500	65.4179
4496	65.3565
4492	65.0008
4488	65.0419
4484	65.5238
4480	65.8546
4476	65.604
4472	65.5009
4468	65.8336
4464	66.0279
4460	66.0661
4456	65.7716
4452	64.4055
4448	62.7912
4444	60.3641
4440	53.6914
4436	52.2309
4432	65.1772
4428	75.5464
4424	70.7187
4420	64.5627
4416	63.9847
4412	64.9307
4408	65.6709
4404	65.6109
4400	65.267
4396	65.3551
4392	65.6068
4388	65.5611
4384	65.5464
4380	65.7156
4376	65.7375
4372	65.566
4368	65.5231
4364	65.5004
4360	65.321
4356	65.2209
4352	65.1787
4348	65.1233
4344	65.096
4340	65.0781
4336	65.1013
4332	65.0725
4328	65.039
4324	65.2262
4320	65.4225
4316	65.4479
4312	65.2499
4308	64.9338
4304	64.843
4300	64.9304
4296	64.9688
4292	64.8442
4288	64.7327
4284	64.742
4280	64.8392
4276	65.0601
4272	65.1369
4268	65.0196
4264	65.0022
4260	65.0318
4256	64.9904
4252	64.9405
4248	64.7787
4244	64.5693
4240	64.6499
4236	64.9758
4232	65.1034
4228	64.9216
4224	64.7874
4220	64.9057
4216	65.1466
4212	65.2662
4208	65.2307
4204	65.1834
4200	65.0751
4196	64.9276
4192	64.8671
4188	64.8527
4184	64.8141
4180	64.7036
4176	64.6541
4172	64.8566
4168	65.0429
4164	64.9069
4160	64.7769
4156	64.8359
4152	64.7911
4148	64.685
4144	64.6185
4140	64.5173
4136	64.5374
4132	64.7763
4128	64.9555
4124	64.8742
4120	64.7583
4116	64.8331
4112	65.0662
4108	65.1938
4104	65.1047
4100	65.1175
4096	65.227
4092	65.1904
4088	65.1239
4084	65.0718
4080	65.0221
4076	65.0232
4072	65.0267
4068	65.0164
4064	64.9865
4060	64.9809
4056	65.0089
4052	64.9312
4048	64.7841
4044	64.7491
4040	64.848
4036	64.9575
4032	65.0188
4028	65.0483
4024	65.0543
4020	65.0954
4016	65.23
4012	65.4181
4008	65.4365
4004	65.2215
4000	65.0423
3996	65.0326
3992	65.0128
3988	64.8759
3984	64.82
3980	64.9212
3976	64.9599
3972	64.8959
3968	64.8841
3964	64.8729
3960	64.8493
3956	64.9481
3952	65.086
3948	65.1721
3944	65.2381
3940	65.2796
3936	65.2772
3932	65.1704
3928	65.0157
3924	65.0499
3920	65.2087
3916	65.2221
3912	65.0787
3908	65.0175
3904	65.0785
3900	64.983
3896	64.7899
3892	64.7444
3888	64.8915
3884	65.0207
3880	64.9933
3876	64.9734
3872	64.9695
3868	64.9586
3864	64.9936
3860	65.0812
3856	65.2395
3852	65.3242
3848	65.1916
3844	65.0646
3840	65.1057
3836	65.107
3832	65.0864
3828	65.1717
3824	65.1039
3820	64.8481
3816	64.7544
3812	65.0326
3808	65.3768
3804	65.2715
3800	64.9146
3796	64.7566
3792	64.797
3788	64.9287
3784	65.0599
3780	65.137
3776	65.1816
3772	65.1811
3768	65.0881
3764	64.9471
3760	64.9383
3756	65.065
3752	65.1172
3748	65.1127
3744	65.1489
3740	65.176
3736	65.1137
3732	65.0355
3728	65.0921
3724	65.1368
3720	65.1309
3716	65.1914
3712	65.1473
3708	65.0314
3704	65.0069
3700	65.0058
3696	64.9794
3692	64.9172
3688	64.8987
3684	64.9106
3680	64.9117
3676	64.9948
3672	65.0549
3668	65.0711
3664	65.1848
3660	65.2662
3656	65.1966
3652	65.0562
3648	64.9404
3644	64.9263
3640	65.0273
3636	65.1492
3632	65.1299
3628	65.0241
3624	64.9902
3620	65.0156
3616	65.0527
3612	65.1001
3608	65.1456
3604	65.1269
3600	65.0686
3596	65.0384
3592	65.0704
3588	65.0989
3584	65.021
3580	64.9323
3576	64.8941
3572	64.8828
3568	64.9217
3564	64.9805
3560	65.0251
3556	65.0169
3552	64.9886
3548	65.0009
3544	64.9637
3540	64.8844
3536	64.8667
3532	64.9446
3528	65.0468
3524	65.0386
3520	64.9093
3516	64.8306
3512	64.9042
3508	64.9393
3504	64.9401
3500	64.9889
3496	64.9707
3492	64.988
3488	65.0424
3484	64.984
3480	64.9107
3476	64.9473
3472	65.0072
3468	64.9737
3464	64.9242
3460	64.9172
3456	64.8805
3452	64.8183
3448	64.8501
3444	65.0164
3440	65.1622
3436	65.1708
3432	65.0936
3428	65.0296
3424	65.0245
3420	65.0207
3416	65.044
3412	65.0681
3408	64.9894
3404	64.9598
3400	65.0999
3396	65.2157
3392	65.1094
3388	64.9013
3384	64.7714
3380	64.7872
3376	64.9607
3372	65.1506
3368	65.2106
3364	65.1304
3360	64.9607
3356	64.8435
3352	64.9076
3348	64.9999
3344	65.0247
3340	65.0604
3336	65.0606
3332	64.9937
3328	64.9166
3324	64.9202
3320	64.9481
3316	64.9049
3312	64.8771
3308	64.9051
3304	64.8885
3300	64.8148
3296	64.8166
3292	64.9178
3288	64.9666
3284	64.8904
3280	64.8391
3276	64.8216
3272	64.757
3268	64.8028
3264	64.9001
3260	64.8941
3256	64.8831
3252	64.8944
3248	64.9372
3244	64.9875
3240	64.9561
3236	64.9454
3232	64.9537
3228	64.85
3224	64.8063
3220	64.8777
3216	64.8462
3212	64.8188
3208	64.9125
3204	64.9448
3200	64.911
3196	64.908
3192	64.9239
3188	64.936
3184	64.9287
3180	64.9345
3176	64.9482
3172	64.8885
3168	64.7933
3164	64.7732
3160	64.8496
3156	64.9616
3152	64.9675
3148	64.8706
3144	64.796
3140	64.7755
3136	64.8506
3132	64.9233
3128	64.8598
3124	64.8079
3120	64.8555
3116	64.9055
3112	64.8595
3108	64.7418
3104	64.7287
3100	64.837
3096	64.9111
3092	64.9097
3088	64.9129
3084	64.9294
3080	64.9048
3076	64.8199
3072	64.6881
3068	64.6214
3064	64.7156
3060	64.8671
3056	64.9297
3052	64.8977
3048	64.8607
3044	64.8661
3040	64.8396
3036	64.7898
3032	64.8007
3028	64.7829
3024	64.6884
3020	64.6587
3016	64.738
3012	64.7863
3008	64.7555
3004	64.7259
3000	64.7581
2996	64.8113
2992	64.8155
2988	64.796
2984	64.7998
2980	64.7974
2976	64.7736
2972	64.7901
2968	64.8032
2964	64.7544
2960	64.6867
2956	64.6653
2952	64.6947
2948	64.7059
2944	64.6939
2940	64.6816
2936	64.7045
2932	64.7098
2928	64.6408
2924	64.6193
2920	64.6667
2916	64.691
2912	64.6981
2908	64.651
2904	64.5427
2900	64.5081
2896	64.5571
2892	64.6123
2888	64.6704
2884	64.7168
2880	64.7281
2876	64.7213
2872	64.7161
2868	64.6981
2864	64.6944
2860	64.7601
2856	64.8057
2852	64.778
2848	64.811
2844	64.8981
2840	64.8752
2836	64.7642
2832	64.6896
2828	64.655
2824	64.6327
2820	64.6059
2816	64.5904
2812	64.6559
2808	64.7528
2804	64.717
2800	64.5871
2796	64.5705
2792	64.628
2788	64.6509
2784	64.6936
2780	64.7226
2776	64.6939
2772	64.6743
2768	64.707
2764	64.7486
2760	64.7727
2756	64.7776
2752	64.722
2748	64.6412
2744	64.6306
2740	64.6728
2736	64.6817
2732	64.6818
2728	64.6802
2724	64.6481
2720	64.6468
2716	64.696
2712	64.7471
2708	64.7717
2704	64.7629
2700	64.6625
2696	64.5237
2692	64.4996
2688	64.5628
2684	64.6378
2680	64.6873
2676	64.7092
2672	64.7149
2668	64.6335
2664	64.5723
2660	64.5765
2656	64.5378
2652	64.5748
2648	64.7145
2644	64.8193
2640	64.8109
2636	64.6903
2632	64.577
2628	64.5788
2624	64.6209
2620	64.6263
2616	64.6501
2612	64.7079
2608	64.7368
2604	64.6428
2600	64.5147
2596	64.4703
2592	64.4623
2588	64.5088
2584	64.6017
2580	64.6853
2576	64.7257
2572	64.7133
2568	64.6266
2564	64.4732
2560	64.3843
2556	64.4013
2552	64.4833
2548	64.5762
2544	64.6424
2540	64.7127
2536	64.7246
2532	64.6394
2528	64.5431
2524	64.4962
2520	64.5122
2516	64.5898
2512	64.6483
2508	64.6119
2504	64.5489
2500	64.5121
2496	64.4748
2492	64.4688
2488	64.5116
2484	64.5614
2480	64.549
2476	64.5064
2472	64.5344
2468	64.5276
2464	64.4606
2460	64.4807
2456	64.5293
2452	64.5054
2448	64.4787
2444	64.5052
2440	64.5415
2436	64.5042
2432	64.4217
2428	64.3749
2424	64.3904
2420	64.4566
2416	64.448
2412	64.4364
2408	64.5192
2404	64.5384
2400	64.4999
2396	64.47
2392	64.4603
2388	64.4635
2384	64.4025
2380	64.3781
2376	64.4641
2372	64.5008
2368	64.4686
2364	64.5077
2360	64.5709
2356	64.5916
2352	64.6046
2348	64.573
2344	64.54
2340	64.5302
2336	64.4774
2332	64.446
2328	64.4604
2324	64.4464
2320	64.4361
2316	64.441
2312	64.4401
2308	64.4454
2304	64.4054
2300	64.3593
2296	64.3836
2292	64.4154
2288	64.3957
2284	64.3614
2280	64.3512
2276	64.3579
2272	64.3414
2268	64.3201
2264	64.344
2260	64.3588
2256	64.3186
2252	64.3025
2248	64.3439
2244	64.3572
2240	64.3087
2236	64.2587
2232	64.2661
2228	64.3053
2224	64.347
2220	64.3824
2216	64.3895
2212	64.385
2208	64.3922
2204	64.4029
2200	64.365
2196	64.2895
2192	64.2284
2188	64.1956
2184	64.2223
2180	64.298
2176	64.3263
2172	64.2773
2168	64.2612
2164	64.2964
2160	64.3236
2156	64.3264
2152	64.2737
2148	64.2319
2144	64.2598
2140	64.2904
2136	64.2941
2132	64.3084
2128	64.3416
2124	64.3137
2120	64.2456
2116	64.2493
2112	64.2566
2108	64.2211
2104	64.2138
2100	64.2029
2096	64.1465
2092	64.1033
2088	64.1093
2084	64.1774
2080	64.2375
2076	64.276
2072	64.3368
2068	64.3129
2064	64.217
2060	64.1605
2056	64.1335
2052	64.0719
2048	64.0039
2044	64.0152
2040	64.0437
2036	64.043
2032	64.0561
2028	64.0573
2024	64.0254
2020	63.99
2016	63.9908
2012	64.0352
2008	64.0607
2004	64.0454
2000	64.0448
1996	64.057
1992	64.0351
1988	64.0147
1984	64.0403
1980	64.0597
1976	64.0313
1972	64.0016
1968	64.0039
1964	64.0213
1960	64.0326
1956	64.0033
1952	63.9556
1948	63.9542
1944	63.963
1940	63.952
1936	63.9752
1932	64.0254
1928	64.0532
1924	64.0414
1920	63.989
1916	63.9311
1912	63.9265
1908	63.9819
1904	64.0052
1900	63.9777
1896	63.9719
1892	63.966
1888	63.9802
1884	64.0187
1880	64.0112
1876	63.9511
1872	63.8799
1868	63.8936
1864	63.9688
1860	63.9955
1856	63.9714
1852	63.9319
1848	63.9034
1844	63.9073
1840	63.9276
1836	63.9004
1832	63.8636
1828	63.9009
1824	63.9157
1820	63.8647
1816	63.8294
1812	63.8266
1808	63.8676
1804	63.9246
1800	63.9145
1796	63.849
1792	63.7979
1788	63.8288
1784	63.9309
1780	63.9635
1776	63.9155
1772	63.8793
1768	63.8432
1764	63.8191
1760	63.8043
1756	63.74
1752	63.6523
1748	63.6253
1744	63.6797
1740	63.6709
1736	63.5684
1732	63.5358
1728	63.5886
1724	63.6532
1720	63.7123
1716	63.737
1712	63.7172
1708	63.6827
1704	63.6645
1700	63.6727
1696	63.7003
1692	63.7522
1688	63.7594
1684	63.7001
1680	63.6882
1676	63.7056
1672	63.6675
1668	63.6329
1664	63.6509
1660	63.6663
1656	63.6323
1652	63.5657
1648	63.5604
1644	63.5929
1640	63.5568
1636	63.5655
1632	63.6204
1628	63.5808
1624	63.5334
1620	63.5517
1616	63.5326
1612	63.4459
1608	63.3829
1604	63.3856
1600	63.428
1596	63.4928
1592	63.5594
1588	63.5574
1584	63.5375
1580	63.566
1576	63.5663
1572	63.5522
1568	63.5785
1564	63.5834
1560	63.5602
1556	63.5481
1552	63.4905
1548	63.458
1544	63.4921
1540	63.4819
1536	63.459
1532	63.4378
1528	63.3978
1524	63.3896
1520	63.4378
1516	63.4838
1512	63.463
1508	63.453
1504	63.4664
1500	63.4807
1496	63.5302
1492	63.5203
1488	63.4085
1484	63.3276
1480	63.3363
1476	63.3557
1472	63.371
1468	63.3876
1464	63.3796
1460	63.3872
1456	63.3831
1452	63.3677
1448	63.3523
1444	63.2916
1440	63.2763
1436	63.3123
1432	63.2743
1428	63.2336
1424	63.2683
1420	63.3374
1416	63.4099
1412	63.4044
1408	63.3352
1404	63.2696
1400	63.2434
1396	63.3003
1392	63.3146
1388	63.2051
1384	63.1482
1380	63.2195
1376	63.2515
1372	63.2202
1368	63.2486
1364	63.3027
1360	63.2908
1356	63.2527
1352	63.2581
1348	63.293
1344	63.308
1340	63.2727
1336	63.2342
1332	63.2689
1328	63.322
1324	63.3005
1320	63.2176
1316	63.1855
1312	63.2471
1308	63.2578
1304	63.1665
1300	63.131
1296	63.148
1292	63.1202
1288	63.1275
1284	63.1938
1280	63.1696
1276	63.0398
1272	62.9868
1268	63.0331
1264	63.0435
1260	63.0239
1256	63.0436
1252	63.0335
1248	62.9898
1244	62.9863
1240	62.9708
1236	62.983
1232	63.0725
1228	63.1418
1224	63.1607
1220	63.1594
1216	63.1635
1212	63.1632
1208	63.1017
1204	63.0148
1200	62.9621
1196	62.8996
1192	62.8531
1188	62.9115
1184	62.9969
1180	62.9884
1176	62.899
1172	62.812
1168	62.7955
1164	62.8092
1160	62.78
1156	62.7403
1152	62.7387
1148	62.7507
1144	62.7877
1140	62.8598
1136	62.8789
1132	62.8229
1128	62.7879
1124	62.7748
1120	62.7762
1116	62.8397
1112	62.9493
1108	63.0001
1104	62.9195
1100	62.8366
1096	62.8372
1092	62.807
1088	62.7858
1084	62.8618
1080	62.8768
1076	62.7564
1072	62.6899
1068	62.8034
1064	62.9271
1060	62.8739
1056	62.7179
1052	62.6222
1048	62.6384
1044	62.6911
1040	62.6852
1036	62.6728
1032	62.7475
1028	62.8136
1024	62.7624
1020	62.6343
1016	62.5452
1012	62.5657
1008	62.6409
1004	62.6608
1000	62.6608
996	 62.6967
992	 62.7172
988	 62.7635
984	 62.8872
980	 62.9721
976	 62.8846
972	 62.7551
968	 62.7289
964	 62.7224
960	 62.6774
956	 62.6433
952	 62.6511
948	 62.6594
944	 62.619
940	 62.5437
936	 62.5202
932	 62.5736
928	 62.6216
924	 62.6612
920	 62.7104
916	 62.7188
912	 62.7153
908	 62.7154
904	 62.7255
900	 62.7708
896	 62.7949
892	 62.7898
888	 62.8021
884	 62.7759
880	 62.6536
876	 62.5175
872	 62.4832
868	 62.5881
864	 62.697
860	 62.6906
856	 62.657
852	 62.688
848	 62.734
844	 62.6653
840	 62.4527
836	 62.2388
832	 62.2369
828	 62.475
824	 62.6428
820	 62.5977
816	 62.5712
812	 62.569
808	 62.471
804	 62.4368
800	 62.5642
796	 62.5958
792	 62.4212
788	 62.3389
784	 62.4184
780	 62.399
776	 62.3431
772	 62.3722
768	 62.3401
764	 62.2622
760	 62.2735
756	 62.2953
752	 62.2221
748	 62.1658
744	 62.1631
740	 62.1615
736	 62.1878
732	 62.2103
728	 62.2111
724	 62.1786
720	 62.1442
716	 62.1293
712	 62.08
708	 62.0876
704	 62.1582
700	 62.0648
696	 61.8824
692	 61.8769
688	 61.8795
684	 61.8169
680	 61.893
676	 61.9265
672	 61.7923
668	 61.6031
664	 61.5825
660	 61.8192
656	 61.9374
652	 61.8067
648	 61.6025
644	 61.3887
640	 61.1931
636	 60.9551
632	 60.7852
628	 60.9663
624	 61.5934
620	 62.158
616	 62.0885
612	 62.1201
608	 62.5798
604	 62.3229
600	 61.6719
596	 61.9041
592	 62.8606
588	 63.2613
584	 62.5044
580	 61.3908
576	 60.3261
572	 59.7135
568	 60.444
564	 61.4788
560	 61.5016
556	 61.3928
552	 61.6889
548	 61.9502
544	 61.9093
540	 61.7135
536	 61.6111
532	 61.3881
528	 61.4212
524	 61.6444
520	 61.2802
516	 60.8492
512	 61.2345
508	 61.6934
504	 61.547
500	 61.3104
496	 61.4951
492	 61.6722
488	 61.4788
484	 61.2753
480	 61.0401
476	 60.596
472	 60.0986
468	 60.1832
464	 60.6873
460	 60.5524
456	 60.0194
452	 60.3163
448	 60.9252
444	 60.2451
440	 59.6606
436	 60.8721
432	 62.4469
428	 62.2392
424	 60.8835
420	 60.3859
416	 59.5907
412	 57.7443
408	 56.8366
404	 56.9681
400	 59.6495
396	 63.3692
392	 63.5342
388	 65.5529
384	 70.9266
380	 66.0599
376	 56.9983
372	 60.6502
370	 67.1133