File: Bakgrunnsmateriale/MATLAB/FTIR/ftir_data/subAa/Mapping_121/BZ1503107-1_t50.asc
PE IR       SPECTRUM    SPECTRUM    ASCII       PEDS        1.60
  -1
BZ2943~1.ASC
17/04/07
17:22:08.00
17/04/07
17:22:35.00
tln
$BZ1503107-1_t0050$<tbV0>[0.0,-2.6,8.0,0.0,27,1,0]
27.028
64

2002,4.07
MIRTGS : RIGHTBACK : INTERNAL 2
MIR : ON : INTERNAL 2
OPTKBR

0.200000
8
8.000000
FILLER
RATIO
SPECTRUM
UNLOCKED 256

DOUBLE
64
COMBINED
1
0
0

0.002000
RATIO

1
0
TRUE
51149
0
LEFT NOT FITTED RIGHT NOT FITTED 0
NONE
NONE
15600
12
4.427000
51148
TRUE
1 0 8 72 0 0 0 0

15798

#HDR
-1
-1
#GR
µM
%T
2.38419e-05
0.0
2.000000
0.002000
12515
8
66.9196
33.3121
#DATA
2.000000	 64.2905
2.018000	 64.8033
2.036000	 65.1301
2.054000	 64.7014
2.072000	 64.6539
2.090000	 65.0561
2.108000	 64.6784
2.126000	 64.5792
2.144000	 64.516
2.162000	 65.0158
2.180000	 65.1566
2.198000	 65.1934
2.216000	 65.591
2.234000	 65.1791
2.252000	 63.7166
2.270000	 65.921
2.288000	 65.2648
2.306000	 65.2092
2.324000	 65.2582
2.342000	 65.1705
2.360000	 64.8961
2.378000	 65.1559
2.396000	 64.6835
2.414000	 64.7611
2.432000	 64.7222
2.450000	 64.8833
2.468000	 64.7672
2.486000	 64.9718
2.504000	 65.169
2.522000	 65.0978
2.540000	 65.0694
2.558000	 65.2795
2.576000	 65.0603
2.594000	 65.1193
2.612000	 64.9115
2.630000	 65.0181
2.648000	 65.0517
2.666000	 65.0943
2.684000	 64.8367
2.702000	 65.189
2.720000	 64.9862
2.738000	 64.9888
2.756000	 65.1121
2.774000	 64.9819
2.792000	 65.105
2.810000	 65.1153
2.828000	 65.2637
2.846000	 65.2191
2.864000	 65.2061
2.882000	 65.1119
2.900000	 65.0414
2.918000	 64.9735
2.936000	 64.9847
2.954000	 65.0665
2.972000	 65.1082
2.990000	 64.9649
3.008000	 65.1896
3.026000	 65.1799
3.044000	 65.0253
3.062000	 64.8921
3.080000	 65.0038
3.098000	 64.8888
3.116000	 65.1073
3.134000	 65.0232
3.152000	 65.1421
3.170000	 64.9263
3.188000	 64.9085
3.206000	 65.0594
3.224000	 65.1321
3.242000	 64.9366
3.260000	 64.8615
3.278000	 64.9979
3.296000	 65.1836
3.314000	 65.0437
3.332000	 65.1106
3.350000	 65.0533
3.368000	 64.7671
3.386000	 64.8355
3.404000	 64.9421
3.422000	 64.9404
3.440000	 64.9483
3.458000	 64.885
3.476000	 64.8542
3.494000	 65.0818
3.512000	 65.0314
3.530000	 64.8596
3.548000	 64.9172
3.566000	 65.0675
3.584000	 64.9082
3.602000	 64.969
3.620000	 64.8646
3.638000	 64.9699
3.656000	 64.9693
3.674000	 64.9209
3.692000	 64.9378
3.710000	 64.9918
3.728000	 64.98
3.746000	 64.9349
3.764000	 64.9798
3.782000	 64.9783
3.800000	 64.9073
3.818000	 64.913
3.836000	 64.8258
3.854000	 64.9594
3.872000	 64.8962
3.890000	 64.8725
3.908000	 64.7524
3.926000	 64.909
3.944000	 64.76
3.962000	 64.9331
3.980000	 64.9947
3.998000	 64.9137
4.016000	 64.814
4.034000	 64.8914
4.052000	 64.7844
4.070000	 64.8053
4.088000	 64.7374
4.106000	 64.8963
4.124000	 64.8681
4.141999	 64.8044
4.160000	 64.7261
4.178000	 64.7861
4.196000	 64.7961
4.214000	 64.7384
4.232000	 64.7999
4.250000	 64.8517
4.268000	 64.8208
4.286000	 64.8342
4.304000	 64.7428
4.322000	 64.8324
4.340000	 64.7375
4.358000	 64.7689
4.375999	 64.8095
4.394000	 64.7389
4.412000	 64.7837
4.430000	 64.8737
4.448000	 64.7248
4.466000	 64.7042
4.484000	 64.7632
4.502000	 64.8011
4.520000	 64.7601
4.538000	 64.8581
4.556000	 64.7791
4.574000	 64.7377
4.592000	 64.7466
4.609999	 64.6142
4.628000	 64.7225
4.646000	 64.7358
4.664000	 64.7333
4.682000	 64.7433
4.700000	 64.7683
4.718000	 64.6583
4.736000	 64.7154
4.754000	 64.6899
4.772000	 64.7424
4.790000	 64.7332
4.808000	 64.7968
4.826000	 64.6762
4.843999	 64.8291
4.862000	 64.6855
4.880000	 64.6347
4.898000	 64.6312
4.916000	 64.6972
4.934000	 64.6216
4.952000	 64.5812
4.970000	 64.7108
4.988000	 64.7586
5.006000	 64.684
5.024000	 64.5792
5.042000	 64.5629
5.060000	 64.5706
5.077999	 64.5966
5.096000	 64.4923
5.114000	 64.46
5.132000	 64.516
5.150000	 64.6161
5.168000	 64.5832
5.186000	 64.5872
5.204000	 64.5706
5.222000	 64.5341
5.240000	 64.5942
5.258000	 64.603
5.276000	 64.5478
5.294000	 64.5181
5.312000	 64.4969
5.330000	 64.4957
5.348000	 64.5161
5.366000	 64.5281
5.384000	 64.4989
5.402000	 64.5535
5.420000	 64.5182
5.438000	 64.5147
5.456000	 64.5368
5.474000	 64.4865
5.492000	 64.457
5.510000	 64.4793
5.528000	 64.4346
5.546000	 64.4237
5.564000	 64.5038
5.582000	 64.5572
5.600000	 64.5046
5.618000	 64.4522
5.636000	 64.4769
5.654000	 64.4273
5.672000	 64.3817
5.690000	 64.3501
5.708000	 64.2922
5.726000	 64.2981
5.744000	 64.363
5.762000	 64.3399
5.780000	 64.3065
5.798000	 64.3013
5.816000	 64.3433
5.834000	 64.4088
5.852000	 64.3881
5.870000	 64.3294
5.888000	 64.2272
5.906000	 64.1852
5.923999	 64.2466
5.942000	 64.2994
5.960000	 64.3356
5.978000	 64.3624
5.996000	 64.324
6.014000	 64.2885
6.032000	 64.3109
6.050000	 64.4183
6.068000	 64.4856
6.086000	 64.4668
6.104000	 64.3397
6.122000	 64.2775
6.140000	 64.264
6.158000	 64.219
6.176000	 64.248
6.194000	 64.304
6.212000	 64.3469
6.230000	 64.3744
6.248000	 64.3442
6.266000	 64.2109
6.284000	 64.164
6.302000	 64.2035
6.320000	 64.1714
6.338000	 64.1073
6.356000	 64.1398
6.374000	 64.1628
6.392000	 64.1121
6.410000	 64.1141
6.428000	 64.1536
6.446000	 64.1575
6.464000	 64.155
6.482000	 64.1844
6.500000	 64.215
6.518000	 64.2209
6.536000	 64.2196
6.554000	 64.1981
6.572000	 64.2065
6.590000	 64.2542
6.608000	 64.2593
6.626000	 64.2213
6.644000	 64.1977
6.662000	 64.1681
6.680000	 64.1376
6.698000	 64.1738
6.716000	 64.2415
6.734000	 64.2905
6.752000	 64.2503
6.770000	 64.155
6.788000	 64.1524
6.806000	 64.1591
6.824000	 64.1106
6.842000	 64.1446
6.860000	 64.22
6.878000	 64.2035
6.896000	 64.122
6.914000	 64.041
6.932000	 64.0081
6.950000	 64.0433
6.968000	 64.1088
6.986000	 64.1578
7.004000	 64.1826
7.022000	 64.2188
7.040000	 64.23
7.058000	 64.1466
7.076000	 64.0626
7.094000	 64.0734
7.112000	 64.0957
7.130000	 64.0675
7.148000	 64.0393
7.166000	 64.0428
7.184000	 64.0468
7.202000	 64.0322
7.220000	 64.0326
7.238000	 64.066
7.256000	 64.1224
7.274000	 64.2048
7.292000	 64.2622
7.310000	 64.2298
7.328000	 64.1509
7.346000	 64.0894
7.364000	 64.0424
7.382000	 64.0053
7.400000	 63.9714
7.418000	 63.9214
7.436000	 63.8934
7.454000	 63.9455
7.472000	 64.0515
7.490000	 64.1261
7.508000	 64.1246
7.526000	 64.0812
7.544000	 64.0615
7.562000	 64.0787
7.580000	 64.0969
7.598000	 64.0939
7.616000	 64.0734
7.634000	 64.06
7.652000	 64.0741
7.670000	 64.0919
7.688000	 64.0796
7.706000	 64.0488
7.724000	 64.0141
7.742000	 63.9657
7.760000	 63.927
7.778000	 63.9382
7.796000	 63.9788
7.814000	 64.0016
7.832000	 63.9964
7.850000	 63.9691
7.868000	 63.9333
7.886000	 63.9296
7.904000	 63.976
7.922000	 64.0234
7.940000	 64.0226
7.958000	 63.9886
7.976000	 63.9544
7.994000	 63.9273
8.012000	 63.9122
8.030000	 63.9164
8.048000	 63.9186
8.065999	 63.8956
8.084000	 63.8707
8.102000	 63.8822
8.120000	 63.9152
8.138000	 63.9217
8.155999	 63.8947
8.173999	 63.8728
8.192000	 63.872
8.210000	 63.8692
8.228000	 63.8562
8.246000	 63.8607
8.263999	 63.899
8.282000	 63.9516
8.300000	 63.9914
8.318000	 64.0044
8.336000	 63.98
8.353999	 63.9234
8.372000	 63.8733
8.390000	 63.8708
8.408000	 63.9158
8.426000	 63.9698
8.443999	 63.9923
8.462000	 63.9648
8.480000	 63.9018
8.498000	 63.8467
8.516000	 63.8333
8.533999	 63.8506
8.552000	 63.8643
8.570000	 63.8563
8.588000	 63.8319
8.606000	 63.8042
8.624000	 63.7853
8.641999	 63.7806
8.660000	 63.7888
8.678000	 63.7981
8.696000	 63.7849
8.714000	 63.7428
8.731999	 63.7005
8.750000	 63.6916
8.768000	 63.7177
8.786000	 63.7589
8.804000	 63.7956
8.821999	 63.8136
8.840000	 63.8061
8.858000	 63.7827
8.876000	 63.7651
8.894000	 63.7685
8.911999	 63.7839
8.930000	 63.7857
8.948000	 63.7613
8.966000	 63.7343
8.984000	 63.7477
9.001999	 63.8203
9.020000	 63.9205
9.038000	 63.9886
9.056000	 63.9889
9.074000	 63.9371
9.092000	 63.8777
9.109999	 63.838
9.128000	 63.8104
9.146000	 63.7759
9.164000	 63.7382
9.182000	 63.7274
9.199999	 63.7693
9.218000	 63.8589
9.236000	 63.9562
9.254000	 64.0131
9.272000	 64.0054
9.289999	 63.9462
9.308000	 63.8696
9.326000	 63.8048
9.344000	 63.7647
9.362000	 63.7506
9.379999	 63.7574
9.398000	 63.7734
9.416000	 63.78
9.434000	 63.7619
9.452000	 63.7211
9.469999	 63.6792
9.488000	 63.6622
9.506000	 63.6807
9.524000	 63.7235
9.542000	 63.7688
9.560000	 63.8016
9.577999	 63.8189
9.596000	 63.8241
9.614000	 63.818
9.632000	 63.7968
9.650000	 63.7555
9.667999	 63.695
9.686000	 63.6301
9.704000	 63.5855
9.722000	 63.5825
9.740000	 63.6225
9.757999	 63.6854
9.776000	 63.7434
9.794000	 63.7807
9.812000	 63.8022
9.830000	 63.8241
9.847999	 63.8572
9.866000	 63.8982
9.884000	 63.9347
9.902000	 63.9543
9.920000	 63.9499
9.937999	 63.9226
9.956000	 63.8799
9.974000	 63.8337
9.992000	 63.7956
10.01	63.7714
10.028	63.7593
10.046	63.7531
10.064	63.7505
10.082	63.7555
10.1	63.776
10.118	63.8148
10.136	63.8653
10.154	63.9145
10.172	63.9493
10.19	63.9622
10.208	63.9536
10.226	63.9289
10.244	63.8949
10.262	63.8551
10.28	63.8108
10.298	63.7631
10.316	63.7165
10.334	63.6791
10.352	63.6591
10.37	63.6606
10.388	63.6786
10.406	63.7025
10.424	63.7202
10.442	63.725
10.46	63.7173
10.478	63.7015
10.496	63.6835
10.514	63.6677
10.532	63.6572
10.55	63.6532
10.568	63.6549
10.586	63.6599
10.604	63.6647
10.622	63.6668
10.64	63.6655
10.658	63.6623
10.676	63.6605
10.694	63.664
10.712	63.6755
10.73	63.6947
10.748	63.719
10.766	63.7452
10.784	63.7713
10.802	63.7966
10.82	63.8208
10.838	63.8429
10.856	63.8597
10.874	63.8672
10.892	63.8624
10.91	63.8447
10.928	63.8167
10.946	63.7825
10.964	63.7463
10.982	63.712
11	63.6834
11.018	63.6646
11.036	63.6575
11.054	63.6602
11.072	63.6672
11.09	63.6719
11.108	63.6705
11.126	63.6642
11.144	63.6588
11.162	63.6611
11.18	63.6744
11.198	63.6965
11.216	63.7203
11.234	63.7376
11.252	63.7435
11.27	63.7392
11.288	63.7318
11.306	63.7303
11.324	63.7425
11.342	63.7713
11.36	63.8132
11.378	63.8592
11.396	63.8979
11.414	63.919
11.432	63.9159
11.45	63.8886
11.468	63.8434
11.486	63.7909
11.504	63.743
11.522	63.7106
11.54	63.6998
11.558	63.711
11.576	63.7377
11.594	63.7695
11.612	63.7931
11.63	63.7979
11.648	63.7792
11.666	63.7392
11.684	63.6867
11.702	63.6336
11.72	63.592
11.738	63.5709
11.756	63.5739
11.774	63.5998
11.792	63.6433
11.81	63.6976
11.828	63.7549
11.846	63.808
11.864	63.8503
11.882	63.8771
11.9	63.8848
11.918	63.873
11.936	63.8444
11.954	63.8039
11.972	63.7592
11.99	63.7184
12.008	63.6896
12.026	63.6786
12.044	63.6877
12.062	63.7141
12.08	63.7504
12.098	63.7868
12.116	63.8132
12.134	63.8233
12.152	63.8163
12.17	63.7963
12.188	63.7702
12.206	63.7456
12.224	63.7279
12.242	63.7196
12.26	63.7207
12.278	63.7288
12.296	63.741
12.314	63.7543
12.332	63.7664
12.35	63.7759
12.368	63.7815
12.386	63.7825
12.404	63.7781
12.422	63.7684
12.44	63.7542
12.458	63.737
12.476	63.7192
12.494	63.703
12.512	63.6902
12.53	63.6809
12.548	63.674
12.566	63.6671
12.584	63.6573
12.602	63.6425
12.62	63.6219
12.638	63.5968
12.656	63.5707
12.674	63.5482
12.692	63.534
12.71	63.5314
12.728	63.5415
12.746	63.5626
12.764	63.5911
12.782	63.6221
12.8	63.6511
12.818	63.6744
12.836	63.6904
12.854	63.6991
12.872	63.7019
12.89	63.7007
12.908	63.6975
12.926	63.6935
12.944	63.6894
12.962	63.6846
12.98	63.6783
12.998	63.6699
13.016	63.6595
13.034	63.6485
13.052	63.6392
13.07	63.635
13.088	63.6388
13.106	63.6531
13.124	63.6784
13.142	63.7128
13.16	63.7525
13.178	63.7924
13.196	63.827
13.214	63.8517
13.232	63.8639
13.25	63.8633
13.268	63.8518
13.286	63.8332
13.304	63.8117
13.322	63.7912
13.34	63.7743
13.358	63.7621
13.376	63.7547
13.394	63.7512
13.412	63.75
13.43	63.7498
13.448	63.7495
13.466	63.748
13.484	63.7445
13.502	63.7383
13.52	63.7284
13.538	63.7141
13.556	63.695
13.574	63.6713
13.592	63.644
13.61	63.6151
13.628	63.5874
13.646	63.5641
13.664	63.5485
13.682	63.5429
13.7	63.5486
13.718	63.565
13.736	63.5897
13.754	63.619
13.772	63.648
13.79	63.672
13.808	63.6863
13.826	63.6877
13.844	63.6744
13.862	63.6461
13.88	63.6043
13.898	63.5515
13.916	63.4917
13.934	63.4292
13.952	63.3687
13.97	63.3143
13.988	63.2697
14.006	63.2372
14.024	63.218
14.042	63.2113
14.06	63.2154
14.078	63.227
14.096	63.2422
14.114	63.2573
14.132	63.2692
14.15	63.2761
14.168	63.278
14.186	63.2761
14.204	63.273
14.222	63.272
14.24	63.276
14.258	63.2872
14.276	63.3063
14.294	63.3326
14.312	63.3646
14.33	63.4002
14.348	63.4372
14.366	63.4736
14.384	63.5079
14.402	63.5393
14.42	63.5674
14.438	63.5916
14.456	63.6115
14.474	63.6259
14.492	63.6335
14.51	63.633
14.528	63.6238
14.546	63.6064
14.564	63.5824
14.582	63.5546
14.6	63.527
14.618	63.5039
14.636	63.4898
14.654	63.4873
14.672	63.4971
14.69	63.5182
14.708	63.5475
14.726	63.5808
14.744	63.6122
14.762	63.6363
14.78	63.6487
14.798	63.6469
14.816	63.6298
14.834	63.5985
14.852	63.5557
14.87	63.5053
14.888	63.4511
14.906	63.397
14.924	63.3465
14.942	63.3027
14.96	63.2679
14.978	63.2436
14.996	63.2309
15.014	63.2308
15.032	63.2441
15.05	63.2708
15.068	63.3107
15.086	63.3631
15.104	63.4259
15.122	63.4956
15.14	63.568
15.158	63.6387
15.176	63.7033
15.194	63.7577
15.212	63.7983
15.23	63.8238
15.248	63.8338
15.266	63.8288
15.284	63.8115
15.302	63.7845
15.32	63.75
15.338	63.7095
15.356	63.6641
15.374	63.6135
15.392	63.5573
15.41	63.495
15.428	63.4262
15.446	63.3524
15.464	63.2766
15.482	63.2025
15.5	63.1358
15.518	63.0844
15.536	63.0544
15.554	63.0508
15.572	63.0777
15.59	63.1351
15.608	63.2192
15.626	63.3245
15.644	63.442
15.662	63.5587
15.68	63.664
15.698	63.7483
15.716	63.801
15.734	63.8177
15.752	63.7974
15.77	63.7415
15.788	63.6572
15.806	63.5538
15.824	63.4401
15.842	63.3274
15.86	63.2275
15.878	63.147
15.896	63.0919
15.914	63.0662
15.932	63.0695
15.95	63.1002
15.968	63.155
15.986	63.2283
16.004	63.3159
16.022	63.4128
16.04	63.5138
16.058	63.615
16.076	63.7133
16.094	63.8045
16.112	63.8853
16.13	63.9533
16.148	64.0051
16.166	64.0377
16.184	64.0498
16.202	64.0397
16.22	64.0071
16.238	63.9537
16.256	63.8812
16.274	63.7945
16.292	63.698
16.31	63.5961
16.328	63.4957
16.346	63.4014
16.364	63.317
16.382	63.2472
16.4	63.1939
16.418	63.1586
16.436	63.1419
16.454	63.1428
16.472	63.1605
16.49	63.1931
16.508	63.2389
16.526	63.2965
16.544	63.3633
16.562	63.4373
16.58	63.5168
16.598	63.5989
16.616	63.6814
16.634	63.7624
16.652	63.8379
16.67	63.9057
16.688	63.9635
16.706	64.0085
16.724	64.04
16.742	64.057
16.76	64.0608
16.778	64.0524
16.796	64.0342
16.814	64.0104
16.832	63.9833
16.85	63.9577
16.868	63.9365
16.886	63.9221
16.904	63.9169
16.922	63.9209
16.94	63.9345
16.958	63.9552
16.976	63.9816
16.994	64.0103
17.012	64.038
17.03	64.0625
17.048	64.0797
17.066	64.0886
17.084	64.0873
17.102	64.0761
17.12	64.0551
17.138	64.0264
17.156	63.9922
17.174	63.9545
17.192	63.9171
17.21	63.8814
17.228	63.8506
17.246	63.8252
17.264	63.8062
17.282	63.7923
17.3	63.7823
17.318	63.7737
17.336	63.7629
17.354	63.7481
17.372	63.7241
17.39	63.6895
17.408	63.6407
17.426	63.5768
17.444	63.4965
17.462	63.4007
17.48	63.2903
17.498	63.1681
17.516	63.038
17.534	62.9028
17.552	62.769
17.57	62.6384
17.588	62.5185
17.606	62.4114
17.624	62.3218
17.642	62.2529
17.66	62.2065
17.678	62.1845
17.696	62.1869
17.714	62.2134
17.732	62.2621
17.75	62.3315
17.768	62.417
17.786	62.5173
17.804	62.6257
17.822	62.7408
17.84	62.8563
17.858	62.9695
17.876	63.076
17.894	63.1725
17.912	63.2573
17.93	63.3271
17.948	63.3817
17.966	63.4201
17.984	63.4428
18.002	63.4506
18.02	63.4453
18.038	63.4282
18.056	63.4026
18.074	63.3695
18.092	63.3329
18.11	63.2937
18.128	63.2554
18.146	63.2186
18.164	63.1857
18.182	63.1569
18.2	63.1333
18.218	63.1143
18.236	63.1001
18.254	63.0894
18.272	63.0817
18.29	63.0751
18.308	63.0694
18.326	63.0624
18.344	63.054
18.362	63.0424
18.38	63.0275
18.398	63.0085
18.416	62.9856
18.434	62.9588
18.452	62.929
18.47	62.8969
18.488	62.864
18.506	62.8307
18.524	62.7996
18.542	62.771
18.56	62.7476
18.578	62.7297
18.596	62.7197
18.614	62.7178
18.632	62.7251
18.65	62.7417
18.668	62.7679
18.686	62.8032
18.704	62.8469
18.722	62.8984
18.74	62.956
18.758	63.019
18.776	63.0851
18.794	63.1535
18.812	63.2216
18.83	63.2886
18.848	63.3521
18.866	63.4111
18.884	63.4634
18.902	63.5084
18.92	63.5443
18.938	63.5705
18.956	63.5858
18.974	63.5898
18.992	63.5816
19.01	63.5615
19.028	63.5293
19.046	63.4856
19.064	63.4309
19.082	63.3664
19.1	63.2934
19.118	63.2134
19.136	63.1286
19.154	63.0404
19.172	62.952
19.19	62.8643
19.208	62.7811
19.226	62.7029
19.244	62.6336
19.262	62.5732
19.28	62.5249
19.298	62.4885
19.316	62.466
19.334	62.4569
19.352	62.4616
19.37	62.4799
19.388	62.5102
19.406	62.5524
19.424	62.6036
19.442	62.6639
19.46	62.7293
19.478	62.7998
19.496	62.8718
19.514	62.9447
19.532	63.0158
19.55	63.0835
19.568	63.1467
19.586	63.2037
19.604	63.2545
19.622	63.2973
19.64	63.3327
19.658	63.3603
19.676	63.3805
19.694	63.3941
19.712	63.4011
19.73	63.4033
19.748	63.4007
19.766	63.3952
19.784	63.387
19.802	63.3775
19.82	63.3675
19.838	63.3578
19.856	63.3496
19.874	63.3428
19.892	63.3384
19.91	63.3364
19.928	63.3371
19.946	63.3406
19.964	63.3462
19.982	63.3542
20	63.3637
20.018	63.3744
20.036	63.3858
20.054	63.397
20.072	63.408
20.09	63.4176
20.108	63.4259
20.126	63.4321
20.144	63.4361
20.162	63.4376
20.18	63.4364
20.198	63.4327
20.216	63.4264
20.234	63.4176
20.252	63.407
20.27	63.3944
20.288	63.3807
20.306	63.3661
20.324	63.3513
20.342	63.3367
20.36	63.3226
20.378	63.3099
20.396	63.2984
20.414	63.2889
20.432	63.2813
20.45	63.2756
20.468	63.272
20.486	63.2701
20.504	63.2697
20.522	63.2708
20.54	63.2723
20.558	63.2743
20.576	63.2762
20.594	63.2775
20.612	63.2781
20.63	63.2769
20.648	63.2741
20.666	63.2698
20.684	63.2636
20.702	63.2564
20.72	63.2482
20.738	63.2397
20.756	63.2325
20.774	63.2263
20.792	63.2234
20.81	63.224
20.828	63.2292
20.846	63.2408
20.864	63.2583
20.882	63.2834
20.9	63.3161
20.918	63.3561
20.936	63.4039
20.954	63.4588
20.972	63.5191
20.99	63.5857
21.008	63.6552
21.026	63.727
21.044	63.8001
21.062	63.8702
21.08	63.9387
21.098	64.0012
21.116	64.0572
21.134	64.1058
21.152	64.1441
21.17	64.1728
21.188	64.1909
21.206	64.1976
21.224	64.1938
21.242	64.1801
21.26	64.1559
21.278	64.1246
21.296	64.0859
21.314	64.0416
21.332	63.9952
21.35	63.9455
21.368	63.8966
21.386	63.8495
21.404	63.8044
21.422	63.7644
21.44	63.7287
21.458	63.6983
21.476	63.6743
21.494	63.6558
21.512	63.6421
21.53	63.6337
21.548	63.6286
21.566	63.6258
21.584	63.6254
21.602	63.6236
21.62	63.6211
21.638	63.6161
21.656	63.6058
21.674	63.5914
21.692	63.5704
21.71	63.5421
21.728	63.5068
21.746	63.4635
21.764	63.412
21.782	63.3536
21.8	63.2885
21.818	63.2167
21.836	63.1407
21.854	63.0599
21.872	62.9759
21.89	62.8923
21.908	62.8077
21.926	62.7254
21.944	62.6474
21.962	62.5729
21.98	62.5062
21.998	62.4471
22.016	62.3965
22.034	62.3571
22.052	62.3281
22.07	62.3106
22.088	62.3057
22.106	62.3127
22.124	62.3313
22.142	62.3619
22.16	62.4036
22.178	62.4545
22.196	62.5154
22.214	62.5843
22.232	62.6585
22.25	62.7393
22.268	62.8235
22.286	62.9091
22.304	62.9971
22.322	63.0838
22.34	63.1687
22.358	63.2517
22.376	63.3301
22.394	63.4042
22.412	63.4734
22.43	63.5364
22.448	63.5934
22.466	63.6447
22.484	63.6902
22.502	63.7297
22.52	63.7646
22.538	63.7953
22.556	63.8216
22.574	63.8459
22.592	63.8681
22.61	63.8886
22.628	63.9094
22.646	63.9302
22.664	63.9516
22.682	63.9749
22.7	64.0001
22.718	64.0269
22.736	64.0557
22.754	64.0868
22.772	64.119
22.79	64.1519
22.808	64.186
22.826	64.2193
22.844	64.2504
22.862	64.2804
22.88	64.3067
22.898	64.3287
22.916	64.3468
22.934	64.359
22.952	64.3645
22.97	64.3639
22.988	64.3555
23.006	64.3389
23.024	64.3144
23.042	64.2818
23.06	64.2407
23.078	64.1915
23.096	64.1357
23.114	64.0724
23.132	64.0027
23.15	63.9293
23.168	63.8514
23.186	63.7701
23.204	63.6885
23.222	63.6058
23.24	63.523
23.258	63.4441
23.276	63.3683
23.294	63.2963
23.312	63.2317
23.33	63.174
23.348	63.1235
23.366	63.0832
23.384	63.0529
23.402	63.0327
23.42	63.0243
23.438	63.0282
23.456	63.0438
23.474	63.0713
23.492	63.1113
23.51	63.1632
23.528	63.2256
23.546	63.299
23.564	63.3831
23.582	63.475
23.6	63.5739
23.618	63.6807
23.636	63.7915
23.654	63.9046
23.672	64.0219
23.69	64.1384
23.708	64.2514
23.726	64.3635
23.744	64.4702
23.762	64.5675
23.78	64.6582
23.798	64.7393
23.816	64.8071
23.834	64.8633
23.852	64.907
23.87	64.9358
23.888	64.9497
23.906	64.9495
23.924	64.936
23.942	64.9081
23.96	64.8668
23.978	64.8151
23.996	64.7531
24.014	64.6801
24.032	64.601
24.05	64.5185
24.068	64.4298
24.086	64.3393
24.104	64.2511
24.122	64.1624
24.14	64.0759
24.158	63.9955
24.176	63.9207
24.194	63.8512
24.212	63.7881
24.23	63.7328
24.248	63.6841
24.266	63.6397
24.284	63.5991
24.302	63.564
24.32	63.5292
24.338	63.49
24.356	63.4504
24.374	63.4061
24.392	63.3504
24.41	63.285
24.428	63.2095
24.446	63.1178
24.464	63.0075
24.482	62.8816
24.5	62.736
24.518	62.5669
24.536	62.3757
24.554	62.1631
24.572	61.9292
24.59	61.6715
24.608	61.3926
24.626	61.0982
24.644	60.7893
24.662	60.4626
24.68	60.1274
24.698	59.7919
24.716	59.4492
24.734	59.1056
24.752	58.772
24.77	58.4478
24.788	58.1307
24.806	57.8314
24.824	57.5571
24.842	57.301
24.86	57.0689
24.878	56.8678
24.896	56.6967
24.914	56.5544
24.932	56.444
24.95	56.368
24.968	56.3251
24.986	56.3132
25.004	56.3305
25.022	56.3798
25.04	56.4581
25.058	56.5597
25.076	56.683
25.094	56.8319
25.112	56.998
25.13	57.173
25.148	57.3618
25.166	57.5618
25.184	57.7651
25.202	57.968
25.22	58.175
25.238	58.3817
25.256	58.5834
25.274	58.7815
25.292	58.9764
25.31	59.1654
25.328	59.3471
25.346	59.5229
25.364	59.6921
25.382	59.8539
25.4	60.0074
25.418	60.1536
25.436	60.2942
25.454	60.4306
25.472	60.5607
25.49	60.6868
25.508	60.8119
25.526	60.9371
25.544	61.0608
25.562	61.1836
25.58	61.3059
25.598	61.4293
25.616	61.5518
25.634	61.6704
25.652	61.7836
25.67	61.8948
25.688	61.9995
25.706	62.0927
25.724	62.1756
25.742	62.2498
25.76	62.3089
25.778	62.3468
25.796	62.3677
25.814	62.3701
25.832	62.3488
25.85	62.3004
25.868	62.2291
25.886	62.132
25.904	62.0049
25.922	61.8461
25.94	61.6577
25.958	61.4405
25.976	61.1952
25.994	60.9207
26.012	60.6178
26.03	60.2887
26.048	59.9352
26.066	59.5548
26.084	59.1496
26.102	58.7234
26.12	58.2783
26.138	57.8116
26.156	57.3255
26.174	56.8228
26.192	56.3056
26.21	55.773
26.228	55.2227
26.246	54.6525
26.264	54.063
26.282	53.455
26.3	52.8264
26.318	52.1752
26.336	51.5002
26.354	50.8033
26.372	50.0869
26.39	49.3529
26.408	48.5972
26.426	47.823
26.444	47.0371
26.462	46.2442
26.48	45.4363
26.498	44.6197
26.516	43.805
26.534	42.9991
26.552	42.1902
26.57	41.388
26.588	40.6061
26.606	39.8527
26.624	39.1152
26.642	38.4027
26.66	37.7268
26.678	37.0931
26.696	36.4904
26.714	35.9282
26.732	35.4183
26.75	34.9672
26.768	34.5668
26.786	34.2192
26.804	33.9274
26.822	33.6919
26.84	33.5085
26.858	33.3823
26.876	33.3188
26.894	33.3198
26.912	33.3796
26.93	33.5033
26.948	33.6973
26.966	33.9958
26.984	34.4399
27.002	34.9146
27.02	35.2954
27.028	35.3919