File: Bakgrunnsmateriale/MATLAB/FTIR/ftir_data/subAa/Mapping_121/BZ1503107-1_e124.asc
PE IR       SPECTRUM    SPECTRUM    ASCII       PEDS        1.60
  -1
BZD0A2~1.ASC
17/04/07
16:53:18.00
17/04/07
16:53:45.00
tln
$BZ1503107-1_e0124$<ebV0>[-23.3,12.1,10.0,0.0,27,1,0]
27.028
64

2002,4.07
MIRTGS : RIGHTBACK : INTERNAL 2
MIR : ON : INTERNAL 2
OPTKBR

0.200000
8
8.000000
FILLER
SINGLE
SPECTRUM
UNLOCKED 256

DOUBLE

COMBINED
1
0
0

0.002000
BACKG

1
0
TRUE
51149
0
LEFT NOT FITTED RIGHT NOT FITTED 0
NONE
NONE
15600
12
4.427000
51148
TRUE
1 0 8 72 0 0 0 0

15798

#HDR
-1
-1
#GR
µM
EGY
2.38419e-05
0.0
2.000000
0.002000
12515
8
2.464169
0.008201
#DATA
2.000000	 0.774908
2.018000	 0.796631
2.036000	 0.811060
2.054000	 0.835279
2.072000	 0.861062
2.090000	 0.888722
2.108000	 0.908661
2.126000	 0.919077
2.144000	 0.923031
2.162000	 0.931912
2.180000	 0.953513
2.198000	 0.976601
2.216000	 0.997999
2.234000	 1.012404
2.252000	 1.008644
2.270000	 1.037222
2.288000	 1.049675
2.306000	 1.081648
2.324000	 1.119776
2.342000	 1.156947
2.360000	 1.185376
2.378000	 1.201634
2.396000	 1.220384
2.414000	 1.238957
2.432000	 1.263337
2.450000	 1.301736
2.468000	 1.344276
2.486000	 1.380157
2.504000	 1.404249
2.522000	 1.422845
2.540000	 1.431464
2.558000	 1.437991
2.576000	 1.449197
2.594000	 1.457354
2.612000	 1.498517
2.630000	 1.524728
2.648000	 1.556420
2.666000	 1.559702
2.684000	 1.583739
2.702000	 1.588172
2.720000	 1.578194
2.738000	 1.581402
2.756000	 1.587257
2.774000	 1.600572
2.792000	 1.616022
2.810000	 1.629467
2.828000	 1.634574
2.846000	 1.638860
2.864000	 1.630311
2.882000	 1.620920
2.900000	 1.604697
2.918000	 1.598525
2.936000	 1.604394
2.954000	 1.619265
2.972000	 1.636891
2.990000	 1.670818
3.008000	 1.697201
3.026000	 1.726784
3.044000	 1.753141
3.062000	 1.777016
3.080000	 1.790745
3.098000	 1.798418
3.116000	 1.802439
3.134000	 1.804966
3.152000	 1.809730
3.170000	 1.820488
3.188000	 1.835750
3.206000	 1.858086
3.224000	 1.883592
3.242000	 1.923656
3.260000	 1.946000
3.278000	 1.974311
3.296000	 1.990940
3.314000	 1.974610
3.332000	 2.033916
3.350000	 2.038216
3.368000	 1.982039
3.386000	 1.933845
3.404000	 1.841299
3.422000	 1.790828
3.440000	 1.942788
3.458000	 1.998513
3.476000	 2.015460
3.494000	 1.917935
3.512000	 2.022325
3.530000	 2.114973
3.548000	 2.157852
3.566000	 2.186205
3.584000	 2.210753
3.602000	 2.238726
3.620000	 2.256917
3.638000	 2.265691
3.656000	 2.270875
3.674000	 2.269303
3.692000	 2.260332
3.710000	 2.254900
3.728000	 2.248503
3.746000	 2.239904
3.764000	 2.232549
3.782000	 2.228979
3.800000	 2.228326
3.818000	 2.231711
3.836000	 2.235685
3.854000	 2.237240
3.872000	 2.252380
3.890000	 2.273322
3.908000	 2.291609
3.926000	 2.302314
3.944000	 2.317681
3.962000	 2.326144
3.980000	 2.330394
3.998000	 2.338355
4.016000	 2.336033
4.034000	 2.332108
4.052000	 2.329878
4.070000	 2.316572
4.088000	 2.305389
4.106000	 2.292848
4.124000	 2.281946
4.141999	 2.273935
4.160000	 2.266033
4.178000	 2.260255
4.196000	 2.256793
4.214000	 2.249242
4.232000	 2.244018
4.250000	 2.262818
4.268000	 2.273715
4.286000	 2.284611
4.304000	 2.303579
4.322000	 2.324675
4.340000	 2.341566
4.358000	 2.355072
4.375999	 2.367765
4.394000	 2.378325
4.412000	 2.383788
4.430000	 2.386420
4.448000	 2.391649
4.466000	 2.391495
4.484000	 2.389656
4.502000	 2.383543
4.520000	 2.377823
4.538000	 2.369845
4.556000	 2.362393
4.574000	 2.358069
4.592000	 2.350294
4.609999	 2.348626
4.628000	 2.343429
4.646000	 2.343027
4.664000	 2.342592
4.682000	 2.342449
4.700000	 2.342205
4.718000	 2.344130
4.736000	 2.346269
4.754000	 2.347988
4.772000	 2.345063
4.790000	 2.348227
4.808000	 2.354546
4.826000	 2.367567
4.843999	 2.381108
4.862000	 2.398969
4.880000	 2.415358
4.898000	 2.429637
4.916000	 2.440578
4.934000	 2.449344
4.952000	 2.454933
4.970000	 2.458553
4.988000	 2.462403
5.006000	 2.464169
5.024000	 2.462150
5.042000	 2.458467
5.060000	 2.454128
5.077999	 2.447213
5.096000	 2.443379
5.114000	 2.439583
5.132000	 2.430860
5.150000	 2.423018
5.168000	 2.417552
5.186000	 2.412527
5.204000	 2.403885
5.222000	 2.397349
5.240000	 2.389756
5.258000	 2.383543
5.276000	 2.380877
5.294000	 2.380102
5.312000	 2.382721
5.330000	 2.384712
5.348000	 2.384652
5.366000	 2.390390
5.384000	 2.395739
5.402000	 2.398965
5.420000	 2.401383
5.438000	 2.410133
5.456000	 2.414529
5.474000	 2.418024
5.492000	 2.426617
5.510000	 2.433583
5.528000	 2.437463
5.546000	 2.439164
5.564000	 2.437083
5.582000	 2.433961
5.600000	 2.436412
5.618000	 2.433768
5.636000	 2.423933
5.654000	 2.420784
5.672000	 2.420677
5.690000	 2.411208
5.708000	 2.393097
5.726000	 2.377179
5.744000	 2.357236
5.762000	 2.333587
5.780000	 2.331158
5.798000	 2.332093
5.816000	 2.314656
5.834000	 2.306719
5.852000	 2.302366
5.870000	 2.279672
5.888000	 2.259985
5.906000	 2.263351
5.923999	 2.256834
5.942000	 2.245596
5.960000	 2.245769
5.978000	 2.235594
5.996000	 2.225998
6.014000	 2.217410
6.032000	 2.197504
6.050000	 2.171861
6.068000	 2.167419
6.086000	 2.166718
6.104000	 2.155629
6.122000	 2.143368
6.140000	 2.132648
6.158000	 2.112239
6.176000	 2.077759
6.194000	 2.028370
6.212000	 1.985667
6.230000	 1.977109
6.248000	 1.996559
6.266000	 2.015290
6.284000	 2.022271
6.302000	 2.018742
6.320000	 2.008022
6.338000	 1.995158
6.356000	 1.989174
6.374000	 1.984461
6.392000	 1.964699
6.410000	 1.937393
6.428000	 1.938701
6.446000	 1.958848
6.464000	 1.963939
6.482000	 1.967262
6.500000	 2.004143
6.518000	 2.063347
6.536000	 2.104262
6.554000	 2.117716
6.572000	 2.116758
6.590000	 2.111237
6.608000	 2.100832
6.626000	 2.078938
6.644000	 2.026141
6.662000	 1.900074
6.680000	 1.735599
6.698000	 1.676563
6.716000	 1.762145
6.734000	 1.881371
6.752000	 1.952517
6.770000	 1.975764
6.788000	 1.977842
6.806000	 1.971960
6.824000	 1.952743
6.842000	 1.909536
6.860000	 1.841355
6.878000	 1.779118
6.896000	 1.768899
6.914000	 1.809301
6.932000	 1.850144
6.950000	 1.865878
6.968000	 1.870589
6.986000	 1.873777
7.004000	 1.873434
7.022000	 1.867906
7.040000	 1.858892
7.058000	 1.848853
7.076000	 1.829775
7.094000	 1.791128
7.112000	 1.746667
7.130000	 1.726900
7.148000	 1.741583
7.166000	 1.771249
7.184000	 1.791315
7.202000	 1.792901
7.220000	 1.788878
7.238000	 1.794735
7.256000	 1.806748
7.274000	 1.814581
7.292000	 1.817695
7.310000	 1.819352
7.328000	 1.820211
7.346000	 1.820311
7.364000	 1.820058
7.382000	 1.819726
7.400000	 1.819496
7.418000	 1.818938
7.436000	 1.818029
7.454000	 1.818953
7.472000	 1.824391
7.490000	 1.833663
7.508000	 1.842811
7.526000	 1.849040
7.544000	 1.852505
7.562000	 1.854756
7.580000	 1.856829
7.598000	 1.858514
7.616000	 1.859305
7.634000	 1.859177
7.652000	 1.858528
7.670000	 1.857669
7.688000	 1.856816
7.706000	 1.856580
7.724000	 1.857069
7.742000	 1.857539
7.760000	 1.857155
7.778000	 1.855780
7.796000	 1.853404
7.814000	 1.848704
7.832000	 1.839418
7.850000	 1.823275
7.868000	 1.798094
7.886000	 1.764899
7.904000	 1.732747
7.922000	 1.716596
7.940000	 1.725140
7.958000	 1.752818
7.976000	 1.785001
7.994000	 1.810232
8.012000	 1.825595
8.030000	 1.833436
8.048000	 1.836874
8.065999	 1.838055
8.084000	 1.837900
8.102000	 1.836221
8.120000	 1.832864
8.138000	 1.828407
8.155999	 1.822916
8.173999	 1.815766
8.192000	 1.806011
8.210000	 1.793779
8.228000	 1.780114
8.246000	 1.766797
8.263999	 1.755828
8.282000	 1.748796
8.300000	 1.745845
8.318000	 1.745860
8.336000	 1.747117
8.353999	 1.747964
8.372000	 1.747084
8.390000	 1.743880
8.408000	 1.738730
8.426000	 1.732287
8.443999	 1.725103
8.462000	 1.717872
8.480000	 1.710823
8.498000	 1.703451
8.516000	 1.694960
8.533999	 1.685122
8.552000	 1.674426
8.570000	 1.663363
8.588000	 1.652283
8.606000	 1.641618
8.624000	 1.632091
8.641999	 1.624484
8.660000	 1.618996
8.678000	 1.615154
8.696000	 1.612006
8.714000	 1.608655
8.731999	 1.604491
8.750000	 1.599119
8.768000	 1.592602
8.786000	 1.584966
8.804000	 1.576486
8.821999	 1.567335
8.840000	 1.557556
8.858000	 1.547241
8.876000	 1.536228
8.894000	 1.524509
8.911999	 1.512418
8.930000	 1.500448
8.948000	 1.488656
8.966000	 1.477025
8.984000	 1.465691
9.001999	 1.455177
9.020000	 1.446174
9.038000	 1.439075
9.056000	 1.434013
9.074000	 1.430553
9.092000	 1.428095
9.109999	 1.426426
9.128000	 1.425726
9.146000	 1.426152
9.164000	 1.427580
9.182000	 1.429483
9.199999	 1.431034
9.218000	 1.431472
9.236000	 1.430627
9.254000	 1.429073
9.272000	 1.427864
9.289999	 1.428052
9.308000	 1.430002
9.326000	 1.433167
9.344000	 1.436485
9.362000	 1.438928
9.379999	 1.439706
9.398000	 1.438112
9.416000	 1.432652
9.434000	 1.420798
9.452000	 1.400161
9.469999	 1.371163
9.488000	 1.339112
9.506000	 1.313343
9.524000	 1.302217
9.542000	 1.308404
9.560000	 1.327211
9.577999	 1.349872
9.596000	 1.368761
9.614000	 1.380495
9.632000	 1.385732
9.650000	 1.386667
9.667999	 1.385148
9.686000	 1.382028
9.704000	 1.377631
9.722000	 1.372428
9.740000	 1.367331
9.757999	 1.363201
9.776000	 1.360833
9.794000	 1.360733
9.812000	 1.362694
9.830000	 1.366193
9.847999	 1.370641
9.866000	 1.375403
9.884000	 1.380118
9.902000	 1.384474
9.920000	 1.388579
9.937999	 1.392333
9.956000	 1.395634
9.974000	 1.398308
9.992000	 1.400148
10.01	1.400971
10.028	1.400809
10.046	1.399805
10.064	1.398177
10.082	1.396128
10.1	1.393679
10.118	1.390890
10.136	1.387751
10.154	1.384329
10.172	1.380750
10.19	1.377191
10.208	1.373583
10.226	1.369948
10.244	1.366102
10.262	1.362035
10.28	1.357647
10.298	1.353075
10.316	1.348415
10.334	1.343606
10.352	1.338615
10.37	1.333268
10.388	1.327646
10.406	1.321808
10.424	1.315975
10.442	1.310177
10.46	1.304467
10.478	1.298786
10.496	1.293191
10.514	1.287815
10.532	1.282934
10.55	1.278727
10.568	1.275249
10.586	1.272234
10.604	1.269550
10.622	1.266827
10.64	1.263953
10.658	1.260781
10.676	1.257354
10.694	1.253752
10.712	1.249973
10.73	1.246057
10.748	1.242101
10.766	1.238210
10.784	1.234412
10.802	1.230765
10.82	1.227207
10.838	1.223643
10.856	1.219915
10.874	1.215862
10.892	1.211399
10.91	1.206425
10.928	1.200844
10.946	1.194841
10.964	1.188551
10.982	1.182248
11	1.176319
11.018	1.171017
11.036	1.166582
11.054	1.163023
11.072	1.160285
11.09	1.158223
11.108	1.156524
11.126	1.155043
11.144	1.153452
11.162	1.151528
11.18	1.149032
11.198	1.145623
11.216	1.140939
11.234	1.134680
11.252	1.126630
11.27	1.116752
11.288	1.105204
11.306	1.092439
11.324	1.079083
11.342	1.065867
11.36	1.053737
11.378	1.043528
11.396	1.036007
11.414	1.031764
11.432	1.031030
11.45	1.033728
11.468	1.039307
11.486	1.047006
11.504	1.055773
11.522	1.064667
11.54	1.072879
11.558	1.079842
11.576	1.085263
11.594	1.089180
11.612	1.091690
11.63	1.093069
11.648	1.093541
11.666	1.093343
11.684	1.092608
11.702	1.091538
11.72	1.090200
11.738	1.088679
11.756	1.086945
11.774	1.085120
11.792	1.083117
11.81	1.080903
11.828	1.078427
11.846	1.075601
11.864	1.072215
11.882	1.067970
11.9	1.062490
11.918	1.055344
11.936	1.045928
11.954	1.033688
11.972	1.018279
11.99	0.999506
12.008	0.977682
12.026	0.953408
12.044	0.927976
12.062	0.903108
12.08	0.880792
12.098	0.862923
12.116	0.851007
12.134	0.845969
12.152	0.847704
12.17	0.855389
12.188	0.867473
12.206	0.881963
12.224	0.897046
12.242	0.911194
12.26	0.923376
12.278	0.933066
12.296	0.940189
12.314	0.945079
12.332	0.948156
12.35	0.949781
12.368	0.950346
12.386	0.950213
12.404	0.949664
12.422	0.948874
12.44	0.948078
12.458	0.947457
12.476	0.947110
12.494	0.947158
12.512	0.947707
12.53	0.948762
12.548	0.950260
12.566	0.952216
12.584	0.954594
12.602	0.957353
12.62	0.960349
12.638	0.963485
12.656	0.966703
12.674	0.969818
12.692	0.972658
12.71	0.975125
12.728	0.977133
12.746	0.978664
12.764	0.979704
12.782	0.980309
12.8	0.980534
12.818	0.980493
12.836	0.980273
12.854	0.979911
12.872	0.979433
12.89	0.978797
12.908	0.978077
12.926	0.977238
12.944	0.976282
12.962	0.975219
12.98	0.974088
12.998	0.972985
13.016	0.971890
13.034	0.970855
13.052	0.969927
13.07	0.969111
13.088	0.968330
13.106	0.967628
13.124	0.966929
13.142	0.966254
13.16	0.965480
13.178	0.964679
13.196	0.963807
13.214	0.962873
13.232	0.961831
13.25	0.960762
13.268	0.959619
13.286	0.958389
13.304	0.957053
13.322	0.955625
13.34	0.954059
13.358	0.952366
13.376	0.950550
13.394	0.948625
13.412	0.946583
13.43	0.944488
13.448	0.942360
13.466	0.940233
13.484	0.938139
13.502	0.936073
13.52	0.934037
13.538	0.932031
13.556	0.930034
13.574	0.927984
13.592	0.925880
13.61	0.923706
13.628	0.921361
13.646	0.918909
13.664	0.916304
13.682	0.913553
13.7	0.910676
13.718	0.907632
13.736	0.904558
13.754	0.901400
13.772	0.898269
13.79	0.895204
13.808	0.892293
13.826	0.889483
13.844	0.886782
13.862	0.884178
13.88	0.881670
13.898	0.879205
13.916	0.876755
13.934	0.874302
13.952	0.871794
13.97	0.869243
13.988	0.866595
14.006	0.863897
14.024	0.861144
14.042	0.858377
14.06	0.855618
14.078	0.852846
14.096	0.850090
14.114	0.847364
14.132	0.844649
14.15	0.841908
14.168	0.839098
14.186	0.836150
14.204	0.833036
14.222	0.829722
14.24	0.826176
14.258	0.822360
14.276	0.818308
14.294	0.813964
14.312	0.809288
14.33	0.804300
14.348	0.798932
14.366	0.793156
14.384	0.786976
14.402	0.780400
14.42	0.773519
14.438	0.766492
14.456	0.759518
14.474	0.752820
14.492	0.746657
14.51	0.741295
14.528	0.736914
14.546	0.733627
14.564	0.731458
14.582	0.730332
14.6	0.730089
14.618	0.730499
14.636	0.731261
14.654	0.732164
14.672	0.732977
14.69	0.733545
14.708	0.733788
14.726	0.733640
14.744	0.733198
14.762	0.732480
14.78	0.731574
14.798	0.730548
14.816	0.729439
14.834	0.728289
14.852	0.727094
14.87	0.725856
14.888	0.724566
14.906	0.723212
14.924	0.721782
14.942	0.720257
14.96	0.718670
14.978	0.717027
14.996	0.715326
15.014	0.713568
15.032	0.711754
15.05	0.709888
15.068	0.707941
15.086	0.705889
15.104	0.703738
15.122	0.701487
15.14	0.699143
15.158	0.696753
15.176	0.694362
15.194	0.691954
15.212	0.689625
15.23	0.687376
15.248	0.685204
15.266	0.683109
15.284	0.681061
15.302	0.679040
15.32	0.677023
15.338	0.674992
15.356	0.672937
15.374	0.670855
15.392	0.668764
15.41	0.666689
15.428	0.664659
15.446	0.662726
15.464	0.660913
15.482	0.659224
15.5	0.657650
15.518	0.656136
15.536	0.654664
15.554	0.653204
15.572	0.651691
15.59	0.650062
15.608	0.648317
15.626	0.646461
15.644	0.644506
15.662	0.642454
15.68	0.640361
15.698	0.638288
15.716	0.636320
15.734	0.634441
15.752	0.632673
15.77	0.631055
15.788	0.629559
15.806	0.628140
15.824	0.626755
15.842	0.625345
15.86	0.623867
15.878	0.622258
15.896	0.620459
15.914	0.618491
15.932	0.616300
15.95	0.613879
15.968	0.611292
15.986	0.608541
16.004	0.605643
16.022	0.602620
16.04	0.599580
16.058	0.596560
16.076	0.593590
16.094	0.590688
16.112	0.587924
16.13	0.585325
16.148	0.582894
16.166	0.580618
16.184	0.578490
16.202	0.576510
16.22	0.574599
16.238	0.572711
16.256	0.570800
16.274	0.568800
16.292	0.566658
16.31	0.564324
16.328	0.561756
16.346	0.558985
16.364	0.556030
16.382	0.552882
16.4	0.549624
16.418	0.546313
16.436	0.543037
16.454	0.539872
16.472	0.536877
16.49	0.534151
16.508	0.531754
16.526	0.529726
16.544	0.528079
16.562	0.526803
16.58	0.525891
16.598	0.525269
16.616	0.524896
16.634	0.524737
16.652	0.524681
16.67	0.524688
16.688	0.524709
16.706	0.524710
16.724	0.524653
16.742	0.524471
16.76	0.524199
16.778	0.523841
16.796	0.523394
16.814	0.522867
16.832	0.522266
16.85	0.521605
16.868	0.520909
16.886	0.520200
16.904	0.519487
16.922	0.518759
16.94	0.517998
16.958	0.517229
16.976	0.516452
16.994	0.515630
17.012	0.514790
17.03	0.513948
17.048	0.513076
17.066	0.512185
17.084	0.511285
17.102	0.510393
17.12	0.509514
17.138	0.508668
17.156	0.507846
17.174	0.507036
17.192	0.506280
17.21	0.505581
17.228	0.504951
17.246	0.504372
17.264	0.503836
17.282	0.503348
17.3	0.502898
17.318	0.502449
17.336	0.502016
17.354	0.501605
17.372	0.501189
17.39	0.500759
17.408	0.500289
17.426	0.499793
17.444	0.499276
17.462	0.498717
17.48	0.498118
17.498	0.497490
17.516	0.496827
17.534	0.496122
17.552	0.495376
17.57	0.494591
17.588	0.493800
17.606	0.492984
17.624	0.492105
17.642	0.491215
17.66	0.490337
17.678	0.489443
17.696	0.488535
17.714	0.487612
17.732	0.486676
17.75	0.485726
17.768	0.484763
17.786	0.483786
17.804	0.482795
17.822	0.481791
17.84	0.480777
17.858	0.479743
17.876	0.478671
17.894	0.477593
17.912	0.476525
17.93	0.475443
17.948	0.474347
17.966	0.473250
17.984	0.472164
18.002	0.471118
18.02	0.470097
18.038	0.469089
18.056	0.468097
18.074	0.467120
18.092	0.466175
18.11	0.465263
18.128	0.464354
18.146	0.463456
18.164	0.462596
18.182	0.461760
18.2	0.460939
18.218	0.460129
18.236	0.459328
18.254	0.458530
18.272	0.457730
18.29	0.456940
18.308	0.456158
18.326	0.455383
18.344	0.454618
18.362	0.453879
18.38	0.453160
18.398	0.452444
18.416	0.451739
18.434	0.451055
18.452	0.450374
18.47	0.449684
18.488	0.448989
18.506	0.448295
18.524	0.447573
18.542	0.446819
18.56	0.446021
18.578	0.445178
18.596	0.444293
18.614	0.443368
18.632	0.442361
18.65	0.441277
18.668	0.440141
18.686	0.438951
18.704	0.437706
18.722	0.436407
18.74	0.435051
18.758	0.433644
18.776	0.432205
18.794	0.430734
18.812	0.429245
18.83	0.427734
18.848	0.426200
18.866	0.424647
18.884	0.423076
18.902	0.421496
18.92	0.419921
18.938	0.418354
18.956	0.416802
18.974	0.415270
18.992	0.413766
19.01	0.412291
19.028	0.410846
19.046	0.409440
19.064	0.408088
19.082	0.406786
19.1	0.405531
19.118	0.404327
19.136	0.403178
19.154	0.402084
19.172	0.401048
19.19	0.400060
19.208	0.399095
19.226	0.398161
19.244	0.397268
19.262	0.396408
19.28	0.395560
19.298	0.394722
19.316	0.393869
19.334	0.393006
19.352	0.392141
19.37	0.391274
19.388	0.390386
19.406	0.389477
19.424	0.388542
19.442	0.387579
19.46	0.386597
19.478	0.385597
19.496	0.384573
19.514	0.383524
19.532	0.382449
19.55	0.381349
19.568	0.380227
19.586	0.379089
19.604	0.377930
19.622	0.376736
19.64	0.375514
19.658	0.374283
19.676	0.373041
19.694	0.371779
19.712	0.370498
19.73	0.369199
19.748	0.367880
19.766	0.366549
19.784	0.365205
19.802	0.363849
19.82	0.362478
19.838	0.361097
19.856	0.359713
19.874	0.358319
19.892	0.356904
19.91	0.355470
19.928	0.354037
19.946	0.352606
19.964	0.351159
19.982	0.349691
20	0.348210
20.018	0.346717
20.036	0.345213
20.054	0.343705
20.072	0.342189
20.09	0.340666
20.108	0.339135
20.126	0.337606
20.144	0.336085
20.162	0.334560
20.18	0.333021
20.198	0.331481
20.216	0.329956
20.234	0.328437
20.252	0.326909
20.27	0.325372
20.288	0.323833
20.306	0.322295
20.324	0.320752
20.342	0.319202
20.36	0.317645
20.378	0.316083
20.396	0.314516
20.414	0.312933
20.432	0.311331
20.45	0.309720
20.468	0.308107
20.486	0.306487
20.504	0.304852
20.522	0.303204
20.54	0.301571
20.558	0.299955
20.576	0.298344
20.594	0.296730
20.612	0.295123
20.63	0.293534
20.648	0.291960
20.666	0.290407
20.684	0.288874
20.702	0.287360
20.72	0.285863
20.738	0.284386
20.756	0.282946
20.774	0.281543
20.792	0.280156
20.81	0.278779
20.828	0.277417
20.846	0.276078
20.864	0.274758
20.882	0.273447
20.9	0.272146
20.918	0.270855
20.936	0.269577
20.954	0.268308
20.972	0.267035
20.99	0.265758
21.008	0.264482
21.026	0.263211
21.044	0.261942
21.062	0.260664
21.08	0.259378
21.098	0.258091
21.116	0.256802
21.134	0.255512
21.152	0.254225
21.17	0.252941
21.188	0.251659
21.206	0.250379
21.224	0.249101
21.242	0.247825
21.26	0.246552
21.278	0.245281
21.296	0.244010
21.314	0.242743
21.332	0.241484
21.35	0.240233
21.368	0.238981
21.386	0.237726
21.404	0.236469
21.422	0.235206
21.44	0.233938
21.458	0.232664
21.476	0.231387
21.494	0.230104
21.512	0.228808
21.53	0.227496
21.548	0.226175
21.566	0.224847
21.584	0.223510
21.602	0.222165
21.62	0.220814
21.638	0.219452
21.656	0.218071
21.674	0.216673
21.692	0.215266
21.71	0.213850
21.728	0.212428
21.746	0.211006
21.764	0.209585
21.782	0.208161
21.8	0.206732
21.818	0.205298
21.836	0.203859
21.854	0.202411
21.872	0.200962
21.89	0.199527
21.908	0.198104
21.926	0.196686
21.944	0.195266
21.962	0.193847
21.98	0.192440
21.998	0.191044
22.016	0.189662
22.034	0.188310
22.052	0.186987
22.07	0.185685
22.088	0.184399
22.106	0.183130
22.124	0.181882
22.142	0.180653
22.16	0.179447
22.178	0.178273
22.196	0.177133
22.214	0.176022
22.232	0.174938
22.25	0.173884
22.268	0.172850
22.286	0.171829
22.304	0.170824
22.322	0.169842
22.34	0.168890
22.358	0.167959
22.376	0.167037
22.394	0.166122
22.412	0.165219
22.43	0.164331
22.448	0.163459
22.466	0.162597
22.484	0.161741
22.502	0.160894
22.52	0.160049
22.538	0.159204
22.556	0.158361
22.574	0.157517
22.592	0.156670
22.61	0.155822
22.628	0.154969
22.646	0.154111
22.664	0.153248
22.682	0.152381
22.7	0.151510
22.718	0.150634
22.736	0.149749
22.754	0.148854
22.772	0.147956
22.79	0.147059
22.808	0.146164
22.826	0.145261
22.844	0.144347
22.862	0.143423
22.88	0.142485
22.898	0.141528
22.916	0.140555
22.934	0.139572
22.952	0.138583
22.97	0.137586
22.988	0.136571
23.006	0.135533
23.024	0.134478
23.042	0.133411
23.06	0.132337
23.078	0.131250
23.096	0.130142
23.114	0.129008
23.132	0.127856
23.15	0.126695
23.168	0.125531
23.186	0.124358
23.204	0.123166
23.222	0.121951
23.24	0.120721
23.258	0.119488
23.276	0.118253
23.294	0.117016
23.312	0.115784
23.33	0.114558
23.348	0.113337
23.366	0.112121
23.384	0.110908
23.402	0.109700
23.42	0.108499
23.438	0.107302
23.456	0.106113
23.474	0.104939
23.492	0.103783
23.51	0.102641
23.528	0.101511
23.546	0.100392
23.564	0.099285
23.582	0.098189
23.6	0.097103
23.618	0.096028
23.636	0.094970
23.654	0.093934
23.672	0.092916
23.69	0.091918
23.708	0.090939
23.726	0.089979
23.744	0.089036
23.762	0.088108
23.78	0.087195
23.798	0.086299
23.816	0.085422
23.834	0.084564
23.852	0.083724
23.87	0.082898
23.888	0.082090
23.906	0.081297
23.924	0.080513
23.942	0.079738
23.96	0.078974
23.978	0.078222
23.996	0.077487
24.014	0.076767
24.032	0.076051
24.05	0.075331
24.068	0.074612
24.086	0.073894
24.104	0.073177
24.122	0.072462
24.14	0.071748
24.158	0.071031
24.176	0.070313
24.194	0.069593
24.212	0.068874
24.23	0.068158
24.248	0.067443
24.266	0.066727
24.284	0.066008
24.302	0.065286
24.32	0.064566
24.338	0.063855
24.356	0.063151
24.374	0.062452
24.392	0.061753
24.41	0.061051
24.428	0.060349
24.446	0.059656
24.464	0.058978
24.482	0.058310
24.5	0.057650
24.518	0.056993
24.536	0.056339
24.554	0.055692
24.572	0.055052
24.59	0.054426
24.608	0.053806
24.626	0.053183
24.644	0.052547
24.662	0.051901
24.68	0.051257
24.698	0.050621
24.716	0.049996
24.734	0.049375
24.752	0.048749
24.77	0.048117
24.788	0.047482
24.806	0.046844
24.824	0.046202
24.842	0.045555
24.86	0.044907
24.878	0.044260
24.896	0.043615
24.914	0.042971
24.932	0.042329
24.95	0.041690
24.968	0.041053
24.986	0.040421
25.004	0.039797
25.022	0.039179
25.04	0.038569
25.058	0.037967
25.076	0.037373
25.094	0.036786
25.112	0.036211
25.13	0.035652
25.148	0.035110
25.166	0.034581
25.184	0.034065
25.202	0.033561
25.22	0.033067
25.238	0.032587
25.256	0.032121
25.274	0.031671
25.292	0.031234
25.31	0.030810
25.328	0.030397
25.346	0.029996
25.364	0.029607
25.382	0.029227
25.4	0.028858
25.418	0.028500
25.436	0.028147
25.454	0.027796
25.472	0.027447
25.49	0.027103
25.508	0.026767
25.526	0.026442
25.544	0.026127
25.562	0.025816
25.58	0.025502
25.598	0.025188
25.616	0.024873
25.634	0.024560
25.652	0.024246
25.67	0.023932
25.688	0.023620
25.706	0.023309
25.724	0.023002
25.742	0.022696
25.76	0.022393
25.778	0.022092
25.796	0.021793
25.814	0.021495
25.832	0.021201
25.85	0.020913
25.868	0.020628
25.886	0.020348
25.904	0.020069
25.922	0.019791
25.94	0.019515
25.958	0.019241
25.976	0.018972
25.994	0.018708
26.012	0.018448
26.03	0.018190
26.048	0.017934
26.066	0.017680
26.084	0.017429
26.102	0.017177
26.12	0.016926
26.138	0.016675
26.156	0.016425
26.174	0.016173
26.192	0.015918
26.21	0.015660
26.228	0.015402
26.246	0.015149
26.264	0.014904
26.282	0.014664
26.3	0.014424
26.318	0.014179
26.336	0.013926
26.354	0.013668
26.372	0.013414
26.39	0.013167
26.408	0.012929
26.426	0.012697
26.444	0.012466
26.462	0.012236
26.48	0.012005
26.498	0.011775
26.516	0.011553
26.534	0.011342
26.552	0.011139
26.57	0.010945
26.588	0.010758
26.606	0.010580
26.624	0.010411
26.642	0.010249
26.66	0.010093
26.678	0.009942
26.696	0.009796
26.714	0.009657
26.732	0.009528
26.75	0.009414
26.768	0.009314
26.786	0.009223
26.804	0.009135
26.822	0.009046
26.84	0.008960
26.858	0.008878
26.876	0.008798
26.894	0.008722
26.912	0.008650
26.93	0.008581
26.948	0.008511
26.966	0.008437
26.984	0.008356
27.002	0.008278
27.02	0.008217
27.028	0.008201