File: Bakgrunnsmateriale/MATLAB/FTIR/ftir_data/subAa/Mapping_121/BZ1503107-1_t119_cm-1.asc
PE IR       SPECTRUM    SPECTRUM    ASCII       PEDS        1.60
  -1
BZ4CF9~1.ASC
17/04/07
23:02:13.00
17/04/07
23:02:13.00
tln
$BZ1503107-1_t0119$<tbV0>[-7.8,13.0,8.0,0.0,27,1,0]
370
64

2002,4.07
MIRTGS : RIGHTBACK : INTERNAL 2
MIR : ON : INTERNAL 2
OPTKBR

0.200000
8
8.000000
FILLER
RATIO
SPECTRUM
UNLOCKED 256

DOUBLE
64
COMBINED
1
0
0

1.000000
RATIO

1
0
TRUE
51149
0
LEFT NOT FITTED RIGHT NOT FITTED 0
NONE
NONE
15600
12
4.427000
51148
TRUE
1 0 8 72 0 0 0 0

15798

#HDR
-1
-1
#GR
CM-1
%T
2.38419e-05
0.0
5000
-1.000000
4631
8
75.4431
58.8168
#DATA
5000	64.4112
4996	63.7947
4992	64.1218
4988	64.9513
4984	64.835
4980	63.9311
4976	63.3821
4972	63.8882
4968	64.6738
4964	64.9709
4960	65.2027
4956	65.1167
4952	64.6826
4948	64.8366
4944	65.026
4940	64.8821
4936	65.1117
4932	65.4641
4928	65.5221
4924	65.4619
4920	65.2128
4916	64.9896
4912	65.0977
4908	65.0847
4904	64.8081
4900	64.5409
4896	64.6095
4892	64.8772
4888	64.8484
4884	64.7289
4880	64.6812
4876	64.6437
4872	64.791
4868	64.9286
4864	64.9688
4860	65.064
4856	64.9801
4852	64.8726
4848	64.9427
4844	64.9054
4840	64.8487
4836	64.9889
4832	65.0521
4828	64.9727
4824	64.8649
4820	64.7903
4816	64.8731
4812	64.8154
4808	64.625
4804	64.6531
4800	64.7704
4796	64.7615
4792	64.7211
4788	64.7612
4784	64.8218
4780	64.7537
4776	64.536
4772	64.323
4768	64.3705
4764	64.6908
4760	64.8863
4756	64.9387
4752	65.106
4748	65.24
4744	65.2809
4740	65.3
4736	65.1335
4732	64.8803
4728	64.7268
4724	64.6155
4720	64.5797
4716	64.6475
4712	64.7181
4708	64.788
4704	64.7839
4700	64.6275
4696	64.6618
4692	64.8465
4688	64.8022
4684	64.7462
4680	64.7341
4676	64.6363
4672	64.6481
4668	64.8278
4664	64.9794
4660	64.9443
4656	64.951
4652	65.0618
4648	65.0555
4644	65.0434
4640	65.1026
4636	65.1469
4632	65.0381
4628	64.7563
4624	64.5885
4620	64.6434
4616	64.8141
4612	64.8609
4608	64.5833
4604	64.3539
4600	64.5267
4596	64.6952
4592	64.6281
4588	64.6411
4584	64.7733
4580	64.8349
4576	64.7079
4572	64.6298
4568	64.7467
4564	64.8039
4560	64.7084
4556	64.4186
4552	64.0258
4548	63.9447
4544	64.2833
4540	64.5266
4536	64.4398
4532	64.3483
4528	64.3008
4524	64.2988
4520	64.313
4516	64.3518
4512	64.4499
4508	64.2836
4504	64.1422
4500	64.3325
4496	64.3757
4492	64.1512
4488	63.842
4484	63.7661
4480	64.0034
4476	63.9233
4472	63.8668
4468	64.188
4464	64.5627
4460	64.8123
4456	64.9257
4452	65.0957
4448	65.262
4444	64.1228
4440	63.8895
4436	69.1901
4432	75.1007
4428	72.7834
4424	65.3837
4420	62.7962
4416	64.5585
4412	65.7171
4408	65.9585
4404	65.3446
4400	64.6686
4396	64.713
4392	64.6791
4388	64.4266
4384	64.2437
4380	64.2527
4376	64.3424
4372	64.3732
4368	64.5089
4364	64.6799
4360	64.7259
4356	64.6866
4352	64.6168
4348	64.6142
4344	64.7027
4340	64.6968
4336	64.6604
4332	64.7321
4328	64.7094
4324	64.5785
4320	64.5015
4316	64.4839
4312	64.4753
4308	64.4042
4304	64.314
4300	64.4521
4296	64.6311
4292	64.616
4288	64.7419
4284	64.9467
4280	64.8946
4276	64.6887
4272	64.5054
4268	64.4335
4264	64.4419
4260	64.4546
4256	64.5784
4252	64.7016
4248	64.6059
4244	64.5348
4240	64.7202
4236	64.9158
4232	64.8717
4228	64.7461
4224	64.7725
4220	64.9127
4216	65.0426
4212	65.1239
4208	65.0644
4204	64.911
4200	64.8799
4196	64.9225
4192	64.8868
4188	64.7769
4184	64.7763
4180	64.8862
4176	64.8906
4172	64.876
4168	64.9322
4164	64.9694
4160	65.0006
4156	65.0092
4152	64.9129
4148	64.8213
4144	64.7516
4140	64.6568
4136	64.7351
4132	64.9386
4128	65.0591
4124	65.0716
4120	64.9896
4116	64.9271
4112	65.045
4108	65.2163
4104	65.2547
4100	65.2045
4096	65.0859
4092	64.9347
4088	64.7865
4084	64.7009
4080	64.8504
4076	65.1473
4072	65.229
4068	65.0871
4064	64.9637
4060	64.962
4056	65.0863
4052	65.1718
4048	65.1328
4044	65.0028
4040	64.8427
4036	64.8448
4032	64.9339
4028	64.955
4024	64.9388
4020	64.8805
4016	64.8296
4012	64.7907
4008	64.8232
4004	64.9713
4000	64.9928
3996	64.8586
3992	64.8233
3988	64.8621
3984	64.8824
3980	64.9009
3976	64.8561
3972	64.7953
3968	64.8011
3964	64.8502
3960	64.8342
3956	64.777
3952	64.8308
3948	64.9636
3944	65.064
3940	65.0302
3936	64.8801
3932	64.7231
3928	64.6698
3924	64.7895
3920	64.9335
3916	65.008
3912	64.9562
3908	64.8366
3904	64.8182
3900	64.7889
3896	64.7319
3892	64.7918
3888	64.9492
3884	65.0328
3880	64.9482
3876	64.8616
3872	64.8856
3868	64.9165
3864	64.944
3860	64.9757
3856	64.9976
3852	64.962
3848	64.7855
3844	64.75
3840	64.9664
3836	65.0311
3832	64.9882
3828	65.0126
3824	64.9636
3820	64.9588
3816	64.9453
3812	64.8599
3808	64.9302
3804	65.0505
3800	65.0049
3796	64.8524
3792	64.7657
3788	64.7322
3784	64.695
3780	64.7953
3776	64.9437
3772	65.0085
3768	65.076
3764	65.1003
3760	65.0063
3756	64.9102
3752	64.9433
3748	65.0197
3744	65.0128
3740	64.9583
3736	64.9277
3732	64.9407
3728	64.9724
3724	64.9977
3720	65.0515
3716	65.0863
3712	64.9953
3708	64.9379
3704	65.0245
3700	65.0166
3696	64.8953
3692	64.9248
3688	65.039
3684	65.0026
3680	64.9181
3676	64.9199
3672	64.9346
3668	64.9468
3664	64.955
3660	64.9799
3656	65.0254
3652	64.9989
3648	64.9571
3644	64.9671
3640	65.0069
3636	65.1269
3632	65.2652
3628	65.2599
3624	65.1112
3620	64.9587
3616	64.9064
3612	64.9354
3608	64.9518
3604	64.9499
3600	65.0264
3596	65.0877
3592	64.9737
3588	64.8451
3584	64.8751
3580	64.9357
3576	64.9168
3572	64.8824
3568	64.8886
3564	64.9351
3560	64.9394
3556	64.8744
3552	64.79
3548	64.7047
3544	64.6854
3540	64.7386
3536	64.7247
3532	64.6045
3528	64.5769
3524	64.7166
3520	64.7739
3516	64.7227
3512	64.7868
3508	64.8602
3504	64.8523
3500	64.8349
3496	64.7449
3492	64.6627
3488	64.6782
3484	64.758
3480	64.884
3476	64.9863
3472	64.98
3468	64.8563
3464	64.7443
3460	64.78
3456	64.911
3452	64.9829
3448	64.9463
3444	64.8656
3440	64.8136
3436	64.8291
3432	64.9331
3428	64.9962
3424	64.8889
3420	64.7994
3416	64.8825
3412	64.9761
3408	64.9699
3404	64.9058
3400	64.8731
3396	64.9318
3392	64.9409
3388	64.8265
3384	64.7189
3380	64.6946
3376	64.7773
3372	64.9067
3368	64.9532
3364	64.9192
3360	64.872
3356	64.8637
3352	64.8991
3348	64.9271
3344	64.934
3340	64.8864
3336	64.8499
3332	64.9464
3328	65.0509
3324	65.0031
3320	64.8802
3316	64.8104
3312	64.7561
3308	64.7374
3304	64.8168
3300	64.8412
3296	64.759
3292	64.7506
3288	64.8219
3284	64.8383
3280	64.8207
3276	64.8353
3272	64.8359
3268	64.7819
3264	64.7569
3260	64.8415
3256	64.9199
3252	64.8603
3248	64.8289
3244	64.9039
3240	64.8923
3236	64.864
3232	64.8914
3228	64.8237
3224	64.7205
3220	64.6833
3216	64.6396
3212	64.6119
3208	64.7231
3204	64.8364
3200	64.8823
3196	64.9511
3192	64.9779
3188	64.9462
3184	64.8925
3180	64.881
3176	64.8943
3172	64.8612
3168	64.8858
3164	64.9361
3160	64.8872
3156	64.8387
3152	64.8307
3148	64.783
3144	64.7625
3140	64.7816
3136	64.7752
3132	64.7304
3128	64.6626
3124	64.6953
3120	64.7796
3116	64.7942
3112	64.7456
3108	64.6805
3104	64.6983
3100	64.7764
3096	64.8403
3092	64.8667
3088	64.8689
3084	64.8573
3080	64.784
3076	64.6955
3072	64.6656
3068	64.6919
3064	64.764
3060	64.7887
3056	64.7284
3052	64.6777
3048	64.6595
3044	64.6852
3040	64.7479
3036	64.7676
3032	64.7493
3028	64.7491
3024	64.7815
3020	64.8124
3016	64.7758
3012	64.6969
3008	64.684
3004	64.7487
3000	64.8031
2996	64.7773
2992	64.71
2988	64.6894
2984	64.7363
2980	64.8217
2976	64.8637
2972	64.83
2968	64.724
2964	64.5627
2960	64.4894
2956	64.5401
2952	64.5604
2948	64.5276
2944	64.5102
2940	64.5001
2936	64.5343
2932	64.5405
2928	64.4754
2924	64.5064
2920	64.5569
2916	64.4912
2912	64.4296
2908	64.4272
2904	64.4056
2900	64.3886
2896	64.4396
2892	64.546
2888	64.6145
2884	64.6104
2880	64.592
2876	64.5553
2872	64.5251
2868	64.5235
2864	64.5256
2860	64.5448
2856	64.5724
2852	64.6025
2848	64.6173
2844	64.5872
2840	64.5421
2836	64.556
2832	64.5882
2828	64.5583
2824	64.5408
2820	64.5559
2816	64.5685
2812	64.6218
2808	64.6835
2804	64.6693
2800	64.6252
2796	64.6154
2792	64.5898
2788	64.547
2784	64.5646
2780	64.6068
2776	64.5954
2772	64.5828
2768	64.5759
2764	64.5401
2760	64.5442
2756	64.57
2752	64.5535
2748	64.564
2744	64.6003
2740	64.5883
2736	64.5813
2732	64.6089
2728	64.6168
2724	64.5892
2720	64.5585
2716	64.5851
2712	64.6247
2708	64.6243
2704	64.6567
2700	64.6261
2696	64.4923
2692	64.444
2688	64.4704
2684	64.4896
2680	64.5043
2676	64.5005
2672	64.4905
2668	64.4608
2664	64.4467
2660	64.4395
2656	64.4128
2652	64.4438
2648	64.492
2644	64.504
2640	64.4839
2636	64.4095
2632	64.3357
2628	64.346
2624	64.4263
2620	64.5167
2616	64.5627
2612	64.5703
2608	64.5713
2604	64.5415
2600	64.5224
2596	64.5198
2592	64.4932
2588	64.4835
2584	64.491
2580	64.4804
2576	64.4521
2572	64.4574
2568	64.5004
2564	64.4888
2560	64.4431
2556	64.4361
2552	64.465
2548	64.5087
2544	64.496
2540	64.4548
2536	64.4764
2532	64.5196
2528	64.5048
2524	64.4575
2520	64.4261
2516	64.3871
2512	64.365
2508	64.3801
2504	64.4166
2500	64.465
2496	64.425
2492	64.3297
2488	64.3313
2484	64.3992
2480	64.4019
2476	64.342
2472	64.3253
2468	64.3589
2464	64.4014
2460	64.4218
2456	64.3957
2452	64.3735
2448	64.3799
2444	64.3916
2440	64.4385
2436	64.4934
2432	64.4677
2428	64.3485
2424	64.2311
2420	64.235
2416	64.2848
2412	64.2882
2408	64.3106
2404	64.3577
2400	64.3896
2396	64.3937
2392	64.3805
2388	64.3553
2384	64.3122
2380	64.305
2376	64.3156
2372	64.2608
2368	64.1908
2364	64.2117
2360	64.2855
2356	64.2938
2352	64.2436
2348	64.2139
2344	64.2297
2340	64.2884
2336	64.3634
2332	64.4201
2328	64.4298
2324	64.3726
2320	64.3388
2316	64.346
2312	64.3204
2308	64.328
2304	64.3511
2300	64.3384
2296	64.3307
2292	64.2793
2288	64.2062
2284	64.1886
2280	64.2064
2276	64.2231
2272	64.1918
2268	64.1545
2264	64.1949
2260	64.2497
2256	64.2388
2252	64.2275
2248	64.2402
2244	64.2237
2240	64.1899
2236	64.1452
2232	64.1275
2228	64.1706
2224	64.2258
2220	64.2551
2216	64.2651
2212	64.2843
2208	64.2716
2204	64.2186
2200	64.2006
2196	64.1845
2192	64.1188
2188	64.0604
2184	64.0752
2180	64.1567
2176	64.2051
2172	64.1578
2168	64.0864
2164	64.0521
2160	64.0857
2156	64.1212
2152	64.0754
2148	64.061
2144	64.1181
2140	64.1366
2136	64.0881
2132	64.0287
2128	64.0121
2124	64.0556
2120	64.1382
2116	64.2025
2112	64.1699
2108	64.088
2104	64.0641
2100	64.0543
2096	64.0133
2092	63.9732
2088	63.9412
2084	63.9565
2080	64.0089
2076	64.0313
2072	64.0228
2068	63.9702
2064	63.8997
2060	63.8935
2056	63.918
2052	63.9137
2048	63.8857
2044	63.8809
2040	63.9305
2036	63.994
2032	63.9983
2028	63.9213
2024	63.8574
2020	63.8454
2016	63.8645
2012	63.9098
2008	63.9019
2004	63.8628
2000	63.8698
1996	63.8725
1992	63.8417
1988	63.8165
1984	63.8147
1980	63.8294
1976	63.8439
1972	63.843
1968	63.8375
1964	63.846
1960	63.8427
1956	63.8098
1952	63.8046
1948	63.8491
1944	63.8654
1940	63.8431
1936	63.8596
1932	63.9049
1928	63.9003
1924	63.8481
1920	63.794
1916	63.7896
1912	63.8403
1908	63.8819
1904	63.8592
1900	63.8041
1896	63.7897
1892	63.7929
1888	63.7871
1884	63.7942
1880	63.8181
1876	63.814
1872	63.7674
1868	63.7312
1864	63.7437
1860	63.7999
1856	63.8391
1852	63.8512
1848	63.8227
1844	63.7437
1840	63.7356
1836	63.8064
1832	63.8162
1828	63.7781
1824	63.777
1820	63.7636
1816	63.6878
1812	63.6384
1808	63.7058
1804	63.8041
1800	63.8111
1796	63.7432
1792	63.6712
1788	63.6459
1784	63.6583
1780	63.6826
1776	63.7142
1772	63.7294
1768	63.6844
1764	63.5733
1760	63.4784
1756	63.4624
1752	63.4805
1748	63.4434
1744	63.3582
1740	63.2898
1736	63.2697
1732	63.3213
1728	63.3711
1724	63.364
1720	63.3842
1716	63.4646
1712	63.5416
1708	63.571
1704	63.5816
1700	63.6148
1696	63.6294
1692	63.6119
1688	63.6135
1684	63.6114
1680	63.5708
1676	63.5275
1672	63.4902
1668	63.4555
1664	63.4746
1660	63.5157
1656	63.488
1652	63.4251
1648	63.4109
1644	63.4243
1640	63.4218
1636	63.414
1632	63.4011
1628	63.3957
1624	63.3845
1620	63.3626
1616	63.3455
1612	63.3343
1608	63.3593
1604	63.4052
1600	63.3978
1596	63.3411
1592	63.325
1588	63.2979
1584	63.239
1580	63.269
1576	63.3424
1572	63.382
1568	63.4111
1564	63.3949
1560	63.2857
1556	63.1983
1552	63.2189
1548	63.2597
1544	63.2487
1540	63.2158
1536	63.2451
1532	63.2954
1528	63.3019
1524	63.3215
1520	63.322
1516	63.2752
1512	63.2767
1508	63.3318
1504	63.3415
1500	63.2874
1496	63.2465
1492	63.2488
1488	63.2048
1484	63.1536
1480	63.1512
1476	63.1204
1472	63.0835
1468	63.0937
1464	63.0816
1460	63.027
1456	63.0486
1452	63.1359
1448	63.1687
1444	63.1099
1440	63.0212
1436	63.0351
1432	63.0833
1428	63.0595
1424	63.0455
1420	63.0836
1416	63.1236
1412	63.0966
1408	63.0587
1404	63.0843
1400	63.1064
1396	63.1176
1392	63.1085
1388	63.0401
1384	62.993
1380	62.9661
1376	62.9109
1372	62.9193
1368	62.9853
1364	62.988
1360	62.9521
1356	62.9635
1352	63.0061
1348	63.0434
1344	63.0665
1340	63.0669
1336	63.069
1332	63.0866
1328	63.072
1324	63.0424
1320	63.0419
1316	63.0283
1312	62.9991
1308	62.9781
1304	62.9647
1300	62.9934
1296	63.0164
1292	62.9735
1288	62.9301
1284	62.9547
1280	62.992
1276	62.9388
1272	62.85
1268	62.8228
1264	62.7911
1260	62.7317
1256	62.7173
1252	62.7292
1248	62.7348
1244	62.753
1240	62.7503
1236	62.7577
1232	62.8069
1228	62.8131
1224	62.8078
1220	62.804
1216	62.7825
1212	62.7807
1208	62.7477
1204	62.6951
1200	62.6683
1196	62.6999
1192	62.8069
1188	62.8856
1184	62.848
1180	62.7392
1176	62.6278
1172	62.5746
1168	62.6005
1164	62.6435
1160	62.6526
1156	62.6345
1152	62.6031
1148	62.5486
1144	62.5648
1140	62.6116
1136	62.5716
1132	62.5481
1128	62.5518
1124	62.5133
1120	62.5215
1116	62.6258
1112	62.7165
1108	62.6998
1104	62.6666
1100	62.6039
1096	62.4478
1092	62.3397
1088	62.3619
1084	62.5107
1080	62.6405
1076	62.6199
1072	62.6123
1068	62.6566
1064	62.6405
1060	62.5892
1056	62.5378
1052	62.4801
1048	62.4198
1044	62.4212
1040	62.4776
1036	62.5342
1032	62.5916
1028	62.5788
1024	62.5014
1020	62.4757
1016	62.463
1012	62.4292
1008	62.4463
1004	62.4465
1000	62.4145
996	 62.4063
992	 62.3682
988	 62.3342
984	 62.3799
980	 62.4184
976	 62.3865
972	 62.3725
968	 62.3787
964	 62.3358
960	 62.2784
956	 62.2806
952	 62.3135
948	 62.3439
944	 62.4128
940	 62.4859
936	 62.5214
932	 62.5001
928	 62.4284
924	 62.3848
920	 62.4266
916	 62.4981
912	 62.4938
908	 62.4219
904	 62.3772
900	 62.4041
896	 62.387
892	 62.2954
888	 62.2801
884	 62.2955
880	 62.2763
876	 62.3183
872	 62.34
868	 62.2631
864	 62.2168
860	 62.2662
856	 62.363
852	 62.3592
848	 62.2623
844	 62.234
840	 62.1521
836	 62.0265
832	 62.0855
828	 62.251
824	 62.3471
820	 62.399
816	 62.3756
812	 62.2746
808	 62.1899
804	 62.1903
800	 62.2982
796	 62.3189
792	 62.2422
788	 62.2488
784	 62.2362
780	 62.0537
776	 61.8939
772	 61.959
768	 62.0804
764	 62.0861
760	 62.0247
756	 61.9614
752	 61.9521
748	 62.0044
744	 62.0185
740	 61.9538
736	 61.8848
732	 61.8914
728	 61.9066
724	 61.8434
720	 61.9092
716	 62.0392
712	 61.8486
708	 61.5393
704	 61.4712
700	 61.5817
696	 61.8342
692	 62.0303
688	 61.8379
684	 61.5819
680	 61.6099
676	 61.6495
672	 61.5657
668	 61.5222
664	 61.7159
660	 61.9997
656	 61.9489
652	 61.6336
648	 61.3295
644	 60.9282
640	 60.7864
636	 61.447
632	 62.0606
628	 61.7356
624	 61.0187
620	 60.6218
616	 60.5653
612	 60.7021
608	 61.0232
604	 61.4099
600	 61.5652
596	 61.039
592	 60.305
588	 60.1516
584	 60.3703
580	 60.4951
576	 60.1007
572	 59.7729
568	 60.312
564	 60.9527
560	 61.3408
556	 61.8861
552	 61.9881
548	 61.4907
544	 61.6223
540	 62.2906
536	 62.0458
532	 61.2391
528	 61.0658
524	 61.0797
520	 60.7932
516	 60.6786
512	 61.0875
508	 61.1497
504	 60.5432
500	 60.4125
496	 60.8719
492	 61.0672
488	 60.9846
484	 60.8665
480	 60.6731
476	 60.6676
472	 60.9026
468	 61.0326
464	 60.9382
460	 60.3913
456	 59.6722
452	 59.9664
448	 60.7648
444	 60.4889
440	 59.6702
436	 59.0341
432	 58.8806
428	 59.9085
424	 60.8302
420	 60.5505
416	 59.8166
412	 59.6385
408	 60.8589
404	 61.9613
400	 63.2617
396	 65.506
392	 64.8257
388	 65.0193
384	 71.0687
380	 70.0154
376	 63.0254
372	 65.7992
370	 68.3148