File: Bakgrunnsmateriale/MATLAB/FTIR/ftir_data/subAa/Mapping_121/BZ1503107-1_t105.asc
PE IR       SPECTRUM    SPECTRUM    ASCII       PEDS        1.60
  -1
BZD6B6~1.ASC
17/04/07
21:51:18.00
17/04/07
21:51:44.00
tln
$BZ1503107-1_t0105$<tbV0>[0.0,10.4,8.0,0.0,27,1,0]
27.028
64

2002,4.07
MIRTGS : RIGHTBACK : INTERNAL 2
MIR : ON : INTERNAL 2
OPTKBR

0.200000
8
8.000000
FILLER
RATIO
SPECTRUM
UNLOCKED 256

DOUBLE
64
COMBINED
1
0
0

0.002000
RATIO

1
0
TRUE
51149
0
LEFT NOT FITTED RIGHT NOT FITTED 0
NONE
NONE
15600
12
4.427000
51148
TRUE
1 0 8 72 0 0 0 0

15798

#HDR
-1
-1
#GR
µM
%T
2.38419e-05
0.0
2.000000
0.002000
12515
8
80.8688
55.7917
#DATA
2.000000	 66.2032
2.018000	 65.8013
2.036000	 64.7357
2.054000	 64.6519
2.072000	 64.7593
2.090000	 65.2461
2.108000	 65.103
2.126000	 65.0704
2.144000	 65.4377
2.162000	 65.1578
2.180000	 64.7894
2.198000	 64.6554
2.216000	 64.4507
2.234000	 64.331
2.252000	 76.6971
2.270000	 64.0867
2.288000	 65.1228
2.306000	 64.7666
2.324000	 64.6001
2.342000	 64.5786
2.360000	 64.9528
2.378000	 65.0964
2.396000	 65.2343
2.414000	 64.8742
2.432000	 65.0595
2.450000	 65.0185
2.468000	 65.0809
2.486000	 64.9943
2.504000	 64.9911
2.522000	 65.0582
2.540000	 65.2114
2.558000	 64.9087
2.576000	 65.044
2.594000	 65.0366
2.612000	 64.8738
2.630000	 64.597
2.648000	 65.047
2.666000	 65.1064
2.684000	 64.9817
2.702000	 65.2197
2.720000	 64.9778
2.738000	 64.9652
2.756000	 65.1631
2.774000	 65.0094
2.792000	 65.1114
2.810000	 65.0883
2.828000	 64.9572
2.846000	 64.8458
2.864000	 65.0786
2.882000	 65.1395
2.900000	 64.972
2.918000	 65.037
2.936000	 64.9735
2.954000	 64.9377
2.972000	 64.9489
2.990000	 64.7182
3.008000	 64.8194
3.026000	 64.8667
3.044000	 64.8675
3.062000	 64.8794
3.080000	 64.9474
3.098000	 64.9828
3.116000	 64.7527
3.134000	 64.9373
3.152000	 64.9508
3.170000	 64.5949
3.188000	 64.9041
3.206000	 64.8869
3.224000	 64.8136
3.242000	 64.9147
3.260000	 64.8064
3.278000	 65.0329
3.296000	 64.8658
3.314000	 64.8862
3.332000	 64.8142
3.350000	 64.6921
3.368000	 64.7642
3.386000	 64.5321
3.404000	 64.6323
3.422000	 64.7182
3.440000	 64.744
3.458000	 64.5621
3.476000	 64.6028
3.494000	 64.6946
3.512000	 64.5832
3.530000	 64.701
3.548000	 64.7585
3.566000	 64.7475
3.584000	 64.672
3.602000	 64.6782
3.620000	 64.7465
3.638000	 64.7159
3.656000	 64.676
3.674000	 64.7915
3.692000	 64.73
3.710000	 64.5272
3.728000	 64.6396
3.746000	 64.6893
3.764000	 64.6742
3.782000	 64.711
3.800000	 64.6659
3.818000	 64.5859
3.836000	 64.5721
3.854000	 64.5441
3.872000	 64.7029
3.890000	 64.6309
3.908000	 64.5301
3.926000	 64.6204
3.944000	 64.621
3.962000	 64.571
3.980000	 64.6318
3.998000	 64.5692
4.016000	 64.4731
4.034000	 64.4021
4.052000	 64.5234
4.070000	 64.6174
4.088000	 64.6176
4.106000	 64.5757
4.124000	 64.6005
4.141999	 64.4622
4.160000	 64.48
4.178000	 64.5614
4.196000	 64.4622
4.214000	 64.4456
4.232000	 64.5756
4.250000	 64.4977
4.268000	 64.4052
4.286000	 64.358
4.304000	 64.5051
4.322000	 64.4604
4.340000	 64.4829
4.358000	 64.4212
4.375999	 64.4468
4.394000	 64.3506
4.412000	 64.3969
4.430000	 64.4182
4.448000	 64.4301
4.466000	 64.3341
4.484000	 64.4155
4.502000	 64.4104
4.520000	 64.3441
4.538000	 64.2573
4.556000	 64.2681
4.574000	 64.2297
4.592000	 64.3017
4.609999	 64.2906
4.628000	 64.2627
4.646000	 64.2935
4.664000	 64.2413
4.682000	 64.2991
4.700000	 64.2859
4.718000	 64.3119
4.736000	 64.2339
4.754000	 64.1783
4.772000	 64.3084
4.790000	 64.2671
4.808000	 64.2367
4.826000	 64.1029
4.843999	 64.145
4.862000	 64.2819
4.880000	 64.2081
4.898000	 64.0923
4.916000	 64.1625
4.934000	 64.1179
4.952000	 64.1306
4.970000	 64.1479
4.988000	 64.102
5.006000	 64.128
5.024000	 64.2127
5.042000	 64.1477
5.060000	 64.1256
5.077999	 64.1018
5.096000	 64.0817
5.114000	 64.1489
5.132000	 64.0604
5.150000	 64.0269
5.168000	 64.0012
5.186000	 63.9365
5.204000	 63.9531
5.222000	 64.0073
5.240000	 64.1067
5.258000	 64.0568
5.276000	 64.0409
5.294000	 64.0174
5.312000	 63.9853
5.330000	 63.9994
5.348000	 64.0079
5.366000	 64.056
5.384000	 64.0893
5.402000	 64.0014
5.420000	 63.9179
5.438000	 63.9669
5.456000	 63.9788
5.474000	 63.9577
5.492000	 63.9442
5.510000	 63.9208
5.528000	 63.9314
5.546000	 63.909
5.564000	 63.8435
5.582000	 63.8132
5.600000	 63.7887
5.618000	 63.7727
5.636000	 63.8516
5.654000	 63.8474
5.672000	 63.7716
5.690000	 63.735
5.708000	 63.5344
5.726000	 63.4092
5.744000	 63.3285
5.762000	 63.2114
5.780000	 63.3013
5.798000	 63.4588
5.816000	 63.5555
5.834000	 63.5705
5.852000	 63.5839
5.870000	 63.6592
5.888000	 63.6956
5.906000	 63.6313
5.923999	 63.5625
5.942000	 63.5806
5.960000	 63.5877
5.978000	 63.621
5.996000	 63.6828
6.014000	 63.7214
6.032000	 63.6903
6.050000	 63.6866
6.068000	 63.7173
6.086000	 63.6402
6.104000	 63.6436
6.122000	 63.6739
6.140000	 63.5918
6.158000	 63.531
6.176000	 63.5827
6.194000	 63.6576
6.212000	 63.7076
6.230000	 63.6657
6.248000	 63.6244
6.266000	 63.6527
6.284000	 63.6969
6.302000	 63.6885
6.320000	 63.5965
6.338000	 63.5417
6.356000	 63.6048
6.374000	 63.6634
6.392000	 63.6152
6.410000	 63.5284
6.428000	 63.4916
6.446000	 63.4987
6.464000	 63.5472
6.482000	 63.5839
6.500000	 63.5438
6.518000	 63.5143
6.536000	 63.5357
6.554000	 63.5331
6.572000	 63.5089
6.590000	 63.5054
6.608000	 63.5172
6.626000	 63.4989
6.644000	 63.4346
6.662000	 63.4167
6.680000	 63.4868
6.698000	 63.5154
6.716000	 63.4648
6.734000	 63.3907
6.752000	 63.3112
6.770000	 63.2954
6.788000	 63.3655
6.806000	 63.4276
6.824000	 63.4187
6.842000	 63.3692
6.860000	 63.3066
6.878000	 63.2693
6.896000	 63.303
6.914000	 63.3411
6.932000	 63.3177
6.950000	 63.2806
6.968000	 63.2432
6.986000	 63.1908
7.004000	 63.193
7.022000	 63.2657
7.040000	 63.3208
7.058000	 63.3305
7.076000	 63.3353
7.094000	 63.3201
7.112000	 63.2788
7.130000	 63.2682
7.148000	 63.2849
7.166000	 63.2954
7.184000	 63.3016
7.202000	 63.2873
7.220000	 63.2804
7.238000	 63.305
7.256000	 63.2707
7.274000	 63.1564
7.292000	 63.1006
7.310000	 63.1398
7.328000	 63.156
7.346000	 63.1061
7.364000	 63.0507
7.382000	 63.0356
7.400000	 63.0725
7.418000	 63.1437
7.436000	 63.2081
7.454000	 63.2243
7.472000	 63.1967
7.490000	 63.1896
7.508000	 63.2218
7.526000	 63.2247
7.544000	 63.1783
7.562000	 63.1502
7.580000	 63.1683
7.598000	 63.1932
7.616000	 63.1965
7.634000	 63.1828
7.652000	 63.1684
7.670000	 63.167
7.688000	 63.1759
7.706000	 63.1775
7.724000	 63.159
7.742000	 63.1228
7.760000	 63.0752
7.778000	 63.0252
7.796000	 62.988
7.814000	 62.9729
7.832000	 62.9751
7.850000	 62.9869
7.868000	 63.0024
7.886000	 63.0131
7.904000	 63.0157
7.922000	 63.0109
7.940000	 62.9854
7.958000	 62.929
7.976000	 62.879
7.994000	 62.8849
8.012000	 62.9296
8.030000	 62.9514
8.048000	 62.9219
8.065999	 62.863
8.084000	 62.8191
8.102000	 62.8296
8.120000	 62.8963
8.138000	 62.9817
8.155999	 63.0551
8.173999	 63.1058
8.192000	 63.1231
8.210000	 63.1082
8.228000	 63.0845
8.246000	 63.0692
8.263999	 63.0504
8.282000	 63.0144
8.300000	 62.9742
8.318000	 62.9508
8.336000	 62.9469
8.353999	 62.9466
8.372000	 62.932
8.390000	 62.8997
8.408000	 62.8569
8.426000	 62.8141
8.443999	 62.7827
8.462000	 62.7698
8.480000	 62.7718
8.498000	 62.7819
8.516000	 62.7966
8.533999	 62.8096
8.552000	 62.8019
8.570000	 62.7593
8.588000	 62.6977
8.606000	 62.6562
8.624000	 62.6586
8.641999	 62.6932
8.660000	 62.7312
8.678000	 62.7571
8.696000	 62.7734
8.714000	 62.7876
8.731999	 62.804
8.750000	 62.827
8.768000	 62.8595
8.786000	 62.8952
8.804000	 62.9113
8.821999	 62.8884
8.840000	 62.8407
8.858000	 62.8101
8.876000	 62.8204
8.894000	 62.8572
8.911999	 62.8887
8.930000	 62.8925
8.948000	 62.8673
8.966000	 62.8324
8.984000	 62.8133
9.001999	 62.8217
9.020000	 62.853
9.038000	 62.8913
9.056000	 62.9136
9.074000	 62.905
9.092000	 62.8766
9.109999	 62.8564
9.128000	 62.8592
9.146000	 62.8728
9.164000	 62.8768
9.182000	 62.8653
9.199999	 62.8477
9.218000	 62.8279
9.236000	 62.795
9.254000	 62.7372
9.272000	 62.6642
9.289999	 62.6075
9.308000	 62.5973
9.326000	 62.6369
9.344000	 62.701
9.362000	 62.7576
9.379999	 62.791
9.398000	 62.8075
9.416000	 62.822
9.434000	 62.8425
9.452000	 62.8669
9.469999	 62.8874
9.488000	 62.8978
9.506000	 62.8944
9.524000	 62.8769
9.542000	 62.85
9.560000	 62.824
9.577999	 62.8088
9.596000	 62.8068
9.614000	 62.8115
9.632000	 62.8139
9.650000	 62.8101
9.667999	 62.8012
9.686000	 62.7903
9.704000	 62.7797
9.722000	 62.7706
9.740000	 62.764
9.757999	 62.7603
9.776000	 62.7569
9.794000	 62.749
9.812000	 62.7336
9.830000	 62.714
9.847999	 62.6991
9.866000	 62.6972
9.884000	 62.7079
9.902000	 62.7202
9.920000	 62.719
9.937999	 62.6996
9.956000	 62.6779
9.974000	 62.6798
9.992000	 62.7207
10.01	62.7911
10.028	62.8604
10.046	62.898
10.064	62.8942
10.082	62.862
10.1	62.825
10.118	62.801
10.136	62.7948
10.154	62.8035
10.172	62.8211
10.19	62.8391
10.208	62.8467
10.226	62.8351
10.244	62.8016
10.262	62.7514
10.28	62.6939
10.298	62.6381
10.316	62.5902
10.334	62.5538
10.352	62.5321
10.37	62.5282
10.388	62.5449
10.406	62.58
10.424	62.6245
10.442	62.6648
10.46	62.6883
10.478	62.688
10.496	62.6675
10.514	62.6377
10.532	62.6127
10.55	62.6017
10.568	62.6066
10.586	62.6234
10.604	62.647
10.622	62.6723
10.64	62.6946
10.658	62.7091
10.676	62.7129
10.694	62.7082
10.712	62.7028
10.73	62.7064
10.748	62.7249
10.766	62.7567
10.784	62.7937
10.802	62.8253
10.82	62.8454
10.838	62.8535
10.856	62.8516
10.874	62.8415
10.892	62.8236
10.91	62.7981
10.928	62.7691
10.946	62.7425
10.964	62.7216
10.982	62.7051
11	62.6858
11.018	62.6536
11.036	62.6028
11.054	62.5348
11.072	62.4578
11.09	62.3834
11.108	62.3202
11.126	62.2731
11.144	62.2444
11.162	62.2363
11.18	62.2515
11.198	62.2929
11.216	62.3602
11.234	62.4487
11.252	62.5492
11.27	62.6504
11.288	62.7393
11.306	62.8063
11.324	62.8462
11.342	62.8597
11.36	62.8531
11.378	62.8351
11.396	62.8137
11.414	62.7944
11.432	62.7787
11.45	62.7652
11.468	62.752
11.486	62.7392
11.504	62.729
11.522	62.7251
11.54	62.7285
11.558	62.7369
11.576	62.7444
11.594	62.744
11.612	62.7303
11.63	62.7022
11.648	62.6639
11.666	62.623
11.684	62.5889
11.702	62.5693
11.72	62.5685
11.738	62.5854
11.756	62.6145
11.774	62.6475
11.792	62.6749
11.81	62.6895
11.828	62.6873
11.846	62.6675
11.864	62.6334
11.882	62.5899
11.9	62.543
11.918	62.4979
11.936	62.4579
11.954	62.425
11.972	62.3986
11.99	62.3773
12.008	62.359
12.026	62.3426
12.044	62.3288
12.062	62.322
12.08	62.3293
12.098	62.3588
12.116	62.416
12.134	62.5006
12.152	62.6052
12.17	62.7175
12.188	62.8227
12.206	62.9078
12.224	62.9645
12.242	62.9899
12.26	62.9864
12.278	62.9587
12.296	62.9131
12.314	62.8553
12.332	62.7893
12.35	62.7173
12.368	62.6407
12.386	62.5618
12.404	62.4846
12.422	62.4149
12.44	62.3598
12.458	62.3264
12.476	62.3197
12.494	62.3407
12.512	62.3856
12.53	62.4468
12.548	62.5139
12.566	62.5765
12.584	62.6262
12.602	62.6584
12.62	62.672
12.638	62.6695
12.656	62.6546
12.674	62.6312
12.692	62.6023
12.71	62.5701
12.728	62.5365
12.746	62.5039
12.764	62.4748
12.782	62.452
12.8	62.4379
12.818	62.4336
12.836	62.438
12.854	62.4479
12.872	62.4591
12.89	62.4668
12.908	62.4667
12.926	62.4567
12.944	62.4367
12.962	62.4089
12.98	62.3767
12.998	62.3445
13.016	62.3163
13.034	62.2951
13.052	62.2825
13.07	62.2789
13.088	62.2833
13.106	62.2939
13.124	62.308
13.142	62.3229
13.16	62.3362
13.178	62.3463
13.196	62.3523
13.214	62.3541
13.232	62.3525
13.25	62.3483
13.268	62.3429
13.286	62.3371
13.304	62.3311
13.322	62.3244
13.34	62.316
13.358	62.3046
13.376	62.2892
13.394	62.2695
13.412	62.2463
13.43	62.2221
13.448	62.2005
13.466	62.1855
13.484	62.1807
13.502	62.1882
13.52	62.2078
13.538	62.2369
13.556	62.2705
13.574	62.3026
13.592	62.3269
13.61	62.3388
13.628	62.336
13.646	62.3191
13.664	62.2918
13.682	62.2592
13.7	62.2273
13.718	62.2015
13.736	62.1848
13.754	62.1781
13.772	62.1797
13.79	62.1864
13.808	62.1943
13.826	62.2003
13.844	62.2023
13.862	62.2
13.88	62.1946
13.898	62.1883
13.916	62.1839
13.934	62.1835
13.952	62.1883
13.97	62.1983
13.988	62.2121
14.006	62.2275
14.024	62.2417
14.042	62.2522
14.06	62.2569
14.078	62.2548
14.096	62.2462
14.114	62.2322
14.132	62.2143
14.15	62.1943
14.168	62.1736
14.186	62.1531
14.204	62.1331
14.222	62.1132
14.24	62.0927
14.258	62.0709
14.276	62.0477
14.294	62.0237
14.312	62.0003
14.33	61.9793
14.348	61.9633
14.366	61.955
14.384	61.9571
14.402	61.9713
14.42	61.9984
14.438	62.0378
14.456	62.0874
14.474	62.1435
14.492	62.2014
14.51	62.2547
14.528	62.297
14.546	62.3229
14.564	62.3284
14.582	62.3113
14.6	62.2717
14.618	62.212
14.636	62.1374
14.654	62.0544
14.672	61.9699
14.69	61.891
14.708	61.8243
14.726	61.7754
14.744	61.7483
14.762	61.7451
14.78	61.7655
14.798	61.8073
14.816	61.8664
14.834	61.9373
14.852	62.0128
14.87	62.0868
14.888	62.1535
14.906	62.2084
14.924	62.2489
14.942	62.274
14.96	62.285
14.978	62.2843
14.996	62.2747
15.014	62.2593
15.032	62.2412
15.05	62.2219
15.068	62.2023
15.086	62.1821
15.104	62.1606
15.122	62.1366
15.14	62.1089
15.158	62.077
15.176	62.041
15.194	62.0014
15.212	61.9598
15.23	61.9179
15.248	61.8778
15.266	61.8416
15.284	61.8111
15.302	61.7875
15.32	61.7717
15.338	61.7645
15.356	61.7667
15.374	61.7785
15.392	61.8004
15.41	61.8326
15.428	61.8752
15.446	61.9281
15.464	61.9899
15.482	62.0589
15.5	62.1327
15.518	62.208
15.536	62.2815
15.554	62.3497
15.572	62.4093
15.59	62.4566
15.608	62.49
15.626	62.5083
15.644	62.5115
15.662	62.5013
15.68	62.4801
15.698	62.4504
15.716	62.4158
15.734	62.3798
15.752	62.3447
15.77	62.3129
15.788	62.2855
15.806	62.2625
15.824	62.2431
15.842	62.2261
15.86	62.2092
15.878	62.1909
15.896	62.1699
15.914	62.1449
15.932	62.1162
15.95	62.0841
15.968	62.0495
15.986	62.0141
16.004	61.9784
16.022	61.9432
16.04	61.9088
16.058	61.8741
16.076	61.8377
16.094	61.797
16.112	61.749
16.13	61.6916
16.148	61.622
16.166	61.5393
16.184	61.4443
16.202	61.3382
16.22	61.2265
16.238	61.1143
16.256	61.007
16.274	60.9145
16.292	60.8424
16.31	60.7962
16.328	60.7822
16.346	60.8012
16.364	60.8538
16.382	60.9369
16.4	61.0443
16.418	61.1709
16.436	61.3056
16.454	61.4393
16.472	61.5649
16.49	61.6712
16.508	61.7529
16.526	61.8059
16.544	61.827
16.562	61.8181
16.58	61.7805
16.598	61.7206
16.616	61.644
16.634	61.5559
16.652	61.4664
16.67	61.3803
16.688	61.3035
16.706	61.2423
16.724	61.1983
16.742	61.1739
16.76	61.1687
16.778	61.1815
16.796	61.2095
16.814	61.2475
16.832	61.2927
16.85	61.3387
16.868	61.3817
16.886	61.4182
16.904	61.445
16.922	61.4622
16.94	61.4693
16.958	61.4701
16.976	61.4666
16.994	61.4645
17.012	61.4681
17.03	61.4808
17.048	61.5074
17.066	61.5482
17.084	61.6048
17.102	61.6739
17.12	61.7538
17.138	61.8383
17.156	61.9223
17.174	62.0009
17.192	62.0669
17.21	62.1182
17.228	62.1503
17.246	62.1643
17.264	62.1597
17.282	62.1418
17.3	62.1134
17.318	62.0811
17.336	62.0511
17.354	62.0271
17.372	62.0162
17.39	62.0192
17.408	62.0396
17.426	62.0748
17.444	62.1245
17.462	62.182
17.48	62.2449
17.498	62.3058
17.516	62.3605
17.534	62.4047
17.552	62.4347
17.57	62.4496
17.588	62.4489
17.606	62.4344
17.624	62.4081
17.642	62.375
17.66	62.3371
17.678	62.3009
17.696	62.2676
17.714	62.2421
17.732	62.2246
17.75	62.2169
17.768	62.2176
17.786	62.2265
17.804	62.2397
17.822	62.2563
17.84	62.2718
17.858	62.2851
17.876	62.2938
17.894	62.2971
17.912	62.2942
17.93	62.2861
17.948	62.2734
17.966	62.2582
17.984	62.2416
18.002	62.226
18.02	62.2124
18.038	62.2021
18.056	62.1952
18.074	62.1919
18.092	62.1903
18.11	62.1899
18.128	62.1868
18.146	62.1801
18.164	62.166
18.182	62.1433
18.2	62.1094
18.218	62.0635
18.236	62.0047
18.254	61.9339
18.272	61.8513
18.29	61.7599
18.308	61.6602
18.326	61.5573
18.344	61.4518
18.362	61.3493
18.38	61.2507
18.398	61.1608
18.416	61.0806
18.434	61.0132
18.452	60.9591
18.47	60.9197
18.488	60.8946
18.506	60.8841
18.524	60.886
18.542	60.9
18.56	60.9222
18.578	60.9525
18.596	60.9858
18.614	61.0216
18.632	61.0548
18.65	61.085
18.668	61.1077
18.686	61.1227
18.704	61.1261
18.722	61.1181
18.74	61.0973
18.758	61.0642
18.776	61.019
18.794	60.9632
18.812	60.8995
18.83	60.8298
18.848	60.7579
18.866	60.6864
18.884	60.6206
18.902	60.5631
18.92	60.5194
18.938	60.4913
18.956	60.4837
18.974	60.4971
18.992	60.5347
19.01	60.5952
19.028	60.679
19.046	60.7834
19.064	60.9058
19.082	61.0423
19.1	61.1877
19.118	61.3383
19.136	61.4867
19.154	61.6302
19.172	61.7602
19.19	61.8759
19.208	61.9697
19.226	62.0421
19.244	62.0889
19.262	62.1112
19.28	62.1092
19.298	62.084
19.316	62.04
19.334	61.9777
19.352	61.9047
19.37	61.8208
19.388	61.7351
19.406	61.6473
19.424	61.5649
19.442	61.4878
19.46	61.4209
19.478	61.365
19.496	61.3205
19.514	61.2883
19.532	61.2666
19.55	61.256
19.568	61.2535
19.586	61.2566
19.604	61.2637
19.622	61.2708
19.64	61.2774
19.658	61.2781
19.676	61.2733
19.694	61.2588
19.712	61.2351
19.73	61.1997
19.748	61.1525
19.766	61.0935
19.784	61.022
19.802	60.9397
19.82	60.8467
19.838	60.7444
19.856	60.6345
19.874	60.5176
19.892	60.3972
19.91	60.2732
19.928	60.1498
19.946	60.0267
19.964	59.9084
19.982	59.795
20	59.6899
20.018	59.5947
20.036	59.5107
20.054	59.4416
20.072	59.3869
20.09	59.3506
20.108	59.332
20.126	59.3335
20.144	59.3554
20.162	59.3976
20.18	59.4609
20.198	59.5437
20.216	59.6452
20.234	59.7646
20.252	59.8976
20.27	60.0451
20.288	60.2002
20.306	60.3633
20.324	60.5287
20.342	60.6932
20.36	60.8551
20.378	61.0075
20.396	61.1517
20.414	61.2809
20.432	61.3956
20.45	61.4928
20.468	61.5706
20.486	61.6295
20.504	61.6683
20.522	61.6875
20.54	61.689
20.558	61.6722
20.576	61.641
20.594	61.5962
20.612	61.54
20.63	61.4772
20.648	61.4069
20.666	61.3356
20.684	61.2627
20.702	61.192
20.72	61.1266
20.738	61.0661
20.756	61.0143
20.774	60.9706
20.792	60.9369
20.81	60.914
20.828	60.9013
20.846	60.899
20.864	60.907
20.882	60.9237
20.9	60.9498
20.918	60.9828
20.936	61.0214
20.954	61.0654
20.972	61.1111
20.99	61.1596
21.008	61.2071
21.026	61.2526
21.044	61.2954
21.062	61.3318
21.08	61.3628
21.098	61.3856
21.116	61.3994
21.134	61.4042
21.152	61.3981
21.17	61.3817
21.188	61.3552
21.206	61.3182
21.224	61.2721
21.242	61.2183
21.26	61.1564
21.278	61.0906
21.296	61.0208
21.314	60.9493
21.332	60.8807
21.35	60.8133
21.368	60.7523
21.386	60.6989
21.404	60.6535
21.422	60.6203
21.44	60.5981
21.458	60.5886
21.476	60.5931
21.494	60.6105
21.512	60.6405
21.53	60.6838
21.548	60.738
21.566	60.8022
21.584	60.8763
21.602	60.9561
21.62	61.0424
21.638	61.1326
21.656	61.2229
21.674	61.3147
21.692	61.4038
21.71	61.4889
21.728	61.5703
21.746	61.6447
21.764	61.713
21.782	61.7741
21.8	61.8269
21.818	61.8719
21.836	61.909
21.854	61.938
21.872	61.9591
21.89	61.9731
21.908	61.9796
21.926	61.9793
21.944	61.9727
21.962	61.9595
21.98	61.9406
21.998	61.916
22.016	61.8857
22.034	61.8505
22.052	61.8101
22.07	61.7648
22.088	61.715
22.106	61.6603
22.124	61.6014
22.142	61.5382
22.16	61.4708
22.178	61.4003
22.196	61.3261
22.214	61.2495
22.232	61.1722
22.25	61.0932
22.268	61.0146
22.286	60.9377
22.304	60.8618
22.322	60.7896
22.34	60.7212
22.358	60.657
22.376	60.5989
22.394	60.5468
22.412	60.5009
22.43	60.4626
22.448	60.4314
22.466	60.4077
22.484	60.3921
22.502	60.3843
22.52	60.3841
22.538	60.3916
22.556	60.4067
22.574	60.4286
22.592	60.4576
22.61	60.4933
22.628	60.5342
22.646	60.5811
22.664	60.6328
22.682	60.6875
22.7	60.7463
22.718	60.8074
22.736	60.8685
22.754	60.9312
22.772	60.9927
22.79	61.0513
22.808	61.1081
22.826	61.1603
22.844	61.2063
22.862	61.2472
22.88	61.28
22.898	61.3035
22.916	61.3185
22.934	61.323
22.952	61.316
22.97	61.2983
22.988	61.2689
23.006	61.2271
23.024	61.1736
23.042	61.1095
23.06	61.0341
23.078	60.9482
23.096	60.8546
23.114	60.7523
23.132	60.6425
23.15	60.5299
23.168	60.4136
23.186	60.2948
23.204	60.1786
23.222	60.0636
23.24	59.9515
23.258	59.848
23.276	59.752
23.294	59.6647
23.312	59.592
23.33	59.5331
23.348	59.4887
23.366	59.463
23.384	59.4563
23.402	59.468
23.42	59.5002
23.438	59.5535
23.456	59.6271
23.474	59.7198
23.492	59.8325
23.51	59.9644
23.528	60.1118
23.546	60.275
23.564	60.454
23.582	60.6425
23.6	60.839
23.618	61.0454
23.636	61.2539
23.654	61.4614
23.672	61.6713
23.69	61.8757
23.708	62.0696
23.726	62.2572
23.744	62.4322
23.762	62.5887
23.78	62.7303
23.798	62.8539
23.816	62.9551
23.834	63.0352
23.852	63.0944
23.87	63.1317
23.888	63.1462
23.906	63.1397
23.924	63.1144
23.942	63.0691
23.96	63.0049
23.978	62.9268
23.996	62.8355
24.014	62.7295
24.032	62.6158
24.05	62.4984
24.068	62.3731
24.086	62.2467
24.104	62.1254
24.122	62.0048
24.14	61.8892
24.158	61.7852
24.176	61.6909
24.194	61.6069
24.212	61.5378
24.23	61.4845
24.248	61.4456
24.266	61.4223
24.284	61.416
24.302	61.4263
24.32	61.4513
24.338	61.4896
24.356	61.5429
24.374	61.6088
24.392	61.6837
24.41	61.7694
24.428	61.8648
24.446	61.9648
24.464	62.0674
24.482	62.1753
24.5	62.2839
24.518	62.3894
24.536	62.4951
24.554	62.5978
24.572	62.6925
24.59	62.7807
24.608	62.8622
24.626	62.9328
24.644	62.9909
24.662	63.0388
24.68	63.0733
24.698	63.0913
24.716	63.0949
24.734	63.0829
24.752	63.0529
24.77	63.0047
24.788	62.9392
24.806	62.855
24.824	62.7513
24.842	62.6285
24.86	62.487
24.878	62.327
24.896	62.1477
24.914	61.9499
24.932	61.7357
24.95	61.5057
24.968	61.2586
24.986	60.9972
25.004	60.7244
25.022	60.4373
25.04	60.1383
25.058	59.833
25.076	59.5231
25.094	59.2048
25.112	58.8851
25.13	58.5703
25.148	58.2553
25.166	57.9435
25.184	57.644
25.202	57.36
25.22	57.0858
25.238	56.8294
25.256	56.5993
25.274	56.3903
25.292	56.2046
25.31	56.0512
25.328	55.9348
25.346	55.8493
25.364	55.8004
25.382	55.7952
25.4	55.8323
25.418	55.9102
25.436	56.0333
25.454	56.205
25.472	56.4235
25.49	56.688
25.508	56.9978
25.526	57.3549
25.544	57.7591
25.562	58.204
25.58	58.6842
25.598	59.2066
25.616	59.7656
25.634	60.3491
25.652	60.9516
25.67	61.5844
25.688	62.2325
25.706	62.878
25.724	63.5238
25.742	64.1756
25.76	64.8131
25.778	65.4179
25.796	66.0036
25.814	66.5643
25.832	67.0816
25.85	67.5437
25.868	67.9641
25.886	68.3338
25.904	68.6402
25.922	68.8795
25.94	69.0591
25.958	69.174
25.976	69.2194
25.994	69.193
26.012	69.0989
26.03	68.9417
26.048	68.7245
26.066	68.4393
26.084	68.0947
26.102	67.7043
26.12	67.2747
26.138	66.7922
26.156	66.2725
26.174	65.7354
26.192	65.1846
26.21	64.6061
26.228	64.0204
26.246	63.4492
26.264	62.8899
26.282	62.3339
26.3	61.8
26.318	61.3063
26.336	60.8448
26.354	60.4137
26.372	60.0272
26.39	59.6983
26.408	59.4214
26.426	59.1946
26.444	59.0219
26.462	58.9069
26.48	58.85
26.498	58.8475
26.516	58.8951
26.534	58.9915
26.552	59.1448
26.57	59.3445
26.588	59.5764
26.606	59.8338
26.624	60.1325
26.642	60.4562
26.66	60.7848
26.678	61.1092
26.696	61.4482
26.714	61.7845
26.732	62.0969
26.75	62.3761
26.768	62.6405
26.786	62.875
26.804	63.062
26.822	63.1926
26.84	63.2801
26.858	63.3179
26.876	63.2981
26.894	63.2151
26.912	63.0735
26.93	62.8756
26.948	62.6236
26.966	62.2908
26.984	61.8352
27.002	61.3616
27.02	60.9839
27.028	60.887