File: Bakgrunnsmateriale/MATLAB/FTIR/ftir_data/subAa/Mapping_121/BZ1503107-1_t110.asc
PE IR       SPECTRUM    SPECTRUM    ASCII       PEDS        1.60
  -1
BZCAB2~1.ASC
17/04/07
22:14:24.00
17/04/07
22:14:50.00
tln
$BZ1503107-1_t0110$<tbV0>[-13.0,10.4,8.0,0.0,27,1,0]
27.028
64

2002,4.07
MIRTGS : RIGHTBACK : INTERNAL 2
MIR : ON : INTERNAL 2
OPTKBR

0.200000
8
8.000000
FILLER
RATIO
SPECTRUM
UNLOCKED 256

DOUBLE
64
COMBINED
1
0
0

0.002000
RATIO

1
0
TRUE
51149
0
LEFT NOT FITTED RIGHT NOT FITTED 0
NONE
NONE
15600
12
4.427000
51148
TRUE
1 0 8 72 0 0 0 0

15798

#HDR
-1
-1
#GR
µM
%T
2.38419e-05
0.0
2.000000
0.002000
12515
8
91.0606
57.6791
#DATA
2.000000	 64.329
2.018000	 64.3703
2.036000	 64.4863
2.054000	 64.8075
2.072000	 65.0032
2.090000	 65.5099
2.108000	 65.445
2.126000	 65.2168
2.144000	 65.2618
2.162000	 64.9725
2.180000	 64.1845
2.198000	 63.9558
2.216000	 64.115
2.234000	 63.0145
2.252000	 91.0606
2.270000	 64.025
2.288000	 63.8884
2.306000	 63.9274
2.324000	 64.123
2.342000	 64.3786
2.360000	 64.7782
2.378000	 65.0033
2.396000	 65.1518
2.414000	 65.031
2.432000	 65.2483
2.450000	 65.1578
2.468000	 64.9488
2.486000	 65.048
2.504000	 64.8663
2.522000	 65.0088
2.540000	 65.2581
2.558000	 64.7595
2.576000	 64.789
2.594000	 65.0972
2.612000	 64.8608
2.630000	 64.9555
2.648000	 65.1434
2.666000	 64.8515
2.684000	 65.0255
2.702000	 65.3332
2.720000	 65.2071
2.738000	 65.0094
2.756000	 65.1451
2.774000	 64.9873
2.792000	 64.9527
2.810000	 64.9508
2.828000	 65.0814
2.846000	 65.055
2.864000	 64.8564
2.882000	 65.1275
2.900000	 64.8287
2.918000	 64.8422
2.936000	 64.9308
2.954000	 64.9485
2.972000	 64.8537
2.990000	 64.836
3.008000	 64.9344
3.026000	 64.8714
3.044000	 64.9193
3.062000	 64.9422
3.080000	 65.1311
3.098000	 64.7521
3.116000	 64.8484
3.134000	 64.8784
3.152000	 65.0417
3.170000	 64.7856
3.188000	 64.8581
3.206000	 64.7994
3.224000	 64.7445
3.242000	 64.8838
3.260000	 64.7066
3.278000	 65.0037
3.296000	 64.8165
3.314000	 64.896
3.332000	 64.737
3.350000	 64.67
3.368000	 64.7777
3.386000	 64.6258
3.404000	 64.6338
3.422000	 64.6314
3.440000	 64.5688
3.458000	 64.6709
3.476000	 64.4768
3.494000	 64.7016
3.512000	 64.4526
3.530000	 64.6511
3.548000	 64.7591
3.566000	 64.7384
3.584000	 64.7469
3.602000	 64.6949
3.620000	 64.8909
3.638000	 64.7825
3.656000	 64.7448
3.674000	 64.8776
3.692000	 64.7762
3.710000	 64.7989
3.728000	 64.6816
3.746000	 64.6893
3.764000	 64.6157
3.782000	 64.7701
3.800000	 64.7127
3.818000	 64.629
3.836000	 64.5209
3.854000	 64.5993
3.872000	 64.6504
3.890000	 64.6242
3.908000	 64.5952
3.926000	 64.4623
3.944000	 64.5866
3.962000	 64.5596
3.980000	 64.5749
3.998000	 64.575
4.016000	 64.6491
4.034000	 64.5898
4.052000	 64.6115
4.070000	 64.696
4.088000	 64.5186
4.106000	 64.5427
4.124000	 64.6476
4.141999	 64.5378
4.160000	 64.5829
4.178000	 64.621
4.196000	 64.5615
4.214000	 64.5269
4.232000	 64.5281
4.250000	 64.5542
4.268000	 64.3776
4.286000	 64.5449
4.304000	 64.5219
4.322000	 64.4763
4.340000	 64.5031
4.358000	 64.4828
4.375999	 64.3488
4.394000	 64.3863
4.412000	 64.3847
4.430000	 64.4425
4.448000	 64.4071
4.466000	 64.3351
4.484000	 64.3983
4.502000	 64.3969
4.520000	 64.3605
4.538000	 64.2546
4.556000	 64.2539
4.574000	 64.3363
4.592000	 64.3257
4.609999	 64.4114
4.628000	 64.2524
4.646000	 64.2275
4.664000	 64.2935
4.682000	 64.2651
4.700000	 64.2695
4.718000	 64.2748
4.736000	 64.2849
4.754000	 64.3383
4.772000	 64.305
4.790000	 64.2262
4.808000	 64.2574
4.826000	 64.226
4.843999	 64.2544
4.862000	 64.3335
4.880000	 64.2904
4.898000	 64.1348
4.916000	 64.1965
4.934000	 64.1837
4.952000	 64.1876
4.970000	 64.2394
4.988000	 64.1897
5.006000	 64.1815
5.024000	 64.2123
5.042000	 64.1293
5.060000	 64.1731
5.077999	 64.1433
5.096000	 64.1173
5.114000	 64.25
5.132000	 64.1861
5.150000	 64.1013
5.168000	 64.0536
5.186000	 64.0188
5.204000	 64.0619
5.222000	 64.026
5.240000	 64.15
5.258000	 64.1204
5.276000	 64.095
5.294000	 64.0608
5.312000	 63.9719
5.330000	 64.0421
5.348000	 64.0885
5.366000	 64.0521
5.384000	 64.115
5.402000	 64.0591
5.420000	 63.9587
5.438000	 64.055
5.456000	 64.093
5.474000	 64.0316
5.492000	 64.0267
5.510000	 64.0033
5.528000	 64.0155
5.546000	 64.0147
5.564000	 63.9748
5.582000	 63.9543
5.600000	 63.8042
5.618000	 63.7961
5.636000	 63.8608
5.654000	 63.8707
5.672000	 63.8752
5.690000	 63.7739
5.708000	 63.649
5.726000	 63.6352
5.744000	 63.6414
5.762000	 63.5393
5.780000	 63.5418
5.798000	 63.6867
5.816000	 63.7776
5.834000	 63.7049
5.852000	 63.6614
5.870000	 63.7711
5.888000	 63.726
5.906000	 63.6993
5.923999	 63.7368
5.942000	 63.7572
5.960000	 63.6921
5.978000	 63.6145
5.996000	 63.6792
6.014000	 63.755
6.032000	 63.741
6.050000	 63.7631
6.068000	 63.7962
6.086000	 63.742
6.104000	 63.7371
6.122000	 63.6809
6.140000	 63.6353
6.158000	 63.7214
6.176000	 63.773
6.194000	 63.7457
6.212000	 63.7692
6.230000	 63.7582
6.248000	 63.6464
6.266000	 63.66
6.284000	 63.7331
6.302000	 63.6807
6.320000	 63.5547
6.338000	 63.4901
6.356000	 63.5093
6.374000	 63.5573
6.392000	 63.5478
6.410000	 63.5129
6.428000	 63.5233
6.446000	 63.4771
6.464000	 63.4577
6.482000	 63.516
6.500000	 63.5258
6.518000	 63.5138
6.536000	 63.5526
6.554000	 63.5742
6.572000	 63.5129
6.590000	 63.4789
6.608000	 63.5074
6.626000	 63.5191
6.644000	 63.5286
6.662000	 63.5715
6.680000	 63.6474
6.698000	 63.6778
6.716000	 63.6267
6.734000	 63.5384
6.752000	 63.4652
6.770000	 63.4422
6.788000	 63.4366
6.806000	 63.4323
6.824000	 63.4158
6.842000	 63.3872
6.860000	 63.3683
6.878000	 63.363
6.896000	 63.426
6.914000	 63.4957
6.932000	 63.4607
6.950000	 63.4157
6.968000	 63.4064
6.986000	 63.3619
7.004000	 63.3302
7.022000	 63.3607
7.040000	 63.3824
7.058000	 63.3686
7.076000	 63.3878
7.094000	 63.4357
7.112000	 63.4425
7.130000	 63.4087
7.148000	 63.3518
7.166000	 63.2871
7.184000	 63.2708
7.202000	 63.3147
7.220000	 63.3744
7.238000	 63.3934
7.256000	 63.3299
7.274000	 63.2376
7.292000	 63.2292
7.310000	 63.3062
7.328000	 63.3566
7.346000	 63.3331
7.364000	 63.2969
7.382000	 63.2923
7.400000	 63.3066
7.418000	 63.3193
7.436000	 63.3194
7.454000	 63.3029
7.472000	 63.2836
7.490000	 63.2909
7.508000	 63.3283
7.526000	 63.3474
7.544000	 63.3195
7.562000	 63.2889
7.580000	 63.2966
7.598000	 63.314
7.616000	 63.2983
7.634000	 63.2573
7.652000	 63.2198
7.670000	 63.1834
7.688000	 63.1356
7.706000	 63.099
7.724000	 63.1023
7.742000	 63.1302
7.760000	 63.1514
7.778000	 63.1649
7.796000	 63.1763
7.814000	 63.1699
7.832000	 63.1419
7.850000	 63.1124
7.868000	 63.0866
7.886000	 63.0598
7.904000	 63.0483
7.922000	 63.0728
7.940000	 63.127
7.958000	 63.191
7.976000	 63.2447
7.994000	 63.2592
8.012000	 63.2213
8.030000	 63.1671
8.048000	 63.1388
8.065999	 63.1256
8.084000	 63.0951
8.102000	 63.0535
8.120000	 63.035
8.138000	 63.0576
8.155999	 63.1159
8.173999	 63.1842
8.192000	 63.2194
8.210000	 63.1959
8.228000	 63.1369
8.246000	 63.0855
8.263999	 63.0581
8.282000	 63.0524
8.300000	 63.073
8.318000	 63.1128
8.336000	 63.1393
8.353999	 63.1288
8.372000	 63.0969
8.390000	 63.0711
8.408000	 63.0522
8.426000	 63.027
8.443999	 63.0038
8.462000	 63.0032
8.480000	 63.0174
8.498000	 63.0095
8.516000	 62.9614
8.533999	 62.901
8.552000	 62.8728
8.570000	 62.8934
8.588000	 62.9445
8.606000	 63.0003
8.624000	 63.0453
8.641999	 63.0697
8.660000	 63.0687
8.678000	 63.0539
8.696000	 63.0522
8.714000	 63.0779
8.731999	 63.1116
8.750000	 63.1189
8.768000	 63.0879
8.786000	 63.0412
8.804000	 63.0093
8.821999	 63.0023
8.840000	 63.0083
8.858000	 63.0152
8.876000	 63.0272
8.894000	 63.051
8.911999	 63.0767
8.930000	 63.0802
8.948000	 63.048
8.966000	 62.9933
8.984000	 62.9454
9.001999	 62.9267
9.020000	 62.9438
9.038000	 62.9899
9.056000	 63.0464
9.074000	 63.0904
9.092000	 63.1065
9.109999	 63.0949
9.128000	 63.0638
9.146000	 63.0201
9.164000	 62.9696
9.182000	 62.9236
9.199999	 62.8958
9.218000	 62.889
9.236000	 62.8896
9.254000	 62.882
9.272000	 62.8676
9.289999	 62.865
9.308000	 62.8892
9.326000	 62.9342
9.344000	 62.9773
9.362000	 63.0007
9.379999	 63.0058
9.398000	 63.0064
9.416000	 63.0115
9.434000	 63.0153
9.452000	 63.0023
9.469999	 62.9622
9.488000	 62.9
9.506000	 62.8378
9.524000	 62.804
9.542000	 62.8162
9.560000	 62.8674
9.577999	 62.9278
9.596000	 62.9634
9.614000	 62.9584
9.632000	 62.9231
9.650000	 62.8852
9.667999	 62.8702
9.686000	 62.8848
9.704000	 62.9166
9.722000	 62.9456
9.740000	 62.9567
9.757999	 62.9442
9.776000	 62.9113
9.794000	 62.8676
9.812000	 62.8275
9.830000	 62.8048
9.847999	 62.8038
9.866000	 62.8174
9.884000	 62.8324
9.902000	 62.841
9.920000	 62.8464
9.937999	 62.8567
9.956000	 62.8746
9.974000	 62.8941
9.992000	 62.907
10.01	62.9114
10.028	62.9133
10.046	62.9188
10.064	62.9277
10.082	62.9336
10.1	62.9308
10.118	62.9204
10.136	62.9089
10.154	62.9018
10.172	62.8997
10.19	62.9005
10.208	62.9041
10.226	62.9123
10.244	62.9253
10.262	62.9378
10.28	62.9404
10.298	62.9254
10.316	62.8915
10.334	62.8469
10.352	62.803
10.37	62.7695
10.388	62.7505
10.406	62.7461
10.424	62.7558
10.442	62.7794
10.46	62.8161
10.478	62.862
10.496	62.9096
10.514	62.9507
10.532	62.9806
10.55	63.0006
10.568	63.0161
10.586	63.0315
10.604	63.045
10.622	63.0494
10.64	63.0373
10.658	63.0076
10.676	62.9697
10.694	62.939
10.712	62.9307
10.73	62.9496
10.748	62.9886
10.766	63.0321
10.784	63.0644
10.802	63.077
10.82	63.0717
10.838	63.0572
10.856	63.042
10.874	63.0306
10.892	63.0217
10.91	63.0111
10.928	62.9953
10.946	62.9721
10.964	62.9403
10.982	62.8992
11	62.8483
11.018	62.789
11.036	62.7257
11.054	62.6645
11.072	62.6115
11.09	62.5689
11.108	62.5351
11.126	62.5074
11.144	62.4866
11.162	62.478
11.18	62.4894
11.198	62.5253
11.216	62.5824
11.234	62.649
11.252	62.7084
11.27	62.7467
11.288	62.7563
11.306	62.7402
11.324	62.7096
11.342	62.6804
11.36	62.6665
11.378	62.6769
11.396	62.7133
11.414	62.7705
11.432	62.838
11.45	62.9039
11.468	62.9567
11.486	62.9884
11.504	62.9957
11.522	62.9794
11.54	62.9431
11.558	62.8926
11.576	62.8348
11.594	62.7761
11.612	62.7234
11.63	62.6822
11.648	62.6553
11.666	62.6431
11.684	62.6433
11.702	62.652
11.72	62.6649
11.738	62.6783
11.756	62.6901
11.774	62.6997
11.792	62.707
11.81	62.7116
11.828	62.7125
11.846	62.7087
11.864	62.6998
11.882	62.6866
11.9	62.6722
11.918	62.6605
11.936	62.6549
11.954	62.6575
11.972	62.6679
11.99	62.6834
12.008	62.6995
12.026	62.713
12.044	62.7226
12.062	62.7311
12.08	62.7442
12.098	62.7686
12.116	62.8087
12.134	62.8635
12.152	62.9263
12.17	62.9871
12.188	63.0351
12.206	63.0626
12.224	63.0669
12.242	63.0496
12.26	63.0158
12.278	62.9724
12.296	62.9267
12.314	62.8846
12.332	62.8502
12.35	62.8257
12.368	62.8113
12.386	62.8058
12.404	62.8078
12.422	62.8165
12.44	62.8318
12.458	62.8539
12.476	62.8828
12.494	62.9175
12.512	62.9551
12.53	62.9916
12.548	63.0225
12.566	63.0438
12.584	63.0536
12.602	63.0522
12.62	63.0424
12.638	63.0279
12.656	63.0122
12.674	62.9974
12.692	62.9831
12.71	62.9671
12.728	62.9464
12.746	62.9185
12.764	62.8822
12.782	62.8382
12.8	62.7894
12.818	62.74
12.836	62.694
12.854	62.6549
12.872	62.625
12.89	62.605
12.908	62.5938
12.926	62.5895
12.944	62.5895
12.962	62.5917
12.98	62.5948
12.998	62.5982
13.016	62.6018
13.034	62.6066
13.052	62.6134
13.07	62.6226
13.088	62.6341
13.106	62.6472
13.124	62.6607
13.142	62.6731
13.16	62.6831
13.178	62.69
13.196	62.6942
13.214	62.697
13.232	62.7005
13.25	62.7071
13.268	62.7188
13.286	62.737
13.304	62.7614
13.322	62.7904
13.34	62.8211
13.358	62.8497
13.376	62.8727
13.394	62.8868
13.412	62.89
13.43	62.8816
13.448	62.8623
13.466	62.834
13.484	62.7994
13.502	62.7616
13.52	62.7236
13.538	62.6883
13.556	62.6581
13.574	62.6348
13.592	62.6193
13.61	62.612
13.628	62.612
13.646	62.6181
13.664	62.6284
13.682	62.6404
13.7	62.6522
13.718	62.6624
13.736	62.6703
13.754	62.6759
13.772	62.6792
13.79	62.6802
13.808	62.6781
13.826	62.6716
13.844	62.6587
13.862	62.6373
13.88	62.6057
13.898	62.5636
13.916	62.512
13.934	62.454
13.952	62.3938
13.97	62.3362
13.988	62.2863
14.006	62.2473
14.024	62.2214
14.042	62.2079
14.06	62.2046
14.078	62.2081
14.096	62.2145
14.114	62.2205
14.132	62.2241
14.15	62.224
14.168	62.2198
14.186	62.2118
14.204	62.2005
14.222	62.1865
14.24	62.1702
14.258	62.1522
14.276	62.1331
14.294	62.1139
14.312	62.0961
14.33	62.0813
14.348	62.0711
14.366	62.0673
14.384	62.0707
14.402	62.0818
14.42	62.0999
14.438	62.1238
14.456	62.1517
14.474	62.1811
14.492	62.2095
14.51	62.2344
14.528	62.2539
14.546	62.2667
14.564	62.2723
14.582	62.2709
14.6	62.2635
14.618	62.2519
14.636	62.2383
14.654	62.2255
14.672	62.216
14.69	62.2124
14.708	62.2168
14.726	62.2307
14.744	62.2544
14.762	62.2872
14.78	62.327
14.798	62.3712
14.816	62.4161
14.834	62.4579
14.852	62.4925
14.87	62.5174
14.888	62.5309
14.906	62.5328
14.924	62.5241
14.942	62.5077
14.96	62.4874
14.978	62.4667
14.996	62.4492
15.014	62.4377
15.032	62.434
15.05	62.4382
15.068	62.4494
15.086	62.4659
15.104	62.4853
15.122	62.5047
15.14	62.5215
15.158	62.5341
15.176	62.5415
15.194	62.5431
15.212	62.5393
15.23	62.5312
15.248	62.5201
15.266	62.5077
15.284	62.4957
15.302	62.4857
15.32	62.4787
15.338	62.4755
15.356	62.4769
15.374	62.4829
15.392	62.4937
15.41	62.5089
15.428	62.5284
15.446	62.5518
15.464	62.5784
15.482	62.6073
15.5	62.6373
15.518	62.6675
15.536	62.6963
15.554	62.7224
15.572	62.7443
15.59	62.7604
15.608	62.7693
15.626	62.7703
15.644	62.7623
15.662	62.7452
15.68	62.7192
15.698	62.6846
15.716	62.6421
15.734	62.5925
15.752	62.537
15.77	62.4765
15.788	62.4127
15.806	62.3468
15.824	62.2801
15.842	62.2143
15.86	62.1512
15.878	62.0922
15.896	62.0388
15.914	61.9929
15.932	61.9559
15.95	61.9286
15.968	61.9121
15.986	61.9061
16.004	61.9099
16.022	61.9224
16.04	61.9411
16.058	61.963
16.076	61.9858
16.094	62.0053
16.112	62.0183
16.13	62.0228
16.148	62.0159
16.166	61.9971
16.184	61.9667
16.202	61.9253
16.22	61.8769
16.238	61.8249
16.256	61.7727
16.274	61.7269
16.292	61.6916
16.31	61.6706
16.328	61.6681
16.346	61.6851
16.364	61.7222
16.382	61.7774
16.4	61.8467
16.418	61.9267
16.436	62.0101
16.454	62.091
16.472	62.1647
16.49	62.2245
16.508	62.2679
16.526	62.293
16.544	62.2997
16.562	62.2914
16.58	62.2705
16.598	62.2439
16.616	62.2165
16.634	62.193
16.652	62.18
16.67	62.1797
16.688	62.1947
16.706	62.2246
16.724	62.2673
16.742	62.3202
16.76	62.3771
16.778	62.4349
16.796	62.4872
16.814	62.5299
16.832	62.5605
16.85	62.5762
16.868	62.578
16.886	62.5661
16.904	62.5446
16.922	62.5162
16.94	62.4847
16.958	62.4553
16.976	62.4296
16.994	62.4111
17.012	62.3999
17.03	62.3964
17.048	62.3984
17.066	62.4042
17.084	62.4109
17.102	62.4148
17.12	62.4145
17.138	62.4067
17.156	62.3917
17.174	62.3688
17.192	62.3406
17.21	62.3086
17.228	62.2768
17.246	62.2491
17.264	62.2282
17.282	62.2191
17.3	62.2227
17.318	62.2417
17.336	62.275
17.354	62.3226
17.372	62.381
17.39	62.4482
17.408	62.5197
17.426	62.5914
17.444	62.6604
17.462	62.7213
17.48	62.7732
17.498	62.8128
17.516	62.8407
17.534	62.8561
17.552	62.8614
17.57	62.8573
17.588	62.8477
17.606	62.8342
17.624	62.8196
17.642	62.8061
17.66	62.7947
17.678	62.7869
17.696	62.7827
17.714	62.7813
17.732	62.7813
17.75	62.7816
17.768	62.7791
17.786	62.7727
17.804	62.7596
17.822	62.7394
17.84	62.7104
17.858	62.6733
17.876	62.6281
17.894	62.5771
17.912	62.5212
17.93	62.4647
17.948	62.4084
17.966	62.3573
17.984	62.3122
18.002	62.2767
18.02	62.2514
18.038	62.238
18.056	62.2357
18.074	62.2449
18.092	62.2628
18.11	62.289
18.128	62.319
18.146	62.3517
18.164	62.3826
18.182	62.4099
18.2	62.4302
18.218	62.4414
18.236	62.4415
18.254	62.4294
18.272	62.4045
18.29	62.367
18.308	62.3168
18.326	62.2563
18.344	62.1863
18.362	62.1103
18.38	62.03
18.398	61.9498
18.416	61.872
18.434	61.8002
18.452	61.7376
18.47	61.6866
18.488	61.6502
18.506	61.6298
18.524	61.6269
18.542	61.642
18.56	61.6746
18.578	61.7249
18.596	61.7898
18.614	61.8691
18.632	61.9582
18.65	62.0567
18.668	62.1587
18.686	62.2637
18.704	62.3658
18.722	62.4644
18.74	62.5546
18.758	62.6359
18.776	62.7045
18.794	62.7607
18.812	62.8025
18.83	62.8303
18.848	62.8438
18.866	62.8441
18.884	62.8324
18.902	62.8103
18.92	62.7801
18.938	62.7436
18.956	62.7035
18.974	62.6615
18.992	62.6205
19.01	62.5812
19.028	62.5459
19.046	62.5144
19.064	62.4878
19.082	62.4654
19.1	62.447
19.118	62.4314
19.136	62.4174
19.154	62.4041
19.172	62.3891
19.19	62.372
19.208	62.3506
19.226	62.325
19.244	62.2937
19.262	62.2574
19.28	62.2165
19.298	62.1714
19.316	62.1242
19.334	62.0753
19.352	62.0285
19.37	61.9836
19.388	61.9452
19.406	61.9129
19.424	61.8904
19.442	61.8777
19.46	61.8767
19.478	61.8878
19.496	61.9102
19.514	61.9445
19.532	61.9881
19.55	62.0409
19.568	62.0999
19.586	62.1625
19.604	62.2271
19.622	62.2893
19.64	62.3487
19.658	62.3998
19.676	62.4431
19.694	62.4742
19.712	62.4933
19.73	62.4981
19.748	62.4883
19.766	62.4641
19.784	62.4249
19.802	62.3726
19.82	62.3076
19.838	62.2316
19.856	62.1468
19.874	62.0539
19.892	61.9575
19.91	61.8571
19.928	61.7584
19.946	61.6608
19.964	61.5691
19.982	61.4837
20	61.4071
20.018	61.341
20.036	61.2858
20.054	61.2434
20.072	61.2134
20.09	61.1967
20.108	61.1932
20.126	61.2017
20.144	61.2226
20.162	61.2539
20.18	61.2952
20.198	61.3451
20.216	61.4016
20.234	61.4647
20.252	61.5315
20.27	61.6023
20.288	61.6745
20.306	61.748
20.324	61.8215
20.342	61.8939
20.36	61.965
20.378	62.0329
20.396	62.098
20.414	62.1586
20.432	62.2149
20.45	62.2655
20.468	62.3101
20.486	62.3482
20.504	62.3788
20.522	62.4021
20.54	62.4171
20.558	62.4237
20.576	62.4219
20.594	62.4115
20.612	62.3929
20.63	62.3671
20.648	62.3337
20.666	62.2952
20.684	62.2509
20.702	62.2034
20.72	62.1542
20.738	62.1035
20.756	62.0545
20.774	62.0064
20.792	61.9625
20.81	61.9232
20.828	61.889
20.846	61.8611
20.864	61.8392
20.882	61.8232
20.9	61.8137
20.918	61.8085
20.936	61.8068
20.954	61.808
20.972	61.808
20.99	61.808
21.008	61.8034
21.026	61.7926
21.044	61.775
21.062	61.7461
21.08	61.7069
21.098	61.6549
21.116	61.5888
21.134	61.5094
21.152	61.4162
21.17	61.3092
21.188	61.1914
21.206	61.0621
21.224	60.9241
21.242	60.7818
21.26	60.6335
21.278	60.4866
21.296	60.3412
21.314	60.2
21.332	60.0694
21.35	59.9473
21.368	59.8393
21.386	59.7468
21.404	59.6697
21.422	59.6114
21.44	59.5712
21.458	59.5489
21.476	59.5451
21.494	59.5587
21.512	59.5871
21.53	59.6314
21.548	59.6878
21.566	59.7537
21.584	59.8298
21.602	59.9103
21.62	59.9959
21.638	60.0839
21.656	60.1702
21.674	60.2564
21.692	60.3388
21.71	60.4164
21.728	60.4897
21.746	60.5569
21.764	60.6181
21.782	60.6738
21.8	60.7237
21.818	60.7681
21.836	60.8079
21.854	60.8433
21.872	60.8746
21.89	60.9026
21.908	60.9273
21.926	60.9486
21.944	60.9668
21.962	60.9816
21.98	60.992
21.998	60.9983
22.016	60.9996
22.034	60.9941
22.052	60.9826
22.07	60.9636
22.088	60.9357
22.106	60.8996
22.124	60.8543
22.142	60.7993
22.16	60.7352
22.178	60.663
22.196	60.5815
22.214	60.4933
22.232	60.4008
22.25	60.3026
22.268	60.2029
22.286	60.1038
22.304	60.0044
22.322	59.9102
22.34	59.8217
22.358	59.7393
22.376	59.6678
22.394	59.6064
22.412	59.5561
22.43	59.5198
22.448	59.4964
22.466	59.4865
22.484	59.4909
22.502	59.5092
22.52	59.5401
22.538	59.5835
22.556	59.6393
22.574	59.7042
22.592	59.7785
22.61	59.8615
22.628	59.949
22.646	60.0419
22.664	60.1388
22.682	60.2359
22.7	60.3347
22.718	60.4331
22.736	60.5286
22.754	60.6225
22.772	60.7129
22.79	60.7985
22.808	60.8799
22.826	60.9563
22.844	61.0268
22.862	61.0919
22.88	61.151
22.898	61.2037
22.916	61.2503
22.934	61.2904
22.952	61.324
22.97	61.3511
22.988	61.3718
23.006	61.386
23.024	61.3938
23.042	61.3953
23.06	61.3905
23.078	61.3795
23.096	61.3627
23.114	61.3399
23.132	61.3114
23.15	61.2779
23.168	61.2391
23.186	61.1955
23.204	61.1487
23.222	61.0981
23.24	61.0444
23.258	60.9898
23.276	60.9336
23.294	60.8765
23.312	60.8213
23.33	60.7673
23.348	60.7151
23.366	60.6675
23.384	60.624
23.402	60.5849
23.42	60.5529
23.438	60.5281
23.456	60.5101
23.474	60.5005
23.492	60.4999
23.51	60.5075
23.528	60.5236
23.546	60.5484
23.564	60.5816
23.582	60.6219
23.6	60.669
23.618	60.7234
23.636	60.7825
23.654	60.8457
23.672	60.9139
23.69	60.9839
23.708	61.0538
23.726	61.1254
23.744	61.1956
23.762	61.2615
23.78	61.3253
23.798	61.3842
23.816	61.4352
23.834	61.4799
23.852	61.5168
23.87	61.543
23.888	61.5597
23.906	61.5661
23.924	61.5599
23.942	61.541
23.96	61.51
23.978	61.4654
23.996	61.4067
24.014	61.3345
24.032	61.2489
24.05	61.1497
24.068	61.0365
24.086	60.9111
24.104	60.7747
24.122	60.6257
24.14	60.4666
24.158	60.3006
24.176	60.1257
24.194	59.9438
24.212	59.7596
24.23	59.5731
24.248	59.3834
24.266	59.1963
24.284	59.0146
24.302	58.8351
24.32	58.6629
24.338	58.5027
24.356	58.3513
24.374	58.2114
24.392	58.0881
24.41	57.9806
24.428	57.8885
24.446	57.8149
24.464	57.7617
24.482	57.7272
24.5	57.7116
24.518	57.715
24.536	57.7381
24.554	57.7791
24.572	57.8358
24.59	57.9097
24.608	57.9996
24.626	58.101
24.644	58.2123
24.662	58.336
24.68	58.4674
24.698	58.6026
24.716	58.7449
24.734	58.8911
24.752	59.0362
24.77	59.1797
24.788	59.3231
24.806	59.4633
24.824	59.5981
24.842	59.729
24.86	59.8556
24.878	59.9772
24.896	60.0928
24.914	60.2037
24.932	60.3117
24.95	60.4173
24.968	60.519
24.986	60.6201
25.004	60.724
25.022	60.8289
25.04	60.9356
25.058	61.0476
25.076	61.1668
25.094	61.2912
25.112	61.4219
25.13	61.5603
25.148	61.7066
25.166	61.8598
25.184	62.0192
25.202	62.1847
25.22	62.3574
25.238	62.5343
25.256	62.7124
25.274	62.8943
25.292	63.0784
25.31	63.2599
25.328	63.4365
25.346	63.6118
25.364	63.7816
25.382	63.9411
25.4	64.0917
25.418	64.2337
25.436	64.3635
25.454	64.478
25.472	64.5797
25.49	64.6674
25.508	64.7396
25.526	64.7949
25.544	64.8342
25.562	64.8595
25.58	64.8721
25.598	64.8695
25.616	64.854
25.634	64.8302
25.652	64.8004
25.67	64.7609
25.688	64.716
25.706	64.6712
25.724	64.6261
25.742	64.579
25.76	64.5342
25.778	64.496
25.796	64.4622
25.814	64.433
25.832	64.4109
25.85	64.3979
25.868	64.3928
25.886	64.395
25.904	64.4038
25.922	64.4201
25.94	64.444
25.958	64.4729
25.976	64.504
25.994	64.5397
26.012	64.5792
26.03	64.6178
26.048	64.6516
26.066	64.6843
26.084	64.714
26.102	64.7362
26.12	64.7484
26.138	64.7542
26.156	64.7508
26.174	64.7344
26.192	64.7035
26.21	64.6606
26.228	64.6042
26.246	64.5327
26.264	64.4457
26.282	64.3442
26.3	64.2282
26.318	64.0978
26.336	63.9524
26.354	63.7926
26.372	63.6196
26.39	63.4344
26.408	63.2353
26.426	63.0237
26.444	62.8025
26.462	62.5743
26.48	62.3374
26.498	62.0921
26.516	61.8396
26.534	61.5805
26.552	61.3121
26.57	61.0376
26.588	60.7612
26.606	60.4849
26.624	60.2036
26.642	59.9226
26.66	59.6482
26.678	59.3827
26.696	59.119
26.714	58.865
26.732	58.6302
26.75	58.4178
26.768	58.2184
26.786	58.042
26.804	57.8995
26.822	57.7956
26.84	57.7204
26.858	57.682
26.876	57.6901
26.894	57.749
26.912	57.8509
26.93	58.0005
26.948	58.2034
26.966	58.4889
26.984	58.8914
27.002	59.3138
27.02	59.6514
27.028	59.7376