File: Bakgrunnsmateriale/MATLAB/FTIR/ftir_data/subAa/Mapping_121/BZ1503107-1_t91_cm-1.asc
PE IR       SPECTRUM    SPECTRUM    ASCII       PEDS        1.60
  -1
BZ69A5~1.ASC
17/04/07
20:46:00.00
17/04/07
20:46:00.00
tln
$BZ1503107-1_t0091$<tbV0>[7.8,7.8,8.0,0.0,27,1,0]
370
64

2002,4.07
MIRTGS : RIGHTBACK : INTERNAL 2
MIR : ON : INTERNAL 2
OPTKBR

0.200000
8
8.000000
FILLER
RATIO
SPECTRUM
UNLOCKED 256

DOUBLE
64
COMBINED
1
0
0

1.000000
RATIO

1
0
TRUE
51149
0
LEFT NOT FITTED RIGHT NOT FITTED 0
NONE
NONE
15600
12
4.427000
51148
TRUE
1 0 8 72 0 0 0 0

15798

#HDR
-1
-1
#GR
CM-1
%T
2.38419e-05
0.0
5000
-1.000000
4631
8
80.7195
51.4939
#DATA
5000	64.25
4996	64.2104
4992	64.259
4988	64.3503
4984	64.5848
4980	65.0079
4976	64.6749
4972	63.6396
4968	63.5023
4964	64.1804
4960	64.3492
4956	65.3697
4952	67.8461
4948	67.8021
4944	64.451
4940	62.5394
4936	63.0851
4932	64.2093
4928	65.0872
4924	64.8802
4920	64.1394
4916	64.1095
4912	64.5638
4908	65.0446
4904	64.9804
4900	64.7024
4896	65.0132
4892	65.1168
4888	64.8347
4884	64.8786
4880	64.8861
4876	64.7791
4872	64.9094
4868	65.0972
4864	65.0628
4860	65.0432
4856	65.1489
4852	65.1309
4848	65.0278
4844	64.9079
4840	64.7914
4836	64.6078
4832	64.6078
4828	64.9348
4824	65.0977
4820	65.0823
4816	65.1083
4812	65.1442
4808	65.2343
4804	65.2911
4800	65.2259
4796	65.0397
4792	64.8814
4788	64.8468
4784	64.8708
4780	65.0241
4776	65.0898
4772	64.9141
4768	64.8602
4764	65.1535
4760	65.4451
4756	65.2493
4752	64.9857
4748	65.1163
4744	65.1675
4740	65.1372
4736	65.3497
4732	65.42
4728	65.1174
4724	64.8375
4720	64.8056
4716	64.8824
4712	65.0509
4708	65.2584
4704	65.2542
4700	65.0649
4696	64.9085
4692	64.9597
4688	65.1915
4684	65.3327
4680	65.4339
4676	65.5101
4672	65.4412
4668	65.3653
4664	65.4089
4660	65.3296
4656	64.9865
4652	64.7969
4648	64.838
4644	64.8869
4640	65.088
4636	65.4225
4632	65.4804
4628	65.1659
4624	64.8968
4620	64.9514
4616	65.0508
4612	64.9822
4608	65.0008
4604	65.0804
4600	65.0135
4596	64.9981
4592	65.0777
4588	65.0443
4584	64.9686
4580	65.006
4576	65.059
4572	65.0419
4568	64.9906
4564	64.8904
4560	64.7599
4556	64.6627
4552	64.6313
4548	64.5641
4544	64.4559
4540	64.4895
4536	64.488
4532	64.4603
4528	64.5953
4524	64.5776
4520	64.3456
4516	64.3991
4512	64.5632
4508	64.3338
4504	64.0475
4500	64.0403
4496	64.1406
4492	64.0192
4488	63.716
4484	63.6319
4480	63.6644
4476	63.74
4472	63.8947
4468	64.1431
4464	64.7071
4460	66.0358
4456	66.2648
4452	63.1745
4448	62.6771
4444	72.5811
4440	80.7195
4436	75.7868
4432	68.0737
4428	65.4391
4424	65.9003
4420	65.3548
4416	64.8559
4412	64.7625
4408	64.7903
4404	64.7749
4400	64.5459
4396	64.2426
4392	64.0139
4388	64.204
4384	64.6762
4380	64.6236
4376	64.2872
4372	64.3055
4368	64.401
4364	64.4114
4360	64.38
4356	64.3929
4352	64.6434
4348	64.8604
4344	64.8011
4340	64.7136
4336	64.6956
4332	64.6858
4328	64.7989
4324	64.9938
4320	64.9796
4316	64.7857
4312	64.8031
4308	65.0229
4304	65.1197
4300	65.0313
4296	64.8373
4292	64.7278
4288	64.7659
4284	64.7441
4280	64.6587
4276	64.6474
4272	64.6372
4268	64.6339
4264	64.7475
4260	64.88
4256	64.9898
4252	65.0259
4248	64.9903
4244	64.9723
4240	64.903
4236	64.831
4232	64.8752
4228	64.9081
4224	64.8628
4220	64.9001
4216	64.9366
4212	64.9607
4208	65.1134
4204	65.0907
4200	64.865
4196	64.8059
4192	64.8988
4188	65.0553
4184	65.2022
4180	65.2104
4176	65.195
4172	65.2572
4168	65.2335
4164	65.0617
4160	64.9104
4156	64.9055
4152	64.9871
4148	64.9475
4144	64.8331
4140	64.8613
4136	64.9737
4132	65.1462
4128	65.2938
4124	65.2179
4120	65.0481
4116	64.9591
4112	65.0568
4108	65.2344
4104	65.1741
4100	65.0937
4096	65.1718
4092	65.1921
4088	65.1928
4084	65.2023
4080	65.2236
4076	65.2263
4072	65.1271
4068	65.0578
4064	65.1051
4060	65.1237
4056	65.0568
4052	65.0354
4048	65.0509
4044	65.1128
4040	65.2209
4036	65.265
4032	65.2984
4028	65.3002
4024	65.213
4020	65.1348
4016	65.1351
4012	65.155
4008	65.1198
4004	65.1021
4000	65.1007
3996	65.0431
3992	65.1369
3988	65.3556
3984	65.3689
3980	65.1821
3976	64.9808
3972	64.9255
3968	64.9325
3964	64.859
3960	64.7905
3956	64.8761
3952	65.0494
3948	64.9973
3944	64.8911
3940	64.9952
3936	65.1326
3932	65.1921
3928	65.164
3924	65.0689
3920	64.9729
3916	64.8637
3912	64.782
3908	64.8801
3904	65.014
3900	64.9937
3896	64.9501
3892	64.9265
3888	64.9525
3884	65.0707
3880	65.1554
3876	65.1863
3872	65.1857
3868	65.1479
3864	65.0764
3860	64.9919
3856	65.0291
3852	65.1049
3848	65.1137
3844	65.1797
3840	65.2436
3836	65.2156
3832	65.1292
3828	65.0002
3824	64.8924
3820	64.8765
3816	64.9883
3812	65.1703
3808	65.1928
3804	64.9877
3800	64.8789
3796	65.0413
3792	65.2048
3788	65.2195
3784	65.2356
3780	65.2243
3776	65.1405
3772	65.1008
3768	65.1125
3764	65.1633
3760	65.1764
3756	65.0832
3752	65.0439
3748	65.1211
3744	65.1816
3740	65.1882
3736	65.2002
3732	65.2144
3728	65.1891
3724	65.2014
3720	65.3224
3716	65.4034
3712	65.3645
3708	65.3101
3704	65.2917
3700	65.3094
3696	65.3219
3692	65.2841
3688	65.2369
3684	65.21
3680	65.1764
3676	65.2218
3672	65.3562
3668	65.3989
3664	65.2917
3660	65.1153
3656	65.0069
3652	65.0301
3648	65.0779
3644	65.1294
3640	65.2946
3636	65.4142
3632	65.2717
3628	65.025
3624	64.9331
3620	65.0114
3616	65.0991
3612	65.1537
3608	65.1784
3604	65.146
3600	65.1448
3596	65.2414
3592	65.3248
3588	65.3163
3584	65.2418
3580	65.1023
3576	65.0579
3572	65.1458
3568	65.1703
3564	65.172
3560	65.1736
3556	65.0892
3552	64.9723
3548	64.8671
3544	64.7936
3540	64.8671
3536	65.05
3532	65.15
3528	65.1278
3524	65.0575
3520	65.0289
3516	65.0249
3512	65.0054
3508	65.0216
3504	65.0397
3500	65.0357
3496	65.0433
3492	65.0492
3488	65.0288
3484	65.0071
3480	65.0493
3476	65.1395
3472	65.1701
3468	65.095
3464	64.9947
3460	64.9984
3456	65.05
3452	64.9895
3448	64.8542
3444	64.7608
3440	64.7476
3436	64.8343
3432	64.9338
3428	64.969
3424	64.9965
3420	65.0271
3416	65.0182
3412	64.9572
3408	64.9185
3404	64.9356
3400	64.9436
3396	64.9249
3392	64.9239
3388	64.9415
3384	64.9872
3380	65.0302
3376	65.0132
3372	64.9742
3368	64.9054
3364	64.8951
3360	64.9843
3356	65.0569
3352	65.0306
3348	64.8953
3344	64.8366
3340	64.8929
3336	64.9148
3332	64.8992
3328	64.8903
3324	64.9076
3320	64.9462
3316	64.9621
3312	64.9576
3308	64.9977
3304	65.0399
3300	65.0019
3296	64.947
3292	64.9533
3288	64.9465
3284	64.8888
3280	64.9017
3276	64.9811
3272	64.9922
3268	64.9791
3264	64.9675
3260	64.8896
3256	64.8713
3252	64.9641
3248	64.9865
3244	64.9639
3240	65.0316
3236	65.0709
3232	64.9949
3228	64.9263
3224	64.946
3220	65.0109
3216	65.0321
3212	65.0072
3208	64.9629
3204	64.8906
3200	64.8308
3196	64.8164
3192	64.8707
3188	64.9665
3184	65.014
3180	65.0228
3176	65.0256
3172	64.9895
3168	64.9554
3164	64.9166
3160	64.8732
3156	64.8704
3152	64.8447
3148	64.8242
3144	64.8637
3140	64.9339
3136	65.0353
3132	65.0626
3128	64.9868
3124	64.9034
3120	64.8233
3116	64.8374
3112	64.9222
3108	64.9165
3104	64.8987
3100	64.9916
3096	65.097
3092	65.1139
3088	65.0224
3084	64.8667
3080	64.8284
3076	64.9043
3072	64.8862
3068	64.8259
3064	64.8763
3060	64.9624
3056	64.9733
3052	64.9598
3048	64.9803
3044	64.9866
3040	64.9497
3036	64.8847
3032	64.8466
3028	64.8689
3024	64.872
3020	64.8532
3016	64.8901
3012	64.9318
3008	64.9196
3004	64.8757
3000	64.8369
2996	64.808
2992	64.7889
2988	64.7901
2984	64.8116
2980	64.8619
2976	64.8628
2972	64.7724
2968	64.7051
2964	64.7245
2960	64.7453
2956	64.7102
2952	64.6756
2948	64.6891
2944	64.7557
2940	64.782
2936	64.7549
2932	64.7981
2928	64.8824
2924	64.8708
2920	64.786
2916	64.7582
2912	64.7854
2908	64.8328
2904	64.8603
2900	64.8278
2896	64.8111
2892	64.8161
2888	64.7795
2884	64.7039
2880	64.6387
2876	64.642
2872	64.731
2868	64.8036
2864	64.8019
2860	64.7942
2856	64.802
2852	64.7732
2848	64.7206
2844	64.7055
2840	64.7328
2836	64.7457
2832	64.7418
2828	64.7958
2824	64.8287
2820	64.7808
2816	64.7483
2812	64.7299
2808	64.7265
2804	64.7802
2800	64.8036
2796	64.7664
2792	64.7468
2788	64.7974
2784	64.887
2780	64.8948
2776	64.8491
2772	64.802
2768	64.776
2764	64.8443
2760	64.8793
2756	64.8139
2752	64.7778
2748	64.7754
2744	64.7607
2740	64.7624
2736	64.7736
2732	64.8136
2728	64.9044
2724	64.9328
2720	64.8246
2716	64.7078
2712	64.7114
2708	64.7614
2704	64.7661
2700	64.789
2696	64.808
2692	64.7528
2688	64.7191
2684	64.7263
2680	64.7271
2676	64.7472
2672	64.7654
2668	64.7873
2664	64.812
2660	64.8105
2656	64.797
2652	64.8253
2648	64.8931
2644	64.8804
2640	64.8135
2636	64.7636
2632	64.6877
2628	64.63
2624	64.6353
2620	64.6373
2616	64.6414
2612	64.6809
2608	64.6857
2604	64.6695
2600	64.7185
2596	64.7623
2592	64.6632
2588	64.5344
2584	64.5726
2580	64.6749
2576	64.7327
2572	64.7675
2568	64.7503
2564	64.7101
2560	64.7051
2556	64.7523
2552	64.7979
2548	64.732
2544	64.6257
2540	64.6369
2536	64.7199
2532	64.7432
2528	64.6604
2524	64.5786
2520	64.6111
2516	64.69
2512	64.714
2508	64.6812
2504	64.6522
2500	64.7137
2496	64.8146
2492	64.8142
2488	64.7119
2484	64.552
2480	64.4938
2476	64.6198
2472	64.7352
2468	64.7568
2464	64.774
2460	64.8035
2456	64.7762
2452	64.6932
2448	64.6357
2444	64.609
2440	64.5961
2436	64.6007
2432	64.636
2428	64.6987
2424	64.7288
2420	64.7372
2416	64.6802
2412	64.5651
2408	64.5496
2404	64.6262
2400	64.6908
2396	64.6705
2392	64.6188
2388	64.6419
2384	64.6968
2380	64.6855
2376	64.5753
2372	64.5157
2368	64.5815
2364	64.607
2360	64.5671
2356	64.5549
2352	64.5677
2348	64.5968
2344	64.5963
2340	64.5767
2336	64.6134
2332	64.6346
2328	64.6301
2324	64.6509
2320	64.5966
2316	64.519
2312	64.5579
2308	64.5952
2304	64.5555
2300	64.5473
2296	64.5774
2292	64.5623
2288	64.4963
2284	64.4579
2280	64.4809
2276	64.5277
2272	64.5909
2268	64.628
2264	64.588
2260	64.5273
2256	64.5031
2252	64.5328
2248	64.5659
2244	64.5441
2240	64.5228
2236	64.535
2232	64.5453
2228	64.5186
2224	64.4603
2220	64.4324
2216	64.45
2212	64.4677
2208	64.4384
2204	64.3846
2200	64.3905
2196	64.4392
2192	64.4652
2188	64.4655
2184	64.4671
2180	64.4362
2176	64.3665
2172	64.3496
2168	64.3703
2164	64.3726
2160	64.3823
2156	64.4289
2152	64.4661
2148	64.4323
2144	64.4061
2140	64.4349
2136	64.4324
2132	64.4056
2128	64.4012
2124	64.3969
2120	64.3986
2116	64.3877
2112	64.3529
2108	64.3521
2104	64.3874
2100	64.3924
2096	64.3594
2092	64.3281
2088	64.2953
2084	64.2755
2080	64.2777
2076	64.2284
2072	64.1762
2068	64.2286
2064	64.3453
2060	64.4441
2056	64.4933
2052	64.4593
2048	64.3767
2044	64.3569
2040	64.3867
2036	64.4116
2032	64.3908
2028	64.3134
2024	64.2668
2020	64.2664
2016	64.2975
2012	64.3245
2008	64.3152
2004	64.3274
2000	64.3427
1996	64.3576
1992	64.384
1988	64.348
1984	64.2835
1980	64.2601
1976	64.2649
1972	64.2979
1968	64.3388
1964	64.3107
1960	64.2473
1956	64.2729
1952	64.3294
1948	64.2992
1944	64.2324
1940	64.241
1936	64.2863
1932	64.2738
1928	64.2361
1924	64.1943
1920	64.1352
1916	64.1017
1912	64.1362
1908	64.1909
1904	64.2258
1900	64.2602
1896	64.2786
1892	64.2683
1888	64.2335
1884	64.1905
1880	64.1933
1876	64.2053
1872	64.1981
1868	64.1936
1864	64.1525
1860	64.1288
1856	64.1921
1852	64.2283
1848	64.1577
1844	64.0987
1840	64.139
1836	64.203
1832	64.1983
1828	64.1499
1824	64.1316
1820	64.1567
1816	64.1846
1812	64.1972
1808	64.2145
1804	64.1926
1800	64.1464
1796	64.1361
1792	64.1335
1788	64.0816
1784	64.0064
1780	63.9864
1776	64.0312
1772	64.1095
1768	64.1362
1764	64.1245
1760	64.1332
1756	64.0583
1752	63.9292
1748	63.8899
1744	63.8706
1740	63.8166
1736	63.7774
1732	63.7645
1728	63.8107
1724	63.8858
1720	63.8958
1716	63.85
1712	63.8394
1708	63.8595
1704	63.864
1700	63.8511
1696	63.8712
1692	63.9452
1688	63.9714
1684	63.9594
1680	63.9329
1676	63.8499
1672	63.7969
1668	63.835
1664	63.9337
1660	64.029
1656	64.0417
1652	64.0026
1648	64.0199
1644	64.0496
1640	64.0198
1636	63.9675
1632	63.8866
1628	63.8249
1624	63.8726
1620	63.9638
1616	63.9629
1612	63.9029
1608	63.8913
1604	63.8751
1600	63.8255
1596	63.8085
1592	63.8073
1588	63.8213
1584	63.8454
1580	63.8047
1576	63.7814
1572	63.8275
1568	63.8286
1564	63.7948
1560	63.8043
1556	63.8134
1552	63.7628
1548	63.7199
1544	63.7192
1540	63.7414
1536	63.7741
1532	63.7669
1528	63.7645
1524	63.8037
1520	63.77
1516	63.6727
1512	63.643
1508	63.6842
1504	63.7395
1500	63.7962
1496	63.8428
1492	63.855
1488	63.8184
1484	63.7588
1480	63.7498
1476	63.7783
1472	63.777
1468	63.7571
1464	63.6981
1460	63.6243
1456	63.6238
1452	63.6641
1448	63.6874
1444	63.6545
1440	63.6148
1436	63.6636
1432	63.7023
1428	63.6754
1424	63.6752
1420	63.6408
1416	63.5573
1412	63.583
1408	63.6737
1404	63.7257
1400	63.7223
1396	63.6442
1392	63.6086
1388	63.6492
1384	63.6361
1380	63.5661
1376	63.5522
1372	63.6118
1368	63.6684
1364	63.6586
1360	63.568
1356	63.4556
1352	63.4483
1348	63.5496
1344	63.5883
1340	63.5283
1336	63.4917
1332	63.4977
1328	63.4823
1324	63.4761
1320	63.5414
1316	63.5931
1312	63.5655
1308	63.5108
1304	63.4574
1300	63.4478
1296	63.4929
1292	63.4929
1288	63.3903
1284	63.3408
1280	63.4081
1276	63.4254
1272	63.3718
1268	63.3345
1264	63.3333
1260	63.3373
1256	63.3379
1252	63.3584
1248	63.3616
1244	63.3518
1240	63.3562
1236	63.3147
1232	63.2743
1228	63.3326
1224	63.4175
1220	63.4178
1216	63.4029
1212	63.4534
1208	63.4631
1204	63.3742
1200	63.3002
1196	63.2818
1192	63.2737
1188	63.2729
1184	63.2507
1180	63.1968
1176	63.1518
1172	63.1126
1168	63.0981
1164	63.1292
1160	63.1675
1156	63.2123
1152	63.2194
1148	63.1988
1144	63.239
1140	63.3157
1136	63.3021
1132	63.1888
1128	63.1624
1124	63.2522
1120	63.2884
1116	63.2545
1112	63.25
1108	63.2618
1104	63.2829
1100	63.3318
1096	63.3141
1092	63.1904
1088	63.0886
1084	63.0465
1080	63.028
1076	63.0493
1072	63.0793
1068	63.1034
1064	63.1386
1060	63.1563
1056	63.1509
1052	63.1581
1048	63.1553
1044	63.1626
1040	63.1966
1036	63.1549
1032	63.0875
1028	63.1242
1024	63.1515
1020	63.0614
1016	62.9664
1012	62.9402
1008	62.9501
1004	62.9771
1000	63.0214
996	 63.0733
992	 63.1108
988	 63.1633
984	 63.2831
980	 63.3577
976	 63.3157
972	 63.221
968	 63.0722
964	 62.987
960	 63.0006
956	 63.0006
952	 63.0417
948	 63.1197
944	 63.1488
940	 63.1929
936	 63.1755
932	 63.1221
928	 63.2426
924	 63.2771
920	 63.0747
916	 62.9375
912	 63.0288
908	 63.1669
904	 63.1057
900	 62.9962
896	 63.0253
892	 63.1079
888	 63.1161
884	 62.9946
880	 62.8875
876	 62.9913
872	 63.1211
868	 63.1191
864	 63.1094
860	 63.0749
856	 63.0763
852	 63.0768
848	 62.9386
844	 62.8478
840	 62.8723
836	 62.885
832	 62.8695
828	 62.8398
824	 62.8355
820	 62.892
816	 63.0128
812	 63.1099
808	 63.0733
804	 62.9468
800	 62.8701
796	 62.9152
792	 62.9363
788	 62.8772
784	 62.8186
780	 62.8018
776	 62.8617
772	 62.9102
768	 62.8547
764	 62.7409
760	 62.6822
756	 62.7348
752	 62.8597
748	 62.9309
744	 62.8976
740	 62.9146
736	 63.0066
732	 63.0844
728	 63.0817
724	 62.9974
720	 62.9893
716	 62.9335
712	 62.6696
708	 62.4071
704	 62.3038
700	 62.2896
696	 62.2849
692	 62.3384
688	 62.447
684	 62.4367
680	 62.3425
676	 62.396
672	 62.554
668	 62.6833
664	 62.7691
660	 62.7213
656	 62.5796
652	 62.4733
648	 62.2915
644	 62.1409
640	 62.1908
636	 62.2885
632	 62.3151
628	 62.2351
624	 62.1012
620	 62.0279
616	 62.0299
612	 62.1459
608	 62.4174
604	 62.489
600	 62.3846
596	 62.4369
592	 62.3733
588	 62.0297
584	 61.7252
580	 61.921
576	 62.5547
572	 63.0226
568	 63.0292
564	 62.5104
560	 61.9178
556	 62.0391
552	 62.4952
548	 62.3643
544	 61.7717
540	 61.3582
536	 61.4981
532	 61.9759
528	 61.827
524	 61.7421
520	 62.4538
516	 62.2596
512	 61.9345
508	 62.8631
504	 62.742
500	 60.785
496	 59.8898
492	 61.6068
488	 63.7987
484	 63.841
480	 62.3298
476	 61.3101
472	 61.3874
468	 61.621
464	 61.2532
460	 60.9462
456	 61.0918
452	 61.0222
448	 60.763
444	 60.9252
440	 61.4903
436	 62.0024
432	 61.5459
428	 61.0238
424	 62.7827
420	 64.0412
416	 62.5155
412	 62.1807
408	 63.1426
404	 64.1168
400	 64.6729
396	 60.9165
392	 53.7665
388	 52.2214
384	 63.4728
380	 72.0679
376	 63.7359
372	 60.2594
370	 68.2785