File: Bakgrunnsmateriale/MATLAB/FTIR/ftir_data/subAa/Mapping_121/BZ1503107-1_t34.asc
PE IR       SPECTRUM    SPECTRUM    ASCII       PEDS        1.60
  -1
BZ2957~1.ASC
17/04/07
16:01:17.00
17/04/07
16:01:43.00
tln
$BZ1503107-1_t0034$<tbV0>[13.0,-5.2,8.0,0.0,27,1,0]
27.028
64

2002,4.07
MIRTGS : RIGHTBACK : INTERNAL 2
MIR : ON : INTERNAL 2
OPTKBR

0.200000
8
8.000000
FILLER
RATIO
SPECTRUM
UNLOCKED 256

DOUBLE
64
COMBINED
1
0
0

0.002000
RATIO

1
0
TRUE
51149
0
LEFT NOT FITTED RIGHT NOT FITTED 0
NONE
NONE
15600
12
4.427000
51148
TRUE
1 0 8 72 0 0 0 0

15798

#HDR
-1
-1
#GR
µM
%T
2.38419e-05
0.0
2.000000
0.002000
12515
8
85.141
45.8769
#DATA
2.000000	 65.551
2.018000	 64.6235
2.036000	 64.5375
2.054000	 65.1754
2.072000	 64.8733
2.090000	 64.8295
2.108000	 64.7119
2.126000	 65.5513
2.144000	 65.1372
2.162000	 64.7859
2.180000	 64.6505
2.198000	 64.7492
2.216000	 64.7903
2.234000	 64.4582
2.252000	 66.3746
2.270000	 65.092
2.288000	 64.9168
2.306000	 65.264
2.324000	 64.8294
2.342000	 65.1605
2.360000	 64.9605
2.378000	 65.1237
2.396000	 65.1762
2.414000	 65.5265
2.432000	 65.4383
2.450000	 65.0576
2.468000	 65.2766
2.486000	 65.2652
2.504000	 65.2615
2.522000	 65.2498
2.540000	 65.1048
2.558000	 65.231
2.576000	 64.7448
2.594000	 65.2009
2.612000	 65.0038
2.630000	 65.454
2.648000	 65.1002
2.666000	 65.0895
2.684000	 65.2483
2.702000	 65.2659
2.720000	 65.102
2.738000	 65.1649
2.756000	 65.2758
2.774000	 65.3078
2.792000	 65.2261
2.810000	 65.1843
2.828000	 65.1084
2.846000	 65.1681
2.864000	 65.1349
2.882000	 65.2509
2.900000	 65.2369
2.918000	 65.1899
2.936000	 65.1327
2.954000	 65.2236
2.972000	 65.145
2.990000	 65.1976
3.008000	 65.2226
3.026000	 65.0476
3.044000	 64.8866
3.062000	 65.2056
3.080000	 65.1248
3.098000	 65.1508
3.116000	 64.947
3.134000	 65.0846
3.152000	 65.1226
3.170000	 65.0485
3.188000	 64.9044
3.206000	 65.04
3.224000	 65.2994
3.242000	 64.9522
3.260000	 64.9595
3.278000	 65.0907
3.296000	 64.9269
3.314000	 64.948
3.332000	 65.0678
3.350000	 65.2139
3.368000	 64.8563
3.386000	 65.0254
3.404000	 65.0222
3.422000	 64.9452
3.440000	 64.9331
3.458000	 64.9068
3.476000	 65.0689
3.494000	 65.0253
3.512000	 64.9589
3.530000	 64.9236
3.548000	 64.9071
3.566000	 65.0268
3.584000	 65.2077
3.602000	 65.0689
3.620000	 65.1096
3.638000	 65.0992
3.656000	 64.9822
3.674000	 64.9815
3.692000	 64.9721
3.710000	 65.2179
3.728000	 64.9757
3.746000	 64.9858
3.764000	 65.0875
3.782000	 65.1047
3.800000	 65.0275
3.818000	 64.9826
3.836000	 64.8822
3.854000	 64.9654
3.872000	 65.0416
3.890000	 64.978
3.908000	 65.0182
3.926000	 64.8664
3.944000	 65.0992
3.962000	 65.0496
3.980000	 65.0401
3.998000	 65.0058
4.016000	 65.0319
4.034000	 64.8268
4.052000	 64.9277
4.070000	 64.9648
4.088000	 64.9557
4.106000	 64.9862
4.124000	 64.986
4.141999	 64.9891
4.160000	 64.9827
4.178000	 65.0375
4.196000	 64.9428
4.214000	 64.8353
4.232000	 64.9379
4.250000	 64.9548
4.268000	 64.9728
4.286000	 64.9772
4.304000	 64.9905
4.322000	 64.9981
4.340000	 64.9289
4.358000	 64.8286
4.375999	 64.931
4.394000	 64.9504
4.412000	 64.9077
4.430000	 64.9183
4.448000	 64.8284
4.466000	 64.7402
4.484000	 64.8367
4.502000	 64.811
4.520000	 64.8035
4.538000	 64.9239
4.556000	 64.8948
4.574000	 64.8814
4.592000	 64.9025
4.609999	 64.8941
4.628000	 64.8782
4.646000	 64.8161
4.664000	 64.7425
4.682000	 64.8075
4.700000	 64.7981
4.718000	 64.9364
4.736000	 64.9226
4.754000	 64.8127
4.772000	 64.7783
4.790000	 64.7212
4.808000	 64.8134
4.826000	 64.8236
4.843999	 64.7493
4.862000	 64.7547
4.880000	 64.8116
4.898000	 64.7249
4.916000	 64.7187
4.934000	 64.8441
4.952000	 64.8753
4.970000	 64.8231
4.988000	 64.893
5.006000	 64.8513
5.024000	 64.77
5.042000	 64.7884
5.060000	 64.7918
5.077999	 64.8496
5.096000	 64.6771
5.114000	 64.7251
5.132000	 64.7855
5.150000	 64.7927
5.168000	 64.7608
5.186000	 64.7026
5.204000	 64.6625
5.222000	 64.6454
5.240000	 64.6998
5.258000	 64.7017
5.276000	 64.6677
5.294000	 64.6611
5.312000	 64.6891
5.330000	 64.6419
5.348000	 64.6837
5.366000	 64.6306
5.384000	 64.5637
5.402000	 64.6709
5.420000	 64.7001
5.438000	 64.6883
5.456000	 64.6992
5.474000	 64.7329
5.492000	 64.7599
5.510000	 64.7111
5.528000	 64.5524
5.546000	 64.6004
5.564000	 64.687
5.582000	 64.6382
5.600000	 64.6049
5.618000	 64.6051
5.636000	 64.6308
5.654000	 64.6164
5.672000	 64.5714
5.690000	 64.5142
5.708000	 64.4166
5.726000	 64.4456
5.744000	 64.413
5.762000	 64.2786
5.780000	 64.2279
5.798000	 64.3459
5.816000	 64.492
5.834000	 64.5047
5.852000	 64.4768
5.870000	 64.5091
5.888000	 64.461
5.906000	 64.4636
5.923999	 64.4363
5.942000	 64.4066
5.960000	 64.5439
5.978000	 64.5885
5.996000	 64.5336
6.014000	 64.5014
6.032000	 64.5118
6.050000	 64.556
6.068000	 64.5605
6.086000	 64.4664
6.104000	 64.4052
6.122000	 64.4257
6.140000	 64.4115
6.158000	 64.3829
6.176000	 64.3833
6.194000	 64.3985
6.212000	 64.3959
6.230000	 64.4085
6.248000	 64.3764
6.266000	 64.3333
6.284000	 64.3657
6.302000	 64.3331
6.320000	 64.2572
6.338000	 64.1822
6.356000	 64.1472
6.374000	 64.2961
6.392000	 64.4271
6.410000	 64.3357
6.428000	 64.2836
6.446000	 64.3326
6.464000	 64.3811
6.482000	 64.3924
6.500000	 64.3518
6.518000	 64.3167
6.536000	 64.3261
6.554000	 64.3414
6.572000	 64.3561
6.590000	 64.4487
6.608000	 64.5622
6.626000	 64.5735
6.644000	 64.5529
6.662000	 64.5612
6.680000	 64.4958
6.698000	 64.408
6.716000	 64.3556
6.734000	 64.3464
6.752000	 64.391
6.770000	 64.3941
6.788000	 64.3573
6.806000	 64.3545
6.824000	 64.3697
6.842000	 64.3857
6.860000	 64.4027
6.878000	 64.4193
6.896000	 64.4101
6.914000	 64.3599
6.932000	 64.3651
6.950000	 64.4461
6.968000	 64.4859
6.986000	 64.4424
7.004000	 64.4059
7.022000	 64.4477
7.040000	 64.5218
7.058000	 64.5483
7.076000	 64.5048
7.094000	 64.4418
7.112000	 64.4026
7.130000	 64.3635
7.148000	 64.319
7.166000	 64.2764
7.184000	 64.2207
7.202000	 64.1897
7.220000	 64.201
7.238000	 64.1999
7.256000	 64.1839
7.274000	 64.1931
7.292000	 64.22
7.310000	 64.2396
7.328000	 64.2455
7.346000	 64.2528
7.364000	 64.2757
7.382000	 64.2862
7.400000	 64.2702
7.418000	 64.2719
7.436000	 64.3103
7.454000	 64.3572
7.472000	 64.3926
7.490000	 64.4007
7.508000	 64.3706
7.526000	 64.3205
7.544000	 64.2765
7.562000	 64.2492
7.580000	 64.2355
7.598000	 64.2206
7.616000	 64.2006
7.634000	 64.1935
7.652000	 64.203
7.670000	 64.2027
7.688000	 64.1702
7.706000	 64.1092
7.724000	 64.0496
7.742000	 64.0318
7.760000	 64.0618
7.778000	 64.0932
7.796000	 64.0903
7.814000	 64.0804
7.832000	 64.1038
7.850000	 64.1541
7.868000	 64.2023
7.886000	 64.2341
7.904000	 64.2394
7.922000	 64.2033
7.940000	 64.1353
7.958000	 64.0863
7.976000	 64.102
7.994000	 64.1665
8.012000	 64.2206
8.030000	 64.2291
8.048000	 64.2081
8.065999	 64.1922
8.084000	 64.1938
8.102000	 64.1932
8.120000	 64.1641
8.138000	 64.1109
8.155999	 64.0746
8.173999	 64.084
8.192000	 64.1235
8.210000	 64.1628
8.228000	 64.1822
8.246000	 64.1712
8.263999	 64.1339
8.282000	 64.0919
8.300000	 64.0649
8.318000	 64.0512
8.336000	 64.0412
8.353999	 64.0338
8.372000	 64.0308
8.390000	 64.0288
8.408000	 64.0194
8.426000	 64.0036
8.443999	 64.0024
8.462000	 64.0337
8.480000	 64.0774
8.498000	 64.0879
8.516000	 64.0491
8.533999	 63.9954
8.552000	 63.9685
8.570000	 63.9818
8.588000	 64.0265
8.606000	 64.0824
8.624000	 64.1163
8.641999	 64.0969
8.660000	 64.0251
8.678000	 63.9383
8.696000	 63.8789
8.714000	 63.8664
8.731999	 63.8965
8.750000	 63.9425
8.768000	 63.9671
8.786000	 63.9486
8.804000	 63.8952
8.821999	 63.8327
8.840000	 63.7862
8.858000	 63.7699
8.876000	 63.7848
8.894000	 63.8254
8.911999	 63.8829
8.930000	 63.9393
8.948000	 63.974
8.966000	 63.9817
8.984000	 63.9759
9.001999	 63.9734
9.020000	 63.9833
9.038000	 64.004
9.056000	 64.0193
9.074000	 64.0089
9.092000	 63.9699
9.109999	 63.9237
9.128000	 63.8992
9.146000	 63.9073
9.164000	 63.9337
9.182000	 63.9521
9.199999	 63.946
9.218000	 63.9202
9.236000	 63.8987
9.254000	 63.9074
9.272000	 63.9519
9.289999	 64.0078
9.308000	 64.039
9.326000	 64.0288
9.344000	 63.9963
9.362000	 63.9778
9.379999	 63.9928
9.398000	 64.0299
9.416000	 64.062
9.434000	 64.0727
9.452000	 64.0629
9.469999	 64.0407
9.488000	 64.0099
9.506000	 63.9736
9.524000	 63.9422
9.542000	 63.9311
9.560000	 63.9465
9.577999	 63.9779
9.596000	 64.0057
9.614000	 64.0185
9.632000	 64.0224
9.650000	 64.033
9.667999	 64.0601
9.686000	 64.0986
9.704000	 64.1334
9.722000	 64.1522
9.740000	 64.1533
9.757999	 64.141
9.776000	 64.119
9.794000	 64.0895
9.812000	 64.057
9.830000	 64.0298
9.847999	 64.0155
9.866000	 64.0155
9.884000	 64.0246
9.902000	 64.0351
9.920000	 64.0417
9.937999	 64.043
9.956000	 64.0414
9.974000	 64.042
9.992000	 64.0519
10.01	64.0763
10.028	64.1123
10.046	64.1446
10.064	64.1535
10.082	64.1273
10.1	64.0734
10.118	64.0184
10.136	63.9929
10.154	64.0133
10.172	64.0709
10.19	64.1352
10.208	64.1734
10.226	64.1683
10.244	64.1258
10.262	64.0698
10.28	64.0238
10.298	63.9978
10.316	63.9862
10.334	63.9778
10.352	63.9686
10.37	63.9641
10.388	63.9714
10.406	63.9905
10.424	64.0136
10.442	64.0335
10.46	64.0506
10.478	64.0736
10.496	64.1095
10.514	64.1544
10.532	64.1898
10.55	64.1957
10.568	64.1624
10.586	64.0991
10.604	64.0289
10.622	63.9783
10.64	63.9632
10.658	63.9846
10.676	64.0283
10.694	64.0743
10.712	64.105
10.73	64.1148
10.748	64.1091
10.766	64.0997
10.784	64.0959
10.802	64.0975
10.82	64.0959
10.838	64.0797
10.856	64.0452
10.874	64.0002
10.892	63.9604
10.91	63.943
10.928	63.9548
10.946	63.991
10.964	64.038
10.982	64.0797
11	64.1036
11.018	64.1021
11.036	64.0742
11.054	64.024
11.072	63.9605
11.09	63.8996
11.108	63.8598
11.126	63.8569
11.144	63.8956
11.162	63.9652
11.18	64.0441
11.198	64.1058
11.216	64.1322
11.234	64.1196
11.252	64.0801
11.27	64.0336
11.288	64.0013
11.306	63.9949
11.324	64.0126
11.342	64.0408
11.36	64.0617
11.378	64.0606
11.396	64.0334
11.414	63.9876
11.432	63.9398
11.45	63.9074
11.468	63.904
11.486	63.9332
11.504	63.9889
11.522	64.0572
11.54	64.1233
11.558	64.174
11.576	64.2032
11.594	64.2116
11.612	64.2053
11.63	64.1929
11.648	64.1812
11.666	64.1735
11.684	64.1679
11.702	64.1587
11.72	64.1402
11.738	64.1091
11.756	64.0672
11.774	64.021
11.792	63.9798
11.81	63.952
11.828	63.9421
11.846	63.9493
11.864	63.9685
11.882	63.9928
11.9	64.0157
11.918	64.0323
11.936	64.0406
11.954	64.0395
11.972	64.0286
11.99	64.0077
12.008	63.9782
12.026	63.9437
12.044	63.9099
12.062	63.883
12.08	63.8671
12.098	63.8618
12.116	63.8623
12.134	63.8605
12.152	63.8487
12.17	63.8233
12.188	63.7864
12.206	63.7466
12.224	63.7154
12.242	63.7024
12.26	63.7124
12.278	63.7437
12.296	63.7887
12.314	63.8374
12.332	63.8811
12.35	63.9141
12.368	63.9349
12.386	63.9456
12.404	63.9498
12.422	63.9509
12.44	63.9502
12.458	63.947
12.476	63.9393
12.494	63.9251
12.512	63.9041
12.53	63.8789
12.548	63.8548
12.566	63.8385
12.584	63.836
12.602	63.8504
12.62	63.881
12.638	63.9229
12.656	63.9689
12.674	64.0111
12.692	64.0436
12.71	64.0632
12.728	64.0706
12.746	64.0696
12.764	64.066
12.782	64.0655
12.8	64.0721
12.818	64.0856
12.836	64.1025
12.854	64.1159
12.872	64.1179
12.89	64.1015
12.908	64.0627
12.926	64.0025
12.944	63.9273
12.962	63.8473
12.98	63.7737
12.998	63.7168
13.016	63.6826
13.034	63.6718
13.052	63.6796
13.07	63.6973
13.088	63.7153
13.106	63.7267
13.124	63.7275
13.142	63.7178
13.16	63.7007
13.178	63.6807
13.196	63.6614
13.214	63.6447
13.232	63.6306
13.25	63.6179
13.268	63.6055
13.286	63.5938
13.304	63.5853
13.322	63.5842
13.34	63.5958
13.358	63.6249
13.376	63.6741
13.394	63.7431
13.412	63.8277
13.43	63.9207
13.448	64.0127
13.466	64.0934
13.484	64.153
13.502	64.183
13.52	64.1772
13.538	64.1334
13.556	64.0532
13.574	63.9426
13.592	63.8118
13.61	63.6746
13.628	63.5458
13.646	63.4397
13.664	63.3673
13.682	63.3347
13.7	63.3421
13.718	63.3831
13.736	63.447
13.754	63.5199
13.772	63.5885
13.79	63.6411
13.808	63.6708
13.826	63.6754
13.844	63.6578
13.862	63.6241
13.88	63.5823
13.898	63.54
13.916	63.5031
13.934	63.4753
13.952	63.4576
13.97	63.4488
13.988	63.4466
14.006	63.4487
14.024	63.4538
14.042	63.4615
14.06	63.4728
14.078	63.4893
14.096	63.5132
14.114	63.5459
14.132	63.5879
14.15	63.6386
14.168	63.696
14.186	63.7577
14.204	63.8209
14.222	63.8833
14.24	63.943
14.258	63.999
14.276	64.0513
14.294	64.1005
14.312	64.1473
14.33	64.1919
14.348	64.2338
14.366	64.2724
14.384	64.3052
14.402	64.3299
14.42	64.3433
14.438	64.3428
14.456	64.3261
14.474	64.2919
14.492	64.2404
14.51	64.1731
14.528	64.0933
14.546	64.0051
14.564	63.9127
14.582	63.8205
14.6	63.7324
14.618	63.6517
14.636	63.5813
14.654	63.5231
14.672	63.4779
14.69	63.4458
14.708	63.4261
14.726	63.4171
14.744	63.4169
14.762	63.4225
14.78	63.4315
14.798	63.442
14.816	63.4527
14.834	63.4632
14.852	63.4741
14.87	63.4862
14.888	63.5002
14.906	63.5166
14.924	63.5348
14.942	63.5528
14.96	63.5681
14.978	63.5778
14.996	63.5794
15.014	63.5709
15.032	63.5516
15.05	63.5228
15.068	63.4866
15.086	63.446
15.104	63.4049
15.122	63.3677
15.14	63.3374
15.158	63.3153
15.176	63.3017
15.194	63.2957
15.212	63.2946
15.23	63.2952
15.248	63.2944
15.266	63.2891
15.284	63.2771
15.302	63.2581
15.32	63.2328
15.338	63.2028
15.356	63.171
15.374	63.1407
15.392	63.1144
15.41	63.0945
15.428	63.0828
15.446	63.0798
15.464	63.0848
15.482	63.0965
15.5	63.1131
15.518	63.1315
15.536	63.1496
15.554	63.1657
15.572	63.1779
15.59	63.1859
15.608	63.1904
15.626	63.1926
15.644	63.1951
15.662	63.2012
15.68	63.2139
15.698	63.2361
15.716	63.271
15.734	63.3203
15.752	63.3847
15.77	63.4645
15.788	63.5578
15.806	63.6614
15.824	63.772
15.842	63.8852
15.86	63.9953
15.878	64.0978
15.896	64.1885
15.914	64.2618
15.932	64.3146
15.95	64.345
15.968	64.3512
15.986	64.3335
16.004	64.2929
16.022	64.2307
16.04	64.151
16.058	64.0569
16.076	63.9518
16.094	63.841
16.112	63.7289
16.13	63.619
16.148	63.5156
16.166	63.4224
16.184	63.3412
16.202	63.274
16.22	63.2217
16.238	63.1842
16.256	63.1609
16.274	63.1504
16.292	63.1515
16.31	63.1629
16.328	63.1829
16.346	63.2103
16.364	63.2441
16.382	63.2835
16.4	63.3282
16.418	63.3778
16.436	63.4324
16.454	63.4917
16.472	63.5556
16.49	63.6239
16.508	63.6963
16.526	63.7722
16.544	63.851
16.562	63.9313
16.58	64.0122
16.598	64.0917
16.616	64.168
16.634	64.2394
16.652	64.303
16.67	64.3569
16.688	64.3989
16.706	64.427
16.724	64.4404
16.742	64.4379
16.76	64.4201
16.778	64.3875
16.796	64.3415
16.814	64.2848
16.832	64.2191
16.85	64.148
16.868	64.0748
16.886	64.0019
16.904	63.9334
16.922	63.8706
16.94	63.8158
16.958	63.7698
16.976	63.733
16.994	63.7059
17.012	63.6873
17.03	63.6769
17.048	63.6726
17.066	63.6734
17.084	63.6778
17.102	63.6844
17.12	63.6927
17.138	63.7016
17.156	63.7111
17.174	63.7208
17.192	63.7308
17.21	63.7414
17.228	63.7525
17.246	63.7644
17.264	63.7772
17.282	63.7911
17.3	63.8058
17.318	63.821
17.336	63.8358
17.354	63.8498
17.372	63.8616
17.39	63.871
17.408	63.8768
17.426	63.8783
17.444	63.875
17.462	63.8663
17.48	63.8521
17.498	63.8322
17.516	63.8072
17.534	63.7777
17.552	63.7449
17.57	63.7091
17.588	63.6726
17.606	63.6366
17.624	63.6029
17.642	63.5739
17.66	63.5507
17.678	63.5362
17.696	63.5309
17.714	63.5371
17.732	63.5548
17.75	63.5847
17.768	63.6263
17.786	63.6795
17.804	63.7421
17.822	63.8135
17.84	63.8911
17.858	63.9736
17.876	64.059
17.894	64.145
17.912	64.2308
17.93	64.3141
17.948	64.3945
17.966	64.4697
17.984	64.5392
18.002	64.6014
18.02	64.6549
18.038	64.6987
18.056	64.7309
18.074	64.7509
18.092	64.7571
18.11	64.7494
18.128	64.7271
18.146	64.6907
18.164	64.6408
18.182	64.579
18.2	64.5065
18.218	64.4262
18.236	64.3394
18.254	64.2501
18.272	64.1592
18.29	64.0708
18.308	63.9854
18.326	63.9065
18.344	63.8342
18.362	63.771
18.38	63.7169
18.398	63.673
18.416	63.6391
18.434	63.6154
18.452	63.6011
18.47	63.596
18.488	63.5985
18.506	63.6084
18.524	63.6236
18.542	63.6436
18.56	63.666
18.578	63.6903
18.596	63.7141
18.614	63.7371
18.632	63.7567
18.65	63.7728
18.668	63.7835
18.686	63.789
18.704	63.7881
18.722	63.781
18.74	63.7677
18.758	63.7486
18.776	63.7244
18.794	63.6957
18.812	63.6639
18.83	63.6296
18.848	63.5946
18.866	63.5595
18.884	63.5258
18.902	63.4939
18.92	63.4649
18.938	63.4388
18.956	63.416
18.974	63.396
18.992	63.3785
19.01	63.363
19.028	63.3487
19.046	63.335
19.064	63.3211
19.082	63.3067
19.1	63.2908
19.118	63.2733
19.136	63.2538
19.154	63.2324
19.172	63.2088
19.19	63.1834
19.208	63.1564
19.226	63.128
19.244	63.0985
19.262	63.0682
19.28	63.0375
19.298	63.0067
19.316	62.976
19.334	62.9454
19.352	62.9157
19.37	62.8866
19.388	62.8588
19.406	62.8323
19.424	62.8079
19.442	62.7854
19.46	62.7653
19.478	62.7474
19.496	62.7324
19.514	62.7203
19.532	62.7115
19.55	62.7058
19.568	62.7038
19.586	62.7059
19.604	62.712
19.622	62.7226
19.64	62.7376
19.658	62.7578
19.676	62.7829
19.694	62.8132
19.712	62.8487
19.73	62.8891
19.748	62.9347
19.766	62.9845
19.784	63.0387
19.802	63.0959
19.82	63.1558
19.838	63.2173
19.856	63.2787
19.874	63.3398
19.892	63.3981
19.91	63.4537
19.928	63.504
19.946	63.5492
19.964	63.5875
19.982	63.6184
20	63.6415
20.018	63.6561
20.036	63.6625
20.054	63.6606
20.072	63.6509
20.09	63.6345
20.108	63.6111
20.126	63.5832
20.144	63.5503
20.162	63.5146
20.18	63.4768
20.198	63.4377
20.216	63.399
20.234	63.3605
20.252	63.324
20.27	63.2891
20.288	63.2567
20.306	63.2269
20.324	63.1997
20.342	63.1754
20.36	63.1538
20.378	63.1346
20.396	63.1178
20.414	63.1033
20.432	63.091
20.45	63.081
20.468	63.0734
20.486	63.0683
20.504	63.0664
20.522	63.0675
20.54	63.0724
20.558	63.0812
20.576	63.0943
20.594	63.1121
20.612	63.1345
20.63	63.1619
20.648	63.1942
20.666	63.2307
20.684	63.2718
20.702	63.316
20.72	63.3628
20.738	63.4119
20.756	63.4606
20.774	63.5097
20.792	63.5562
20.81	63.5998
20.828	63.6395
20.846	63.673
20.864	63.7008
20.882	63.7211
20.9	63.7339
20.918	63.7388
20.936	63.7353
20.954	63.7238
20.972	63.7052
20.99	63.679
21.008	63.6468
21.026	63.609
21.044	63.566
21.062	63.5199
21.08	63.4702
21.098	63.4185
21.116	63.3654
21.134	63.311
21.152	63.2565
21.17	63.2017
21.188	63.147
21.206	63.0926
21.224	63.0384
21.242	62.9844
21.26	62.9307
21.278	62.8769
21.296	62.8232
21.314	62.7694
21.332	62.7155
21.35	62.6614
21.368	62.6077
21.386	62.5543
21.404	62.5016
21.422	62.4508
21.44	62.4016
21.458	62.3553
21.476	62.3122
21.494	62.2727
21.512	62.2387
21.53	62.2097
21.548	62.187
21.566	62.1717
21.584	62.1635
21.602	62.1639
21.62	62.173
21.638	62.1908
21.656	62.2178
21.674	62.2539
21.692	62.2984
21.71	62.3515
21.728	62.4125
21.746	62.4793
21.764	62.553
21.782	62.6309
21.8	62.7116
21.818	62.7955
21.836	62.8788
21.854	62.9616
21.872	63.0428
21.89	63.1189
21.908	63.1911
21.926	63.257
21.944	63.3148
21.962	63.3654
21.98	63.4069
21.998	63.439
22.016	63.462
22.034	63.4759
22.052	63.4802
22.07	63.4763
22.088	63.4649
22.106	63.4455
22.124	63.4209
22.142	63.3911
22.16	63.3567
22.178	63.3208
22.196	63.2826
22.214	63.2439
22.232	63.2073
22.25	63.1717
22.268	63.1392
22.286	63.1111
22.304	63.0867
22.322	63.0673
22.34	63.0532
22.358	63.0442
22.376	63.0402
22.394	63.0417
22.412	63.0479
22.43	63.0583
22.448	63.0734
22.466	63.0916
22.484	63.1119
22.502	63.1349
22.52	63.1582
22.538	63.181
22.556	63.2036
22.574	63.2237
22.592	63.241
22.61	63.2556
22.628	63.2654
22.646	63.2708
22.664	63.2714
22.682	63.2657
22.7	63.254
22.718	63.2361
22.736	63.2113
22.754	63.1798
22.772	63.1417
22.79	63.0967
22.808	63.0448
22.826	62.9869
22.844	62.9233
22.862	62.8536
22.88	62.7796
22.898	62.7016
22.916	62.6194
22.934	62.5354
22.952	62.45
22.97	62.3631
22.988	62.2773
23.006	62.1928
23.024	62.1095
23.042	62.0303
23.06	61.9552
23.078	61.8842
23.096	61.82
23.114	61.7624
23.132	61.7115
23.15	61.6693
23.168	61.6356
23.186	61.6104
23.204	61.5944
23.222	61.5878
23.24	61.5901
23.258	61.6012
23.276	61.6216
23.294	61.6504
23.312	61.6858
23.33	61.7285
23.348	61.7777
23.366	61.8313
23.384	61.8896
23.402	61.9522
23.42	62.0172
23.438	62.0846
23.456	62.1543
23.474	62.2247
23.492	62.2958
23.51	62.3676
23.528	62.4382
23.546	62.5068
23.564	62.5741
23.582	62.6397
23.6	62.7031
23.618	62.7646
23.636	62.8252
23.654	62.8852
23.672	62.9439
23.69	63.0035
23.708	63.0652
23.726	63.1277
23.744	63.193
23.762	63.2626
23.78	63.3352
23.798	63.4127
23.816	63.4973
23.834	63.5878
23.852	63.6853
23.87	63.7916
23.888	63.9064
23.906	64.0297
23.924	64.1621
23.942	64.3042
23.96	64.4554
23.978	64.6145
23.996	64.7817
24.014	64.9573
24.032	65.1383
24.05	65.3233
24.068	65.5143
24.086	65.707
24.104	65.8976
24.122	66.0889
24.14	66.2778
24.158	66.4597
24.176	66.6366
24.194	66.8071
24.212	66.9664
24.23	67.1144
24.248	67.252
24.266	67.375
24.284	67.481
24.302	67.5725
24.32	67.6464
24.338	67.6998
24.356	67.7339
24.374	67.7486
24.392	67.7428
24.41	67.7161
24.428	67.6693
24.446	67.6035
24.464	67.5188
24.482	67.4148
24.5	67.2931
24.518	67.1545
24.536	66.9975
24.554	66.8247
24.572	66.6397
24.59	66.4405
24.608	66.2284
24.626	66.0087
24.644	65.7829
24.662	65.5478
24.68	65.3108
24.698	65.0782
24.716	64.8452
24.734	64.6158
24.752	64.3976
24.77	64.1893
24.788	63.9898
24.806	63.8083
24.824	63.6508
24.842	63.5109
24.86	63.3951
24.878	63.3116
24.896	63.257
24.914	63.2321
24.932	63.2451
24.95	63.3
24.968	63.3918
24.986	63.5255
25.004	63.7068
25.022	63.9338
25.04	64.2061
25.058	64.5261
25.076	64.896
25.094	65.3148
25.112	65.7793
25.13	66.2868
25.148	66.8409
25.166	67.438
25.184	68.0706
25.202	68.7369
25.22	69.442
25.238	70.1754
25.256	70.9264
25.274	71.7024
25.292	72.4994
25.31	73.3037
25.328	74.1085
25.346	74.924
25.364	75.7379
25.382	76.5358
25.4	77.3227
25.418	78.0991
25.436	78.8516
25.454	79.5702
25.472	80.2651
25.49	80.9288
25.508	81.55
25.526	82.1271
25.544	82.6656
25.562	83.1574
25.58	83.5946
25.598	83.9817
25.616	84.3178
25.634	84.5978
25.652	84.8184
25.67	84.9832
25.688	85.0907
25.706	85.1386
25.724	85.1264
25.742	85.0556
25.76	84.9262
25.778	84.7377
25.796	84.4884
25.814	84.1811
25.832	83.82
25.85	83.4074
25.868	82.9395
25.886	82.4211
25.904	81.8583
25.922	81.2511
25.94	80.5963
25.958	79.9021
25.976	79.1766
25.994	78.4162
26.012	77.621
26.03	76.7988
26.048	75.9562
26.066	75.0866
26.084	74.1941
26.102	73.2869
26.12	72.3702
26.138	71.4374
26.156	70.4935
26.174	69.5452
26.192	68.5946
26.21	67.6373
26.228	66.6778
26.246	65.7208
26.264	64.7656
26.282	63.8103
26.3	62.8595
26.318	61.9175
26.336	60.9823
26.354	60.0535
26.372	59.1348
26.39	58.2293
26.408	57.3322
26.426	56.4464
26.444	55.5787
26.462	54.7344
26.48	53.9074
26.498	53.101
26.516	52.3216
26.534	51.5729
26.552	50.8461
26.57	50.1495
26.588	49.4944
26.606	48.887
26.624	48.3155
26.642	47.7897
26.66	47.3225
26.678	46.9195
26.696	46.568
26.714	46.2794
26.732	46.0674
26.75	45.9381
26.768	45.8795
26.786	45.9004
26.804	46.0112
26.822	46.2175
26.84	46.5117
26.858	46.8956
26.876	47.3721
26.894	47.9451
26.912	48.6155
26.93	49.374
26.948	50.2107
26.966	51.1803
26.984	52.379
27.002	53.5768
27.02	54.5236
27.028	54.7713