File: Bakgrunnsmateriale/MATLAB/FTIR/ftir_data/subAa/Mapping_121/BZ1503107-1_t101.asc
PE IR       SPECTRUM    SPECTRUM    ASCII       PEDS        1.60
  -1
BZC6B6~1.ASC
17/04/07
21:32:49.00
17/04/07
21:33:16.00
tln
$BZ1503107-1_t0101$<tbV0>[10.4,10.4,8.0,0.0,27,1,0]
27.028
64

2002,4.07
MIRTGS : RIGHTBACK : INTERNAL 2
MIR : ON : INTERNAL 2
OPTKBR

0.200000
8
8.000000
FILLER
RATIO
SPECTRUM
UNLOCKED 256

DOUBLE
64
COMBINED
1
0
0

0.002000
RATIO

1
0
TRUE
51149
0
LEFT NOT FITTED RIGHT NOT FITTED 0
NONE
NONE
15600
12
4.427000
51148
TRUE
1 0 8 72 0 0 0 0

15798

#HDR
-1
-1
#GR
µM
%T
2.38419e-05
0.0
2.000000
0.002000
12515
8
90.1425
30.9998
#DATA
2.000000	 64.2932
2.018000	 64.9875
2.036000	 64.2212
2.054000	 63.9709
2.072000	 64.2447
2.090000	 64.3943
2.108000	 64.7756
2.126000	 64.2932
2.144000	 64.5929
2.162000	 64.2074
2.180000	 63.8136
2.198000	 63.8152
2.216000	 63.4322
2.234000	 63.3619
2.252000	 90.1425
2.270000	 63.2408
2.288000	 63.4706
2.306000	 63.5394
2.324000	 63.6915
2.342000	 64.048
2.360000	 64.5059
2.378000	 64.2529
2.396000	 64.8461
2.414000	 64.4304
2.432000	 64.8162
2.450000	 64.614
2.468000	 64.4488
2.486000	 64.6522
2.504000	 64.5639
2.522000	 64.4675
2.540000	 64.445
2.558000	 64.4423
2.576000	 64.2515
2.594000	 64.6708
2.612000	 64.305
2.630000	 64.5097
2.648000	 64.6822
2.666000	 64.5612
2.684000	 64.5819
2.702000	 64.5808
2.720000	 64.6043
2.738000	 64.6888
2.756000	 64.6121
2.774000	 64.486
2.792000	 64.5181
2.810000	 64.51
2.828000	 64.3742
2.846000	 64.4621
2.864000	 64.7165
2.882000	 64.5485
2.900000	 64.3345
2.918000	 64.3783
2.936000	 64.4337
2.954000	 64.2745
2.972000	 64.3893
2.990000	 64.4452
3.008000	 64.2632
3.026000	 64.5578
3.044000	 64.4668
3.062000	 64.4222
3.080000	 64.4508
3.098000	 64.5034
3.116000	 64.3373
3.134000	 64.4048
3.152000	 64.5313
3.170000	 64.4485
3.188000	 64.3954
3.206000	 64.3549
3.224000	 64.58
3.242000	 64.3657
3.260000	 64.2696
3.278000	 64.5602
3.296000	 64.4496
3.314000	 64.3292
3.332000	 64.4588
3.350000	 64.3129
3.368000	 64.1299
3.386000	 64.1388
3.404000	 64.262
3.422000	 64.4101
3.440000	 64.3112
3.458000	 64.2159
3.476000	 64.291
3.494000	 64.2343
3.512000	 64.1516
3.530000	 64.3356
3.548000	 64.2664
3.566000	 64.3082
3.584000	 64.2769
3.602000	 64.3634
3.620000	 64.3761
3.638000	 64.3011
3.656000	 64.3271
3.674000	 64.3762
3.692000	 64.3156
3.710000	 64.3173
3.728000	 64.1329
3.746000	 64.2404
3.764000	 64.1489
3.782000	 64.4432
3.800000	 64.4098
3.818000	 64.214
3.836000	 64.1594
3.854000	 64.164
3.872000	 64.1836
3.890000	 64.2176
3.908000	 64.2625
3.926000	 64.1542
3.944000	 64.2783
3.962000	 64.0996
3.980000	 64.2162
3.998000	 64.1687
4.016000	 64.3032
4.034000	 64.0684
4.052000	 64.3149
4.070000	 64.2639
4.088000	 64.1304
4.106000	 64.1687
4.124000	 64.1941
4.141999	 64.0827
4.160000	 64.0746
4.178000	 64.1422
4.196000	 64.1993
4.214000	 64.1941
4.232000	 64.2281
4.250000	 64.0904
4.268000	 64.1437
4.286000	 64.1045
4.304000	 64.2527
4.322000	 64.1449
4.340000	 64.121
4.358000	 64.1215
4.375999	 64.0208
4.394000	 64.1176
4.412000	 64.11
4.430000	 64.0678
4.448000	 64.1083
4.466000	 64.0613
4.484000	 64.0862
4.502000	 64.0449
4.520000	 64.0832
4.538000	 64.0679
4.556000	 64.0365
4.574000	 64.0571
4.592000	 64.0592
4.609999	 64.0463
4.628000	 63.9293
4.646000	 63.9908
4.664000	 64.0634
4.682000	 64.0136
4.700000	 64.0039
4.718000	 63.9923
4.736000	 63.9579
4.754000	 63.9783
4.772000	 63.9773
4.790000	 63.9313
4.808000	 63.9466
4.826000	 63.8285
4.843999	 63.9199
4.862000	 63.9935
4.880000	 64.0187
4.898000	 63.9227
4.916000	 64.0441
4.934000	 63.9508
4.952000	 63.9929
4.970000	 64.0622
4.988000	 63.9597
5.006000	 63.9519
5.024000	 64.0049
5.042000	 63.9183
5.060000	 63.9479
5.077999	 63.9574
5.096000	 64.0282
5.114000	 63.9957
5.132000	 63.8932
5.150000	 63.8699
5.168000	 63.9557
5.186000	 63.881
5.204000	 63.8964
5.222000	 63.89
5.240000	 63.8746
5.258000	 63.8824
5.276000	 63.9278
5.294000	 63.9331
5.312000	 63.8943
5.330000	 63.8852
5.348000	 63.877
5.366000	 63.8507
5.384000	 63.9275
5.402000	 63.8988
5.420000	 63.8371
5.438000	 63.9866
5.456000	 63.9173
5.474000	 63.8078
5.492000	 63.8035
5.510000	 63.8874
5.528000	 63.9389
5.546000	 63.8876
5.564000	 63.8833
5.582000	 63.914
5.600000	 63.7918
5.618000	 63.7222
5.636000	 63.7549
5.654000	 63.7693
5.672000	 63.8024
5.690000	 63.7147
5.708000	 63.6033
5.726000	 63.6431
5.744000	 63.6476
5.762000	 63.5029
5.780000	 63.4354
5.798000	 63.5126
5.816000	 63.587
5.834000	 63.6114
5.852000	 63.6174
5.870000	 63.6327
5.888000	 63.6206
5.906000	 63.6465
5.923999	 63.6455
5.942000	 63.618
5.960000	 63.5942
5.978000	 63.6093
5.996000	 63.57
6.014000	 63.545
6.032000	 63.6029
6.050000	 63.6692
6.068000	 63.6826
6.086000	 63.6676
6.104000	 63.7108
6.122000	 63.6475
6.140000	 63.5318
6.158000	 63.5195
6.176000	 63.5439
6.194000	 63.5489
6.212000	 63.5819
6.230000	 63.6089
6.248000	 63.6476
6.266000	 63.6955
6.284000	 63.714
6.302000	 63.6522
6.320000	 63.533
6.338000	 63.4455
6.356000	 63.48
6.374000	 63.5444
6.392000	 63.5703
6.410000	 63.5033
6.428000	 63.4224
6.446000	 63.476
6.464000	 63.5512
6.482000	 63.5192
6.500000	 63.4456
6.518000	 63.4508
6.536000	 63.4736
6.554000	 63.4627
6.572000	 63.456
6.590000	 63.5048
6.608000	 63.5655
6.626000	 63.5565
6.644000	 63.5059
6.662000	 63.4757
6.680000	 63.5267
6.698000	 63.5982
6.716000	 63.5705
6.734000	 63.4783
6.752000	 63.4273
6.770000	 63.4949
6.788000	 63.5922
6.806000	 63.5742
6.824000	 63.5064
6.842000	 63.4642
6.860000	 63.4026
6.878000	 63.3454
6.896000	 63.3347
6.914000	 63.3327
6.932000	 63.3151
6.950000	 63.3112
6.968000	 63.329
6.986000	 63.3286
7.004000	 63.3324
7.022000	 63.3983
7.040000	 63.4831
7.058000	 63.4837
7.076000	 63.4109
7.094000	 63.3834
7.112000	 63.4292
7.130000	 63.4622
7.148000	 63.4277
7.166000	 63.3626
7.184000	 63.3542
7.202000	 63.4221
7.220000	 63.4792
7.238000	 63.4484
7.256000	 63.3393
7.274000	 63.2396
7.292000	 63.2486
7.310000	 63.335
7.328000	 63.3744
7.346000	 63.3348
7.364000	 63.275
7.382000	 63.2528
7.400000	 63.2964
7.418000	 63.3668
7.436000	 63.3951
7.454000	 63.3591
7.472000	 63.2947
7.490000	 63.2801
7.508000	 63.3408
7.526000	 63.3896
7.544000	 63.38
7.562000	 63.3698
7.580000	 63.3825
7.598000	 63.3891
7.616000	 63.3835
7.634000	 63.3536
7.652000	 63.292
7.670000	 63.2419
7.688000	 63.2305
7.706000	 63.2286
7.724000	 63.2169
7.742000	 63.1964
7.760000	 63.1705
7.778000	 63.1675
7.796000	 63.2107
7.814000	 63.2652
7.832000	 63.2763
7.850000	 63.2315
7.868000	 63.1603
7.886000	 63.11
7.904000	 63.1101
7.922000	 63.1395
7.940000	 63.1531
7.958000	 63.1398
7.976000	 63.13
7.994000	 63.1484
8.012000	 63.1826
8.030000	 63.2003
8.048000	 63.1803
8.065999	 63.1299
8.084000	 63.0815
8.102000	 63.0716
8.120000	 63.1122
8.138000	 63.185
8.155999	 63.2591
8.173999	 63.3039
8.192000	 63.3041
8.210000	 63.2796
8.228000	 63.2697
8.246000	 63.2807
8.263999	 63.2765
8.282000	 63.2339
8.300000	 63.1806
8.318000	 63.1563
8.336000	 63.1637
8.353999	 63.1771
8.372000	 63.1798
8.390000	 63.176
8.408000	 63.1712
8.426000	 63.1617
8.443999	 63.14
8.462000	 63.1051
8.480000	 63.0665
8.498000	 63.038
8.516000	 63.0192
8.533999	 62.9924
8.552000	 62.9464
8.570000	 62.9009
8.588000	 62.8899
8.606000	 62.926
8.624000	 62.9868
8.641999	 63.0391
8.660000	 63.0653
8.678000	 63.0707
8.696000	 63.0725
8.714000	 63.0854
8.731999	 63.1094
8.750000	 63.1284
8.768000	 63.1242
8.786000	 63.0928
8.804000	 63.0454
8.821999	 62.9973
8.840000	 62.9631
8.858000	 62.9601
8.876000	 63.0003
8.894000	 63.0685
8.911999	 63.12
8.930000	 63.1171
8.948000	 63.0657
8.966000	 63.0065
8.984000	 62.9692
9.001999	 62.9462
9.020000	 62.9176
9.038000	 62.8838
9.056000	 62.8672
9.074000	 62.8836
9.092000	 62.9246
9.109999	 62.9663
9.128000	 62.9889
9.146000	 62.9891
9.164000	 62.9785
9.182000	 62.9723
9.199999	 62.9749
9.218000	 62.972
9.236000	 62.9419
9.254000	 62.8792
9.272000	 62.806
9.289999	 62.7583
9.308000	 62.7576
9.326000	 62.7989
9.344000	 62.861
9.362000	 62.9231
9.379999	 62.9701
9.398000	 62.9894
9.416000	 62.973
9.434000	 62.9225
9.452000	 62.8503
9.469999	 62.7772
9.488000	 62.7275
9.506000	 62.7228
9.524000	 62.7734
9.542000	 62.8704
9.560000	 62.9858
9.577999	 63.0852
9.596000	 63.1456
9.614000	 63.1639
9.632000	 63.1517
9.650000	 63.1257
9.667999	 63.0989
9.686000	 63.0777
9.704000	 63.0626
9.722000	 63.0515
9.740000	 63.0433
9.757999	 63.0361
9.776000	 63.0269
9.794000	 63.0098
9.812000	 62.9812
9.830000	 62.9455
9.847999	 62.9161
9.866000	 62.9063
9.884000	 62.9172
9.902000	 62.9344
9.920000	 62.9376
9.937999	 62.9149
9.956000	 62.8724
9.974000	 62.829
9.992000	 62.8038
10.01	62.8055
10.028	62.8309
10.046	62.87
10.064	62.9136
10.082	62.957
10.1	62.999
10.118	63.0401
10.136	63.0779
10.154	63.107
10.172	63.1208
10.19	63.1164
10.208	63.0974
10.226	63.0726
10.244	63.052
10.262	63.0416
10.28	63.0414
10.298	63.0466
10.316	63.0505
10.334	63.0478
10.352	63.0354
10.37	63.0145
10.388	62.9911
10.406	62.9746
10.424	62.9738
10.442	62.991
10.46	63.0201
10.478	63.0477
10.496	63.0595
10.514	63.0481
10.532	63.0168
10.55	62.9774
10.568	62.9443
10.586	62.9271
10.604	62.9258
10.622	62.9335
10.64	62.9405
10.658	62.9408
10.676	62.9353
10.694	62.9299
10.712	62.9314
10.73	62.9427
10.748	62.9625
10.766	62.9864
10.784	63.0104
10.802	63.0319
10.82	63.0487
10.838	63.0571
10.856	63.0527
10.874	63.0322
10.892	62.9972
10.91	62.9561
10.928	62.9209
10.946	62.9021
10.964	62.9025
10.982	62.916
11	62.931
11.018	62.9367
11.036	62.9287
11.054	62.9105
11.072	62.8901
11.09	62.8759
11.108	62.8721
11.126	62.8779
11.144	62.8895
11.162	62.902
11.18	62.9121
11.198	62.9177
11.216	62.9175
11.234	62.9109
11.252	62.8983
11.27	62.8814
11.288	62.8642
11.306	62.8515
11.324	62.8488
11.342	62.8595
11.36	62.8841
11.378	62.9198
11.396	62.9617
11.414	63.0032
11.432	63.0385
11.45	63.0643
11.468	63.0798
11.486	63.0872
11.504	63.0904
11.522	63.0931
11.54	63.0972
11.558	63.1018
11.576	63.1052
11.594	63.1053
11.612	63.1014
11.63	63.0943
11.648	63.0851
11.666	63.0739
11.684	63.0594
11.702	63.0392
11.72	63.0115
11.738	62.9774
11.756	62.941
11.774	62.9087
11.792	62.8863
11.81	62.8763
11.828	62.8767
11.846	62.8828
11.864	62.8895
11.882	62.8939
11.9	62.8963
11.918	62.9001
11.936	62.9093
11.954	62.9271
11.972	62.9525
11.99	62.9805
12.008	63.0028
12.026	63.0105
12.044	62.9969
12.062	62.9615
12.08	62.9112
12.098	62.8578
12.116	62.8149
12.134	62.7929
12.152	62.7954
12.17	62.8183
12.188	62.8521
12.206	62.8858
12.224	62.911
12.242	62.9248
12.26	62.9297
12.278	62.9322
12.296	62.9383
12.314	62.9506
12.332	62.9661
12.35	62.9775
12.368	62.9746
12.386	62.9494
12.404	62.8988
12.422	62.827
12.44	62.7442
12.458	62.664
12.476	62.5996
12.494	62.5607
12.512	62.5507
12.53	62.5674
12.548	62.6044
12.566	62.6536
12.584	62.7077
12.602	62.761
12.62	62.8104
12.638	62.8547
12.656	62.8932
12.674	62.9254
12.692	62.9498
12.71	62.9644
12.728	62.9666
12.746	62.9545
12.764	62.9269
12.782	62.8844
12.8	62.8294
12.818	62.766
12.836	62.7
12.854	62.6377
12.872	62.5852
12.89	62.5472
12.908	62.5262
12.926	62.5217
12.944	62.531
12.962	62.5498
12.98	62.5733
12.998	62.5977
13.016	62.6204
13.034	62.6404
13.052	62.6573
13.07	62.6714
13.088	62.6827
13.106	62.6913
13.124	62.6962
13.142	62.6967
13.16	62.6926
13.178	62.6845
13.196	62.6739
13.214	62.6629
13.232	62.6539
13.25	62.6488
13.268	62.649
13.286	62.6544
13.304	62.6641
13.322	62.6766
13.34	62.6902
13.358	62.703
13.376	62.7138
13.394	62.7219
13.412	62.7276
13.43	62.7321
13.448	62.7372
13.466	62.7449
13.484	62.7569
13.502	62.7738
13.52	62.7948
13.538	62.8179
13.556	62.8397
13.574	62.8564
13.592	62.8646
13.61	62.8619
13.628	62.8473
13.646	62.8218
13.664	62.7877
13.682	62.7486
13.7	62.7087
13.718	62.6714
13.736	62.6397
13.754	62.6154
13.772	62.5992
13.79	62.5908
13.808	62.5896
13.826	62.5947
13.844	62.6052
13.862	62.6196
13.88	62.6368
13.898	62.6551
13.916	62.6726
13.934	62.6874
13.952	62.698
13.97	62.7031
13.988	62.702
14.006	62.6946
14.024	62.6814
14.042	62.6633
14.06	62.6415
14.078	62.6172
14.096	62.5916
14.114	62.566
14.132	62.5414
14.15	62.5189
14.168	62.4996
14.186	62.4847
14.204	62.4753
14.222	62.4723
14.24	62.476
14.258	62.4865
14.276	62.5033
14.294	62.5253
14.312	62.551
14.33	62.5786
14.348	62.6064
14.366	62.6325
14.384	62.6555
14.402	62.6743
14.42	62.6883
14.438	62.6968
14.456	62.6998
14.474	62.6974
14.492	62.6899
14.51	62.6779
14.528	62.6621
14.546	62.6435
14.564	62.6228
14.582	62.601
14.6	62.5789
14.618	62.5571
14.636	62.536
14.654	62.5158
14.672	62.4964
14.69	62.4779
14.708	62.4602
14.726	62.4433
14.744	62.4277
14.762	62.4139
14.78	62.403
14.798	62.3958
14.816	62.3932
14.834	62.3961
14.852	62.4048
14.87	62.4191
14.888	62.438
14.906	62.46
14.924	62.4833
14.942	62.5051
14.96	62.523
14.978	62.5346
14.996	62.5382
15.014	62.5324
15.032	62.5163
15.05	62.4905
15.068	62.4561
15.086	62.415
15.104	62.3694
15.122	62.3223
15.14	62.2769
15.158	62.2359
15.176	62.2018
15.194	62.1769
15.212	62.1627
15.23	62.1596
15.248	62.1676
15.266	62.1862
15.284	62.2136
15.302	62.2477
15.32	62.2861
15.338	62.3266
15.356	62.3669
15.374	62.405
15.392	62.4398
15.41	62.4708
15.428	62.4977
15.446	62.5213
15.464	62.5425
15.482	62.5626
15.5	62.5827
15.518	62.6037
15.536	62.6256
15.554	62.6482
15.572	62.671
15.59	62.6923
15.608	62.7104
15.626	62.7235
15.644	62.7295
15.662	62.7271
15.68	62.7156
15.698	62.6948
15.716	62.6651
15.734	62.6279
15.752	62.5847
15.77	62.5369
15.788	62.4866
15.806	62.4348
15.824	62.3824
15.842	62.3297
15.86	62.2768
15.878	62.2231
15.896	62.1681
15.914	62.1115
15.932	62.0534
15.95	61.9943
15.968	61.9354
15.986	61.879
16.004	61.8272
16.022	61.7825
16.04	61.7479
16.058	61.7255
16.076	61.7168
16.094	61.7232
16.112	61.7445
16.13	61.7801
16.148	61.8282
16.166	61.8862
16.184	61.952
16.202	62.0232
16.22	62.0968
16.238	62.1712
16.256	62.2448
16.274	62.3158
16.292	62.3832
16.31	62.4461
16.328	62.5033
16.346	62.5538
16.364	62.5968
16.382	62.6308
16.4	62.6548
16.418	62.668
16.436	62.6694
16.454	62.6589
16.472	62.6368
16.49	62.6039
16.508	62.562
16.526	62.5124
16.544	62.4584
16.562	62.4027
16.58	62.3475
16.598	62.2966
16.616	62.2515
16.634	62.214
16.652	62.1861
16.67	62.168
16.688	62.1601
16.706	62.1617
16.724	62.1714
16.742	62.1879
16.76	62.2085
16.778	62.2317
16.796	62.2548
16.814	62.2751
16.832	62.2911
16.85	62.3002
16.868	62.301
16.886	62.2924
16.904	62.274
16.922	62.2465
16.94	62.2106
16.958	62.1693
16.976	62.1241
16.994	62.0789
17.012	62.0366
17.03	61.9993
17.048	61.9711
17.066	61.9526
17.084	61.9454
17.102	61.9486
17.12	61.9618
17.138	61.9822
17.156	62.007
17.174	62.034
17.192	62.0584
17.21	62.0786
17.228	62.091
17.246	62.0947
17.264	62.0884
17.282	62.073
17.3	62.0495
17.318	62.0205
17.336	61.9899
17.354	61.9599
17.372	61.9361
17.39	61.9201
17.408	61.9159
17.426	61.9251
17.444	61.9491
17.462	61.9876
17.48	62.0397
17.498	62.1035
17.516	62.1754
17.534	62.2531
17.552	62.3307
17.57	62.4065
17.588	62.4742
17.606	62.5321
17.624	62.5765
17.642	62.6056
17.66	62.6181
17.678	62.6135
17.696	62.5924
17.714	62.5558
17.732	62.5058
17.75	62.444
17.768	62.374
17.786	62.297
17.804	62.2173
17.822	62.1358
17.84	62.0558
17.858	61.9781
17.876	61.9047
17.894	61.8363
17.912	61.7732
17.93	61.716
17.948	61.6646
17.966	61.6188
17.984	61.5786
18.002	61.5437
18.02	61.5146
18.038	61.4914
18.056	61.4752
18.074	61.4663
18.092	61.467
18.11	61.4777
18.128	61.5012
18.146	61.5378
18.164	61.5897
18.182	61.6569
18.2	61.74
18.218	61.8374
18.236	61.9488
18.254	62.0693
18.272	62.1983
18.29	62.3279
18.308	62.4568
18.326	62.5758
18.344	62.6834
18.362	62.7709
18.38	62.8372
18.398	62.876
18.416	62.8875
18.434	62.8691
18.452	62.8231
18.47	62.7495
18.488	62.6541
18.506	62.5382
18.524	62.4107
18.542	62.2728
18.56	62.1349
18.578	61.9982
18.596	61.872
18.614	61.7568
18.632	61.6597
18.65	61.5807
18.668	61.5226
18.686	61.4849
18.704	61.4663
18.722	61.4658
18.74	61.4792
18.758	61.5052
18.776	61.5387
18.794	61.5784
18.812	61.6193
18.83	61.6604
18.848	61.6977
18.866	61.7311
18.884	61.7585
18.902	61.7808
18.92	61.7975
18.938	61.81
18.956	61.8196
18.974	61.8276
18.992	61.8359
19.01	61.8451
19.028	61.8571
19.046	61.8714
19.064	61.8887
19.082	61.9081
19.1	61.9291
19.118	61.9506
19.136	61.971
19.154	61.9894
19.172	62.0034
19.19	62.0127
19.208	62.0149
19.226	62.0105
19.244	61.9987
19.262	61.9801
19.28	61.9559
19.298	61.9265
19.316	61.8954
19.334	61.8624
19.352	61.8318
19.37	61.8035
19.388	61.7816
19.406	61.7661
19.424	61.759
19.442	61.7606
19.46	61.7708
19.478	61.7904
19.496	61.8162
19.514	61.8482
19.532	61.8828
19.55	61.9189
19.568	61.9526
19.586	61.9799
19.604	61.9993
19.622	62.0052
19.64	61.9975
19.658	61.9701
19.676	61.9239
19.694	61.8551
19.712	61.764
19.73	61.6506
19.748	61.5142
19.766	61.3581
19.784	61.1816
19.802	60.9899
19.82	60.7849
19.838	60.5705
19.856	60.3524
19.874	60.1319
19.892	59.9187
19.91	59.7117
19.928	59.5215
19.946	59.3469
19.964	59.1967
19.982	59.0714
20	58.9751
20.018	58.9107
20.036	58.8782
20.054	58.8806
20.072	58.9168
20.09	58.9866
20.108	59.09
20.126	59.2226
20.144	59.3853
20.162	59.5715
20.18	59.7799
20.198	60.0062
20.216	60.2438
20.234	60.4926
20.252	60.7425
20.27	60.9953
20.288	61.2408
20.306	61.4789
20.324	61.7041
20.342	61.9124
20.36	62.1034
20.378	62.2713
20.396	62.4175
20.414	62.539
20.432	62.6356
20.45	62.7083
20.468	62.7564
20.486	62.7818
20.504	62.7867
20.522	62.771
20.54	62.7402
20.558	62.6933
20.576	62.6354
20.594	62.5681
20.612	62.4931
20.63	62.4162
20.648	62.3361
20.666	62.2583
20.684	62.1822
20.702	62.1108
20.72	62.0462
20.738	61.988
20.756	61.9382
20.774	61.8962
20.792	61.8627
20.81	61.8382
20.828	61.8216
20.846	61.8122
20.864	61.81
20.882	61.8132
20.9	61.822
20.918	61.8346
20.936	61.8496
20.954	61.8671
20.972	61.8843
20.99	61.902
21.008	61.918
21.026	61.9316
21.044	61.9426
21.062	61.9491
21.08	61.9517
21.098	61.9492
21.116	61.9413
21.134	61.9281
21.152	61.9093
21.17	61.8848
21.188	61.8551
21.206	61.8201
21.224	61.7802
21.242	61.7361
21.26	61.6875
21.278	61.636
21.296	61.5815
21.314	61.5248
21.332	61.4674
21.35	61.4089
21.368	61.351
21.386	61.294
21.404	61.2383
21.422	61.1855
21.44	61.135
21.458	61.0883
21.476	61.0458
21.494	61.0074
21.512	60.9745
21.53	60.9466
21.548	60.9246
21.566	60.9089
21.584	60.8995
21.602	60.8969
21.62	60.9013
21.638	60.9125
21.656	60.9307
21.674	60.9557
21.692	60.987
21.71	61.0245
21.728	61.0677
21.746	61.1156
21.764	61.1686
21.782	61.2251
21.8	61.2839
21.818	61.3454
21.836	61.4065
21.854	61.4675
21.872	61.5271
21.89	61.5823
21.908	61.6343
21.926	61.6804
21.944	61.7188
21.962	61.7504
21.98	61.7726
21.998	61.7852
22.016	61.7883
22.034	61.7811
22.052	61.7634
22.07	61.7362
22.088	61.6998
22.106	61.6539
22.124	61.601
22.142	61.5409
22.16	61.4744
22.178	61.4051
22.196	61.3316
22.214	61.2565
22.232	61.1831
22.25	61.1097
22.268	61.0396
22.286	60.9743
22.304	60.9131
22.322	60.8582
22.34	60.8102
22.358	60.7686
22.376	60.734
22.394	60.7067
22.412	60.6859
22.43	60.6706
22.448	60.6615
22.466	60.6571
22.484	60.656
22.502	60.6591
22.52	60.6645
22.538	60.6714
22.556	60.6804
22.574	60.6902
22.592	60.7003
22.61	60.7111
22.628	60.7225
22.646	60.7341
22.664	60.7466
22.682	60.7609
22.7	60.7764
22.718	60.7944
22.736	60.8161
22.754	60.8408
22.772	60.8699
22.79	60.9047
22.808	60.9445
22.826	60.99
22.844	61.042
22.862	61.1003
22.88	61.164
22.898	61.2331
22.916	61.3077
22.934	61.3855
22.952	61.4661
22.97	61.5497
22.988	61.633
23.006	61.7157
23.024	61.7979
23.042	61.876
23.06	61.95
23.078	62.0199
23.096	62.0823
23.114	62.1371
23.132	62.1847
23.15	62.2235
23.168	62.2531
23.186	62.2743
23.204	62.2872
23.222	62.291
23.24	62.2871
23.258	62.278
23.276	62.2625
23.294	62.2423
23.312	62.2218
23.33	62.1999
23.348	62.1779
23.366	62.1609
23.384	62.1483
23.402	62.1405
23.42	62.1419
23.438	62.1525
23.456	62.1721
23.474	62.2028
23.492	62.2454
23.51	62.2991
23.528	62.3639
23.546	62.4409
23.564	62.5292
23.582	62.6259
23.6	62.7308
23.618	62.8446
23.636	62.962
23.654	63.0811
23.672	63.2041
23.69	63.3249
23.708	63.4397
23.726	63.5517
23.744	63.6559
23.762	63.7479
23.78	63.8306
23.798	63.9007
23.816	63.9539
23.834	63.9919
23.852	64.0138
23.87	64.0169
23.888	64.0012
23.906	63.9677
23.924	63.9164
23.942	63.8463
23.96	63.7586
23.978	63.6564
23.996	63.5401
24.014	63.4088
24.032	63.2672
24.05	63.1175
24.068	62.9572
24.086	62.7913
24.104	62.6243
24.122	62.4527
24.14	62.2807
24.158	62.1148
24.176	61.9522
24.194	61.7948
24.212	61.6491
24.23	61.5161
24.248	61.3939
24.266	61.2874
24.284	61.1994
24.302	61.1272
24.32	61.0734
24.338	61.0406
24.356	61.0272
24.374	61.034
24.392	61.0631
24.41	61.1147
24.428	61.1878
24.446	61.282
24.464	61.3975
24.482	61.5346
24.5	61.6908
24.518	61.8647
24.536	62.0587
24.554	62.269
24.572	62.4902
24.59	62.7252
24.608	62.9722
24.626	63.2237
24.644	63.4776
24.662	63.7379
24.68	63.9961
24.698	64.2445
24.716	64.4896
24.734	64.7256
24.752	64.9424
24.77	65.1405
24.788	65.3222
24.806	65.4788
24.824	65.6045
24.842	65.7041
24.86	65.7746
24.878	65.8119
24.896	65.8162
24.914	65.7886
24.932	65.7286
24.95	65.6351
24.968	65.508
24.986	65.3505
25.004	65.1659
25.022	64.9512
25.04	64.7091
25.058	64.4454
25.076	64.1621
25.094	63.8555
25.112	63.5325
25.13	63.1997
25.148	62.8531
25.166	62.4949
25.184	62.1322
25.202	61.768
25.22	61.3978
25.238	61.0273
25.256	60.6627
25.274	60.3019
25.292	59.9447
25.31	59.595
25.328	59.2551
25.346	58.9231
25.364	58.5994
25.382	58.2851
25.4	57.9804
25.418	57.6847
25.436	57.3976
25.454	57.119
25.472	56.8494
25.49	56.5879
25.508	56.3335
25.526	56.0863
25.544	55.8468
25.562	55.6131
25.58	55.3832
25.598	55.1588
25.616	54.9389
25.634	54.7209
25.652	54.504
25.67	54.2911
25.688	54.0776
25.706	53.8585
25.724	53.6347
25.742	53.4079
25.76	53.1719
25.778	52.9213
25.796	52.6603
25.814	52.3871
25.832	52.0961
25.85	51.7836
25.868	51.4533
25.886	51.1034
25.904	50.7314
25.922	50.3356
25.94	49.9176
25.958	49.4787
25.976	49.0205
25.994	48.5397
26.012	48.0384
26.03	47.5229
26.048	46.9985
26.066	46.4577
26.084	45.9065
26.102	45.3552
26.12	44.8093
26.138	44.2591
26.156	43.7142
26.174	43.1866
26.192	42.6791
26.21	42.1831
26.228	41.7095
26.246	41.2697
26.264	40.8637
26.282	40.4863
26.3	40.1445
26.318	39.8449
26.336	39.5862
26.354	39.3664
26.372	39.1872
26.39	39.0504
26.408	38.9592
26.426	38.909
26.444	38.8931
26.462	38.9067
26.48	38.9589
26.498	39.0417
26.516	39.1423
26.534	39.2526
26.552	39.387
26.57	39.5331
26.588	39.6732
26.606	39.798
26.624	39.9261
26.642	40.0405
26.66	40.1198
26.678	40.1521
26.696	40.1551
26.714	40.1177
26.732	40.0254
26.75	39.871
26.768	39.6659
26.786	39.4036
26.804	39.0763
26.822	38.6763
26.84	38.2051
26.858	37.6737
26.876	37.0935
26.894	36.4645
26.912	35.771
26.93	35.0387
26.948	34.296
26.966	33.5255
26.984	32.658
27.002	31.8255
27.02	31.1738
27.028	30.9998