File: Bakgrunnsmateriale/MATLAB/FTIR/ftir_data/subAa/Mapping_121/BZ1503107-1_t41_cm-1.asc
PE IR       SPECTRUM    SPECTRUM    ASCII       PEDS        1.60
  -1
BZ6924~1.ASC
17/04/07
16:33:37.00
17/04/07
16:33:37.00
tln
$BZ1503107-1_t0041$<tbV0>[-5.2,-5.2,8.0,0.0,27,1,0]
370
64

2002,4.07
MIRTGS : RIGHTBACK : INTERNAL 2
MIR : ON : INTERNAL 2
OPTKBR

0.200000
8
8.000000
FILLER
RATIO
SPECTRUM
UNLOCKED 256

DOUBLE
64
COMBINED
1
0
0

1.000000
RATIO

1
0
TRUE
51149
0
LEFT NOT FITTED RIGHT NOT FITTED 0
NONE
NONE
15600
12
4.427000
51148
TRUE
1 0 8 72 0 0 0 0

15798

#HDR
-1
-1
#GR
CM-1
%T
2.38419e-05
0.0
5000
-1.000000
4631
8
81.2141
37.7527
#DATA
5000	65.3207
4996	64.8471
4992	64.6918
4988	64.8765
4984	64.997
4980	64.9089
4976	64.7673
4972	64.5432
4968	64.1978
4964	64.1297
4960	64.2483
4956	64.3064
4952	64.3157
4948	64.1488
4944	64.0513
4940	64.2438
4936	64.2094
4932	64.1351
4928	64.7403
4924	65.3682
4920	65.0492
4916	64.4248
4912	64.7192
4908	65.3376
4904	65.1902
4900	64.8112
4896	64.7409
4892	64.7615
4888	64.7058
4884	64.6954
4880	64.93
4876	65.2366
4872	65.2056
4868	64.9797
4864	65
4860	65.0308
4856	64.884
4852	64.7626
4848	64.7476
4844	64.8721
4840	64.9911
4836	65.0191
4832	64.9751
4828	64.8656
4824	64.8137
4820	64.8976
4816	65.0914
4812	65.2503
4808	65.1589
4804	64.9799
4800	65.0021
4796	64.9721
4792	64.7664
4788	64.5918
4784	64.6374
4780	64.8852
4776	65.0182
4772	64.9469
4768	64.9347
4764	65.2141
4760	65.4873
4756	65.537
4752	65.4036
4748	64.9836
4744	64.7284
4740	65.059
4736	65.4168
4732	65.42
4728	65.2776
4724	65.0409
4720	65.0278
4716	65.3208
4712	65.6068
4708	65.7663
4704	65.5219
4700	65.0787
4696	65.0321
4692	65.0597
4688	64.857
4684	64.9001
4680	65.0063
4676	64.9434
4672	64.8893
4668	64.79
4664	64.8159
4660	64.8639
4656	64.7902
4652	64.8202
4648	65.0697
4644	65.3425
4640	65.279
4636	65.0313
4632	64.9042
4628	64.8861
4624	64.95
4620	64.9841
4616	64.9592
4612	64.9665
4608	64.894
4604	64.68
4600	64.5094
4596	64.6051
4592	64.8902
4588	64.8978
4584	64.6686
4580	64.7906
4576	65.113
4572	65.108
4568	64.9637
4564	65.0149
4560	65.1163
4556	64.9887
4552	64.756
4548	64.7935
4544	65.0717
4540	65.0177
4536	64.6057
4532	64.3912
4528	64.4982
4524	64.7328
4520	64.9441
4516	65.0042
4512	64.8933
4508	64.7353
4504	64.6114
4500	64.6161
4496	64.7331
4492	64.794
4488	64.934
4484	65.1199
4480	64.8768
4476	64.4178
4472	64.3037
4468	64.3003
4464	64.2625
4460	64.5285
4456	64.7126
4452	64.9877
4448	65.3563
4444	65.2881
4440	65.6731
4436	66.8021
4432	68.7547
4428	74.2862
4424	70.2747
4420	50.235
4416	53.4275
4412	75.9218
4408	79.9884
4404	70.6595
4400	66.5935
4396	66.2308
4392	65.7502
4388	64.9165
4384	64.8224
4380	64.9502
4376	64.763
4372	64.5831
4368	64.3863
4364	64.3615
4360	64.6148
4356	64.7785
4352	64.8409
4348	64.9612
4344	65.0531
4340	65.176
4336	65.2474
4332	65.1153
4328	64.9611
4324	64.865
4320	64.8422
4316	64.9556
4312	65.0413
4308	65.0248
4304	65.0691
4300	64.979
4296	64.8184
4292	64.8905
4288	65.1103
4284	65.3052
4280	65.3104
4276	65.1852
4272	65.0884
4268	64.9569
4264	64.9418
4260	65.056
4256	64.941
4252	64.7435
4248	64.7284
4244	64.7638
4240	64.7534
4236	64.7888
4232	64.9042
4228	64.9841
4224	65.0263
4220	65.0526
4216	65.0333
4212	65.0599
4208	65.2796
4204	65.5008
4200	65.3631
4196	65.0856
4192	64.9325
4188	64.8984
4184	65.1345
4180	65.4056
4176	65.3557
4172	65.1473
4168	65.1486
4164	65.3821
4160	65.4068
4156	65.1855
4152	65.099
4148	65.1767
4144	65.2625
4140	65.2089
4136	65.0699
4132	64.9918
4128	65.0416
4124	65.168
4120	65.2389
4116	65.2582
4112	65.2734
4108	65.2912
4104	65.2291
4100	65.1068
4096	65.056
4092	65.0994
4088	65.1515
4084	65.1195
4080	65.1395
4076	65.2742
4072	65.2487
4068	65.046
4064	64.8899
4060	64.8707
4056	65.0061
4052	65.169
4048	65.2177
4044	65.158
4040	65.0778
4036	65.0606
4032	65.0476
4028	65.0251
4024	65.1234
4020	65.2451
4016	65.2391
4012	65.2251
4008	65.2462
4004	65.192
4000	65.131
3996	65.1869
3992	65.2771
3988	65.2394
3984	65.0498
3980	65.0058
3976	65.1572
3972	65.1197
3968	65.058
3964	65.2543
3960	65.3727
3956	65.2547
3952	65.1486
3948	65.1843
3944	65.285
3940	65.2881
3936	65.1916
3932	65.0779
3928	64.9383
3924	64.8733
3920	64.93
3916	65.0024
3912	65.105
3908	65.1859
3904	65.1559
3900	65.1799
3896	65.2682
3892	65.2283
3888	65.0508
3884	64.9311
3880	64.9997
3876	65.1106
3872	65.2043
3868	65.2891
3864	65.2296
3860	65.1541
3856	65.2451
3852	65.3157
3848	65.2256
3844	65.1515
3840	65.1108
3836	65.046
3832	65.0969
3828	65.1551
3824	65.1268
3820	65.1366
3816	65.1422
3812	65.0912
3808	65.1203
3804	65.2649
3800	65.3702
3796	65.3458
3792	65.2498
3788	65.1977
3784	65.1984
3780	65.2235
3776	65.2443
3772	65.1956
3768	65.1229
3764	65.1822
3760	65.2313
3756	65.1206
3752	65.0889
3748	65.2224
3744	65.3432
3740	65.3246
3736	65.1896
3732	65.0655
3728	65.0254
3724	65.1175
3720	65.2409
3716	65.2573
3712	65.2673
3708	65.2333
3704	65.1882
3700	65.3308
3696	65.4532
3692	65.3824
3688	65.2525
3684	65.1888
3680	65.2257
3676	65.2769
3672	65.2892
3668	65.3252
3664	65.361
3660	65.2936
3656	65.2396
3652	65.3278
3648	65.3785
3644	65.2842
3640	65.1636
3636	65.1609
3632	65.3213
3628	65.4204
3624	65.3847
3620	65.3532
3616	65.2766
3612	65.2033
3608	65.2387
3604	65.2222
3600	65.1286
3596	65.1988
3592	65.3702
3588	65.4028
3584	65.2849
3580	65.0974
3576	64.9616
3572	64.9512
3568	64.9718
3564	64.9837
3560	65.0579
3556	65.127
3552	65.067
3548	64.979
3544	65.0301
3540	65.1281
3536	65.1414
3532	65.1663
3528	65.208
3524	65.2315
3520	65.3094
3516	65.364
3512	65.3481
3508	65.3089
3504	65.2515
3500	65.178
3496	65.0989
3492	65.046
3488	65.0191
3484	65.0577
3480	65.1407
3476	65.156
3472	65.1132
3468	65.1009
3464	65.1013
3460	65.131
3456	65.2496
3452	65.2849
3448	65.1125
3444	64.9479
3440	64.971
3436	65.0759
3432	65.1804
3428	65.3656
3424	65.6064
3420	65.6592
3416	65.4639
3412	65.317
3408	65.3154
3404	65.3019
3400	65.2854
3396	65.3641
3392	65.4514
3388	65.4497
3384	65.3943
3380	65.3023
3376	65.2084
3372	65.1135
3368	65.0864
3364	65.1635
3360	65.1994
3356	65.2223
3352	65.2839
3348	65.3142
3344	65.3299
3340	65.3563
3336	65.3242
3332	65.1914
3328	65.1017
3324	65.1125
3320	65.0377
3316	64.9198
3312	64.977
3308	65.0944
3304	65.0892
3300	65.0824
3296	65.1269
3292	65.1082
3288	65.0805
3284	65.1145
3280	65.1205
3276	65.1135
3272	65.1397
3268	65.1805
3264	65.2342
3260	65.215
3256	65.1521
3252	65.1465
3248	65.1885
3244	65.2559
3240	65.2388
3236	65.1242
3232	65.0712
3228	65.1203
3224	65.1592
3220	65.167
3216	65.1364
3212	65.0503
3208	65.003
3204	64.9641
3200	64.9762
3196	65.0926
3192	65.2033
3188	65.2114
3184	65.083
3180	65.0238
3176	65.1433
3172	65.2176
3168	65.1404
3164	65.0724
3160	65.1287
3156	65.2215
3152	65.2322
3148	65.1564
3144	65.116
3140	65.1065
3136	64.9947
3132	64.9732
3128	65.089
3124	65.0863
3120	65.0583
3116	65.1051
3112	65.1066
3108	65.04
3104	65.0628
3100	65.2127
3096	65.2716
3092	65.1539
3088	64.9972
3084	64.9837
3080	65.1012
3076	65.1506
3072	65.0845
3068	65.0619
3064	65.1633
3060	65.2139
3056	65.1414
3052	65.0946
3048	65.0606
3044	65.0229
3040	64.9918
3036	64.9117
3032	64.9108
3028	64.9919
3024	65.017
3020	65.0299
3016	65.0855
3012	65.1261
3008	65.0811
3004	64.9957
3000	64.9863
2996	65.0312
2992	65.05
2988	65.0688
2984	65.1018
2980	65.1085
2976	65.0872
2972	65.0285
2968	64.9072
2964	64.8474
2960	64.9547
2956	65.0739
2952	65.0685
2948	65.0048
2944	64.9856
2940	65.0017
2936	64.9656
2932	64.928
2928	65.0166
2924	65.157
2920	65.154
2916	65.019
2912	64.9735
2908	65.0203
2904	65.0365
2900	65.0629
2896	65.1132
2892	65.1043
2888	65.0729
2884	65.0833
2880	65.0985
2876	65.0989
2872	65.134
2868	65.1589
2864	65.1065
2860	65.0361
2856	64.9877
2852	64.9681
2848	64.9563
2844	64.9595
2840	65.0309
2836	65.0762
2832	65.0239
2828	64.998
2824	64.9776
2820	64.9163
2816	64.9229
2812	64.965
2808	65.0075
2804	65.0562
2800	65.1099
2796	65.1704
2792	65.1545
2788	65.0947
2784	65.0539
2780	65.0579
2776	65.1547
2772	65.2303
2768	65.2011
2764	65.1608
2760	65.1575
2756	65.1577
2752	65.1194
2748	65.0816
2744	65.0721
2740	65.0315
2736	65.0016
2732	65.0316
2728	65.0885
2724	65.1477
2720	65.1544
2716	65.0797
2712	64.9965
2708	64.9906
2704	65.0593
2700	65.1239
2696	65.1431
2692	65.1251
2688	65.098
2684	65.0719
2680	65.0298
2676	64.9981
2672	64.9981
2668	64.9893
2664	64.9758
2660	65.0291
2656	65.0837
2652	65.0862
2648	65.0942
2644	65.0834
2640	65.0201
2636	64.9309
2632	64.9074
2628	65.0002
2624	65.093
2620	65.0742
2616	65.0065
2612	64.9715
2608	64.9265
2604	64.9196
2600	64.9836
2596	64.9829
2592	64.971
2588	65.0263
2584	65.0622
2580	64.9959
2576	64.9111
2572	64.9687
2568	65.0388
2564	65.0337
2560	65.0631
2556	65.0816
2552	65.0263
2548	64.9783
2544	65.0177
2540	65.0661
2536	65.046
2532	65.0171
2528	64.9999
2524	64.9752
2520	64.9647
2516	64.9829
2512	65.0048
2508	64.9998
2504	65.0113
2500	65.0248
2496	64.9721
2492	64.9367
2488	64.9516
2484	64.9676
2480	64.9992
2476	65.0018
2472	64.9457
2468	64.928
2464	64.9883
2460	64.9917
2456	64.8979
2452	64.8726
2448	64.913
2444	64.9121
2440	64.9155
2436	64.8969
2432	64.8771
2428	64.9393
2424	64.9693
2420	64.9153
2416	64.8882
2412	64.9345
2408	65.0025
2404	64.9886
2400	64.9192
2396	64.9506
2392	65.0271
2388	65.0153
2384	64.9777
2380	64.9355
2376	64.8448
2372	64.7753
2368	64.8068
2364	64.9046
2360	64.9768
2356	64.9771
2352	64.9636
2348	64.9963
2344	65.0281
2340	65.0282
2336	65.0054
2332	64.9868
2328	65.0067
2324	65.0357
2320	65.024
2316	64.9741
2312	64.9356
2308	64.9295
2304	64.9213
2300	64.8838
2296	64.8638
2292	64.8638
2288	64.875
2284	64.8922
2280	64.8713
2276	64.8625
2272	64.8535
2268	64.7699
2264	64.6954
2260	64.7197
2256	64.7795
2252	64.8049
2248	64.7703
2244	64.7193
2240	64.7626
2236	64.8664
2232	64.9093
2228	64.8883
2224	64.8742
2220	64.8703
2216	64.8444
2212	64.8417
2208	64.8761
2204	64.9169
2200	64.9751
2196	64.9781
2192	64.9193
2188	64.9161
2184	64.9031
2180	64.8052
2176	64.716
2172	64.7022
2168	64.7444
2164	64.8218
2160	64.8881
2156	64.8401
2152	64.7494
2148	64.7422
2144	64.7927
2140	64.8158
2136	64.817
2132	64.8315
2128	64.8575
2124	64.8846
2120	64.8561
2116	64.814
2112	64.8278
2108	64.8431
2104	64.8264
2100	64.8041
2096	64.7931
2092	64.7906
2088	64.7861
2084	64.7466
2080	64.7074
2076	64.7237
2072	64.7755
2068	64.7979
2064	64.7287
2060	64.6979
2056	64.7639
2052	64.7696
2048	64.7334
2044	64.7199
2040	64.7177
2036	64.7197
2032	64.7436
2028	64.8319
2024	64.9003
2020	64.8702
2016	64.8334
2012	64.8447
2008	64.8702
2004	64.8812
2000	64.8331
1996	64.733
1992	64.6832
1988	64.7324
1984	64.7834
1980	64.7791
1976	64.7632
1972	64.7837
1968	64.8283
1964	64.7978
1960	64.7064
1956	64.6886
1952	64.7529
1948	64.7771
1944	64.7507
1940	64.7419
1936	64.7094
1932	64.6803
1928	64.7353
1924	64.774
1920	64.7016
1916	64.6241
1912	64.6279
1908	64.6374
1904	64.6204
1900	64.6126
1896	64.6058
1892	64.646
1888	64.7281
1884	64.7503
1880	64.7405
1876	64.7443
1872	64.7114
1868	64.6929
1864	64.693
1860	64.6455
1856	64.6329
1852	64.6709
1848	64.6908
1844	64.6796
1840	64.6379
1836	64.6361
1832	64.6652
1828	64.6555
1824	64.617
1820	64.5915
1816	64.6298
1812	64.655
1808	64.6268
1804	64.6519
1800	64.695
1796	64.673
1792	64.6232
1788	64.578
1784	64.5439
1780	64.5643
1776	64.6161
1772	64.6308
1768	64.6456
1764	64.6554
1760	64.5846
1756	64.4586
1752	64.4015
1748	64.4224
1744	64.4016
1740	64.3408
1736	64.3128
1732	64.3361
1728	64.39
1724	64.4397
1720	64.4893
1716	64.5175
1712	64.4996
1708	64.5029
1704	64.5425
1700	64.5314
1696	64.4714
1692	64.475
1688	64.5039
1684	64.4351
1680	64.3925
1676	64.4526
1672	64.4811
1668	64.4843
1664	64.5002
1660	64.4872
1656	64.4698
1652	64.4771
1648	64.4742
1644	64.4262
1640	64.4058
1636	64.4286
1632	64.4049
1628	64.3603
1624	64.3393
1620	64.312
1616	64.3028
1612	64.3544
1608	64.4003
1604	64.4127
1600	64.4295
1596	64.4191
1592	64.362
1588	64.3165
1584	64.3109
1580	64.2679
1576	64.2044
1572	64.2179
1568	64.294
1564	64.3848
1560	64.4149
1556	64.4017
1552	64.3925
1548	64.3219
1544	64.2435
1540	64.2568
1536	64.3168
1532	64.3446
1528	64.2845
1524	64.2349
1520	64.3264
1516	64.4389
1512	64.4611
1508	64.4876
1504	64.5431
1500	64.501
1496	64.396
1492	64.3759
1488	64.3877
1484	64.389
1480	64.4014
1476	64.3788
1472	64.3089
1468	64.262
1464	64.3285
1460	64.4473
1456	64.4527
1452	64.3666
1448	64.3085
1444	64.3371
1440	64.4254
1436	64.4426
1432	64.3701
1428	64.3189
1424	64.3122
1420	64.3304
1416	64.3463
1412	64.2944
1408	64.2631
1404	64.3275
1400	64.3739
1396	64.3436
1392	64.2633
1388	64.2037
1384	64.174
1380	64.1368
1376	64.1526
1372	64.2135
1368	64.2179
1364	64.1783
1360	64.1902
1356	64.2115
1352	64.1853
1348	64.1919
1344	64.2362
1340	64.2649
1336	64.2854
1332	64.2893
1328	64.2871
1324	64.2481
1320	64.2158
1316	64.2822
1312	64.3296
1308	64.3267
1304	64.2902
1300	64.1776
1296	64.0852
1292	64.1113
1288	64.1836
1284	64.1516
1280	64.1033
1276	64.1433
1272	64.1639
1268	64.1425
1264	64.1257
1260	64.0796
1256	64.0249
1252	64.071
1248	64.1356
1244	64.1202
1240	64.0856
1236	64.0571
1232	64.0403
1228	64.0425
1224	64.0624
1220	64.0898
1216	64.1088
1212	64.0756
1208	63.9551
1204	63.8983
1200	64.03
1196	64.1658
1192	64.1304
1188	64.0491
1184	64.0774
1180	64.1075
1176	64.0045
1172	63.8867
1168	63.8617
1164	63.9036
1160	63.9558
1156	63.9372
1152	63.9319
1148	64.0099
1144	64.0313
1140	63.9812
1136	63.9697
1132	63.9447
1128	63.871
1124	63.8828
1120	64.0725
1116	64.2649
1112	64.2699
1108	64.2323
1104	64.2413
1100	64.1426
1096	63.9779
1092	63.9127
1088	63.915
1084	63.9432
1080	63.9851
1076	63.9616
1072	63.9069
1068	63.9399
1064	63.985
1060	63.9415
1056	63.9405
1052	63.9836
1048	63.9114
1044	63.826
1040	63.8697
1036	63.911
1032	63.9415
1028	63.9933
1024	63.9494
1020	63.8714
1016	63.8926
1012	63.9174
1008	63.8826
1004	63.9246
1000	64.0635
996	 64.1839
992	 64.1664
988	 64.0341
984	 64.0432
980	 64.2211
976	 64.2545
972	 64.1081
968	 63.9734
964	 63.9457
960	 64.037
956	 64.1058
952	 64.0536
948	 63.973
944	 63.952
940	 63.9822
936	 64.0213
932	 64.0284
928	 63.9764
924	 63.8853
920	 63.8685
916	 63.9194
912	 63.8882
908	 63.8721
904	 63.9399
900	 63.9666
896	 63.996
892	 64.0555
888	 64.1377
884	 64.26
880	 64.3004
876	 64.1452
872	 63.9522
868	 63.9528
864	 63.9893
860	 63.9354
856	 63.9959
852	 64.075
848	 63.9551
844	 63.8725
840	 64.0032
836	 64.1231
832	 64.077
828	 64.0064
824	 63.9222
820	 63.7483
816	 63.7065
812	 63.8271
808	 63.8717
804	 63.807
800	 63.829
796	 63.9963
792	 64.1266
788	 64.149
784	 64.1238
780	 64.0355
776	 63.9597
772	 63.9699
768	 63.9238
764	 63.8173
760	 63.817
756	 63.8715
752	 63.7621
748	 63.5818
744	 63.6019
740	 63.7384
736	 63.807
732	 63.8046
728	 63.7622
724	 63.5749
720	 63.4445
716	 63.6584
712	 63.8925
708	 64.0571
704	 64.1769
700	 63.9995
696	 63.8841
692	 64.1854
688	 64.2873
684	 63.7903
680	 63.2146
676	 63.1607
672	 63.5582
668	 63.7806
664	 63.437
660	 63.0134
656	 63.2587
652	 63.6993
648	 63.6594
644	 63.5949
640	 63.6617
636	 63.5463
632	 63.5728
628	 63.8866
624	 64.1171
620	 63.9514
616	 63.4362
612	 63.3856
608	 63.8846
604	 63.9246
600	 63.7143
596	 63.6867
592	 63.4994
588	 63.3028
584	 63.268
580	 63.5468
576	 64.0535
572	 64.201
568	 63.8972
564	 63.6351
560	 63.6648
556	 63.815
552	 63.8913
548	 63.8236
544	 63.5572
540	 63.1758
536	 63.1063
532	 63.3567
528	 63.4667
524	 63.3022
520	 63.1577
516	 63.0266
512	 63.0219
508	 63.503
504	 63.8815
500	 63.569
496	 62.9589
492	 62.8589
488	 63.5094
484	 64.1137
480	 64.2555
476	 63.8141
472	 63.0175
468	 62.7219
464	 63.1455
460	 63.612
456	 62.9199
452	 61.8793
448	 62.494
444	 63.4952
440	 63.0532
436	 62.3527
432	 62.4129
428	 62.9769
424	 63.5064
420	 63.3597
416	 62.4234
412	 60.7852
408	 60.058
404	 60.4558
400	 57.9823
396	 53.7622
392	 56.3025
388	 66.5141
384	 70.5312
380	 62.1388
376	 52.0274
372	 42.591
370	 37.7527