File: Bakgrunnsmateriale/MATLAB/FTIR/ftir_data/subAa/Mapping_121/BZ1503107-1_t99_cm-1.asc
PE IR       SPECTRUM    SPECTRUM    ASCII       PEDS        1.60
  -1
BZ61B5~1.ASC
17/04/07
21:22:58.00
17/04/07
21:22:58.00
tln
$BZ1503107-1_t0099$<tbV0>[-13.0,7.8,8.0,0.0,27,1,0]
370
64

2002,4.07
MIRTGS : RIGHTBACK : INTERNAL 2
MIR : ON : INTERNAL 2
OPTKBR

0.200000
8
8.000000
FILLER
RATIO
SPECTRUM
UNLOCKED 256

DOUBLE
64
COMBINED
1
0
0

1.000000
RATIO

1
0
TRUE
51149
0
LEFT NOT FITTED RIGHT NOT FITTED 0
NONE
NONE
15600
12
4.427000
51148
TRUE
1 0 8 72 0 0 0 0

15798

#HDR
-1
-1
#GR
CM-1
%T
2.38419e-05
0.0
5000
-1.000000
4631
8
85.1066
26.0184
#DATA
5000	65.2714
4996	65.6651
4992	65.7418
4988	64.8018
4984	64.2206
4980	63.8152
4976	63.7251
4972	64.4217
4968	64.6262
4964	64.1986
4960	63.4582
4956	63.9094
4952	65.9846
4948	66.0143
4944	63.7861
4940	63.1772
4936	64.6058
4932	65.4401
4928	64.9191
4924	64.4952
4920	64.4959
4916	64.3876
4912	64.6013
4908	65.2547
4904	65.0602
4900	64.4042
4896	64.3334
4892	64.4678
4888	64.7574
4884	65.1206
4880	65.0655
4876	64.7074
4872	64.5544
4868	64.5796
4864	64.5161
4860	64.4172
4856	64.3846
4852	64.2156
4848	64.0391
4844	64.2514
4840	64.5658
4836	64.8133
4832	65.0586
4828	65.1431
4824	65.1276
4820	65.2882
4816	65.2939
4812	64.9216
4808	64.7356
4804	64.76
4800	64.8431
4796	64.8921
4792	64.7943
4788	64.8372
4784	65.0737
4780	65.2742
4776	65.1823
4772	64.8836
4768	64.7593
4764	64.8014
4760	64.7965
4756	64.7047
4752	64.7054
4748	64.8846
4744	65.121
4740	65.3253
4736	65.3709
4732	65.1325
4728	64.8801
4724	64.8919
4720	64.8595
4716	64.8101
4712	64.9312
4708	64.9713
4704	64.872
4700	64.7305
4696	64.611
4692	64.6778
4688	64.9217
4684	65.1279
4680	65.2011
4676	65.1302
4672	65.0785
4668	65.1074
4664	65.1207
4660	65.0966
4656	65.0349
4652	65.0047
4648	65.0064
4644	64.9897
4640	64.9585
4636	64.9652
4632	65.0747
4628	65.2148
4624	65.2062
4620	64.9241
4616	64.5986
4612	64.5692
4608	64.7038
4604	64.7337
4600	64.6997
4596	64.6403
4592	64.5314
4588	64.4887
4584	64.4749
4580	64.4724
4576	64.4566
4572	64.3624
4568	64.3772
4564	64.4171
4560	64.3377
4556	64.212
4552	64.1328
4548	64.2763
4544	64.5846
4540	64.7068
4536	64.5189
4532	64.3291
4528	64.3584
4524	64.5116
4520	64.5938
4516	64.4352
4512	64.0944
4508	64.0752
4504	64.4313
4500	64.5218
4496	64.2853
4492	64.0834
4488	63.9209
4484	63.7928
4480	63.6221
4476	63.3104
4472	63.1062
4468	63.1885
4464	63.9595
4460	65.5524
4456	66.1082
4452	67.2547
4448	74.4752
4444	85.1066
4440	75.5602
4436	62.4308
4432	64.7647
4428	68.7335
4424	67.11
4420	65.6353
4416	64.8574
4412	64.4956
4408	64.4937
4404	64.6326
4400	64.7129
4396	64.6313
4392	64.3891
4388	64.1726
4384	64.1556
4380	64.0701
4376	64.2116
4372	64.5195
4368	64.4873
4364	64.3416
4360	64.3228
4356	64.2954
4352	64.1953
4348	64.1892
4344	64.3231
4340	64.2785
4336	64.0618
4332	64.0617
4328	64.2129
4324	64.3177
4320	64.312
4316	64.1756
4312	64.1068
4308	64.167
4304	64.2906
4300	64.4751
4296	64.5983
4292	64.6689
4288	64.7548
4284	64.6821
4280	64.5686
4276	64.5928
4272	64.4749
4268	64.2219
4264	64.2229
4260	64.5304
4256	64.8673
4252	65.0231
4248	65.0726
4244	65.0355
4240	64.806
4236	64.5637
4232	64.5991
4228	64.7996
4224	64.7789
4220	64.6633
4216	64.8436
4212	65.0692
4208	64.9517
4204	64.6888
4200	64.5133
4196	64.4046
4192	64.4905
4188	64.7112
4184	64.8662
4180	64.995
4176	65.1563
4172	65.3023
4168	65.2549
4164	65.077
4160	64.9863
4156	65.0042
4152	65.0453
4148	64.9824
4144	64.8985
4140	64.9065
4136	64.9231
4132	64.8511
4128	64.8014
4124	64.923
4120	65.0458
4116	65.0491
4112	65.1466
4108	65.2711
4104	65.1611
4100	64.981
4096	64.9723
4092	65.0268
4088	65.0027
4084	64.9215
4080	64.8587
4076	64.8503
4072	64.8397
4068	64.7812
4064	64.8324
4060	64.9763
4056	65.0009
4052	64.9221
4048	64.7859
4044	64.7131
4040	64.7637
4036	64.7617
4032	64.7563
4028	64.8437
4024	64.8636
4020	64.8548
4016	64.9354
4012	64.9436
4008	64.8665
4004	64.8792
4000	64.9716
3996	65.001
3992	64.9771
3988	64.9675
3984	64.9599
3980	64.9027
3976	64.8046
3972	64.7914
3968	64.8564
3964	64.9241
3960	64.9737
3956	64.9752
3952	64.8503
3948	64.5748
3944	64.4308
3940	64.5924
3936	64.7979
3932	64.879
3928	64.8535
3924	64.7566
3920	64.694
3916	64.7208
3912	64.7843
3908	64.7195
3904	64.5712
3900	64.6208
3896	64.852
3892	64.9631
3888	64.8229
3884	64.7255
3880	64.8776
3876	65.0845
3872	65.157
3868	65.127
3864	65.1881
3860	65.2806
3856	65.2313
3852	65.0599
3848	64.861
3844	64.807
3840	64.8832
3836	64.9461
3832	64.9372
3828	64.8645
3824	64.8937
3820	65.0148
3816	65.0485
3812	64.9765
3808	64.8502
3804	64.7897
3800	64.9055
3796	65.0705
3792	65.0267
3788	64.8911
3784	64.8847
3780	64.9354
3776	64.9726
3772	64.9947
3768	65.0549
3764	65.0606
3760	64.936
3756	64.8248
3752	64.7876
3748	64.7794
3744	64.7981
3740	64.8341
3736	64.8552
3732	64.9212
3728	65.0167
3724	65.0974
3720	65.1637
3716	65.1907
3712	65.1977
3708	65.2133
3704	65.3056
3700	65.3573
3696	65.2449
3692	65.1545
3688	65.1619
3684	65.1142
3680	64.9648
3676	64.8915
3672	64.9429
3668	64.9967
3664	65.0198
3660	64.9825
3656	64.9181
3652	64.9752
3648	65.1074
3644	65.0639
3640	64.958
3636	65.0323
3632	65.1244
3628	65.0661
3624	64.9527
3620	64.9061
3616	64.9233
3612	64.9428
3608	65.0024
3604	65.0901
3600	65.16
3596	65.2473
3592	65.2471
3588	65.106
3584	64.9827
3580	64.9343
3576	64.9389
3572	64.9931
3568	65.0524
3564	65.0397
3560	64.8916
3556	64.735
3552	64.6806
3548	64.7138
3544	64.8
3540	64.8323
3536	64.797
3532	64.8175
3528	64.8781
3524	64.872
3520	64.8451
3516	64.8631
3512	64.8999
3508	64.9147
3504	64.9567
3500	65.0408
3496	65.0038
3492	64.8897
3488	64.8406
3484	64.7908
3480	64.7771
3476	64.8566
3472	64.9547
3468	65.0068
3464	64.9815
3460	64.9402
3456	64.9334
3452	64.9094
3448	64.8751
3444	64.9062
3440	64.9471
3436	64.9102
3432	64.8381
3428	64.791
3424	64.8016
3420	64.8322
3416	64.8591
3412	64.8816
3408	64.861
3404	64.8233
3400	64.8093
3396	64.8686
3392	64.9159
3388	64.9049
3384	64.9299
3380	64.9236
3376	64.8794
3372	64.8034
3368	64.7392
3364	64.8375
3360	64.895
3356	64.8095
3352	64.8352
3348	64.9124
3344	64.9024
3340	64.8729
3336	64.8516
3332	64.8481
3328	64.8122
3324	64.7944
3320	64.8829
3316	64.93
3312	64.8662
3308	64.8537
3304	64.9723
3300	65.0443
3296	64.9696
3292	64.913
3288	64.906
3284	64.8513
3280	64.8322
3276	64.8855
3272	64.8793
3268	64.8449
3264	64.8734
3260	64.954
3256	65.0674
3252	65.1259
3248	65.0667
3244	64.9871
3240	64.9759
3236	65.0101
3232	64.9719
3228	64.8659
3224	64.8564
3220	64.8936
3216	64.8899
3212	64.8709
3208	64.8571
3204	64.8837
3200	64.8952
3196	64.8741
3192	64.8426
3188	64.7786
3184	64.7475
3180	64.8424
3176	64.9135
3172	64.8057
3168	64.7191
3164	64.8115
3160	64.9322
3156	64.8886
3152	64.7703
3148	64.7807
3144	64.864
3140	64.8967
3136	64.9239
3132	64.9364
3128	64.8974
3124	64.8449
3120	64.8064
3116	64.8434
3112	64.892
3108	64.8532
3104	64.8113
3100	64.8667
3096	64.9286
3092	64.9017
3088	64.8506
3084	64.8175
3080	64.8178
3076	64.838
3072	64.8121
3068	64.7566
3064	64.7611
3060	64.8176
3056	64.8554
3052	64.9227
3048	65.0025
3044	64.9536
3040	64.818
3036	64.7104
3032	64.6991
3028	64.7731
3024	64.8071
3020	64.7764
3016	64.7382
3012	64.7414
3008	64.784
3004	64.824
3000	64.8108
2996	64.7343
2992	64.6739
2988	64.6788
2984	64.7071
2980	64.753
2976	64.7852
2972	64.7462
2968	64.6998
2964	64.662
2960	64.6114
2956	64.569
2952	64.544
2948	64.6227
2944	64.7796
2940	64.8088
2936	64.7151
2932	64.6619
2928	64.6637
2924	64.6644
2920	64.6436
2916	64.6008
2912	64.5783
2908	64.6689
2904	64.7768
2900	64.7477
2896	64.6686
2892	64.5873
2888	64.5185
2884	64.5417
2880	64.6026
2876	64.6358
2872	64.6545
2868	64.6568
2864	64.6414
2860	64.6396
2856	64.6363
2852	64.5861
2848	64.5807
2844	64.5974
2840	64.5456
2836	64.5397
2832	64.6172
2828	64.6556
2824	64.6586
2820	64.7294
2816	64.7909
2812	64.7524
2808	64.6699
2804	64.6229
2800	64.622
2796	64.644
2792	64.6768
2788	64.6902
2784	64.7177
2780	64.7786
2776	64.8046
2772	64.7763
2768	64.7507
2764	64.7448
2760	64.71
2756	64.6701
2752	64.6545
2748	64.6496
2744	64.6504
2740	64.6233
2736	64.5975
2732	64.6519
2728	64.7322
2724	64.7198
2720	64.6433
2716	64.6271
2712	64.6676
2708	64.6788
2704	64.6535
2700	64.6246
2696	64.6066
2692	64.5807
2688	64.5744
2684	64.604
2680	64.6413
2676	64.6735
2672	64.6748
2668	64.6496
2664	64.6303
2660	64.6669
2656	64.6985
2652	64.698
2648	64.7397
2644	64.7748
2640	64.7424
2636	64.688
2632	64.6784
2628	64.6721
2624	64.6208
2620	64.593
2616	64.661
2612	64.7337
2608	64.6909
2604	64.5946
2600	64.5662
2596	64.6388
2592	64.6851
2588	64.6449
2584	64.6639
2580	64.7302
2576	64.7325
2572	64.7014
2568	64.6475
2564	64.6116
2560	64.6333
2556	64.6475
2552	64.6318
2548	64.5735
2544	64.5059
2540	64.5202
2536	64.589
2532	64.6194
2528	64.6052
2524	64.6203
2520	64.6678
2516	64.668
2512	64.6046
2508	64.5355
2504	64.4893
2500	64.5153
2496	64.6372
2492	64.7387
2488	64.7404
2484	64.6616
2480	64.6264
2476	64.672
2472	64.686
2468	64.6749
2464	64.6894
2460	64.6911
2456	64.6667
2452	64.6416
2448	64.5686
2444	64.4756
2440	64.4711
2436	64.5241
2432	64.5863
2428	64.6505
2424	64.6703
2420	64.6462
2416	64.6087
2412	64.574
2408	64.5478
2404	64.5037
2400	64.5115
2396	64.5826
2392	64.5727
2388	64.5411
2384	64.5942
2380	64.6446
2376	64.6059
2372	64.5134
2368	64.4876
2364	64.5448
2360	64.5833
2356	64.5445
2352	64.4787
2348	64.4855
2344	64.5133
2340	64.4785
2336	64.4568
2332	64.4607
2328	64.4863
2324	64.5821
2320	64.6391
2316	64.6017
2312	64.5785
2308	64.542
2304	64.4087
2300	64.3257
2296	64.4095
2292	64.5035
2288	64.4981
2284	64.4617
2280	64.4626
2276	64.51
2272	64.5542
2268	64.5102
2264	64.4421
2260	64.4678
2256	64.5454
2252	64.5832
2248	64.5471
2244	64.4733
2240	64.4085
2236	64.3541
2232	64.348
2228	64.3884
2224	64.3697
2220	64.3296
2216	64.356
2212	64.3832
2208	64.3444
2204	64.2958
2200	64.3025
2196	64.3429
2192	64.3749
2188	64.3707
2184	64.3768
2180	64.3892
2176	64.3557
2172	64.3293
2168	64.3247
2164	64.3044
2160	64.2863
2156	64.2844
2152	64.2353
2148	64.1788
2144	64.2283
2140	64.3065
2136	64.3358
2132	64.3116
2128	64.2645
2124	64.3026
2120	64.3492
2116	64.3117
2112	64.2904
2108	64.3353
2104	64.3608
2100	64.3058
2096	64.2544
2092	64.2321
2088	64.188
2084	64.1848
2080	64.2229
2076	64.2121
2072	64.1908
2068	64.208
2064	64.254
2060	64.3192
2056	64.3589
2052	64.3205
2048	64.2495
2044	64.2199
2040	64.2356
2036	64.2642
2032	64.2414
2028	64.1909
2024	64.1841
2020	64.1921
2016	64.1893
2012	64.202
2008	64.235
2004	64.2916
2000	64.3422
1996	64.3175
1992	64.2508
1988	64.2052
1984	64.1777
1980	64.1841
1976	64.2341
1972	64.2968
1968	64.3232
1964	64.2959
1960	64.2563
1956	64.2158
1952	64.165
1948	64.1249
1944	64.1062
1940	64.1203
1936	64.1344
1932	64.1181
1928	64.1223
1924	64.1622
1920	64.1917
1916	64.1931
1912	64.1956
1908	64.2033
1904	64.167
1900	64.0843
1896	64.0671
1892	64.1512
1888	64.201
1884	64.1305
1880	64.0625
1876	64.0917
1872	64.1537
1868	64.1863
1864	64.1874
1860	64.1882
1856	64.181
1852	64.1276
1848	64.0436
1844	63.9951
1840	64.0102
1836	64.0514
1832	64.0935
1828	64.1011
1824	64.0713
1820	64.0517
1816	64.0463
1812	64.0673
1808	64.1118
1804	64.1205
1800	64.1145
1796	64.1167
1792	64.0584
1788	63.9494
1784	63.8868
1780	63.8922
1776	63.9086
1772	63.9292
1768	63.9542
1764	63.944
1760	63.8835
1756	63.7774
1752	63.7022
1748	63.7357
1744	63.7722
1740	63.7253
1736	63.6715
1732	63.6493
1728	63.6658
1724	63.6838
1720	63.7037
1716	63.7783
1712	63.8264
1708	63.8117
1704	63.8406
1700	63.9064
1696	63.9095
1692	63.8594
1688	63.8114
1684	63.8122
1680	63.8281
1676	63.8002
1672	63.786
1668	63.8358
1664	63.8996
1660	63.9257
1656	63.8882
1652	63.8369
1648	63.8589
1644	63.879
1640	63.8323
1636	63.7893
1632	63.7915
1628	63.8158
1624	63.8316
1620	63.8365
1616	63.8383
1612	63.8262
1608	63.7887
1604	63.7522
1600	63.7348
1596	63.7354
1592	63.7542
1588	63.745
1584	63.678
1580	63.6447
1576	63.7182
1572	63.7783
1568	63.7352
1564	63.6841
1560	63.7279
1556	63.8073
1552	63.7966
1548	63.7462
1544	63.729
1540	63.7116
1536	63.6946
1532	63.6931
1528	63.6805
1524	63.6717
1520	63.7035
1516	63.725
1512	63.729
1508	63.7653
1504	63.7875
1500	63.7744
1496	63.7743
1492	63.7927
1488	63.7785
1484	63.7069
1480	63.6636
1476	63.6793
1472	63.6787
1468	63.672
1464	63.6708
1460	63.6405
1456	63.5833
1452	63.5372
1448	63.5503
1444	63.5884
1440	63.6513
1436	63.7479
1432	63.7314
1428	63.6415
1424	63.6368
1420	63.6236
1416	63.5521
1412	63.5148
1408	63.5334
1404	63.5647
1400	63.5365
1396	63.4503
1392	63.4024
1388	63.4157
1384	63.4576
1380	63.5003
1376	63.4997
1372	63.4807
1368	63.4995
1364	63.5259
1360	63.5172
1356	63.4743
1352	63.4716
1348	63.5449
1344	63.5689
1340	63.4964
1336	63.4204
1332	63.4589
1328	63.5387
1324	63.5076
1320	63.4565
1316	63.4615
1312	63.4999
1308	63.5316
1304	63.5125
1300	63.4778
1296	63.448
1292	63.4231
1288	63.3857
1284	63.3621
1280	63.3995
1276	63.4031
1272	63.3441
1268	63.3051
1264	63.3122
1260	63.3379
1256	63.3308
1252	63.3232
1248	63.3524
1244	63.3805
1240	63.3485
1236	63.2393
1232	63.1778
1228	63.2453
1224	63.3538
1220	63.407
1216	63.4073
1212	63.3855
1208	63.335
1204	63.3146
1200	63.3574
1196	63.3514
1192	63.3013
1188	63.2749
1184	63.2375
1180	63.2035
1176	63.2036
1172	63.1835
1168	63.1323
1164	63.1161
1160	63.1503
1156	63.1938
1152	63.202
1148	63.2063
1144	63.1887
1140	63.1435
1136	63.1336
1132	63.1283
1128	63.1236
1124	63.2094
1120	63.3174
1116	63.2597
1112	63.1214
1108	63.0471
1104	63.0836
1100	63.1771
1096	63.2111
1092	63.187
1088	63.1157
1084	62.9794
1080	62.8442
1076	62.8576
1072	62.9675
1068	62.9925
1064	62.9958
1060	63.046
1056	63.0231
1052	62.9655
1048	63.0048
1044	63.0985
1040	63.1111
1036	63.0308
1032	63.025
1028	63.1086
1024	63.0823
1020	62.9288
1016	62.8416
1012	62.8719
1008	62.9458
1004	63.0135
1000	63.0685
996	 63.1228
992	 63.1685
988	 63.2395
984	 63.3516
980	 63.3941
976	 63.3093
972	 63.2066
968	 63.1089
964	 63.0383
960	 63.0825
956	 63.1604
952	 63.1776
948	 63.095
944	 62.9939
940	 63.0347
936	 63.1362
932	 63.1903
928	 63.181
924	 63.0794
920	 62.926
916	 62.8326
912	 62.9229
908	 62.9991
904	 62.875
900	 62.8401
896	 62.9683
892	 63.0237
888	 62.9711
884	 62.8973
880	 62.8102
876	 62.7571
872	 62.8097
868	 62.9356
864	 63.0553
860	 62.9866
856	 62.8045
852	 62.762
848	 62.7548
844	 62.753
840	 62.8591
836	 62.909
832	 62.8588
828	 62.8744
824	 63.0257
820	 63.1641
816	 63.111
812	 62.9926
808	 62.936
804	 62.8563
800	 62.8166
796	 62.9161
792	 63.0274
788	 63.0419
784	 63.0424
780	 63.0909
776	 63.0206
772	 62.8082
768	 62.6709
764	 62.6966
760	 62.8079
756	 62.9238
752	 63.0034
748	 63.008
744	 63.0081
740	 63.0851
736	 63.1453
732	 63.0915
728	 62.9128
724	 62.7658
720	 62.7691
716	 62.7181
712	 62.5933
708	 62.5925
704	 62.6166
700	 62.5645
696	 62.4823
692	 62.3792
688	 62.3668
684	 62.3649
680	 62.2571
676	 62.2497
672	 62.4079
668	 62.5349
664	 62.5215
660	 62.4467
656	 62.373
652	 62.3621
648	 62.3972
644	 62.5066
640	 62.6239
636	 62.5452
632	 62.4971
628	 62.5541
624	 62.4418
620	 62.2026
616	 62.0264
612	 62.257
608	 62.8429
604	 62.8846
600	 62.495
596	 62.4529
592	 62.5977
588	 62.3684
584	 61.8334
580	 61.7386
576	 62.0683
572	 62.3098
568	 62.4414
564	 62.4912
560	 62.5744
556	 62.6768
552	 62.6281
548	 62.579
544	 62.325
540	 62.0553
536	 62.2091
532	 62.0455
528	 61.5659
524	 61.8149
520	 62.5325
516	 62.5988
512	 62.743
508	 63.207
504	 62.0535
500	 60.3914
496	 61.2119
492	 63.3663
488	 63.9248
484	 63.0825
480	 62.7687
476	 63.0913
472	 62.5708
468	 61.5343
464	 61.6923
460	 62.5667
456	 62.6546
452	 61.8824
448	 60.3222
444	 59.2571
440	 60.144
436	 61.3585
432	 61.1953
428	 60.7333
424	 61.6676
420	 63.2052
416	 62.2302
412	 59.9333
408	 59.8582
404	 60.9015
400	 58.2351
396	 51.441
392	 51.8658
388	 62.1336
384	 66.9248
380	 56.9456
376	 41.0813
372	 29.5907
370	 26.0184